Timestamp (ms),ISO DateTime,Elapsed Time (ms),Acceleration X,Acceleration Y,Acceleration Z
1725696186816,2024-09-07T08:03:06.816Z,47081,-0.06500244,-0.9663696,0.14984131
1725696186854,2024-09-07T08:03:06.854Z,47119,-0.08416748,-0.99224854,0.15893555
1725696186898,2024-09-07T08:03:06.898Z,47163,-0.084472656,-0.9914551,0.15332031
1725696186942,2024-09-07T08:03:06.942Z,47207,-0.09350586,-1.0102539,0.16558838
1725696186987,2024-09-07T08:03:06.987Z,47252,-0.10321045,-1.0645752,0.17193604
1725696187034,2024-09-07T08:03:07.034Z,47299,-0.12677002,-1.098999,0.17614746
1725696187077,2024-09-07T08:03:07.077Z,47342,-0.14471436,-1.0970459,0.1796875
1725696187130,2024-09-07T08:03:07.130Z,47395,-0.1451416,-1.0817871,0.21020508
1725696187174,2024-09-07T08:03:07.174Z,47439,-0.16699219,-1.0604858,0.21588135
1725696187221,2024-09-07T08:03:07.221Z,47486,-0.203125,-1.0678711,0.24145508
1725696187243,2024-09-07T08:03:07.243Z,47508,-0.23687744,-1.1061401,0.2498169
1725696187263,2024-09-07T08:03:07.263Z,47528,-0.27526855,-1.1044922,0.2649536
1725696187309,2024-09-07T08:03:07.309Z,47574,-0.2562256,-1.0758057,0.24798584
1725696187357,2024-09-07T08:03:07.357Z,47622,-0.26208496,-1.0427856,0.21105957
1725696187400,2024-09-07T08:03:07.400Z,47665,-0.26568604,-1.017334,0.24835205
1725696187446,2024-09-07T08:03:07.446Z,47711,-0.30993652,-1.0074463,0.2680664
1725696187489,2024-09-07T08:03:07.489Z,47754,-0.29956055,-0.9588623,0.24206543
1725696187535,2024-09-07T08:03:07.535Z,47800,-0.31469727,-0.95318604,0.15649414
1725696187582,2024-09-07T08:03:07.582Z,47847,-0.33807373,-0.9555054,0.21575928
1725696187626,2024-09-07T08:03:07.626Z,47891,-0.3673706,-0.9593506,0.17645264
1725696187651,2024-09-07T08:03:07.651Z,47916,-0.36401367,-0.93896484,0.17755127
1725696187669,2024-09-07T08:03:07.669Z,47934,-0.36273193,-0.9493408,0.09710693
1725696187713,2024-09-07T08:03:07.713Z,47978,-0.32580566,-0.9402466,0.073913574
1725696187757,2024-09-07T08:03:07.757Z,48022,-0.33477783,-0.909729,0.041809082
1725696187804,2024-09-07T08:03:07.804Z,48069,-0.3118286,-0.8594971,0.017333984
1725696187851,2024-09-07T08:03:07.851Z,48116,-0.29260254,-0.8260498,0.018798828
1725696187893,2024-09-07T08:03:07.893Z,48158,-0.26135254,-0.77770996,0.044555664
1725696187943,2024-09-07T08:03:07.943Z,48208,-0.26849365,-0.7800293,0.015563965
1725696188081,2024-09-07T08:03:08.081Z,48346,-0.27093506,-0.7938843,0.0524292
1725696188103,2024-09-07T08:03:08.103Z,48368,-0.22998047,-0.82196045,0.07537842
1725696188124,2024-09-07T08:03:08.124Z,48389,-0.2107544,-0.88793945,0.045776367
1725696188137,2024-09-07T08:03:08.137Z,48402,-0.10925293,-0.871521,0.023071289
1725696188152,2024-09-07T08:03:08.152Z,48417,-0.1239624,-0.7520752,0.09942627
1725696188167,2024-09-07T08:03:08.167Z,48432,-0.061157227,-0.65026855,0.043823242
1725696188206,2024-09-07T08:03:08.206Z,48471,-0.14916992,-0.7411499,0.0051879883
1725696188250,2024-09-07T08:03:08.250Z,48515,-0.10211182,-0.9274292,0.018310547
1725696188297,2024-09-07T08:03:08.297Z,48562,-0.18255615,-1.0640869,-0.008117676
1725696188343,2024-09-07T08:03:08.343Z,48608,-0.1638794,-0.9544678,0.05822754
1725696188390,2024-09-07T08:03:08.390Z,48655,-0.13494873,-0.88275146,-0.025939941
1725696188434,2024-09-07T08:03:08.434Z,48699,-0.14782715,-0.9188843,-0.0256958
1725696188532,2024-09-07T08:03:08.532Z,48797,-0.17822266,-1.0130615,0.041748047
1725696188567,2024-09-07T08:03:08.567Z,48832,-0.20135498,-1.0394897,0.02532959
1725696188594,2024-09-07T08:03:08.594Z,48859,-0.19525146,-1.0040894,0.0
1725696188615,2024-09-07T08:03:08.615Z,48880,-0.19628906,-0.9366455,0.0579834
1725696188635,2024-09-07T08:03:08.635Z,48900,-0.17749023,-0.88964844,-0.009216309
1725696188655,2024-09-07T08:03:08.655Z,48920,-0.19610596,-0.88653564,-0.016235352
1725696188700,2024-09-07T08:03:08.700Z,48965,-0.20562744,-0.92578125,-0.011474609
1725696188747,2024-09-07T08:03:08.747Z,49012,-0.23376465,-0.93084717,-0.052734375
1725696188794,2024-09-07T08:03:08.794Z,49059,-0.21765137,-0.9434204,-0.024963379
1725696188838,2024-09-07T08:03:08.838Z,49103,-0.24719238,-0.8942871,-0.0368042
1725696188887,2024-09-07T08:03:08.887Z,49152,-0.18566895,-0.8956299,-0.03729248
1725696188915,2024-09-07T08:03:08.915Z,49180,-0.24951172,-0.8592529,0.007507324
1725696188938,2024-09-07T08:03:08.938Z,49203,-0.19940186,-0.8932495,-0.068847656
1725696188971,2024-09-07T08:03:08.971Z,49236,-0.25109863,-0.87194824,-0.010986328
1725696189034,2024-09-07T08:03:09.034Z,49299,-0.25720215,-0.91845703,-0.051574707
1725696189063,2024-09-07T08:03:09.063Z,49328,-0.27752686,-0.8809204,-0.050048828
1725696189109,2024-09-07T08:03:09.109Z,49374,-0.26312256,-0.8989258,-0.060424805
1725696189201,2024-09-07T08:03:09.201Z,49466,-0.2979126,-0.8739624,-0.043273926
1725696189222,2024-09-07T08:03:09.222Z,49487,-0.26708984,-0.89208984,-0.07849121
1725696189242,2024-09-07T08:03:09.242Z,49507,-0.28460693,-0.857666,-0.0032348633
1725696189295,2024-09-07T08:03:09.295Z,49560,-0.26306152,-0.87402344,-0.08331299
1725696189313,2024-09-07T08:03:09.313Z,49578,-0.26361084,-0.8902588,-0.039489746
1725696189328,2024-09-07T08:03:09.328Z,49593,-0.2902832,-0.89227295,-0.06542969
1725696189376,2024-09-07T08:03:09.376Z,49641,-0.28363037,-0.8649292,-0.068115234
1725696189423,2024-09-07T08:03:09.423Z,49688,-0.2880249,-0.90686035,-0.06359863
1725696189470,2024-09-07T08:03:09.470Z,49735,-0.29852295,-0.9063721,-0.038208008
1725696189511,2024-09-07T08:03:09.511Z,49776,-0.31274414,-0.9492798,-0.01574707
1725696189606,2024-09-07T08:03:09.606Z,49871,-0.35742188,-0.9970093,-0.0076293945
1725696189627,2024-09-07T08:03:09.627Z,49892,-0.3834839,-1.0255127,-0.024169922
1725696189646,2024-09-07T08:03:09.646Z,49911,-0.36853027,-0.9624634,-0.011291504
1725696189694,2024-09-07T08:03:09.694Z,49959,-0.37799072,-0.95788574,-0.018859863
1725696189737,2024-09-07T08:03:09.737Z,50002,-0.37841797,-0.9349365,0.019226074
1725696189755,2024-09-07T08:03:09.755Z,50020,-0.38586426,-0.97802734,-0.030456543
1725696189777,2024-09-07T08:03:09.777Z,50042,-0.39440918,-0.97094727,0.038330078
1725696189826,2024-09-07T08:03:09.826Z,50091,-0.37652588,-0.9636841,-0.049438477
1725696189872,2024-09-07T08:03:09.872Z,50137,-0.37738037,-0.9623413,0.020690918
1725696189967,2024-09-07T08:03:09.967Z,50232,-0.39709473,-0.94348145,-0.0021972656
1725696189989,2024-09-07T08:03:09.989Z,50254,-0.3885498,-0.92456055,0.031188965
1725696190055,2024-09-07T08:03:10.055Z,50320,-0.3729248,-0.9211426,0.022705078
1725696190076,2024-09-07T08:03:10.076Z,50341,-0.36950684,-0.92944336,0.07006836
1725696190095,2024-09-07T08:03:10.095Z,50360,-0.3453369,-0.93182373,0.034118652
1725696190141,2024-09-07T08:03:10.141Z,50406,-0.33569336,-0.9593506,0.04724121
1725696190156,2024-09-07T08:03:10.156Z,50421,-0.34039307,-0.9569092,0.03778076
1725696190182,2024-09-07T08:03:10.182Z,50447,-0.3244629,-0.96746826,0.044189453
1725696190282,2024-09-07T08:03:10.282Z,50547,-0.35272217,-0.9841919,0.07775879
1725696190309,2024-09-07T08:03:10.309Z,50574,-0.3213501,-0.9949951,0.053710938
1725696190326,2024-09-07T08:03:10.326Z,50591,-0.34960938,-0.99749756,0.078308105
1725696190363,2024-09-07T08:03:10.363Z,50628,-0.31854248,-0.96917725,0.08251953
1725696190413,2024-09-07T08:03:10.413Z,50678,-0.33587646,-0.93218994,0.08270264
1725696190459,2024-09-07T08:03:10.459Z,50724,-0.30566406,-0.9157715,0.11071777
1725696190505,2024-09-07T08:03:10.505Z,50770,-0.2444458,-0.90789795,0.10473633
1725696190547,2024-09-07T08:03:10.547Z,50812,-0.23883057,-0.9065552,0.10675049
1725696190566,2024-09-07T08:03:10.566Z,50831,-0.24908447,-0.94329834,0.11022949
1725696190590,2024-09-07T08:03:10.590Z,50855,-0.25598145,-1.006897,0.13024902
1725696190636,2024-09-07T08:03:10.636Z,50901,-0.21411133,-1.0404663,0.12445068
1725696190685,2024-09-07T08:03:10.685Z,50950,-0.18115234,-1.0411987,0.124816895
1725696190731,2024-09-07T08:03:10.731Z,50996,-0.15368652,-1.0508423,0.14923096
1725696190776,2024-09-07T08:03:10.776Z,51041,-0.12194824,-1.055481,0.15435791
1725696190818,2024-09-07T08:03:10.818Z,51083,-0.07055664,-1.0563965,0.13922119
1725696190864,2024-09-07T08:03:10.864Z,51129,-0.05609131,-1.038147,0.15789795
1725696190912,2024-09-07T08:03:10.912Z,51177,-0.038208008,-1.0248413,0.13323975
1725696190955,2024-09-07T08:03:10.955Z,51220,-0.0126953125,-1.005188,0.144104
1725696190998,2024-09-07T08:03:10.998Z,51263,-0.009643555,-0.9923096,0.16149902
1725696191017,2024-09-07T08:03:11.017Z,51282,-0.0087890625,-0.97283936,0.1873169
1725696191041,2024-09-07T08:03:11.041Z,51306,-0.02508545,-0.9608154,0.1876831
1725696191087,2024-09-07T08:03:11.087Z,51352,-0.032592773,-0.9595947,0.19476318
1725696191130,2024-09-07T08:03:11.130Z,51395,-0.05987549,-0.9647217,0.20532227
1725696191178,2024-09-07T08:03:11.178Z,51443,-0.07470703,-0.9729614,0.18939209
1725696191224,2024-09-07T08:03:11.224Z,51489,-0.10253906,-0.97888184,0.19494629
1725696191265,2024-09-07T08:03:11.265Z,51530,-0.12109375,-1.0181885,0.20812988
1725696191312,2024-09-07T08:03:11.312Z,51577,-0.14215088,-1.0636597,0.23059082
1725696191359,2024-09-07T08:03:11.359Z,51624,-0.16436768,-1.0897827,0.25646973
1725696191404,2024-09-07T08:03:11.404Z,51669,-0.17407227,-1.086731,0.28875732
1725696191425,2024-09-07T08:03:11.425Z,51690,-0.1932373,-1.0591431,0.2909546
1725696191451,2024-09-07T08:03:11.451Z,51716,-0.22113037,-1.06073,0.27172852
1725696191491,2024-09-07T08:03:11.491Z,51756,-0.26086426,-1.104065,0.25183105
1725696191542,2024-09-07T08:03:11.542Z,51807,-0.28198242,-1.1191406,0.27844238
1725696191585,2024-09-07T08:03:11.585Z,51850,-0.2699585,-1.085022,0.2647705
1725696191627,2024-09-07T08:03:11.627Z,51892,-0.2705078,-1.0418091,0.27661133
1725696191673,2024-09-07T08:03:11.673Z,51938,-0.32556152,-1.0370483,0.19000244
1725696191722,2024-09-07T08:03:11.722Z,51987,-0.32019043,-1.0184937,0.21697998
1725696191766,2024-09-07T08:03:11.766Z,52031,-0.37469482,-1.001831,0.17327881
1725696191812,2024-09-07T08:03:11.812Z,52077,-0.3463745,-0.9490967,0.18908691
1725696191833,2024-09-07T08:03:11.833Z,52098,-0.38891602,-0.93530273,0.09649658
1725696191849,2024-09-07T08:03:11.849Z,52114,-0.38269043,-0.8948364,0.16125488
1725696191893,2024-09-07T08:03:11.893Z,52158,-0.4293213,-0.89678955,0.047729492
1725696191945,2024-09-07T08:03:11.945Z,52210,-0.43255615,-0.89801025,0.018737793
1725696191990,2024-09-07T08:03:11.990Z,52255,-0.41815186,-0.9085083,-0.028930664
1725696192034,2024-09-07T08:03:12.034Z,52299,-0.368042,-0.90893555,-0.030639648
1725696192077,2024-09-07T08:03:12.077Z,52342,-0.35809326,-0.8630371,-0.037109375
1725696192123,2024-09-07T08:03:12.123Z,52388,-0.33929443,-0.86309814,-0.022521973
1725696192169,2024-09-07T08:03:12.169Z,52434,-0.34857178,-0.8800049,-0.0211792
1725696192214,2024-09-07T08:03:12.214Z,52479,-0.34448242,-0.8562012,-0.026123047
1725696192260,2024-09-07T08:03:12.260Z,52525,-0.33026123,-0.82855225,-0.051940918
1725696192283,2024-09-07T08:03:12.283Z,52548,-0.2805786,-0.81018066,-0.072265625
1725696192308,2024-09-07T08:03:12.308Z,52573,-0.24328613,-0.8062134,-0.05706787
1725696192347,2024-09-07T08:03:12.347Z,52612,-0.21276855,-0.7880249,-0.09820557
1725696192391,2024-09-07T08:03:12.391Z,52656,-0.17456055,-0.8012085,-0.12542725
1725696192442,2024-09-07T08:03:12.442Z,52707,-0.16430664,-0.81555176,-0.05505371
1725696192485,2024-09-07T08:03:12.485Z,52750,-0.1463623,-0.8470459,-0.059143066
1725696192529,2024-09-07T08:03:12.529Z,52794,-0.16192627,-0.8324585,-0.086120605
1725696192573,2024-09-07T08:03:12.573Z,52838,-0.16485596,-0.85388184,-0.10992432
1725696192619,2024-09-07T08:03:12.619Z,52884,-0.19366455,-0.8847046,-0.05114746
1725696192665,2024-09-07T08:03:12.665Z,52930,-0.18286133,-0.8864136,-0.05529785
1725696192687,2024-09-07T08:03:12.687Z,52952,-0.19970703,-0.86151123,-0.05444336
1725696192709,2024-09-07T08:03:12.709Z,52974,-0.16870117,-0.8764038,-0.04663086
1725696192752,2024-09-07T08:03:12.752Z,53017,-0.20166016,-0.958374,-0.027832031
1725696192798,2024-09-07T08:03:12.798Z,53063,-0.17773438,-1.0568848,-0.016906738
1725696192844,2024-09-07T08:03:12.844Z,53109,-0.16070557,-1.0389404,0.022827148
1725696192887,2024-09-07T08:03:12.887Z,53152,-0.15020752,-0.97283936,0.020324707
1725696192933,2024-09-07T08:03:12.933Z,53198,-0.12365723,-0.9302368,0.06390381
1725696192979,2024-09-07T08:03:12.979Z,53244,-0.14971924,-0.9537964,0.054504395
1725696193023,2024-09-07T08:03:13.023Z,53288,-0.1819458,-0.97351074,0.07537842
1725696193070,2024-09-07T08:03:13.070Z,53335,-0.19537354,-0.95977783,0.08453369
1725696193094,2024-09-07T08:03:13.094Z,53359,-0.20904541,-0.92736816,0.03967285
1725696193115,2024-09-07T08:03:13.115Z,53380,-0.21862793,-0.91833496,0.043395996
1725696193156,2024-09-07T08:03:13.156Z,53421,-0.22961426,-0.8866577,0.036987305
1725696193205,2024-09-07T08:03:13.205Z,53470,-0.22259521,-0.8529053,0.010803223
1725696193247,2024-09-07T08:03:13.247Z,53512,-0.22717285,-0.85162354,0.0010986328
1725696193295,2024-09-07T08:03:13.295Z,53560,-0.2626953,-0.90057373,-0.0029907227
1725696193342,2024-09-07T08:03:13.342Z,53607,-0.2689209,-0.850708,0.010620117
1725696193389,2024-09-07T08:03:13.389Z,53654,-0.26696777,-0.8656006,-0.027770996
1725696193430,2024-09-07T08:03:13.430Z,53695,-0.27764893,-0.8289795,-0.002746582
1725696193475,2024-09-07T08:03:13.475Z,53740,-0.2769165,-0.90216064,-0.061279297
1725696193523,2024-09-07T08:03:13.523Z,53788,-0.30767822,-0.86761475,-0.033813477
1725696193548,2024-09-07T08:03:13.548Z,53813,-0.32507324,-0.869751,-0.05230713
1725696193564,2024-09-07T08:03:13.564Z,53829,-0.31585693,-0.8430176,-0.06542969
1725696193603,2024-09-07T08:03:13.603Z,53868,-0.31207275,-0.86621094,-0.13104248
1725696193653,2024-09-07T08:03:13.653Z,53918,-0.3550415,-0.8779297,-0.013122559
1725696193701,2024-09-07T08:03:13.701Z,53966,-0.35308838,-0.8857422,-0.061767578
1725696193744,2024-09-07T08:03:13.744Z,54009,-0.31799316,-0.87493896,-0.037902832
1725696193790,2024-09-07T08:03:13.790Z,54055,-0.3274536,-0.88360596,-0.15576172
1725696193834,2024-09-07T08:03:13.834Z,54099,-0.35046387,-0.91516113,-0.06982422
1725696193882,2024-09-07T08:03:13.882Z,54147,-0.35424805,-0.897522,-0.119384766
1725696193926,2024-09-07T08:03:13.926Z,54191,-0.33154297,-0.9335327,-0.066711426
1725696193949,2024-09-07T08:03:13.949Z,54214,-0.30065918,-0.93408203,-0.12823486
1725696193972,2024-09-07T08:03:13.972Z,54237,-0.33483887,-0.9729614,-0.11541748
1725696194014,2024-09-07T08:03:14.014Z,54279,-0.36743164,-0.98321533,-0.07110596
1725696194061,2024-09-07T08:03:14.061Z,54326,-0.3501587,-0.9560547,-0.095458984
1725696194107,2024-09-07T08:03:14.107Z,54372,-0.3034668,-0.9470215,-0.06945801
1725696194150,2024-09-07T08:03:14.150Z,54415,-0.28912354,-0.9523926,-0.07672119
1725696194194,2024-09-07T08:03:14.194Z,54459,-0.30499268,-0.99072266,0.027038574
1725696194241,2024-09-07T08:03:14.241Z,54506,-0.29437256,-0.97021484,-0.018188477
1725696194283,2024-09-07T08:03:14.283Z,54548,-0.256958,-0.9876709,-0.046020508
1725696194328,2024-09-07T08:03:14.328Z,54593,-0.2750244,-0.96295166,-0.013366699
1725696194350,2024-09-07T08:03:14.350Z,54615,-0.25579834,-0.9515381,0.023376465
1725696194376,2024-09-07T08:03:14.376Z,54641,-0.27148438,-0.9824829,0.056762695
1725696194417,2024-09-07T08:03:14.417Z,54682,-0.2300415,-0.9752197,0.05847168
1725696194462,2024-09-07T08:03:14.462Z,54727,-0.22418213,-1.0219116,0.057922363
1725696194511,2024-09-07T08:03:14.511Z,54776,-0.21850586,-1.0553589,0.11212158
1725696194554,2024-09-07T08:03:14.554Z,54819,-0.17956543,-1.0635986,0.080200195
1725696194606,2024-09-07T08:03:14.606Z,54871,-0.16046143,-1.0737305,0.1282959
1725696194645,2024-09-07T08:03:14.645Z,54910,-0.1418457,-1.0507812,0.12628174
1725696194689,2024-09-07T08:03:14.689Z,54954,-0.1204834,-1.0194702,0.20306396
1725696194735,2024-09-07T08:03:14.735Z,55000,-0.13238525,-0.99468994,0.1628418
1725696194782,2024-09-07T08:03:14.782Z,55047,-0.12731934,-0.97540283,0.16479492
1725696194805,2024-09-07T08:03:14.805Z,55070,-0.14782715,-0.9761963,0.16320801
1725696194839,2024-09-07T08:03:14.839Z,55104,-0.137146,-0.98986816,0.16937256
1725696194867,2024-09-07T08:03:14.867Z,55132,-0.17706299,-0.9998779,0.22399902
1725696194915,2024-09-07T08:03:14.915Z,55180,-0.117004395,-0.9958496,0.17559814
1725696194961,2024-09-07T08:03:14.961Z,55226,-0.11920166,-0.98583984,0.19659424
1725696195005,2024-09-07T08:03:15.005Z,55270,-0.07281494,-0.9869995,0.19494629
1725696195051,2024-09-07T08:03:15.051Z,55316,-0.041625977,-0.9746704,0.24993896
1725696195093,2024-09-07T08:03:15.093Z,55358,-0.029541016,-1.020752,0.24511719
1725696195139,2024-09-07T08:03:15.139Z,55404,-0.003967285,-1.0317993,0.25787354
1725696195185,2024-09-07T08:03:15.185Z,55450,0.007019043,-1.0370483,0.27850342
1725696195211,2024-09-07T08:03:15.211Z,55476,0.0138549805,-1.0214844,0.27667236
1725696195273,2024-09-07T08:03:15.273Z,55538,0.031982422,-0.9857178,0.31933594
1725696195294,2024-09-07T08:03:15.294Z,55559,0.020996094,-0.930603,0.29943848
1725696195317,2024-09-07T08:03:15.317Z,55582,0.04663086,-0.90283203,0.27893066
1725696195364,2024-09-07T08:03:15.364Z,55629,0.030151367,-0.9104004,0.28979492
1725696195410,2024-09-07T08:03:15.410Z,55675,0.032165527,-0.9255371,0.3083496
1725696195455,2024-09-07T08:03:15.455Z,55720,0.023498535,-0.9361572,0.30352783
1725696195500,2024-09-07T08:03:15.500Z,55765,-6.1035156E-4,-0.9702759,0.32470703
1725696195546,2024-09-07T08:03:15.546Z,55811,-0.019592285,-1.0015869,0.36566162
1725696195590,2024-09-07T08:03:15.590Z,55855,-0.066467285,-1.0299072,0.35302734
1725696195615,2024-09-07T08:03:15.615Z,55880,-0.101623535,-1.1063843,0.36236572
1725696195630,2024-09-07T08:03:15.630Z,55895,-0.12414551,-1.170044,0.39996338
1725696195675,2024-09-07T08:03:15.675Z,55940,-0.13641357,-1.1835938,0.39294434
1725696195724,2024-09-07T08:03:15.724Z,55989,-0.12432861,-1.1428833,0.34020996
1725696195769,2024-09-07T08:03:15.769Z,56034,-0.17712402,-1.1011963,0.35253906
1725696195814,2024-09-07T08:03:15.814Z,56079,-0.21624756,-1.0903931,0.31549072
1725696195861,2024-09-07T08:03:15.861Z,56126,-0.24835205,-1.0215454,0.3463745
1725696195906,2024-09-07T08:03:15.906Z,56171,-0.25524902,-0.99835205,0.27478027
1725696195953,2024-09-07T08:03:15.953Z,56218,-0.29278564,-0.94140625,0.24914551
1725696195995,2024-09-07T08:03:15.995Z,56260,-0.29864502,-0.93426514,0.20916748
1725696196040,2024-09-07T08:03:16.040Z,56305,-0.3125,-0.9382324,0.18981934
1725696196059,2024-09-07T08:03:16.059Z,56324,-0.34906006,-0.9677124,0.111328125
1725696196080,2024-09-07T08:03:16.080Z,56345,-0.3241577,-0.93640137,0.12554932
1725696196129,2024-09-07T08:03:16.129Z,56394,-0.2800293,-0.9389038,0.066833496
1725696196172,2024-09-07T08:03:16.172Z,56437,-0.3012085,-0.93536377,0.08062744
1725696196220,2024-09-07T08:03:16.220Z,56485,-0.29656982,-0.9725952,0.0079956055
1725696196265,2024-09-07T08:03:16.265Z,56530,-0.30133057,-0.9508667,0.09442139
1725696196311,2024-09-07T08:03:16.311Z,56576,-0.3302002,-0.9320679,-0.008605957
1725696196351,2024-09-07T08:03:16.351Z,56616,-0.30664062,-0.8496094,-0.020874023
1725696196398,2024-09-07T08:03:16.398Z,56663,-0.3140869,-0.84576416,-0.022705078
1725696196445,2024-09-07T08:03:16.445Z,56710,-0.3032837,-0.8356323,-0.030822754
1725696196461,2024-09-07T08:03:16.461Z,56726,-0.25836182,-0.78289795,-0.0335083
1725696196486,2024-09-07T08:03:16.486Z,56751,-0.24346924,-0.7941284,-0.09234619
1725696196582,2024-09-07T08:03:16.582Z,56847,-0.20953369,-0.8125,-0.048950195
1725696196603,2024-09-07T08:03:16.603Z,56868,-0.18469238,-0.85723877,-0.045166016
1725696196624,2024-09-07T08:03:16.624Z,56889,-0.17474365,-0.7974243,-0.029968262
1725696196669,2024-09-07T08:03:16.669Z,56934,-0.14855957,-0.8321533,-0.08428955
1725696196714,2024-09-07T08:03:16.714Z,56979,-0.15588379,-0.8882446,-0.017822266
1725696196762,2024-09-07T08:03:16.762Z,57027,-0.13873291,-0.88220215,-0.02947998
1725696196805,2024-09-07T08:03:16.805Z,57070,-0.15283203,-0.8300781,-0.05328369
1725696196853,2024-09-07T08:03:16.853Z,57118,-0.1706543,-0.8283081,-0.051208496
1725696196877,2024-09-07T08:03:16.877Z,57142,-0.17907715,-0.88635254,-0.026672363
1725696196899,2024-09-07T08:03:16.899Z,57164,-0.2321167,-0.89990234,0.0040893555
1725696196937,2024-09-07T08:03:16.937Z,57202,-0.21447754,-0.89746094,-0.0072631836
1725696196983,2024-09-07T08:03:16.983Z,57248,-0.19873047,-0.94207764,0.0079956055
1725696197029,2024-09-07T08:03:17.029Z,57294,-0.17279053,-1.0126953,0.053710938
1725696197073,2024-09-07T08:03:17.073Z,57338,-0.14318848,-0.9581909,0.072509766
1725696197118,2024-09-07T08:03:17.118Z,57383,-0.15423584,-0.9520874,0.06121826
1725696197164,2024-09-07T08:03:17.164Z,57429,-0.16522217,-0.9916382,0.07757568
1725696197209,2024-09-07T08:03:17.209Z,57474,-0.15631104,-1.0180664,0.107666016
1725696197256,2024-09-07T08:03:17.256Z,57521,-0.15942383,-1.0258789,0.08416748
1725696197300,2024-09-07T08:03:17.300Z,57565,-0.16766357,-0.9719238,0.1282959
1725696197323,2024-09-07T08:03:17.323Z,57588,-0.16967773,-0.9246216,0.123046875
1725696197344,2024-09-07T08:03:17.344Z,57609,-0.15899658,-0.9301758,0.109069824
1725696197386,2024-09-07T08:03:17.386Z,57651,-0.184021,-0.9658203,0.13269043
1725696197434,2024-09-07T08:03:17.434Z,57699,-0.15393066,-0.94592285,0.103515625
1725696197481,2024-09-07T08:03:17.481Z,57746,-0.14508057,-0.9688721,0.08258057
1725696197525,2024-09-07T08:03:17.525Z,57790,-0.14093018,-0.9795532,0.11627197
1725696197571,2024-09-07T08:03:17.571Z,57836,-0.11291504,-0.95666504,0.068115234
1725696197617,2024-09-07T08:03:17.617Z,57882,-0.13378906,-0.95648193,0.07928467
1725696197659,2024-09-07T08:03:17.659Z,57924,-0.13671875,-0.973938,0.07141113
1725696197704,2024-09-07T08:03:17.704Z,57969,-0.16729736,-0.986084,0.04168701
1725696197724,2024-09-07T08:03:17.724Z,57989,-0.16345215,-1.0142822,0.07824707
1725696197744,2024-09-07T08:03:17.744Z,58009,-0.16461182,-0.98083496,0.06866455
1725696197793,2024-09-07T08:03:17.793Z,58058,-0.1552124,-0.91851807,0.03173828
1725696197837,2024-09-07T08:03:17.837Z,58102,-0.17523193,-0.9222412,0.066101074
1725696197883,2024-09-07T08:03:17.883Z,58148,-0.19866943,-0.92541504,0.019958496
1725696197931,2024-09-07T08:03:17.931Z,58196,-0.2088623,-0.9354248,0.022277832
1725696197972,2024-09-07T08:03:17.972Z,58237,-0.21051025,-0.9164429,0.025146484
1725696198019,2024-09-07T08:03:18.019Z,58284,-0.22015381,-0.8925171,-0.023254395
1725696198109,2024-09-07T08:03:18.109Z,58374,-0.16888428,-0.8322754,-0.013183594
1725696198135,2024-09-07T08:03:18.135Z,58400,-0.21087646,-0.8336792,-0.03100586
1725696198153,2024-09-07T08:03:18.153Z,58418,-0.21661377,-0.8434448,-0.082092285
1725696198168,2024-09-07T08:03:18.168Z,58433,-0.26202393,-0.8925171,-0.059692383
1725696198201,2024-09-07T08:03:18.201Z,58466,-0.27020264,-0.9057007,-0.07366943
1725696198245,2024-09-07T08:03:18.245Z,58510,-0.2672119,-0.9428711,-0.07635498
1725696198291,2024-09-07T08:03:18.291Z,58556,-0.29266357,-0.87750244,-0.06793213
1725696198336,2024-09-07T08:03:18.336Z,58601,-0.25109863,-0.8868408,-0.09326172
1725696198382,2024-09-07T08:03:18.382Z,58647,-0.3067627,-0.9300537,-0.025024414
1725696198426,2024-09-07T08:03:18.426Z,58691,-0.28826904,-0.9314575,-0.09503174
1725696198475,2024-09-07T08:03:18.475Z,58740,-0.30126953,-0.93029785,-0.07244873
1725696198524,2024-09-07T08:03:18.524Z,58789,-0.31567383,-0.9234009,-0.07446289
1725696198567,2024-09-07T08:03:18.567Z,58832,-0.3348999,-0.9192505,-0.043518066
1725696198590,2024-09-07T08:03:18.590Z,58855,-0.37445068,-0.925354,-0.119140625
1725696198609,2024-09-07T08:03:18.609Z,58874,-0.37554932,-0.946167,-0.030944824
1725696198646,2024-09-07T08:03:18.646Z,58911,-0.3885498,-0.9226074,-0.051879883
1725696198693,2024-09-07T08:03:18.693Z,58958,-0.32824707,-0.9057617,-0.04071045
1725696198739,2024-09-07T08:03:18.739Z,59004,-0.32678223,-0.9328613,-0.016052246
1725696198786,2024-09-07T08:03:18.786Z,59051,-0.3196411,-0.95269775,-0.022521973
1725696198832,2024-09-07T08:03:18.832Z,59097,-0.3121338,-0.9804077,0.0095825195
1725696198878,2024-09-07T08:03:18.878Z,59143,-0.29595947,-0.93847656,0.017333984
1725696198921,2024-09-07T08:03:18.921Z,59186,-0.30493164,-0.92767334,0.04144287
1725696198966,2024-09-07T08:03:18.966Z,59231,-0.27752686,-0.892334,0.024902344
1725696198992,2024-09-07T08:03:18.992Z,59257,-0.2723999,-0.9299927,0.001159668
1725696199012,2024-09-07T08:03:19.012Z,59277,-0.29449463,-0.95062256,0.043701172
1725696199051,2024-09-07T08:03:19.051Z,59316,-0.29119873,-0.9733887,0.049987793
1725696199097,2024-09-07T08:03:19.097Z,59362,-0.29541016,-0.94903564,0.066589355
1725696199144,2024-09-07T08:03:19.144Z,59409,-0.28515625,-0.9442749,0.02557373
1725696199192,2024-09-07T08:03:19.192Z,59457,-0.30218506,-0.98095703,0.0501709
1725696199236,2024-09-07T08:03:19.236Z,59501,-0.31951904,-0.9746704,0.07330322
1725696199278,2024-09-07T08:03:19.278Z,59543,-0.30950928,-0.95965576,0.09112549
1725696199325,2024-09-07T08:03:19.325Z,59590,-0.31115723,-0.9215698,0.101135254
1725696199369,2024-09-07T08:03:19.369Z,59634,-0.3005371,-0.9239502,0.087402344
1725696199388,2024-09-07T08:03:19.388Z,59653,-0.31463623,-0.9440918,0.12432861
1725696199410,2024-09-07T08:03:19.410Z,59675,-0.3045044,-0.97784424,0.13623047
1725696199458,2024-09-07T08:03:19.458Z,59723,-0.2942505,-0.99645996,0.14001465
1725696199505,2024-09-07T08:03:19.505Z,59770,-0.2677002,-1.0008545,0.14996338
1725696199549,2024-09-07T08:03:19.549Z,59814,-0.28912354,-1.0409546,0.1673584
1725696199640,2024-09-07T08:03:19.640Z,59905,-0.28399658,-1.0101929,0.18341064
1725696199662,2024-09-07T08:03:19.662Z,59927,-0.22729492,-0.95599365,0.19946289
1725696199682,2024-09-07T08:03:19.682Z,59947,-0.20062256,-0.91851807,0.2076416
1725696199730,2024-09-07T08:03:19.730Z,59995,-0.14660645,-0.93444824,0.19506836
1725696199776,2024-09-07T08:03:19.776Z,60041,-0.15960693,-0.98168945,0.21429443
1725696199822,2024-09-07T08:03:19.822Z,60087,-0.1239624,-0.9785156,0.21813965
1725696199846,2024-09-07T08:03:19.846Z,60111,-0.1350708,-0.97210693,0.21514893
1725696199861,2024-09-07T08:03:19.861Z,60126,-0.09838867,-0.98461914,0.21362305
1725696199907,2024-09-07T08:03:19.907Z,60172,-0.06488037,-0.9833374,0.27856445
1725696199956,2024-09-07T08:03:19.956Z,60221,-0.04168701,-0.9716797,0.28338623
1725696199997,2024-09-07T08:03:19.997Z,60262,-0.01776123,-0.9593506,0.28033447
1725696200048,2024-09-07T08:03:20.048Z,60313,-0.004638672,-0.9605713,0.2765503
1725696200092,2024-09-07T08:03:20.092Z,60357,-0.010925293,-0.9627075,0.30841064
1725696200137,2024-09-07T08:03:20.137Z,60402,0.027526855,-0.96520996,0.33911133
1725696200183,2024-09-07T08:03:20.183Z,60448,0.03161621,-0.9729004,0.35913086
1725696200225,2024-09-07T08:03:20.225Z,60490,0.0513916,-0.9528198,0.40124512
1725696200252,2024-09-07T08:03:20.252Z,60517,0.07763672,-0.94470215,0.38006592
1725696200275,2024-09-07T08:03:20.275Z,60540,0.10229492,-0.9498291,0.37780762
1725696200313,2024-09-07T08:03:20.313Z,60578,0.109436035,-0.96032715,0.37713623
1725696200359,2024-09-07T08:03:20.359Z,60624,0.107055664,-0.94976807,0.36437988
1725696200404,2024-09-07T08:03:20.404Z,60669,0.091308594,-0.9197998,0.35632324
1725696200451,2024-09-07T08:03:20.451Z,60716,0.08404541,-0.9099121,0.35369873
1725696200495,2024-09-07T08:03:20.495Z,60760,0.07171631,-0.90216064,0.3642578
1725696200540,2024-09-07T08:03:20.540Z,60805,0.076049805,-0.89923096,0.3706665
1725696200582,2024-09-07T08:03:20.582Z,60847,0.07977295,-0.90771484,0.38378906
1725696200631,2024-09-07T08:03:20.631Z,60896,0.066833496,-0.9178467,0.39019775
1725696200652,2024-09-07T08:03:20.652Z,60917,0.06072998,-0.918396,0.3955078
1725696200674,2024-09-07T08:03:20.674Z,60939,0.040893555,-0.92401123,0.38897705
1725696200716,2024-09-07T08:03:20.716Z,60981,0.018554688,-0.94036865,0.38409424
1725696200764,2024-09-07T08:03:20.764Z,61029,0.023376465,-0.9429321,0.39282227
1725696200811,2024-09-07T08:03:20.811Z,61076,0.018249512,-0.95477295,0.40570068
1725696200853,2024-09-07T08:03:20.853Z,61118,0.00970459,-0.9692383,0.40197754
1725696200902,2024-09-07T08:03:20.902Z,61167,-0.014282227,-1.0336304,0.40130615
1725696200947,2024-09-07T08:03:20.947Z,61212,-0.045166016,-1.079834,0.4364624
1725696200988,2024-09-07T08:03:20.988Z,61253,-0.06689453,-1.0787354,0.41430664
1725696201034,2024-09-07T08:03:21.034Z,61299,-0.093444824,-1.0523071,0.42633057
1725696201056,2024-09-07T08:03:21.056Z,61321,-0.08892822,-1.0551147,0.41680908
1725696201077,2024-09-07T08:03:21.077Z,61342,-0.13598633,-1.0616455,0.3991089
1725696201124,2024-09-07T08:03:21.124Z,61389,-0.13647461,-1.0426636,0.38311768
1725696201169,2024-09-07T08:03:21.169Z,61434,-0.15576172,-1.006897,0.3371582
1725696201217,2024-09-07T08:03:21.217Z,61482,-0.19573975,-0.9678345,0.33221436
1725696201264,2024-09-07T08:03:21.264Z,61529,-0.23083496,-0.9733887,0.29864502
1725696201306,2024-09-07T08:03:21.306Z,61571,-0.32403564,-0.97546387,0.28118896
1725696201347,2024-09-07T08:03:21.347Z,61612,-0.3078003,-0.9523926,0.22698975
1725696201392,2024-09-07T08:03:21.392Z,61657,-0.28375244,-0.95965576,0.22918701
1725696201437,2024-09-07T08:03:21.437Z,61702,-0.28759766,-0.93182373,0.21307373
1725696201481,2024-09-07T08:03:21.481Z,61746,-0.28222656,-0.9439087,0.18835449
1725696201503,2024-09-07T08:03:21.503Z,61768,-0.34796143,-0.92626953,0.14251709
1725696201525,2024-09-07T08:03:21.525Z,61790,-0.35961914,-0.94506836,0.123535156
1725696201572,2024-09-07T08:03:21.572Z,61837,-0.40509033,-0.94573975,0.1439209
1725696201619,2024-09-07T08:03:21.619Z,61884,-0.3706665,-0.9242554,0.0791626
1725696201662,2024-09-07T08:03:21.662Z,61927,-0.34136963,-0.897583,0.06689453
1725696201709,2024-09-07T08:03:21.709Z,61974,-0.36889648,-0.85687256,0.016357422
1725696201754,2024-09-07T08:03:21.754Z,62019,-0.32141113,-0.8250122,-0.0211792
1725696201802,2024-09-07T08:03:21.802Z,62067,-0.307312,-0.7844238,0.015686035
1725696201892,2024-09-07T08:03:21.892Z,62157,-0.28485107,-0.7786255,-0.02331543
1725696201911,2024-09-07T08:03:21.911Z,62176,-0.2539673,-0.7925415,-0.0017700195
1725696201933,2024-09-07T08:03:21.933Z,62198,-0.2442627,-0.77941895,-0.034851074
1725696201953,2024-09-07T08:03:21.953Z,62218,-0.21032715,-0.8027344,-0.061767578
1725696201978,2024-09-07T08:03:21.978Z,62243,-0.23181152,-0.8105469,-0.030273438
1725696202069,2024-09-07T08:03:22.069Z,62334,-0.25012207,-0.8774414,-0.053588867
1725696202088,2024-09-07T08:03:22.088Z,62353,-0.25457764,-0.93634033,-0.028869629
1725696202111,2024-09-07T08:03:22.111Z,62376,-0.23687744,-0.91430664,-0.06774902
1725696202158,2024-09-07T08:03:22.158Z,62423,-0.23522949,-0.9032593,-0.010314941
1725696202203,2024-09-07T08:03:22.203Z,62468,-0.22235107,-0.88098145,-0.0073242188
1725696202250,2024-09-07T08:03:22.250Z,62515,-0.18328857,-0.8289795,-0.036071777
1725696202297,2024-09-07T08:03:22.297Z,62562,-0.21411133,-0.8423462,-0.055847168
1725696202319,2024-09-07T08:03:22.319Z,62584,-0.20050049,-0.87646484,0.005432129
1725696202341,2024-09-07T08:03:22.341Z,62606,-0.17919922,-0.8828125,0.028137207
1725696202382,2024-09-07T08:03:22.382Z,62647,-0.18054199,-0.8659668,0.023071289
1725696202428,2024-09-07T08:03:22.428Z,62693,-0.18237305,-0.9316406,0.03540039
1725696202474,2024-09-07T08:03:22.474Z,62739,-0.1418457,-1.024292,0.036865234
1725696202523,2024-09-07T08:03:22.523Z,62788,-0.16046143,-1.0664673,0.090148926
1725696202565,2024-09-07T08:03:22.565Z,62830,-0.15740967,-1.0309448,0.09094238
1725696202608,2024-09-07T08:03:22.608Z,62873,-0.110961914,-0.973999,0.070373535
1725696202653,2024-09-07T08:03:22.653Z,62918,-0.13635254,-0.9790039,0.14630127
1725696202697,2024-09-07T08:03:22.697Z,62962,-0.13220215,-0.9883423,0.11376953
1725696202744,2024-09-07T08:03:22.744Z,63009,-0.12908936,-0.9837036,0.09802246
1725696202767,2024-09-07T08:03:22.767Z,63032,-0.14434814,-0.961792,0.09240723
1725696202786,2024-09-07T08:03:22.786Z,63051,-0.14874268,-0.96850586,0.08728027
1725696202833,2024-09-07T08:03:22.833Z,63098,-0.13110352,-0.9696655,0.06982422
1725696202880,2024-09-07T08:03:22.880Z,63145,-0.14788818,-0.94744873,0.101867676
1725696202924,2024-09-07T08:03:22.924Z,63189,-0.14556885,-0.9239502,0.069885254
1725696203017,2024-09-07T08:03:23.017Z,63282,-0.16174316,-0.9364624,0.06311035
1725696203037,2024-09-07T08:03:23.037Z,63302,-0.18572998,-0.9133301,0.055358887
1725696203057,2024-09-07T08:03:23.057Z,63322,-0.1918335,-0.9191284,0.02319336
1725696203105,2024-09-07T08:03:23.105Z,63370,-0.21801758,-0.9187012,0.0045776367
1725696203154,2024-09-07T08:03:23.154Z,63419,-0.21478271,-0.9192505,-0.027404785
1725696203172,2024-09-07T08:03:23.172Z,63437,-0.22839355,-0.90631104,-0.020751953
1725696203189,2024-09-07T08:03:23.189Z,63454,-0.21881104,-0.9038696,-0.025024414
1725696203237,2024-09-07T08:03:23.237Z,63502,-0.22418213,-0.87872314,-0.020812988
1725696203283,2024-09-07T08:03:23.283Z,63548,-0.22027588,-0.88983154,-0.034729004
1725696203332,2024-09-07T08:03:23.332Z,63597,-0.20922852,-0.91796875,-0.00970459
1725696203372,2024-09-07T08:03:23.372Z,63637,-0.2444458,-0.9059448,-0.0061035156
1725696203467,2024-09-07T08:03:23.467Z,63732,-0.21887207,-0.87854004,-0.04901123
1725696203491,2024-09-07T08:03:23.491Z,63756,-0.2609253,-0.883728,-0.06085205
1725696203512,2024-09-07T08:03:23.512Z,63777,-0.27459717,-0.9815674,-0.077697754
1725696203553,2024-09-07T08:03:23.553Z,63818,-0.29034424,-0.9608154,-0.016296387
1725696203572,2024-09-07T08:03:23.572Z,63837,-0.27001953,-0.9345703,-0.13500977
1725696203646,2024-09-07T08:03:23.646Z,63911,-0.2658081,-0.95758057,-0.057617188
1725696203664,2024-09-07T08:03:23.664Z,63929,-0.26464844,-0.93725586,-0.06542969
1725696203684,2024-09-07T08:03:23.684Z,63949,-0.27746582,-0.9180908,-0.092163086
1725696203733,2024-09-07T08:03:23.733Z,63998,-0.2732544,-0.90875244,-0.06665039
1725696203781,2024-09-07T08:03:23.781Z,64046,-0.29266357,-0.9071655,-0.10571289
1725696203869,2024-09-07T08:03:23.869Z,64134,-0.2911377,-0.9451294,-0.08093262
1725696203891,2024-09-07T08:03:23.891Z,64156,-0.32800293,-0.95410156,-0.0793457
1725696203913,2024-09-07T08:03:23.913Z,64178,-0.2946167,-0.888855,-0.10192871
1725696203959,2024-09-07T08:03:23.959Z,64224,-0.3293457,-0.8981323,-0.07104492
1725696204007,2024-09-07T08:03:24.007Z,64272,-0.3166504,-0.91845703,-0.06713867
1725696204029,2024-09-07T08:03:24.029Z,64294,-0.31762695,-0.9425659,-0.08569336
1725696204053,2024-09-07T08:03:24.053Z,64318,-0.369812,-0.9765625,-0.03479004
1725696204143,2024-09-07T08:03:24.143Z,64408,-0.36932373,-0.9266968,-0.072143555
1725696204162,2024-09-07T08:03:24.162Z,64427,-0.36816406,-0.9272461,-0.049072266
1725696204179,2024-09-07T08:03:24.179Z,64444,-0.37243652,-0.92297363,-0.017028809
1725696204229,2024-09-07T08:03:24.229Z,64494,-0.36621094,-0.89837646,-0.03253174
1725696204274,2024-09-07T08:03:24.274Z,64539,-0.33654785,-0.9035034,0.012023926
1725696204320,2024-09-07T08:03:24.320Z,64585,-0.40826416,-0.88256836,0.03137207
1725696204367,2024-09-07T08:03:24.367Z,64632,-0.36364746,-0.8584595,-0.0036010742
1725696204412,2024-09-07T08:03:24.412Z,64677,-0.37957764,-0.8677368,0.056030273
1725696204436,2024-09-07T08:03:24.436Z,64701,-0.36505127,-0.89837646,0.047668457
1725696204458,2024-09-07T08:03:24.458Z,64723,-0.35723877,-0.9435425,0.07739258
1725696204496,2024-09-07T08:03:24.496Z,64761,-0.35351562,-0.99591064,0.07684326
1725696204543,2024-09-07T08:03:24.543Z,64808,-0.36505127,-1.0424194,0.08703613
1725696204589,2024-09-07T08:03:24.589Z,64854,-0.2774048,-1.0183716,0.12420654
1725696204635,2024-09-07T08:03:24.635Z,64900,-0.21356201,-0.9819336,0.1776123
1725696204680,2024-09-07T08:03:24.680Z,64945,-0.17663574,-0.95770264,0.19354248
1725696204726,2024-09-07T08:03:24.726Z,64991,-0.15789795,-0.9490967,0.20910645
1725696204770,2024-09-07T08:03:24.770Z,65035,-0.12988281,-0.9830322,0.23339844
1725696204815,2024-09-07T08:03:24.815Z,65080,-0.08026123,-0.9771118,0.25756836
1725696204838,2024-09-07T08:03:24.838Z,65103,-0.08087158,-1.0270996,0.24298096
1725696204860,2024-09-07T08:03:24.860Z,65125,-0.057373047,-1.0252686,0.25061035
1725696204903,2024-09-07T08:03:24.903Z,65168,-0.032470703,-0.9842529,0.29815674
1725696204952,2024-09-07T08:03:24.952Z,65217,-0.049804688,-0.9883423,0.28808594
1725696204997,2024-09-07T08:03:24.997Z,65262,-0.030029297,-0.9800415,0.27270508
1725696205046,2024-09-07T08:03:25.046Z,65311,-0.057861328,-0.9819336,0.28637695
1725696205085,2024-09-07T08:03:25.085Z,65350,-0.060180664,-0.9918823,0.27191162
1725696205127,2024-09-07T08:03:25.127Z,65392,-0.06524658,-0.9748535,0.26159668
1725696205174,2024-09-07T08:03:25.174Z,65439,-0.09490967,-0.9683838,0.24090576
1725696205221,2024-09-07T08:03:25.221Z,65486,-0.12182617,-0.9894409,0.24865723
1725696205266,2024-09-07T08:03:25.266Z,65531,-0.13916016,-1.0251465,0.27355957
1725696205291,2024-09-07T08:03:25.291Z,65556,-0.08929443,-1.027832,0.28198242
1725696205317,2024-09-07T08:03:25.317Z,65582,-0.012023926,-0.986145,0.2927246
1725696205351,2024-09-07T08:03:25.351Z,65616,0.011474609,-0.9608154,0.29174805
1725696205398,2024-09-07T08:03:25.398Z,65663,0.016479492,-0.95147705,0.29473877
1725696205442,2024-09-07T08:03:25.442Z,65707,-0.0056152344,-0.9561157,0.28778076
1725696205492,2024-09-07T08:03:25.492Z,65757,0.0057373047,-0.9525757,0.31463623
1725696205531,2024-09-07T08:03:25.531Z,65796,0.012756348,-0.9541626,0.31695557
1725696205577,2024-09-07T08:03:25.577Z,65842,0.016113281,-0.95422363,0.3295288
1725696205627,2024-09-07T08:03:25.627Z,65892,0.0107421875,-0.9390869,0.3139038
1725696205669,2024-09-07T08:03:25.669Z,65934,0.0059814453,-0.91748047,0.3001709
1725696205692,2024-09-07T08:03:25.692Z,65957,0.0056152344,-0.90405273,0.30541992
1725696205714,2024-09-07T08:03:25.714Z,65979,0.0037841797,-0.90911865,0.30200195
1725696205757,2024-09-07T08:03:25.757Z,66022,-0.006286621,-0.9158325,0.32354736
1725696205805,2024-09-07T08:03:25.805Z,66070,-0.015563965,-0.927063,0.32055664
1725696205851,2024-09-07T08:03:25.851Z,66116,-0.028076172,-0.9262085,0.33361816
1725696205893,2024-09-07T08:03:25.893Z,66158,-0.032836914,-0.9193115,0.32635498
1725696205939,2024-09-07T08:03:25.939Z,66204,-0.02355957,-0.9142456,0.30963135
1725696205987,2024-09-07T08:03:25.987Z,66252,-0.024353027,-0.9135132,0.30950928
1725696206027,2024-09-07T08:03:26.027Z,66292,-0.031799316,-0.9143677,0.33850098
1725696206076,2024-09-07T08:03:26.076Z,66341,-0.012878418,-0.89959717,0.33599854
1725696206098,2024-09-07T08:03:26.098Z,66363,0.0068359375,-0.9135132,0.3225708
1725696206119,2024-09-07T08:03:26.119Z,66384,-0.024963379,-0.9602051,0.3248291
1725696206163,2024-09-07T08:03:26.163Z,66428,-0.036193848,-0.9885254,0.35205078
1725696206208,2024-09-07T08:03:26.208Z,66473,-0.034362793,-0.9971924,0.34423828
1725696206254,2024-09-07T08:03:26.254Z,66519,-0.047668457,-0.9869995,0.36010742
1725696206301,2024-09-07T08:03:26.301Z,66566,-0.062316895,-0.9932251,0.34161377
1725696206346,2024-09-07T08:03:26.346Z,66611,-0.04510498,-0.99505615,0.355896
1725696206390,2024-09-07T08:03:26.390Z,66655,-0.056762695,-0.98968506,0.37683105
1725696206434,2024-09-07T08:03:26.434Z,66699,-0.10809326,-1.0131226,0.40063477
1725696206480,2024-09-07T08:03:26.480Z,66745,-0.15533447,-1.0245361,0.36584473
1725696206527,2024-09-07T08:03:26.527Z,66792,-0.15460205,-1.0149536,0.3585205
1725696206554,2024-09-07T08:03:26.554Z,66819,-0.19482422,-1.0023804,0.3503418
1725696206577,2024-09-07T08:03:26.577Z,66842,-0.22454834,-1.0151978,0.34539795
1725696206611,2024-09-07T08:03:26.611Z,66876,-0.20599365,-0.98223877,0.3359375
1725696206656,2024-09-07T08:03:26.656Z,66921,-0.25823975,-0.98254395,0.25891113
1725696206701,2024-09-07T08:03:26.701Z,66966,-0.2559204,-0.96728516,0.3131714
1725696206747,2024-09-07T08:03:26.747Z,67012,-0.25823975,-0.96276855,0.26104736
1725696206791,2024-09-07T08:03:26.791Z,67056,-0.27947998,-0.954834,0.23394775
1725696206835,2024-09-07T08:03:26.835Z,67100,-0.3427124,-0.95758057,0.29278564
1725696206884,2024-09-07T08:03:26.884Z,67149,-0.36193848,-0.94854736,0.2713623
1725696206928,2024-09-07T08:03:26.928Z,67193,-0.37780762,-0.92407227,0.2512207
1725696206947,2024-09-07T08:03:26.947Z,67212,-0.3602295,-0.88616943,0.22570801
1725696206973,2024-09-07T08:03:26.973Z,67238,-0.3908081,-0.8424072,0.29852295
1725696207017,2024-09-07T08:03:27.017Z,67282,-0.38812256,-0.85961914,0.22229004
1725696207064,2024-09-07T08:03:27.064Z,67329,-0.3536377,-0.9081421,0.18157959
1725696207109,2024-09-07T08:03:27.109Z,67374,-0.43170166,-0.9590454,0.1416626
1725696207153,2024-09-07T08:03:27.153Z,67418,-0.39398193,-0.94000244,0.17962646
1725696207198,2024-09-07T08:03:27.198Z,67463,-0.42022705,-0.9254761,0.11651611
1725696207244,2024-09-07T08:03:27.244Z,67509,-0.41503906,-0.88964844,0.075805664
1725696207290,2024-09-07T08:03:27.290Z,67555,-0.43469238,-0.8789673,0.027404785
1725696207331,2024-09-07T08:03:27.331Z,67596,-0.41088867,-0.8921509,0.037963867
1725696207352,2024-09-07T08:03:27.352Z,67617,-0.40515137,-0.9003906,0.035949707
1725696207391,2024-09-07T08:03:27.391Z,67656,-0.35906982,-0.87353516,-0.0064697266
1725696207424,2024-09-07T08:03:27.424Z,67689,-0.3250122,-0.8656006,-0.0178833
1725696207468,2024-09-07T08:03:27.468Z,67733,-0.32208252,-0.84503174,-0.043884277
1725696207514,2024-09-07T08:03:27.514Z,67779,-0.30993652,-0.83239746,0.0020751953
1725696207562,2024-09-07T08:03:27.562Z,67827,-0.32580566,-0.82250977,-0.009765625
1725696207606,2024-09-07T08:03:27.606Z,67871,-0.27978516,-0.81781006,-0.012390137
1725696207649,2024-09-07T08:03:27.649Z,67914,-0.29333496,-0.84906006,-0.050720215
1725696207694,2024-09-07T08:03:27.694Z,67959,-0.29437256,-0.86376953,-0.03564453
1725696207742,2024-09-07T08:03:27.742Z,68007,-0.26098633,-0.84417725,0.0040893555
1725696207788,2024-09-07T08:03:27.788Z,68053,-0.19274902,-0.8616333,-0.06744385
1725696207812,2024-09-07T08:03:27.812Z,68077,-0.1906128,-0.8502197,-0.079589844
1725696207830,2024-09-07T08:03:27.830Z,68095,-0.190979,-0.8074951,-0.0925293
1725696207873,2024-09-07T08:03:27.873Z,68138,-0.15795898,-0.8078003,-0.005065918
1725696207923,2024-09-07T08:03:27.923Z,68188,-0.20837402,-0.91400146,-0.01574707
1725696207967,2024-09-07T08:03:27.967Z,68232,-0.20092773,-0.9682007,-0.04937744
1725696208008,2024-09-07T08:03:28.008Z,68273,-0.17437744,-0.9686279,0.015686035
1725696208053,2024-09-07T08:03:28.053Z,68318,-0.16186523,-0.9239502,0.06060791
1725696208098,2024-09-07T08:03:28.098Z,68363,-0.13293457,-0.91833496,0.070617676
1725696208144,2024-09-07T08:03:28.144Z,68409,-0.15838623,-0.9460449,0.12963867
1725696208188,2024-09-07T08:03:28.188Z,68453,-0.12835693,-0.96868896,0.10223389
1725696208206,2024-09-07T08:03:28.206Z,68471,-0.17938232,-1.0308838,0.1385498
1725696208231,2024-09-07T08:03:28.231Z,68496,-0.1560669,-1.0262451,0.1239624
1725696208275,2024-09-07T08:03:28.275Z,68540,-0.17712402,-1.0144653,0.09588623
1725696208321,2024-09-07T08:03:28.321Z,68586,-0.1585083,-0.9733887,0.10626221
1725696208367,2024-09-07T08:03:28.367Z,68632,-0.13543701,-0.92645264,0.078063965
1725696208414,2024-09-07T08:03:28.414Z,68679,-0.12524414,-0.946228,0.04864502
1725696208458,2024-09-07T08:03:28.458Z,68723,-0.13348389,-0.9953003,0.09265137
1725696208503,2024-09-07T08:03:28.503Z,68768,-0.14880371,-0.9970093,0.020385742
1725696208546,2024-09-07T08:03:28.546Z,68811,-0.1517334,-0.9428711,0.04144287
1725696208592,2024-09-07T08:03:28.592Z,68857,-0.17718506,-0.92370605,0.03173828
1725696208611,2024-09-07T08:03:28.611Z,68876,-0.17706299,-0.89520264,0.038146973
1725696208637,2024-09-07T08:03:28.637Z,68902,-0.19519043,-0.866272,0.02557373
1725696208681,2024-09-07T08:03:28.681Z,68946,-0.20678711,-0.9022827,0.010681152
1725696208729,2024-09-07T08:03:28.729Z,68994,-0.20532227,-0.92749023,-0.0020141602
1725696208774,2024-09-07T08:03:28.774Z,69039,-0.20227051,-0.9833374,-0.023254395
1725696208817,2024-09-07T08:03:28.817Z,69082,-0.21002197,-0.9586792,-0.03515625
1725696208863,2024-09-07T08:03:28.863Z,69128,-0.19580078,-0.9267578,-0.0579834
1725696208912,2024-09-07T08:03:28.912Z,69177,-0.21209717,-0.8763428,-0.050842285
1725696208951,2024-09-07T08:03:28.951Z,69216,-0.20721436,-0.90289307,-0.054626465
1725696208999,2024-09-07T08:03:28.999Z,69264,-0.27941895,-0.92437744,-0.040222168
1725696209044,2024-09-07T08:03:29.044Z,69309,-0.33026123,-0.96362305,-0.08355713
1725696209064,2024-09-07T08:03:29.064Z,69329,-0.31103516,-0.9435425,-0.07745361
1725696209089,2024-09-07T08:03:29.089Z,69354,-0.3338623,-0.91711426,-0.13665771
1725696209132,2024-09-07T08:03:29.132Z,69397,-0.33172607,-0.8934326,-0.062438965
1725696209177,2024-09-07T08:03:29.177Z,69442,-0.33032227,-0.84820557,-0.08544922
1725696209230,2024-09-07T08:03:29.230Z,69495,-0.3359375,-0.82629395,-0.076049805
1725696209280,2024-09-07T08:03:29.280Z,69545,-0.3734131,-0.86291504,-0.049621582
1725696209315,2024-09-07T08:03:29.315Z,69580,-0.39208984,-0.8882446,-0.03918457
1725696209361,2024-09-07T08:03:29.361Z,69626,-0.39678955,-0.86724854,-0.042053223
1725696209451,2024-09-07T08:03:29.451Z,69716,-0.36138916,-0.8125,-0.033996582
1725696209476,2024-09-07T08:03:29.476Z,69741,-0.359375,-0.8300171,-0.041809082
1725696209496,2024-09-07T08:03:29.496Z,69761,-0.36865234,-0.8438721,-0.022094727
1725696209512,2024-09-07T08:03:29.512Z,69777,-0.39263916,-0.8934326,-0.032348633
1725696209537,2024-09-07T08:03:29.537Z,69802,-0.37005615,-0.8432617,4.272461E-4
1725696209583,2024-09-07T08:03:29.583Z,69848,-0.37554932,-0.8319092,-0.06121826
1725696209628,2024-09-07T08:03:29.628Z,69893,-0.36138916,-0.8239746,0.036071777
1725696209671,2024-09-07T08:03:29.671Z,69936,-0.36730957,-0.87579346,-0.02154541
1725696209718,2024-09-07T08:03:29.718Z,69983,-0.3949585,-0.91638184,0.036315918
1725696209811,2024-09-07T08:03:29.811Z,70076,-0.41497803,-0.9333496,0.021118164
1725696209831,2024-09-07T08:03:29.831Z,70096,-0.38928223,-0.94885254,0.07171631
1725696209852,2024-09-07T08:03:29.852Z,70117,-0.38415527,-0.92785645,0.012145996
1725696209868,2024-09-07T08:03:29.868Z,70133,-0.395813,-0.9216919,0.04083252
1725696209894,2024-09-07T08:03:29.894Z,70159,-0.39239502,-0.9154663,0.042907715
1725696209945,2024-09-07T08:03:29.945Z,70210,-0.3511963,-0.9203491,0.048950195
1725696209990,2024-09-07T08:03:29.990Z,70255,-0.3829956,-0.92077637,0.09338379
1725696210036,2024-09-07T08:03:30.036Z,70301,-0.31628418,-0.96087646,0.17236328
1725696210078,2024-09-07T08:03:30.078Z,70343,-0.32269287,-1.0164795,0.19342041
1725696210129,2024-09-07T08:03:30.129Z,70394,-0.25006104,-1.0391235,0.22137451
1725696210172,2024-09-07T08:03:30.172Z,70437,-0.31225586,-1.0721436,0.26660156
1725696210216,2024-09-07T08:03:30.216Z,70481,-0.26654053,-1.1400757,0.17474365
1725696210262,2024-09-07T08:03:30.262Z,70527,-0.2913208,-1.1293945,0.24591064
1725696210307,2024-09-07T08:03:30.307Z,70572,-0.2723999,-1.0991821,0.18792725
1725696210327,2024-09-07T08:03:30.327Z,70592,-0.18011475,-1.0109253,0.15960693
1725696210350,2024-09-07T08:03:30.350Z,70615,-0.14752197,-0.9517822,0.11895752
1725696210394,2024-09-07T08:03:30.394Z,70659,-0.08703613,-0.9008789,0.17242432
1725696210439,2024-09-07T08:03:30.439Z,70704,-0.09460449,-0.9277954,0.19262695
1725696210489,2024-09-07T08:03:30.489Z,70754,-0.09289551,-0.9586792,0.19671631
1725696210530,2024-09-07T08:03:30.530Z,70795,-0.07397461,-1.0046997,0.19354248
1725696210576,2024-09-07T08:03:30.576Z,70841,-0.072509766,-1.0182495,0.28448486
1725696210622,2024-09-07T08:03:30.622Z,70887,-0.08215332,-1.0560913,0.2705078
1725696210666,2024-09-07T08:03:30.666Z,70931,-0.048095703,-1.0333252,0.30511475
1725696210712,2024-09-07T08:03:30.712Z,70977,-0.02947998,-0.9904785,0.29296875
1725696210738,2024-09-07T08:03:30.738Z,71003,0.0068969727,-0.9458008,0.32025146
1725696210756,2024-09-07T08:03:30.756Z,71021,-0.007080078,-0.9454346,0.28851318
1725696210792,2024-09-07T08:03:30.792Z,71057,0.0079956055,-0.94488525,0.28179932
1725696210839,2024-09-07T08:03:30.839Z,71104,0.022094727,-0.944397,0.24676514
1725696210883,2024-09-07T08:03:30.883Z,71148,0.029663086,-0.9389038,0.25634766
1725696320413,2024-09-07T08:05:20.413Z,180678,-0.1159668,-1.0354004,0.13983154
1725696320458,2024-09-07T08:05:20.458Z,180723,-0.12792969,-1.0524902,0.13653564
1725696320505,2024-09-07T08:05:20.505Z,180770,-0.1459961,-1.0761719,0.13970947
1725696320546,2024-09-07T08:05:20.546Z,180811,-0.17144775,-1.1080933,0.22473145
1725696320592,2024-09-07T08:05:20.592Z,180857,-0.2041626,-1.1489868,0.21606445
1725696320638,2024-09-07T08:05:20.638Z,180903,-0.21582031,-1.1390991,0.21429443
1725696320683,2024-09-07T08:05:20.683Z,180948,-0.21917725,-1.114685,0.199646
1725696320728,2024-09-07T08:05:20.728Z,180993,-0.22088623,-1.1078491,0.23052979
1725696320750,2024-09-07T08:05:20.750Z,181015,-0.24481201,-1.0935059,0.21051025
1725696320778,2024-09-07T08:05:20.778Z,181043,-0.24993896,-1.0587769,0.2253418
1725696320816,2024-09-07T08:05:20.816Z,181081,-0.28710938,-1.043457,0.17163086
1725696320864,2024-09-07T08:05:20.864Z,181129,-0.2880249,-1.0374146,0.18286133
1725696320911,2024-09-07T08:05:20.911Z,181176,-0.3312378,-1.0359497,0.15625
1725696320959,2024-09-07T08:05:20.959Z,181224,-0.3458252,-0.98773193,0.20019531
1725696321002,2024-09-07T08:05:21.002Z,181267,-0.3678589,-0.9614258,0.11828613
1725696321046,2024-09-07T08:05:21.046Z,181311,-0.37268066,-0.91589355,0.2133789
1725696321089,2024-09-07T08:05:21.089Z,181354,-0.3795166,-0.9196167,0.12945557
1725696321140,2024-09-07T08:05:21.140Z,181405,-0.3864746,-0.9127197,0.12567139
1725696321170,2024-09-07T08:05:21.170Z,181435,-0.43048096,-0.9406128,0.009338379
1725696321193,2024-09-07T08:05:21.193Z,181458,-0.37493896,-0.9088745,0.022583008
1725696321223,2024-09-07T08:05:21.223Z,181488,-0.3793335,-0.90838623,-0.076049805
1725696321269,2024-09-07T08:05:21.269Z,181534,-0.34344482,-0.8601074,-0.0025024414
1725696321318,2024-09-07T08:05:21.318Z,181583,-0.309021,-0.8501587,-0.051818848
1725696321364,2024-09-07T08:05:21.364Z,181629,-0.28723145,-0.78692627,-0.022949219
1725696321405,2024-09-07T08:05:21.405Z,181670,-0.20257568,-0.769104,-0.046875
1725696321449,2024-09-07T08:05:21.449Z,181714,-0.20019531,-0.72631836,0.008361816
1725696321498,2024-09-07T08:05:21.498Z,181763,-0.17816162,-0.75006104,0.0068359375
1725696321538,2024-09-07T08:05:21.538Z,181803,-0.17449951,-0.79608154,0.03289795
1725696321583,2024-09-07T08:05:21.583Z,181848,-0.15454102,-0.817688,0.060668945
1725696321601,2024-09-07T08:05:21.601Z,181866,-0.092285156,-0.8688965,0.10913086
1725696321626,2024-09-07T08:05:21.626Z,181891,-0.09362793,-0.8966675,0.1821289
1725696321674,2024-09-07T08:05:21.674Z,181939,-0.038024902,-0.8494873,0.07873535
1725696321722,2024-09-07T08:05:21.722Z,181987,-0.10015869,-0.8851929,0.10205078
1725696321766,2024-09-07T08:05:21.766Z,182031,-0.11566162,-0.95043945,0.08691406
1725696321811,2024-09-07T08:05:21.811Z,182076,-0.12786865,-0.99139404,0.06512451
1725696321854,2024-09-07T08:05:21.854Z,182119,-0.14038086,-0.9701538,0.0869751
1725696321899,2024-09-07T08:05:21.899Z,182164,-0.14050293,-0.9016113,0.005065918
1725696321949,2024-09-07T08:05:21.949Z,182214,-0.1005249,-0.86157227,0.050231934
1725696321994,2024-09-07T08:05:21.994Z,182259,-0.07531738,-0.91522217,0.032348633
1725696322027,2024-09-07T08:05:22.027Z,182292,-0.099853516,-0.9852905,0.043395996
1725696322054,2024-09-07T08:05:22.054Z,182319,-0.082458496,-1.0148926,0.03186035
1725696322089,2024-09-07T08:05:22.089Z,182354,-0.11376953,-1.0245972,0.043640137
1725696322122,2024-09-07T08:05:22.122Z,182387,-0.09631348,-0.9797363,0.039123535
1725696322169,2024-09-07T08:05:22.169Z,182434,-0.09710693,-0.987854,0.02130127
1725696322216,2024-09-07T08:05:22.216Z,182481,-0.1081543,-1.0085449,0.041870117
1725696322264,2024-09-07T08:05:22.264Z,182529,-0.10333252,-0.97125244,0.027526855
1725696322310,2024-09-07T08:05:22.310Z,182575,-0.1237793,-0.95373535,0.0020141602
1725696322363,2024-09-07T08:05:22.363Z,182628,-0.13946533,-0.947937,0.008544922
1725696322411,2024-09-07T08:05:22.411Z,182676,-0.14941406,-0.98638916,-0.030029297
1725696322445,2024-09-07T08:05:22.445Z,182710,-0.15722656,-0.97052,-0.022827148
1725696322465,2024-09-07T08:05:22.465Z,182730,-0.15039062,-0.90057373,-0.026306152
1725696322486,2024-09-07T08:05:22.486Z,182751,-0.14984131,-0.88897705,-0.04864502
1725696322529,2024-09-07T08:05:22.529Z,182794,-0.15985107,-0.87579346,-0.07635498
1725696322575,2024-09-07T08:05:22.575Z,182840,-0.16204834,-0.9046631,-0.09857178
1725696322621,2024-09-07T08:05:22.621Z,182886,-0.19915771,-0.88464355,-0.06890869
1725696322667,2024-09-07T08:05:22.667Z,182932,-0.17944336,-0.8979492,-0.10437012
1725696322730,2024-09-07T08:05:22.730Z,182995,-0.2208252,-0.89678955,-0.047302246
1725696322755,2024-09-07T08:05:22.755Z,183020,-0.21875,-0.87823486,-0.074645996
1725696322798,2024-09-07T08:05:22.798Z,183063,-0.23101807,-0.88726807,-0.03375244
1725696322850,2024-09-07T08:05:22.850Z,183115,-0.20074463,-0.85754395,-0.044067383
1725696322882,2024-09-07T08:05:22.882Z,183147,-0.22540283,-0.86486816,-0.08569336
1725696322904,2024-09-07T08:05:22.904Z,183169,-0.20513916,-0.89056396,-0.107543945
1725696322933,2024-09-07T08:05:22.933Z,183198,-0.26574707,-0.94696045,-0.117004395
1725696322980,2024-09-07T08:05:22.980Z,183245,-0.2819214,-0.99432373,-0.15490723
1725696323025,2024-09-07T08:05:23.025Z,183290,-0.3092041,-0.9334717,-0.15332031
1725696323086,2024-09-07T08:05:23.086Z,183351,-0.2770996,-0.90185547,-0.19146729
1725696323117,2024-09-07T08:05:23.117Z,183382,-0.31433105,-0.914917,-0.05480957
1725696323157,2024-09-07T08:05:23.157Z,183422,-0.31884766,-0.9365845,-0.15686035
1725696323207,2024-09-07T08:05:23.207Z,183472,-0.39038086,-0.95111084,-0.08544922
1725696323270,2024-09-07T08:05:23.270Z,183535,-0.39440918,-0.9421997,-0.2107544
1725696323296,2024-09-07T08:05:23.296Z,183561,-0.42456055,-0.97198486,-0.18927002
1725696323316,2024-09-07T08:05:23.316Z,183581,-0.46362305,-0.99328613,-0.21191406
1725696323387,2024-09-07T08:05:23.387Z,183652,-0.45593262,-0.9539795,-0.18988037
1725696323452,2024-09-07T08:05:23.452Z,183717,-0.4500122,-0.91741943,-0.23101807
1725696323478,2024-09-07T08:05:23.478Z,183743,-0.44665527,-0.8953247,-0.17932129
1725696323498,2024-09-07T08:05:23.498Z,183763,-0.45739746,-0.8505249,-0.16107178
1725696323518,2024-09-07T08:05:23.518Z,183783,-0.45147705,-0.83514404,-0.11340332
1725696323563,2024-09-07T08:05:23.563Z,183828,-0.48449707,-0.7984009,-0.16064453
1725696323612,2024-09-07T08:05:23.612Z,183877,-0.50219727,-0.814209,-0.15716553
1725696323654,2024-09-07T08:05:23.654Z,183919,-0.52124023,-0.78967285,-0.16027832
1725696323676,2024-09-07T08:05:23.676Z,183941,-0.546875,-0.78302,-0.16473389
1725696323698,2024-09-07T08:05:23.698Z,183963,-0.5414429,-0.8152466,-0.12200928
1725696323791,2024-09-07T08:05:23.791Z,184056,-0.5710449,-0.8425293,-0.11236572
1725696323806,2024-09-07T08:05:23.806Z,184071,-0.5227661,-0.8054199,-0.08105469
1725696323836,2024-09-07T08:05:23.836Z,184101,-0.49456787,-0.80236816,-0.122558594
1725696323877,2024-09-07T08:05:23.877Z,184142,-0.46673584,-0.82458496,-0.04876709
1725696323926,2024-09-07T08:05:23.926Z,184191,-0.4763794,-0.8765869,-0.046875
1725696323973,2024-09-07T08:05:23.973Z,184238,-0.46136475,-0.9086914,-0.027770996
1725696324018,2024-09-07T08:05:24.018Z,184283,-0.4934082,-0.9594116,-0.0044555664
1725696324064,2024-09-07T08:05:24.064Z,184329,-0.4658203,-0.9638672,0.011108398
1725696324109,2024-09-07T08:05:24.109Z,184374,-0.4359131,-0.95196533,-0.042907715
1725696324133,2024-09-07T08:05:24.133Z,184398,-0.35253906,-0.9674072,-0.033081055
1725696324152,2024-09-07T08:05:24.152Z,184417,-0.34796143,-1.0334473,0.046142578
1725696324195,2024-09-07T08:05:24.195Z,184460,-0.32598877,-1.0211792,0.047729492
1725696324239,2024-09-07T08:05:24.239Z,184504,-0.25146484,-0.96466064,-0.01550293
1725696324287,2024-09-07T08:05:24.287Z,184552,-0.2727661,-0.95269775,0.04107666
1725696324331,2024-09-07T08:05:24.331Z,184596,-0.2695923,-0.98187256,0.07287598
1725696324377,2024-09-07T08:05:24.377Z,184642,-0.32336426,-1.0014038,0.09851074
1725696324421,2024-09-07T08:05:24.421Z,184686,-0.29626465,-0.97003174,0.09588623
1725696324471,2024-09-07T08:05:24.471Z,184736,-0.31481934,-0.95355225,0.0869751
1725696324511,2024-09-07T08:05:24.511Z,184776,-0.2775879,-0.95721436,0.10461426
1725696324534,2024-09-07T08:05:24.534Z,184799,-0.26586914,-0.99212646,0.12432861
1725696324554,2024-09-07T08:05:24.554Z,184819,-0.26849365,-1.010498,0.1005249
1725696324598,2024-09-07T08:05:24.598Z,184863,-0.27087402,-1.0413818,0.087890625
1725696324644,2024-09-07T08:05:24.644Z,184909,-0.27941895,-1.0373535,0.11291504
1725696324694,2024-09-07T08:05:24.694Z,184959,-0.24908447,-1.0205688,0.09136963
1725696324732,2024-09-07T08:05:24.732Z,184997,-0.23828125,-0.9682617,0.09844971
1725696324784,2024-09-07T08:05:24.784Z,185049,-0.2156372,-0.9209595,0.08026123
1725696324825,2024-09-07T08:05:24.825Z,185090,-0.20788574,-0.9066162,0.09466553
1725696324873,2024-09-07T08:05:24.873Z,185138,-0.18908691,-0.92889404,0.09173584
1725696324913,2024-09-07T08:05:24.913Z,185178,-0.1965332,-0.9545288,0.114868164
1725696324934,2024-09-07T08:05:24.934Z,185199,-0.19055176,-0.99468994,0.10321045
1725696324958,2024-09-07T08:05:24.958Z,185223,-0.18145752,-0.99902344,0.15722656
1725696325002,2024-09-07T08:05:25.002Z,185267,-0.1828003,-1.0030518,0.14691162
1725696325051,2024-09-07T08:05:25.051Z,185316,-0.17523193,-0.9874878,0.1385498
1725696325095,2024-09-07T08:05:25.095Z,185360,-0.18426514,-0.9691162,0.14178467
1725696325146,2024-09-07T08:05:25.146Z,185411,-0.19036865,-0.9433594,0.1538086
1725696325183,2024-09-07T08:05:25.183Z,185448,-0.20275879,-0.9371338,0.1296997
1725696325230,2024-09-07T08:05:25.230Z,185495,-0.20135498,-0.94384766,0.13970947
1725696325277,2024-09-07T08:05:25.277Z,185542,-0.22436523,-0.9626465,0.13824463
1725696325323,2024-09-07T08:05:25.323Z,185588,-0.23638916,-0.9819336,0.16070557
1725696325362,2024-09-07T08:05:25.362Z,185627,-0.2276001,-1.0135498,0.16418457
1725696325380,2024-09-07T08:05:25.380Z,185645,-0.2602539,-1.0418091,0.17999268
1725696325407,2024-09-07T08:05:25.407Z,185672,-0.284729,-1.0758667,0.18127441
1725696325456,2024-09-07T08:05:25.456Z,185721,-0.30548096,-1.1135254,0.18200684
1725696325500,2024-09-07T08:05:25.500Z,185765,-0.33117676,-1.1350708,0.17626953
1725696325549,2024-09-07T08:05:25.549Z,185814,-0.33172607,-1.1240845,0.19903564
1725696325593,2024-09-07T08:05:25.593Z,185858,-0.33709717,-1.0858765,0.1862793
1725696325634,2024-09-07T08:05:25.634Z,185899,-0.32928467,-1.0614624,0.15856934
1725696325682,2024-09-07T08:05:25.682Z,185947,-0.35742188,-1.0697632,0.13635254
1725696325724,2024-09-07T08:05:25.724Z,185989,-0.38201904,-1.0526123,0.123168945
1725696325768,2024-09-07T08:05:25.768Z,186033,-0.4033203,-1.03125,0.087402344
1725696325792,2024-09-07T08:05:25.792Z,186057,-0.3847046,-0.97210693,0.056274414
1725696325818,2024-09-07T08:05:25.818Z,186083,-0.39941406,-0.94091797,0.06500244
1725696325857,2024-09-07T08:05:25.857Z,186122,-0.4494629,-0.9393921,0.12426758
1725696325905,2024-09-07T08:05:25.905Z,186170,-0.4487915,-0.9119873,0.085998535
1725696325957,2024-09-07T08:05:25.957Z,186222,-0.44232178,-0.8866577,0.010131836
1725696325999,2024-09-07T08:05:25.999Z,186264,-0.4449463,-0.89172363,0.0022583008
1725696326038,2024-09-07T08:05:26.038Z,186303,-0.45324707,-0.8937378,-0.031982422
1725696326105,2024-09-07T08:05:26.105Z,186370,-0.40789795,-0.89520264,-0.107910156
1725696326177,2024-09-07T08:05:26.177Z,186442,-0.4069214,-0.8914795,-0.14300537
1725696326205,2024-09-07T08:05:26.205Z,186470,-0.39105225,-0.89593506,-0.17572021
1725696326226,2024-09-07T08:05:26.226Z,186491,-0.39874268,-0.9055176,-0.124572754
1725696326242,2024-09-07T08:05:26.242Z,186507,-0.36956787,-0.8817749,-0.15759277
1725696326262,2024-09-07T08:05:26.262Z,186527,-0.33062744,-0.8386841,-0.14489746
1725696326307,2024-09-07T08:05:26.307Z,186572,-0.34625244,-0.7845459,-0.1494751
1725696326356,2024-09-07T08:05:26.356Z,186621,-0.31445312,-0.7581787,-0.14416504
1725696326400,2024-09-07T08:05:26.400Z,186665,-0.30651855,-0.774292,-0.10644531
1725696326447,2024-09-07T08:05:26.447Z,186712,-0.25109863,-0.7839966,-0.08087158
1725696326494,2024-09-07T08:05:26.494Z,186759,-0.18078613,-0.7606201,-0.022033691
1725696326538,2024-09-07T08:05:26.538Z,186803,-0.10644531,-0.7523804,-0.030395508
1725696326582,2024-09-07T08:05:26.582Z,186847,-0.09295654,-0.7618408,0.0028076172
1725696326627,2024-09-07T08:05:26.627Z,186892,-0.11828613,-0.8260498,-0.038269043
1725696326651,2024-09-07T08:05:26.651Z,186916,-0.061462402,-0.8744507,0.02911377
1725696326671,2024-09-07T08:05:26.671Z,186936,-0.08581543,-0.9298706,-0.0491333
1725696326714,2024-09-07T08:05:26.714Z,186979,-0.092163086,-0.92993164,-0.008911133
1725696326761,2024-09-07T08:05:26.761Z,187026,-0.09362793,-0.96191406,-0.015808105
1725696326807,2024-09-07T08:05:26.807Z,187072,-0.08331299,-0.99121094,0.010131836
1725696326851,2024-09-07T08:05:26.851Z,187116,-0.070495605,-0.9914551,0.018249512
1725696326897,2024-09-07T08:05:26.897Z,187162,-0.09075928,-0.98950195,0.027770996
1725696326943,2024-09-07T08:05:26.943Z,187208,-0.076049805,-1.0235596,0.06896973
1725696326989,2024-09-07T08:05:26.989Z,187254,-0.101379395,-1.015564,0.06768799
1725696327030,2024-09-07T08:05:27.030Z,187295,-0.10424805,-0.9971924,0.048950195
1725696327054,2024-09-07T08:05:27.054Z,187319,-0.09472656,-0.99749756,0.07977295
1725696327072,2024-09-07T08:05:27.072Z,187337,-0.14483643,-0.9481201,0.09259033
1725696327120,2024-09-07T08:05:27.120Z,187385,-0.10308838,-0.87579346,0.042297363
1725696327169,2024-09-07T08:05:27.169Z,187434,-0.13879395,-0.9307251,0.06604004
1725696327212,2024-09-07T08:05:27.212Z,187477,-0.16583252,-0.9810791,0.033081055
1725696327254,2024-09-07T08:05:27.254Z,187519,-0.15655518,-0.9876709,0.0033569336
1725696327347,2024-09-07T08:05:27.347Z,187612,-0.14886475,-0.9246216,0.05316162
1725696327378,2024-09-07T08:05:27.378Z,187643,-0.16320801,-0.8605957,-0.032409668
1725696327400,2024-09-07T08:05:27.400Z,187665,-0.15386963,-0.8735962,-0.013977051
1725696327433,2024-09-07T08:05:27.433Z,187698,-0.20477295,-0.8824463,-0.038269043
1725696327447,2024-09-07T08:05:27.447Z,187712,-0.16668701,-0.88494873,-0.047424316
1725696327477,2024-09-07T08:05:27.477Z,187742,-0.21862793,-0.9393921,-0.07183838
1725696327526,2024-09-07T08:05:27.526Z,187791,-0.22930908,-0.9398804,-0.028747559
1725696327571,2024-09-07T08:05:27.571Z,187836,-0.24017334,-0.8745117,-0.12371826
1725696327615,2024-09-07T08:05:27.615Z,187880,-0.20379639,-0.8641968,-0.071899414
1725696327662,2024-09-07T08:05:27.662Z,187927,-0.28399658,-0.88323975,-0.107543945
1725696327706,2024-09-07T08:05:27.706Z,187971,-0.27789307,-0.9411621,-0.12738037
1725696327748,2024-09-07T08:05:27.748Z,188013,-0.35302734,-0.9342041,-0.082092285
1725696327799,2024-09-07T08:05:27.799Z,188064,-0.3381958,-0.88623047,-0.1486206
1725696327842,2024-09-07T08:05:27.842Z,188107,-0.33422852,-0.8637085,-0.05706787
1725696327870,2024-09-07T08:05:27.870Z,188135,-0.3499756,-0.8435669,-0.10736084
1725696327893,2024-09-07T08:05:27.893Z,188158,-0.34655762,-0.8951416,-0.08148193
1725696327928,2024-09-07T08:05:27.928Z,188193,-0.37219238,-0.9078369,-0.04272461
1725696327975,2024-09-07T08:05:27.975Z,188240,-0.34326172,-0.8703613,-0.08911133
1725696328023,2024-09-07T08:05:28.023Z,188288,-0.29840088,-0.87646484,-0.10345459
1725696328068,2024-09-07T08:05:28.068Z,188333,-0.33874512,-0.89294434,-0.09680176
1725696328109,2024-09-07T08:05:28.109Z,188374,-0.31988525,-0.9125366,-0.14282227
1725696328158,2024-09-07T08:05:28.158Z,188423,-0.37286377,-0.95684814,-0.11425781
1725696328203,2024-09-07T08:05:28.203Z,188468,-0.3630371,-0.9375,-0.109191895
1725696328245,2024-09-07T08:05:28.245Z,188510,-0.336792,-0.96746826,-0.09942627
1725696328293,2024-09-07T08:05:28.293Z,188558,-0.35498047,-0.95843506,-0.12945557
1725696328319,2024-09-07T08:05:28.319Z,188584,-0.3425293,-0.95861816,-0.12371826
1725696328343,2024-09-07T08:05:28.343Z,188608,-0.37109375,-0.960022,-0.09509277
1725696328377,2024-09-07T08:05:28.377Z,188642,-0.39276123,-0.9543457,-0.06890869
1725696328470,2024-09-07T08:05:28.470Z,188735,-0.39056396,-0.9256592,-0.10534668
1725696328487,2024-09-07T08:05:28.487Z,188752,-0.36218262,-0.91241455,-0.09484863
1725696328512,2024-09-07T08:05:28.512Z,188777,-0.36712646,-0.8904419,-0.024291992
1725696328562,2024-09-07T08:05:28.562Z,188827,-0.3380127,-0.89520264,-0.006286621
1725696328611,2024-09-07T08:05:28.611Z,188876,-0.33673096,-0.92181396,0.03338623
1725696328651,2024-09-07T08:05:28.651Z,188916,-0.32769775,-0.96728516,0.084350586
1725696328698,2024-09-07T08:05:28.698Z,188963,-0.33319092,-1.0095825,0.025939941
1725696328725,2024-09-07T08:05:28.725Z,188990,-0.31689453,-1.0206299,0.024230957
1725696328749,2024-09-07T08:05:28.749Z,189014,-0.3147583,-1.0286865,0.05206299
1725696328783,2024-09-07T08:05:28.783Z,189048,-0.32769775,-1.02948,0.09631348
1725696328828,2024-09-07T08:05:28.828Z,189093,-0.28497314,-1.0097046,0.06304932
1725696328878,2024-09-07T08:05:28.878Z,189143,-0.25994873,-0.9767456,0.07562256
1725696328923,2024-09-07T08:05:28.923Z,189188,-0.22271729,-0.98065186,0.07946777
1725696328967,2024-09-07T08:05:28.967Z,189232,-0.23638916,-0.98327637,0.10235596
1725696329015,2024-09-07T08:05:29.015Z,189280,-0.26623535,-0.9932251,0.10058594
1725696329057,2024-09-07T08:05:29.057Z,189322,-0.2578125,-1.0119019,0.06390381
1725696329102,2024-09-07T08:05:29.102Z,189367,-0.23999023,-1.0026245,0.058166504
1725696329126,2024-09-07T08:05:29.126Z,189391,-0.2097168,-0.98864746,0.08685303
1725696329146,2024-09-07T08:05:29.146Z,189411,-0.21478271,-0.98223877,0.075683594
1725696329189,2024-09-07T08:05:29.189Z,189454,-0.20697021,-0.9923096,0.10046387
1725696329235,2024-09-07T08:05:29.235Z,189500,-0.2076416,-0.99902344,0.074157715
1725696329284,2024-09-07T08:05:29.284Z,189549,-0.2374878,-1.0084229,0.08483887
1725696329328,2024-09-07T08:05:29.328Z,189593,-0.19555664,-1.0021362,0.08270264
1725696329374,2024-09-07T08:05:29.374Z,189639,-0.17626953,-0.9845581,0.10272217
1725696329416,2024-09-07T08:05:29.416Z,189681,-0.15002441,-0.9714966,0.085510254
1725696329466,2024-09-07T08:05:29.466Z,189731,-0.1182251,-0.97613525,0.08294678
1725696329505,2024-09-07T08:05:29.505Z,189770,-0.10601807,-1.0007935,0.107788086
1725696329597,2024-09-07T08:05:29.597Z,189862,-0.08135986,-1.0022583,0.14160156
1725696329627,2024-09-07T08:05:29.627Z,189892,-0.08691406,-1.0084839,0.15826416
1725696329649,2024-09-07T08:05:29.649Z,189914,-0.08691406,-0.9992676,0.15515137
1725696329672,2024-09-07T08:05:29.672Z,189937,-0.103759766,-0.9970093,0.17321777
1725696329689,2024-09-07T08:05:29.689Z,189954,-0.08795166,-0.98657227,0.18652344
1725696329727,2024-09-07T08:05:29.727Z,189992,-0.072143555,-0.95843506,0.17926025
1725696329772,2024-09-07T08:05:29.772Z,190037,-0.06036377,-0.934021,0.16809082
1725696329820,2024-09-07T08:05:29.820Z,190085,-0.06518555,-0.9406128,0.1796875
1725696329871,2024-09-07T08:05:29.871Z,190136,-0.10028076,-0.9672241,0.19610596
1725696329911,2024-09-07T08:05:29.911Z,190176,-0.10803223,-0.98205566,0.18365479
1725696329958,2024-09-07T08:05:29.958Z,190223,-0.11480713,-0.97943115,0.18310547
1725696329990,2024-09-07T08:05:29.990Z,190255,-0.1194458,-0.9916992,0.19873047
1725696330011,2024-09-07T08:05:30.011Z,190276,-0.14788818,-1.0408325,0.21069336
1725696330042,2024-09-07T08:05:30.042Z,190307,-0.19036865,-1.0980225,0.21313477
1725696330093,2024-09-07T08:05:30.093Z,190358,-0.19683838,-1.1428833,0.21612549
1725696330134,2024-09-07T08:05:30.134Z,190399,-0.20385742,-1.1314087,0.22406006
1725696330182,2024-09-07T08:05:30.182Z,190447,-0.23864746,-1.1245117,0.22088623
1725696330227,2024-09-07T08:05:30.227Z,190492,-0.2267456,-1.1051025,0.2341919
1725696330271,2024-09-07T08:05:30.271Z,190536,-0.22686768,-1.0610352,0.17352295
1725696330336,2024-09-07T08:05:30.336Z,190601,-0.2218628,-1.03125,0.19952393
1725696330360,2024-09-07T08:05:30.360Z,190625,-0.2854004,-1.0487671,0.22692871
1725696330378,2024-09-07T08:05:30.378Z,190643,-0.28961182,-1.0300293,0.20178223
1725696330402,2024-09-07T08:05:30.402Z,190667,-0.31280518,-0.97680664,0.1550293
1725696330450,2024-09-07T08:05:30.450Z,190715,-0.32330322,-0.9177246,0.21331787
1725696330497,2024-09-07T08:05:30.497Z,190762,-0.34173584,-0.8741455,0.18463135
1725696330544,2024-09-07T08:05:30.544Z,190809,-0.3468628,-0.8788452,0.15405273
1725696330587,2024-09-07T08:05:30.587Z,190852,-0.36102295,-0.9123535,0.07312012
1725696330632,2024-09-07T08:05:30.632Z,190897,-0.38397217,-0.93133545,0.12060547
1725696330678,2024-09-07T08:05:30.678Z,190943,-0.38415527,-0.9395752,0.10949707
1725696330723,2024-09-07T08:05:30.723Z,190988,-0.3890381,-0.8963623,0.06854248
1725696330766,2024-09-07T08:05:30.766Z,191031,-0.37493896,-0.911499,0.016540527
1725696330811,2024-09-07T08:05:30.811Z,191076,-0.4298706,-0.90844727,0.030578613
1725696330836,2024-09-07T08:05:30.836Z,191101,-0.41784668,-0.9234009,-0.03479004
1725696330853,2024-09-07T08:05:30.853Z,191118,-0.41070557,-0.88531494,-0.008911133
1725696330897,2024-09-07T08:05:30.897Z,191162,-0.418396,-0.8878174,-0.055786133
1725696330945,2024-09-07T08:05:30.945Z,191210,-0.39715576,-0.85162354,-0.01763916
1725696330995,2024-09-07T08:05:30.995Z,191260,-0.37542725,-0.842041,-0.066467285
1725696331038,2024-09-07T08:05:31.038Z,191303,-0.3947754,-0.875,-0.022521973
1725696331080,2024-09-07T08:05:31.080Z,191345,-0.37939453,-0.88983154,-0.043151855
1725696331125,2024-09-07T08:05:31.125Z,191390,-0.35424805,-0.8717041,-0.04107666
1725696331170,2024-09-07T08:05:31.170Z,191435,-0.33636475,-0.8400879,-0.037597656
1725696331218,2024-09-07T08:05:31.218Z,191483,-0.31079102,-0.842041,-0.0579834
1725696331242,2024-09-07T08:05:31.242Z,191507,-0.30108643,-0.8657837,-0.03186035
1725696331264,2024-09-07T08:05:31.264Z,191529,-0.255188,-0.8687744,-0.10864258
1725696331303,2024-09-07T08:05:31.303Z,191568,-0.1918335,-0.85321045,-0.08050537
1725696331354,2024-09-07T08:05:31.354Z,191619,-0.17468262,-0.80371094,-0.074157715
1725696331394,2024-09-07T08:05:31.394Z,191659,-0.15594482,-0.744812,-0.07922363
1725696331441,2024-09-07T08:05:31.441Z,191706,-0.14605713,-0.75927734,-0.11730957
1725696331534,2024-09-07T08:05:31.534Z,191799,-0.15454102,-0.8696289,-0.12713623
1725696331560,2024-09-07T08:05:31.560Z,191825,-0.20178223,-0.98651123,-0.0949707
1725696331622,2024-09-07T08:05:31.622Z,191887,-0.16827393,-0.97753906,-0.10925293
1725696331648,2024-09-07T08:05:31.648Z,191913,-0.14318848,-0.942688,-0.07165527
1725696331669,2024-09-07T08:05:31.669Z,191934,-0.12475586,-0.91674805,-0.02709961
1725696331686,2024-09-07T08:05:31.686Z,191951,-0.0982666,-0.94866943,-0.041931152
1725696331713,2024-09-07T08:05:31.713Z,191978,-0.10180664,-1.0150146,0.0030517578
1725696331754,2024-09-07T08:05:31.754Z,192019,-0.13745117,-1.0505981,0.001159668
1725696331800,2024-09-07T08:05:31.800Z,192065,-0.11206055,-1.0090942,-0.014160156
1725696331848,2024-09-07T08:05:31.848Z,192113,-0.121520996,-0.9714966,-0.09509277
1725696331888,2024-09-07T08:05:31.888Z,192153,-0.17553711,-0.96765137,-0.04144287
1725696331953,2024-09-07T08:05:31.953Z,192218,-0.14550781,-0.96832275,-0.05682373
1725696331979,2024-09-07T08:05:31.979Z,192244,-0.14178467,-0.93963623,-0.072631836
1725696332029,2024-09-07T08:05:32.029Z,192294,-0.15161133,-0.9135132,-0.07635498
1725696332067,2024-09-07T08:05:32.067Z,192332,-0.13409424,-0.9459839,-0.08380127
1725696332083,2024-09-07T08:05:32.083Z,192348,-0.1762085,-0.9805298,-0.0569458
1725696332112,2024-09-07T08:05:32.112Z,192377,-0.13891602,-0.9828491,-0.08581543
1725696332160,2024-09-07T08:05:32.160Z,192425,-0.17553711,-0.9415283,-0.07647705
1725696332254,2024-09-07T08:05:32.254Z,192519,-0.17108154,-0.8901367,-0.109069824
1725696332283,2024-09-07T08:05:32.283Z,192548,-0.1739502,-0.86920166,-0.12249756
1725696332310,2024-09-07T08:05:32.310Z,192575,-0.19122314,-0.91534424,-0.1586914
1725696332338,2024-09-07T08:05:32.338Z,192603,-0.17694092,-0.9384155,-0.09020996
1725696332386,2024-09-07T08:05:32.386Z,192651,-0.27679443,-0.8843994,-0.08935547
1725696332433,2024-09-07T08:05:32.433Z,192698,-0.22753906,-0.9435425,-0.12609863
1725696332475,2024-09-07T08:05:32.475Z,192740,-0.27331543,-0.9014282,-0.12963867
1725696332511,2024-09-07T08:05:32.511Z,192776,-0.25317383,-0.9326172,-0.1864624
1725696332527,2024-09-07T08:05:32.527Z,192792,-0.28527832,-0.9189453,-0.1048584
1725696332609,2024-09-07T08:05:32.609Z,192874,-0.25927734,-0.944397,-0.17834473
1725696332624,2024-09-07T08:05:32.624Z,192889,-0.28479004,-0.899353,-0.08660889
1725696332653,2024-09-07T08:05:32.653Z,192918,-0.27679443,-0.840271,-0.20727539
1725696332700,2024-09-07T08:05:32.700Z,192965,-0.26446533,-0.8453369,-0.10046387
1725696332747,2024-09-07T08:05:32.747Z,193012,-0.32092285,-0.8553467,-0.13677979
1725696332795,2024-09-07T08:05:32.795Z,193060,-0.28308105,-0.88720703,-0.13519287
1725696332843,2024-09-07T08:05:32.843Z,193108,-0.3508911,-0.93536377,-0.06323242
1725696332880,2024-09-07T08:05:32.880Z,193145,-0.35009766,-0.8994751,-0.12310791
1725696332898,2024-09-07T08:05:32.898Z,193163,-0.3347168,-0.8708496,-0.12554932
1725696332922,2024-09-07T08:05:32.922Z,193187,-0.3453369,-0.89782715,-0.1003418
1725696332971,2024-09-07T08:05:32.971Z,193236,-0.3503418,-0.9137573,-0.08074951
1725696333019,2024-09-07T08:05:33.019Z,193284,-0.331604,-0.9210205,-0.16711426
1725696333063,2024-09-07T08:05:33.063Z,193328,-0.319458,-0.9329834,-0.1459961
1725696333106,2024-09-07T08:05:33.106Z,193371,-0.3287964,-0.9735718,-0.15032959
1725696333150,2024-09-07T08:05:33.150Z,193415,-0.328125,-0.9445801,-0.10119629
1725696333197,2024-09-07T08:05:33.197Z,193462,-0.2765503,-0.9295654,-0.19348145
1725696333243,2024-09-07T08:05:33.243Z,193508,-0.31298828,-0.932312,-0.10357666
1725696333286,2024-09-07T08:05:33.286Z,193551,-0.333313,-0.9411621,-0.18859863
1725696333331,2024-09-07T08:05:33.331Z,193596,-0.34906006,-0.9439697,-0.1251831
1725696333357,2024-09-07T08:05:33.357Z,193622,-0.34814453,-0.93640137,-0.20855713
1725696333373,2024-09-07T08:05:33.373Z,193638,-0.3760376,-0.95373535,-0.15063477
1725696333419,2024-09-07T08:05:33.419Z,193684,-0.40570068,-0.95758057,-0.16314697
1725696333468,2024-09-07T08:05:33.468Z,193733,-0.35992432,-0.91516113,-0.17596436
1725696333511,2024-09-07T08:05:33.511Z,193776,-0.3651123,-0.88916016,-0.19439697
1725696333558,2024-09-07T08:05:33.558Z,193823,-0.38671875,-0.9136963,-0.12414551
1725696333602,2024-09-07T08:05:33.602Z,193867,-0.41088867,-0.8883667,-0.1486206
1725696333645,2024-09-07T08:05:33.645Z,193910,-0.40478516,-0.8713989,-0.14440918
1725696333691,2024-09-07T08:05:33.691Z,193956,-0.37799072,-0.85217285,-0.12988281
1725696333737,2024-09-07T08:05:33.737Z,194002,-0.41156006,-0.8955078,-0.1408081
1725696333799,2024-09-07T08:05:33.799Z,194064,-0.41723633,-0.9449463,-0.100097656
1725696333824,2024-09-07T08:05:33.824Z,194089,-0.4484253,-0.9556885,-0.06896973
1725696333843,2024-09-07T08:05:33.843Z,194108,-0.3848877,-0.94641113,-0.043701172
1725696333867,2024-09-07T08:05:33.867Z,194132,-0.35742188,-0.95269775,-0.015319824
1725696333912,2024-09-07T08:05:33.912Z,194177,-0.34399414,-0.95288086,0.06896973
1725696333959,2024-09-07T08:05:33.959Z,194224,-0.32678223,-0.9715576,0.07550049
1725696334010,2024-09-07T08:05:34.010Z,194275,-0.3083496,-0.96154785,0.088134766
1725696334052,2024-09-07T08:05:34.052Z,194317,-0.29003906,-0.9848633,0.07745361
1725696334095,2024-09-07T08:05:34.095Z,194360,-0.27996826,-0.99212646,0.19702148
1725696334141,2024-09-07T08:05:34.141Z,194406,-0.30090332,-1.0172119,0.1595459
1725696334170,2024-09-07T08:05:34.170Z,194435,-0.2952881,-1.0037231,0.14807129
1725696334188,2024-09-07T08:05:34.188Z,194453,-0.26733398,-1.0020752,0.14526367
1725696334228,2024-09-07T08:05:34.228Z,194493,-0.2675171,-0.9851074,0.17730713
1725696334277,2024-09-07T08:05:34.277Z,194542,-0.28302002,-0.9863281,0.15252686
1725696334322,2024-09-07T08:05:34.322Z,194587,-0.28253174,-0.9857788,0.11065674
1725696334367,2024-09-07T08:05:34.367Z,194632,-0.25927734,-0.9515381,0.124938965
1725696334415,2024-09-07T08:05:34.415Z,194680,-0.25683594,-0.9352417,0.14685059
1725696334459,2024-09-07T08:05:34.459Z,194724,-0.21484375,-0.9397583,0.11895752
1725696334502,2024-09-07T08:05:34.502Z,194767,-0.22497559,-0.9507446,0.1451416
1725696334547,2024-09-07T08:05:34.547Z,194812,-0.21624756,-1.0028076,0.14752197
1725696334594,2024-09-07T08:05:34.594Z,194859,-0.1850586,-1.0218506,0.16052246
1725696334622,2024-09-07T08:05:34.622Z,194887,-0.15216064,-0.9888916,0.19122314
1725696334642,2024-09-07T08:05:34.642Z,194907,-0.1404419,-0.9819946,0.20770264
1725696334677,2024-09-07T08:05:34.677Z,194942,-0.10266113,-0.9626465,0.23535156
1725696334729,2024-09-07T08:05:34.729Z,194994,-0.11608887,-0.9530029,0.24920654
1725696334775,2024-09-07T08:05:34.775Z,195040,-0.09692383,-0.93518066,0.25134277
1725696334815,2024-09-07T08:05:34.815Z,195080,-0.124938965,-0.94866943,0.23791504
1725696334862,2024-09-07T08:05:34.862Z,195127,-0.12512207,-0.9657593,0.25836182
1725696334906,2024-09-07T08:05:34.906Z,195171,-0.11254883,-0.9661865,0.26904297
1725696334950,2024-09-07T08:05:34.950Z,195215,-0.103515625,-0.9558716,0.26861572
1725696334995,2024-09-07T08:05:34.995Z,195260,-0.11553955,-0.9650879,0.25256348
1725696335027,2024-09-07T08:05:35.027Z,195292,-0.14105225,-0.9655762,0.24273682
1725696335057,2024-09-07T08:05:35.057Z,195322,-0.14953613,-0.9581299,0.21325684
1725696335082,2024-09-07T08:05:35.082Z,195347,-0.14038086,-0.95666504,0.21051025
1725696335130,2024-09-07T08:05:35.130Z,195395,-0.1541748,-0.9494629,0.23492432
1725696335173,2024-09-07T08:05:35.173Z,195438,-0.13623047,-0.928833,0.23217773
1725696335221,2024-09-07T08:05:35.221Z,195486,-0.14196777,-0.9168091,0.2364502
1725696335267,2024-09-07T08:05:35.267Z,195532,-0.14013672,-0.9154053,0.24414062
1725696335313,2024-09-07T08:05:35.313Z,195578,-0.15045166,-0.9182129,0.27288818
1725696335356,2024-09-07T08:05:35.356Z,195621,-0.12207031,-0.96777344,0.24389648
1725696335400,2024-09-07T08:05:35.400Z,195665,-0.1998291,-1.0839233,0.29406738
1725696335420,2024-09-07T08:05:35.420Z,195685,-0.2617798,-1.1370239,0.3267212
1725696335443,2024-09-07T08:05:35.443Z,195708,-0.22668457,-1.0708618,0.27911377
1725696335491,2024-09-07T08:05:35.491Z,195756,-0.24365234,-1.039856,0.27807617
1725696335537,2024-09-07T08:05:35.537Z,195802,-0.265625,-1.02594,0.24334717
1725696335582,2024-09-07T08:05:35.582Z,195847,-0.31695557,-1.0411377,0.23730469
1725696335626,2024-09-07T08:05:35.626Z,195891,-0.36218262,-1.0369263,0.22009277
1725696335671,2024-09-07T08:05:35.671Z,195936,-0.35339355,-1.0515137,0.16082764
1725696335716,2024-09-07T08:05:35.716Z,195981,-0.36621094,-1.0397949,0.17010498
1725696335762,2024-09-07T08:05:35.762Z,196027,-0.33288574,-0.99676514,0.17608643
1725696335807,2024-09-07T08:05:35.807Z,196072,-0.28936768,-0.95373535,0.16967773
1725696335947,2024-09-07T08:05:35.947Z,196212,-0.2800293,-0.91864014,0.16308594
1725696335981,2024-09-07T08:05:35.981Z,196246,-0.31555176,-0.9100952,0.14746094
1725696336007,2024-09-07T08:05:36.007Z,196272,-0.3320923,-0.93292236,0.10357666
1725696336029,2024-09-07T08:05:36.029Z,196294,-0.35717773,-0.942688,0.11981201
1725696336044,2024-09-07T08:05:36.044Z,196309,-0.33587646,-0.93182373,0.051635742
1725696336057,2024-09-07T08:05:36.057Z,196322,-0.3145752,-0.9216919,0.07385254
1725696336071,2024-09-07T08:05:36.071Z,196336,-0.32452393,-0.91485596,0.08282471
1725696336118,2024-09-07T08:05:36.118Z,196383,-0.36749268,-0.91729736,0.11071777
1725696336166,2024-09-07T08:05:36.166Z,196431,-0.37701416,-0.90319824,0.060546875
1725696336212,2024-09-07T08:05:36.212Z,196477,-0.4249878,-0.92626953,0.02520752
1725696336259,2024-09-07T08:05:36.259Z,196524,-0.4329834,-0.92285156,0.01940918
1725696336287,2024-09-07T08:05:36.287Z,196552,-0.42687988,-0.9262085,-0.056640625
1725696336307,2024-09-07T08:05:36.307Z,196572,-0.42895508,-0.90509033,-0.03326416
1725696336344,2024-09-07T08:05:36.344Z,196609,-0.40216064,-0.87976074,-0.06750488
1725696336392,2024-09-07T08:05:36.392Z,196657,-0.3668213,-0.8741455,-0.12207031
1725696336438,2024-09-07T08:05:36.438Z,196703,-0.41809082,-0.87542725,-0.08337402
1725696336483,2024-09-07T08:05:36.483Z,196748,-0.38983154,-0.8706665,-0.111572266
1725696336528,2024-09-07T08:05:36.528Z,196793,-0.40704346,-0.83825684,-0.11755371
1725696336577,2024-09-07T08:05:36.577Z,196842,-0.39678955,-0.83343506,-0.13098145
1725696336629,2024-09-07T08:05:36.629Z,196894,-0.38134766,-0.84942627,-0.10803223
1725696336660,2024-09-07T08:05:36.660Z,196925,-0.3642578,-0.8208008,-0.11828613
1725696336685,2024-09-07T08:05:36.685Z,196950,-0.31140137,-0.82702637,-0.13098145
1725696336710,2024-09-07T08:05:36.710Z,196975,-0.30316162,-0.82684326,-0.10675049
1725696336750,2024-09-07T08:05:36.750Z,197015,-0.26379395,-0.8307495,-0.13110352
1725696336797,2024-09-07T08:05:36.797Z,197062,-0.25616455,-0.8439331,-0.12011719
1725696336841,2024-09-07T08:05:36.841Z,197106,-0.22198486,-0.8635864,-0.11651611
1725696336886,2024-09-07T08:05:36.886Z,197151,-0.22106934,-0.84991455,-0.11981201
1725696336931,2024-09-07T08:05:36.931Z,197196,-0.21081543,-0.8493042,-0.09875488
1725696336978,2024-09-07T08:05:36.978Z,197243,-0.20544434,-0.88549805,-0.10736084
1725696337021,2024-09-07T08:05:37.021Z,197286,-0.22277832,-0.90979004,-0.014709473
1725696337081,2024-09-07T08:05:37.081Z,197346,-0.21820068,-0.9328003,-0.04107666
1725696337107,2024-09-07T08:05:37.107Z,197372,-0.1585083,-0.9110718,-0.028930664
1725696337125,2024-09-07T08:05:37.125Z,197390,-0.2144165,-0.9310913,-0.013916016
1725696337152,2024-09-07T08:05:37.152Z,197417,-0.17102051,-0.9815674,0.012634277
1725696337248,2024-09-07T08:05:37.248Z,197513,-0.19195557,-0.9989624,0.008911133
1725696337276,2024-09-07T08:05:37.276Z,197541,-0.22229004,-0.99005127,0.015319824
1725696337294,2024-09-07T08:05:37.294Z,197559,-0.20056152,-0.96954346,0.0178833
1725696337333,2024-09-07T08:05:37.333Z,197598,-0.19134521,-0.970459,0.013916016
1725696337387,2024-09-07T08:05:37.387Z,197652,-0.1472168,-0.9699707,0.018005371
1725696337427,2024-09-07T08:05:37.427Z,197692,-0.1751709,-0.9925537,0.020446777
1725696337471,2024-09-07T08:05:37.471Z,197736,-0.16912842,-1.0020752,0.027526855
1725696337519,2024-09-07T08:05:37.519Z,197784,-0.1729126,-0.97454834,-0.029724121
1725696337548,2024-09-07T08:05:37.548Z,197813,-0.18920898,-0.9417114,-0.013000488
1725696337567,2024-09-07T08:05:37.567Z,197832,-0.20245361,-0.90722656,-0.050048828
1725696337602,2024-09-07T08:05:37.602Z,197867,-0.19866943,-0.8852539,-0.07324219
1725696337652,2024-09-07T08:05:37.652Z,197917,-0.22790527,-0.88049316,-0.1027832
1725696337695,2024-09-07T08:05:37.695Z,197960,-0.23474121,-0.9109497,-0.11224365
1725696337743,2024-09-07T08:05:37.743Z,198008,-0.21673584,-0.9411621,-0.04949951
1725696337787,2024-09-07T08:05:37.787Z,198052,-0.26367188,-0.8850708,-0.08911133
1725696337833,2024-09-07T08:05:37.833Z,198098,-0.22558594,-0.8276367,-0.05456543
1725696337875,2024-09-07T08:05:37.875Z,198140,-0.24407959,-0.8685913,-0.05657959
1725696337926,2024-09-07T08:05:37.926Z,198191,-0.28753662,-0.9546509,-0.015380859
1725696337947,2024-09-07T08:05:37.947Z,198212,-0.31640625,-0.94073486,-0.0146484375
1725696337966,2024-09-07T08:05:37.966Z,198231,-0.3135376,-0.8399658,-0.056884766
1725696338011,2024-09-07T08:05:38.011Z,198276,-0.2989502,-0.857666,-0.015991211
1725696338059,2024-09-07T08:05:38.059Z,198324,-0.31567383,-0.87384033,-0.034057617
1725696338103,2024-09-07T08:05:38.103Z,198368,-0.32824707,-0.9263916,-0.022277832
1725696338147,2024-09-07T08:05:38.147Z,198412,-0.3809204,-0.9180908,-0.07244873
1725696338193,2024-09-07T08:05:38.193Z,198458,-0.35931396,-0.9119873,-0.059936523
1725696338239,2024-09-07T08:05:38.239Z,198504,-0.35662842,-0.87145996,-0.04876709
1725696338283,2024-09-07T08:05:38.283Z,198548,-0.38024902,-0.890625,-0.038085938
1725696338328,2024-09-07T08:05:38.328Z,198593,-0.39935303,-0.8874512,-0.011413574
1725696338369,2024-09-07T08:05:38.369Z,198634,-0.40625,-0.8666382,-0.047424316
1725696338395,2024-09-07T08:05:38.395Z,198660,-0.43743896,-0.90734863,-0.06512451
1725696338416,2024-09-07T08:05:38.416Z,198681,-0.41485596,-0.87506104,-0.0022583008
1725696338459,2024-09-07T08:05:38.459Z,198724,-0.3939209,-0.84417725,-0.07043457
1725696338506,2024-09-07T08:05:38.506Z,198771,-0.38446045,-0.86553955,-0.08441162
1725696338552,2024-09-07T08:05:38.552Z,198817,-0.44073486,-0.934021,-0.053100586
1725696338598,2024-09-07T08:05:38.598Z,198863,-0.4628296,-0.9119873,-0.054016113
1725696338641,2024-09-07T08:05:38.641Z,198906,-0.45855713,-0.9013672,-0.10217285
1725696338685,2024-09-07T08:05:38.685Z,198950,-0.4263916,-0.855896,-0.13391113
1725696338734,2024-09-07T08:05:38.734Z,198999,-0.43566895,-0.86053467,-0.13861084
1725696338773,2024-09-07T08:05:38.773Z,199038,-0.46765137,-0.8829346,-0.033569336
1725696338795,2024-09-07T08:05:38.795Z,199060,-0.44732666,-0.883667,-0.15002441
1725696338816,2024-09-07T08:05:38.816Z,199081,-0.4512329,-0.9136963,-0.08514404
1725696338912,2024-09-07T08:05:38.912Z,199177,-0.44281006,-0.9239502,-0.10913086
1725696338926,2024-09-07T08:05:38.926Z,199191,-0.4326172,-0.9232178,-0.11383057
1725696338951,2024-09-07T08:05:38.951Z,199216,-0.43865967,-0.9510498,-0.054138184
1725696339003,2024-09-07T08:05:39.003Z,199268,-0.4171753,-0.9316406,-0.07824707
1725696339046,2024-09-07T08:05:39.046Z,199311,-0.37750244,-0.916626,-0.07946777
1725696339091,2024-09-07T08:05:39.091Z,199356,-0.34674072,-0.93395996,-0.023864746
1725696339138,2024-09-07T08:05:39.138Z,199403,-0.37023926,-0.97320557,-0.010986328
1725696339183,2024-09-07T08:05:39.183Z,199448,-0.3701172,-0.9762573,-0.055786133
1725696339209,2024-09-07T08:05:39.209Z,199474,-0.35601807,-1.0044556,-0.026000977
1725696339230,2024-09-07T08:05:39.230Z,199495,-0.40740967,-1.0075073,0.043029785
1725696339267,2024-09-07T08:05:39.267Z,199532,-0.3725586,-1.0142822,0.0020751953
1725696339313,2024-09-07T08:05:39.313Z,199578,-0.36523438,-0.9882202,0.024536133
1725696339363,2024-09-07T08:05:39.363Z,199628,-0.3149414,-0.9697876,0.039367676
1725696339411,2024-09-07T08:05:39.411Z,199676,-0.32702637,-0.9572754,0.13494873
1725696339455,2024-09-07T08:05:39.455Z,199720,-0.27856445,-0.9458008,0.09875488
1725696339496,2024-09-07T08:05:39.496Z,199761,-0.21643066,-0.9002075,0.082458496
1725696339539,2024-09-07T08:05:39.539Z,199804,-0.2508545,-0.932251,0.096069336
1725696339586,2024-09-07T08:05:39.586Z,199851,-0.24926758,-0.97576904,0.12915039
1725696339632,2024-09-07T08:05:39.632Z,199897,-0.21777344,-1.0045166,0.0904541
1725696339662,2024-09-07T08:05:39.662Z,199927,-0.2033081,-1.03125,0.113708496
1725696339689,2024-09-07T08:05:39.689Z,199954,-0.1843872,-1.0444336,0.13745117
1725696339718,2024-09-07T08:05:39.718Z,199983,-0.17462158,-0.9991455,0.1373291
1725696339768,2024-09-07T08:05:39.768Z,200033,-0.1661377,-0.9801636,0.12402344
1725696339810,2024-09-07T08:05:39.810Z,200075,-0.1538086,-0.96099854,0.16638184
1725696339859,2024-09-07T08:05:39.859Z,200124,-0.13775635,-0.94647217,0.1687622
1725696339901,2024-09-07T08:05:39.901Z,200166,-0.11907959,-0.95599365,0.15014648
1725696339947,2024-09-07T08:05:39.947Z,200212,-0.09472656,-0.97650146,0.15557861
1725696340039,2024-09-07T08:05:40.039Z,200304,-0.08288574,-0.9945679,0.21124268
1725696340072,2024-09-07T08:05:40.072Z,200337,-0.09436035,-1.0218506,0.19140625
1725696340103,2024-09-07T08:05:40.103Z,200368,-0.052001953,-1.0095825,0.199646
1725696340125,2024-09-07T08:05:40.125Z,200390,-0.0713501,-0.9908447,0.21484375
1725696340142,2024-09-07T08:05:40.142Z,200407,-0.05596924,-0.9664917,0.22601318
1725696340167,2024-09-07T08:05:40.167Z,200432,-0.051513672,-0.94573975,0.20288086
1725696340213,2024-09-07T08:05:40.213Z,200478,-0.056884766,-0.94921875,0.19396973
1725696340263,2024-09-07T08:05:40.263Z,200528,-0.07928467,-0.9684448,0.21923828
1725696340307,2024-09-07T08:05:40.307Z,200572,-0.07922363,-0.9738159,0.24407959
1725696340351,2024-09-07T08:05:40.351Z,200616,-0.07318115,-0.94989014,0.2539673
1725696340396,2024-09-07T08:05:40.396Z,200661,-0.078125,-0.95080566,0.24346924
1725696340441,2024-09-07T08:05:40.441Z,200706,-0.08477783,-0.95788574,0.2548828
1725696340462,2024-09-07T08:05:40.462Z,200727,-0.08129883,-0.9537964,0.24273682
1725696340485,2024-09-07T08:05:40.485Z,200750,-0.085632324,-0.9537964,0.24511719
1725696340531,2024-09-07T08:05:40.531Z,200796,-0.06921387,-0.94989014,0.25146484
1725696340574,2024-09-07T08:05:40.574Z,200839,-0.061523438,-0.9439697,0.2647705
1725696340622,2024-09-07T08:05:40.622Z,200887,-0.08068848,-0.95111084,0.2980957
1725696340664,2024-09-07T08:05:40.664Z,200929,-0.08526611,-0.97998047,0.3022461
1725696340712,2024-09-07T08:05:40.712Z,200977,-0.09173584,-1.0410767,0.30456543
1725696340756,2024-09-07T08:05:40.756Z,201021,-0.11071777,-1.0457764,0.30187988
1725696340799,2024-09-07T08:05:40.799Z,201064,-0.103271484,-1.024292,0.28149414
1725696340845,2024-09-07T08:05:40.845Z,201110,-0.11706543,-1.0340576,0.26287842
1725696340891,2024-09-07T08:05:40.891Z,201156,-0.14453125,-1.0286865,0.27575684
1725696340923,2024-09-07T08:05:40.923Z,201188,-0.15325928,-1.0154419,0.28631592
1725696340950,2024-09-07T08:05:40.950Z,201215,-0.18444824,-1.0401001,0.2977295
1725696340979,2024-09-07T08:05:40.979Z,201244,-0.2086792,-1.081665,0.29187012
1725696341023,2024-09-07T08:05:41.023Z,201288,-0.25567627,-1.1038208,0.32617188
1725696341072,2024-09-07T08:05:41.072Z,201337,-0.21612549,-1.0428467,0.25445557
1725696341116,2024-09-07T08:05:41.116Z,201381,-0.24249268,-1.0289917,0.1928711
1725696341162,2024-09-07T08:05:41.162Z,201427,-0.28704834,-1.0254517,0.22894287
1725696341205,2024-09-07T08:05:41.205Z,201470,-0.30523682,-0.9772949,0.17553711
1725696341252,2024-09-07T08:05:41.252Z,201517,-0.260437,-0.8604126,0.15551758
1725696341297,2024-09-07T08:05:41.297Z,201562,-0.29699707,-0.85284424,0.14105225
1725696341325,2024-09-07T08:05:41.325Z,201590,-0.3359375,-0.8536377,0.20178223
1725696341389,2024-09-07T08:05:41.389Z,201654,-0.34832764,-0.86328125,0.11767578
1725696341416,2024-09-07T08:05:41.416Z,201681,-0.38684082,-0.83862305,0.2177124
1725696341436,2024-09-07T08:05:41.436Z,201701,-0.39996338,-0.88616943,0.16882324
1725696341472,2024-09-07T08:05:41.472Z,201737,-0.42315674,-0.8601074,0.23687744
1725696341523,2024-09-07T08:05:41.523Z,201788,-0.42700195,-0.86413574,0.16442871
1725696341568,2024-09-07T08:05:41.568Z,201833,-0.46520996,-0.8651123,0.21173096
1725696341659,2024-09-07T08:05:41.659Z,201924,-0.48779297,-0.8670044,0.17694092
1725696341690,2024-09-07T08:05:41.690Z,201955,-0.4882202,-0.8414917,0.15905762
1725696341711,2024-09-07T08:05:41.711Z,201976,-0.46826172,-0.8486328,0.10601807
1725696341728,2024-09-07T08:05:41.728Z,201993,-0.45202637,-0.84033203,0.13171387
1725696341745,2024-09-07T08:05:41.745Z,202010,-0.49554443,-0.8840332,0.060668945
1725696341786,2024-09-07T08:05:41.786Z,202051,-0.4868164,-0.8452759,0.06915283
1725696341836,2024-09-07T08:05:41.836Z,202101,-0.5288696,-0.89038086,-0.04663086
1725696341887,2024-09-07T08:05:41.887Z,202152,-0.51000977,-0.8744507,-0.01751709
1725696341927,2024-09-07T08:05:41.927Z,202192,-0.5009155,-0.90289307,-0.057250977
1725696341973,2024-09-07T08:05:41.973Z,202238,-0.44433594,-0.8875122,-0.053222656
1725696342015,2024-09-07T08:05:42.015Z,202280,-0.4260254,-0.8856201,-0.07269287
1725696342059,2024-09-07T08:05:42.059Z,202324,-0.3735962,-0.875,-0.082214355
1725696342108,2024-09-07T08:05:42.108Z,202373,-0.35699463,-0.91571045,-0.07867432
1725696342135,2024-09-07T08:05:42.135Z,202400,-0.31103516,-0.88446045,-0.09259033
1725696342156,2024-09-07T08:05:42.156Z,202421,-0.22229004,-0.75006104,-0.10522461
1725696342191,2024-09-07T08:05:42.191Z,202456,-0.27178955,-0.6899414,-0.1437378
1725696342246,2024-09-07T08:05:42.246Z,202511,-0.21307373,-0.80688477,-0.12512207
1725696342284,2024-09-07T08:05:42.284Z,202549,-0.28198242,-0.9415283,-0.11602783
1725696342328,2024-09-07T08:05:42.328Z,202593,-0.2600708,-0.9914551,-0.06866455
1725696342375,2024-09-07T08:05:42.375Z,202640,-0.21740723,-0.9481201,-0.07836914
1725696342435,2024-09-07T08:05:42.435Z,202700,-0.17706299,-0.8775635,-0.08581543
1725696342463,2024-09-07T08:05:42.463Z,202728,-0.16143799,-0.862854,-0.051086426
1725696342509,2024-09-07T08:05:42.509Z,202774,-0.13464355,-0.86169434,-0.08148193
1725696342558,2024-09-07T08:05:42.558Z,202823,-0.13482666,-0.9063721,-0.09503174
1725696342585,2024-09-07T08:05:42.585Z,202850,-0.16113281,-0.95526123,-0.086242676
1725696342647,2024-09-07T08:05:42.647Z,202912,-0.14929199,-0.95373535,-0.070739746
1725696342673,2024-09-07T08:05:42.673Z,202938,-0.16369629,-0.9631958,-0.07659912
1725696342694,2024-09-07T08:05:42.694Z,202959,-0.11682129,-0.9113159,0.0010986328
1725696342733,2024-09-07T08:05:42.733Z,202998,-0.15258789,-0.9193115,-0.024291992
1725696342779,2024-09-07T08:05:42.779Z,203044,-0.12359619,-0.97058105,-0.014038086
1725696342826,2024-09-07T08:05:42.826Z,203091,-0.16009521,-1.017273,8.544922E-4
1725696342870,2024-09-07T08:05:42.870Z,203135,-0.1671753,-1.0326538,-6.1035156E-5
1725696342916,2024-09-07T08:05:42.916Z,203181,-0.17352295,-1.0362549,1.8310547E-4
1725696343012,2024-09-07T08:05:43.012Z,203277,-0.16278076,-1.0100708,-0.0041503906
1725696343045,2024-09-07T08:05:43.045Z,203310,-0.16949463,-0.96307373,-0.024108887
1725696343073,2024-09-07T08:05:43.073Z,203338,-0.15472412,-0.9528198,0.0048828125
1725696343094,2024-09-07T08:05:43.094Z,203359,-0.15472412,-0.9307251,-0.03527832
1725696343108,2024-09-07T08:05:43.108Z,203373,-0.17840576,-0.9411011,-0.027648926
1725696343137,2024-09-07T08:05:43.137Z,203402,-0.1786499,-0.9807739,-0.025634766
1725696343183,2024-09-07T08:05:43.183Z,203448,-0.19067383,-1.0073853,-0.039123535
1725696343232,2024-09-07T08:05:43.232Z,203497,-0.18963623,-0.99017334,-0.008544922
1725696343276,2024-09-07T08:05:43.276Z,203541,-0.18670654,-0.9373779,-0.02734375
1725696343320,2024-09-07T08:05:43.320Z,203585,-0.17736816,-0.93304443,-0.05267334
1725696343366,2024-09-07T08:05:43.366Z,203631,-0.20501709,-0.94506836,-0.024780273
1725696343431,2024-09-07T08:05:43.431Z,203696,-0.14447021,-0.947876,-0.06933594
1725696343454,2024-09-07T08:05:43.454Z,203719,-0.1942749,-0.9473877,-0.032165527
1725696343474,2024-09-07T08:05:43.474Z,203739,-0.2288208,-0.9239502,-0.039611816
1725696343497,2024-09-07T08:05:43.497Z,203762,-0.20214844,-0.9293213,-0.08703613
1725696343546,2024-09-07T08:05:43.546Z,203811,-0.25390625,-0.94091797,-0.06994629
1725696343589,2024-09-07T08:05:43.589Z,203854,-0.2467041,-0.930603,-0.06347656
1725696343635,2024-09-07T08:05:43.635Z,203900,-0.2598877,-0.92840576,-0.09680176
1725696343682,2024-09-07T08:05:43.682Z,203947,-0.25543213,-0.9295654,-0.08673096
1725696343726,2024-09-07T08:05:43.726Z,203991,-0.25634766,-0.8654175,-0.10015869
1725696343774,2024-09-07T08:05:43.774Z,204039,-0.22998047,-0.8735962,-0.06085205
1725696343817,2024-09-07T08:05:43.817Z,204082,-0.2789917,-0.8895874,-0.08795166
1725696343846,2024-09-07T08:05:43.846Z,204111,-0.2647705,-0.9434204,-0.08679199
1725696343869,2024-09-07T08:05:43.869Z,204134,-0.3204956,-0.93182373,-0.09869385
1725696343901,2024-09-07T08:05:43.901Z,204166,-0.29937744,-0.9411621,-0.14135742
1725696343953,2024-09-07T08:05:43.953Z,204218,-0.31921387,-0.95562744,-0.15625
1725696343997,2024-09-07T08:05:43.997Z,204262,-0.3463745,-0.95422363,-0.13903809
1725696344086,2024-09-07T08:05:44.086Z,204351,-0.33099365,-0.91137695,-0.20153809
1725696344116,2024-09-07T08:05:44.116Z,204381,-0.31079102,-0.8713989,-0.16680908
1725696344137,2024-09-07T08:05:44.137Z,204402,-0.3161621,-0.8413696,-0.16168213
1725696344172,2024-09-07T08:05:44.172Z,204437,-0.3522339,-0.8417969,-0.11016846
1725696344223,2024-09-07T08:05:44.223Z,204488,-0.38269043,-0.8651123,-0.11621094
1725696344248,2024-09-07T08:05:44.248Z,204513,-0.38427734,-0.8953247,-0.12536621
1725696344267,2024-09-07T08:05:44.267Z,204532,-0.40551758,-0.9315796,-0.15356445
1725696344307,2024-09-07T08:05:44.307Z,204572,-0.3935547,-0.91534424,-0.08111572
1725696344356,2024-09-07T08:05:44.356Z,204621,-0.38970947,-0.87231445,-0.057495117
1725696344411,2024-09-07T08:05:44.411Z,204676,-0.3317871,-0.8453369,-0.09057617
1725696344444,2024-09-07T08:05:44.444Z,204709,-0.34661865,-0.8405762,-0.09527588
1725696344491,2024-09-07T08:05:44.491Z,204756,-0.39154053,-0.8831177,-0.1003418
1725696344535,2024-09-07T08:05:44.535Z,204800,-0.41912842,-0.9151001,-0.1293335
1725696344676,2024-09-07T08:05:44.676Z,204941,-0.44854736,-0.9472656,-0.12860107
1725696344705,2024-09-07T08:05:44.705Z,204970,-0.39398193,-0.8876343,-0.15222168
1725696344725,2024-09-07T08:05:44.725Z,204990,-0.36499023,-0.85284424,-0.15753174
1725696344743,2024-09-07T08:05:44.743Z,205008,-0.3394165,-0.84887695,-0.13122559
1725696344758,2024-09-07T08:05:44.758Z,205023,-0.36920166,-0.87841797,-0.08496094
1725696344774,2024-09-07T08:05:44.774Z,205039,-0.38085938,-0.86779785,-0.103271484
1725696344802,2024-09-07T08:05:44.802Z,205067,-0.38787842,-0.8788452,-0.16326904
1725696344846,2024-09-07T08:05:44.846Z,205111,-0.40875244,-0.90319824,-0.10687256
1725696344897,2024-09-07T08:05:44.897Z,205162,-0.45941162,-0.9067993,-0.09564209
1725696344940,2024-09-07T08:05:44.940Z,205205,-0.4210205,-0.8829956,-0.05444336
1725696344985,2024-09-07T08:05:44.985Z,205250,-0.385437,-0.8413696,-0.012023926
1725696345031,2024-09-07T08:05:45.031Z,205296,-0.36187744,-0.8269043,-0.03503418
1725696345120,2024-09-07T08:05:45.120Z,205385,-0.31988525,-0.89782715,0.0051879883
1725696345149,2024-09-07T08:05:45.149Z,205414,-0.33099365,-0.96307373,0.037963867
1725696345172,2024-09-07T08:05:45.172Z,205437,-0.3189087,-1.029541,0.014709473
1725696345191,2024-09-07T08:05:45.191Z,205456,-0.31188965,-1.0696411,0.043701172
1725696345209,2024-09-07T08:05:45.209Z,205474,-0.35168457,-1.1171875,0.07470703
1725696345253,2024-09-07T08:05:45.253Z,205518,-0.32861328,-1.1034546,0.120910645
1725696345350,2024-09-07T08:05:45.350Z,205615,-0.3170166,-1.0628052,0.12542725
1725696345376,2024-09-07T08:05:45.376Z,205641,-0.2816162,-1.0212402,0.1842041
1725696345438,2024-09-07T08:05:45.438Z,205703,-0.2849121,-1.0152588,0.20617676
1725696345461,2024-09-07T08:05:45.461Z,205726,-0.2701416,-0.9707031,0.22442627
1725696345481,2024-09-07T08:05:45.481Z,205746,-0.24707031,-0.930603,0.18908691
1725696345497,2024-09-07T08:05:45.497Z,205762,-0.23712158,-0.88830566,0.2211914
1725696345521,2024-09-07T08:05:45.521Z,205786,-0.2770996,-0.8859863,0.20581055
1725696345573,2024-09-07T08:05:45.573Z,205838,-0.2662964,-0.8886719,0.1665039
1725696345617,2024-09-07T08:05:45.617Z,205882,-0.24945068,-0.9883423,0.16864014
1725696345657,2024-09-07T08:05:45.657Z,205922,-0.31921387,-1.1014404,0.32452393
1725696345702,2024-09-07T08:05:45.702Z,205967,-0.27209473,-1.1245117,0.2849121
1725696345747,2024-09-07T08:05:45.747Z,206012,-0.19952393,-1.0167847,0.25604248
1725696426939,2024-09-07T08:07:06.939Z,287204,-0.10021973,-0.9238281,0.13226318
1725696426966,2024-09-07T08:07:06.966Z,287231,-0.12530518,-0.95599365,0.14764404
1725696426987,2024-09-07T08:07:06.987Z,287252,-0.11853027,-0.96533203,0.15734863
1725696427016,2024-09-07T08:07:07.016Z,287281,-0.1003418,-0.9663086,0.16741943
1725696427061,2024-09-07T08:07:07.061Z,287326,-0.114746094,-0.9800415,0.19732666
1725696427106,2024-09-07T08:07:07.106Z,287371,-0.16223145,-1.0391846,0.23083496
1725696427151,2024-09-07T08:07:07.151Z,287416,-0.20446777,-1.1295776,0.23840332
1725696427203,2024-09-07T08:07:07.203Z,287468,-0.2911377,-1.2037354,0.2611084
1725696427252,2024-09-07T08:07:07.252Z,287517,-0.31280518,-1.2138062,0.286438
1725696427289,2024-09-07T08:07:07.289Z,287554,-0.3147583,-1.1555176,0.28027344
1725696427331,2024-09-07T08:07:07.331Z,287596,-0.2998047,-1.0835571,0.25061035
1725696427379,2024-09-07T08:07:07.379Z,287644,-0.30029297,-1.0374146,0.21972656
1725696427422,2024-09-07T08:07:07.422Z,287687,-0.30603027,-1.0430298,0.16558838
1725696427447,2024-09-07T08:07:07.447Z,287712,-0.33514404,-1.0549316,0.1685791
1725696427467,2024-09-07T08:07:07.467Z,287732,-0.3347168,-1.0116577,0.18682861
1725696427515,2024-09-07T08:07:07.515Z,287780,-0.28173828,-0.9401245,0.12158203
1725696427557,2024-09-07T08:07:07.557Z,287822,-0.2952881,-0.90167236,0.105773926
1725696427607,2024-09-07T08:07:07.607Z,287872,-0.31036377,-0.8892212,0.14141846
1725696427649,2024-09-07T08:07:07.649Z,287914,-0.33618164,-0.8378906,0.21685791
1725696427691,2024-09-07T08:07:07.691Z,287956,-0.32659912,-0.85113525,0.13189697
1725696427787,2024-09-07T08:07:07.787Z,288052,-0.35058594,-0.8579712,0.26031494
1725696427853,2024-09-07T08:07:07.853Z,288118,-0.35620117,-0.902771,0.22021484
1725696427878,2024-09-07T08:07:07.878Z,288143,-0.35333252,-0.8948364,0.11956787
1725696427897,2024-09-07T08:07:07.897Z,288162,-0.3552246,-0.87127686,0.09057617
1725696427913,2024-09-07T08:07:07.913Z,288178,-0.34674072,-0.90618896,0.042541504
1725696427928,2024-09-07T08:07:07.928Z,288193,-0.28033447,-0.9230957,0.03656006
1725696428011,2024-09-07T08:07:08.011Z,288276,-0.2774048,-0.9597168,-0.030456543
1725696428026,2024-09-07T08:07:08.026Z,288291,-0.23425293,-0.89727783,-0.07067871
1725696428052,2024-09-07T08:07:08.052Z,288317,-0.20245361,-0.8994751,-0.06011963
1725696428098,2024-09-07T08:07:08.098Z,288363,-0.22167969,-0.88256836,-0.05645752
1725696428143,2024-09-07T08:07:08.143Z,288408,-0.16973877,-0.87298584,-0.0947876
1725696428188,2024-09-07T08:07:08.188Z,288453,-0.17254639,-0.8596802,-0.0635376
1725696428214,2024-09-07T08:07:08.214Z,288479,-0.11975098,-0.84814453,-0.07495117
1725696428235,2024-09-07T08:07:08.235Z,288500,-0.107910156,-0.8195801,-0.07299805
1725696428279,2024-09-07T08:07:08.279Z,288544,-0.16375732,-0.7894287,-0.044433594
1725696428371,2024-09-07T08:07:08.371Z,288636,-0.12591553,-0.767334,-0.076049805
1725696428392,2024-09-07T08:07:08.392Z,288657,-0.15325928,-0.8451538,-0.05218506
1725696428413,2024-09-07T08:07:08.413Z,288678,-0.22052002,-0.8969116,0.005065918
1725696428458,2024-09-07T08:07:08.458Z,288723,-0.21264648,-0.9191284,-0.032226562
1725696428524,2024-09-07T08:07:08.524Z,288789,-0.24987793,-0.9628296,0.030090332
1725696428551,2024-09-07T08:07:08.551Z,288816,-0.32635498,-0.9291382,0.10900879
1725696428596,2024-09-07T08:07:08.596Z,288861,-0.3147583,-0.9140625,0.041503906
1725696428637,2024-09-07T08:07:08.637Z,288902,-0.2980957,-1.0183716,0.0501709
1725696428658,2024-09-07T08:07:08.658Z,288923,-0.3491211,-1.0125732,0.031188965
1725696428682,2024-09-07T08:07:08.682Z,288947,-0.2633667,-0.98931885,-0.0020141602
1725696428727,2024-09-07T08:07:08.727Z,288992,-0.23181152,-0.90740967,-0.018066406
1725696428773,2024-09-07T08:07:08.773Z,289038,-0.2321167,-0.85809326,-0.055236816
1725696428822,2024-09-07T08:07:08.822Z,289087,-0.20135498,-0.8756714,-0.06817627
1725696428863,2024-09-07T08:07:08.863Z,289128,-0.2477417,-0.98168945,-0.0725708
1725696428908,2024-09-07T08:07:08.908Z,289173,-0.25360107,-1.0202026,-0.045959473
1725696429000,2024-09-07T08:07:09Z,289265,-0.2520752,-0.96313477,-0.053955078
1725696429036,2024-09-07T08:07:09.036Z,289301,-0.21429443,-0.88049316,-0.073913574
1725696429063,2024-09-07T08:07:09.063Z,289328,-0.20855713,-0.88201904,-0.06951904
1725696429082,2024-09-07T08:07:09.082Z,289347,-0.22088623,-0.9024048,-0.09075928
1725696429178,2024-09-07T08:07:09.178Z,289443,-0.23687744,-0.913208,-0.12298584
1725696429195,2024-09-07T08:07:09.195Z,289460,-0.24731445,-0.9296875,-0.10626221
1725696429208,2024-09-07T08:07:09.208Z,289473,-0.28759766,-0.93792725,-0.12261963
1725696429222,2024-09-07T08:07:09.222Z,289487,-0.29919434,-0.96118164,-0.079711914
1725696429267,2024-09-07T08:07:09.267Z,289532,-0.27850342,-0.9208374,-0.107421875
1725696429312,2024-09-07T08:07:09.312Z,289577,-0.2543335,-0.8892212,-0.14471436
1725696429359,2024-09-07T08:07:09.359Z,289624,-0.24932861,-0.8599243,-0.12731934
1725696429406,2024-09-07T08:07:09.406Z,289671,-0.22131348,-0.9175415,-0.15362549
1725696429448,2024-09-07T08:07:09.448Z,289713,-0.28631592,-0.9232788,-0.13342285
1725696429469,2024-09-07T08:07:09.469Z,289734,-0.28826904,-0.9371338,-0.17608643
1725696429493,2024-09-07T08:07:09.493Z,289758,-0.33789062,-0.93048096,-0.16363525
1725696429537,2024-09-07T08:07:09.537Z,289802,-0.35583496,-0.9282837,-0.15283203
1725696429584,2024-09-07T08:07:09.584Z,289849,-0.3475952,-0.93896484,-0.14263916
1725696429627,2024-09-07T08:07:09.627Z,289892,-0.34783936,-0.8942261,-0.12988281
1725696429675,2024-09-07T08:07:09.675Z,289940,-0.3416748,-0.8626709,-0.12438965
1725696429719,2024-09-07T08:07:09.719Z,289984,-0.32434082,-0.8553467,-0.14343262
1725696429767,2024-09-07T08:07:09.767Z,290032,-0.3616333,-0.88012695,-0.13165283
1725696429806,2024-09-07T08:07:09.806Z,290071,-0.39709473,-0.9312744,-0.17211914
1725696429857,2024-09-07T08:07:09.857Z,290122,-0.40740967,-0.96551514,-0.15045166
1725696429898,2024-09-07T08:07:09.898Z,290163,-0.3684082,-0.9229126,-0.18328857
1725696429923,2024-09-07T08:07:09.923Z,290188,-0.31500244,-0.87615967,-0.16394043
1725696429991,2024-09-07T08:07:09.991Z,290256,-0.34106445,-0.857666,-0.16363525
1725696430012,2024-09-07T08:07:10.012Z,290277,-0.3232422,-0.8434448,-0.11755371
1725696430035,2024-09-07T08:07:10.035Z,290300,-0.3867798,-0.8753052,-0.119018555
1725696430081,2024-09-07T08:07:10.081Z,290346,-0.46258545,-0.86846924,-0.11602783
1725696430122,2024-09-07T08:07:10.122Z,290387,-0.4234619,-0.9099121,-0.1932373
1725696430172,2024-09-07T08:07:10.172Z,290437,-0.44519043,-0.8796387,-0.09631348
1725696430214,2024-09-07T08:07:10.214Z,290479,-0.40429688,-0.8885498,-0.15264893
1725696430258,2024-09-07T08:07:10.258Z,290523,-0.37280273,-0.881897,-0.119262695
1725696430303,2024-09-07T08:07:10.303Z,290568,-0.4111328,-0.90826416,-0.1463623
1725696430328,2024-09-07T08:07:10.328Z,290593,-0.4124756,-0.89923096,-0.091674805
1725696430395,2024-09-07T08:07:10.395Z,290660,-0.4574585,-0.8946533,-0.13049316
1725696430413,2024-09-07T08:07:10.413Z,290678,-0.47485352,-0.8842163,-0.07507324
1725696430437,2024-09-07T08:07:10.437Z,290702,-0.48016357,-0.8739624,-0.07232666
1725696430481,2024-09-07T08:07:10.481Z,290746,-0.44641113,-0.8635254,-0.01776123
1725696430534,2024-09-07T08:07:10.534Z,290799,-0.45361328,-0.8776245,-0.0026855469
1725696430573,2024-09-07T08:07:10.573Z,290838,-0.43811035,-0.9202881,-0.037841797
1725696430619,2024-09-07T08:07:10.619Z,290884,-0.46276855,-0.94610596,-0.0579834
1725696430666,2024-09-07T08:07:10.666Z,290931,-0.4508667,-0.96850586,-0.0048217773
1725696430711,2024-09-07T08:07:10.711Z,290976,-0.4534912,-0.9699707,0.022521973
1725696430736,2024-09-07T08:07:10.736Z,291001,-0.40185547,-0.9708252,-0.008422852
1725696430757,2024-09-07T08:07:10.757Z,291022,-0.3461914,-0.9574585,-0.035583496
1725696430797,2024-09-07T08:07:10.797Z,291062,-0.30810547,-0.99224854,-0.012329102
1725696430853,2024-09-07T08:07:10.853Z,291118,-0.34100342,-1.0065918,0.024841309
1725696430890,2024-09-07T08:07:10.890Z,291155,-0.32092285,-0.9729004,0.038635254
1725696430947,2024-09-07T08:07:10.947Z,291212,-0.30303955,-0.9584961,0.047058105
1725696431029,2024-09-07T08:07:11.029Z,291294,-0.31567383,-0.9387207,0.057922363
1725696431063,2024-09-07T08:07:11.063Z,291328,-0.29833984,-0.9163208,0.06451416
1725696431088,2024-09-07T08:07:11.088Z,291353,-0.29022217,-0.9345703,0.08227539
1725696431113,2024-09-07T08:07:11.113Z,291378,-0.27386475,-0.92492676,0.16314697
1725696431206,2024-09-07T08:07:11.206Z,291471,-0.26916504,-0.9259033,0.19989014
1725696431225,2024-09-07T08:07:11.225Z,291490,-0.2526245,-0.9359131,0.16259766
1725696431252,2024-09-07T08:07:11.252Z,291517,-0.26123047,-0.96118164,0.14550781
1725696431271,2024-09-07T08:07:11.271Z,291536,-0.23583984,-0.9831543,0.15625
1725696431293,2024-09-07T08:07:11.293Z,291558,-0.253479,-1.0178833,0.17352295
1725696431338,2024-09-07T08:07:11.338Z,291603,-0.2390747,-1.0335083,0.1161499
1725696431382,2024-09-07T08:07:11.382Z,291647,-0.23504639,-1.0540771,0.11517334
1725696431433,2024-09-07T08:07:11.433Z,291698,-0.22839355,-1.0481567,0.10424805
1725696431474,2024-09-07T08:07:11.474Z,291739,-0.20147705,-1.0189819,0.101135254
1725696431518,2024-09-07T08:07:11.518Z,291783,-0.19134521,-1.0030518,0.11694336
1725696431561,2024-09-07T08:07:11.561Z,291826,-0.18890381,-0.9968872,0.120788574
1725696431680,2024-09-07T08:07:11.680Z,291945,-0.17700195,-0.9909668,0.107177734
1725696431708,2024-09-07T08:07:11.708Z,291973,-0.18182373,-0.9819946,0.08013916
1725696431731,2024-09-07T08:07:11.731Z,291996,-0.18371582,-0.9944458,0.08380127
1725696431750,2024-09-07T08:07:11.750Z,292015,-0.19873047,-0.98828125,0.10455322
1725696431766,2024-09-07T08:07:11.766Z,292031,-0.18182373,-0.9633179,0.08496094
1725696431786,2024-09-07T08:07:11.786Z,292051,-0.18292236,-0.93115234,0.0690918
1725696431832,2024-09-07T08:07:11.832Z,292097,-0.18383789,-0.9188843,0.076293945
1725696431881,2024-09-07T08:07:11.881Z,292146,-0.19372559,-0.9260254,0.07208252
1725696431927,2024-09-07T08:07:11.927Z,292192,-0.20220947,-0.9369507,0.08239746
1725696431972,2024-09-07T08:07:11.972Z,292237,-0.19769287,-0.96746826,0.040100098
1725696432001,2024-09-07T08:07:12.001Z,292266,-0.20629883,-1.0004883,0.07183838
1725696432023,2024-09-07T08:07:12.023Z,292288,-0.22088623,-1.0192261,0.09375
1725696432060,2024-09-07T08:07:12.060Z,292325,-0.21582031,-1.0250854,0.08459473
1725696432105,2024-09-07T08:07:12.105Z,292370,-0.23834229,-1.0790405,0.10070801
1725696432146,2024-09-07T08:07:12.146Z,292411,-0.29040527,-1.1681519,0.12475586
1725696432197,2024-09-07T08:07:12.197Z,292462,-0.2956543,-1.1960449,0.11828613
1725696432240,2024-09-07T08:07:12.240Z,292505,-0.29071045,-1.1524658,0.13183594
1725696432282,2024-09-07T08:07:12.282Z,292547,-0.2911377,-1.1099854,0.13580322
1725696432375,2024-09-07T08:07:12.375Z,292640,-0.3125,-1.0802612,0.14654541
1725696432409,2024-09-07T08:07:12.409Z,292674,-0.33343506,-1.0299072,0.13439941
1725696432434,2024-09-07T08:07:12.434Z,292699,-0.35339355,-1.0198975,0.1517334
1725696432456,2024-09-07T08:07:12.456Z,292721,-0.36779785,-0.98114014,0.13635254
1725696432473,2024-09-07T08:07:12.473Z,292738,-0.3786621,-0.9349365,0.0769043
1725696432507,2024-09-07T08:07:12.507Z,292772,-0.3909912,-0.9227295,0.027770996
1725696432649,2024-09-07T08:07:12.649Z,292914,-0.42260742,-0.9622803,0.042541504
1725696432684,2024-09-07T08:07:12.684Z,292949,-0.46624756,-0.93847656,0.06756592
1725696432709,2024-09-07T08:07:12.709Z,292974,-0.4229126,-0.901001,-0.050354004
1725696432732,2024-09-07T08:07:12.732Z,292997,-0.42370605,-0.8779907,0.015197754
1725696432749,2024-09-07T08:07:12.749Z,293014,-0.46801758,-0.8756714,-0.037719727
1725696432776,2024-09-07T08:07:12.776Z,293041,-0.41864014,-0.84729004,-0.07952881
1725696432822,2024-09-07T08:07:12.822Z,293087,-0.43658447,-0.8631592,-0.090026855
1725696432844,2024-09-07T08:07:12.844Z,293109,-0.4473877,-0.89886475,-0.06097412
1725696432874,2024-09-07T08:07:12.874Z,293139,-0.44958496,-0.8792114,-0.05041504
1725696432960,2024-09-07T08:07:12.960Z,293225,-0.4232788,-0.8617554,-0.04840088
1725696432979,2024-09-07T08:07:12.979Z,293244,-0.41314697,-0.8327637,-0.06298828
1725696433003,2024-09-07T08:07:13.003Z,293268,-0.35546875,-0.82025146,-0.094177246
1725696433049,2024-09-07T08:07:13.049Z,293314,-0.3092041,-0.8344116,-0.07684326
1725696433098,2024-09-07T08:07:13.098Z,293363,-0.2836914,-0.84698486,-0.03137207
1725696433140,2024-09-07T08:07:13.140Z,293405,-0.23980713,-0.8290405,-0.03967285
1725696433185,2024-09-07T08:07:13.185Z,293450,-0.22052002,-0.8456421,-0.09222412
1725696433227,2024-09-07T08:07:13.227Z,293492,-0.21234131,-0.8673096,0.022644043
1725696433247,2024-09-07T08:07:13.247Z,293512,-0.19866943,-0.88635254,-0.012878418
1725696433271,2024-09-07T08:07:13.271Z,293536,-0.12097168,-0.8691406,-0.04046631
1725696433317,2024-09-07T08:07:13.317Z,293582,-0.19946289,-0.86712646,-0.041259766
1725696433365,2024-09-07T08:07:13.365Z,293630,-0.16467285,-0.8441162,0.0073242188
1725696433408,2024-09-07T08:07:13.408Z,293673,-0.1843872,-0.8739624,-0.05987549
1725696433455,2024-09-07T08:07:13.455Z,293720,-0.2230835,-0.90997314,0.002380371
1725696433496,2024-09-07T08:07:13.496Z,293761,-0.24005127,-0.89941406,0.020690918
1725696433549,2024-09-07T08:07:13.549Z,293814,-0.23754883,-0.8689575,-0.04534912
1725696433587,2024-09-07T08:07:13.587Z,293852,-0.28894043,-0.9239502,-0.0036621094
1725696433633,2024-09-07T08:07:13.633Z,293898,-0.2701416,-0.9699707,0.008300781
1725696433683,2024-09-07T08:07:13.683Z,293948,-0.2545166,-0.9849243,0.008544922
1725696433709,2024-09-07T08:07:13.709Z,293974,-0.27075195,-0.9384155,0.011779785
1725696433733,2024-09-07T08:07:13.733Z,293998,-0.22497559,-0.9468384,-0.010559082
1725696433766,2024-09-07T08:07:13.766Z,294031,-0.21173096,-0.9560547,0.0037231445
1725696433813,2024-09-07T08:07:13.813Z,294078,-0.22320557,-0.96728516,0.006286621
1725696433859,2024-09-07T08:07:13.859Z,294124,-0.21661377,-0.92755127,-0.013916016
1725696433907,2024-09-07T08:07:13.907Z,294172,-0.23278809,-0.8692627,-0.016052246
1725696433946,2024-09-07T08:07:13.946Z,294211,-0.24554443,-0.84814453,-0.046569824
1725696433993,2024-09-07T08:07:13.993Z,294258,-0.25476074,-0.9190674,-0.028625488
1725696434039,2024-09-07T08:07:14.039Z,294304,-0.2814331,-0.91729736,-0.057128906
1725696434087,2024-09-07T08:07:14.087Z,294352,-0.24829102,-0.913147,-0.048339844
1725696434116,2024-09-07T08:07:14.116Z,294381,-0.28204346,-0.9089966,-0.049926758
1725696434140,2024-09-07T08:07:14.140Z,294405,-0.23284912,-0.9205322,-0.029846191
1725696434172,2024-09-07T08:07:14.172Z,294437,-0.26135254,-0.9191284,-0.034118652
1725696434220,2024-09-07T08:07:14.220Z,294485,-0.2446289,-0.8894043,-0.02319336
1725696434263,2024-09-07T08:07:14.263Z,294528,-0.27972412,-0.88690186,-0.033325195
1725696434308,2024-09-07T08:07:14.308Z,294573,-0.2705078,-0.8670654,-0.05657959
1725696434404,2024-09-07T08:07:14.404Z,294669,-0.2932129,-0.9175415,-0.0635376
1725696434439,2024-09-07T08:07:14.439Z,294704,-0.33813477,-0.93414307,-0.04119873
1725696434465,2024-09-07T08:07:14.465Z,294730,-0.3125,-0.9616699,-0.107788086
1725696434490,2024-09-07T08:07:14.490Z,294755,-0.33862305,-0.93481445,-0.03338623
1725696434506,2024-09-07T08:07:14.506Z,294771,-0.32940674,-0.90405273,-0.06817627
1725696434532,2024-09-07T08:07:14.532Z,294797,-0.32720947,-0.8776245,-0.03137207
1725696434577,2024-09-07T08:07:14.577Z,294842,-0.31829834,-0.8567505,-0.117126465
1725696434623,2024-09-07T08:07:14.623Z,294888,-0.3623047,-0.90319824,-0.0154418945
1725696434716,2024-09-07T08:07:14.716Z,294981,-0.41235352,-0.8895874,-0.074401855
1725696434781,2024-09-07T08:07:14.781Z,295046,-0.4136963,-0.89990234,-0.10406494
1725696434823,2024-09-07T08:07:14.823Z,295088,-0.4121704,-0.9034424,-0.11645508
1725696434855,2024-09-07T08:07:14.855Z,295120,-0.39575195,-0.90460205,-0.062194824
1725696434879,2024-09-07T08:07:14.879Z,295144,-0.37213135,-0.87475586,-0.14263916
1725696434902,2024-09-07T08:07:14.902Z,295167,-0.38110352,-0.9135132,-0.1427002
1725696434937,2024-09-07T08:07:14.937Z,295202,-0.39886475,-0.9265747,-0.11773682
1725696434952,2024-09-07T08:07:14.952Z,295217,-0.45147705,-0.95739746,-0.16516113
1725696434987,2024-09-07T08:07:14.987Z,295252,-0.4274292,-0.9449463,-0.17126465
1725696435032,2024-09-07T08:07:15.032Z,295297,-0.4239502,-0.8890381,-0.18292236
1725696435073,2024-09-07T08:07:15.073Z,295338,-0.37158203,-0.84381104,-0.17675781
1725696435119,2024-09-07T08:07:15.119Z,295384,-0.37200928,-0.8331299,-0.1585083
1725696435164,2024-09-07T08:07:15.164Z,295429,-0.3864746,-0.87145996,-0.12506104
1725696435256,2024-09-07T08:07:15.256Z,295521,-0.42016602,-0.90838623,-0.10638428
1725696435279,2024-09-07T08:07:15.279Z,295544,-0.40093994,-0.8954468,-0.12579346
1725696435305,2024-09-07T08:07:15.305Z,295570,-0.38171387,-0.89733887,-0.092163086
1725696435391,2024-09-07T08:07:15.391Z,295656,-0.38085938,-0.901062,-0.031066895
1725696435413,2024-09-07T08:07:15.413Z,295678,-0.35473633,-0.9333496,1.2207031E-4
1725696435434,2024-09-07T08:07:15.434Z,295699,-0.33770752,-0.95391846,-0.034240723
1725696435451,2024-09-07T08:07:15.451Z,295716,-0.30700684,-0.96191406,-0.0041503906
1725696435477,2024-09-07T08:07:15.477Z,295742,-0.35614014,-1.0108643,0.0095825195
1725696435521,2024-09-07T08:07:15.521Z,295786,-0.34765625,-1.0320435,0.043640137
1725696435569,2024-09-07T08:07:15.569Z,295834,-0.3770752,-1.086792,0.080322266
1725696435618,2024-09-07T08:07:15.618Z,295883,-0.36108398,-1.0620728,0.11401367
1725696435658,2024-09-07T08:07:15.658Z,295923,-0.29919434,-1.0291138,0.07849121
1725696435703,2024-09-07T08:07:15.703Z,295968,-0.3026123,-1.0163574,0.13305664
1725696435748,2024-09-07T08:07:15.748Z,296013,-0.24475098,-0.98358154,0.14990234
1725696435774,2024-09-07T08:07:15.774Z,296039,-0.2076416,-0.9515991,0.108947754
1725696435795,2024-09-07T08:07:15.795Z,296060,-0.19433594,-0.947937,0.14807129
1725696435836,2024-09-07T08:07:15.836Z,296101,-0.18737793,-0.99298096,0.15258789
1725696435931,2024-09-07T08:07:15.931Z,296196,-0.1875,-1.0285034,0.11633301
1725696435977,2024-09-07T08:07:15.977Z,296242,-0.1564331,-1.0101929,0.15863037
1725696436007,2024-09-07T08:07:16.007Z,296272,-0.21502686,-1.0126953,0.1605835
1725696436062,2024-09-07T08:07:16.062Z,296327,-0.19946289,-0.9940796,0.14807129
1725696436087,2024-09-07T08:07:16.087Z,296352,-0.21984863,-0.9852295,0.093933105
1725696436109,2024-09-07T08:07:16.109Z,296374,-0.24304199,-0.95355225,0.13787842
1725696436164,2024-09-07T08:07:16.164Z,296429,-0.25238037,-0.96136475,0.11053467
1725696436198,2024-09-07T08:07:16.198Z,296463,-0.26037598,-0.947876,0.12756348
1725696436218,2024-09-07T08:07:16.218Z,296483,-0.25079346,-0.95062256,0.09643555
1725696436242,2024-09-07T08:07:16.242Z,296507,-0.23669434,-0.9454956,0.11480713
1725696436292,2024-09-07T08:07:16.292Z,296557,-0.24084473,-0.9585571,0.10595703
1725696436342,2024-09-07T08:07:16.342Z,296607,-0.21832275,-0.96417236,0.1260376
1725696436379,2024-09-07T08:07:16.379Z,296644,-0.21716309,-0.97735596,0.104003906
1725696436423,2024-09-07T08:07:16.423Z,296688,-0.21594238,-0.9862671,0.11767578
1725696436470,2024-09-07T08:07:16.470Z,296735,-0.19714355,-0.98046875,0.140625
1725696436514,2024-09-07T08:07:16.514Z,296779,-0.21350098,-0.9793701,0.12872314
1725696436609,2024-09-07T08:07:16.609Z,296874,-0.19805908,-0.9685669,0.13775635
1725696436645,2024-09-07T08:07:16.645Z,296910,-0.20239258,-0.9621582,0.11755371
1725696436669,2024-09-07T08:07:16.669Z,296934,-0.19970703,-0.9719238,0.12866211
1725696436690,2024-09-07T08:07:16.690Z,296955,-0.2354126,-1.0187378,0.13775635
1725696436706,2024-09-07T08:07:16.706Z,296971,-0.25549316,-1.0944214,0.14813232
1725696436736,2024-09-07T08:07:16.736Z,297001,-0.28631592,-1.1309814,0.13317871
1725696436782,2024-09-07T08:07:16.782Z,297047,-0.2937622,-1.1375732,0.14385986
1725696436827,2024-09-07T08:07:16.827Z,297092,-0.31732178,-1.1242676,0.16339111
1725696436877,2024-09-07T08:07:16.877Z,297142,-0.32122803,-1.1148682,0.12225342
1725696436918,2024-09-07T08:07:16.918Z,297183,-0.30877686,-1.0637817,0.12567139
1725696436965,2024-09-07T08:07:16.965Z,297230,-0.33428955,-1.029419,0.11376953
1725696437014,2024-09-07T08:07:17.014Z,297279,-0.34179688,-1.0181885,0.13348389
1725696437029,2024-09-07T08:07:17.029Z,297294,-0.38360596,-1.0118408,0.11315918
1725696437052,2024-09-07T08:07:17.052Z,297317,-0.36169434,-0.9649658,0.10809326
1725696437098,2024-09-07T08:07:17.098Z,297363,-0.4189453,-0.95184326,0.11102295
1725696437143,2024-09-07T08:07:17.143Z,297408,-0.42510986,-0.9286499,0.13977051
1725696437193,2024-09-07T08:07:17.193Z,297458,-0.44049072,-0.90893555,0.066589355
1725696437233,2024-09-07T08:07:17.233Z,297498,-0.42694092,-0.8690796,0.023620605
1725696437328,2024-09-07T08:07:17.328Z,297593,-0.43945312,-0.8607788,0.061950684
1725696437369,2024-09-07T08:07:17.369Z,297634,-0.4605713,-0.82922363,0.035217285
1725696437393,2024-09-07T08:07:17.393Z,297658,-0.43133545,-0.82073975,-0.013122559
1725696437420,2024-09-07T08:07:17.420Z,297685,-0.44476318,-0.83221436,-0.11151123
1725696437459,2024-09-07T08:07:17.459Z,297724,-0.4533081,-0.89282227,-0.040039062
1725696437477,2024-09-07T08:07:17.477Z,297742,-0.461792,-0.93395996,-0.05645752
1725696437501,2024-09-07T08:07:17.501Z,297766,-0.42016602,-0.9025879,-0.08831787
1725696437547,2024-09-07T08:07:17.547Z,297812,-0.3937378,-0.87213135,-0.07116699
1725696437596,2024-09-07T08:07:17.596Z,297861,-0.3737793,-0.85491943,-0.0881958
1725696437639,2024-09-07T08:07:17.639Z,297904,-0.38867188,-0.8609619,-0.060058594
1725696437683,2024-09-07T08:07:17.683Z,297948,-0.35186768,-0.87316895,-0.06518555
1725696437734,2024-09-07T08:07:17.734Z,297999,-0.35986328,-0.9139404,-0.05456543
1725696437773,2024-09-07T08:07:17.773Z,298038,-0.3334961,-0.9053955,-0.048950195
1725696437820,2024-09-07T08:07:17.820Z,298085,-0.29229736,-0.8835449,-0.044311523
1725696437862,2024-09-07T08:07:17.862Z,298127,-0.25512695,-0.8668213,-0.038879395
1725696437889,2024-09-07T08:07:17.889Z,298154,-0.17132568,-0.8496094,-0.044799805
1725696437955,2024-09-07T08:07:17.955Z,298220,-0.16540527,-0.86035156,-0.0095825195
1725696437980,2024-09-07T08:07:17.980Z,298245,-0.13635254,-0.8231201,-0.0015258789
1725696438048,2024-09-07T08:07:18.048Z,298313,-0.14709473,-0.7994385,-0.03778076
1725696438081,2024-09-07T08:07:18.081Z,298346,-0.14459229,-0.7785034,-0.06878662
1725696438108,2024-09-07T08:07:18.108Z,298373,-0.1482544,-0.8278198,-0.040161133
