Timestamp (ms),ISO DateTime,Elapsed Time (ms),Acceleration X,Acceleration Y,Acceleration Z
1725696320418,2024-09-07T08:05:20.418Z,180683,-0.1159668,-1.0354004,0.13983154
1725696320464,2024-09-07T08:05:20.464Z,180729,-0.12792969,-1.0524902,0.13653564
1725696320513,2024-09-07T08:05:20.513Z,180778,-0.1459961,-1.0761719,0.13970947
1725696320549,2024-09-07T08:05:20.549Z,180814,-0.17144775,-1.1080933,0.22473145
1725696320596,2024-09-07T08:05:20.596Z,180861,-0.2041626,-1.1489868,0.21606445
1725696320642,2024-09-07T08:05:20.642Z,180907,-0.21582031,-1.1390991,0.21429443
1725696320687,2024-09-07T08:05:20.687Z,180952,-0.21917725,-1.114685,0.199646
1725696320732,2024-09-07T08:05:20.732Z,180997,-0.22088623,-1.1078491,0.23052979
1725696320755,2024-09-07T08:05:20.755Z,181020,-0.24481201,-1.0935059,0.21051025
1725696320782,2024-09-07T08:05:20.782Z,181047,-0.24993896,-1.0587769,0.2253418
1725696320819,2024-09-07T08:05:20.819Z,181084,-0.28710938,-1.043457,0.17163086
1725696320867,2024-09-07T08:05:20.867Z,181132,-0.2880249,-1.0374146,0.18286133
1725696320919,2024-09-07T08:05:20.919Z,181184,-0.3312378,-1.0359497,0.15625
1725696320966,2024-09-07T08:05:20.966Z,181231,-0.3458252,-0.98773193,0.20019531
1725696321010,2024-09-07T08:05:21.010Z,181275,-0.3678589,-0.9614258,0.11828613
1725696321054,2024-09-07T08:05:21.054Z,181319,-0.37268066,-0.91589355,0.2133789
1725696321095,2024-09-07T08:05:21.095Z,181360,-0.3795166,-0.9196167,0.12945557
1725696321147,2024-09-07T08:05:21.147Z,181412,-0.3864746,-0.9127197,0.12567139
1725696321176,2024-09-07T08:05:21.176Z,181441,-0.43048096,-0.9406128,0.009338379
1725696321197,2024-09-07T08:05:21.197Z,181462,-0.37493896,-0.9088745,0.022583008
1725696321226,2024-09-07T08:05:21.226Z,181491,-0.3793335,-0.90838623,-0.076049805
1725696321274,2024-09-07T08:05:21.274Z,181539,-0.34344482,-0.8601074,-0.0025024414
1725696321325,2024-09-07T08:05:21.325Z,181590,-0.309021,-0.8501587,-0.051818848
1725696321371,2024-09-07T08:05:21.371Z,181636,-0.28723145,-0.78692627,-0.022949219
1725696321411,2024-09-07T08:05:21.411Z,181676,-0.20257568,-0.769104,-0.046875
1725696321455,2024-09-07T08:05:21.455Z,181720,-0.20019531,-0.72631836,0.008361816
1725696321506,2024-09-07T08:05:21.506Z,181771,-0.17816162,-0.75006104,0.0068359375
1725696321542,2024-09-07T08:05:21.542Z,181807,-0.17449951,-0.79608154,0.03289795
1725696321586,2024-09-07T08:05:21.586Z,181851,-0.15454102,-0.817688,0.060668945
1725696321604,2024-09-07T08:05:21.604Z,181869,-0.092285156,-0.8688965,0.10913086
1725696321629,2024-09-07T08:05:21.629Z,181894,-0.09362793,-0.8966675,0.1821289
1725696321679,2024-09-07T08:05:21.679Z,181944,-0.038024902,-0.8494873,0.07873535
1725696321728,2024-09-07T08:05:21.728Z,181993,-0.10015869,-0.8851929,0.10205078
1725696321773,2024-09-07T08:05:21.773Z,182038,-0.11566162,-0.95043945,0.08691406
1725696321818,2024-09-07T08:05:21.818Z,182083,-0.12786865,-0.99139404,0.06512451
1725696321859,2024-09-07T08:05:21.859Z,182124,-0.14038086,-0.9701538,0.0869751
1725696321904,2024-09-07T08:05:21.904Z,182169,-0.14050293,-0.9016113,0.005065918
1725696321957,2024-09-07T08:05:21.957Z,182222,-0.1005249,-0.86157227,0.050231934
1725696322001,2024-09-07T08:05:22.001Z,182266,-0.07531738,-0.91522217,0.032348633
1725696322035,2024-09-07T08:05:22.035Z,182300,-0.099853516,-0.9852905,0.043395996
1725696322059,2024-09-07T08:05:22.059Z,182324,-0.082458496,-1.0148926,0.03186035
1725696322094,2024-09-07T08:05:22.094Z,182359,-0.11376953,-1.0245972,0.043640137
1725696322127,2024-09-07T08:05:22.127Z,182392,-0.09631348,-0.9797363,0.039123535
1725696322175,2024-09-07T08:05:22.175Z,182440,-0.09710693,-0.987854,0.02130127
1725696322224,2024-09-07T08:05:22.224Z,182489,-0.1081543,-1.0085449,0.041870117
1725696322271,2024-09-07T08:05:22.271Z,182536,-0.10333252,-0.97125244,0.027526855
1725696322318,2024-09-07T08:05:22.318Z,182583,-0.1237793,-0.95373535,0.0020141602
1725696322371,2024-09-07T08:05:22.371Z,182636,-0.13946533,-0.947937,0.008544922
1725696322419,2024-09-07T08:05:22.419Z,182684,-0.14941406,-0.98638916,-0.030029297
1725696322450,2024-09-07T08:05:22.450Z,182715,-0.15722656,-0.97052,-0.022827148
1725696322470,2024-09-07T08:05:22.470Z,182735,-0.15039062,-0.90057373,-0.026306152
1725696322489,2024-09-07T08:05:22.489Z,182754,-0.14984131,-0.88897705,-0.04864502
1725696322532,2024-09-07T08:05:22.532Z,182797,-0.15985107,-0.87579346,-0.07635498
1725696322579,2024-09-07T08:05:22.579Z,182844,-0.16204834,-0.9046631,-0.09857178
1725696322628,2024-09-07T08:05:22.628Z,182893,-0.19915771,-0.88464355,-0.06890869
1725696322675,2024-09-07T08:05:22.675Z,182940,-0.17944336,-0.8979492,-0.10437012
1725696322738,2024-09-07T08:05:22.738Z,183003,-0.2208252,-0.89678955,-0.047302246
1725696322761,2024-09-07T08:05:22.761Z,183026,-0.21875,-0.87823486,-0.074645996
1725696322802,2024-09-07T08:05:22.802Z,183067,-0.23101807,-0.88726807,-0.03375244
1725696322857,2024-09-07T08:05:22.857Z,183122,-0.20074463,-0.85754395,-0.044067383
1725696322888,2024-09-07T08:05:22.888Z,183153,-0.22540283,-0.86486816,-0.08569336
1725696322907,2024-09-07T08:05:22.907Z,183172,-0.20513916,-0.89056396,-0.107543945
1725696322935,2024-09-07T08:05:22.935Z,183200,-0.26574707,-0.94696045,-0.117004395
1725696322984,2024-09-07T08:05:22.984Z,183249,-0.2819214,-0.99432373,-0.15490723
1725696323030,2024-09-07T08:05:23.030Z,183295,-0.3092041,-0.9334717,-0.15332031
1725696323093,2024-09-07T08:05:23.093Z,183358,-0.2770996,-0.90185547,-0.19146729
1725696323122,2024-09-07T08:05:23.122Z,183387,-0.31433105,-0.914917,-0.05480957
1725696323160,2024-09-07T08:05:23.160Z,183425,-0.31884766,-0.9365845,-0.15686035
1725696323212,2024-09-07T08:05:23.212Z,183477,-0.39038086,-0.95111084,-0.08544922
1725696323278,2024-09-07T08:05:23.278Z,183543,-0.39440918,-0.9421997,-0.2107544
1725696323301,2024-09-07T08:05:23.301Z,183566,-0.42456055,-0.97198486,-0.18927002
1725696323319,2024-09-07T08:05:23.319Z,183584,-0.46362305,-0.99328613,-0.21191406
1725696323391,2024-09-07T08:05:23.391Z,183656,-0.45593262,-0.9539795,-0.18988037
1725696323459,2024-09-07T08:05:23.459Z,183724,-0.4500122,-0.91741943,-0.23101807
1725696323485,2024-09-07T08:05:23.485Z,183750,-0.44665527,-0.8953247,-0.17932129
1725696323502,2024-09-07T08:05:23.502Z,183767,-0.45739746,-0.8505249,-0.16107178
1725696323521,2024-09-07T08:05:23.521Z,183786,-0.45147705,-0.83514404,-0.11340332
1725696323567,2024-09-07T08:05:23.567Z,183832,-0.48449707,-0.7984009,-0.16064453
1725696323616,2024-09-07T08:05:23.616Z,183881,-0.50219727,-0.814209,-0.15716553
1725696323658,2024-09-07T08:05:23.658Z,183923,-0.52124023,-0.78967285,-0.16027832
1725696323680,2024-09-07T08:05:23.680Z,183945,-0.546875,-0.78302,-0.16473389
1725696323701,2024-09-07T08:05:23.701Z,183966,-0.5414429,-0.8152466,-0.12200928
1725696323795,2024-09-07T08:05:23.795Z,184060,-0.5710449,-0.8425293,-0.11236572
1725696323810,2024-09-07T08:05:23.810Z,184075,-0.5227661,-0.8054199,-0.08105469
1725696323840,2024-09-07T08:05:23.840Z,184105,-0.49456787,-0.80236816,-0.122558594
1725696323881,2024-09-07T08:05:23.881Z,184146,-0.46673584,-0.82458496,-0.04876709
1725696323931,2024-09-07T08:05:23.931Z,184196,-0.4763794,-0.8765869,-0.046875
1725696323980,2024-09-07T08:05:23.980Z,184245,-0.46136475,-0.9086914,-0.027770996
1725696324024,2024-09-07T08:05:24.024Z,184289,-0.4934082,-0.9594116,-0.0044555664
1725696324070,2024-09-07T08:05:24.070Z,184335,-0.4658203,-0.9638672,0.011108398
1725696324116,2024-09-07T08:05:24.116Z,184381,-0.4359131,-0.95196533,-0.042907715
1725696324138,2024-09-07T08:05:24.138Z,184403,-0.35253906,-0.9674072,-0.033081055
1725696324155,2024-09-07T08:05:24.155Z,184420,-0.34796143,-1.0334473,0.046142578
1725696324199,2024-09-07T08:05:24.199Z,184464,-0.32598877,-1.0211792,0.047729492
1725696324243,2024-09-07T08:05:24.243Z,184508,-0.25146484,-0.96466064,-0.01550293
1725696324293,2024-09-07T08:05:24.293Z,184558,-0.2727661,-0.95269775,0.04107666
1725696324339,2024-09-07T08:05:24.339Z,184604,-0.2695923,-0.98187256,0.07287598
1725696324385,2024-09-07T08:05:24.385Z,184650,-0.32336426,-1.0014038,0.09851074
1725696324427,2024-09-07T08:05:24.427Z,184692,-0.29626465,-0.97003174,0.09588623
1725696324479,2024-09-07T08:05:24.479Z,184744,-0.31481934,-0.95355225,0.0869751
1725696324516,2024-09-07T08:05:24.516Z,184781,-0.2775879,-0.95721436,0.10461426
1725696324538,2024-09-07T08:05:24.538Z,184803,-0.26586914,-0.99212646,0.12432861
1725696324558,2024-09-07T08:05:24.558Z,184823,-0.26849365,-1.010498,0.1005249
1725696324602,2024-09-07T08:05:24.602Z,184867,-0.27087402,-1.0413818,0.087890625
1725696324649,2024-09-07T08:05:24.649Z,184914,-0.27941895,-1.0373535,0.11291504
1725696324702,2024-09-07T08:05:24.702Z,184967,-0.24908447,-1.0205688,0.09136963
1725696324735,2024-09-07T08:05:24.735Z,185000,-0.23828125,-0.9682617,0.09844971
1725696324791,2024-09-07T08:05:24.791Z,185056,-0.2156372,-0.9209595,0.08026123
1725696324832,2024-09-07T08:05:24.832Z,185097,-0.20788574,-0.9066162,0.09466553
1725696324880,2024-09-07T08:05:24.880Z,185145,-0.18908691,-0.92889404,0.09173584
1725696324918,2024-09-07T08:05:24.918Z,185183,-0.1965332,-0.9545288,0.114868164
1725696324939,2024-09-07T08:05:24.939Z,185204,-0.19055176,-0.99468994,0.10321045
1725696324963,2024-09-07T08:05:24.963Z,185228,-0.18145752,-0.99902344,0.15722656
1725696325005,2024-09-07T08:05:25.005Z,185270,-0.1828003,-1.0030518,0.14691162
1725696325056,2024-09-07T08:05:25.056Z,185321,-0.17523193,-0.9874878,0.1385498
1725696325102,2024-09-07T08:05:25.102Z,185367,-0.18426514,-0.9691162,0.14178467
1725696325154,2024-09-07T08:05:25.154Z,185419,-0.19036865,-0.9433594,0.1538086
1725696325186,2024-09-07T08:05:25.186Z,185451,-0.20275879,-0.9371338,0.1296997
1725696325235,2024-09-07T08:05:25.235Z,185500,-0.20135498,-0.94384766,0.13970947
1725696325284,2024-09-07T08:05:25.284Z,185549,-0.22436523,-0.9626465,0.13824463
1725696325331,2024-09-07T08:05:25.331Z,185596,-0.23638916,-0.9819336,0.16070557
1725696325366,2024-09-07T08:05:25.366Z,185631,-0.2276001,-1.0135498,0.16418457
1725696325384,2024-09-07T08:05:25.384Z,185649,-0.2602539,-1.0418091,0.17999268
1725696325410,2024-09-07T08:05:25.410Z,185675,-0.284729,-1.0758667,0.18127441
1725696325464,2024-09-07T08:05:25.464Z,185729,-0.30548096,-1.1135254,0.18200684
1725696325506,2024-09-07T08:05:25.506Z,185771,-0.33117676,-1.1350708,0.17626953
1725696325555,2024-09-07T08:05:25.555Z,185820,-0.33172607,-1.1240845,0.19903564
1725696325600,2024-09-07T08:05:25.600Z,185865,-0.33709717,-1.0858765,0.1862793
1725696325638,2024-09-07T08:05:25.638Z,185903,-0.32928467,-1.0614624,0.15856934
1725696325685,2024-09-07T08:05:25.685Z,185950,-0.35742188,-1.0697632,0.13635254
1725696325728,2024-09-07T08:05:25.728Z,185993,-0.38201904,-1.0526123,0.123168945
1725696325772,2024-09-07T08:05:25.772Z,186037,-0.4033203,-1.03125,0.087402344
1725696325798,2024-09-07T08:05:25.798Z,186063,-0.3847046,-0.97210693,0.056274414
1725696325822,2024-09-07T08:05:25.822Z,186087,-0.39941406,-0.94091797,0.06500244
1725696325860,2024-09-07T08:05:25.860Z,186125,-0.4494629,-0.9393921,0.12426758
1725696325910,2024-09-07T08:05:25.910Z,186175,-0.4487915,-0.9119873,0.085998535
1725696325964,2024-09-07T08:05:25.964Z,186229,-0.44232178,-0.8866577,0.010131836
1725696326007,2024-09-07T08:05:26.007Z,186272,-0.4449463,-0.89172363,0.0022583008
1725696326043,2024-09-07T08:05:26.043Z,186308,-0.45324707,-0.8937378,-0.031982422
1725696326113,2024-09-07T08:05:26.113Z,186378,-0.40789795,-0.89520264,-0.107910156
1725696326184,2024-09-07T08:05:26.184Z,186449,-0.4069214,-0.8914795,-0.14300537
1725696326211,2024-09-07T08:05:26.211Z,186476,-0.39105225,-0.89593506,-0.17572021
1725696326231,2024-09-07T08:05:26.231Z,186496,-0.39874268,-0.9055176,-0.124572754
1725696326246,2024-09-07T08:05:26.246Z,186511,-0.36956787,-0.8817749,-0.15759277
1725696326265,2024-09-07T08:05:26.265Z,186530,-0.33062744,-0.8386841,-0.14489746
1725696326311,2024-09-07T08:05:26.311Z,186576,-0.34625244,-0.7845459,-0.1494751
1725696326360,2024-09-07T08:05:26.360Z,186625,-0.31445312,-0.7581787,-0.14416504
1725696326405,2024-09-07T08:05:26.405Z,186670,-0.30651855,-0.774292,-0.10644531
1725696326453,2024-09-07T08:05:26.453Z,186718,-0.25109863,-0.7839966,-0.08087158
1725696326501,2024-09-07T08:05:26.501Z,186766,-0.18078613,-0.7606201,-0.022033691
1725696326544,2024-09-07T08:05:26.544Z,186809,-0.10644531,-0.7523804,-0.030395508
1725696326590,2024-09-07T08:05:26.590Z,186855,-0.09295654,-0.7618408,0.0028076172
1725696326634,2024-09-07T08:05:26.634Z,186899,-0.11828613,-0.8260498,-0.038269043
1725696326657,2024-09-07T08:05:26.657Z,186922,-0.061462402,-0.8744507,0.02911377
1725696326676,2024-09-07T08:05:26.676Z,186941,-0.08581543,-0.9298706,-0.0491333
1725696326719,2024-09-07T08:05:26.719Z,186984,-0.092163086,-0.92993164,-0.008911133
1725696326768,2024-09-07T08:05:26.768Z,187033,-0.09362793,-0.96191406,-0.015808105
1725696326814,2024-09-07T08:05:26.814Z,187079,-0.08331299,-0.99121094,0.010131836
1725696326859,2024-09-07T08:05:26.859Z,187124,-0.070495605,-0.9914551,0.018249512
1725696326903,2024-09-07T08:05:26.903Z,187168,-0.09075928,-0.98950195,0.027770996
1725696326950,2024-09-07T08:05:26.950Z,187215,-0.076049805,-1.0235596,0.06896973
1725696326995,2024-09-07T08:05:26.995Z,187260,-0.101379395,-1.015564,0.06768799
1725696327038,2024-09-07T08:05:27.038Z,187303,-0.10424805,-0.9971924,0.048950195
1725696327058,2024-09-07T08:05:27.058Z,187323,-0.09472656,-0.99749756,0.07977295
1725696327076,2024-09-07T08:05:27.076Z,187341,-0.14483643,-0.9481201,0.09259033
1725696327124,2024-09-07T08:05:27.124Z,187389,-0.10308838,-0.87579346,0.042297363
1725696327176,2024-09-07T08:05:27.176Z,187441,-0.13879395,-0.9307251,0.06604004
1725696327219,2024-09-07T08:05:27.219Z,187484,-0.16583252,-0.9810791,0.033081055
1725696327260,2024-09-07T08:05:27.260Z,187525,-0.15655518,-0.9876709,0.0033569336
1725696327355,2024-09-07T08:05:27.355Z,187620,-0.14886475,-0.9246216,0.05316162
1725696327384,2024-09-07T08:05:27.384Z,187649,-0.16320801,-0.8605957,-0.032409668
1725696327407,2024-09-07T08:05:27.407Z,187672,-0.15386963,-0.8735962,-0.013977051
1725696327436,2024-09-07T08:05:27.436Z,187701,-0.20477295,-0.8824463,-0.038269043
1725696327450,2024-09-07T08:05:27.450Z,187715,-0.16668701,-0.88494873,-0.047424316
1725696327479,2024-09-07T08:05:27.479Z,187744,-0.21862793,-0.9393921,-0.07183838
1725696327531,2024-09-07T08:05:27.531Z,187796,-0.22930908,-0.9398804,-0.028747559
1725696327575,2024-09-07T08:05:27.575Z,187840,-0.24017334,-0.8745117,-0.12371826
1725696327623,2024-09-07T08:05:27.623Z,187888,-0.20379639,-0.8641968,-0.071899414
1725696327672,2024-09-07T08:05:27.672Z,187937,-0.28399658,-0.88323975,-0.107543945
1725696327715,2024-09-07T08:05:27.715Z,187980,-0.27789307,-0.9411621,-0.12738037
1725696327753,2024-09-07T08:05:27.753Z,188018,-0.35302734,-0.9342041,-0.082092285
1725696327809,2024-09-07T08:05:27.809Z,188074,-0.3381958,-0.88623047,-0.1486206
1725696327851,2024-09-07T08:05:27.851Z,188116,-0.33422852,-0.8637085,-0.05706787
1725696327876,2024-09-07T08:05:27.876Z,188141,-0.3499756,-0.8435669,-0.10736084
1725696327897,2024-09-07T08:05:27.897Z,188162,-0.34655762,-0.8951416,-0.08148193
1725696327932,2024-09-07T08:05:27.932Z,188197,-0.37219238,-0.9078369,-0.04272461
1725696327980,2024-09-07T08:05:27.980Z,188245,-0.34326172,-0.8703613,-0.08911133
1725696328029,2024-09-07T08:05:28.029Z,188294,-0.29840088,-0.87646484,-0.10345459
1725696328076,2024-09-07T08:05:28.076Z,188341,-0.33874512,-0.89294434,-0.09680176
1725696328114,2024-09-07T08:05:28.114Z,188379,-0.31988525,-0.9125366,-0.14282227
1725696328166,2024-09-07T08:05:28.166Z,188431,-0.37286377,-0.95684814,-0.11425781
1725696328211,2024-09-07T08:05:28.211Z,188476,-0.3630371,-0.9375,-0.109191895
1725696328253,2024-09-07T08:05:28.253Z,188518,-0.336792,-0.96746826,-0.09942627
1725696328300,2024-09-07T08:05:28.300Z,188565,-0.35498047,-0.95843506,-0.12945557
1725696328325,2024-09-07T08:05:28.325Z,188590,-0.3425293,-0.95861816,-0.12371826
1725696328347,2024-09-07T08:05:28.347Z,188612,-0.37109375,-0.960022,-0.09509277
1725696328380,2024-09-07T08:05:28.380Z,188645,-0.39276123,-0.9543457,-0.06890869
1725696328475,2024-09-07T08:05:28.475Z,188740,-0.39056396,-0.9256592,-0.10534668
1725696328491,2024-09-07T08:05:28.491Z,188756,-0.36218262,-0.91241455,-0.09484863
1725696328515,2024-09-07T08:05:28.515Z,188780,-0.36712646,-0.8904419,-0.024291992
1725696328567,2024-09-07T08:05:28.567Z,188832,-0.3380127,-0.89520264,-0.006286621
1725696328617,2024-09-07T08:05:28.617Z,188882,-0.33673096,-0.92181396,0.03338623
1725696328658,2024-09-07T08:05:28.658Z,188923,-0.32769775,-0.96728516,0.084350586
1725696328705,2024-09-07T08:05:28.705Z,188970,-0.33319092,-1.0095825,0.025939941
1725696328730,2024-09-07T08:05:28.730Z,188995,-0.31689453,-1.0206299,0.024230957
1725696328753,2024-09-07T08:05:28.753Z,189018,-0.3147583,-1.0286865,0.05206299
1725696328785,2024-09-07T08:05:28.785Z,189050,-0.32769775,-1.02948,0.09631348
1725696328831,2024-09-07T08:05:28.831Z,189096,-0.28497314,-1.0097046,0.06304932
1725696328885,2024-09-07T08:05:28.885Z,189150,-0.25994873,-0.9767456,0.07562256
1725696328929,2024-09-07T08:05:28.929Z,189194,-0.22271729,-0.98065186,0.07946777
1725696328976,2024-09-07T08:05:28.976Z,189241,-0.23638916,-0.98327637,0.10235596
1725696329023,2024-09-07T08:05:29.023Z,189288,-0.26623535,-0.9932251,0.10058594
1725696329063,2024-09-07T08:05:29.063Z,189328,-0.2578125,-1.0119019,0.06390381
1725696329109,2024-09-07T08:05:29.109Z,189374,-0.23999023,-1.0026245,0.058166504
1725696329132,2024-09-07T08:05:29.132Z,189397,-0.2097168,-0.98864746,0.08685303
1725696329150,2024-09-07T08:05:29.150Z,189415,-0.21478271,-0.98223877,0.075683594
1725696329193,2024-09-07T08:05:29.193Z,189458,-0.20697021,-0.9923096,0.10046387
1725696329239,2024-09-07T08:05:29.239Z,189504,-0.2076416,-0.99902344,0.074157715
1725696329291,2024-09-07T08:05:29.291Z,189556,-0.2374878,-1.0084229,0.08483887
1725696329335,2024-09-07T08:05:29.335Z,189600,-0.19555664,-1.0021362,0.08270264
1725696329383,2024-09-07T08:05:29.383Z,189648,-0.17626953,-0.9845581,0.10272217
1725696329423,2024-09-07T08:05:29.423Z,189688,-0.15002441,-0.9714966,0.085510254
1725696329474,2024-09-07T08:05:29.474Z,189739,-0.1182251,-0.97613525,0.08294678
1725696329512,2024-09-07T08:05:29.512Z,189777,-0.10601807,-1.0007935,0.107788086
1725696329603,2024-09-07T08:05:29.603Z,189868,-0.08135986,-1.0022583,0.14160156
1725696329632,2024-09-07T08:05:29.632Z,189897,-0.08691406,-1.0084839,0.15826416
1725696329655,2024-09-07T08:05:29.655Z,189920,-0.08691406,-0.9992676,0.15515137
1725696329676,2024-09-07T08:05:29.676Z,189941,-0.103759766,-0.9970093,0.17321777
1725696329693,2024-09-07T08:05:29.693Z,189958,-0.08795166,-0.98657227,0.18652344
1725696329729,2024-09-07T08:05:29.729Z,189994,-0.072143555,-0.95843506,0.17926025
1725696329777,2024-09-07T08:05:29.777Z,190042,-0.06036377,-0.934021,0.16809082
1725696329827,2024-09-07T08:05:29.827Z,190092,-0.06518555,-0.9406128,0.1796875
1725696329878,2024-09-07T08:05:29.878Z,190143,-0.10028076,-0.9672241,0.19610596
1725696329918,2024-09-07T08:05:29.918Z,190183,-0.10803223,-0.98205566,0.18365479
1725696329965,2024-09-07T08:05:29.965Z,190230,-0.11480713,-0.97943115,0.18310547
1725696329995,2024-09-07T08:05:29.995Z,190260,-0.1194458,-0.9916992,0.19873047
1725696330015,2024-09-07T08:05:30.015Z,190280,-0.14788818,-1.0408325,0.21069336
1725696330046,2024-09-07T08:05:30.046Z,190311,-0.19036865,-1.0980225,0.21313477
1725696330098,2024-09-07T08:05:30.098Z,190363,-0.19683838,-1.1428833,0.21612549
1725696330138,2024-09-07T08:05:30.138Z,190403,-0.20385742,-1.1314087,0.22406006
1725696330190,2024-09-07T08:05:30.190Z,190455,-0.23864746,-1.1245117,0.22088623
1725696330233,2024-09-07T08:05:30.233Z,190498,-0.2267456,-1.1051025,0.2341919
1725696330277,2024-09-07T08:05:30.277Z,190542,-0.22686768,-1.0610352,0.17352295
1725696330343,2024-09-07T08:05:30.343Z,190608,-0.2218628,-1.03125,0.19952393
1725696330365,2024-09-07T08:05:30.365Z,190630,-0.2854004,-1.0487671,0.22692871
1725696330382,2024-09-07T08:05:30.382Z,190647,-0.28961182,-1.0300293,0.20178223
1725696330405,2024-09-07T08:05:30.405Z,190670,-0.31280518,-0.97680664,0.1550293
1725696330454,2024-09-07T08:05:30.454Z,190719,-0.32330322,-0.9177246,0.21331787
1725696330503,2024-09-07T08:05:30.503Z,190768,-0.34173584,-0.8741455,0.18463135
1725696330550,2024-09-07T08:05:30.550Z,190815,-0.3468628,-0.8788452,0.15405273
1725696330595,2024-09-07T08:05:30.595Z,190860,-0.36102295,-0.9123535,0.07312012
1725696330638,2024-09-07T08:05:30.638Z,190903,-0.38397217,-0.93133545,0.12060547
1725696330685,2024-09-07T08:05:30.685Z,190950,-0.38415527,-0.9395752,0.10949707
1725696330731,2024-09-07T08:05:30.731Z,190996,-0.3890381,-0.8963623,0.06854248
1725696330774,2024-09-07T08:05:30.774Z,191039,-0.37493896,-0.911499,0.016540527
1725696330818,2024-09-07T08:05:30.818Z,191083,-0.4298706,-0.90844727,0.030578613
1725696330839,2024-09-07T08:05:30.839Z,191104,-0.41784668,-0.9234009,-0.03479004
1725696330857,2024-09-07T08:05:30.857Z,191122,-0.41070557,-0.88531494,-0.008911133
1725696330901,2024-09-07T08:05:30.901Z,191166,-0.418396,-0.8878174,-0.055786133
1725696330949,2024-09-07T08:05:30.949Z,191214,-0.39715576,-0.85162354,-0.01763916
1725696331004,2024-09-07T08:05:31.004Z,191269,-0.37542725,-0.842041,-0.066467285
1725696331048,2024-09-07T08:05:31.048Z,191313,-0.3947754,-0.875,-0.022521973
1725696331086,2024-09-07T08:05:31.086Z,191351,-0.37939453,-0.88983154,-0.043151855
1725696331135,2024-09-07T08:05:31.135Z,191400,-0.35424805,-0.8717041,-0.04107666
1725696331178,2024-09-07T08:05:31.178Z,191443,-0.33636475,-0.8400879,-0.037597656
1725696331225,2024-09-07T08:05:31.225Z,191490,-0.31079102,-0.842041,-0.0579834
1725696331248,2024-09-07T08:05:31.248Z,191513,-0.30108643,-0.8657837,-0.03186035
1725696331268,2024-09-07T08:05:31.268Z,191533,-0.255188,-0.8687744,-0.10864258
1725696331307,2024-09-07T08:05:31.307Z,191572,-0.1918335,-0.85321045,-0.08050537
1725696331361,2024-09-07T08:05:31.361Z,191626,-0.17468262,-0.80371094,-0.074157715
1725696331398,2024-09-07T08:05:31.398Z,191663,-0.15594482,-0.744812,-0.07922363
1725696331448,2024-09-07T08:05:31.448Z,191713,-0.14605713,-0.75927734,-0.11730957
1725696331540,2024-09-07T08:05:31.540Z,191805,-0.15454102,-0.8696289,-0.12713623
1725696331564,2024-09-07T08:05:31.564Z,191829,-0.20178223,-0.98651123,-0.0949707
1725696331630,2024-09-07T08:05:31.630Z,191895,-0.16827393,-0.97753906,-0.10925293
1725696331653,2024-09-07T08:05:31.653Z,191918,-0.14318848,-0.942688,-0.07165527
1725696331673,2024-09-07T08:05:31.673Z,191938,-0.12475586,-0.91674805,-0.02709961
1725696331690,2024-09-07T08:05:31.690Z,191955,-0.0982666,-0.94866943,-0.041931152
1725696331716,2024-09-07T08:05:31.716Z,191981,-0.10180664,-1.0150146,0.0030517578
1725696331758,2024-09-07T08:05:31.758Z,192023,-0.13745117,-1.0505981,0.001159668
1725696331803,2024-09-07T08:05:31.803Z,192068,-0.11206055,-1.0090942,-0.014160156
1725696331854,2024-09-07T08:05:31.854Z,192119,-0.121520996,-0.9714966,-0.09509277
1725696331893,2024-09-07T08:05:31.893Z,192158,-0.17553711,-0.96765137,-0.04144287
1725696331959,2024-09-07T08:05:31.959Z,192224,-0.14550781,-0.96832275,-0.05682373
1725696331983,2024-09-07T08:05:31.983Z,192248,-0.14178467,-0.93963623,-0.072631836
1725696332036,2024-09-07T08:05:32.036Z,192301,-0.15161133,-0.9135132,-0.07635498
1725696332070,2024-09-07T08:05:32.070Z,192335,-0.13409424,-0.9459839,-0.08380127
1725696332088,2024-09-07T08:05:32.088Z,192353,-0.1762085,-0.9805298,-0.0569458
1725696332114,2024-09-07T08:05:32.114Z,192379,-0.13891602,-0.9828491,-0.08581543
1725696332167,2024-09-07T08:05:32.167Z,192432,-0.17553711,-0.9415283,-0.07647705
1725696332261,2024-09-07T08:05:32.261Z,192526,-0.17108154,-0.8901367,-0.109069824
1725696332291,2024-09-07T08:05:32.291Z,192556,-0.1739502,-0.86920166,-0.12249756
1725696332316,2024-09-07T08:05:32.316Z,192581,-0.19122314,-0.91534424,-0.1586914
1725696332342,2024-09-07T08:05:32.342Z,192607,-0.17694092,-0.9384155,-0.09020996
1725696332391,2024-09-07T08:05:32.391Z,192656,-0.27679443,-0.8843994,-0.08935547
1725696332439,2024-09-07T08:05:32.439Z,192704,-0.22753906,-0.9435425,-0.12609863
1725696332483,2024-09-07T08:05:32.483Z,192748,-0.27331543,-0.9014282,-0.12963867
1725696332516,2024-09-07T08:05:32.516Z,192781,-0.25317383,-0.9326172,-0.1864624
1725696332530,2024-09-07T08:05:32.530Z,192795,-0.28527832,-0.9189453,-0.1048584
1725696332613,2024-09-07T08:05:32.613Z,192878,-0.25927734,-0.944397,-0.17834473
1725696332627,2024-09-07T08:05:32.627Z,192892,-0.28479004,-0.899353,-0.08660889
1725696332658,2024-09-07T08:05:32.658Z,192923,-0.27679443,-0.840271,-0.20727539
1725696332706,2024-09-07T08:05:32.706Z,192971,-0.26446533,-0.8453369,-0.10046387
1725696332754,2024-09-07T08:05:32.754Z,193019,-0.32092285,-0.8553467,-0.13677979
1725696332803,2024-09-07T08:05:32.803Z,193068,-0.28308105,-0.88720703,-0.13519287
1725696332850,2024-09-07T08:05:32.850Z,193115,-0.3508911,-0.93536377,-0.06323242
1725696332885,2024-09-07T08:05:32.885Z,193150,-0.35009766,-0.8994751,-0.12310791
1725696332903,2024-09-07T08:05:32.903Z,193168,-0.3347168,-0.8708496,-0.12554932
1725696332925,2024-09-07T08:05:32.925Z,193190,-0.3453369,-0.89782715,-0.1003418
1725696332977,2024-09-07T08:05:32.977Z,193242,-0.3503418,-0.9137573,-0.08074951
1725696333027,2024-09-07T08:05:33.027Z,193292,-0.331604,-0.9210205,-0.16711426
1725696333071,2024-09-07T08:05:33.071Z,193336,-0.319458,-0.9329834,-0.1459961
1725696333116,2024-09-07T08:05:33.116Z,193381,-0.3287964,-0.9735718,-0.15032959
1725696333156,2024-09-07T08:05:33.156Z,193421,-0.328125,-0.9445801,-0.10119629
1725696333205,2024-09-07T08:05:33.205Z,193470,-0.2765503,-0.9295654,-0.19348145
1725696333251,2024-09-07T08:05:33.251Z,193516,-0.31298828,-0.932312,-0.10357666
1725696333294,2024-09-07T08:05:33.294Z,193559,-0.333313,-0.9411621,-0.18859863
1725696333338,2024-09-07T08:05:33.338Z,193603,-0.34906006,-0.9439697,-0.1251831
1725696333361,2024-09-07T08:05:33.361Z,193626,-0.34814453,-0.93640137,-0.20855713
1725696333377,2024-09-07T08:05:33.377Z,193642,-0.3760376,-0.95373535,-0.15063477
1725696333423,2024-09-07T08:05:33.423Z,193688,-0.40570068,-0.95758057,-0.16314697
1725696333473,2024-09-07T08:05:33.473Z,193738,-0.35992432,-0.91516113,-0.17596436
1725696333519,2024-09-07T08:05:33.519Z,193784,-0.3651123,-0.88916016,-0.19439697
1725696333565,2024-09-07T08:05:33.565Z,193830,-0.38671875,-0.9136963,-0.12414551
1725696333608,2024-09-07T08:05:33.608Z,193873,-0.41088867,-0.8883667,-0.1486206
1725696333651,2024-09-07T08:05:33.651Z,193916,-0.40478516,-0.8713989,-0.14440918
1725696333697,2024-09-07T08:05:33.697Z,193962,-0.37799072,-0.85217285,-0.12988281
1725696333744,2024-09-07T08:05:33.744Z,194009,-0.41156006,-0.8955078,-0.1408081
1725696333805,2024-09-07T08:05:33.805Z,194070,-0.41723633,-0.9449463,-0.100097656
1725696333829,2024-09-07T08:05:33.829Z,194094,-0.4484253,-0.9556885,-0.06896973
1725696333847,2024-09-07T08:05:33.847Z,194112,-0.3848877,-0.94641113,-0.043701172
1725696333871,2024-09-07T08:05:33.871Z,194136,-0.35742188,-0.95269775,-0.015319824
1725696333914,2024-09-07T08:05:33.914Z,194179,-0.34399414,-0.95288086,0.06896973
1725696333964,2024-09-07T08:05:33.964Z,194229,-0.32678223,-0.9715576,0.07550049
1725696334016,2024-09-07T08:05:34.016Z,194281,-0.3083496,-0.96154785,0.088134766
1725696334059,2024-09-07T08:05:34.059Z,194324,-0.29003906,-0.9848633,0.07745361
1725696334103,2024-09-07T08:05:34.103Z,194368,-0.27996826,-0.99212646,0.19702148
1725696334147,2024-09-07T08:05:34.147Z,194412,-0.30090332,-1.0172119,0.1595459
1725696334174,2024-09-07T08:05:34.174Z,194439,-0.2952881,-1.0037231,0.14807129
1725696334193,2024-09-07T08:05:34.193Z,194458,-0.26733398,-1.0020752,0.14526367
1725696334232,2024-09-07T08:05:34.232Z,194497,-0.2675171,-0.9851074,0.17730713
1725696334284,2024-09-07T08:05:34.284Z,194549,-0.28302002,-0.9863281,0.15252686
1725696334329,2024-09-07T08:05:34.329Z,194594,-0.28253174,-0.9857788,0.11065674
1725696334373,2024-09-07T08:05:34.373Z,194638,-0.25927734,-0.9515381,0.124938965
1725696334422,2024-09-07T08:05:34.422Z,194687,-0.25683594,-0.9352417,0.14685059
1725696334466,2024-09-07T08:05:34.466Z,194731,-0.21484375,-0.9397583,0.11895752
1725696334510,2024-09-07T08:05:34.510Z,194775,-0.22497559,-0.9507446,0.1451416
1725696334554,2024-09-07T08:05:34.554Z,194819,-0.21624756,-1.0028076,0.14752197
1725696334602,2024-09-07T08:05:34.602Z,194867,-0.1850586,-1.0218506,0.16052246
1725696334628,2024-09-07T08:05:34.628Z,194893,-0.15216064,-0.9888916,0.19122314
1725696334646,2024-09-07T08:05:34.646Z,194911,-0.1404419,-0.9819946,0.20770264
1725696334681,2024-09-07T08:05:34.681Z,194946,-0.10266113,-0.9626465,0.23535156
1725696334735,2024-09-07T08:05:34.735Z,195000,-0.11608887,-0.9530029,0.24920654
1725696334782,2024-09-07T08:05:34.782Z,195047,-0.09692383,-0.93518066,0.25134277
1725696334823,2024-09-07T08:05:34.823Z,195088,-0.124938965,-0.94866943,0.23791504
1725696334870,2024-09-07T08:05:34.870Z,195135,-0.12512207,-0.9657593,0.25836182
1725696334915,2024-09-07T08:05:34.915Z,195180,-0.11254883,-0.9661865,0.26904297
1725696334958,2024-09-07T08:05:34.958Z,195223,-0.103515625,-0.9558716,0.26861572
1725696335004,2024-09-07T08:05:35.004Z,195269,-0.11553955,-0.9650879,0.25256348
1725696335035,2024-09-07T08:05:35.035Z,195300,-0.14105225,-0.9655762,0.24273682
1725696335063,2024-09-07T08:05:35.063Z,195328,-0.14953613,-0.9581299,0.21325684
1725696335085,2024-09-07T08:05:35.085Z,195350,-0.14038086,-0.95666504,0.21051025
1725696335134,2024-09-07T08:05:35.134Z,195399,-0.1541748,-0.9494629,0.23492432
1725696335179,2024-09-07T08:05:35.179Z,195444,-0.13623047,-0.928833,0.23217773
1725696335227,2024-09-07T08:05:35.227Z,195492,-0.14196777,-0.9168091,0.2364502
1725696335274,2024-09-07T08:05:35.274Z,195539,-0.14013672,-0.9154053,0.24414062
1725696335321,2024-09-07T08:05:35.321Z,195586,-0.15045166,-0.9182129,0.27288818
1725696335365,2024-09-07T08:05:35.365Z,195630,-0.12207031,-0.96777344,0.24389648
1725696335406,2024-09-07T08:05:35.406Z,195671,-0.1998291,-1.0839233,0.29406738
1725696335425,2024-09-07T08:05:35.425Z,195690,-0.2617798,-1.1370239,0.3267212
1725696335447,2024-09-07T08:05:35.447Z,195712,-0.22668457,-1.0708618,0.27911377
1725696335495,2024-09-07T08:05:35.495Z,195760,-0.24365234,-1.039856,0.27807617
1725696335541,2024-09-07T08:05:35.541Z,195806,-0.265625,-1.02594,0.24334717
1725696335588,2024-09-07T08:05:35.588Z,195853,-0.31695557,-1.0411377,0.23730469
1725696335633,2024-09-07T08:05:35.633Z,195898,-0.36218262,-1.0369263,0.22009277
1725696335676,2024-09-07T08:05:35.676Z,195941,-0.35339355,-1.0515137,0.16082764
1725696335723,2024-09-07T08:05:35.723Z,195988,-0.36621094,-1.0397949,0.17010498
1725696335768,2024-09-07T08:05:35.768Z,196033,-0.33288574,-0.99676514,0.17608643
1725696335814,2024-09-07T08:05:35.814Z,196079,-0.28936768,-0.95373535,0.16967773
1725696335955,2024-09-07T08:05:35.955Z,196220,-0.2800293,-0.91864014,0.16308594
1725696335988,2024-09-07T08:05:35.988Z,196253,-0.31555176,-0.9100952,0.14746094
1725696336012,2024-09-07T08:05:36.012Z,196277,-0.3320923,-0.93292236,0.10357666
1725696336033,2024-09-07T08:05:36.033Z,196298,-0.35717773,-0.942688,0.11981201
1725696336047,2024-09-07T08:05:36.047Z,196312,-0.33587646,-0.93182373,0.051635742
1725696336059,2024-09-07T08:05:36.059Z,196324,-0.3145752,-0.9216919,0.07385254
1725696336074,2024-09-07T08:05:36.074Z,196339,-0.32452393,-0.91485596,0.08282471
1725696336121,2024-09-07T08:05:36.121Z,196386,-0.36749268,-0.91729736,0.11071777
1725696336173,2024-09-07T08:05:36.173Z,196438,-0.37701416,-0.90319824,0.060546875
1725696336219,2024-09-07T08:05:36.219Z,196484,-0.4249878,-0.92626953,0.02520752
1725696336265,2024-09-07T08:05:36.265Z,196530,-0.4329834,-0.92285156,0.01940918
1725696336293,2024-09-07T08:05:36.293Z,196558,-0.42687988,-0.9262085,-0.056640625
1725696336311,2024-09-07T08:05:36.311Z,196576,-0.42895508,-0.90509033,-0.03326416
1725696336347,2024-09-07T08:05:36.347Z,196612,-0.40216064,-0.87976074,-0.06750488
1725696336398,2024-09-07T08:05:36.398Z,196663,-0.3668213,-0.8741455,-0.12207031
1725696336446,2024-09-07T08:05:36.446Z,196711,-0.41809082,-0.87542725,-0.08337402
1725696336490,2024-09-07T08:05:36.490Z,196755,-0.38983154,-0.8706665,-0.111572266
1725696336536,2024-09-07T08:05:36.536Z,196801,-0.40704346,-0.83825684,-0.11755371
1725696336585,2024-09-07T08:05:36.585Z,196850,-0.39678955,-0.83343506,-0.13098145
1725696336636,2024-09-07T08:05:36.636Z,196901,-0.38134766,-0.84942627,-0.10803223
1725696336666,2024-09-07T08:05:36.666Z,196931,-0.3642578,-0.8208008,-0.11828613
1725696336691,2024-09-07T08:05:36.691Z,196956,-0.31140137,-0.82702637,-0.13098145
1725696336715,2024-09-07T08:05:36.715Z,196980,-0.30316162,-0.82684326,-0.10675049
1725696336756,2024-09-07T08:05:36.756Z,197021,-0.26379395,-0.8307495,-0.13110352
1725696336804,2024-09-07T08:05:36.804Z,197069,-0.25616455,-0.8439331,-0.12011719
1725696336848,2024-09-07T08:05:36.848Z,197113,-0.22198486,-0.8635864,-0.11651611
1725696336892,2024-09-07T08:05:36.892Z,197157,-0.22106934,-0.84991455,-0.11981201
1725696336938,2024-09-07T08:05:36.938Z,197203,-0.21081543,-0.8493042,-0.09875488
1725696336985,2024-09-07T08:05:36.985Z,197250,-0.20544434,-0.88549805,-0.10736084
1725696337028,2024-09-07T08:05:37.028Z,197293,-0.22277832,-0.90979004,-0.014709473
1725696337089,2024-09-07T08:05:37.089Z,197354,-0.21820068,-0.9328003,-0.04107666
1725696337111,2024-09-07T08:05:37.111Z,197376,-0.1585083,-0.9110718,-0.028930664
1725696337130,2024-09-07T08:05:37.130Z,197395,-0.2144165,-0.9310913,-0.013916016
1725696337155,2024-09-07T08:05:37.155Z,197420,-0.17102051,-0.9815674,0.012634277
1725696337255,2024-09-07T08:05:37.255Z,197520,-0.19195557,-0.9989624,0.008911133
1725696337281,2024-09-07T08:05:37.281Z,197546,-0.22229004,-0.99005127,0.015319824
1725696337299,2024-09-07T08:05:37.299Z,197564,-0.20056152,-0.96954346,0.0178833
1725696337336,2024-09-07T08:05:37.336Z,197601,-0.19134521,-0.970459,0.013916016
1725696337394,2024-09-07T08:05:37.394Z,197659,-0.1472168,-0.9699707,0.018005371
1725696337433,2024-09-07T08:05:37.433Z,197698,-0.1751709,-0.9925537,0.020446777
1725696337477,2024-09-07T08:05:37.477Z,197742,-0.16912842,-1.0020752,0.027526855
1725696337527,2024-09-07T08:05:37.527Z,197792,-0.1729126,-0.97454834,-0.029724121
1725696337553,2024-09-07T08:05:37.553Z,197818,-0.18920898,-0.9417114,-0.013000488
1725696337571,2024-09-07T08:05:37.571Z,197836,-0.20245361,-0.90722656,-0.050048828
1725696337605,2024-09-07T08:05:37.605Z,197870,-0.19866943,-0.8852539,-0.07324219
1725696337658,2024-09-07T08:05:37.658Z,197923,-0.22790527,-0.88049316,-0.1027832
1725696337700,2024-09-07T08:05:37.700Z,197965,-0.23474121,-0.9109497,-0.11224365
1725696337750,2024-09-07T08:05:37.750Z,198015,-0.21673584,-0.9411621,-0.04949951
1725696337795,2024-09-07T08:05:37.795Z,198060,-0.26367188,-0.8850708,-0.08911133
1725696337841,2024-09-07T08:05:37.841Z,198106,-0.22558594,-0.8276367,-0.05456543
1725696337881,2024-09-07T08:05:37.881Z,198146,-0.24407959,-0.8685913,-0.05657959
1725696337931,2024-09-07T08:05:37.931Z,198196,-0.28753662,-0.9546509,-0.015380859
1725696337953,2024-09-07T08:05:37.953Z,198218,-0.31640625,-0.94073486,-0.0146484375
1725696337969,2024-09-07T08:05:37.969Z,198234,-0.3135376,-0.8399658,-0.056884766
1725696338014,2024-09-07T08:05:38.014Z,198279,-0.2989502,-0.857666,-0.015991211
1725696338065,2024-09-07T08:05:38.065Z,198330,-0.31567383,-0.87384033,-0.034057617
1725696338110,2024-09-07T08:05:38.110Z,198375,-0.32824707,-0.9263916,-0.022277832
1725696338155,2024-09-07T08:05:38.155Z,198420,-0.3809204,-0.9180908,-0.07244873
1725696338199,2024-09-07T08:05:38.199Z,198464,-0.35931396,-0.9119873,-0.059936523
1725696338246,2024-09-07T08:05:38.246Z,198511,-0.35662842,-0.87145996,-0.04876709
1725696338290,2024-09-07T08:05:38.290Z,198555,-0.38024902,-0.890625,-0.038085938
1725696338337,2024-09-07T08:05:38.337Z,198602,-0.39935303,-0.8874512,-0.011413574
1725696338375,2024-09-07T08:05:38.375Z,198640,-0.40625,-0.8666382,-0.047424316
1725696338401,2024-09-07T08:05:38.401Z,198666,-0.43743896,-0.90734863,-0.06512451
1725696338420,2024-09-07T08:05:38.420Z,198685,-0.41485596,-0.87506104,-0.0022583008
1725696338464,2024-09-07T08:05:38.464Z,198729,-0.3939209,-0.84417725,-0.07043457
1725696338512,2024-09-07T08:05:38.512Z,198777,-0.38446045,-0.86553955,-0.08441162
1725696338559,2024-09-07T08:05:38.559Z,198824,-0.44073486,-0.934021,-0.053100586
1725696338605,2024-09-07T08:05:38.605Z,198870,-0.4628296,-0.9119873,-0.054016113
1725696338648,2024-09-07T08:05:38.648Z,198913,-0.45855713,-0.9013672,-0.10217285
1725696338691,2024-09-07T08:05:38.691Z,198956,-0.4263916,-0.855896,-0.13391113
1725696338742,2024-09-07T08:05:38.742Z,199007,-0.43566895,-0.86053467,-0.13861084
1725696338778,2024-09-07T08:05:38.778Z,199043,-0.46765137,-0.8829346,-0.033569336
1725696338799,2024-09-07T08:05:38.799Z,199064,-0.44732666,-0.883667,-0.15002441
1725696338819,2024-09-07T08:05:38.819Z,199084,-0.4512329,-0.9136963,-0.08514404
1725696338915,2024-09-07T08:05:38.915Z,199180,-0.44281006,-0.9239502,-0.10913086
1725696338930,2024-09-07T08:05:38.930Z,199195,-0.4326172,-0.9232178,-0.11383057
1725696338954,2024-09-07T08:05:38.954Z,199219,-0.43865967,-0.9510498,-0.054138184
1725696339009,2024-09-07T08:05:39.009Z,199274,-0.4171753,-0.9316406,-0.07824707
1725696339052,2024-09-07T08:05:39.052Z,199317,-0.37750244,-0.916626,-0.07946777
1725696339097,2024-09-07T08:05:39.097Z,199362,-0.34674072,-0.93395996,-0.023864746
1725696339145,2024-09-07T08:05:39.145Z,199410,-0.37023926,-0.97320557,-0.010986328
1725696339189,2024-09-07T08:05:39.189Z,199454,-0.3701172,-0.9762573,-0.055786133
1725696339215,2024-09-07T08:05:39.215Z,199480,-0.35601807,-1.0044556,-0.026000977
1725696339235,2024-09-07T08:05:39.235Z,199500,-0.40740967,-1.0075073,0.043029785
1725696339270,2024-09-07T08:05:39.270Z,199535,-0.3725586,-1.0142822,0.0020751953
1725696339317,2024-09-07T08:05:39.317Z,199582,-0.36523438,-0.9882202,0.024536133
1725696339368,2024-09-07T08:05:39.368Z,199633,-0.3149414,-0.9697876,0.039367676
1725696339418,2024-09-07T08:05:39.418Z,199683,-0.32702637,-0.9572754,0.13494873
1725696339461,2024-09-07T08:05:39.461Z,199726,-0.27856445,-0.9458008,0.09875488
1725696339502,2024-09-07T08:05:39.502Z,199767,-0.21643066,-0.9002075,0.082458496
1725696339546,2024-09-07T08:05:39.546Z,199811,-0.2508545,-0.932251,0.096069336
1725696339593,2024-09-07T08:05:39.593Z,199858,-0.24926758,-0.97576904,0.12915039
1725696339639,2024-09-07T08:05:39.639Z,199904,-0.21777344,-1.0045166,0.0904541
1725696339669,2024-09-07T08:05:39.669Z,199934,-0.2033081,-1.03125,0.113708496
1725696339694,2024-09-07T08:05:39.694Z,199959,-0.1843872,-1.0444336,0.13745117
1725696339721,2024-09-07T08:05:39.721Z,199986,-0.17462158,-0.9991455,0.1373291
1725696339774,2024-09-07T08:05:39.774Z,200039,-0.1661377,-0.9801636,0.12402344
1725696339816,2024-09-07T08:05:39.816Z,200081,-0.1538086,-0.96099854,0.16638184
1725696339866,2024-09-07T08:05:39.866Z,200131,-0.13775635,-0.94647217,0.1687622
1725696339909,2024-09-07T08:05:39.909Z,200174,-0.11907959,-0.95599365,0.15014648
1725696339954,2024-09-07T08:05:39.954Z,200219,-0.09472656,-0.97650146,0.15557861
1725696340047,2024-09-07T08:05:40.047Z,200312,-0.08288574,-0.9945679,0.21124268
1725696340079,2024-09-07T08:05:40.079Z,200344,-0.09436035,-1.0218506,0.19140625
1725696340108,2024-09-07T08:05:40.108Z,200373,-0.052001953,-1.0095825,0.199646
1725696340130,2024-09-07T08:05:40.130Z,200395,-0.0713501,-0.9908447,0.21484375
1725696340146,2024-09-07T08:05:40.146Z,200411,-0.05596924,-0.9664917,0.22601318
1725696340169,2024-09-07T08:05:40.169Z,200434,-0.051513672,-0.94573975,0.20288086
1725696340216,2024-09-07T08:05:40.216Z,200481,-0.056884766,-0.94921875,0.19396973
1725696340270,2024-09-07T08:05:40.270Z,200535,-0.07928467,-0.9684448,0.21923828
1725696340315,2024-09-07T08:05:40.315Z,200580,-0.07922363,-0.9738159,0.24407959
1725696340357,2024-09-07T08:05:40.357Z,200622,-0.07318115,-0.94989014,0.2539673
1725696340403,2024-09-07T08:05:40.403Z,200668,-0.078125,-0.95080566,0.24346924
1725696340447,2024-09-07T08:05:40.447Z,200712,-0.08477783,-0.95788574,0.2548828
1725696340467,2024-09-07T08:05:40.467Z,200732,-0.08129883,-0.9537964,0.24273682
1725696340489,2024-09-07T08:05:40.489Z,200754,-0.085632324,-0.9537964,0.24511719
1725696340534,2024-09-07T08:05:40.534Z,200799,-0.06921387,-0.94989014,0.25146484
1725696340579,2024-09-07T08:05:40.579Z,200844,-0.061523438,-0.9439697,0.2647705
1725696340629,2024-09-07T08:05:40.629Z,200894,-0.08068848,-0.95111084,0.2980957
1725696340669,2024-09-07T08:05:40.669Z,200934,-0.08526611,-0.97998047,0.3022461
1725696340720,2024-09-07T08:05:40.720Z,200985,-0.09173584,-1.0410767,0.30456543
1725696340762,2024-09-07T08:05:40.762Z,201027,-0.11071777,-1.0457764,0.30187988
1725696340805,2024-09-07T08:05:40.805Z,201070,-0.103271484,-1.024292,0.28149414
1725696340851,2024-09-07T08:05:40.851Z,201116,-0.11706543,-1.0340576,0.26287842
1725696340900,2024-09-07T08:05:40.900Z,201165,-0.14453125,-1.0286865,0.27575684
1725696340930,2024-09-07T08:05:40.930Z,201195,-0.15325928,-1.0154419,0.28631592
1725696340956,2024-09-07T08:05:40.956Z,201221,-0.18444824,-1.0401001,0.2977295
1725696340985,2024-09-07T08:05:40.985Z,201250,-0.2086792,-1.081665,0.29187012
1725696341029,2024-09-07T08:05:41.029Z,201294,-0.25567627,-1.1038208,0.32617188
1725696341078,2024-09-07T08:05:41.078Z,201343,-0.21612549,-1.0428467,0.25445557
1725696341123,2024-09-07T08:05:41.123Z,201388,-0.24249268,-1.0289917,0.1928711
1725696341170,2024-09-07T08:05:41.170Z,201435,-0.28704834,-1.0254517,0.22894287
1725696341211,2024-09-07T08:05:41.211Z,201476,-0.30523682,-0.9772949,0.17553711
1725696341258,2024-09-07T08:05:41.258Z,201523,-0.260437,-0.8604126,0.15551758
1725696341305,2024-09-07T08:05:41.305Z,201570,-0.29699707,-0.85284424,0.14105225
1725696341332,2024-09-07T08:05:41.332Z,201597,-0.3359375,-0.8536377,0.20178223
1725696341396,2024-09-07T08:05:41.396Z,201661,-0.34832764,-0.86328125,0.11767578
1725696341422,2024-09-07T08:05:41.422Z,201687,-0.38684082,-0.83862305,0.2177124
1725696341441,2024-09-07T08:05:41.441Z,201706,-0.39996338,-0.88616943,0.16882324
1725696341475,2024-09-07T08:05:41.475Z,201740,-0.42315674,-0.8601074,0.23687744
1725696341529,2024-09-07T08:05:41.529Z,201794,-0.42700195,-0.86413574,0.16442871
1725696341575,2024-09-07T08:05:41.575Z,201840,-0.46520996,-0.8651123,0.21173096
1725696341666,2024-09-07T08:05:41.666Z,201931,-0.48779297,-0.8670044,0.17694092
1725696341696,2024-09-07T08:05:41.696Z,201961,-0.4882202,-0.8414917,0.15905762
1725696341714,2024-09-07T08:05:41.714Z,201979,-0.46826172,-0.8486328,0.10601807
1725696341733,2024-09-07T08:05:41.733Z,201998,-0.45202637,-0.84033203,0.13171387
1725696341748,2024-09-07T08:05:41.748Z,202013,-0.49554443,-0.8840332,0.060668945
1725696341789,2024-09-07T08:05:41.789Z,202054,-0.4868164,-0.8452759,0.06915283
1725696341840,2024-09-07T08:05:41.840Z,202105,-0.5288696,-0.89038086,-0.04663086
1725696341893,2024-09-07T08:05:41.893Z,202158,-0.51000977,-0.8744507,-0.01751709
1725696341933,2024-09-07T08:05:41.933Z,202198,-0.5009155,-0.90289307,-0.057250977
1725696341979,2024-09-07T08:05:41.979Z,202244,-0.44433594,-0.8875122,-0.053222656
1725696342021,2024-09-07T08:05:42.021Z,202286,-0.4260254,-0.8856201,-0.07269287
1725696342064,2024-09-07T08:05:42.064Z,202329,-0.3735962,-0.875,-0.082214355
1725696342115,2024-09-07T08:05:42.115Z,202380,-0.35699463,-0.91571045,-0.07867432
1725696342139,2024-09-07T08:05:42.139Z,202404,-0.31103516,-0.88446045,-0.09259033
1725696342161,2024-09-07T08:05:42.161Z,202426,-0.22229004,-0.75006104,-0.10522461
1725696342194,2024-09-07T08:05:42.194Z,202459,-0.27178955,-0.6899414,-0.1437378
1725696342252,2024-09-07T08:05:42.252Z,202517,-0.21307373,-0.80688477,-0.12512207
1725696342290,2024-09-07T08:05:42.290Z,202555,-0.28198242,-0.9415283,-0.11602783
1725696342334,2024-09-07T08:05:42.334Z,202599,-0.2600708,-0.9914551,-0.06866455
1725696342381,2024-09-07T08:05:42.381Z,202646,-0.21740723,-0.9481201,-0.07836914
1725696342441,2024-09-07T08:05:42.441Z,202706,-0.17706299,-0.8775635,-0.08581543
1725696342467,2024-09-07T08:05:42.467Z,202732,-0.16143799,-0.862854,-0.051086426
1725696342515,2024-09-07T08:05:42.515Z,202780,-0.13464355,-0.86169434,-0.08148193
1725696342565,2024-09-07T08:05:42.565Z,202830,-0.13482666,-0.9063721,-0.09503174
1725696342589,2024-09-07T08:05:42.589Z,202854,-0.16113281,-0.95526123,-0.086242676
1725696342653,2024-09-07T08:05:42.653Z,202918,-0.14929199,-0.95373535,-0.070739746
1725696342680,2024-09-07T08:05:42.680Z,202945,-0.16369629,-0.9631958,-0.07659912
1725696342698,2024-09-07T08:05:42.698Z,202963,-0.11682129,-0.9113159,0.0010986328
1725696342735,2024-09-07T08:05:42.735Z,203000,-0.15258789,-0.9193115,-0.024291992
1725696342785,2024-09-07T08:05:42.785Z,203050,-0.12359619,-0.97058105,-0.014038086
1725696342834,2024-09-07T08:05:42.834Z,203099,-0.16009521,-1.017273,8.544922E-4
1725696342876,2024-09-07T08:05:42.876Z,203141,-0.1671753,-1.0326538,-6.1035156E-5
1725696342922,2024-09-07T08:05:42.922Z,203187,-0.17352295,-1.0362549,1.8310547E-4
1725696343018,2024-09-07T08:05:43.018Z,203283,-0.16278076,-1.0100708,-0.0041503906
1725696343053,2024-09-07T08:05:43.053Z,203318,-0.16949463,-0.96307373,-0.024108887
1725696343078,2024-09-07T08:05:43.078Z,203343,-0.15472412,-0.9528198,0.0048828125
1725696343097,2024-09-07T08:05:43.097Z,203362,-0.15472412,-0.9307251,-0.03527832
1725696343112,2024-09-07T08:05:43.112Z,203377,-0.17840576,-0.9411011,-0.027648926
1725696343139,2024-09-07T08:05:43.139Z,203404,-0.1786499,-0.9807739,-0.025634766
1725696343187,2024-09-07T08:05:43.187Z,203452,-0.19067383,-1.0073853,-0.039123535
1725696343238,2024-09-07T08:05:43.238Z,203503,-0.18963623,-0.99017334,-0.008544922
1725696343283,2024-09-07T08:05:43.283Z,203548,-0.18670654,-0.9373779,-0.02734375
1725696343326,2024-09-07T08:05:43.326Z,203591,-0.17736816,-0.93304443,-0.05267334
1725696343370,2024-09-07T08:05:43.370Z,203635,-0.20501709,-0.94506836,-0.024780273
1725696343437,2024-09-07T08:05:43.437Z,203702,-0.14447021,-0.947876,-0.06933594
1725696343459,2024-09-07T08:05:43.459Z,203724,-0.1942749,-0.9473877,-0.032165527
1725696343478,2024-09-07T08:05:43.478Z,203743,-0.2288208,-0.9239502,-0.039611816
1725696343500,2024-09-07T08:05:43.500Z,203765,-0.20214844,-0.9293213,-0.08703613
1725696343550,2024-09-07T08:05:43.550Z,203815,-0.25390625,-0.94091797,-0.06994629
1725696343596,2024-09-07T08:05:43.596Z,203861,-0.2467041,-0.930603,-0.06347656
1725696343640,2024-09-07T08:05:43.640Z,203905,-0.2598877,-0.92840576,-0.09680176
1725696343688,2024-09-07T08:05:43.688Z,203953,-0.25543213,-0.9295654,-0.08673096
1725696343733,2024-09-07T08:05:43.733Z,203998,-0.25634766,-0.8654175,-0.10015869
1725696343780,2024-09-07T08:05:43.780Z,204045,-0.22998047,-0.8735962,-0.06085205
1725696343825,2024-09-07T08:05:43.825Z,204090,-0.2789917,-0.8895874,-0.08795166
1725696343852,2024-09-07T08:05:43.852Z,204117,-0.2647705,-0.9434204,-0.08679199
1725696343874,2024-09-07T08:05:43.874Z,204139,-0.3204956,-0.93182373,-0.09869385
1725696343903,2024-09-07T08:05:43.903Z,204168,-0.29937744,-0.9411621,-0.14135742
1725696343960,2024-09-07T08:05:43.960Z,204225,-0.31921387,-0.95562744,-0.15625
1725696344003,2024-09-07T08:05:44.003Z,204268,-0.3463745,-0.95422363,-0.13903809
1725696344093,2024-09-07T08:05:44.093Z,204358,-0.33099365,-0.91137695,-0.20153809
1725696344122,2024-09-07T08:05:44.122Z,204387,-0.31079102,-0.8713989,-0.16680908
1725696344142,2024-09-07T08:05:44.142Z,204407,-0.3161621,-0.8413696,-0.16168213
1725696344174,2024-09-07T08:05:44.174Z,204439,-0.3522339,-0.8417969,-0.11016846
1725696344229,2024-09-07T08:05:44.229Z,204494,-0.38269043,-0.8651123,-0.11621094
1725696344252,2024-09-07T08:05:44.252Z,204517,-0.38427734,-0.8953247,-0.12536621
1725696344271,2024-09-07T08:05:44.271Z,204536,-0.40551758,-0.9315796,-0.15356445
1725696344310,2024-09-07T08:05:44.310Z,204575,-0.3935547,-0.91534424,-0.08111572
1725696344362,2024-09-07T08:05:44.362Z,204627,-0.38970947,-0.87231445,-0.057495117
1725696344418,2024-09-07T08:05:44.418Z,204683,-0.3317871,-0.8453369,-0.09057617
1725696344449,2024-09-07T08:05:44.449Z,204714,-0.34661865,-0.8405762,-0.09527588
1725696344497,2024-09-07T08:05:44.497Z,204762,-0.39154053,-0.8831177,-0.1003418
1725696344542,2024-09-07T08:05:44.542Z,204807,-0.41912842,-0.9151001,-0.1293335
1725696344685,2024-09-07T08:05:44.685Z,204950,-0.44854736,-0.9472656,-0.12860107
1725696344711,2024-09-07T08:05:44.711Z,204976,-0.39398193,-0.8876343,-0.15222168
1725696344729,2024-09-07T08:05:44.729Z,204994,-0.36499023,-0.85284424,-0.15753174
1725696344747,2024-09-07T08:05:44.747Z,205012,-0.3394165,-0.84887695,-0.13122559
1725696344762,2024-09-07T08:05:44.762Z,205027,-0.36920166,-0.87841797,-0.08496094
1725696344776,2024-09-07T08:05:44.776Z,205041,-0.38085938,-0.86779785,-0.103271484
1725696344804,2024-09-07T08:05:44.804Z,205069,-0.38787842,-0.8788452,-0.16326904
1725696344849,2024-09-07T08:05:44.849Z,205114,-0.40875244,-0.90319824,-0.10687256
1725696344901,2024-09-07T08:05:44.901Z,205166,-0.45941162,-0.9067993,-0.09564209
1725696344946,2024-09-07T08:05:44.946Z,205211,-0.4210205,-0.8829956,-0.05444336
1725696344991,2024-09-07T08:05:44.991Z,205256,-0.385437,-0.8413696,-0.012023926
1725696345037,2024-09-07T08:05:45.037Z,205302,-0.36187744,-0.8269043,-0.03503418
1725696345126,2024-09-07T08:05:45.126Z,205391,-0.31988525,-0.89782715,0.0051879883
1725696345156,2024-09-07T08:05:45.156Z,205421,-0.33099365,-0.96307373,0.037963867
1725696345176,2024-09-07T08:05:45.176Z,205441,-0.3189087,-1.029541,0.014709473
1725696345197,2024-09-07T08:05:45.197Z,205462,-0.31188965,-1.0696411,0.043701172
1725696345213,2024-09-07T08:05:45.213Z,205478,-0.35168457,-1.1171875,0.07470703
1725696345256,2024-09-07T08:05:45.256Z,205521,-0.32861328,-1.1034546,0.120910645
1725696345356,2024-09-07T08:05:45.356Z,205621,-0.3170166,-1.0628052,0.12542725
1725696345382,2024-09-07T08:05:45.382Z,205647,-0.2816162,-1.0212402,0.1842041
1725696345443,2024-09-07T08:05:45.443Z,205708,-0.2849121,-1.0152588,0.20617676
1725696345466,2024-09-07T08:05:45.466Z,205731,-0.2701416,-0.9707031,0.22442627
1725696345485,2024-09-07T08:05:45.485Z,205750,-0.24707031,-0.930603,0.18908691
1725696345500,2024-09-07T08:05:45.500Z,205765,-0.23712158,-0.88830566,0.2211914
1725696345524,2024-09-07T08:05:45.524Z,205789,-0.2770996,-0.8859863,0.20581055
1725696345579,2024-09-07T08:05:45.579Z,205844,-0.2662964,-0.8886719,0.1665039
1725696345622,2024-09-07T08:05:45.622Z,205887,-0.24945068,-0.9883423,0.16864014
1725696345660,2024-09-07T08:05:45.660Z,205925,-0.31921387,-1.1014404,0.32452393
1725696345705,2024-09-07T08:05:45.705Z,205970,-0.27209473,-1.1245117,0.2849121
1725696345750,2024-09-07T08:05:45.750Z,206015,-0.19952393,-1.0167847,0.25604248
1725696426943,2024-09-07T08:07:06.943Z,287208,-0.10021973,-0.9238281,0.13226318
1725696426969,2024-09-07T08:07:06.969Z,287234,-0.12530518,-0.95599365,0.14764404
1725696426990,2024-09-07T08:07:06.990Z,287255,-0.11853027,-0.96533203,0.15734863
1725696427021,2024-09-07T08:07:07.021Z,287286,-0.1003418,-0.9663086,0.16741943
1725696427063,2024-09-07T08:07:07.063Z,287328,-0.114746094,-0.9800415,0.19732666
1725696427110,2024-09-07T08:07:07.110Z,287375,-0.16223145,-1.0391846,0.23083496
1725696427155,2024-09-07T08:07:07.155Z,287420,-0.20446777,-1.1295776,0.23840332
1725696427209,2024-09-07T08:07:07.209Z,287474,-0.2911377,-1.2037354,0.2611084
1725696427258,2024-09-07T08:07:07.258Z,287523,-0.31280518,-1.2138062,0.286438
1725696427293,2024-09-07T08:07:07.293Z,287558,-0.3147583,-1.1555176,0.28027344
1725696427333,2024-09-07T08:07:07.333Z,287598,-0.2998047,-1.0835571,0.25061035
1725696427382,2024-09-07T08:07:07.382Z,287647,-0.30029297,-1.0374146,0.21972656
1725696427425,2024-09-07T08:07:07.425Z,287690,-0.30603027,-1.0430298,0.16558838
1725696427451,2024-09-07T08:07:07.451Z,287716,-0.33514404,-1.0549316,0.1685791
1725696427470,2024-09-07T08:07:07.470Z,287735,-0.3347168,-1.0116577,0.18682861
1725696427519,2024-09-07T08:07:07.519Z,287784,-0.28173828,-0.9401245,0.12158203
1725696427560,2024-09-07T08:07:07.560Z,287825,-0.2952881,-0.90167236,0.105773926
1725696427613,2024-09-07T08:07:07.613Z,287878,-0.31036377,-0.8892212,0.14141846
1725696427655,2024-09-07T08:07:07.655Z,287920,-0.33618164,-0.8378906,0.21685791
1725696427693,2024-09-07T08:07:07.693Z,287958,-0.32659912,-0.85113525,0.13189697
1725696427794,2024-09-07T08:07:07.794Z,288059,-0.35058594,-0.8579712,0.26031494
1725696427859,2024-09-07T08:07:07.859Z,288124,-0.35620117,-0.902771,0.22021484
1725696427881,2024-09-07T08:07:07.881Z,288146,-0.35333252,-0.8948364,0.11956787
1725696427900,2024-09-07T08:07:07.900Z,288165,-0.3552246,-0.87127686,0.09057617
1725696427916,2024-09-07T08:07:07.916Z,288181,-0.34674072,-0.90618896,0.042541504
1725696427930,2024-09-07T08:07:07.930Z,288195,-0.28033447,-0.9230957,0.03656006
1725696428015,2024-09-07T08:07:08.015Z,288280,-0.2774048,-0.9597168,-0.030456543
1725696428028,2024-09-07T08:07:08.028Z,288293,-0.23425293,-0.89727783,-0.07067871
1725696428055,2024-09-07T08:07:08.055Z,288320,-0.20245361,-0.8994751,-0.06011963
1725696428102,2024-09-07T08:07:08.102Z,288367,-0.22167969,-0.88256836,-0.05645752
1725696428147,2024-09-07T08:07:08.147Z,288412,-0.16973877,-0.87298584,-0.0947876
1725696428191,2024-09-07T08:07:08.191Z,288456,-0.17254639,-0.8596802,-0.0635376
1725696428218,2024-09-07T08:07:08.218Z,288483,-0.11975098,-0.84814453,-0.07495117
1725696428238,2024-09-07T08:07:08.238Z,288503,-0.107910156,-0.8195801,-0.07299805
1725696428283,2024-09-07T08:07:08.283Z,288548,-0.16375732,-0.7894287,-0.044433594
1725696428374,2024-09-07T08:07:08.374Z,288639,-0.12591553,-0.767334,-0.076049805
1725696428396,2024-09-07T08:07:08.396Z,288661,-0.15325928,-0.8451538,-0.05218506
1725696428416,2024-09-07T08:07:08.416Z,288681,-0.22052002,-0.8969116,0.005065918
1725696428462,2024-09-07T08:07:08.462Z,288727,-0.21264648,-0.9191284,-0.032226562
1725696428529,2024-09-07T08:07:08.529Z,288794,-0.24987793,-0.9628296,0.030090332
1725696428555,2024-09-07T08:07:08.555Z,288820,-0.32635498,-0.9291382,0.10900879
1725696428598,2024-09-07T08:07:08.598Z,288863,-0.3147583,-0.9140625,0.041503906
1725696428640,2024-09-07T08:07:08.640Z,288905,-0.2980957,-1.0183716,0.0501709
1725696428661,2024-09-07T08:07:08.661Z,288926,-0.3491211,-1.0125732,0.031188965
1725696428684,2024-09-07T08:07:08.684Z,288949,-0.2633667,-0.98931885,-0.0020141602
1725696428730,2024-09-07T08:07:08.730Z,288995,-0.23181152,-0.90740967,-0.018066406
1725696428777,2024-09-07T08:07:08.777Z,289042,-0.2321167,-0.85809326,-0.055236816
1725696428826,2024-09-07T08:07:08.826Z,289091,-0.20135498,-0.8756714,-0.06817627
1725696428867,2024-09-07T08:07:08.867Z,289132,-0.2477417,-0.98168945,-0.0725708
1725696428911,2024-09-07T08:07:08.911Z,289176,-0.25360107,-1.0202026,-0.045959473
1725696429006,2024-09-07T08:07:09.006Z,289271,-0.2520752,-0.96313477,-0.053955078
1725696429042,2024-09-07T08:07:09.042Z,289307,-0.21429443,-0.88049316,-0.073913574
1725696429066,2024-09-07T08:07:09.066Z,289331,-0.20855713,-0.88201904,-0.06951904
1725696429084,2024-09-07T08:07:09.084Z,289349,-0.22088623,-0.9024048,-0.09075928
1725696429181,2024-09-07T08:07:09.181Z,289446,-0.23687744,-0.913208,-0.12298584
1725696429197,2024-09-07T08:07:09.197Z,289462,-0.24731445,-0.9296875,-0.10626221
1725696429210,2024-09-07T08:07:09.210Z,289475,-0.28759766,-0.93792725,-0.12261963
1725696429224,2024-09-07T08:07:09.224Z,289489,-0.29919434,-0.96118164,-0.079711914
1725696429270,2024-09-07T08:07:09.270Z,289535,-0.27850342,-0.9208374,-0.107421875
1725696429315,2024-09-07T08:07:09.315Z,289580,-0.2543335,-0.8892212,-0.14471436
1725696429363,2024-09-07T08:07:09.363Z,289628,-0.24932861,-0.8599243,-0.12731934
1725696429410,2024-09-07T08:07:09.410Z,289675,-0.22131348,-0.9175415,-0.15362549
1725696429451,2024-09-07T08:07:09.451Z,289716,-0.28631592,-0.9232788,-0.13342285
1725696429473,2024-09-07T08:07:09.473Z,289738,-0.28826904,-0.9371338,-0.17608643
1725696429497,2024-09-07T08:07:09.497Z,289762,-0.33789062,-0.93048096,-0.16363525
1725696429541,2024-09-07T08:07:09.541Z,289806,-0.35583496,-0.9282837,-0.15283203
1725696429587,2024-09-07T08:07:09.587Z,289852,-0.3475952,-0.93896484,-0.14263916
1725696429630,2024-09-07T08:07:09.630Z,289895,-0.34783936,-0.8942261,-0.12988281
1725696429679,2024-09-07T08:07:09.679Z,289944,-0.3416748,-0.8626709,-0.12438965
1725696429724,2024-09-07T08:07:09.724Z,289989,-0.32434082,-0.8553467,-0.14343262
1725696429770,2024-09-07T08:07:09.770Z,290035,-0.3616333,-0.88012695,-0.13165283
1725696429810,2024-09-07T08:07:09.810Z,290075,-0.39709473,-0.9312744,-0.17211914
1725696429861,2024-09-07T08:07:09.861Z,290126,-0.40740967,-0.96551514,-0.15045166
1725696429901,2024-09-07T08:07:09.901Z,290166,-0.3684082,-0.9229126,-0.18328857
1725696429927,2024-09-07T08:07:09.927Z,290192,-0.31500244,-0.87615967,-0.16394043
1725696429995,2024-09-07T08:07:09.995Z,290260,-0.34106445,-0.857666,-0.16363525
1725696430015,2024-09-07T08:07:10.015Z,290280,-0.3232422,-0.8434448,-0.11755371
1725696430039,2024-09-07T08:07:10.039Z,290304,-0.3867798,-0.8753052,-0.119018555
1725696430084,2024-09-07T08:07:10.084Z,290349,-0.46258545,-0.86846924,-0.11602783
1725696430124,2024-09-07T08:07:10.124Z,290389,-0.4234619,-0.9099121,-0.1932373
1725696430178,2024-09-07T08:07:10.178Z,290443,-0.44519043,-0.8796387,-0.09631348
1725696430218,2024-09-07T08:07:10.218Z,290483,-0.40429688,-0.8885498,-0.15264893
1725696430261,2024-09-07T08:07:10.261Z,290526,-0.37280273,-0.881897,-0.119262695
1725696430308,2024-09-07T08:07:10.308Z,290573,-0.4111328,-0.90826416,-0.1463623
1725696430331,2024-09-07T08:07:10.331Z,290596,-0.4124756,-0.89923096,-0.091674805
1725696430398,2024-09-07T08:07:10.398Z,290663,-0.4574585,-0.8946533,-0.13049316
1725696430416,2024-09-07T08:07:10.416Z,290681,-0.47485352,-0.8842163,-0.07507324
1725696430440,2024-09-07T08:07:10.440Z,290705,-0.48016357,-0.8739624,-0.07232666
1725696430483,2024-09-07T08:07:10.483Z,290748,-0.44641113,-0.8635254,-0.01776123
1725696430540,2024-09-07T08:07:10.540Z,290805,-0.45361328,-0.8776245,-0.0026855469
1725696430577,2024-09-07T08:07:10.577Z,290842,-0.43811035,-0.9202881,-0.037841797
1725696430623,2024-09-07T08:07:10.623Z,290888,-0.46276855,-0.94610596,-0.0579834
1725696430669,2024-09-07T08:07:10.669Z,290934,-0.4508667,-0.96850586,-0.0048217773
1725696430714,2024-09-07T08:07:10.714Z,290979,-0.4534912,-0.9699707,0.022521973
1725696430740,2024-09-07T08:07:10.740Z,291005,-0.40185547,-0.9708252,-0.008422852
1725696430760,2024-09-07T08:07:10.760Z,291025,-0.3461914,-0.9574585,-0.035583496
1725696430800,2024-09-07T08:07:10.800Z,291065,-0.30810547,-0.99224854,-0.012329102
1725696430855,2024-09-07T08:07:10.855Z,291120,-0.34100342,-1.0065918,0.024841309
1725696430894,2024-09-07T08:07:10.894Z,291159,-0.32092285,-0.9729004,0.038635254
1725696430950,2024-09-07T08:07:10.950Z,291215,-0.30303955,-0.9584961,0.047058105
1725696431034,2024-09-07T08:07:11.034Z,291299,-0.31567383,-0.9387207,0.057922363
1725696431066,2024-09-07T08:07:11.066Z,291331,-0.29833984,-0.9163208,0.06451416
1725696431092,2024-09-07T08:07:11.092Z,291357,-0.29022217,-0.9345703,0.08227539
1725696431116,2024-09-07T08:07:11.116Z,291381,-0.27386475,-0.92492676,0.16314697
1725696431208,2024-09-07T08:07:11.208Z,291473,-0.26916504,-0.9259033,0.19989014
1725696431230,2024-09-07T08:07:11.230Z,291495,-0.2526245,-0.9359131,0.16259766
1725696431255,2024-09-07T08:07:11.255Z,291520,-0.26123047,-0.96118164,0.14550781
1725696431274,2024-09-07T08:07:11.274Z,291539,-0.23583984,-0.9831543,0.15625
1725696431296,2024-09-07T08:07:11.296Z,291561,-0.253479,-1.0178833,0.17352295
1725696431341,2024-09-07T08:07:11.341Z,291606,-0.2390747,-1.0335083,0.1161499
1725696431386,2024-09-07T08:07:11.386Z,291651,-0.23504639,-1.0540771,0.11517334
1725696431441,2024-09-07T08:07:11.441Z,291706,-0.22839355,-1.0481567,0.10424805
1725696431478,2024-09-07T08:07:11.478Z,291743,-0.20147705,-1.0189819,0.101135254
1725696431522,2024-09-07T08:07:11.522Z,291787,-0.19134521,-1.0030518,0.11694336
1725696431563,2024-09-07T08:07:11.563Z,291828,-0.18890381,-0.9968872,0.120788574
1725696431687,2024-09-07T08:07:11.687Z,291952,-0.17700195,-0.9909668,0.107177734
1725696431712,2024-09-07T08:07:11.712Z,291977,-0.18182373,-0.9819946,0.08013916
1725696431735,2024-09-07T08:07:11.735Z,292000,-0.18371582,-0.9944458,0.08380127
1725696431753,2024-09-07T08:07:11.753Z,292018,-0.19873047,-0.98828125,0.10455322
1725696431768,2024-09-07T08:07:11.768Z,292033,-0.18182373,-0.9633179,0.08496094
1725696431795,2024-09-07T08:07:11.795Z,292060,-0.18292236,-0.93115234,0.0690918
1725696431835,2024-09-07T08:07:11.835Z,292100,-0.18383789,-0.9188843,0.076293945
1725696431884,2024-09-07T08:07:11.884Z,292149,-0.19372559,-0.9260254,0.07208252
1725696431931,2024-09-07T08:07:11.931Z,292196,-0.20220947,-0.9369507,0.08239746
1725696431977,2024-09-07T08:07:11.977Z,292242,-0.19769287,-0.96746826,0.040100098
1725696432006,2024-09-07T08:07:12.006Z,292271,-0.20629883,-1.0004883,0.07183838
1725696432026,2024-09-07T08:07:12.026Z,292291,-0.22088623,-1.0192261,0.09375
1725696432062,2024-09-07T08:07:12.062Z,292327,-0.21582031,-1.0250854,0.08459473
1725696432108,2024-09-07T08:07:12.108Z,292373,-0.23834229,-1.0790405,0.10070801
1725696432149,2024-09-07T08:07:12.149Z,292414,-0.29040527,-1.1681519,0.12475586
1725696432202,2024-09-07T08:07:12.202Z,292467,-0.2956543,-1.1960449,0.11828613
1725696432246,2024-09-07T08:07:12.246Z,292511,-0.29071045,-1.1524658,0.13183594
1725696432285,2024-09-07T08:07:12.285Z,292550,-0.2911377,-1.1099854,0.13580322
1725696432381,2024-09-07T08:07:12.381Z,292646,-0.3125,-1.0802612,0.14654541
1725696432413,2024-09-07T08:07:12.413Z,292678,-0.33343506,-1.0299072,0.13439941
1725696432438,2024-09-07T08:07:12.438Z,292703,-0.35339355,-1.0198975,0.1517334
1725696432459,2024-09-07T08:07:12.459Z,292724,-0.36779785,-0.98114014,0.13635254
1725696432475,2024-09-07T08:07:12.475Z,292740,-0.3786621,-0.9349365,0.0769043
1725696432509,2024-09-07T08:07:12.509Z,292774,-0.3909912,-0.9227295,0.027770996
1725696432654,2024-09-07T08:07:12.654Z,292919,-0.42260742,-0.9622803,0.042541504
1725696432687,2024-09-07T08:07:12.687Z,292952,-0.46624756,-0.93847656,0.06756592
1725696432714,2024-09-07T08:07:12.714Z,292979,-0.4229126,-0.901001,-0.050354004
1725696432735,2024-09-07T08:07:12.735Z,293000,-0.42370605,-0.8779907,0.015197754
1725696432752,2024-09-07T08:07:12.752Z,293017,-0.46801758,-0.8756714,-0.037719727
1725696432779,2024-09-07T08:07:12.779Z,293044,-0.41864014,-0.84729004,-0.07952881
1725696432825,2024-09-07T08:07:12.825Z,293090,-0.43658447,-0.8631592,-0.090026855
1725696432847,2024-09-07T08:07:12.847Z,293112,-0.4473877,-0.89886475,-0.06097412
1725696432876,2024-09-07T08:07:12.876Z,293141,-0.44958496,-0.8792114,-0.05041504
1725696432964,2024-09-07T08:07:12.964Z,293229,-0.4232788,-0.8617554,-0.04840088
1725696432982,2024-09-07T08:07:12.982Z,293247,-0.41314697,-0.8327637,-0.06298828
1725696433006,2024-09-07T08:07:13.006Z,293271,-0.35546875,-0.82025146,-0.094177246
1725696433052,2024-09-07T08:07:13.052Z,293317,-0.3092041,-0.8344116,-0.07684326
1725696433106,2024-09-07T08:07:13.106Z,293371,-0.2836914,-0.84698486,-0.03137207
1725696433145,2024-09-07T08:07:13.145Z,293410,-0.23980713,-0.8290405,-0.03967285
1725696433188,2024-09-07T08:07:13.188Z,293453,-0.22052002,-0.8456421,-0.09222412
1725696433230,2024-09-07T08:07:13.230Z,293495,-0.21234131,-0.8673096,0.022644043
1725696433250,2024-09-07T08:07:13.250Z,293515,-0.19866943,-0.88635254,-0.012878418
1725696433274,2024-09-07T08:07:13.274Z,293539,-0.12097168,-0.8691406,-0.04046631
1725696433320,2024-09-07T08:07:13.320Z,293585,-0.19946289,-0.86712646,-0.041259766
1725696433368,2024-09-07T08:07:13.368Z,293633,-0.16467285,-0.8441162,0.0073242188
1725696433412,2024-09-07T08:07:13.412Z,293677,-0.1843872,-0.8739624,-0.05987549
1725696433459,2024-09-07T08:07:13.459Z,293724,-0.2230835,-0.90997314,0.002380371
1725696433499,2024-09-07T08:07:13.499Z,293764,-0.24005127,-0.89941406,0.020690918
1725696433554,2024-09-07T08:07:13.554Z,293819,-0.23754883,-0.8689575,-0.04534912
1725696433590,2024-09-07T08:07:13.590Z,293855,-0.28894043,-0.9239502,-0.0036621094
1725696433635,2024-09-07T08:07:13.635Z,293900,-0.2701416,-0.9699707,0.008300781
1725696433688,2024-09-07T08:07:13.688Z,293953,-0.2545166,-0.9849243,0.008544922
1725696433712,2024-09-07T08:07:13.712Z,293977,-0.27075195,-0.9384155,0.011779785
1725696433738,2024-09-07T08:07:13.738Z,294003,-0.22497559,-0.9468384,-0.010559082
1725696433770,2024-09-07T08:07:13.770Z,294035,-0.21173096,-0.9560547,0.0037231445
1725696433817,2024-09-07T08:07:13.817Z,294082,-0.22320557,-0.96728516,0.006286621
1725696433862,2024-09-07T08:07:13.862Z,294127,-0.21661377,-0.92755127,-0.013916016
1725696433910,2024-09-07T08:07:13.910Z,294175,-0.23278809,-0.8692627,-0.016052246
1725696433948,2024-09-07T08:07:13.948Z,294213,-0.24554443,-0.84814453,-0.046569824
1725696433996,2024-09-07T08:07:13.996Z,294261,-0.25476074,-0.9190674,-0.028625488
1725696434043,2024-09-07T08:07:14.043Z,294308,-0.2814331,-0.91729736,-0.057128906
1725696434093,2024-09-07T08:07:14.093Z,294358,-0.24829102,-0.913147,-0.048339844
1725696434120,2024-09-07T08:07:14.120Z,294385,-0.28204346,-0.9089966,-0.049926758
1725696434143,2024-09-07T08:07:14.143Z,294408,-0.23284912,-0.9205322,-0.029846191
1725696434175,2024-09-07T08:07:14.175Z,294440,-0.26135254,-0.9191284,-0.034118652
1725696434224,2024-09-07T08:07:14.224Z,294489,-0.2446289,-0.8894043,-0.02319336
1725696434267,2024-09-07T08:07:14.267Z,294532,-0.27972412,-0.88690186,-0.033325195
1725696434311,2024-09-07T08:07:14.311Z,294576,-0.2705078,-0.8670654,-0.05657959
1725696434410,2024-09-07T08:07:14.410Z,294675,-0.2932129,-0.9175415,-0.0635376
1725696434443,2024-09-07T08:07:14.443Z,294708,-0.33813477,-0.93414307,-0.04119873
1725696434469,2024-09-07T08:07:14.469Z,294734,-0.3125,-0.9616699,-0.107788086
1725696434493,2024-09-07T08:07:14.493Z,294758,-0.33862305,-0.93481445,-0.03338623
1725696434509,2024-09-07T08:07:14.509Z,294774,-0.32940674,-0.90405273,-0.06817627
1725696434535,2024-09-07T08:07:14.535Z,294800,-0.32720947,-0.8776245,-0.03137207
1725696434580,2024-09-07T08:07:14.580Z,294845,-0.31829834,-0.8567505,-0.117126465
1725696434626,2024-09-07T08:07:14.626Z,294891,-0.3623047,-0.90319824,-0.0154418945
1725696434719,2024-09-07T08:07:14.719Z,294984,-0.41235352,-0.8895874,-0.074401855
1725696434788,2024-09-07T08:07:14.788Z,295053,-0.4136963,-0.89990234,-0.10406494
1725696434830,2024-09-07T08:07:14.830Z,295095,-0.4121704,-0.9034424,-0.11645508
1725696434859,2024-09-07T08:07:14.859Z,295124,-0.39575195,-0.90460205,-0.062194824
1725696434881,2024-09-07T08:07:14.881Z,295146,-0.37213135,-0.87475586,-0.14263916
1725696434904,2024-09-07T08:07:14.904Z,295169,-0.38110352,-0.9135132,-0.1427002
1725696434939,2024-09-07T08:07:14.939Z,295204,-0.39886475,-0.9265747,-0.11773682
1725696434954,2024-09-07T08:07:14.954Z,295219,-0.45147705,-0.95739746,-0.16516113
1725696434989,2024-09-07T08:07:14.989Z,295254,-0.4274292,-0.9449463,-0.17126465
1725696435034,2024-09-07T08:07:15.034Z,295299,-0.4239502,-0.8890381,-0.18292236
1725696435075,2024-09-07T08:07:15.075Z,295340,-0.37158203,-0.84381104,-0.17675781
1725696435122,2024-09-07T08:07:15.122Z,295387,-0.37200928,-0.8331299,-0.1585083
1725696435168,2024-09-07T08:07:15.168Z,295433,-0.3864746,-0.87145996,-0.12506104
1725696435259,2024-09-07T08:07:15.259Z,295524,-0.42016602,-0.90838623,-0.10638428
1725696435283,2024-09-07T08:07:15.283Z,295548,-0.40093994,-0.8954468,-0.12579346
1725696435309,2024-09-07T08:07:15.309Z,295574,-0.38171387,-0.89733887,-0.092163086
1725696435394,2024-09-07T08:07:15.394Z,295659,-0.38085938,-0.901062,-0.031066895
1725696435417,2024-09-07T08:07:15.417Z,295682,-0.35473633,-0.9333496,1.2207031E-4
1725696435437,2024-09-07T08:07:15.437Z,295702,-0.33770752,-0.95391846,-0.034240723
1725696435453,2024-09-07T08:07:15.453Z,295718,-0.30700684,-0.96191406,-0.0041503906
1725696435480,2024-09-07T08:07:15.480Z,295745,-0.35614014,-1.0108643,0.0095825195
1725696435523,2024-09-07T08:07:15.523Z,295788,-0.34765625,-1.0320435,0.043640137
1725696435573,2024-09-07T08:07:15.573Z,295838,-0.3770752,-1.086792,0.080322266
1725696435623,2024-09-07T08:07:15.623Z,295888,-0.36108398,-1.0620728,0.11401367
1725696435663,2024-09-07T08:07:15.663Z,295928,-0.29919434,-1.0291138,0.07849121
1725696435708,2024-09-07T08:07:15.708Z,295973,-0.3026123,-1.0163574,0.13305664
1725696435753,2024-09-07T08:07:15.753Z,296018,-0.24475098,-0.98358154,0.14990234
1725696435778,2024-09-07T08:07:15.778Z,296043,-0.2076416,-0.9515991,0.108947754
1725696435798,2024-09-07T08:07:15.798Z,296063,-0.19433594,-0.947937,0.14807129
1725696435839,2024-09-07T08:07:15.839Z,296104,-0.18737793,-0.99298096,0.15258789
1725696435936,2024-09-07T08:07:15.936Z,296201,-0.1875,-1.0285034,0.11633301
1725696435982,2024-09-07T08:07:15.982Z,296247,-0.1564331,-1.0101929,0.15863037
1725696436012,2024-09-07T08:07:16.012Z,296277,-0.21502686,-1.0126953,0.1605835
1725696436066,2024-09-07T08:07:16.066Z,296331,-0.19946289,-0.9940796,0.14807129
1725696436091,2024-09-07T08:07:16.091Z,296356,-0.21984863,-0.9852295,0.093933105
1725696436111,2024-09-07T08:07:16.111Z,296376,-0.24304199,-0.95355225,0.13787842
1725696436167,2024-09-07T08:07:16.167Z,296432,-0.25238037,-0.96136475,0.11053467
1725696436202,2024-09-07T08:07:16.202Z,296467,-0.26037598,-0.947876,0.12756348
1725696436222,2024-09-07T08:07:16.222Z,296487,-0.25079346,-0.95062256,0.09643555
1725696436245,2024-09-07T08:07:16.245Z,296510,-0.23669434,-0.9454956,0.11480713
1725696436295,2024-09-07T08:07:16.295Z,296560,-0.24084473,-0.9585571,0.10595703
1725696436347,2024-09-07T08:07:16.347Z,296612,-0.21832275,-0.96417236,0.1260376
1725696436383,2024-09-07T08:07:16.383Z,296648,-0.21716309,-0.97735596,0.104003906
1725696436428,2024-09-07T08:07:16.428Z,296693,-0.21594238,-0.9862671,0.11767578
1725696436474,2024-09-07T08:07:16.474Z,296739,-0.19714355,-0.98046875,0.140625
1725696436518,2024-09-07T08:07:16.518Z,296783,-0.21350098,-0.9793701,0.12872314
1725696436614,2024-09-07T08:07:16.614Z,296879,-0.19805908,-0.9685669,0.13775635
1725696436649,2024-09-07T08:07:16.649Z,296914,-0.20239258,-0.9621582,0.11755371
1725696436673,2024-09-07T08:07:16.673Z,296938,-0.19970703,-0.9719238,0.12866211
1725696436693,2024-09-07T08:07:16.693Z,296958,-0.2354126,-1.0187378,0.13775635
1725696436708,2024-09-07T08:07:16.708Z,296973,-0.25549316,-1.0944214,0.14813232
1725696436739,2024-09-07T08:07:16.739Z,297004,-0.28631592,-1.1309814,0.13317871
1725696436784,2024-09-07T08:07:16.784Z,297049,-0.2937622,-1.1375732,0.14385986
1725696436830,2024-09-07T08:07:16.830Z,297095,-0.31732178,-1.1242676,0.16339111
1725696436882,2024-09-07T08:07:16.882Z,297147,-0.32122803,-1.1148682,0.12225342
1725696436921,2024-09-07T08:07:16.921Z,297186,-0.30877686,-1.0637817,0.12567139
1725696436970,2024-09-07T08:07:16.970Z,297235,-0.33428955,-1.029419,0.11376953
1725696437017,2024-09-07T08:07:17.017Z,297282,-0.34179688,-1.0181885,0.13348389
1725696437032,2024-09-07T08:07:17.032Z,297297,-0.38360596,-1.0118408,0.11315918
1725696437054,2024-09-07T08:07:17.054Z,297319,-0.36169434,-0.9649658,0.10809326
1725696437100,2024-09-07T08:07:17.100Z,297365,-0.4189453,-0.95184326,0.11102295
1725696437146,2024-09-07T08:07:17.146Z,297411,-0.42510986,-0.9286499,0.13977051
1725696437196,2024-09-07T08:07:17.196Z,297461,-0.44049072,-0.90893555,0.066589355
1725696437236,2024-09-07T08:07:17.236Z,297501,-0.42694092,-0.8690796,0.023620605
1725696437334,2024-09-07T08:07:17.334Z,297599,-0.43945312,-0.8607788,0.061950684
1725696437373,2024-09-07T08:07:17.373Z,297638,-0.4605713,-0.82922363,0.035217285
1725696437397,2024-09-07T08:07:17.397Z,297662,-0.43133545,-0.82073975,-0.013122559
1725696437423,2024-09-07T08:07:17.423Z,297688,-0.44476318,-0.83221436,-0.11151123
1725696437462,2024-09-07T08:07:17.462Z,297727,-0.4533081,-0.89282227,-0.040039062
1725696437480,2024-09-07T08:07:17.480Z,297745,-0.461792,-0.93395996,-0.05645752
1725696437504,2024-09-07T08:07:17.504Z,297769,-0.42016602,-0.9025879,-0.08831787
1725696437550,2024-09-07T08:07:17.550Z,297815,-0.3937378,-0.87213135,-0.07116699
1725696437601,2024-09-07T08:07:17.601Z,297866,-0.3737793,-0.85491943,-0.0881958
1725696437644,2024-09-07T08:07:17.644Z,297909,-0.38867188,-0.8609619,-0.060058594
1725696437687,2024-09-07T08:07:17.687Z,297952,-0.35186768,-0.87316895,-0.06518555
1725696437740,2024-09-07T08:07:17.740Z,298005,-0.35986328,-0.9139404,-0.05456543
1725696437776,2024-09-07T08:07:17.776Z,298041,-0.3334961,-0.9053955,-0.048950195
1725696437825,2024-09-07T08:07:17.825Z,298090,-0.29229736,-0.8835449,-0.044311523
1725696437865,2024-09-07T08:07:17.865Z,298130,-0.25512695,-0.8668213,-0.038879395
1725696437893,2024-09-07T08:07:17.893Z,298158,-0.17132568,-0.8496094,-0.044799805
1725696437959,2024-09-07T08:07:17.959Z,298224,-0.16540527,-0.86035156,-0.0095825195
1725696437985,2024-09-07T08:07:17.985Z,298250,-0.13635254,-0.8231201,-0.0015258789
1725696438055,2024-09-07T08:07:18.055Z,298320,-0.14709473,-0.7994385,-0.03778076
1725696438086,2024-09-07T08:07:18.086Z,298351,-0.14459229,-0.7785034,-0.06878662
1725696438112,2024-09-07T08:07:18.112Z,298377,-0.1482544,-0.8278198,-0.040161133
1725696438139,2024-09-07T08:07:18.139Z,298404,-0.19763184,-0.9185791,-0.047973633
1725696438180,2024-09-07T08:07:18.180Z,298445,-0.2088623,-0.9483032,-0.041503906
1725696438230,2024-09-07T08:07:18.230Z,298495,-0.22131348,-0.9707031,-0.048828125
1725696438270,2024-09-07T08:07:18.270Z,298535,-0.21624756,-1.0114746,-0.028442383
1725696438296,2024-09-07T08:07:18.296Z,298561,-0.23461914,-0.96777344,0.0211792
1725696438315,2024-09-07T08:07:18.315Z,298580,-0.19976807,-0.8960571,-0.033813477
1725696438372,2024-09-07T08:07:18.372Z,298637,-0.1675415,-0.90802,-0.05078125
1725696438405,2024-09-07T08:07:18.405Z,298670,-0.22924805,-1.0219116,0.030029297
1725696438453,2024-09-07T08:07:18.453Z,298718,-0.20843506,-1.0258179,-0.012451172
1725696438518,2024-09-07T08:07:18.518Z,298783,-0.19244385,-0.9524536,-0.051574707
1725696438544,2024-09-07T08:07:18.544Z,298809,-0.2446289,-0.92614746,0.019226074
1725696438583,2024-09-07T08:07:18.583Z,298848,-0.21716309,-0.9147949,-4.8828125E-4
1725696438638,2024-09-07T08:07:18.638Z,298903,-0.23382568,-0.87872314,6.1035156E-4
1725696438675,2024-09-07T08:07:18.675Z,298940,-0.234375,-0.87939453,-0.006713867
1725696438721,2024-09-07T08:07:18.721Z,298986,-0.24243164,-0.8725586,-0.025268555
1725696438742,2024-09-07T08:07:18.742Z,299007,-0.22155762,-0.91656494,-0.057006836
1725696438764,2024-09-07T08:07:18.764Z,299029,-0.2536621,-0.9088745,-0.02947998
1725696438811,2024-09-07T08:07:18.811Z,299076,-0.2290039,-0.8911743,-0.075927734
1725696438857,2024-09-07T08:07:18.857Z,299122,-0.21179199,-0.92022705,-0.09875488
1725696438901,2024-09-07T08:07:18.901Z,299166,-0.28167725,-0.9281616,0.046691895
1725696439002,2024-09-07T08:07:19.002Z,299267,-0.28497314,-0.8977051,0.019470215
1725696439038,2024-09-07T08:07:19.038Z,299303,-0.23779297,-0.878479,-0.07006836
1725696439054,2024-09-07T08:07:19.054Z,299319,-0.2765503,-0.8944092,-0.027648926
1725696439079,2024-09-07T08:07:19.079Z,299344,-0.25042725,-0.9226074,-0.04736328
1725696439128,2024-09-07T08:07:19.128Z,299393,-0.2977295,-0.9213257,0.006225586
1725696439147,2024-09-07T08:07:19.147Z,299412,-0.2796631,-0.91290283,-0.034484863
1725696439169,2024-09-07T08:07:19.169Z,299434,-0.2886963,-0.9082031,-0.034301758
1725696439217,2024-09-07T08:07:19.217Z,299482,-0.30218506,-0.91259766,0.007507324
1725696439263,2024-09-07T08:07:19.263Z,299528,-0.28912354,-0.91937256,-0.03894043
1725696439354,2024-09-07T08:07:19.354Z,299619,-0.31256104,-0.9229126,0.0087890625
1725696439377,2024-09-07T08:07:19.377Z,299642,-0.3404541,-0.9403076,-0.0065307617
1725696439397,2024-09-07T08:07:19.397Z,299662,-0.36328125,-0.9540405,-0.046936035
1725696439443,2024-09-07T08:07:19.443Z,299708,-0.355896,-0.9304199,-0.05407715
1725696439535,2024-09-07T08:07:19.535Z,299800,-0.3597412,-0.8994751,-0.0095825195
1725696439556,2024-09-07T08:07:19.556Z,299821,-0.36364746,-0.87957764,0.009155273
1725696439579,2024-09-07T08:07:19.579Z,299844,-0.3862915,-0.91619873,-0.05255127
1725696439601,2024-09-07T08:07:19.601Z,299866,-0.4404297,-0.96533203,-0.015136719
1725696439619,2024-09-07T08:07:19.619Z,299884,-0.44683838,-0.9480591,-0.11364746
1725696439665,2024-09-07T08:07:19.665Z,299930,-0.42138672,-0.90270996,-0.042114258
1725696439712,2024-09-07T08:07:19.712Z,299977,-0.42163086,-0.8951416,-0.11975098
1725696439764,2024-09-07T08:07:19.764Z,300029,-0.41015625,-0.9370117,-0.06738281
1725696439855,2024-09-07T08:07:19.855Z,300120,-0.4491577,-0.91674805,-0.07867432
1725696439889,2024-09-07T08:07:19.889Z,300154,-0.42749023,-0.9015503,-0.06506348
1725696439991,2024-09-07T08:07:19.991Z,300256,-0.45806885,-0.90319824,-0.1149292
1725696440025,2024-09-07T08:07:20.025Z,300290,-0.47662354,-0.9019165,-0.08465576
1725696440051,2024-09-07T08:07:20.051Z,300316,-0.50335693,-0.91534424,-0.084228516
1725696440080,2024-09-07T08:07:20.080Z,300345,-0.45965576,-0.86694336,-0.056274414
1725696440095,2024-09-07T08:07:20.095Z,300360,-0.4187622,-0.8356323,-0.036315918
1725696440108,2024-09-07T08:07:20.108Z,300373,-0.41412354,-0.8475342,0.040527344
1725696440124,2024-09-07T08:07:20.124Z,300389,-0.44195557,-0.88360596,0.04437256
1725696440158,2024-09-07T08:07:20.158Z,300423,-0.4613037,-0.9273071,0.08465576
1725696440204,2024-09-07T08:07:20.204Z,300469,-0.47894287,-0.9354248,0.037902832
1725696440252,2024-09-07T08:07:20.252Z,300517,-0.4541626,-0.92944336,0.051330566
1725696440298,2024-09-07T08:07:20.298Z,300563,-0.43225098,-0.92596436,0.018676758
1725696440342,2024-09-07T08:07:20.342Z,300607,-0.39611816,-0.96380615,0.029296875
1725696440387,2024-09-07T08:07:20.387Z,300652,-0.37817383,-0.9904175,0.09649658
1725696440406,2024-09-07T08:07:20.406Z,300671,-0.3706665,-0.987854,0.0680542
1725696440433,2024-09-07T08:07:20.433Z,300698,-0.33190918,-0.9660034,0.07702637
1725696440475,2024-09-07T08:07:20.475Z,300740,-0.3250122,-0.9564209,0.117248535
1725696440522,2024-09-07T08:07:20.522Z,300787,-0.31048584,-0.9319458,0.108947754
1725696440566,2024-09-07T08:07:20.566Z,300831,-0.29821777,-0.9257202,0.13464355
1725696440617,2024-09-07T08:07:20.617Z,300882,-0.30334473,-0.9380493,0.1272583
1725696440658,2024-09-07T08:07:20.658Z,300923,-0.30090332,-0.9777832,0.1138916
1725696440754,2024-09-07T08:07:20.754Z,301019,-0.2836914,-1.0056152,0.12670898
1725696440789,2024-09-07T08:07:20.789Z,301054,-0.3093872,-1.0471191,0.16113281
1725696440814,2024-09-07T08:07:20.814Z,301079,-0.2949829,-1.036438,0.1473999
1725696440833,2024-09-07T08:07:20.833Z,301098,-0.25872803,-1.0006104,0.12689209
1725696440849,2024-09-07T08:07:20.849Z,301114,-0.23101807,-0.9606323,0.1281128
1725696440878,2024-09-07T08:07:20.878Z,301143,-0.20391846,-0.9380493,0.13397217
1725696440925,2024-09-07T08:07:20.925Z,301190,-0.21765137,-0.94000244,0.13726807
1725696440970,2024-09-07T08:07:20.970Z,301235,-0.2052002,-0.9607544,0.11352539
1725696441014,2024-09-07T08:07:21.014Z,301279,-0.2008667,-0.9748535,0.10650635
1725696441065,2024-09-07T08:07:21.065Z,301330,-0.22973633,-0.99432373,0.14569092
1725696441105,2024-09-07T08:07:21.105Z,301370,-0.1842041,-0.9640503,0.15527344
1725696441158,2024-09-07T08:07:21.158Z,301423,-0.171875,-0.9362793,0.11151123
1725696441201,2024-09-07T08:07:21.201Z,301466,-0.17926025,-0.9361572,0.13378906
1725696441240,2024-09-07T08:07:21.240Z,301505,-0.18615723,-0.96099854,0.15338135
1725696441260,2024-09-07T08:07:21.260Z,301525,-0.1875,-0.98046875,0.13415527
1725696441283,2024-09-07T08:07:21.283Z,301548,-0.1921997,-0.9908447,0.13903809
1725696441332,2024-09-07T08:07:21.332Z,301597,-0.17956543,-0.9748535,0.16436768
1725696441375,2024-09-07T08:07:21.375Z,301640,-0.17944336,-0.9522705,0.15142822
1725696441420,2024-09-07T08:07:21.420Z,301685,-0.17663574,-0.9370117,0.16223145
1725696441475,2024-09-07T08:07:21.475Z,301740,-0.17755127,-0.94744873,0.15496826
1725696441511,2024-09-07T08:07:21.511Z,301776,-0.2062378,-0.9697876,0.15264893
1725696441553,2024-09-07T08:07:21.553Z,301818,-0.20367432,-0.9789429,0.15826416
1725696441603,2024-09-07T08:07:21.603Z,301868,-0.23339844,-1.0026245,0.15252686
1725696441650,2024-09-07T08:07:21.650Z,301915,-0.23834229,-1.0344849,0.14276123
1725696441678,2024-09-07T08:07:21.678Z,301943,-0.2786255,-1.0929565,0.1619873
1725696441700,2024-09-07T08:07:21.700Z,301965,-0.29663086,-1.1352539,0.17584229
1725696441783,2024-09-07T08:07:21.783Z,302048,-0.29156494,-1.1327515,0.17163086
1725696441803,2024-09-07T08:07:21.803Z,302068,-0.27844238,-1.0768433,0.15258789
1725696441825,2024-09-07T08:07:21.825Z,302090,-0.309021,-1.0463867,0.16143799
1725696441869,2024-09-07T08:07:21.869Z,302134,-0.30786133,-1.0307617,0.14355469
1725696441919,2024-09-07T08:07:21.919Z,302184,-0.34094238,-1.0043335,0.17687988
1725696441967,2024-09-07T08:07:21.967Z,302232,-0.35473633,-0.986084,0.14001465
1725696442016,2024-09-07T08:07:22.016Z,302281,-0.36419678,-0.9841919,0.17126465
1725696442050,2024-09-07T08:07:22.050Z,302315,-0.33843994,-0.9463501,0.15289307
1725696442067,2024-09-07T08:07:22.067Z,302332,-0.36065674,-0.9072876,0.087402344
1725696442093,2024-09-07T08:07:22.093Z,302358,-0.36071777,-0.9136963,0.08630371
1725696442142,2024-09-07T08:07:22.142Z,302407,-0.41174316,-0.9281616,0.09509277
1725696442191,2024-09-07T08:07:22.191Z,302456,-0.41607666,-0.92626953,0.12384033
1725696442230,2024-09-07T08:07:22.230Z,302495,-0.42871094,-0.92767334,0.051086426
1725696442275,2024-09-07T08:07:22.275Z,302540,-0.43237305,-0.9505005,0.044555664
1725696442347,2024-09-07T08:07:22.347Z,302612,-0.47332764,-0.94329834,0.028442383
1725696442375,2024-09-07T08:07:22.375Z,302640,-0.4432373,-0.9092407,0.004638672
1725696442409,2024-09-07T08:07:22.409Z,302674,-0.458313,-0.90979004,-0.008972168
1725696442502,2024-09-07T08:07:22.502Z,302767,-0.41253662,-0.88757324,-0.044006348
1725696442522,2024-09-07T08:07:22.522Z,302787,-0.4050293,-0.87060547,-0.042053223
1725696442544,2024-09-07T08:07:22.544Z,302809,-0.39892578,-0.8512573,-0.02154541
1725696442563,2024-09-07T08:07:22.563Z,302828,-0.40246582,-0.84161377,-0.0357666
1725696442639,2024-09-07T08:07:22.639Z,302904,-0.3984375,-0.83807373,-0.046142578
1725696442656,2024-09-07T08:07:22.656Z,302921,-0.39434814,-0.82073975,-0.07562256
1725696442681,2024-09-07T08:07:22.681Z,302946,-0.40252686,-0.8201904,-0.04522705
1725696442734,2024-09-07T08:07:22.734Z,302999,-0.3737793,-0.8270874,-0.05230713
1725696442771,2024-09-07T08:07:22.771Z,303036,-0.32861328,-0.8206177,-0.1005249
1725696442916,2024-09-07T08:07:22.916Z,303181,-0.30389404,-0.8730469,-0.08557129
1725696442949,2024-09-07T08:07:22.949Z,303214,-0.26538086,-0.8798828,-0.06274414
1725696442977,2024-09-07T08:07:22.977Z,303242,-0.23071289,-0.8829346,-0.040527344
1725696442998,2024-09-07T08:07:22.998Z,303263,-0.21356201,-0.8810425,-0.023986816
1725696443015,2024-09-07T08:07:23.015Z,303280,-0.17614746,-0.8416748,-0.02960205
1725696443030,2024-09-07T08:07:23.030Z,303295,-0.19293213,-0.87072754,-0.018676758
1725696443085,2024-09-07T08:07:23.085Z,303350,-0.23114014,-0.8751831,0.030456543
1725696443104,2024-09-07T08:07:23.104Z,303369,-0.23803711,-0.8522339,-0.016662598
1725696443130,2024-09-07T08:07:23.130Z,303395,-0.25238037,-0.84332275,-0.019592285
1725696443173,2024-09-07T08:07:23.173Z,303438,-0.25042725,-0.88323975,-0.0017089844
1725696443221,2024-09-07T08:07:23.221Z,303486,-0.24572754,-0.935791,-0.013793945
1725696443276,2024-09-07T08:07:23.276Z,303541,-0.25128174,-0.94628906,-0.051757812
1725696443311,2024-09-07T08:07:23.311Z,303576,-0.26837158,-0.99017334,0.04058838
1725696443340,2024-09-07T08:07:23.340Z,303605,-0.25476074,-1.0054932,-0.01171875
1725696443358,2024-09-07T08:07:23.358Z,303623,-0.24365234,-0.98095703,0.0368042
1725696443403,2024-09-07T08:07:23.403Z,303668,-0.24414062,-0.88427734,0.06506348
1725696443445,2024-09-07T08:07:23.445Z,303710,-0.22387695,-0.91381836,-0.029785156
1725696443491,2024-09-07T08:07:23.491Z,303756,-0.2524414,-1.0079346,0.040161133
1725696443543,2024-09-07T08:07:23.543Z,303808,-0.25543213,-1.0178223,0.03515625
1725696443580,2024-09-07T08:07:23.580Z,303845,-0.24053955,-0.95306396,-0.027832031
1725696443631,2024-09-07T08:07:23.631Z,303896,-0.2578125,-0.9086304,1.2207031E-4
1725696443670,2024-09-07T08:07:23.670Z,303935,-0.23760986,-0.88586426,0.004333496
1725696443717,2024-09-07T08:07:23.717Z,303982,-0.2543335,-0.86590576,-0.04449463
1725696443741,2024-09-07T08:07:23.741Z,304006,-0.25567627,-0.85943604,0.0033569336
1725696443759,2024-09-07T08:07:23.759Z,304024,-0.27069092,-0.84313965,-0.060791016
1725696443805,2024-09-07T08:07:23.805Z,304070,-0.26843262,-0.8829956,-0.049926758
1725696443897,2024-09-07T08:07:23.897Z,304162,-0.29431152,-0.9191284,-0.055664062
1725696443912,2024-09-07T08:07:23.912Z,304177,-0.2836914,-0.9180298,-0.09741211
1725696443942,2024-09-07T08:07:23.942Z,304207,-0.31140137,-0.9158325,-0.058410645
1725696443986,2024-09-07T08:07:23.986Z,304251,-0.31158447,-0.8781738,-0.14337158
1725696444031,2024-09-07T08:07:24.031Z,304296,-0.33654785,-0.8751831,-0.1104126
1725696444078,2024-09-07T08:07:24.078Z,304343,-0.37408447,-0.90515137,-0.09820557
1725696444126,2024-09-07T08:07:24.126Z,304391,-0.40856934,-0.88616943,-0.09313965
1725696444168,2024-09-07T08:07:24.168Z,304433,-0.38842773,-0.86206055,-0.14404297
1725696444198,2024-09-07T08:07:24.198Z,304463,-0.4050293,-0.869751,-0.080078125
1725696444219,2024-09-07T08:07:24.219Z,304484,-0.43139648,-0.9067993,-0.12237549
1725696444258,2024-09-07T08:07:24.258Z,304523,-0.45599365,-0.9272461,-0.05609131
1725696444301,2024-09-07T08:07:24.301Z,304566,-0.4375,-0.86535645,-0.13336182
1725696444352,2024-09-07T08:07:24.352Z,304617,-0.4133911,-0.796875,-0.048034668
1725696444393,2024-09-07T08:07:24.393Z,304658,-0.4413452,-0.76953125,-0.13977051
1725696444441,2024-09-07T08:07:24.441Z,304706,-0.44158936,-0.8093872,-0.078430176
1725696444482,2024-09-07T08:07:24.482Z,304747,-0.5199585,-0.8527832,-0.10784912
1725696444533,2024-09-07T08:07:24.533Z,304798,-0.49664307,-0.8479004,-0.16040039
1725696444573,2024-09-07T08:07:24.573Z,304838,-0.5186157,-0.84552,-0.111572266
1725696444593,2024-09-07T08:07:24.593Z,304858,-0.44958496,-0.82598877,-0.16290283
1725696444614,2024-09-07T08:07:24.614Z,304879,-0.47521973,-0.8619385,-0.093933105
1725696444660,2024-09-07T08:07:24.660Z,304925,-0.43103027,-0.8262329,-0.07244873
1725696444708,2024-09-07T08:07:24.708Z,304973,-0.42755127,-0.8208008,-0.07434082
1725696444759,2024-09-07T08:07:24.759Z,305024,-0.4234619,-0.83392334,-0.05609131
1725696444849,2024-09-07T08:07:24.849Z,305114,-0.47235107,-0.86572266,-0.067993164
1725696444888,2024-09-07T08:07:24.888Z,305153,-0.4649048,-0.86151123,0.0061035156
1725696444933,2024-09-07T08:07:24.933Z,305198,-0.44024658,-0.8737793,-0.062561035
1725696444954,2024-09-07T08:07:24.954Z,305219,-0.38916016,-0.8851929,0.03717041
1725696444977,2024-09-07T08:07:24.977Z,305242,-0.3798828,-0.92974854,0.009277344
1725696444993,2024-09-07T08:07:24.993Z,305258,-0.36297607,-0.95666504,0.066711426
1725696445023,2024-09-07T08:07:25.023Z,305288,-0.39178467,-1.0310669,0.07336426
1725696445064,2024-09-07T08:07:25.064Z,305329,-0.2909546,-1.0802002,-0.002746582
1725696445124,2024-09-07T08:07:25.124Z,305389,-0.31744385,-1.1018066,0.020446777
1725696445158,2024-09-07T08:07:25.158Z,305423,-0.26159668,-1.0722046,0.06298828
1725696445200,2024-09-07T08:07:25.200Z,305465,-0.28674316,-1.0488892,0.08270264
1725696445250,2024-09-07T08:07:25.250Z,305515,-0.20306396,-1.0045166,0.05731201
1725696445294,2024-09-07T08:07:25.294Z,305559,-0.18261719,-0.9845581,0.018493652
1725696445335,2024-09-07T08:07:25.335Z,305600,-0.14984131,-0.99194336,0.12988281
1725696445388,2024-09-07T08:07:25.388Z,305653,-0.17108154,-0.99853516,0.17492676
1725696445432,2024-09-07T08:07:25.432Z,305697,-0.14477539,-1.0064087,0.1315918
1725696445461,2024-09-07T08:07:25.461Z,305726,-0.103027344,-1.0100098,0.092163086
1725696445482,2024-09-07T08:07:25.482Z,305747,-0.09210205,-1.0280762,0.07525635
1725696445514,2024-09-07T08:07:25.514Z,305779,-0.12731934,-1.0404663,0.15179443
1725696445570,2024-09-07T08:07:25.570Z,305835,-0.16674805,-1.06781,0.128479
1725696445608,2024-09-07T08:07:25.608Z,305873,-0.12597656,-1.0278931,0.07421875
1725696445654,2024-09-07T08:07:25.654Z,305919,-0.09863281,-0.98950195,0.057617188
1725696445695,2024-09-07T08:07:25.695Z,305960,-0.11755371,-0.96484375,0.08416748
1725696445747,2024-09-07T08:07:25.747Z,306012,-0.10656738,-0.9584961,0.0949707
1725696445790,2024-09-07T08:07:25.790Z,306055,-0.09753418,-0.975647,0.10644531
1725696445829,2024-09-07T08:07:25.829Z,306094,-0.10284424,-1.0082397,0.13085938
1725696445851,2024-09-07T08:07:25.851Z,306116,-0.09094238,-1.0400391,0.13555908
1725696445873,2024-09-07T08:07:25.873Z,306138,-0.09625244,-1.0459595,0.16070557
1725696445920,2024-09-07T08:07:25.920Z,306185,-0.08331299,-1.0213013,0.16070557
1725696445965,2024-09-07T08:07:25.965Z,306230,-0.07977295,-1.0038452,0.15014648
1725696446011,2024-09-07T08:07:26.011Z,306276,-0.059448242,-0.9915161,0.14379883
1725696446060,2024-09-07T08:07:26.060Z,306325,-0.047607422,-0.97058105,0.15710449
1725696446106,2024-09-07T08:07:26.106Z,306371,-0.041809082,-0.9584961,0.16705322
1725696446147,2024-09-07T08:07:26.147Z,306412,-0.039855957,-0.95251465,0.16101074
1725696446190,2024-09-07T08:07:26.190Z,306455,-0.043945312,-0.96429443,0.15539551
1725696446241,2024-09-07T08:07:26.241Z,306506,-0.07287598,-0.9700928,0.17071533
1725696446269,2024-09-07T08:07:26.269Z,306534,-0.060302734,-0.94744873,0.16516113
1725696446286,2024-09-07T08:07:26.286Z,306551,-0.09777832,-0.93310547,0.16638184
1725696446324,2024-09-07T08:07:26.324Z,306589,-0.09753418,-0.9208374,0.18988037
1725696446368,2024-09-07T08:07:26.368Z,306633,-0.11413574,-0.9177246,0.17193604
1725696446425,2024-09-07T08:07:26.425Z,306690,-0.10192871,-0.94177246,0.16766357
1725696446460,2024-09-07T08:07:26.460Z,306725,-0.14605713,-1.0410767,0.2000122
1725696446506,2024-09-07T08:07:26.506Z,306771,-0.20202637,-1.1958008,0.19494629
1725696446556,2024-09-07T08:07:26.556Z,306821,-0.22845459,-1.2752075,0.19506836
1725696446649,2024-09-07T08:07:26.649Z,306914,-0.2354126,-1.2329712,0.22827148
1725696446683,2024-09-07T08:07:26.683Z,306948,-0.23510742,-1.1459961,0.28100586
1725696446704,2024-09-07T08:07:26.704Z,306969,-0.19366455,-1.0492554,0.23791504
1725696446729,2024-09-07T08:07:26.729Z,306994,-0.20257568,-0.9609375,0.13726807
1725696446752,2024-09-07T08:07:26.752Z,307017,-0.23626709,-0.95770264,0.12445068
1725696446774,2024-09-07T08:07:26.774Z,307039,-0.28198242,-0.9366455,0.22570801
1725696446819,2024-09-07T08:07:26.819Z,307084,-0.2619629,-0.9400635,0.059570312
1725696446866,2024-09-07T08:07:26.866Z,307131,-0.32312012,-0.94781494,0.14727783
1725696446916,2024-09-07T08:07:26.916Z,307181,-0.31079102,-0.9246826,0.14196777
1725696446957,2024-09-07T08:07:26.957Z,307222,-0.3043213,-0.87005615,0.05847168
1725696447005,2024-09-07T08:07:27.005Z,307270,-0.34161377,-0.86468506,0.0871582
1725696447046,2024-09-07T08:07:27.046Z,307311,-0.36444092,-0.895874,0.07836914
1725696447092,2024-09-07T08:07:27.092Z,307357,-0.39123535,-0.90997314,0.11590576
1725696447112,2024-09-07T08:07:27.112Z,307377,-0.40045166,-0.9203491,0.053588867
1725696447134,2024-09-07T08:07:27.134Z,307399,-0.39978027,-0.9008179,0.073791504
1725696447184,2024-09-07T08:07:27.184Z,307449,-0.34796143,-0.88275146,0.0078125
1725696447227,2024-09-07T08:07:27.227Z,307492,-0.3899536,-0.89068604,0.06518555
1725696447278,2024-09-07T08:07:27.278Z,307543,-0.3939209,-0.87939453,0.09503174
1725696447317,2024-09-07T08:07:27.317Z,307582,-0.38763428,-0.89416504,-5.493164E-4
1725696447411,2024-09-07T08:07:27.411Z,307676,-0.4255371,-0.8956299,-0.036010742
1725696447442,2024-09-07T08:07:27.442Z,307707,-0.41308594,-0.9029541,-0.03112793
1725696447469,2024-09-07T08:07:27.469Z,307734,-0.42022705,-0.89678955,-0.0053100586
1725696447495,2024-09-07T08:07:27.495Z,307760,-0.4022827,-0.8737793,0.046813965
1725696447511,2024-09-07T08:07:27.511Z,307776,-0.37908936,-0.8496094,0.02319336
1725696447538,2024-09-07T08:07:27.538Z,307803,-0.3499756,-0.8405762,-0.012878418
1725696447596,2024-09-07T08:07:27.596Z,307861,-0.3791504,-0.8418579,0.018554688
1725696447635,2024-09-07T08:07:27.635Z,307900,-0.38085938,-0.8317261,-1.8310547E-4
1725696447677,2024-09-07T08:07:27.677Z,307942,-0.3909912,-0.84887695,0.017150879
1725696447720,2024-09-07T08:07:27.720Z,307985,-0.39819336,-0.9069824,0.012023926
1725696447773,2024-09-07T08:07:27.773Z,308038,-0.4008789,-0.9376221,0.018188477
1725696447810,2024-09-07T08:07:27.810Z,308075,-0.38586426,-0.9439087,-0.0024414062
1725696447863,2024-09-07T08:07:27.863Z,308128,-0.3408203,-0.95947266,-0.007019043
1725696447902,2024-09-07T08:07:27.902Z,308167,-0.3480835,-0.9793091,0.06689453
1725696447947,2024-09-07T08:07:27.947Z,308212,-0.30126953,-0.9675293,0.012207031
1725696447972,2024-09-07T08:07:27.972Z,308237,-0.26226807,-0.92370605,0.052124023
1725696447994,2024-09-07T08:07:27.994Z,308259,-0.28155518,-0.8778076,0.08343506
1725696448034,2024-09-07T08:07:28.034Z,308299,-0.27459717,-0.9038086,0.023254395
1725696448085,2024-09-07T08:07:28.085Z,308350,-0.32299805,-0.9567871,0.02532959
1725696448140,2024-09-07T08:07:28.140Z,308405,-0.3395996,-0.94989014,0.032409668
1725696448183,2024-09-07T08:07:28.183Z,308448,-0.30529785,-0.85772705,0.036621094
1725696448221,2024-09-07T08:07:28.221Z,308486,-0.24804688,-0.7324219,-0.03387451
1725696448264,2024-09-07T08:07:28.264Z,308529,-0.25494385,-0.7505493,-0.021484375
1725696448306,2024-09-07T08:07:28.306Z,308571,-0.29022217,-0.82354736,0.018615723
1725696448358,2024-09-07T08:07:28.358Z,308623,-0.23797607,-0.8736572,-0.08166504
1725696448393,2024-09-07T08:07:28.393Z,308658,-0.26617432,-0.9603882,-0.10534668
1725696448412,2024-09-07T08:07:28.412Z,308677,-0.18890381,-1.0091553,-0.076293945
1725696448441,2024-09-07T08:07:28.441Z,308706,-0.24511719,-1.0128784,-0.11608887
1725696448484,2024-09-07T08:07:28.484Z,308749,-0.1607666,-0.9592285,-0.10406494
1725696448551,2024-09-07T08:07:28.551Z,308816,-0.19494629,-0.934021,-0.12976074
1725696448583,2024-09-07T08:07:28.583Z,308848,-0.1885376,-0.9130249,-0.08581543
1725696448621,2024-09-07T08:07:28.621Z,308886,-0.2590332,-0.91815186,-0.12561035
1725696448669,2024-09-07T08:07:28.669Z,308934,-0.28240967,-0.95526123,-0.13708496
1725696448711,2024-09-07T08:07:28.711Z,308976,-0.2456665,-1.0048218,-0.10241699
1725696448760,2024-09-07T08:07:28.760Z,309025,-0.28466797,-1.0157471,-0.06689453
1725696448787,2024-09-07T08:07:28.787Z,309052,-0.22644043,-0.9686279,-0.08111572
1725696448808,2024-09-07T08:07:28.808Z,309073,-0.20343018,-0.9381714,-0.05279541
1725696448844,2024-09-07T08:07:28.844Z,309109,-0.23272705,-0.94818115,-0.06359863
1725696448892,2024-09-07T08:07:28.892Z,309157,-0.1907959,-0.9373169,-0.09490967
1725696448942,2024-09-07T08:07:28.942Z,309207,-0.20965576,-0.9465332,-0.06933594
1725696448978,2024-09-07T08:07:28.978Z,309243,-0.20056152,-0.96673584,-0.07324219
1725696449030,2024-09-07T08:07:29.030Z,309295,-0.20910645,-0.9771118,-0.06628418
1725696449071,2024-09-07T08:07:29.071Z,309336,-0.17926025,-0.9867554,-0.06317139
1725696449167,2024-09-07T08:07:29.167Z,309432,-0.18554688,-1.005188,-0.03289795
1725696449201,2024-09-07T08:07:29.201Z,309466,-0.19812012,-0.99505615,0.008361816
1725696449226,2024-09-07T08:07:29.226Z,309491,-0.16455078,-0.99438477,-0.007446289
1725696449248,2024-09-07T08:07:29.248Z,309513,-0.1486206,-0.97839355,0.036132812
1725696449268,2024-09-07T08:07:29.268Z,309533,-0.1427002,-0.9619751,0.042053223
1725696449296,2024-09-07T08:07:29.296Z,309561,-0.07885742,-0.9532471,0.012084961
1725696449339,2024-09-07T08:07:29.339Z,309604,-0.12890625,-0.9581299,0.1138916
1725696449393,2024-09-07T08:07:29.393Z,309658,-0.15533447,-0.989563,0.042114258
1725696449433,2024-09-07T08:07:29.433Z,309698,-0.086120605,-0.98217773,0.07196045
1725696449474,2024-09-07T08:07:29.474Z,309739,-0.19592285,-0.97540283,0.07922363
1725696449527,2024-09-07T08:07:29.527Z,309792,-0.11456299,-0.96502686,0.075683594
1725696449570,2024-09-07T08:07:29.570Z,309835,-0.14221191,-0.9673462,0.103637695
1725696449610,2024-09-07T08:07:29.610Z,309875,-0.13812256,-0.96954346,0.043945312
1725696449635,2024-09-07T08:07:29.635Z,309900,-0.11584473,-0.9282837,0.06451416
1725696449655,2024-09-07T08:07:29.655Z,309920,-0.16137695,-0.9268799,0.05517578
1725696449703,2024-09-07T08:07:29.703Z,309968,-0.10595703,-0.9326782,0.027526855
1725696449797,2024-09-07T08:07:29.797Z,310062,-0.16925049,-0.9657593,0.057250977
1725696449828,2024-09-07T08:07:29.828Z,310093,-0.13806152,-0.97210693,0.0423584
1725696449935,2024-09-07T08:07:29.935Z,310200,-0.12432861,-0.97888184,0.043762207
1725696449970,2024-09-07T08:07:29.970Z,310235,-0.15185547,-0.9949951,0.039916992
1725696449998,2024-09-07T08:07:29.998Z,310263,-0.11633301,-0.9830322,0.030334473
1725696450018,2024-09-07T08:07:30.018Z,310283,-0.16186523,-0.9666748,0.023742676
1725696450034,2024-09-07T08:07:30.034Z,310299,-0.1494751,-0.9415283,3.0517578E-4
1725696450049,2024-09-07T08:07:30.049Z,310314,-0.1819458,-0.9211426,-0.05255127
1725696450066,2024-09-07T08:07:30.066Z,310331,-0.16003418,-0.92474365,-0.040100098
1725696450158,2024-09-07T08:07:30.158Z,310423,-0.17712402,-0.8897095,-0.07531738
1725696450205,2024-09-07T08:07:30.205Z,310470,-0.14215088,-0.90478516,-0.05078125
1725696450221,2024-09-07T08:07:30.221Z,310486,-0.19030762,-0.89715576,-0.048034668
1725696450239,2024-09-07T08:07:30.239Z,310504,-0.15966797,-0.92944336,-0.055725098
1725696450287,2024-09-07T08:07:30.287Z,310552,-0.18988037,-0.96813965,-0.06640625
1725696450328,2024-09-07T08:07:30.328Z,310593,-0.19598389,-0.94854736,-0.06384277
1725696450380,2024-09-07T08:07:30.380Z,310645,-0.16741943,-0.8866577,-0.0881958
1725696450420,2024-09-07T08:07:30.420Z,310685,-0.20910645,-0.9194336,-0.0758667
1725696450469,2024-09-07T08:07:30.469Z,310734,-0.23352051,-0.95495605,-0.115600586
1725696450496,2024-09-07T08:07:30.496Z,310761,-0.26287842,-0.9782715,-0.065979004
1725696450517,2024-09-07T08:07:30.517Z,310782,-0.31481934,-0.9559326,-0.1430664
1725696450556,2024-09-07T08:07:30.556Z,310821,-0.31121826,-0.9767456,-0.08959961
1725696450603,2024-09-07T08:07:30.603Z,310868,-0.3873291,-0.93395996,-0.09136963
1725696450649,2024-09-07T08:07:30.649Z,310914,-0.3484497,-0.9085083,-0.1609497
1725696450693,2024-09-07T08:07:30.693Z,310958,-0.37835693,-0.90631104,-0.06072998
1725696450736,2024-09-07T08:07:30.736Z,311001,-0.3447876,-0.869812,-0.07800293
1725696450781,2024-09-07T08:07:30.781Z,311046,-0.36376953,-0.83654785,-0.086242676
1725696450824,2024-09-07T08:07:30.824Z,311089,-0.34606934,-0.8138428,-0.038635254
1725696450878,2024-09-07T08:07:30.878Z,311143,-0.36871338,-0.8623047,-0.04724121
1725696450907,2024-09-07T08:07:30.907Z,311172,-0.39660645,-0.8981323,-0.05432129
1725696450928,2024-09-07T08:07:30.928Z,311193,-0.40393066,-0.9299927,-0.14160156
1725696450958,2024-09-07T08:07:30.958Z,311223,-0.4257202,-0.9074707,-0.01184082
1725696451010,2024-09-07T08:07:31.010Z,311275,-0.42181396,-0.8544922,-0.0725708
1725696451100,2024-09-07T08:07:31.100Z,311365,-0.39141846,-0.86676025,-0.03125
1725696451137,2024-09-07T08:07:31.137Z,311402,-0.4151001,-0.8776245,-0.08868408
1725696451162,2024-09-07T08:07:31.162Z,311427,-0.43743896,-0.8915405,-0.030822754
1725696451184,2024-09-07T08:07:31.184Z,311449,-0.4650879,-0.87750244,-0.04840088
1725696451230,2024-09-07T08:07:31.230Z,311495,-0.4366455,-0.88153076,-0.09289551
1725696451275,2024-09-07T08:07:31.275Z,311540,-0.4590454,-0.90338135,-0.04510498
1725696451295,2024-09-07T08:07:31.295Z,311560,-0.46209717,-0.9110718,-0.019042969
1725696451320,2024-09-07T08:07:31.320Z,311585,-0.46728516,-0.89971924,0.082336426
1725696451413,2024-09-07T08:07:31.413Z,311678,-0.39074707,-0.86206055,0.024780273
1725696451428,2024-09-07T08:07:31.428Z,311693,-0.36132812,-0.8691406,0.021362305
1725696451454,2024-09-07T08:07:31.454Z,311719,-0.39526367,-0.93951416,0.033996582
1725696451554,2024-09-07T08:07:31.554Z,311819,-0.4237671,-0.97821045,0.06817627
1725696451589,2024-09-07T08:07:31.589Z,311854,-0.40057373,-0.98339844,0.02557373
1725696451616,2024-09-07T08:07:31.616Z,311881,-0.37573242,-0.9331665,0.018432617
1725696451683,2024-09-07T08:07:31.683Z,311948,-0.36895752,-0.90197754,0.019348145
1725696451706,2024-09-07T08:07:31.706Z,311971,-0.32696533,-0.9090576,0.019836426
1725696451725,2024-09-07T08:07:31.725Z,311990,-0.3095703,-0.9180298,0.04473877
1725696451741,2024-09-07T08:07:31.741Z,312006,-0.2633667,-0.9543457,-0.032409668
1725696451769,2024-09-07T08:07:31.769Z,312034,-0.2869873,-1.03125,0.07495117
1725696451818,2024-09-07T08:07:31.818Z,312083,-0.31573486,-1.1257935,0.19311523
1725696451862,2024-09-07T08:07:31.862Z,312127,-0.3121338,-1.1333618,0.16522217
1725696451908,2024-09-07T08:07:31.908Z,312173,-0.30297852,-1.0789185,0.15588379
1725696451954,2024-09-07T08:07:31.954Z,312219,-0.2510376,-1.0184937,0.16564941
1725696451998,2024-09-07T08:07:31.998Z,312263,-0.2814331,-0.9937744,0.21435547
1725696452039,2024-09-07T08:07:32.039Z,312304,-0.22930908,-0.9572754,0.14587402
1725696452092,2024-09-07T08:07:32.092Z,312357,-0.2166748,-0.925354,0.06524658
1725696452133,2024-09-07T08:07:32.133Z,312398,-0.21453857,-0.965271,0.055419922
1725696452161,2024-09-07T08:07:32.161Z,312426,-0.24316406,-1.0149536,0.10870361
1725696452181,2024-09-07T08:07:32.181Z,312446,-0.22998047,-1.0130005,0.052490234
1725696452218,2024-09-07T08:07:32.218Z,312483,-0.21246338,-0.99468994,0.02935791
1725696452266,2024-09-07T08:07:32.266Z,312531,-0.24090576,-1.0180664,0.09838867
1725696452319,2024-09-07T08:07:32.319Z,312584,-0.22387695,-0.9972534,0.12133789
1725696452354,2024-09-07T08:07:32.354Z,312619,-0.18518066,-0.951416,0.070495605
1725696452398,2024-09-07T08:07:32.398Z,312663,-0.18725586,-0.93499756,0.09118652
1725696452492,2024-09-07T08:07:32.492Z,312757,-0.15539551,-0.9237671,0.105895996
1725696452516,2024-09-07T08:07:32.516Z,312781,-0.15032959,-0.91015625,0.13049316
