Timestamp (ms),ISO DateTime,Elapsed Time (ms),Acceleration X,Acceleration Y,Acceleration Z
1734712299525,2024-12-20T16:31:39.525Z,63603,-0.040893555,-0.11193848,0.036193848
1734712299542,2024-12-20T16:31:39.542Z,63620,-0.03955078,-0.111816406,0.03491211
1734712299557,2024-12-20T16:31:39.557Z,63635,-0.04119873,-0.111083984,0.0335083
1734712299571,2024-12-20T16:31:39.571Z,63649,-0.041137695,-0.111450195,0.033996582
1734712299585,2024-12-20T16:31:39.585Z,63663,-0.04119873,-0.111206055,0.03503418
1734712299594,2024-12-20T16:31:39.594Z,63672,-0.04168701,-0.11077881,0.03564453
1734712299612,2024-12-20T16:31:39.612Z,63690,-0.042053223,-0.111328125,0.035827637
1734712299621,2024-12-20T16:31:39.621Z,63699,-0.043029785,-0.1104126,0.03387451
1734712299631,2024-12-20T16:31:39.631Z,63709,-0.04083252,-0.11053467,0.03338623
1734712299643,2024-12-20T16:31:39.643Z,63721,-0.03845215,-0.11053467,0.032226562
1734712299653,2024-12-20T16:31:39.653Z,63731,-0.039611816,-0.110839844,0.033813477
1734712299695,2024-12-20T16:31:39.695Z,63773,-0.04144287,-0.11065674,0.032836914
1734712299699,2024-12-20T16:31:39.699Z,63777,-0.039733887,-0.11126709,0.03326416
1734712299708,2024-12-20T16:31:39.708Z,63786,-0.040222168,-0.11248779,0.031799316
1734712299717,2024-12-20T16:31:39.717Z,63795,-0.040039062,-0.11376953,0.03540039
1734712299726,2024-12-20T16:31:39.726Z,63804,-0.0390625,-0.11407471,0.036499023
1734712299736,2024-12-20T16:31:39.736Z,63814,-0.038391113,-0.11383057,0.035949707
1734712299746,2024-12-20T16:31:39.746Z,63824,-0.040771484,-0.11395264,0.03717041
1734712299750,2024-12-20T16:31:39.750Z,63828,-0.03930664,-0.1126709,0.034484863
1734712299763,2024-12-20T16:31:39.763Z,63841,-0.039123535,-0.11248779,0.033325195
1734712299773,2024-12-20T16:31:39.773Z,63851,-0.03918457,-0.11230469,0.033996582
1734712299783,2024-12-20T16:31:39.783Z,63861,-0.038879395,-0.11218262,0.0357666
1734712299792,2024-12-20T16:31:39.792Z,63870,-0.040222168,-0.11175537,0.036315918
1734712299839,2024-12-20T16:31:39.839Z,63917,-0.041809082,-0.110839844,0.033996582
1734712299844,2024-12-20T16:31:39.844Z,63922,-0.039245605,-0.11102295,0.03326416
1734712299853,2024-12-20T16:31:39.853Z,63931,-0.039489746,-0.11114502,0.03527832
1734712299861,2024-12-20T16:31:39.861Z,63939,-0.0390625,-0.1105957,0.03375244
1734712299871,2024-12-20T16:31:39.871Z,63949,-0.039916992,-0.111328125,0.035583496
1734712299878,2024-12-20T16:31:39.878Z,63956,-0.04083252,-0.11102295,0.035949707
1734712299889,2024-12-20T16:31:39.889Z,63967,-0.042907715,-0.11071777,0.03302002
1734712299898,2024-12-20T16:31:39.898Z,63976,-0.04107666,-0.11206055,0.032714844
1734712299906,2024-12-20T16:31:39.906Z,63984,-0.041381836,-0.11193848,0.03515625
1734712299915,2024-12-20T16:31:39.915Z,63993,-0.041015625,-0.113220215,0.0345459
1734712299923,2024-12-20T16:31:39.923Z,64001,-0.038208008,-0.11279297,0.034179688
1734712299969,2024-12-20T16:31:39.969Z,64047,-0.04626465,-0.11602783,0.03363037
1734712299977,2024-12-20T16:31:39.977Z,64055,-0.043945312,-0.117248535,0.03253174
1734712299986,2024-12-20T16:31:39.986Z,64064,-0.046813965,-0.11895752,0.037475586
1734712299995,2024-12-20T16:31:39.995Z,64073,-0.04724121,-0.1217041,0.042114258
1734712300003,2024-12-20T16:31:40.003Z,64081,-0.04937744,-0.12225342,0.044189453
1734712300011,2024-12-20T16:31:40.011Z,64089,-0.044799805,-0.11999512,0.035705566
1734712300019,2024-12-20T16:31:40.019Z,64097,-0.046020508,-0.1204834,0.03338623
1734712300026,2024-12-20T16:31:40.026Z,64104,-0.04901123,-0.12145996,0.036865234
1734712300034,2024-12-20T16:31:40.034Z,64112,-0.049194336,-0.12084961,0.03253174
1734712300042,2024-12-20T16:31:40.042Z,64120,-0.049926758,-0.12158203,0.03289795
1734712300052,2024-12-20T16:31:40.052Z,64130,-0.049865723,-0.12310791,0.038269043
1734712300063,2024-12-20T16:31:40.063Z,64141,-0.054626465,-0.12536621,0.044799805
1734712300068,2024-12-20T16:31:40.068Z,64146,-0.04937744,-0.11895752,0.037109375
1734712300076,2024-12-20T16:31:40.076Z,64154,-0.04449463,-0.1182251,0.03161621
1734712300086,2024-12-20T16:31:40.086Z,64164,-0.04309082,-0.11633301,0.028564453
1734712300094,2024-12-20T16:31:40.094Z,64172,-0.045043945,-0.11401367,0.026855469
1734712300103,2024-12-20T16:31:40.103Z,64181,-0.04437256,-0.113586426,0.029541016
1734712300150,2024-12-20T16:31:40.150Z,64228,-0.04473877,-0.11395264,0.03491211
1734712300160,2024-12-20T16:31:40.160Z,64238,-0.043945312,-0.11273193,0.03869629
1734712300167,2024-12-20T16:31:40.167Z,64245,-0.05078125,-0.112976074,0.040283203
1734712300175,2024-12-20T16:31:40.175Z,64253,-0.04510498,-0.10699463,0.02734375
1734712300184,2024-12-20T16:31:40.184Z,64262,-0.041381836,-0.105529785,0.02758789
1734712300194,2024-12-20T16:31:40.194Z,64272,-0.046447754,-0.10845947,0.033569336
1734712300241,2024-12-20T16:31:40.241Z,64319,-0.042175293,-0.105529785,0.028564453
1734712300250,2024-12-20T16:31:40.250Z,64328,-0.040161133,-0.10510254,0.026428223
1734712300259,2024-12-20T16:31:40.259Z,64337,-0.043151855,-0.106933594,0.029968262
1734712300268,2024-12-20T16:31:40.268Z,64346,-0.046142578,-0.10491943,0.030334473
1734712300277,2024-12-20T16:31:40.277Z,64355,-0.038024902,-0.10406494,0.026184082
1734712300290,2024-12-20T16:31:40.290Z,64368,-0.03778076,-0.10461426,0.02508545
1734712300294,2024-12-20T16:31:40.294Z,64372,-0.040222168,-0.10333252,0.018066406
1734712300309,2024-12-20T16:31:40.309Z,64387,-0.041625977,-0.105407715,0.018493652
1734712300317,2024-12-20T16:31:40.317Z,64395,-0.04937744,-0.109558105,0.03149414
1734712300325,2024-12-20T16:31:40.325Z,64403,-0.050598145,-0.111816406,0.028076172
1734712300334,2024-12-20T16:31:40.334Z,64412,-0.047912598,-0.11425781,0.029968262
1734712300342,2024-12-20T16:31:40.342Z,64420,-0.053344727,-0.11651611,0.035827637
1734712300346,2024-12-20T16:31:40.346Z,64424,-0.059265137,-0.11895752,0.022155762
1734712300353,2024-12-20T16:31:40.353Z,64431,-0.05529785,-0.12420654,0.029785156
1734712300360,2024-12-20T16:31:40.360Z,64438,-0.05419922,-0.12243652,0.02758789
1734712300368,2024-12-20T16:31:40.368Z,64446,-0.05822754,-0.125,0.0335083
1734712300376,2024-12-20T16:31:40.376Z,64454,-0.059020996,-0.123535156,0.02923584
1734712300417,2024-12-20T16:31:40.417Z,64495,-0.067871094,-0.12188721,0.030761719
1734712300425,2024-12-20T16:31:40.425Z,64503,-0.0647583,-0.124816895,0.017028809
1734712300434,2024-12-20T16:31:40.434Z,64512,-0.049804688,-0.123413086,0.012817383
1734712300461,2024-12-20T16:31:40.461Z,64539,-0.066589355,-0.12475586,0.035217285
1734712300472,2024-12-20T16:31:40.472Z,64550,-0.055236816,-0.12133789,0.024230957
1734712300481,2024-12-20T16:31:40.481Z,64559,-0.06011963,-0.12237549,0.023498535
1734712300492,2024-12-20T16:31:40.492Z,64570,-0.06378174,-0.12573242,0.03491211
1734712300501,2024-12-20T16:31:40.501Z,64579,-0.064208984,-0.1217041,0.029296875
1734712300509,2024-12-20T16:31:40.509Z,64587,-0.06335449,-0.123291016,0.02923584
1734712300555,2024-12-20T16:31:40.555Z,64633,-0.059265137,-0.12414551,0.012634277
1734712300602,2024-12-20T16:31:40.602Z,64680,-0.05908203,-0.12420654,0.014587402
1734712300642,2024-12-20T16:31:40.642Z,64720,-0.06011963,-0.12554932,0.023254395
1734712300646,2024-12-20T16:31:40.646Z,64724,-0.06085205,-0.12786865,0.030029297
1734712300655,2024-12-20T16:31:40.655Z,64733,-0.06347656,-0.12854004,0.040649414
1734712300664,2024-12-20T16:31:40.664Z,64742,-0.070129395,-0.1270752,0.033813477
1734712300673,2024-12-20T16:31:40.673Z,64751,-0.051513672,-0.12701416,0.009887695
1734712300681,2024-12-20T16:31:40.681Z,64759,-0.0635376,-0.121276855,0.026733398
1734712300689,2024-12-20T16:31:40.689Z,64767,-0.05834961,-0.12365723,0.020507812
1734712300696,2024-12-20T16:31:40.696Z,64774,-0.048034668,-0.12060547,0.023620605
1734712300703,2024-12-20T16:31:40.703Z,64781,-0.062194824,-0.119628906,0.031555176
1734712300710,2024-12-20T16:31:40.710Z,64788,-0.079711914,-0.11743164,0.02508545
1734712300713,2024-12-20T16:31:40.713Z,64791,-0.06323242,-0.11663818,0.024230957
1734712300721,2024-12-20T16:31:40.721Z,64799,-0.084228516,-0.10913086,0.016235352
1734712300732,2024-12-20T16:31:40.732Z,64810,-0.06951904,-0.105651855,0.026977539
1734712300736,2024-12-20T16:31:40.736Z,64814,-0.05419922,-0.11212158,0.020874023
1734712300780,2024-12-20T16:31:40.780Z,64858,-0.080322266,-0.10986328,0.02911377
1734712300788,2024-12-20T16:31:40.788Z,64866,-0.07470703,-0.107055664,0.026611328
1734712300795,2024-12-20T16:31:40.795Z,64873,-0.07086182,-0.10632324,0.03955078
1734712300802,2024-12-20T16:31:40.802Z,64880,-0.09100342,-0.091308594,0.005065918
1734712300810,2024-12-20T16:31:40.810Z,64888,-0.050231934,-0.1071167,-0.009338379
1734712300820,2024-12-20T16:31:40.820Z,64898,-0.05718994,-0.10449219,-0.012390137
1734712300828,2024-12-20T16:31:40.828Z,64906,-0.057373047,-0.10443115,0.004760742
1734712300835,2024-12-20T16:31:40.835Z,64913,-0.07434082,-0.10235596,0.021240234
1734712300844,2024-12-20T16:31:40.844Z,64922,-0.068603516,-0.10253906,0.032714844
1734712300854,2024-12-20T16:31:40.854Z,64932,-0.064575195,-0.10345459,0.03302002
1734712300861,2024-12-20T16:31:40.861Z,64939,-0.072631836,-0.09173584,0.020507812
1734712300865,2024-12-20T16:31:40.865Z,64943,-0.07623291,-0.09893799,-0.0068359375
1734712300873,2024-12-20T16:31:40.873Z,64951,-0.052856445,-0.09741211,-0.009033203
1734712300880,2024-12-20T16:31:40.880Z,64958,-0.06225586,-0.09753418,0.0078125
1734712300888,2024-12-20T16:31:40.888Z,64966,-0.066711426,-0.10003662,0.024902344
1734712300895,2024-12-20T16:31:40.895Z,64973,-0.054504395,-0.10046387,0.026672363
1734712300903,2024-12-20T16:31:40.903Z,64981,-0.064208984,-0.095703125,0.022460938
1734712300960,2024-12-20T16:31:40.960Z,65038,-0.06915283,-0.091430664,0.008239746
1734712300967,2024-12-20T16:31:40.967Z,65045,-0.065979004,-0.09124756,-0.007751465
1734712300975,2024-12-20T16:31:40.975Z,65053,-0.05718994,-0.09838867,0.012268066
1734712300986,2024-12-20T16:31:40.986Z,65064,-0.06225586,-0.10131836,0.0068969727
1734712301004,2024-12-20T16:31:41.004Z,65082,-0.059753418,-0.095825195,0.0138549805
1734712301011,2024-12-20T16:31:41.011Z,65089,-0.058166504,-0.10559082,0.026306152
1734712301018,2024-12-20T16:31:41.018Z,65096,-0.066345215,-0.101745605,0.02532959
1734712301026,2024-12-20T16:31:41.026Z,65104,-0.06652832,-0.0970459,0.020202637
1734712301032,2024-12-20T16:31:41.032Z,65110,-0.0949707,-0.0949707,0.0022583008
1734712301046,2024-12-20T16:31:41.046Z,65124,-0.06427002,-0.09246826,-0.011108398
1734712301054,2024-12-20T16:31:41.054Z,65132,-0.043884277,-0.10443115,0.004211426
1734712301057,2024-12-20T16:31:41.057Z,65135,-0.05731201,-0.10272217,0.023010254
1734712301064,2024-12-20T16:31:41.064Z,65142,-0.070617676,-0.0970459,0.01751709
1734712301075,2024-12-20T16:31:41.075Z,65153,-0.070373535,-0.09906006,0.026611328
1734712301085,2024-12-20T16:31:41.085Z,65163,-0.08129883,-0.091552734,0.014099121
1734712301092,2024-12-20T16:31:41.092Z,65170,-0.07531738,-0.09106445,-0.012268066
1734712301100,2024-12-20T16:31:41.100Z,65178,-0.051696777,-0.09716797,-0.018859863
1734712301108,2024-12-20T16:31:41.108Z,65186,-0.05609131,-0.09680176,0.00793457
1734712301136,2024-12-20T16:31:41.136Z,65214,-0.072265625,-0.099365234,0.016113281
1734712301149,2024-12-20T16:31:41.149Z,65227,-0.0625,-0.105285645,0.0335083
1734712301156,2024-12-20T16:31:41.156Z,65234,-0.068603516,-0.10089111,0.024230957
1734712301186,2024-12-20T16:31:41.186Z,65264,-0.08337402,-0.09307861,0.017578125
1734712301194,2024-12-20T16:31:41.194Z,65272,-0.06958008,-0.091918945,-0.005126953
1734712301202,2024-12-20T16:31:41.202Z,65280,-0.060546875,-0.10235596,0.007507324
1734712301209,2024-12-20T16:31:41.209Z,65287,-0.077941895,-0.1015625,0.014099121
1734712301217,2024-12-20T16:31:41.217Z,65295,-0.058410645,-0.10632324,0.018188477
1734712301225,2024-12-20T16:31:41.225Z,65303,-0.06793213,-0.1027832,0.03137207
1734712301234,2024-12-20T16:31:41.234Z,65312,-0.07098389,-0.09918213,0.02355957
1734712301243,2024-12-20T16:31:41.243Z,65321,-0.076538086,-0.10144043,0.024108887
1734712301251,2024-12-20T16:31:41.251Z,65329,-0.074035645,-0.101135254,0.020690918
1734712301274,2024-12-20T16:31:41.274Z,65352,-0.05883789,-0.09942627,-0.012023926
1734712301280,2024-12-20T16:31:41.280Z,65358,-0.053771973,-0.11022949,0.0040893555
1734712301288,2024-12-20T16:31:41.288Z,65366,-0.061828613,-0.10687256,0.01763916
1734712301296,2024-12-20T16:31:41.296Z,65374,-0.066589355,-0.10772705,0.034240723
1734712301304,2024-12-20T16:31:41.304Z,65382,-0.07244873,-0.106933594,0.025024414
1734712301362,2024-12-20T16:31:41.362Z,65440,-0.08227539,-0.103393555,0.019958496
1734712301452,2024-12-20T16:31:41.452Z,65530,-0.072265625,-0.10443115,0.008605957
1734712301545,2024-12-20T16:31:41.545Z,65623,-0.059814453,-0.111083984,0.014343262
1734712301555,2024-12-20T16:31:41.555Z,65633,-0.060913086,-0.109375,0.004760742
1734712301564,2024-12-20T16:31:41.564Z,65642,-0.0579834,-0.109680176,0.015380859
1734712301587,2024-12-20T16:31:41.587Z,65665,-0.07220459,-0.10595703,0.0256958
1734712301598,2024-12-20T16:31:41.598Z,65676,-0.064819336,-0.10839844,0.036132812
1734712301609,2024-12-20T16:31:41.609Z,65687,-0.07055664,-0.101623535,0.034240723
1734712301620,2024-12-20T16:31:41.620Z,65698,-0.0637207,-0.09906006,0.0016479492
1734712301630,2024-12-20T16:31:41.630Z,65708,-0.05493164,-0.104003906,0.0064086914
1734712301641,2024-12-20T16:31:41.641Z,65719,-0.06542969,-0.09564209,0.007019043
1734712301679,2024-12-20T16:31:41.679Z,65757,-0.05645752,-0.10534668,0.012207031
1734712301682,2024-12-20T16:31:41.682Z,65760,-0.06439209,-0.099731445,0.030517578
1734712301687,2024-12-20T16:31:41.687Z,65765,-0.06121826,-0.10510254,0.02532959
1734712301691,2024-12-20T16:31:41.691Z,65769,-0.06109619,-0.097839355,0.020446777
1734712301699,2024-12-20T16:31:41.699Z,65777,-0.066711426,-0.08734131,0.003479004
1734712301707,2024-12-20T16:31:41.707Z,65785,-0.05279541,-0.09832764,0.0068359375
1734712301714,2024-12-20T16:31:41.714Z,65792,-0.046569824,-0.09881592,-0.013427734
1734712301766,2024-12-20T16:31:41.766Z,65844,-0.057739258,-0.10095215,0.012145996
1734712301774,2024-12-20T16:31:41.774Z,65852,-0.0680542,-0.10180664,0.013366699
1734712301782,2024-12-20T16:31:41.782Z,65860,-0.06121826,-0.1081543,0.006286621
1734712301814,2024-12-20T16:31:41.814Z,65892,-0.059692383,-0.10333252,0.0037841797
1734712301822,2024-12-20T16:31:41.822Z,65900,-0.0692749,-0.10241699,-0.014038086
1734712301831,2024-12-20T16:31:41.831Z,65909,-0.06201172,-0.10058594,0.013000488
1734712301839,2024-12-20T16:31:41.839Z,65917,-0.064697266,-0.1048584,0.008117676
1734712301847,2024-12-20T16:31:41.847Z,65925,-0.057495117,-0.10864258,-9.765625E-4
1734712301855,2024-12-20T16:31:41.855Z,65933,-0.06359863,-0.101623535,0.0040283203
1734712301862,2024-12-20T16:31:41.862Z,65940,-0.062194824,-0.10748291,-0.011230469
1734712301907,2024-12-20T16:31:41.907Z,65985,-0.04534912,-0.104003906,0.010437012
1734712301914,2024-12-20T16:31:41.914Z,65992,-0.06585693,-0.105895996,0.007019043
1734712301925,2024-12-20T16:31:41.925Z,66003,-0.067993164,-0.10760498,0.0048217773
1734712301932,2024-12-20T16:31:41.932Z,66010,-0.053833008,-0.109680176,-0.002746582
1734712301940,2024-12-20T16:31:41.940Z,66018,-0.05218506,-0.107543945,-6.713867E-4
1734712301991,2024-12-20T16:31:41.991Z,66069,-0.05596924,-0.10333252,0.0045776367
1734712301998,2024-12-20T16:31:41.998Z,66076,-0.06262207,-0.104003906,0.0065307617
1734712302009,2024-12-20T16:31:42.009Z,66087,-0.06048584,-0.101501465,0.001953125
1734712302019,2024-12-20T16:31:42.019Z,66097,-0.056884766,-0.10040283,-0.002746582
1734712302030,2024-12-20T16:31:42.030Z,66108,-0.057006836,-0.10461426,0.007446289
1734712302038,2024-12-20T16:31:42.038Z,66116,-0.062316895,-0.1048584,0.009094238
1734712302045,2024-12-20T16:31:42.045Z,66123,-0.05596924,-0.10205078,0.0053100586
1734712302054,2024-12-20T16:31:42.054Z,66132,-0.05517578,-0.10473633,0.0015258789
1734712302085,2024-12-20T16:31:42.085Z,66163,-0.049194336,-0.10467529,-4.272461E-4
1734712302092,2024-12-20T16:31:42.092Z,66170,-0.05621338,-0.10644531,0.004333496
1734712302101,2024-12-20T16:31:42.101Z,66179,-0.0569458,-0.10614014,0.00982666
1734712302109,2024-12-20T16:31:42.109Z,66187,-0.060058594,-0.10656738,0.013427734
1734712302113,2024-12-20T16:31:42.113Z,66191,-0.05328369,-0.11621094,0.0014648438
1734712302117,2024-12-20T16:31:42.117Z,66195,-0.054382324,-0.11425781,-0.009155273
1734712302126,2024-12-20T16:31:42.126Z,66204,-0.053649902,-0.11791992,-1.8310547E-4
1734712302134,2024-12-20T16:31:42.134Z,66212,-0.061462402,-0.123413086,0.0036010742
1734712302143,2024-12-20T16:31:42.143Z,66221,-0.05859375,-0.11590576,0.0036010742
1734712302155,2024-12-20T16:31:42.155Z,66233,-0.050048828,-0.11578369,0.0048217773
1734712302164,2024-12-20T16:31:42.164Z,66242,-0.057556152,-0.1159668,0.007385254
1734712302173,2024-12-20T16:31:42.173Z,66251,-0.056518555,-0.11206055,-0.003112793
1734712302177,2024-12-20T16:31:42.177Z,66255,-0.056884766,-0.11517334,-1.8310547E-4
1734712302186,2024-12-20T16:31:42.186Z,66264,-0.050109863,-0.109191895,-0.001953125
1734712302195,2024-12-20T16:31:42.195Z,66273,-0.049987793,-0.11004639,0.010620117
1734712302202,2024-12-20T16:31:42.202Z,66280,-0.05279541,-0.10998535,0.0026855469
1734712302210,2024-12-20T16:31:42.210Z,66288,-0.043029785,-0.10479736,0.0087890625
1734712302220,2024-12-20T16:31:42.220Z,66298,-0.054016113,-0.10064697,0.009521484
1734712302228,2024-12-20T16:31:42.228Z,66306,-0.04638672,-0.09887695,0.003967285
1734712302237,2024-12-20T16:31:42.237Z,66315,-0.052978516,-0.09655762,-0.001953125
1734712302244,2024-12-20T16:31:42.244Z,66322,-0.053344727,-0.09991455,-9.1552734E-4
1734712302252,2024-12-20T16:31:42.252Z,66330,-0.04498291,-0.097839355,0.0021362305
1734712302260,2024-12-20T16:31:42.260Z,66338,-0.03967285,-0.097961426,0.010437012
1734712302308,2024-12-20T16:31:42.308Z,66386,-0.04156494,-0.10028076,0.012207031
1734712302314,2024-12-20T16:31:42.314Z,66392,-0.047424316,-0.09887695,0.014587402
1734712302321,2024-12-20T16:31:42.321Z,66399,-0.045288086,-0.095214844,0.0013427734
1734712302330,2024-12-20T16:31:42.330Z,66408,-0.044677734,-0.091918945,-0.008422852
1734712302338,2024-12-20T16:31:42.338Z,66416,-0.050720215,-0.09741211,0.0068969727
1734712302346,2024-12-20T16:31:42.346Z,66424,-0.047058105,-0.10235596,0.006286621
1734712302454,2024-12-20T16:31:42.454Z,66532,-0.037963867,-0.103759766,0.010681152
1734712302470,2024-12-20T16:31:42.470Z,66548,-0.04534912,-0.101623535,0.010131836
1734712302483,2024-12-20T16:31:42.483Z,66561,-0.051330566,-0.10003662,0.015258789
1734712302494,2024-12-20T16:31:42.494Z,66572,-0.05621338,-0.10015869,0.0018310547
1734712302505,2024-12-20T16:31:42.505Z,66583,-0.04663086,-0.10449219,-0.0010375977
1734712302515,2024-12-20T16:31:42.515Z,66593,-0.04675293,-0.10461426,0.008544922
1734712302519,2024-12-20T16:31:42.519Z,66597,-0.053527832,-0.1081543,0.0076293945
1734712302528,2024-12-20T16:31:42.528Z,66606,-0.047058105,-0.105529785,0.0048217773
1734712302536,2024-12-20T16:31:42.536Z,66614,-0.04321289,-0.09753418,-0.0030517578
1734712302544,2024-12-20T16:31:42.544Z,66622,-0.061767578,-0.10430908,-0.008056641
1734712302551,2024-12-20T16:31:42.551Z,66629,-0.04510498,-0.10961914,0.011169434
1734712302559,2024-12-20T16:31:42.559Z,66637,-0.053466797,-0.10772705,0.006286621
1734712302563,2024-12-20T16:31:42.563Z,66641,-0.061584473,-0.0993042,-0.01171875
1734712302571,2024-12-20T16:31:42.571Z,66649,-0.04260254,-0.10632324,-0.01928711
1734712302579,2024-12-20T16:31:42.579Z,66657,-0.04663086,-0.10583496,0.008666992
1734712302587,2024-12-20T16:31:42.587Z,66665,-0.05596924,-0.11584473,0.006652832
1734712302594,2024-12-20T16:31:42.594Z,66672,-0.050720215,-0.11206055,0.0068359375
1734712302601,2024-12-20T16:31:42.601Z,66679,-0.068847656,-0.10321045,0.0048828125
1734712302608,2024-12-20T16:31:42.608Z,66686,-0.07159424,-0.105651855,-0.016174316
1734712302615,2024-12-20T16:31:42.615Z,66693,-0.05432129,-0.107543945,-0.0015258789
1734712302622,2024-12-20T16:31:42.622Z,66700,-0.052734375,-0.11425781,-1.2207031E-4
1734712302629,2024-12-20T16:31:42.629Z,66707,-0.036499023,-0.113464355,-0.009887695
1734712302636,2024-12-20T16:31:42.636Z,66714,-0.052734375,-0.105895996,0.0067749023
1734712302642,2024-12-20T16:31:42.642Z,66720,-0.06060791,-0.111083984,0.0028686523
1734712302669,2024-12-20T16:31:42.669Z,66747,-0.056274414,-0.10046387,-0.009155273
1734712302678,2024-12-20T16:31:42.678Z,66756,-0.062927246,-0.10455322,9.1552734E-4
1734712302686,2024-12-20T16:31:42.686Z,66764,-0.059814453,-0.10888672,0.0018920898
1734712302695,2024-12-20T16:31:42.695Z,66773,-0.055908203,-0.1038208,-0.0018920898
1734712302702,2024-12-20T16:31:42.702Z,66780,-0.04534912,-0.11444092,0.001159668
1734712302715,2024-12-20T16:31:42.715Z,66793,-0.059570312,-0.10760498,0.0037841797
1734712302723,2024-12-20T16:31:42.723Z,66801,-0.05432129,-0.10736084,-0.012756348
1734712302731,2024-12-20T16:31:42.731Z,66809,-0.05529785,-0.10644531,0.004638672
1734712302738,2024-12-20T16:31:42.738Z,66816,-0.06726074,-0.11303711,0.005554199
1734712302745,2024-12-20T16:31:42.745Z,66823,-0.06323242,-0.10467529,-0.0045776367
1734712302848,2024-12-20T16:31:42.848Z,66926,-0.05682373,-0.10656738,-0.0014648438
1734712302862,2024-12-20T16:31:42.862Z,66940,-0.053833008,-0.107910156,-9.1552734E-4
1734712302878,2024-12-20T16:31:42.878Z,66956,-0.051757812,-0.10522461,-0.007751465
1734712302889,2024-12-20T16:31:42.889Z,66967,-0.05218506,-0.10430908,-2.4414062E-4
1734712302900,2024-12-20T16:31:42.900Z,66978,-0.060424805,-0.10845947,7.9345703E-4
1734712302909,2024-12-20T16:31:42.909Z,66987,-0.066345215,-0.10668945,-0.0018920898
1734712302919,2024-12-20T16:31:42.919Z,66997,-0.054016113,-0.1060791,-0.0178833
1734712302928,2024-12-20T16:31:42.928Z,67006,-0.06359863,-0.10437012,-8.544922E-4
1734712302938,2024-12-20T16:31:42.938Z,67016,-0.070129395,-0.10913086,0.004333496
1734712302945,2024-12-20T16:31:42.945Z,67023,-0.05328369,-0.10412598,-0.005493164
1734712302952,2024-12-20T16:31:42.952Z,67030,-0.050048828,-0.109375,-0.019042969
1734712302959,2024-12-20T16:31:42.959Z,67037,-0.068481445,-0.114868164,0.00390625
1734712303026,2024-12-20T16:31:43.026Z,67104,-0.05505371,-0.09869385,-0.011657715
1734712303117,2024-12-20T16:31:43.117Z,67195,-0.0390625,-0.11352539,-0.010131836
1734712303127,2024-12-20T16:31:43.127Z,67205,-0.066345215,-0.101989746,0.004333496
1734712303136,2024-12-20T16:31:43.136Z,67214,-0.067993164,-0.10235596,0.0053710938
1734712303148,2024-12-20T16:31:43.148Z,67226,-0.07458496,-0.10595703,-0.005065918
1734712303160,2024-12-20T16:31:43.160Z,67238,-0.062438965,-0.099731445,-0.016174316
1734712303180,2024-12-20T16:31:43.180Z,67258,-0.054260254,-0.105163574,-0.0012817383
1734712303189,2024-12-20T16:31:43.189Z,67267,-0.075927734,-0.10394287,-0.0015869141
1734712303195,2024-12-20T16:31:43.195Z,67273,-0.055725098,-0.101867676,-0.0076293945
1734712303251,2024-12-20T16:31:43.251Z,67329,-0.057250977,-0.10107422,-0.0052490234
1734712303258,2024-12-20T16:31:43.258Z,67336,-0.06695557,-0.09777832,-0.008117676
1734712303267,2024-12-20T16:31:43.267Z,67345,-0.059020996,-0.097351074,-0.017578125
1734712303275,2024-12-20T16:31:43.275Z,67353,-0.072265625,-0.10845947,0.0045776367
1734712303285,2024-12-20T16:31:43.285Z,67363,-0.08001709,-0.09991455,-0.005432129
1734712303292,2024-12-20T16:31:43.292Z,67370,-0.060180664,-0.10479736,-0.001953125
1734712303299,2024-12-20T16:31:43.299Z,67377,-0.07232666,-0.111083984,0.014038086
1734712303306,2024-12-20T16:31:43.306Z,67384,-0.07165527,-0.10394287,0.0014038086
1734712303314,2024-12-20T16:31:43.314Z,67392,-0.05657959,-0.0982666,-0.011413574
1734712303323,2024-12-20T16:31:43.323Z,67401,-0.058044434,-0.101745605,-0.02734375
1734712303330,2024-12-20T16:31:43.330Z,67408,-0.06738281,-0.10461426,0.005126953
1734712303340,2024-12-20T16:31:43.340Z,67418,-0.061035156,-0.097839355,0.003479004
1734712303344,2024-12-20T16:31:43.344Z,67422,-0.057922363,-0.105041504,-0.0028076172
1734712303351,2024-12-20T16:31:43.351Z,67429,-0.08105469,-0.110961914,0.0126953125
1734712303358,2024-12-20T16:31:43.358Z,67436,-0.07495117,-0.105529785,0.0031738281
1734712303365,2024-12-20T16:31:43.365Z,67443,-0.074645996,-0.099853516,0.0015258789
1734712303372,2024-12-20T16:31:43.372Z,67450,-0.06323242,-0.11260986,0.0051879883
1734712303385,2024-12-20T16:31:43.385Z,67463,-0.062438965,-0.09832764,-0.0033569336
1734712303393,2024-12-20T16:31:43.393Z,67471,-0.05291748,-0.10003662,-0.017822266
1734712303400,2024-12-20T16:31:43.400Z,67478,-0.053222656,-0.10626221,0.0036621094
1734712303406,2024-12-20T16:31:43.406Z,67484,-0.07354736,-0.10473633,0.009338379
1734712303413,2024-12-20T16:31:43.413Z,67491,-0.076538086,-0.099975586,0.0020141602
1734712303419,2024-12-20T16:31:43.419Z,67497,-0.07232666,-0.105895996,0.01373291
1734712303435,2024-12-20T16:31:43.435Z,67513,-0.06567383,-0.105895996,0.008117676
1734712303444,2024-12-20T16:31:43.444Z,67522,-0.049743652,-0.10595703,-2.4414062E-4
1734712303451,2024-12-20T16:31:43.451Z,67529,-0.055908203,-0.10864258,0.0057373047
1734712303458,2024-12-20T16:31:43.458Z,67536,-0.05895996,-0.107177734,0.001159668
1734712303465,2024-12-20T16:31:43.465Z,67543,-0.06976318,-0.10821533,-0.0016479492
1734712303477,2024-12-20T16:31:43.477Z,67555,-0.06506348,-0.11071777,0.00592041
1734712303484,2024-12-20T16:31:43.484Z,67562,-0.06726074,-0.11090088,0.0021972656
1734712303491,2024-12-20T16:31:43.491Z,67569,-0.058532715,-0.11407471,0.009094238
1734712303498,2024-12-20T16:31:43.498Z,67576,-0.05633545,-0.11541748,0.007385254
1734712303506,2024-12-20T16:31:43.506Z,67584,-0.0579834,-0.1138916,0.005004883
1734712303513,2024-12-20T16:31:43.513Z,67591,-0.06573486,-0.11419678,0.0048828125
1734712303523,2024-12-20T16:31:43.523Z,67601,-0.07385254,-0.11236572,0.0052490234
1734712303530,2024-12-20T16:31:43.530Z,67608,-0.06524658,-0.113586426,0.0064086914
1734712303536,2024-12-20T16:31:43.536Z,67614,-0.06427002,-0.11230469,0.0026245117
1734712303542,2024-12-20T16:31:43.542Z,67620,-0.055603027,-0.11315918,0.0068969727
1734712303567,2024-12-20T16:31:43.567Z,67645,-0.058044434,-0.11584473,0.015136719
1734712303575,2024-12-20T16:31:43.575Z,67653,-0.057617188,-0.11187744,0.012817383
1734712303582,2024-12-20T16:31:43.582Z,67660,-0.06524658,-0.10858154,0.010009766
1734712303590,2024-12-20T16:31:43.590Z,67668,-0.062927246,-0.1083374,0.012390137
1734712303597,2024-12-20T16:31:43.597Z,67675,-0.0657959,-0.10614014,0.0056152344
1734712303612,2024-12-20T16:31:43.612Z,67690,-0.05456543,-0.10656738,-2.4414062E-4
1734712303619,2024-12-20T16:31:43.619Z,67697,-0.052124023,-0.11053467,0.008666992
1734712303626,2024-12-20T16:31:43.626Z,67704,-0.059265137,-0.111572266,0.0067749023
1734712303634,2024-12-20T16:31:43.634Z,67712,-0.045898438,-0.11199951,0.009094238
1734712303656,2024-12-20T16:31:43.656Z,67734,-0.06677246,-0.11303711,0.030456543
1734712303664,2024-12-20T16:31:43.664Z,67742,-0.064208984,-0.11029053,0.020874023
1734712303670,2024-12-20T16:31:43.670Z,67748,-0.0569458,-0.10900879,0.012145996
1734712303678,2024-12-20T16:31:43.678Z,67756,-0.059020996,-0.10809326,0.011291504
1734712303703,2024-12-20T16:31:43.703Z,67781,-0.07055664,-0.10583496,0.009338379
1734712303711,2024-12-20T16:31:43.711Z,67789,-0.05255127,-0.109558105,0.013305664
1734712303718,2024-12-20T16:31:43.718Z,67796,-0.05731201,-0.10803223,0.01751709
1734712303725,2024-12-20T16:31:43.725Z,67803,-0.056762695,-0.11517334,0.023986816
1734712303732,2024-12-20T16:31:43.732Z,67810,-0.05303955,-0.11352539,0.03149414
1734712303745,2024-12-20T16:31:43.745Z,67823,-0.06781006,-0.10668945,0.023986816
1734712303751,2024-12-20T16:31:43.751Z,67829,-0.06488037,-0.10656738,0.009216309
1734712303759,2024-12-20T16:31:43.759Z,67837,-0.064941406,-0.10321045,0.010253906
1734712303766,2024-12-20T16:31:43.766Z,67844,-0.060424805,-0.10723877,0.0051879883
1734712303772,2024-12-20T16:31:43.772Z,67850,-0.051574707,-0.11383057,0.012268066
1734712303792,2024-12-20T16:31:43.792Z,67870,-0.05731201,-0.11303711,0.034484863
1734712303802,2024-12-20T16:31:43.802Z,67880,-0.05847168,-0.1159668,0.03479004
1734712303813,2024-12-20T16:31:43.813Z,67891,-0.058288574,-0.114868164,0.030761719
1734712303824,2024-12-20T16:31:43.824Z,67902,-0.06036377,-0.11004639,0.026184082
1734712303836,2024-12-20T16:31:43.836Z,67914,-0.08117676,-0.109069824,0.015991211
1734712303842,2024-12-20T16:31:43.842Z,67920,-0.055603027,-0.113708496,0.023010254
1734712303849,2024-12-20T16:31:43.849Z,67927,-0.06201172,-0.11425781,0.028442383
1734712303975,2024-12-20T16:31:43.975Z,68053,-0.05657959,-0.11480713,0.02911377
1734712303990,2024-12-20T16:31:43.990Z,68068,-0.065979004,-0.116882324,0.04034424
1734712304005,2024-12-20T16:31:44.005Z,68083,-0.064941406,-0.11444092,0.035949707
1734712304016,2024-12-20T16:31:44.016Z,68094,-0.05609131,-0.11279297,0.023864746
1734712304027,2024-12-20T16:31:44.027Z,68105,-0.045776367,-0.11450195,0.02319336
1734712304036,2024-12-20T16:31:44.036Z,68114,-0.0635376,-0.11401367,0.028869629
1734712304047,2024-12-20T16:31:44.047Z,68125,-0.053100586,-0.1171875,0.03656006
1734712304056,2024-12-20T16:31:44.056Z,68134,-0.058410645,-0.11663818,0.037902832
1734712304065,2024-12-20T16:31:44.065Z,68143,-0.06060791,-0.11584473,0.04248047
1734712304072,2024-12-20T16:31:44.072Z,68150,-0.06738281,-0.11871338,0.051696777
1734712304079,2024-12-20T16:31:44.079Z,68157,-0.05609131,-0.1149292,0.041015625
1734712304086,2024-12-20T16:31:44.086Z,68164,-0.05291748,-0.113342285,0.035461426
1734712304092,2024-12-20T16:31:44.092Z,68170,-0.050720215,-0.114868164,0.041748047
1734712304099,2024-12-20T16:31:44.099Z,68177,-0.050720215,-0.11425781,0.044555664
1734712304105,2024-12-20T16:31:44.105Z,68183,-0.04949951,-0.1149292,0.04486084
1734712304112,2024-12-20T16:31:44.112Z,68190,-0.05456543,-0.114746094,0.03918457
1734712304119,2024-12-20T16:31:44.119Z,68197,-0.04449463,-0.11468506,0.031677246
1734712304126,2024-12-20T16:31:44.126Z,68204,-0.049682617,-0.11602783,0.03918457
1734712304132,2024-12-20T16:31:44.132Z,68210,-0.045898438,-0.115478516,0.034973145
1734712304139,2024-12-20T16:31:44.139Z,68217,-0.049560547,-0.11566162,0.03527832
1734712304152,2024-12-20T16:31:44.152Z,68230,-0.05065918,-0.1159668,0.04156494
1734712304159,2024-12-20T16:31:44.159Z,68237,-0.04711914,-0.11651611,0.042236328
1734712304167,2024-12-20T16:31:44.167Z,68245,-0.05065918,-0.11682129,0.044555664
1734712304174,2024-12-20T16:31:44.174Z,68252,-0.04840088,-0.11328125,0.036254883
1734712304181,2024-12-20T16:31:44.181Z,68259,-0.03765869,-0.111328125,0.026916504
1734712304243,2024-12-20T16:31:44.243Z,68321,-0.04309082,-0.11199951,0.032592773
1734712304249,2024-12-20T16:31:44.249Z,68327,-0.050476074,-0.109802246,0.038208008
1734712304255,2024-12-20T16:31:44.255Z,68333,-0.051696777,-0.109802246,0.03302002
1734712304260,2024-12-20T16:31:44.260Z,68338,-0.049316406,-0.11254883,0.034973145
1734712304266,2024-12-20T16:31:44.266Z,68344,-0.047058105,-0.11047363,0.035583496
1734712304272,2024-12-20T16:31:44.272Z,68350,-0.0446167,-0.111206055,0.035583496
1734712304289,2024-12-20T16:31:44.289Z,68367,-0.040039062,-0.113342285,0.036010742
1734712304295,2024-12-20T16:31:44.295Z,68373,-0.04437256,-0.110839844,0.037231445
1734712304303,2024-12-20T16:31:44.303Z,68381,-0.04510498,-0.110961914,0.03314209
1734712304330,2024-12-20T16:31:44.330Z,68408,-0.052246094,-0.11022949,0.030700684
1734712304336,2024-12-20T16:31:44.336Z,68414,-0.049438477,-0.11193848,0.031799316
1734712304343,2024-12-20T16:31:44.343Z,68421,-0.046447754,-0.113708496,0.033813477
1734712304346,2024-12-20T16:31:44.346Z,68424,-0.04449463,-0.11505127,0.03540039
1734712304353,2024-12-20T16:31:44.353Z,68431,-0.041259766,-0.11468506,0.03338623
1734712304359,2024-12-20T16:31:44.359Z,68437,-0.042541504,-0.11376953,0.03326416
1734712304375,2024-12-20T16:31:44.375Z,68453,-0.0435791,-0.11340332,0.032470703
1734712304381,2024-12-20T16:31:44.381Z,68459,-0.047607422,-0.11456299,0.0335083
1734712304388,2024-12-20T16:31:44.388Z,68466,-0.048217773,-0.11395264,0.0335083
1734712304394,2024-12-20T16:31:44.394Z,68472,-0.04437256,-0.11462402,0.033447266
1734712304401,2024-12-20T16:31:44.401Z,68479,-0.04046631,-0.11627197,0.034851074
1734712304410,2024-12-20T16:31:44.410Z,68488,-0.04071045,-0.11608887,0.038269043
1734712304423,2024-12-20T16:31:44.423Z,68501,-0.040222168,-0.1161499,0.036499023
1734712304430,2024-12-20T16:31:44.430Z,68508,-0.041992188,-0.114746094,0.0335083
1734712304436,2024-12-20T16:31:44.436Z,68514,-0.038208008,-0.11376953,0.03387451
1734712304443,2024-12-20T16:31:44.443Z,68521,-0.040161133,-0.11401367,0.03289795
1734712304449,2024-12-20T16:31:44.449Z,68527,-0.036987305,-0.11303711,0.029846191
1734712304466,2024-12-20T16:31:44.466Z,68544,-0.036743164,-0.11505127,0.03161621
1734712304472,2024-12-20T16:31:44.472Z,68550,-0.039489746,-0.11578369,0.03540039
1734712304479,2024-12-20T16:31:44.479Z,68557,-0.03765869,-0.11627197,0.039733887
1734712304485,2024-12-20T16:31:44.485Z,68563,-0.038269043,-0.11633301,0.03930664
1734712304491,2024-12-20T16:31:44.491Z,68569,-0.03845215,-0.115356445,0.037841797
1734712304498,2024-12-20T16:31:44.498Z,68576,-0.035705566,-0.11541748,0.036193848
1734712304514,2024-12-20T16:31:44.514Z,68592,-0.03326416,-0.11444092,0.03302002
1734712304520,2024-12-20T16:31:44.520Z,68598,-0.03363037,-0.113586426,0.030517578
1734712304526,2024-12-20T16:31:44.526Z,68604,-0.037597656,-0.11578369,0.036132812
1734712304532,2024-12-20T16:31:44.532Z,68610,-0.036315918,-0.11529541,0.037902832
1734712304539,2024-12-20T16:31:44.539Z,68617,-0.036499023,-0.11480713,0.036315918
1734712304646,2024-12-20T16:31:44.646Z,68724,-0.034362793,-0.115234375,0.038757324
1734712304691,2024-12-20T16:31:44.691Z,68769,-0.0368042,-0.115234375,0.037475586
1734712304698,2024-12-20T16:31:44.698Z,68776,-0.035217285,-0.113708496,0.03289795
1734712304706,2024-12-20T16:31:44.706Z,68784,-0.03289795,-0.1138916,0.03277588
1734712304716,2024-12-20T16:31:44.716Z,68794,-0.035827637,-0.11437988,0.035217285
1734712304729,2024-12-20T16:31:44.729Z,68807,-0.039123535,-0.11401367,0.037231445
1734712304740,2024-12-20T16:31:44.740Z,68818,-0.038879395,-0.11315918,0.0368042
1734712304746,2024-12-20T16:31:44.746Z,68824,-0.038146973,-0.11303711,0.037475586
1734712304754,2024-12-20T16:31:44.754Z,68832,-0.0390625,-0.11425781,0.039489746
1734712304761,2024-12-20T16:31:44.761Z,68839,-0.038757324,-0.113342285,0.038146973
1734712304767,2024-12-20T16:31:44.767Z,68845,-0.037841797,-0.11218262,0.03265381
1734712304772,2024-12-20T16:31:44.772Z,68850,-0.03741455,-0.112976074,0.036865234
1734712304775,2024-12-20T16:31:44.775Z,68853,-0.04296875,-0.11254883,0.039794922
1734712304784,2024-12-20T16:31:44.784Z,68862,-0.036010742,-0.11126709,0.040405273
1734712304791,2024-12-20T16:31:44.791Z,68869,-0.03491211,-0.11035156,0.037475586
1734712304799,2024-12-20T16:31:44.799Z,68877,-0.039245605,-0.11151123,0.038635254
1734712304804,2024-12-20T16:31:44.804Z,68882,-0.03967285,-0.11193848,0.042297363
1734712304810,2024-12-20T16:31:44.810Z,68888,-0.040161133,-0.11303711,0.043823242
1734712304829,2024-12-20T16:31:44.829Z,68907,-0.03930664,-0.11218262,0.044189453
1734712304836,2024-12-20T16:31:44.836Z,68914,-0.03643799,-0.111450195,0.04248047
1734712304842,2024-12-20T16:31:44.842Z,68920,-0.03656006,-0.11151123,0.0423584
1734712304849,2024-12-20T16:31:44.849Z,68927,-0.035461426,-0.109375,0.039733887
1734712304854,2024-12-20T16:31:44.854Z,68932,-0.03643799,-0.111328125,0.039245605
1734712304862,2024-12-20T16:31:44.862Z,68940,-0.037231445,-0.11114502,0.04046631
1734712304872,2024-12-20T16:31:44.872Z,68950,-0.037109375,-0.111206055,0.04107666
1734712304879,2024-12-20T16:31:44.879Z,68957,-0.03753662,-0.11364746,0.045043945
1734712304886,2024-12-20T16:31:44.886Z,68964,-0.038879395,-0.11505127,0.045532227
1734712304893,2024-12-20T16:31:44.893Z,68971,-0.036254883,-0.11553955,0.04156494
1734712304900,2024-12-20T16:31:44.900Z,68978,-0.036193848,-0.115478516,0.042236328
1734712304915,2024-12-20T16:31:44.915Z,68993,-0.0390625,-0.11767578,0.043823242
1734712304921,2024-12-20T16:31:44.921Z,68999,-0.038879395,-0.117004395,0.04107666
1734712304965,2024-12-20T16:31:44.965Z,69043,-0.036315918,-0.11804199,0.039611816
1734712304972,2024-12-20T16:31:44.972Z,69050,-0.038208008,-0.118652344,0.0423584
1734712304978,2024-12-20T16:31:44.978Z,69056,-0.039367676,-0.11987305,0.042297363
1734712304985,2024-12-20T16:31:44.985Z,69063,-0.03918457,-0.12194824,0.043945312
1734712304992,2024-12-20T16:31:44.992Z,69070,-0.040161133,-0.12475586,0.049194336
1734712305006,2024-12-20T16:31:45.006Z,69084,-0.03967285,-0.123168945,0.041870117
1734712305013,2024-12-20T16:31:45.013Z,69091,-0.039001465,-0.12371826,0.037109375
1734712305054,2024-12-20T16:31:45.054Z,69132,-0.040222168,-0.12554932,0.042053223
1734712305062,2024-12-20T16:31:45.062Z,69140,-0.040283203,-0.12567139,0.041931152
1734712305069,2024-12-20T16:31:45.069Z,69147,-0.041992188,-0.12750244,0.04260254
1734712305077,2024-12-20T16:31:45.077Z,69155,-0.043273926,-0.12878418,0.046020508
1734712305086,2024-12-20T16:31:45.086Z,69164,-0.043762207,-0.13018799,0.046936035
1734712305096,2024-12-20T16:31:45.096Z,69174,-0.041748047,-0.12939453,0.040222168
1734712305105,2024-12-20T16:31:45.105Z,69183,-0.04486084,-0.13012695,0.043884277
1734712305113,2024-12-20T16:31:45.113Z,69191,-0.046569824,-0.1303711,0.041931152
1734712305121,2024-12-20T16:31:45.121Z,69199,-0.037597656,-0.12927246,0.03552246
1734712305127,2024-12-20T16:31:45.127Z,69205,-0.045532227,-0.13171387,0.044555664
1734712305134,2024-12-20T16:31:45.134Z,69212,-0.045776367,-0.12988281,0.04156494
1734712305140,2024-12-20T16:31:45.140Z,69218,-0.045532227,-0.12976074,0.03881836
1734712305148,2024-12-20T16:31:45.148Z,69226,-0.04547119,-0.13128662,0.044006348
1734712305155,2024-12-20T16:31:45.155Z,69233,-0.036743164,-0.128479,0.03918457
1734712305162,2024-12-20T16:31:45.162Z,69240,-0.04309082,-0.12988281,0.043945312
1734712305168,2024-12-20T16:31:45.168Z,69246,-0.04333496,-0.13024902,0.048828125
1734712305175,2024-12-20T16:31:45.175Z,69253,-0.046875,-0.12512207,0.03643799
1734712305187,2024-12-20T16:31:45.187Z,69265,-0.0390625,-0.12176514,0.01953125
1734712305194,2024-12-20T16:31:45.194Z,69272,-0.05065918,-0.122558594,0.038024902
1734712305200,2024-12-20T16:31:45.200Z,69278,-0.049926758,-0.12365723,0.04333496
1734712305207,2024-12-20T16:31:45.207Z,69285,-0.04498291,-0.12365723,0.041381836
1734712305214,2024-12-20T16:31:45.214Z,69292,-0.040405273,-0.124572754,0.04437256
1734712305231,2024-12-20T16:31:45.231Z,69309,-0.043273926,-0.123413086,0.04559326
1734712305238,2024-12-20T16:31:45.238Z,69316,-0.044311523,-0.12200928,0.042297363
1734712305244,2024-12-20T16:31:45.244Z,69322,-0.041015625,-0.118652344,0.028503418
1734712305251,2024-12-20T16:31:45.251Z,69329,-0.051208496,-0.117126465,0.034118652
1734712305257,2024-12-20T16:31:45.257Z,69335,-0.054626465,-0.11669922,0.031433105
1734712305264,2024-12-20T16:31:45.264Z,69342,-0.055236816,-0.119506836,0.04095459
1734712305277,2024-12-20T16:31:45.277Z,69355,-0.050354004,-0.1182251,0.043395996
1734712305284,2024-12-20T16:31:45.284Z,69362,-0.042541504,-0.11804199,0.0446167
1734712305290,2024-12-20T16:31:45.290Z,69368,-0.047912598,-0.117492676,0.046447754
1734712305297,2024-12-20T16:31:45.297Z,69375,-0.049438477,-0.11413574,0.036132812
1734712305304,2024-12-20T16:31:45.304Z,69382,-0.055725098,-0.11627197,0.0345459
1734712305323,2024-12-20T16:31:45.323Z,69401,-0.056762695,-0.11401367,0.028076172
1734712305329,2024-12-20T16:31:45.329Z,69407,-0.06201172,-0.11425781,0.026062012
1734712305337,2024-12-20T16:31:45.337Z,69415,-0.050109863,-0.11621094,0.029968262
1734712305344,2024-12-20T16:31:45.344Z,69422,-0.061584473,-0.11627197,0.040893555
1734712305365,2024-12-20T16:31:45.365Z,69443,-0.057617188,-0.1171875,0.042907715
1734712305373,2024-12-20T16:31:45.373Z,69451,-0.061401367,-0.11907959,0.04498291
1734712305381,2024-12-20T16:31:45.381Z,69459,-0.052368164,-0.11383057,0.032226562
1734712305388,2024-12-20T16:31:45.388Z,69466,-0.06555176,-0.11254883,0.0234375
1734712305397,2024-12-20T16:31:45.397Z,69475,-0.06689453,-0.11340332,0.018737793
1734712305410,2024-12-20T16:31:45.410Z,69488,-0.059936523,-0.11413574,0.027832031
1734712305421,2024-12-20T16:31:45.421Z,69499,-0.05822754,-0.11352539,0.026123047
1734712305427,2024-12-20T16:31:45.427Z,69505,-0.061340332,-0.11773682,0.03729248
1734712305434,2024-12-20T16:31:45.434Z,69512,-0.05822754,-0.11590576,0.0335083
1734712305547,2024-12-20T16:31:45.547Z,69625,-0.064086914,-0.11468506,0.027282715
1734712305555,2024-12-20T16:31:45.555Z,69633,-0.06640625,-0.110961914,0.02130127
1734712305562,2024-12-20T16:31:45.562Z,69640,-0.06750488,-0.10473633,0.016174316
1734712305569,2024-12-20T16:31:45.569Z,69647,-0.05682373,-0.11126709,0.017089844
1734712305577,2024-12-20T16:31:45.577Z,69655,-0.058776855,-0.11437988,0.02923584
1734712305586,2024-12-20T16:31:45.586Z,69664,-0.05999756,-0.10949707,0.037902832
1734712305643,2024-12-20T16:31:45.643Z,69721,-0.06262207,-0.11383057,0.038635254
1734712305654,2024-12-20T16:31:45.654Z,69732,-0.059448242,-0.1126709,0.039733887
1734712305664,2024-12-20T16:31:45.664Z,69742,-0.07421875,-0.10668945,0.028442383
1734712305681,2024-12-20T16:31:45.681Z,69759,-0.06689453,-0.10858154,0.0072021484
1734712305780,2024-12-20T16:31:45.780Z,69858,-0.04949951,-0.109375,0.007385254
1734712305825,2024-12-20T16:31:45.825Z,69903,-0.059143066,-0.10760498,0.023498535
1734712305834,2024-12-20T16:31:45.834Z,69912,-0.06085205,-0.10852051,0.03491211
1734712305846,2024-12-20T16:31:45.846Z,69924,-0.06451416,-0.10632324,0.030822754
1734712305854,2024-12-20T16:31:45.854Z,69932,-0.07513428,-0.104003906,0.027648926
1734712305880,2024-12-20T16:31:45.880Z,69958,-0.068115234,-0.10211182,0.012268066
1734712305889,2024-12-20T16:31:45.889Z,69967,-0.047912598,-0.10784912,0.005432129
1734712305899,2024-12-20T16:31:45.899Z,69977,-0.048950195,-0.103271484,0.014953613
1734712305904,2024-12-20T16:31:45.904Z,69982,-0.06628418,-0.097961426,0.037963867
1734712305913,2024-12-20T16:31:45.913Z,69991,-0.07965088,-0.0904541,0.0178833
1734712305920,2024-12-20T16:31:45.920Z,69998,-0.06109619,-0.09716797,0.0024414062
1734712305929,2024-12-20T16:31:45.929Z,70007,-0.04034424,-0.10656738,0.0021362305
1734712305933,2024-12-20T16:31:45.933Z,70011,-0.056396484,-0.10412598,0.02368164
1734712305936,2024-12-20T16:31:45.936Z,70014,-0.07092285,-0.117248535,0.04248047
1734712305939,2024-12-20T16:31:45.939Z,70017,-0.0690918,-0.1038208,-0.020324707
1734712305946,2024-12-20T16:31:45.946Z,70024,-0.051452637,-0.11071777,-0.0026855469
1734712305954,2024-12-20T16:31:45.954Z,70032,-0.08166504,-0.10473633,0.018554688
1734712305960,2024-12-20T16:31:45.960Z,70038,-0.06512451,-0.113098145,0.027404785
1734712305970,2024-12-20T16:31:45.970Z,70048,-0.069885254,-0.103759766,0.032958984
1734712305983,2024-12-20T16:31:45.983Z,70061,-0.0769043,-0.09674072,0.022888184
1734712305995,2024-12-20T16:31:45.995Z,70073,-0.06994629,-0.09844971,0.02178955
1734712306004,2024-12-20T16:31:46.004Z,70082,-0.070617676,-0.09283447,-0.0014038086
1734712306010,2024-12-20T16:31:46.010Z,70088,-0.061157227,-0.097595215,-0.011352539
1734712306017,2024-12-20T16:31:46.017Z,70095,-0.049621582,-0.10223389,0.013305664
1734712306023,2024-12-20T16:31:46.023Z,70101,-0.07684326,-0.0949707,0.014770508
1734712306087,2024-12-20T16:31:46.087Z,70165,-0.06756592,-0.09576416,0.024597168
1734712306095,2024-12-20T16:31:46.095Z,70173,-0.061767578,-0.09613037,0.03149414
1734712306102,2024-12-20T16:31:46.102Z,70180,-0.08068848,-0.08807373,0.011108398
1734712306109,2024-12-20T16:31:46.109Z,70187,-0.06585693,-0.09289551,0.018066406
1734712306116,2024-12-20T16:31:46.116Z,70194,-0.06060791,-0.095336914,-8.544922E-4
1734712306123,2024-12-20T16:31:46.123Z,70201,-0.044921875,-0.09838867,-0.020568848
1734712306182,2024-12-20T16:31:46.182Z,70260,-0.06604004,-0.09753418,0.010864258
1734712306189,2024-12-20T16:31:46.189Z,70267,-0.073791504,-0.10119629,0.0076904297
1734712306195,2024-12-20T16:31:46.195Z,70273,-0.059570312,-0.107299805,0.018493652
1734712306202,2024-12-20T16:31:46.202Z,70280,-0.080444336,-0.10357666,0.025512695
1734712306209,2024-12-20T16:31:46.209Z,70287,-0.07385254,-0.10253906,0.011779785
1734712306222,2024-12-20T16:31:46.222Z,70300,-0.06097412,-0.105285645,0.014465332
1734712306225,2024-12-20T16:31:46.225Z,70303,-0.06237793,-0.10986328,0.011291504
1734712306233,2024-12-20T16:31:46.233Z,70311,-0.061828613,-0.10595703,0.0076904297
1734712306240,2024-12-20T16:31:46.240Z,70318,-0.060424805,-0.10583496,0.008300781
1734712306247,2024-12-20T16:31:46.247Z,70325,-0.06048584,-0.10498047,-0.0064697266
1734712306254,2024-12-20T16:31:46.254Z,70332,-0.068359375,-0.097351074,-0.0095825195
1734712306315,2024-12-20T16:31:46.315Z,70393,-0.049438477,-0.10876465,-0.006164551
1734712306318,2024-12-20T16:31:46.318Z,70396,-0.04888916,-0.099121094,-0.0021362305
1734712306325,2024-12-20T16:31:46.325Z,70403,-0.052978516,-0.09295654,-0.0017700195
1734712306331,2024-12-20T16:31:46.331Z,70409,-0.05126953,-0.10101318,-0.009338379
1734712306337,2024-12-20T16:31:46.337Z,70415,-0.034057617,-0.09649658,-0.0021362305
1734712306343,2024-12-20T16:31:46.343Z,70421,-0.056640625,-0.09387207,-0.010070801
1734712306405,2024-12-20T16:31:46.405Z,70483,-0.041870117,-0.099121094,-0.0026855469
1734712306411,2024-12-20T16:31:46.411Z,70489,-0.053833008,-0.09466553,0.0014648438
1734712306417,2024-12-20T16:31:46.417Z,70495,-0.054626465,-0.094177246,-0.0045166016
1734712306424,2024-12-20T16:31:46.424Z,70502,-0.045166016,-0.09265137,-0.00579834
1734712306431,2024-12-20T16:31:46.431Z,70509,-0.05078125,-0.099853516,-0.0018310547
1734712306492,2024-12-20T16:31:46.492Z,70570,-0.051086426,-0.10144043,-0.0037231445
1734712306496,2024-12-20T16:31:46.496Z,70574,-0.05041504,-0.09753418,-0.010986328
1734712306505,2024-12-20T16:31:46.505Z,70583,-0.06109619,-0.10882568,-0.007507324
1734712306514,2024-12-20T16:31:46.514Z,70592,-0.059936523,-0.10461426,-0.008544922
1734712306528,2024-12-20T16:31:46.528Z,70606,-0.037902832,-0.112976074,0.0015869141
1734712306537,2024-12-20T16:31:46.537Z,70615,-0.043518066,-0.11413574,-0.0040283203
1734712306581,2024-12-20T16:31:46.581Z,70659,-0.05444336,-0.09875488,-0.0178833
1734712306585,2024-12-20T16:31:46.585Z,70663,-0.04046631,-0.10357666,-0.01159668
1734712306593,2024-12-20T16:31:46.593Z,70671,-0.053100586,-0.10308838,-0.0025024414
1734712306602,2024-12-20T16:31:46.602Z,70680,-0.04437256,-0.107421875,0.002380371
1734712306610,2024-12-20T16:31:46.610Z,70688,-0.048339844,-0.10192871,0.004333496
1734712306620,2024-12-20T16:31:46.620Z,70698,-0.05126953,-0.09967041,-1.8310547E-4
1734712306628,2024-12-20T16:31:46.628Z,70706,-0.053527832,-0.10070801,-0.01727295
1734712306671,2024-12-20T16:31:46.671Z,70749,-0.045959473,-0.10784912,-0.011779785
1734712306675,2024-12-20T16:31:46.675Z,70753,-0.041870117,-0.10882568,-0.008605957
1734712306684,2024-12-20T16:31:46.684Z,70762,-0.046936035,-0.10620117,-0.007385254
1734712306691,2024-12-20T16:31:46.691Z,70769,-0.053527832,-0.10949707,-0.0045166016
1734712306701,2024-12-20T16:31:46.701Z,70779,-0.054748535,-0.11230469,0.0020141602
1734712306709,2024-12-20T16:31:46.709Z,70787,-0.048706055,-0.11669922,-0.015991211
1734712306716,2024-12-20T16:31:46.716Z,70794,-0.04876709,-0.10998535,-0.006164551
1734712306723,2024-12-20T16:31:46.723Z,70801,-0.058044434,-0.10412598,-0.012207031
1734712306730,2024-12-20T16:31:46.730Z,70808,-0.049621582,-0.109191895,-0.009338379
1734712306737,2024-12-20T16:31:46.737Z,70815,-0.044067383,-0.11199951,0.0044555664
1734712306742,2024-12-20T16:31:46.742Z,70820,-0.047790527,-0.11102295,-0.015808105
1734712306806,2024-12-20T16:31:46.806Z,70884,-0.030334473,-0.107177734,-0.023376465
1734712306813,2024-12-20T16:31:46.813Z,70891,-0.049926758,-0.10870361,-0.0020141602
1734712306820,2024-12-20T16:31:46.820Z,70898,-0.05316162,-0.10998535,-0.0045166016
1734712306826,2024-12-20T16:31:46.826Z,70904,-0.043029785,-0.11199951,0.009460449
1734712306903,2024-12-20T16:31:46.903Z,70981,-0.052490234,-0.109375,-0.0018920898
1734712306912,2024-12-20T16:31:46.912Z,70990,-0.045715332,-0.10821533,-0.0033569336
1734712306921,2024-12-20T16:31:46.921Z,70999,-0.046691895,-0.10662842,-0.013793945
1734712306930,2024-12-20T16:31:46.930Z,71008,-0.043884277,-0.11193848,-0.012756348
1734712306940,2024-12-20T16:31:46.940Z,71018,-0.04547119,-0.11364746,-0.007446289
1734712306949,2024-12-20T16:31:46.949Z,71027,-0.054382324,-0.111206055,-0.007080078
1734712306959,2024-12-20T16:31:46.959Z,71037,-0.04840088,-0.114868164,9.765625E-4
1734712306967,2024-12-20T16:31:46.967Z,71045,-0.0592041,-0.111816406,-0.0012207031
1734712306971,2024-12-20T16:31:46.971Z,71049,-0.050842285,-0.11425781,-0.011230469
1734712306976,2024-12-20T16:31:46.976Z,71054,-0.041992188,-0.117370605,-0.0057373047
1734712306985,2024-12-20T16:31:46.985Z,71063,-0.05316162,-0.11279297,-0.005859375
1734712306994,2024-12-20T16:31:46.994Z,71072,-0.05078125,-0.115478516,-0.0024414062
1734712307004,2024-12-20T16:31:47.004Z,71082,-0.052124023,-0.10723877,-0.007446289
1734712307012,2024-12-20T16:31:47.012Z,71090,-0.043945312,-0.10809326,4.8828125E-4
1734712307019,2024-12-20T16:31:47.019Z,71097,-0.049194336,-0.10455322,-9.765625E-4
1734712307024,2024-12-20T16:31:47.024Z,71102,-0.050476074,-0.10601807,-3.0517578E-4
1734712307034,2024-12-20T16:31:47.034Z,71112,-0.041992188,-0.10900879,0.0078125
1734712307037,2024-12-20T16:31:47.037Z,71115,-0.04534912,-0.10858154,-0.0030517578
1734712307042,2024-12-20T16:31:47.042Z,71120,-0.042053223,-0.10668945,0.00390625
1734712307049,2024-12-20T16:31:47.049Z,71127,-0.040405273,-0.10522461,6.1035156E-5
1734712307055,2024-12-20T16:31:47.055Z,71133,-0.047180176,-0.10253906,-0.0017089844
1734712307123,2024-12-20T16:31:47.123Z,71201,-0.048095703,-0.10266113,-0.003479004
1734712307130,2024-12-20T16:31:47.130Z,71208,-0.045410156,-0.099853516,-0.0053100586
1734712307138,2024-12-20T16:31:47.138Z,71216,-0.044189453,-0.10058594,0.002746582
1734712307145,2024-12-20T16:31:47.145Z,71223,-0.03967285,-0.10345459,0.006713867
1734712307153,2024-12-20T16:31:47.153Z,71231,-0.037841797,-0.10217285,0.0061035156
1734712307168,2024-12-20T16:31:47.168Z,71246,-0.04034424,-0.09753418,0.0067749023
1734712307173,2024-12-20T16:31:47.173Z,71251,-0.04156494,-0.09643555,0.003540039
1734712307217,2024-12-20T16:31:47.217Z,71295,-0.050720215,-0.09423828,-0.0016479492
1734712307225,2024-12-20T16:31:47.225Z,71303,-0.042175293,-0.10003662,0.0020141602
1734712307233,2024-12-20T16:31:47.233Z,71311,-0.046081543,-0.1027832,-0.0030517578
1734712307241,2024-12-20T16:31:47.241Z,71319,-0.036865234,-0.1060791,0.0017700195
1734712307249,2024-12-20T16:31:47.249Z,71327,-0.041137695,-0.10723877,-0.0020141602
1734712307255,2024-12-20T16:31:47.255Z,71333,-0.050598145,-0.112976074,0.004760742
1734712307258,2024-12-20T16:31:47.258Z,71336,-0.0592041,-0.11242676,-0.0065307617
1734712307266,2024-12-20T16:31:47.266Z,71344,-0.042236328,-0.123291016,0.0012817383
1734712307273,2024-12-20T16:31:47.273Z,71351,-0.058410645,-0.12030029,-0.0033569336
1734712307307,2024-12-20T16:31:47.307Z,71385,-0.04852295,-0.11987305,-0.00793457
1734712307313,2024-12-20T16:31:47.313Z,71391,-0.039733887,-0.113220215,-0.0015869141
1734712307323,2024-12-20T16:31:47.323Z,71401,-0.052124023,-0.10839844,-0.007019043
1734712307331,2024-12-20T16:31:47.331Z,71409,-0.061279297,-0.10247803,-0.0040283203
1734712307339,2024-12-20T16:31:47.339Z,71417,-0.047546387,-0.1048584,1.8310547E-4
1734712307346,2024-12-20T16:31:47.346Z,71424,-0.047546387,-0.10192871,-0.003540039
1734712307353,2024-12-20T16:31:47.353Z,71431,-0.041015625,-0.10015869,-0.028137207
1734712307359,2024-12-20T16:31:47.359Z,71437,-0.030639648,-0.1003418,-0.009277344
1734712307363,2024-12-20T16:31:47.363Z,71441,-0.055541992,-0.099609375,-0.0041503906
1734712307370,2024-12-20T16:31:47.370Z,71448,-0.048706055,-0.11242676,0.0014648438
1734712307376,2024-12-20T16:31:47.376Z,71454,-0.048339844,-0.10626221,-0.0053100586
1734712307390,2024-12-20T16:31:47.390Z,71468,-0.05657959,-0.10675049,0.0016479492
1734712307393,2024-12-20T16:31:47.393Z,71471,-0.056762695,-0.10925293,0.0012207031
1734712307400,2024-12-20T16:31:47.400Z,71478,-0.05621338,-0.10107422,-0.024780273
1734712307407,2024-12-20T16:31:47.407Z,71485,-0.04046631,-0.10760498,-0.01159668
1734712307414,2024-12-20T16:31:47.414Z,71492,-0.047729492,-0.11193848,-0.0017089844
1734712307421,2024-12-20T16:31:47.421Z,71499,-0.051086426,-0.11291504,-0.010437012
1734712307481,2024-12-20T16:31:47.481Z,71559,-0.05303955,-0.1060791,-0.011230469
1734712307489,2024-12-20T16:31:47.489Z,71567,-0.061828613,-0.1038208,-0.01586914
1734712307497,2024-12-20T16:31:47.497Z,71575,-0.0513916,-0.1104126,-0.015075684
1734712307527,2024-12-20T16:31:47.527Z,71605,-0.054138184,-0.105285645,-0.008911133
1734712307535,2024-12-20T16:31:47.535Z,71613,-0.058044434,-0.10821533,-0.014404297
1734712307543,2024-12-20T16:31:47.543Z,71621,-0.035095215,-0.11956787,-0.016662598
1734712307551,2024-12-20T16:31:47.551Z,71629,-0.050964355,-0.10644531,-0.006164551
1734712307617,2024-12-20T16:31:47.617Z,71695,-0.06933594,-0.101989746,-0.014587402
1734712307625,2024-12-20T16:31:47.625Z,71703,-0.04559326,-0.109191895,-0.015930176
1734712307632,2024-12-20T16:31:47.632Z,71710,-0.05609131,-0.10424805,-0.0051879883
1734712307666,2024-12-20T16:31:47.666Z,71744,-0.06384277,-0.107788086,-0.006164551
1734712307674,2024-12-20T16:31:47.674Z,71752,-0.04486084,-0.10217285,-0.014099121
1734712307678,2024-12-20T16:31:47.678Z,71756,-0.06518555,-0.09844971,-0.013000488
1734712307687,2024-12-20T16:31:47.687Z,71765,-0.046325684,-0.09655762,-0.01550293
1734712307695,2024-12-20T16:31:47.695Z,71773,-0.048217773,-0.1071167,-0.019714355
1734712307703,2024-12-20T16:31:47.703Z,71781,-0.06866455,-0.10290527,0.0028076172
1734712307715,2024-12-20T16:31:47.715Z,71793,-0.054382324,-0.107666016,-3.0517578E-4
1734712307723,2024-12-20T16:31:47.723Z,71801,-0.04345703,-0.10864258,-0.016174316
1734712307732,2024-12-20T16:31:47.732Z,71810,-0.047546387,-0.09411621,-0.0012207031
1734712307739,2024-12-20T16:31:47.739Z,71817,-0.038635254,-0.101135254,-0.018188477
1734712307746,2024-12-20T16:31:47.746Z,71824,-0.05682373,-0.09527588,-1.2207031E-4
1734712307797,2024-12-20T16:31:47.797Z,71875,-0.05859375,-0.101989746,-0.012268066
1734712307801,2024-12-20T16:31:47.801Z,71879,-0.0680542,-0.10473633,-0.024841309
1734712307807,2024-12-20T16:31:47.807Z,71885,-0.05657959,-0.10595703,0.002380371
1734712307815,2024-12-20T16:31:47.815Z,71893,-0.066101074,-0.11834717,0.0036010742
1734712307823,2024-12-20T16:31:47.823Z,71901,-0.0579834,-0.10827637,2.4414062E-4
1734712307831,2024-12-20T16:31:47.831Z,71909,-0.043640137,-0.11193848,-0.016052246
1734712307840,2024-12-20T16:31:47.840Z,71918,-0.07366943,-0.09790039,-0.019714355
1734712307848,2024-12-20T16:31:47.848Z,71926,-0.06970215,-0.10058594,-0.011169434
1734712307856,2024-12-20T16:31:47.856Z,71934,-0.066589355,-0.109436035,0.001953125
1734712307863,2024-12-20T16:31:47.863Z,71941,-0.07092285,-0.111328125,-0.0012817383
1734712307870,2024-12-20T16:31:47.870Z,71948,-0.06317139,-0.10070801,0.0021972656
1734712307877,2024-12-20T16:31:47.877Z,71955,-0.06335449,-0.11035156,9.1552734E-4
1734712307889,2024-12-20T16:31:47.889Z,71967,-0.07696533,-0.105529785,-0.0063476562
1734712307895,2024-12-20T16:31:47.895Z,71973,-0.045776367,-0.096191406,-0.008544922
1734712307901,2024-12-20T16:31:47.901Z,71979,-0.06640625,-0.100097656,0.0078125
1734712307907,2024-12-20T16:31:47.907Z,71985,-0.060791016,-0.099243164,0.002746582
1734712307913,2024-12-20T16:31:47.913Z,71991,-0.0602417,-0.0904541,-0.008850098
1734712307931,2024-12-20T16:31:47.931Z,72009,-0.059753418,-0.09442139,0.0013427734
1734712307981,2024-12-20T16:31:47.981Z,72059,-0.06488037,-0.10266113,-0.0078125
1734712308026,2024-12-20T16:31:48.026Z,72104,-0.057739258,-0.09802246,-2.4414062E-4
1734712308034,2024-12-20T16:31:48.034Z,72112,-0.07305908,-0.10333252,0.00970459
1734712308042,2024-12-20T16:31:48.042Z,72120,-0.05908203,-0.095581055,0.0020141602
1734712308050,2024-12-20T16:31:48.050Z,72128,-0.061523438,-0.0970459,-0.016845703
1734712308058,2024-12-20T16:31:48.058Z,72136,-0.049316406,-0.09106445,-0.016601562
1734712308067,2024-12-20T16:31:48.067Z,72145,-0.052001953,-0.103271484,0.0018310547
1734712308075,2024-12-20T16:31:48.075Z,72153,-0.06341553,-0.11010742,0.0060424805
1734712308083,2024-12-20T16:31:48.083Z,72161,-0.077819824,-0.10620117,0.013977051
1734712308089,2024-12-20T16:31:48.089Z,72167,-0.078063965,-0.107055664,0.013000488
1734712308095,2024-12-20T16:31:48.095Z,72173,-0.0769043,-0.10595703,-0.014282227
1734712308101,2024-12-20T16:31:48.101Z,72179,-0.06567383,-0.10241699,0.006713867
1734712308114,2024-12-20T16:31:48.114Z,72192,-0.07495117,-0.09954834,-2.4414062E-4
1734712308120,2024-12-20T16:31:48.120Z,72198,-0.06945801,-0.09844971,0.00970459
1734712308126,2024-12-20T16:31:48.126Z,72204,-0.07965088,-0.099731445,0.0071411133
1734712308131,2024-12-20T16:31:48.131Z,72209,-0.040222168,-0.097473145,-0.0072631836
1734712308138,2024-12-20T16:31:48.138Z,72216,-0.052856445,-0.10205078,0.01159668
1734712308155,2024-12-20T16:31:48.155Z,72233,-0.04876709,-0.1005249,-9.1552734E-4
1734712308161,2024-12-20T16:31:48.161Z,72239,-0.04638672,-0.11126709,0.0115356445
1734712308167,2024-12-20T16:31:48.167Z,72245,-0.074157715,-0.095458984,0.015808105
1734712308173,2024-12-20T16:31:48.173Z,72251,-0.05706787,-0.111328125,0.027648926
1734712308178,2024-12-20T16:31:48.178Z,72256,-0.06744385,-0.111083984,0.015197754
1734712308204,2024-12-20T16:31:48.204Z,72282,-0.05908203,-0.099731445,0.004211426
1734712308210,2024-12-20T16:31:48.210Z,72288,-0.076293945,-0.10229492,0.005065918
1734712308216,2024-12-20T16:31:48.216Z,72294,-0.045837402,-0.103637695,0.004699707
1734712308223,2024-12-20T16:31:48.223Z,72301,-0.0491333,-0.10443115,0.009338379
1734712308229,2024-12-20T16:31:48.229Z,72307,-0.051513672,-0.11151123,0.014221191
1734712308246,2024-12-20T16:31:48.246Z,72324,-0.060791016,-0.11273193,0.020080566
1734712308260,2024-12-20T16:31:48.260Z,72338,-0.07098389,-0.11273193,0.0345459
1734712308266,2024-12-20T16:31:48.266Z,72344,-0.07904053,-0.1081543,0.0041503906
1734712308273,2024-12-20T16:31:48.273Z,72351,-0.04724121,-0.10772705,-0.004760742
1734712308279,2024-12-20T16:31:48.279Z,72357,-0.045959473,-0.11755371,0.008666992
1734712308285,2024-12-20T16:31:48.285Z,72363,-0.06414795,-0.111206055,0.005493164
1734712308294,2024-12-20T16:31:48.294Z,72372,-0.05291748,-0.117004395,0.016906738
1734712308300,2024-12-20T16:31:48.300Z,72378,-0.064208984,-0.12670898,0.02130127
1734712308306,2024-12-20T16:31:48.306Z,72384,-0.077697754,-0.122680664,0.026733398
1734712308311,2024-12-20T16:31:48.311Z,72389,-0.06237793,-0.12579346,0.033447266
1734712308316,2024-12-20T16:31:48.316Z,72394,-0.058166504,-0.12420654,0.014953613
1734712308336,2024-12-20T16:31:48.336Z,72414,-0.051208496,-0.121276855,0.0021972656
1734712308342,2024-12-20T16:31:48.342Z,72420,-0.06060791,-0.12072754,0.02142334
1734712308347,2024-12-20T16:31:48.347Z,72425,-0.06896973,-0.11669922,0.01171875
1734712308354,2024-12-20T16:31:48.354Z,72432,-0.049865723,-0.12634277,0.01751709
1734712308359,2024-12-20T16:31:48.359Z,72437,-0.061950684,-0.12554932,0.030517578
1734712308381,2024-12-20T16:31:48.381Z,72459,-0.06591797,-0.12719727,0.032104492
1734712308387,2024-12-20T16:31:48.387Z,72465,-0.054382324,-0.12683105,0.03186035
1734712308392,2024-12-20T16:31:48.392Z,72470,-0.061035156,-0.12432861,0.032592773
1734712308398,2024-12-20T16:31:48.398Z,72476,-0.053955078,-0.11804199,0.009460449
1734712308425,2024-12-20T16:31:48.425Z,72503,-0.055236816,-0.11785889,0.011291504
1734712308432,2024-12-20T16:31:48.432Z,72510,-0.053710938,-0.1171875,0.017578125
1734712308439,2024-12-20T16:31:48.439Z,72517,-0.057678223,-0.11871338,0.01550293
1734712308445,2024-12-20T16:31:48.445Z,72523,-0.055664062,-0.12213135,0.026733398
1734712308451,2024-12-20T16:31:48.451Z,72529,-0.062316895,-0.123291016,0.041381836
1734712308470,2024-12-20T16:31:48.470Z,72548,-0.061584473,-0.12017822,0.04083252
1734712308520,2024-12-20T16:31:48.520Z,72598,-0.054016113,-0.11798096,0.0335083
1734712308528,2024-12-20T16:31:48.528Z,72606,-0.048583984,-0.11151123,0.01763916
1734712308536,2024-12-20T16:31:48.536Z,72614,-0.058654785,-0.109558105,0.013244629
1734712308544,2024-12-20T16:31:48.544Z,72622,-0.057556152,-0.10638428,0.01739502
1734712308552,2024-12-20T16:31:48.552Z,72630,-0.054504395,-0.10961914,0.018737793
1734712308560,2024-12-20T16:31:48.560Z,72638,-0.057800293,-0.111694336,0.032165527
1734712308566,2024-12-20T16:31:48.566Z,72644,-0.06817627,-0.1126709,0.038330078
1734712308574,2024-12-20T16:31:48.574Z,72652,-0.046691895,-0.111572266,0.030334473
1734712308581,2024-12-20T16:31:48.581Z,72659,-0.04260254,-0.11242676,0.026245117
1734712308588,2024-12-20T16:31:48.588Z,72666,-0.048950195,-0.10803223,0.027770996
1734712308593,2024-12-20T16:31:48.593Z,72671,-0.06237793,-0.1081543,0.029296875
1734712308608,2024-12-20T16:31:48.608Z,72686,-0.06317139,-0.111083984,0.02331543
1734712308613,2024-12-20T16:31:48.613Z,72691,-0.06665039,-0.113342285,0.032958984
1734712308620,2024-12-20T16:31:48.620Z,72698,-0.06439209,-0.11236572,0.03729248
1734712308625,2024-12-20T16:31:48.625Z,72703,-0.055786133,-0.11437988,0.036499023
1734712308634,2024-12-20T16:31:48.634Z,72712,-0.055664062,-0.113098145,0.03479004
1734712308741,2024-12-20T16:31:48.741Z,72819,-0.04559326,-0.11273193,0.031921387
1734712308747,2024-12-20T16:31:48.747Z,72825,-0.07080078,-0.11022949,0.03375244
1734712308787,2024-12-20T16:31:48.787Z,72865,-0.06414795,-0.111450195,0.019348145
1734712308793,2024-12-20T16:31:48.793Z,72871,-0.059326172,-0.112854004,0.032226562
1734712308800,2024-12-20T16:31:48.800Z,72878,-0.058288574,-0.11273193,0.038330078
1734712308807,2024-12-20T16:31:48.807Z,72885,-0.05670166,-0.112976074,0.036865234
1734712308831,2024-12-20T16:31:48.831Z,72909,-0.056152344,-0.1138916,0.046813965
1734712308839,2024-12-20T16:31:48.839Z,72917,-0.062072754,-0.11291504,0.04296875
1734712308848,2024-12-20T16:31:48.848Z,72926,-0.052246094,-0.10809326,0.035888672
1734712308854,2024-12-20T16:31:48.854Z,72932,-0.056274414,-0.107543945,0.028320312
1734712308861,2024-12-20T16:31:48.861Z,72939,-0.049682617,-0.109680176,0.026367188
1734712308868,2024-12-20T16:31:48.868Z,72946,-0.059143066,-0.111694336,0.056030273
1734712308877,2024-12-20T16:31:48.877Z,72955,-0.055419922,-0.11077881,0.045898438
1734712308884,2024-12-20T16:31:48.884Z,72962,-0.050231934,-0.10858154,0.03692627
1734712308888,2024-12-20T16:31:48.888Z,72966,-0.046875,-0.11175537,0.039733887
1734712308894,2024-12-20T16:31:48.894Z,72972,-0.046142578,-0.111328125,0.039367676
1734712308899,2024-12-20T16:31:48.899Z,72977,-0.047912598,-0.11206055,0.04156494
1734712308905,2024-12-20T16:31:48.905Z,72983,-0.047790527,-0.11376953,0.045715332
1734712308925,2024-12-20T16:31:48.925Z,73003,-0.046569824,-0.11376953,0.04119873
1734712308931,2024-12-20T16:31:48.931Z,73009,-0.04522705,-0.112976074,0.03729248
1734712308937,2024-12-20T16:31:48.937Z,73015,-0.043395996,-0.11383057,0.04296875
1734712308943,2024-12-20T16:31:48.943Z,73021,-0.040222168,-0.11364746,0.03942871
1734712308948,2024-12-20T16:31:48.948Z,73026,-0.043640137,-0.11505127,0.042175293
1734712308966,2024-12-20T16:31:48.966Z,73044,-0.04522705,-0.11541748,0.04663086
1734712309014,2024-12-20T16:31:49.014Z,73092,-0.045166016,-0.11584473,0.04626465
1734712309022,2024-12-20T16:31:49.022Z,73100,-0.043884277,-0.115356445,0.04345703
1734712309029,2024-12-20T16:31:49.029Z,73107,-0.038208008,-0.11584473,0.04119873
1734712309037,2024-12-20T16:31:49.037Z,73115,-0.043518066,-0.11462402,0.04156494
1734712309045,2024-12-20T16:31:49.045Z,73123,-0.040222168,-0.11340332,0.038269043
1734712309106,2024-12-20T16:31:49.106Z,73184,-0.040161133,-0.113708496,0.039916992
1734712309120,2024-12-20T16:31:49.120Z,73198,-0.03857422,-0.113220215,0.03967285
1734712309150,2024-12-20T16:31:49.150Z,73228,-0.039489746,-0.11206055,0.039123535
1734712309165,2024-12-20T16:31:49.165Z,73243,-0.03894043,-0.11279297,0.040039062
1734712309180,2024-12-20T16:31:49.180Z,73258,-0.034179688,-0.113098145,0.038391113
1734712309193,2024-12-20T16:31:49.193Z,73271,-0.034851074,-0.11450195,0.0413208
1734712309201,2024-12-20T16:31:49.201Z,73279,-0.042663574,-0.11419678,0.040771484
1734712309206,2024-12-20T16:31:49.206Z,73284,-0.03479004,-0.11175537,0.032958984
1734712309213,2024-12-20T16:31:49.213Z,73291,-0.03265381,-0.11248779,0.03515625
1734712309221,2024-12-20T16:31:49.221Z,73299,-0.039978027,-0.11431885,0.041625977
1734712309228,2024-12-20T16:31:49.228Z,73306,-0.03753662,-0.11468506,0.045410156
1734712309236,2024-12-20T16:31:49.236Z,73314,-0.033813477,-0.114868164,0.044555664
1734712309243,2024-12-20T16:31:49.243Z,73321,-0.034118652,-0.11352539,0.039367676
1734712309248,2024-12-20T16:31:49.248Z,73326,-0.03375244,-0.11279297,0.038879395
1734712309256,2024-12-20T16:31:49.256Z,73334,-0.03253174,-0.11425781,0.0435791
1734712309262,2024-12-20T16:31:49.262Z,73340,-0.034301758,-0.11450195,0.0435791
1734712309267,2024-12-20T16:31:49.267Z,73345,-0.03289795,-0.113708496,0.042236328
1734712309274,2024-12-20T16:31:49.274Z,73352,-0.03338623,-0.11364746,0.04321289
1734712309280,2024-12-20T16:31:49.280Z,73358,-0.029052734,-0.11273193,0.04107666
1734712309286,2024-12-20T16:31:49.286Z,73364,-0.030029297,-0.1138916,0.043273926
1734712309292,2024-12-20T16:31:49.292Z,73370,-0.032592773,-0.11450195,0.04638672
1734712309297,2024-12-20T16:31:49.297Z,73375,-0.03326416,-0.11566162,0.046142578
1734712309302,2024-12-20T16:31:49.302Z,73380,-0.03302002,-0.1171875,0.047851562
1734712309308,2024-12-20T16:31:49.308Z,73386,-0.031799316,-0.11651611,0.048034668
1734712309313,2024-12-20T16:31:49.313Z,73391,-0.031066895,-0.11517334,0.046081543
1734712309330,2024-12-20T16:31:49.330Z,73408,-0.03289795,-0.11566162,0.046142578
1734712309374,2024-12-20T16:31:49.374Z,73452,-0.03466797,-0.11578369,0.045410156
1734712309380,2024-12-20T16:31:49.380Z,73458,-0.034729004,-0.11584473,0.045715332
1734712309386,2024-12-20T16:31:49.386Z,73464,-0.033325195,-0.11651611,0.048461914
1734712309392,2024-12-20T16:31:49.392Z,73470,-0.03277588,-0.11541748,0.048034668
1734712309398,2024-12-20T16:31:49.398Z,73476,-0.034057617,-0.11450195,0.04675293
1734712309415,2024-12-20T16:31:49.415Z,73493,-0.030761719,-0.11407471,0.042907715
1734712309462,2024-12-20T16:31:49.462Z,73540,-0.026184082,-0.113586426,0.044311523
1734712309469,2024-12-20T16:31:49.469Z,73547,-0.028930664,-0.112854004,0.045166016
1734712309476,2024-12-20T16:31:49.476Z,73554,-0.02935791,-0.11206055,0.04699707
1734712309483,2024-12-20T16:31:49.483Z,73561,-0.028137207,-0.11047363,0.045166016
1734712309490,2024-12-20T16:31:49.490Z,73568,-0.028625488,-0.111206055,0.050354004
1734712309496,2024-12-20T16:31:49.496Z,73574,-0.029418945,-0.11053467,0.05065918
1734712309552,2024-12-20T16:31:49.552Z,73630,-0.026672363,-0.109802246,0.047851562
1734712309559,2024-12-20T16:31:49.559Z,73637,-0.024780273,-0.109558105,0.046569824
1734712309566,2024-12-20T16:31:49.566Z,73644,-0.02520752,-0.10974121,0.04626465
1734712309574,2024-12-20T16:31:49.574Z,73652,-0.02368164,-0.10913086,0.047424316
1734712309581,2024-12-20T16:31:49.581Z,73659,-0.024414062,-0.109191895,0.047668457
1734712309589,2024-12-20T16:31:49.589Z,73667,-0.026000977,-0.10992432,0.04949951
1734712309646,2024-12-20T16:31:49.646Z,73724,-0.024047852,-0.10925293,0.04852295
1734712309653,2024-12-20T16:31:49.653Z,73731,-0.019470215,-0.10888672,0.043701172
1734712309660,2024-12-20T16:31:49.660Z,73738,-0.023620605,-0.109375,0.045715332
1734712309667,2024-12-20T16:31:49.667Z,73745,-0.021057129,-0.109802246,0.045715332
1734712309674,2024-12-20T16:31:49.674Z,73752,-0.023010254,-0.10925293,0.04736328
1734712309687,2024-12-20T16:31:49.687Z,73765,-0.024658203,-0.111328125,0.05029297
1734712309691,2024-12-20T16:31:49.691Z,73769,-0.025878906,-0.11431885,0.049560547
1734712309699,2024-12-20T16:31:49.699Z,73777,-0.026550293,-0.11480713,0.046691895
1734712309706,2024-12-20T16:31:49.706Z,73784,-0.026000977,-0.11425781,0.04437256
1734712309714,2024-12-20T16:31:49.714Z,73792,-0.029541016,-0.117126465,0.051513672
1734712309734,2024-12-20T16:31:49.734Z,73812,-0.027770996,-0.11730957,0.05493164
1734712309741,2024-12-20T16:31:49.741Z,73819,-0.026428223,-0.11621094,0.05255127
1734712309744,2024-12-20T16:31:49.744Z,73822,-0.027832031,-0.11968994,0.049072266
1734712309749,2024-12-20T16:31:49.749Z,73827,-0.02709961,-0.120788574,0.056274414
1734712309756,2024-12-20T16:31:49.756Z,73834,-0.027282715,-0.118896484,0.05114746
1734712309762,2024-12-20T16:31:49.762Z,73840,-0.02947998,-0.12200928,0.050964355
1734712309778,2024-12-20T16:31:49.778Z,73856,-0.034484863,-0.12359619,0.05859375
1734712309784,2024-12-20T16:31:49.784Z,73862,-0.035705566,-0.12670898,0.059326172
1734712309790,2024-12-20T16:31:49.790Z,73868,-0.033203125,-0.12860107,0.057800293
1734712309796,2024-12-20T16:31:49.796Z,73874,-0.027954102,-0.12927246,0.054748535
1734712309801,2024-12-20T16:31:49.801Z,73879,-0.031799316,-0.12957764,0.055603027
1734712309867,2024-12-20T16:31:49.867Z,73945,-0.027709961,-0.12792969,0.051208496
1734712309876,2024-12-20T16:31:49.876Z,73954,-0.028625488,-0.12890625,0.051208496
1734712309885,2024-12-20T16:31:49.885Z,73963,-0.030456543,-0.13031006,0.053222656
1734712309899,2024-12-20T16:31:49.899Z,73977,-0.035949707,-0.13232422,0.061584473
1734712309907,2024-12-20T16:31:49.907Z,73985,-0.03491211,-0.13433838,0.06329346
1734712309916,2024-12-20T16:31:49.916Z,73994,-0.033935547,-0.13531494,0.061828613
1734712309923,2024-12-20T16:31:49.923Z,74001,-0.033691406,-0.13220215,0.051635742
1734712309930,2024-12-20T16:31:49.930Z,74008,-0.036743164,-0.13378906,0.051086426
1734712309937,2024-12-20T16:31:49.937Z,74015,-0.03479004,-0.13543701,0.061401367
1734712309943,2024-12-20T16:31:49.943Z,74021,-0.027526855,-0.13482666,0.064575195
1734712309949,2024-12-20T16:31:49.949Z,74027,-0.032165527,-0.13458252,0.06750488
1734712309955,2024-12-20T16:31:49.955Z,74033,-0.038635254,-0.1270752,0.045166016
1734712309962,2024-12-20T16:31:49.962Z,74040,-0.050598145,-0.12731934,0.045654297
1734712309966,2024-12-20T16:31:49.966Z,74044,-0.037841797,-0.12835693,0.057006836
1734712309972,2024-12-20T16:31:49.972Z,74050,-0.039794922,-0.13110352,0.068847656
1734712309977,2024-12-20T16:31:49.977Z,74055,-0.031188965,-0.12915039,0.06915283
1734712309981,2024-12-20T16:31:49.981Z,74059,-0.024902344,-0.12310791,0.056762695
1734712310004,2024-12-20T16:31:50.004Z,74082,-0.040222168,-0.12109375,0.05230713
1734712310010,2024-12-20T16:31:50.010Z,74088,-0.036132812,-0.119628906,0.045166016
1734712310016,2024-12-20T16:31:50.016Z,74094,-0.045837402,-0.118896484,0.0435791
1734712310047,2024-12-20T16:31:50.047Z,74125,-0.053771973,-0.121032715,0.0413208
1734712310053,2024-12-20T16:31:50.053Z,74131,-0.050720215,-0.12194824,0.054626465
1734712310060,2024-12-20T16:31:50.060Z,74138,-0.04284668,-0.1204834,0.06237793
1734712310066,2024-12-20T16:31:50.066Z,74144,-0.03918457,-0.11834717,0.05621338
1734712310072,2024-12-20T16:31:50.072Z,74150,-0.046203613,-0.11798096,0.055664062
1734712310089,2024-12-20T16:31:50.089Z,74167,-0.040283203,-0.11315918,0.041015625
1734712310095,2024-12-20T16:31:50.095Z,74173,-0.045715332,-0.11206055,0.032348633
1734712310101,2024-12-20T16:31:50.101Z,74179,-0.06542969,-0.113464355,0.039123535
1734712310108,2024-12-20T16:31:50.108Z,74186,-0.037597656,-0.11071777,0.034362793
1734712310114,2024-12-20T16:31:50.114Z,74192,-0.05255127,-0.115112305,0.05291748
1734712310120,2024-12-20T16:31:50.120Z,74198,-0.045776367,-0.11383057,0.058410645
1734712310186,2024-12-20T16:31:50.186Z,74264,-0.05065918,-0.11114502,0.051574707
1734712310192,2024-12-20T16:31:50.192Z,74270,-0.055603027,-0.11236572,0.05883789
1734712310198,2024-12-20T16:31:50.198Z,74276,-0.055419922,-0.10510254,0.03100586
1734712310204,2024-12-20T16:31:50.204Z,74282,-0.047668457,-0.11065674,0.020324707
1734712310211,2024-12-20T16:31:50.211Z,74289,-0.054870605,-0.11065674,0.036315918
1734712310226,2024-12-20T16:31:50.226Z,74304,-0.042175293,-0.107543945,0.027893066
1734712310232,2024-12-20T16:31:50.232Z,74310,-0.050231934,-0.11218262,0.046142578
1734712310239,2024-12-20T16:31:50.239Z,74317,-0.054504395,-0.10668945,0.04840088
1734712310275,2024-12-20T16:31:50.275Z,74353,-0.056152344,-0.1126709,0.053588867
1734712310282,2024-12-20T16:31:50.282Z,74360,-0.06329346,-0.1083374,0.05291748
1734712310290,2024-12-20T16:31:50.290Z,74368,-0.060302734,-0.10345459,0.018310547
1734712310297,2024-12-20T16:31:50.297Z,74375,-0.046875,-0.11584473,0.016540527
1734712310303,2024-12-20T16:31:50.303Z,74381,-0.046203613,-0.10986328,0.019592285
1734712310315,2024-12-20T16:31:50.315Z,74393,-0.051513672,-0.111206055,0.03375244
1734712310325,2024-12-20T16:31:50.325Z,74403,-0.056274414,-0.114746094,0.039794922
1734712310331,2024-12-20T16:31:50.331Z,74409,-0.050109863,-0.11578369,0.052612305
1734712310337,2024-12-20T16:31:50.337Z,74415,-0.053710938,-0.115722656,0.052001953
1734712310344,2024-12-20T16:31:50.344Z,74422,-0.0791626,-0.11035156,0.027770996
1734712310349,2024-12-20T16:31:50.349Z,74427,-0.05731201,-0.1003418,0.0012207031
1734712310363,2024-12-20T16:31:50.363Z,74441,-0.039245605,-0.10498047,0.01751709
1734712310368,2024-12-20T16:31:50.368Z,74446,-0.051208496,-0.109191895,0.03930664
1734712310374,2024-12-20T16:31:50.374Z,74452,-0.056030273,-0.10681152,0.04284668
1734712310380,2024-12-20T16:31:50.380Z,74458,-0.061279297,-0.1071167,0.04547119
1734712310385,2024-12-20T16:31:50.385Z,74463,-0.060180664,-0.1060791,0.046813965
1734712310406,2024-12-20T16:31:50.406Z,74484,-0.084350586,-0.0949707,0.01739502
1734712310412,2024-12-20T16:31:50.412Z,74490,-0.03656006,-0.09991455,-0.0045166016
1734712310418,2024-12-20T16:31:50.418Z,74496,-0.03930664,-0.101867676,0.01171875
1734712310425,2024-12-20T16:31:50.425Z,74503,-0.06756592,-0.103271484,0.02923584
1734712310431,2024-12-20T16:31:50.431Z,74509,-0.044677734,-0.1081543,0.038085938
1734712310437,2024-12-20T16:31:50.437Z,74515,-0.055908203,-0.10583496,0.035217285
1734712310453,2024-12-20T16:31:50.453Z,74531,-0.06713867,-0.10418701,0.039123535
1734712310495,2024-12-20T16:31:50.495Z,74573,-0.05682373,-0.10369873,0.034851074
1734712310501,2024-12-20T16:31:50.501Z,74579,-0.06738281,-0.10119629,0.0028076172
1734712310508,2024-12-20T16:31:50.508Z,74586,-0.047790527,-0.10534668,-0.007446289
1734712310515,2024-12-20T16:31:50.515Z,74593,-0.045776367,-0.1048584,0.006958008
1734712310521,2024-12-20T16:31:50.521Z,74599,-0.06347656,-0.11126709,0.026123047
1734712310527,2024-12-20T16:31:50.527Z,74605,-0.06347656,-0.109436035,0.03704834
1734712310544,2024-12-20T16:31:50.544Z,74622,-0.054260254,-0.11444092,0.04168701
1734712310551,2024-12-20T16:31:50.551Z,74629,-0.057250977,-0.11151123,0.03137207
1734712310559,2024-12-20T16:31:50.559Z,74637,-0.072265625,-0.0993042,0.018310547
1734712310565,2024-12-20T16:31:50.565Z,74643,-0.06567383,-0.10736084,-0.008239746
1734712310572,2024-12-20T16:31:50.572Z,74650,-0.057250977,-0.117370605,-0.003540039
1734712310585,2024-12-20T16:31:50.585Z,74663,-0.051940918,-0.10900879,0.015991211
1734712310634,2024-12-20T16:31:50.634Z,74712,-0.058898926,-0.115478516,0.009765625
1734712310640,2024-12-20T16:31:50.640Z,74718,-0.053771973,-0.11456299,0.013793945
1734712310646,2024-12-20T16:31:50.646Z,74724,-0.0625,-0.11633301,0.026489258
1734712310652,2024-12-20T16:31:50.652Z,74730,-0.06317139,-0.11602783,0.016784668
1734712310659,2024-12-20T16:31:50.659Z,74737,-0.058166504,-0.11541748,0.020629883
1734712310676,2024-12-20T16:31:50.676Z,74754,-0.07446289,-0.10644531,-4.8828125E-4
1734712310681,2024-12-20T16:31:50.681Z,74759,-0.06738281,-0.10723877,-0.014343262
1734712310688,2024-12-20T16:31:50.688Z,74766,-0.042785645,-0.11248779,6.1035156E-4
1734712310695,2024-12-20T16:31:50.695Z,74773,-0.06036377,-0.11114502,0.008605957
1734712310700,2024-12-20T16:31:50.700Z,74778,-0.06286621,-0.10974121,0.017456055
1734712310706,2024-12-20T16:31:50.706Z,74784,-0.057495117,-0.1104126,0.012878418
1734712310724,2024-12-20T16:31:50.724Z,74802,-0.059387207,-0.10412598,0.015808105
1734712310734,2024-12-20T16:31:50.734Z,74812,-0.060791016,-0.1015625,0.0068359375
1734712310749,2024-12-20T16:31:50.749Z,74827,-0.063964844,-0.09503174,-0.01550293
1734712310764,2024-12-20T16:31:50.764Z,74842,-0.04626465,-0.10614014,-0.0040893555
1734712310777,2024-12-20T16:31:50.777Z,74855,-0.057556152,-0.10095215,-0.001159668
1734712310790,2024-12-20T16:31:50.790Z,74868,-0.04876709,-0.10455322,0.0031738281
1734712310800,2024-12-20T16:31:50.800Z,74878,-0.057434082,-0.103515625,0.012817383
1734712310807,2024-12-20T16:31:50.807Z,74885,-0.059326172,-0.10272217,0.011779785
1734712310814,2024-12-20T16:31:50.814Z,74892,-0.051452637,-0.10192871,0.006164551
1734712310820,2024-12-20T16:31:50.820Z,74898,-0.06744385,-0.09875488,-3.0517578E-4
1734712310826,2024-12-20T16:31:50.826Z,74904,-0.06439209,-0.10058594,-0.0067749023
1734712310833,2024-12-20T16:31:50.833Z,74911,-0.048583984,-0.10394287,-0.0018920898
1734712310839,2024-12-20T16:31:50.839Z,74917,-0.053466797,-0.10168457,0.0029907227
1734712310844,2024-12-20T16:31:50.844Z,74922,-0.06097412,-0.09899902,0.0036621094
1734712310850,2024-12-20T16:31:50.850Z,74928,-0.057495117,-0.098083496,0.009399414
1734712310856,2024-12-20T16:31:50.856Z,74934,-0.06591797,-0.095947266,0.0053710938
1734712310862,2024-12-20T16:31:50.862Z,74940,-0.057128906,-0.089660645,-0.010620117
1734712310867,2024-12-20T16:31:50.867Z,74945,-0.0435791,-0.09020996,-0.03338623
1734712310872,2024-12-20T16:31:50.872Z,74950,-0.042175293,-0.09790039,-0.014160156
1734712310877,2024-12-20T16:31:50.877Z,74955,-0.06213379,-0.093444824,-0.0038452148
1734712310883,2024-12-20T16:31:50.883Z,74961,-0.06048584,-0.0927124,0.008361816
1734712310905,2024-12-20T16:31:50.905Z,74983,-0.05718994,-0.09753418,0.007019043
1734712311043,2024-12-20T16:31:51.043Z,75121,-0.046203613,-0.07775879,-0.007873535
1734712311050,2024-12-20T16:31:51.050Z,75128,-0.055786133,-0.09429932,-0.00390625
1734712311057,2024-12-20T16:31:51.057Z,75135,-0.051879883,-0.08325195,-0.007385254
1734712311065,2024-12-20T16:31:51.065Z,75143,-0.049621582,-0.08050537,-0.02142334
1734712311072,2024-12-20T16:31:51.072Z,75150,-0.04724121,-0.09246826,-0.014282227
1734712311080,2024-12-20T16:31:51.080Z,75158,-0.0501709,-0.095458984,-0.008483887
1734712311088,2024-12-20T16:31:51.088Z,75166,-0.055480957,-0.096069336,0.005065918
1734712311095,2024-12-20T16:31:51.095Z,75173,-0.064208984,-0.099243164,0.008728027
1734712311102,2024-12-20T16:31:51.102Z,75180,-0.06427002,-0.09625244,-0.013366699
1734712311111,2024-12-20T16:31:51.111Z,75189,-0.03967285,-0.096191406,-0.022949219
1734712311229,2024-12-20T16:31:51.229Z,75307,-0.049865723,-0.10357666,-0.026062012
1734712311242,2024-12-20T16:31:51.242Z,75320,-0.056030273,-0.10668945,-0.0056152344
1734712311249,2024-12-20T16:31:51.249Z,75327,-0.051330566,-0.09954834,-0.010192871
1734712311258,2024-12-20T16:31:51.258Z,75336,-0.057250977,-0.10180664,-0.017822266
1734712311266,2024-12-20T16:31:51.266Z,75344,-0.056884766,-0.09881592,-0.01373291
1734712311275,2024-12-20T16:31:51.275Z,75353,-0.054382324,-0.09906006,-0.007385254
1734712311318,2024-12-20T16:31:51.318Z,75396,-0.053100586,-0.10510254,-0.0032348633
1734712311330,2024-12-20T16:31:51.330Z,75408,-0.053527832,-0.097839355,-0.016784668
1734712311342,2024-12-20T16:31:51.342Z,75420,-0.06121826,-0.09484863,-0.015808105
1734712311353,2024-12-20T16:31:51.353Z,75431,-0.052246094,-0.103881836,-0.008361816
1734712311362,2024-12-20T16:31:51.362Z,75440,-0.06274414,-0.099365234,-0.022033691
1734712311369,2024-12-20T16:31:51.369Z,75447,-0.05456543,-0.10058594,-0.011413574
1734712311373,2024-12-20T16:31:51.373Z,75451,-0.055480957,-0.1027832,-0.0056762695
1734712311380,2024-12-20T16:31:51.380Z,75458,-0.059387207,-0.101257324,-6.1035156E-5
1734712311387,2024-12-20T16:31:51.387Z,75465,-0.051757812,-0.09863281,-0.019226074
1734712311393,2024-12-20T16:31:51.393Z,75471,-0.056274414,-0.09802246,-0.015930176
1734712311399,2024-12-20T16:31:51.399Z,75477,-0.0602417,-0.10424805,-0.016601562
1734712311405,2024-12-20T16:31:51.405Z,75483,-0.051818848,-0.10797119,-0.008117676
1734712311409,2024-12-20T16:31:51.409Z,75487,-0.057922363,-0.10510254,-0.0032348633
1734712311414,2024-12-20T16:31:51.414Z,75492,-0.057128906,-0.10223389,-0.011291504
1734712311441,2024-12-20T16:31:51.441Z,75519,-0.059020996,-0.099365234,-0.012207031
1734712311447,2024-12-20T16:31:51.447Z,75525,-0.05645752,-0.109558105,-0.016601562
1734712311455,2024-12-20T16:31:51.455Z,75533,-0.043884277,-0.11236572,-0.00970459
1734712311462,2024-12-20T16:31:51.462Z,75540,-0.06976318,-0.107421875,-0.003967285
1734712311469,2024-12-20T16:31:51.469Z,75547,-0.066467285,-0.105773926,-0.0014648438
1734712311476,2024-12-20T16:31:51.476Z,75554,-0.059814453,-0.1026001,0.0063476562
1734712311493,2024-12-20T16:31:51.493Z,75571,-0.06958008,-0.099487305,-0.00970459
1734712311499,2024-12-20T16:31:51.499Z,75577,-0.059265137,-0.10333252,-0.009094238
1734712311505,2024-12-20T16:31:51.505Z,75583,-0.06060791,-0.10571289,0.0014038086
1734712311510,2024-12-20T16:31:51.510Z,75588,-0.05126953,-0.109191895,-0.003112793
1734712311515,2024-12-20T16:31:51.515Z,75593,-0.05102539,-0.10845947,-0.008728027
1734712311530,2024-12-20T16:31:51.530Z,75608,-0.055358887,-0.107177734,-9.765625E-4
1734712311532,2024-12-20T16:31:51.532Z,75610,-0.062072754,-0.1060791,0.0018920898
1734712311538,2024-12-20T16:31:51.538Z,75616,-0.06542969,-0.10681152,-0.008544922
1734712311543,2024-12-20T16:31:51.543Z,75621,-0.056396484,-0.11016846,0.0012207031
1734712311549,2024-12-20T16:31:51.549Z,75627,-0.05432129,-0.11584473,6.1035156E-5
1734712311554,2024-12-20T16:31:51.554Z,75632,-0.05340576,-0.11450195,-0.0053710938
1734712311576,2024-12-20T16:31:51.576Z,75654,-0.051940918,-0.112854004,-0.0045776367
1734712311581,2024-12-20T16:31:51.581Z,75659,-0.050231934,-0.11468506,0.005493164
1734712311587,2024-12-20T16:31:51.587Z,75665,-0.06237793,-0.1104126,0.0021972656
1734712311620,2024-12-20T16:31:51.620Z,75698,-0.06347656,-0.10949707,-0.0029296875
1734712311627,2024-12-20T16:31:51.627Z,75705,-0.05206299,-0.11663818,0.0025634766
1734712311633,2024-12-20T16:31:51.633Z,75711,-0.051818848,-0.116882324,0.0028686523
1734712311640,2024-12-20T16:31:51.640Z,75718,-0.05029297,-0.11621094,0.0032958984
1734712311646,2024-12-20T16:31:51.646Z,75724,-0.051879883,-0.11413574,-0.0072021484
1734712311652,2024-12-20T16:31:51.652Z,75730,-0.045166016,-0.11645508,-5.493164E-4
1734712311718,2024-12-20T16:31:51.718Z,75796,-0.059570312,-0.1161499,-0.0067749023
1734712311724,2024-12-20T16:31:51.724Z,75802,-0.054016113,-0.11846924,0.0034179688
1734712311730,2024-12-20T16:31:51.730Z,75808,-0.045959473,-0.12512207,0.005554199
1734712311735,2024-12-20T16:31:51.735Z,75813,-0.0491333,-0.121398926,7.9345703E-4
1734712311741,2024-12-20T16:31:51.741Z,75819,-0.048583984,-0.119506836,0.0021972656
1734712311756,2024-12-20T16:31:51.756Z,75834,-0.047058105,-0.117370605,0.007019043
1734712311764,2024-12-20T16:31:51.764Z,75842,-0.05114746,-0.11383057,6.713867E-4
1734712311772,2024-12-20T16:31:51.772Z,75850,-0.046020508,-0.10992432,0.0029907227
1734712311847,2024-12-20T16:31:51.847Z,75925,-0.05456543,-0.10864258,-8.544922E-4
1734712311854,2024-12-20T16:31:51.854Z,75932,-0.046142578,-0.113098145,0.0052490234
1734712311861,2024-12-20T16:31:51.861Z,75939,-0.041809082,-0.11279297,-0.0048217773
1734712311864,2024-12-20T16:31:51.864Z,75942,-0.043884277,-0.117004395,0.0036010742
1734712311871,2024-12-20T16:31:51.871Z,75949,-0.041931152,-0.114746094,-0.0038452148
1734712311879,2024-12-20T16:31:51.879Z,75957,-0.049316406,-0.12011719,0.010253906
1734712311890,2024-12-20T16:31:51.890Z,75968,-0.05316162,-0.11437988,0.006286621
1734712311937,2024-12-20T16:31:51.937Z,76015,-0.0446167,-0.114990234,-7.324219E-4
1734712311947,2024-12-20T16:31:51.947Z,76025,-0.046325684,-0.11212158,-0.0032958984
1734712311954,2024-12-20T16:31:51.954Z,76032,-0.03857422,-0.109313965,-0.0024414062
1734712311962,2024-12-20T16:31:51.962Z,76040,-0.045959473,-0.10845947,-0.0014648438
1734712311970,2024-12-20T16:31:51.970Z,76048,-0.04168701,-0.109802246,0.0014038086
1734712311977,2024-12-20T16:31:51.977Z,76055,-0.04498291,-0.10107422,-0.0020751953
1734712312071,2024-12-20T16:31:52.071Z,76149,-0.04071045,-0.10357666,-7.324219E-4
1734712312079,2024-12-20T16:31:52.079Z,76157,-0.045898438,-0.09777832,-0.0040283203
1734712312119,2024-12-20T16:31:52.119Z,76197,-0.042175293,-0.10144043,-0.0040893555
1734712312134,2024-12-20T16:31:52.134Z,76212,-0.042907715,-0.1048584,0.006591797
1734712312150,2024-12-20T16:31:52.150Z,76228,-0.049438477,-0.101745605,-9.765625E-4
1734712312162,2024-12-20T16:31:52.162Z,76240,-0.053466797,-0.10058594,-7.9345703E-4
1734712312169,2024-12-20T16:31:52.169Z,76247,-0.046142578,-0.101501465,-0.0020141602
1734712312175,2024-12-20T16:31:52.175Z,76253,-0.052490234,-0.09307861,-0.012634277
1734712312180,2024-12-20T16:31:52.180Z,76258,-0.044189453,-0.09686279,-0.008972168
1734712312186,2024-12-20T16:31:52.186Z,76264,-0.045837402,-0.09844971,-0.019104004
1734712312191,2024-12-20T16:31:52.191Z,76269,-0.031921387,-0.10614014,-0.0012817383
1734712312196,2024-12-20T16:31:52.196Z,76274,-0.04876709,-0.10638428,0.0063476562
1734712312198,2024-12-20T16:31:52.198Z,76276,-0.052490234,-0.10571289,-0.006958008
1734712312202,2024-12-20T16:31:52.202Z,76280,-0.058776855,-0.097595215,-0.021850586
1734712312208,2024-12-20T16:31:52.208Z,76286,-0.049743652,-0.11035156,-0.014709473
1734712312213,2024-12-20T16:31:52.213Z,76291,-0.041259766,-0.10821533,-0.015136719
1734712312218,2024-12-20T16:31:52.218Z,76296,-0.06048584,-0.10510254,-0.010498047
1734712312223,2024-12-20T16:31:52.223Z,76301,-0.06689453,-0.10668945,-0.023071289
1734712312229,2024-12-20T16:31:52.229Z,76307,-0.044677734,-0.11419678,-0.010986328
1734712312296,2024-12-20T16:31:52.296Z,76374,-0.06097412,-0.11315918,-0.014160156
1734712312302,2024-12-20T16:31:52.302Z,76380,-0.04888916,-0.112976074,-0.0234375
1734712312306,2024-12-20T16:31:52.306Z,76384,-0.059143066,-0.108947754,-0.012207031
1734712312311,2024-12-20T16:31:52.311Z,76389,-0.060668945,-0.11383057,-0.020874023
1734712312316,2024-12-20T16:31:52.316Z,76394,-0.045715332,-0.11444092,-0.009277344
1734712312320,2024-12-20T16:31:52.320Z,76398,-0.07714844,-0.10699463,-0.0061035156
1734712312343,2024-12-20T16:31:52.343Z,76421,-0.061584473,-0.11273193,-0.016784668
1734712312348,2024-12-20T16:31:52.348Z,76426,-0.05822754,-0.1071167,-0.0057373047
1734712312354,2024-12-20T16:31:52.354Z,76432,-0.07098389,-0.10247803,-0.013122559
1734712312360,2024-12-20T16:31:52.360Z,76438,-0.04144287,-0.10583496,-0.0345459
1734712312366,2024-12-20T16:31:52.366Z,76444,-0.042297363,-0.0982666,-0.0057373047
1734712312434,2024-12-20T16:31:52.434Z,76512,-0.07775879,-0.099365234,-0.016113281
1734712312437,2024-12-20T16:31:52.437Z,76515,-0.059631348,-0.1005249,0.0012207031
1734712312444,2024-12-20T16:31:52.444Z,76522,-0.07354736,-0.10308838,-0.0071411133
1734712312450,2024-12-20T16:31:52.450Z,76528,-0.0579834,-0.09423828,-0.0018310547
1734712312457,2024-12-20T16:31:52.457Z,76535,-0.059692383,-0.093322754,-0.0134887695
1734712312467,2024-12-20T16:31:52.467Z,76545,-0.047180176,-0.09899902,-0.03515625
1734712312522,2024-12-20T16:31:52.522Z,76600,-0.04559326,-0.09075928,0.0051879883
1734712312531,2024-12-20T16:31:52.531Z,76609,-0.06585693,-0.09838867,-0.0022583008
1734712312536,2024-12-20T16:31:52.536Z,76614,-0.049194336,-0.09667969,-0.005493164
1734712312542,2024-12-20T16:31:52.542Z,76620,-0.06390381,-0.089538574,0.003479004
1734712312547,2024-12-20T16:31:52.547Z,76625,-0.064575195,-0.09655762,-0.006225586
1734712312552,2024-12-20T16:31:52.552Z,76630,-0.06854248,-0.08770752,-0.016967773
1734712312570,2024-12-20T16:31:52.570Z,76648,-0.035461426,-0.111328125,-0.018920898
1734712312577,2024-12-20T16:31:52.577Z,76655,-0.061340332,-0.10498047,0.0010375977
1734712312584,2024-12-20T16:31:52.584Z,76662,-0.08319092,-0.0993042,-0.008850098
1734712312590,2024-12-20T16:31:52.590Z,76668,-0.08483887,-0.105285645,-0.0099487305
1734712312596,2024-12-20T16:31:52.596Z,76674,-0.070373535,-0.104003906,2.4414062E-4
1734712312611,2024-12-20T16:31:52.611Z,76689,-0.053771973,-0.09991455,0.005554199
1734712312617,2024-12-20T16:31:52.617Z,76695,-0.08087158,-0.107299805,0.0126953125
1734712312622,2024-12-20T16:31:52.622Z,76700,-0.076660156,-0.09741211,0.009643555
1734712312628,2024-12-20T16:31:52.628Z,76706,-0.064086914,-0.09210205,9.1552734E-4
1734712312634,2024-12-20T16:31:52.634Z,76712,-0.06915283,-0.08868408,-0.010681152
1734712312639,2024-12-20T16:31:52.639Z,76717,-0.061157227,-0.08685303,-0.0043945312
1734712312659,2024-12-20T16:31:52.659Z,76737,-0.050720215,-0.10253906,0.003479004
1734712312665,2024-12-20T16:31:52.665Z,76743,-0.064575195,-0.09240723,-1.8310547E-4
1734712312671,2024-12-20T16:31:52.671Z,76749,-0.06951904,-0.101257324,0.013366699
1734712312677,2024-12-20T16:31:52.677Z,76755,-0.06719971,-0.09765625,0.010009766
1734712312683,2024-12-20T16:31:52.683Z,76761,-0.06713867,-0.095581055,0.0041503906
1734712312700,2024-12-20T16:31:52.700Z,76778,-0.057922363,-0.09350586,-0.020996094
1734712312706,2024-12-20T16:31:52.706Z,76784,-0.060791016,-0.09313965,0.010375977
1734712312712,2024-12-20T16:31:52.712Z,76790,-0.06097412,-0.095581055,0.004638672
1734712312717,2024-12-20T16:31:52.717Z,76795,-0.0546875,-0.09777832,0.0028076172
1734712312723,2024-12-20T16:31:52.723Z,76801,-0.070739746,-0.09863281,0.011352539
1734712312728,2024-12-20T16:31:52.728Z,76806,-0.07977295,-0.096069336,-0.0087890625
1734712312748,2024-12-20T16:31:52.748Z,76826,-0.056396484,-0.10021973,0.0056152344
1734712312754,2024-12-20T16:31:52.754Z,76832,-0.074035645,-0.0993042,0.017700195
1734712312759,2024-12-20T16:31:52.759Z,76837,-0.06707764,-0.09674072,0.0015869141
1734712312765,2024-12-20T16:31:52.765Z,76843,-0.06628418,-0.09320068,-0.0087890625
1734712312770,2024-12-20T16:31:52.770Z,76848,-0.055786133,-0.09899902,-0.008972168
1734712312838,2024-12-20T16:31:52.838Z,76916,-0.07751465,-0.10211182,0.0015869141
1734712312844,2024-12-20T16:31:52.844Z,76922,-0.068725586,-0.097473145,0.008850098
1734712312850,2024-12-20T16:31:52.850Z,76928,-0.06695557,-0.10235596,0.0068969727
1734712312856,2024-12-20T16:31:52.856Z,76934,-0.060668945,-0.103881836,0.0034179688
1734712312861,2024-12-20T16:31:52.861Z,76939,-0.0736084,-0.09686279,0.017150879
1734712312867,2024-12-20T16:31:52.867Z,76945,-0.06323242,-0.091796875,-0.008911133
1734712312884,2024-12-20T16:31:52.884Z,76962,-0.061401367,-0.0970459,-0.0010375977
1734712312891,2024-12-20T16:31:52.891Z,76969,-0.07702637,-0.09118652,0.007873535
1734712312897,2024-12-20T16:31:52.897Z,76975,-0.059265137,-0.09802246,0.006958008
1734712312902,2024-12-20T16:31:52.902Z,76980,-0.06750488,-0.09906006,0.018920898
1734712312908,2024-12-20T16:31:52.908Z,76986,-0.06750488,-0.095703125,-3.6621094E-4
1734712312926,2024-12-20T16:31:52.926Z,77004,-0.061584473,-0.09875488,0.016906738
1734712312932,2024-12-20T16:31:52.932Z,77010,-0.07751465,-0.10180664,0.0234375
1734712312938,2024-12-20T16:31:52.938Z,77016,-0.07684326,-0.09753418,0.010009766
1734712312943,2024-12-20T16:31:52.943Z,77021,-0.058044434,-0.10290527,0.0126953125
1734712312949,2024-12-20T16:31:52.949Z,77027,-0.07733154,-0.10180664,0.018005371
1734712312954,2024-12-20T16:31:52.954Z,77032,-0.06903076,-0.10321045,0.01184082
1734712312973,2024-12-20T16:31:52.973Z,77051,-0.07116699,-0.104003906,0.013671875
1734712312979,2024-12-20T16:31:52.979Z,77057,-0.06958008,-0.107788086,0.019714355
1734712313065,2024-12-20T16:31:53.065Z,77143,-0.06958008,-0.11254883,0.038085938
1734712313071,2024-12-20T16:31:53.071Z,77149,-0.062316895,-0.107421875,0.01550293
1734712313077,2024-12-20T16:31:53.077Z,77155,-0.07434082,-0.105529785,0.02947998
1734712313082,2024-12-20T16:31:53.082Z,77160,-0.07922363,-0.10473633,0.020874023
1734712313089,2024-12-20T16:31:53.089Z,77167,-0.06915283,-0.1071167,0.020141602
1734712313105,2024-12-20T16:31:53.105Z,77183,-0.08453369,-0.105773926,0.031921387
1734712313151,2024-12-20T16:31:53.151Z,77229,-0.054382324,-0.10821533,0.026000977
1734712313158,2024-12-20T16:31:53.158Z,77236,-0.048706055,-0.11236572,0.020263672
1734712313166,2024-12-20T16:31:53.166Z,77244,-0.060180664,-0.11431885,0.047912598
1734712313206,2024-12-20T16:31:53.206Z,77284,-0.0592041,-0.11651611,0.05126953
1734712313217,2024-12-20T16:31:53.217Z,77295,-0.074157715,-0.10784912,0.04107666
1734712313240,2024-12-20T16:31:53.240Z,77318,-0.08502197,-0.10870361,0.03643799
1734712313249,2024-12-20T16:31:53.249Z,77327,-0.051452637,-0.107421875,0.04260254
1734712313288,2024-12-20T16:31:53.288Z,77366,-0.05291748,-0.109069824,0.033325195
1734712313301,2024-12-20T16:31:53.301Z,77379,-0.05407715,-0.111083984,0.05206299
1734712313316,2024-12-20T16:31:53.316Z,77394,-0.04852295,-0.11541748,0.058532715
1734712313324,2024-12-20T16:31:53.324Z,77402,-0.061706543,-0.11090088,0.046691895
1734712313332,2024-12-20T16:31:53.332Z,77410,-0.06011963,-0.1126709,0.043273926
1734712313335,2024-12-20T16:31:53.335Z,77413,-0.04925537,-0.11077881,0.035583496
1734712313341,2024-12-20T16:31:53.341Z,77419,-0.049621582,-0.11102295,0.05041504
1734712313347,2024-12-20T16:31:53.347Z,77425,-0.053710938,-0.11242676,0.05291748
1734712313350,2024-12-20T16:31:53.350Z,77428,-0.06085205,-0.10992432,0.049682617
1734712313355,2024-12-20T16:31:53.355Z,77433,-0.060302734,-0.11193848,0.038330078
1734712313361,2024-12-20T16:31:53.361Z,77439,-0.04852295,-0.11004639,0.03387451
1734712313364,2024-12-20T16:31:53.364Z,77442,-0.054626465,-0.11352539,0.04711914
1734712313369,2024-12-20T16:31:53.369Z,77447,-0.047424316,-0.11639404,0.0501709
1734712313378,2024-12-20T16:31:53.378Z,77456,-0.03778076,-0.11578369,0.03778076
1734712313384,2024-12-20T16:31:53.384Z,77462,-0.044433594,-0.11553955,0.041381836
1734712313389,2024-12-20T16:31:53.389Z,77467,-0.043640137,-0.1149292,0.040283203
1734712313394,2024-12-20T16:31:53.394Z,77472,-0.03930664,-0.11437988,0.045959473
1734712313400,2024-12-20T16:31:53.400Z,77478,-0.04925537,-0.1126709,0.051757812
1734712313419,2024-12-20T16:31:53.419Z,77497,-0.051696777,-0.115234375,0.053771973
1734712313425,2024-12-20T16:31:53.425Z,77503,-0.045532227,-0.117248535,0.057617188
1734712313430,2024-12-20T16:31:53.430Z,77508,-0.03491211,-0.11645508,0.052978516
1734712313435,2024-12-20T16:31:53.435Z,77513,-0.04156494,-0.11444092,0.049621582
1734712313440,2024-12-20T16:31:53.440Z,77518,-0.041381836,-0.11364746,0.044555664
1734712313445,2024-12-20T16:31:53.445Z,77523,-0.04437256,-0.113586426,0.048034668
1734712313467,2024-12-20T16:31:53.467Z,77545,-0.04345703,-0.11541748,0.05596924
1734712313472,2024-12-20T16:31:53.472Z,77550,-0.04083252,-0.11706543,0.057800293
1734712313478,2024-12-20T16:31:53.478Z,77556,-0.050476074,-0.11834717,0.062316895
1734712313484,2024-12-20T16:31:53.484Z,77562,-0.04095459,-0.1161499,0.04876709
1734712313489,2024-12-20T16:31:53.489Z,77567,-0.037109375,-0.115112305,0.048461914
1734712313558,2024-12-20T16:31:53.558Z,77636,-0.029174805,-0.11303711,0.038635254
1734712313564,2024-12-20T16:31:53.564Z,77642,-0.026916504,-0.11193848,0.02947998
1734712313570,2024-12-20T16:31:53.570Z,77648,-0.04473877,-0.11444092,0.05218506
1734712313575,2024-12-20T16:31:53.575Z,77653,-0.043762207,-0.115600586,0.056762695
1734712313582,2024-12-20T16:31:53.582Z,77660,-0.04071045,-0.11846924,0.054016113
1734712313588,2024-12-20T16:31:53.588Z,77666,-0.047912598,-0.12249756,0.06335449
1734712313603,2024-12-20T16:31:53.603Z,77681,-0.028503418,-0.117126465,0.05596924
1734712313609,2024-12-20T16:31:53.609Z,77687,-0.0390625,-0.113586426,0.04309082
1734712313616,2024-12-20T16:31:53.616Z,77694,-0.034729004,-0.11456299,0.040161133
1734712313622,2024-12-20T16:31:53.622Z,77700,-0.037719727,-0.113342285,0.04437256
1734712313628,2024-12-20T16:31:53.628Z,77706,-0.03552246,-0.11450195,0.043701172
1734712313646,2024-12-20T16:31:53.646Z,77724,-0.04156494,-0.11553955,0.04626465
1734712313652,2024-12-20T16:31:53.652Z,77730,-0.04034424,-0.11920166,0.055236816
1734712313658,2024-12-20T16:31:53.658Z,77736,-0.044006348,-0.119140625,0.05682373
1734712313664,2024-12-20T16:31:53.664Z,77742,-0.0368042,-0.11669922,0.047058105
1734712313669,2024-12-20T16:31:53.669Z,77747,-0.040222168,-0.11480713,0.0423584
1734712313675,2024-12-20T16:31:53.675Z,77753,-0.036010742,-0.11315918,0.043151855
1734712313740,2024-12-20T16:31:53.740Z,77818,-0.042114258,-0.11395264,0.043823242
1734712313746,2024-12-20T16:31:53.746Z,77824,-0.04876709,-0.11608887,0.045837402
1734712313751,2024-12-20T16:31:53.751Z,77829,-0.04937744,-0.11627197,0.04925537
1734712313756,2024-12-20T16:31:53.756Z,77834,-0.044555664,-0.11468506,0.047851562
1734712313761,2024-12-20T16:31:53.761Z,77839,-0.047302246,-0.115722656,0.051879883
1734712313780,2024-12-20T16:31:53.780Z,77858,-0.044128418,-0.11199951,0.044006348
1734712313787,2024-12-20T16:31:53.787Z,77865,-0.04248047,-0.110839844,0.039855957
1734712313793,2024-12-20T16:31:53.793Z,77871,-0.042297363,-0.111083984,0.042053223
1734712313799,2024-12-20T16:31:53.799Z,77877,-0.040771484,-0.110839844,0.04309082
1734712313805,2024-12-20T16:31:53.805Z,77883,-0.04675293,-0.1105957,0.047851562
1734712313810,2024-12-20T16:31:53.810Z,77888,-0.047546387,-0.109680176,0.050842285
1734712313829,2024-12-20T16:31:53.829Z,77907,-0.043273926,-0.1071167,0.048034668
1734712313835,2024-12-20T16:31:53.835Z,77913,-0.04083252,-0.10626221,0.047668457
1734712313839,2024-12-20T16:31:53.839Z,77917,-0.040100098,-0.10461426,0.040283203
1734712313845,2024-12-20T16:31:53.845Z,77923,-0.038513184,-0.10510254,0.039978027
1734712313851,2024-12-20T16:31:53.851Z,77929,-0.040771484,-0.1071167,0.043640137
1734712313870,2024-12-20T16:31:53.870Z,77948,-0.042785645,-0.10784912,0.046203613
1734712313877,2024-12-20T16:31:53.877Z,77955,-0.043823242,-0.11035156,0.05102539
1734712313884,2024-12-20T16:31:53.884Z,77962,-0.039245605,-0.10961914,0.04876709
1734712313890,2024-12-20T16:31:53.890Z,77968,-0.040161133,-0.109191895,0.046020508
1734712313896,2024-12-20T16:31:53.896Z,77974,-0.042419434,-0.109069824,0.045898438
1734712313902,2024-12-20T16:31:53.902Z,77980,-0.038879395,-0.109313965,0.043029785
1734712313966,2024-12-20T16:31:53.966Z,78044,-0.03729248,-0.109375,0.046081543
1734712313971,2024-12-20T16:31:53.971Z,78049,-0.038208008,-0.10961914,0.04449463
1734712313978,2024-12-20T16:31:53.978Z,78056,-0.037841797,-0.11151123,0.044311523
1734712313985,2024-12-20T16:31:53.985Z,78063,-0.039001465,-0.11187744,0.04925537
1734712313992,2024-12-20T16:31:53.992Z,78070,-0.036865234,-0.11242676,0.049072266
1734712314006,2024-12-20T16:31:54.006Z,78084,-0.04144287,-0.1126709,0.045288086
1734712314014,2024-12-20T16:31:54.014Z,78092,-0.040222168,-0.11230469,0.044433594
1734712314022,2024-12-20T16:31:54.022Z,78100,-0.03656006,-0.11291504,0.04425049
1734712314029,2024-12-20T16:31:54.029Z,78107,-0.03552246,-0.113220215,0.043823242
1734712314037,2024-12-20T16:31:54.037Z,78115,-0.03375244,-0.11291504,0.045776367
1734712314048,2024-12-20T16:31:54.048Z,78126,-0.034362793,-0.11254883,0.045959473
1734712314056,2024-12-20T16:31:54.056Z,78134,-0.03466797,-0.11315918,0.048706055
1734712314061,2024-12-20T16:31:54.061Z,78139,-0.035949707,-0.11260986,0.049194336
1734712314067,2024-12-20T16:31:54.067Z,78145,-0.039001465,-0.113220215,0.051696777
1734712314072,2024-12-20T16:31:54.072Z,78150,-0.035461426,-0.111206055,0.047851562
1734712314077,2024-12-20T16:31:54.077Z,78155,-0.027954102,-0.11022949,0.04046631
1734712314142,2024-12-20T16:31:54.142Z,78220,-0.02923584,-0.10949707,0.039978027
1734712314149,2024-12-20T16:31:54.149Z,78227,-0.032409668,-0.111694336,0.04852295
1734712314155,2024-12-20T16:31:54.155Z,78233,-0.029846191,-0.111694336,0.049804688
1734712314162,2024-12-20T16:31:54.162Z,78240,-0.030334473,-0.11224365,0.051757812
1734712314169,2024-12-20T16:31:54.169Z,78247,-0.030944824,-0.10974121,0.04663086
1734712314176,2024-12-20T16:31:54.176Z,78254,-0.032287598,-0.11016846,0.045898438
1734712314189,2024-12-20T16:31:54.189Z,78267,-0.030517578,-0.11010742,0.047424316
1734712314195,2024-12-20T16:31:54.195Z,78273,-0.028076172,-0.109802246,0.046569824
1734712314202,2024-12-20T16:31:54.202Z,78280,-0.030944824,-0.11029053,0.045532227
1734712314208,2024-12-20T16:31:54.208Z,78286,-0.031555176,-0.111450195,0.047912598
1734712314214,2024-12-20T16:31:54.214Z,78292,-0.028686523,-0.11138916,0.049682617
1734712314231,2024-12-20T16:31:54.231Z,78309,-0.02911377,-0.10992432,0.04949951
1734712314234,2024-12-20T16:31:54.234Z,78312,-0.03149414,-0.11077881,0.049072266
1734712314237,2024-12-20T16:31:54.237Z,78315,-0.03173828,-0.109069824,0.04675293
1734712314242,2024-12-20T16:31:54.242Z,78320,-0.030639648,-0.110961914,0.047546387
1734712314248,2024-12-20T16:31:54.248Z,78326,-0.028686523,-0.11047363,0.046142578
1734712314254,2024-12-20T16:31:54.254Z,78332,-0.026916504,-0.1116333,0.050964355
1734712314258,2024-12-20T16:31:54.258Z,78336,-0.025634766,-0.11126709,0.05029297
1734712314279,2024-12-20T16:31:54.279Z,78357,-0.027404785,-0.11065674,0.048706055
1734712314285,2024-12-20T16:31:54.285Z,78363,-0.027709961,-0.111083984,0.048950195
1734712314291,2024-12-20T16:31:54.291Z,78369,-0.028320312,-0.110961914,0.049316406
1734712314296,2024-12-20T16:31:54.296Z,78374,-0.028076172,-0.111450195,0.049560547
1734712314301,2024-12-20T16:31:54.301Z,78379,-0.024780273,-0.11199951,0.049682617
1734712314320,2024-12-20T16:31:54.320Z,78398,-0.024475098,-0.1126709,0.051330566
1734712314326,2024-12-20T16:31:54.326Z,78404,-0.027893066,-0.11444092,0.05291748
1734712314332,2024-12-20T16:31:54.332Z,78410,-0.026000977,-0.11376953,0.05206299
1734712314338,2024-12-20T16:31:54.338Z,78416,-0.026367188,-0.11376953,0.05291748
1734712314366,2024-12-20T16:31:54.366Z,78444,-0.027893066,-0.11480713,0.05419922
1734712314412,2024-12-20T16:31:54.412Z,78490,-0.027954102,-0.11627197,0.055480957
1734712314420,2024-12-20T16:31:54.420Z,78498,-0.028320312,-0.11682129,0.05493164
1734712314427,2024-12-20T16:31:54.427Z,78505,-0.026062012,-0.118896484,0.05316162
1734712314434,2024-12-20T16:31:54.434Z,78512,-0.025756836,-0.12005615,0.05657959
1734712314441,2024-12-20T16:31:54.441Z,78519,-0.029907227,-0.120666504,0.0592041
1734712314447,2024-12-20T16:31:54.447Z,78525,-0.025512695,-0.12054443,0.052490234
1734712314459,2024-12-20T16:31:54.459Z,78537,-0.032348633,-0.1217041,0.054138184
1734712314465,2024-12-20T16:31:54.465Z,78543,-0.030944824,-0.12359619,0.05529785
1734712314471,2024-12-20T16:31:54.471Z,78549,-0.03137207,-0.1274414,0.059265137
1734712314477,2024-12-20T16:31:54.477Z,78555,-0.031799316,-0.12939453,0.06390381
1734712314483,2024-12-20T16:31:54.483Z,78561,-0.03387451,-0.12915039,0.060180664
1734712314500,2024-12-20T16:31:54.500Z,78578,-0.034851074,-0.13000488,0.056640625
1734712314506,2024-12-20T16:31:54.506Z,78584,-0.032958984,-0.12963867,0.06036377
1734712314511,2024-12-20T16:31:54.511Z,78589,-0.027648926,-0.1282959,0.053771973
1734712314517,2024-12-20T16:31:54.517Z,78595,-0.032409668,-0.13067627,0.06384277
1734712314523,2024-12-20T16:31:54.523Z,78601,-0.033935547,-0.12872314,0.062805176
1734712314528,2024-12-20T16:31:54.528Z,78606,-0.029663086,-0.13000488,0.059753418
1734712314549,2024-12-20T16:31:54.549Z,78627,-0.03253174,-0.13146973,0.065979004
1734712314555,2024-12-20T16:31:54.555Z,78633,-0.03277588,-0.1307373,0.06097412
1734712314560,2024-12-20T16:31:54.560Z,78638,-0.028869629,-0.12908936,0.056396484
1734712314565,2024-12-20T16:31:54.565Z,78643,-0.031921387,-0.13171387,0.06463623
1734712314570,2024-12-20T16:31:54.570Z,78648,-0.023986816,-0.13110352,0.05731201
1734712314589,2024-12-20T16:31:54.589Z,78667,-0.037597656,-0.13317871,0.076049805
1734712314595,2024-12-20T16:31:54.595Z,78673,-0.036499023,-0.1315918,0.06793213
1734712314602,2024-12-20T16:31:54.602Z,78680,-0.03643799,-0.13171387,0.068725586
1734712314607,2024-12-20T16:31:54.607Z,78685,-0.0368042,-0.12835693,0.06036377
1734712314612,2024-12-20T16:31:54.612Z,78690,-0.041931152,-0.12988281,0.06378174
1734712314617,2024-12-20T16:31:54.617Z,78695,-0.040039062,-0.12634277,0.06201172
1734712314686,2024-12-20T16:31:54.686Z,78764,-0.034240723,-0.12554932,0.05444336
1734712314692,2024-12-20T16:31:54.692Z,78770,-0.045654297,-0.12554932,0.06854248
1734712314698,2024-12-20T16:31:54.698Z,78776,-0.044311523,-0.123168945,0.06274414
1734712314702,2024-12-20T16:31:54.702Z,78780,-0.045288086,-0.12243652,0.060791016
1734712314707,2024-12-20T16:31:54.707Z,78785,-0.040893555,-0.12182617,0.06390381
1734712314770,2024-12-20T16:31:54.770Z,78848,-0.04473877,-0.11853027,0.058044434
1734712314777,2024-12-20T16:31:54.777Z,78855,-0.05706787,-0.1149292,0.051208496
1734712314783,2024-12-20T16:31:54.783Z,78861,-0.045410156,-0.11627197,0.051757812
1734712314789,2024-12-20T16:31:54.789Z,78867,-0.04937744,-0.113342285,0.062683105
1734712314796,2024-12-20T16:31:54.796Z,78874,-0.045959473,-0.11303711,0.06304932
1734712314802,2024-12-20T16:31:54.802Z,78880,-0.04724121,-0.111816406,0.064453125
1734712314819,2024-12-20T16:31:54.819Z,78897,-0.049682617,-0.11651611,0.057739258
1734712314828,2024-12-20T16:31:54.828Z,78906,-0.04827881,-0.10449219,0.054382324
1734712314833,2024-12-20T16:31:54.833Z,78911,-0.059020996,-0.10430908,0.043945312
1734712314838,2024-12-20T16:31:54.838Z,78916,-0.05053711,-0.109558105,0.046142578
1734712314844,2024-12-20T16:31:54.844Z,78922,-0.05706787,-0.10888672,0.047851562
1734712314859,2024-12-20T16:31:54.859Z,78937,-0.05505371,-0.111083984,0.052368164
1734712314861,2024-12-20T16:31:54.861Z,78939,-0.046142578,-0.11077881,0.0690918
1734712314864,2024-12-20T16:31:54.864Z,78942,-0.05255127,-0.107177734,0.05340576
1734712314869,2024-12-20T16:31:54.869Z,78947,-0.074035645,-0.107910156,0.040039062
1734712314874,2024-12-20T16:31:54.874Z,78952,-0.07312012,-0.101501465,0.02142334
1734712314879,2024-12-20T16:31:54.879Z,78957,-0.038024902,-0.10510254,0.03741455
1734712314883,2024-12-20T16:31:54.883Z,78961,-0.057006836,-0.10858154,0.049743652
1734712314907,2024-12-20T16:31:54.907Z,78985,-0.04333496,-0.10949707,0.05456543
1734712314912,2024-12-20T16:31:54.912Z,78990,-0.046142578,-0.11303711,0.060913086
1734712314950,2024-12-20T16:31:54.950Z,79028,-0.051208496,-0.107788086,0.05480957
1734712314956,2024-12-20T16:31:54.956Z,79034,-0.0713501,-0.10498047,0.046142578
1734712314963,2024-12-20T16:31:54.963Z,79041,-0.097351074,-0.099975586,0.017700195
1734712314969,2024-12-20T16:31:54.969Z,79047,-0.0368042,-0.109191895,0.020080566
1734712314974,2024-12-20T16:31:54.974Z,79052,-0.05657959,-0.10308838,0.03515625
1734712314980,2024-12-20T16:31:54.980Z,79058,-0.05859375,-0.10290527,0.035888672
1734712315043,2024-12-20T16:31:55.043Z,79121,-0.038879395,-0.11578369,0.061645508
1734712315088,2024-12-20T16:31:55.088Z,79166,-0.059692383,-0.10424805,0.04260254
1734712315096,2024-12-20T16:31:55.096Z,79174,-0.06762695,-0.10437012,0.046325684
1734712315102,2024-12-20T16:31:55.102Z,79180,-0.07623291,-0.09686279,0.046325684
1734712315109,2024-12-20T16:31:55.109Z,79187,-0.07635498,-0.09118652,0.0025024414
1734712315115,2024-12-20T16:31:55.115Z,79193,-0.029296875,-0.108947754,0.016662598
1734712315121,2024-12-20T16:31:55.121Z,79199,-0.06512451,-0.09991455,0.04058838
1734712315135,2024-12-20T16:31:55.135Z,79213,-0.05029297,-0.10308838,0.034851074
1734712315141,2024-12-20T16:31:55.141Z,79219,-0.04724121,-0.111450195,0.05621338
1734712315147,2024-12-20T16:31:55.147Z,79225,-0.047546387,-0.105285645,0.04925537
1734712315153,2024-12-20T16:31:55.153Z,79231,-0.060180664,-0.09875488,0.045043945
1734712315161,2024-12-20T16:31:55.161Z,79239,-0.080322266,-0.08648682,0.018981934
1734712315167,2024-12-20T16:31:55.167Z,79245,-0.038208008,-0.10296631,0.029663086
1734712315232,2024-12-20T16:31:55.232Z,79310,-0.06500244,-0.10076904,0.038635254
1734712315238,2024-12-20T16:31:55.238Z,79316,-0.06530762,-0.099121094,0.04309082
1734712315250,2024-12-20T16:31:55.250Z,79328,-0.07019043,-0.09899902,0.020874023
1734712315263,2024-12-20T16:31:55.263Z,79341,-0.051208496,-0.107299805,0.0026855469
1734712315275,2024-12-20T16:31:55.275Z,79353,-0.036865234,-0.105041504,0.01184082
1734712315283,2024-12-20T16:31:55.283Z,79361,-0.05303955,-0.10614014,0.036132812
1734712315291,2024-12-20T16:31:55.291Z,79369,-0.043823242,-0.11608887,0.040527344
1734712315314,2024-12-20T16:31:55.314Z,79392,-0.060424805,-0.10424805,0.030029297
1734712315322,2024-12-20T16:31:55.322Z,79400,-0.061584473,-0.10736084,0.030700684
1734712315329,2024-12-20T16:31:55.329Z,79407,-0.068359375,-0.10638428,0.027832031
1734712315335,2024-12-20T16:31:55.335Z,79413,-0.04748535,-0.10620117,0.006286621
1734712315341,2024-12-20T16:31:55.341Z,79419,-0.05456543,-0.11254883,0.012939453
1734712315344,2024-12-20T16:31:55.344Z,79422,-0.05682373,-0.11175537,0.035339355
1734712315357,2024-12-20T16:31:55.357Z,79435,-0.05078125,-0.10998535,0.047912598
1734712315363,2024-12-20T16:31:55.363Z,79441,-0.06072998,-0.10406494,0.023010254
1734712315369,2024-12-20T16:31:55.369Z,79447,-0.067871094,-0.101135254,-0.01159668
1734712315375,2024-12-20T16:31:55.375Z,79453,-0.039978027,-0.1104126,0.018798828
1734712315380,2024-12-20T16:31:55.380Z,79458,-0.04449463,-0.10308838,0.0119018555
1734712315491,2024-12-20T16:31:55.491Z,79569,-0.037475586,-0.10839844,0.022094727
1734712315494,2024-12-20T16:31:55.494Z,79572,-0.05682373,-0.107177734,0.03125
1734712315499,2024-12-20T16:31:55.499Z,79577,-0.06201172,-0.097839355,0.023803711
1734712315504,2024-12-20T16:31:55.504Z,79582,-0.05206299,-0.10223389,-0.007507324
1734712315509,2024-12-20T16:31:55.509Z,79587,-0.0390625,-0.10638428,0.00390625
1734712315515,2024-12-20T16:31:55.515Z,79593,-0.049438477,-0.10650635,0.012573242
1734712315535,2024-12-20T16:31:55.535Z,79613,-0.050720215,-0.11065674,0.016479492
1734712315542,2024-12-20T16:31:55.542Z,79620,-0.05908203,-0.11279297,0.029418945
1734712315550,2024-12-20T16:31:55.550Z,79628,-0.060791016,-0.107177734,0.023864746
1734712315583,2024-12-20T16:31:55.583Z,79661,-0.0602417,-0.10522461,0.025634766
1734712315593,2024-12-20T16:31:55.593Z,79671,-0.051086426,-0.10101318,0.018066406
1734712315601,2024-12-20T16:31:55.601Z,79679,-0.06768799,-0.09423828,-0.008972168
1734712315607,2024-12-20T16:31:55.607Z,79685,-0.06719971,-0.08831787,-0.0073242188
1734712315612,2024-12-20T16:31:55.612Z,79690,-0.0501709,-0.098083496,-0.0065307617
1734712315618,2024-12-20T16:31:55.618Z,79696,-0.024536133,-0.09552002,-0.0012207031
1734712315627,2024-12-20T16:31:55.627Z,79705,-0.040039062,-0.095703125,0.0061035156
1734712315633,2024-12-20T16:31:55.633Z,79711,-0.0501709,-0.09509277,0.018371582
1734712315638,2024-12-20T16:31:55.638Z,79716,-0.047424316,-0.09210205,0.016784668
1734712315643,2024-12-20T16:31:55.643Z,79721,-0.046142578,-0.091918945,0.013916016
1734712315717,2024-12-20T16:31:55.717Z,79795,-0.03540039,-0.089538574,0.012268066
1734712315723,2024-12-20T16:31:55.723Z,79801,-0.035095215,-0.089416504,-0.008483887
1734712315726,2024-12-20T16:31:55.726Z,79804,-0.032409668,-0.088378906,-0.0048828125
1734712315731,2024-12-20T16:31:55.731Z,79809,-0.037109375,-0.08544922,-1.2207031E-4
1734712315735,2024-12-20T16:31:55.735Z,79813,-0.03955078,-0.08929443,0.006713867
1734712315740,2024-12-20T16:31:55.740Z,79818,-0.049804688,-0.093688965,0.008361816
1734712315853,2024-12-20T16:31:55.853Z,79931,-0.053649902,-0.09277344,0.0072631836
1734712315863,2024-12-20T16:31:55.863Z,79941,-0.034057617,-0.09777832,0.0037231445
1734712315876,2024-12-20T16:31:55.876Z,79954,-0.052001953,-0.097351074,0.0012207031
1734712315887,2024-12-20T16:31:55.887Z,79965,-0.03466797,-0.096191406,-0.0126953125
1734712315896,2024-12-20T16:31:55.896Z,79974,-0.034179688,-0.09967041,0.002319336
1734712315904,2024-12-20T16:31:55.904Z,79982,-0.055786133,-0.097961426,0.0010375977
1734712315949,2024-12-20T16:31:55.949Z,80027,-0.04534912,-0.11212158,-3.0517578E-4
1734712315988,2024-12-20T16:31:55.988Z,80066,-0.05126953,-0.11151123,0.0017089844
1734712316000,2024-12-20T16:31:56Z,80078,-0.03137207,-0.120910645,-0.003479004
1734712316011,2024-12-20T16:31:56.011Z,80089,-0.05859375,-0.10650635,-0.0015258789
1734712316023,2024-12-20T16:31:56.023Z,80101,-0.058044434,-0.10571289,-7.324219E-4
1734712316036,2024-12-20T16:31:56.036Z,80114,-0.059936523,-0.10498047,-0.0020141602
1734712316041,2024-12-20T16:31:56.041Z,80119,-0.048339844,-0.11303711,0.005126953
1734712316053,2024-12-20T16:31:56.053Z,80131,-0.046936035,-0.109191895,0.004211426
1734712316063,2024-12-20T16:31:56.063Z,80141,-0.04815674,-0.10821533,0.010437012
1734712316075,2024-12-20T16:31:56.075Z,80153,-0.05279541,-0.103271484,-0.006652832
1734712316086,2024-12-20T16:31:56.086Z,80164,-0.04724121,-0.10345459,-0.012512207
1734712316100,2024-12-20T16:31:56.100Z,80178,-0.043884277,-0.114868164,0.0060424805
1734712316111,2024-12-20T16:31:56.111Z,80189,-0.04864502,-0.10699463,-0.0040283203
1734712316122,2024-12-20T16:31:56.122Z,80200,-0.04736328,-0.11810303,0.0059814453
1734712316133,2024-12-20T16:31:56.133Z,80211,-0.039916992,-0.11541748,-3.0517578E-4
1734712316139,2024-12-20T16:31:56.139Z,80217,-0.04248047,-0.117248535,5.493164E-4
1734712316144,2024-12-20T16:31:56.144Z,80222,-0.04522705,-0.11480713,0.00579834
1734712316151,2024-12-20T16:31:56.151Z,80229,-0.03942871,-0.114746094,0.0022583008
1734712316157,2024-12-20T16:31:56.157Z,80235,-0.045166016,-0.107177734,-0.009155273
1734712316163,2024-12-20T16:31:56.163Z,80241,-0.04937744,-0.1104126,-0.0028686523
1734712316169,2024-12-20T16:31:56.169Z,80247,-0.03186035,-0.11694336,0.0067749023
1734712316175,2024-12-20T16:31:56.175Z,80253,-0.045959473,-0.116760254,0.005554199
1734712316211,2024-12-20T16:31:56.211Z,80289,-0.038330078,-0.115112305,0.009521484
1734712316218,2024-12-20T16:31:56.218Z,80296,-0.037841797,-0.11468506,0.010192871
1734712316223,2024-12-20T16:31:56.223Z,80301,-0.04107666,-0.10748291,7.9345703E-4
1734712316229,2024-12-20T16:31:56.229Z,80307,-0.029541016,-0.11273193,-0.004211426
1734712316235,2024-12-20T16:31:56.235Z,80313,-0.030761719,-0.10925293,-0.0018310547
1734712316254,2024-12-20T16:31:56.254Z,80332,-0.037597656,-0.109436035,0.005859375
1734712316260,2024-12-20T16:31:56.260Z,80338,-0.032104492,-0.117126465,0.011230469
1734712316265,2024-12-20T16:31:56.265Z,80343,-0.036376953,-0.11364746,0.0049438477
1734712316271,2024-12-20T16:31:56.271Z,80349,-0.03527832,-0.11773682,0.010864258
1734712316276,2024-12-20T16:31:56.276Z,80354,-0.041259766,-0.11621094,0.0021972656
1734712316282,2024-12-20T16:31:56.282Z,80360,-0.033813477,-0.11529541,-0.0029296875
1734712316303,2024-12-20T16:31:56.303Z,80381,-0.0335083,-0.11999512,0.003540039
1734712316306,2024-12-20T16:31:56.306Z,80384,-0.039794922,-0.12023926,-0.0014038086
1734712316312,2024-12-20T16:31:56.312Z,80390,-0.03326416,-0.12322998,0.0064086914
1734712316318,2024-12-20T16:31:56.318Z,80396,-0.04058838,-0.12463379,0.008483887
1734712316324,2024-12-20T16:31:56.324Z,80402,-0.039123535,-0.12249756,0.0079956055
1734712316329,2024-12-20T16:31:56.329Z,80407,-0.03765869,-0.12133789,0.0115356445
1734712316393,2024-12-20T16:31:56.393Z,80471,-0.044067383,-0.11419678,0.0072021484
1734712316399,2024-12-20T16:31:56.399Z,80477,-0.046447754,-0.11090088,-3.6621094E-4
1734712316404,2024-12-20T16:31:56.404Z,80482,-0.034423828,-0.1138916,3.0517578E-4
1734712316410,2024-12-20T16:31:56.410Z,80488,-0.036315918,-0.11505127,0.0024414062
1734712316417,2024-12-20T16:31:56.417Z,80495,-0.03338623,-0.12011719,0.0072631836
1734712316422,2024-12-20T16:31:56.422Z,80500,-0.03527832,-0.1227417,0.0115356445
1734712316440,2024-12-20T16:31:56.440Z,80518,-0.048217773,-0.11798096,0.008239746
1734712316447,2024-12-20T16:31:56.447Z,80525,-0.040771484,-0.12054443,0.008300781
1734712316454,2024-12-20T16:31:56.454Z,80532,-0.04949951,-0.11883545,0.0059814453
1734712316461,2024-12-20T16:31:56.461Z,80539,-0.05078125,-0.115234375,1.8310547E-4
1734712316467,2024-12-20T16:31:56.467Z,80545,-0.042663574,-0.11920166,0.0014648438
1734712316526,2024-12-20T16:31:56.526Z,80604,-0.04473877,-0.11767578,0.0013427734
1734712316530,2024-12-20T16:31:56.530Z,80608,-0.04083252,-0.118774414,0.0024414062
1734712316537,2024-12-20T16:31:56.537Z,80615,-0.044555664,-0.11505127,0.0045166016
1734712316621,2024-12-20T16:31:56.621Z,80699,-0.043151855,-0.11773682,0.010314941
1734712316628,2024-12-20T16:31:56.628Z,80706,-0.052734375,-0.113586426,0.0071411133
1734712316635,2024-12-20T16:31:56.635Z,80713,-0.04901123,-0.10614014,7.324219E-4
1734712316642,2024-12-20T16:31:56.642Z,80720,-0.044433594,-0.103515625,-1.2207031E-4
1734712316648,2024-12-20T16:31:56.648Z,80726,-0.04248047,-0.10205078,-0.0017089844
1734712316657,2024-12-20T16:31:56.657Z,80735,-0.038513184,-0.1048584,0.002319336
1734712316762,2024-12-20T16:31:56.762Z,80840,-0.038330078,-0.103515625,1.2207031E-4
1734712316773,2024-12-20T16:31:56.773Z,80851,-0.042297363,-0.10192871,0.0028686523
1734712316784,2024-12-20T16:31:56.784Z,80862,-0.039123535,-0.10321045,0.0025024414
1734712316792,2024-12-20T16:31:56.792Z,80870,-0.03765869,-0.10021973,0.0
1734712316801,2024-12-20T16:31:56.801Z,80879,-0.042785645,-0.09857178,-0.001159668
1734712316808,2024-12-20T16:31:56.808Z,80886,-0.039794922,-0.099853516,-3.0517578E-4
1734712316812,2024-12-20T16:31:56.812Z,80890,-0.043029785,-0.09899902,2.4414062E-4
1734712316820,2024-12-20T16:31:56.820Z,80898,-0.042907715,-0.099121094,-6.1035156E-4
1734712316837,2024-12-20T16:31:56.837Z,80915,-0.050231934,-0.09436035,-0.012634277
1734712316843,2024-12-20T16:31:56.843Z,80921,-0.04333496,-0.1005249,-0.0020141602
1734712316850,2024-12-20T16:31:56.850Z,80928,-0.04534912,-0.10650635,0.0012817383
1734712316856,2024-12-20T16:31:56.856Z,80934,-0.043945312,-0.10443115,-0.0021362305
1734712316859,2024-12-20T16:31:56.859Z,80937,-0.043518066,-0.10650635,0.0037841797
1734712316865,2024-12-20T16:31:56.865Z,80943,-0.05126953,-0.10498047,0.00579834
1734712316870,2024-12-20T16:31:56.870Z,80948,-0.05279541,-0.09863281,-0.009155273
1734712316876,2024-12-20T16:31:56.876Z,80954,-0.040039062,-0.10424805,0.0020751953
1734712316931,2024-12-20T16:31:56.931Z,81009,-0.052612305,-0.103149414,3.6621094E-4
1734712316938,2024-12-20T16:31:56.938Z,81016,-0.024902344,-0.107177734,0.0026245117
1734712316943,2024-12-20T16:31:56.943Z,81021,-0.055419922,-0.10119629,0.0032348633
1734712316948,2024-12-20T16:31:56.948Z,81026,-0.06262207,-0.10668945,-0.007385254
1734712316954,2024-12-20T16:31:56.954Z,81032,-0.036743164,-0.107666016,0.01184082
1734712316960,2024-12-20T16:31:56.960Z,81038,-0.049865723,-0.113586426,0.0079956055
1734712316980,2024-12-20T16:31:56.980Z,81058,-0.046142578,-0.1138916,7.324219E-4
1734712316987,2024-12-20T16:31:56.987Z,81065,-0.0524292,-0.106933594,-0.0040283203
1734712316993,2024-12-20T16:31:56.993Z,81071,-0.046325684,-0.111450195,-0.012451172
1734712316999,2024-12-20T16:31:56.999Z,81077,-0.03161621,-0.1182251,-0.015380859
1734712317006,2024-12-20T16:31:57.006Z,81084,-0.055541992,-0.107666016,0.0073242188
1734712317020,2024-12-20T16:31:57.020Z,81098,-0.05444336,-0.12145996,0.014160156
1734712317023,2024-12-20T16:31:57.023Z,81101,-0.053894043,-0.10827637,0.0045776367
1734712317028,2024-12-20T16:31:57.028Z,81106,-0.05847168,-0.09887695,0.0032348633
1734712317033,2024-12-20T16:31:57.033Z,81111,-0.053649902,-0.10583496,-0.0014038086
1734712317039,2024-12-20T16:31:57.039Z,81117,-0.03302002,-0.10272217,-0.004760742
1734712317045,2024-12-20T16:31:57.045Z,81123,-0.035095215,-0.10748291,0.002319336
1734712317064,2024-12-20T16:31:57.064Z,81142,-0.045959473,-0.10455322,-0.0049438477
1734712317069,2024-12-20T16:31:57.069Z,81147,-0.042114258,-0.10534668,0.0045776367
1734712317074,2024-12-20T16:31:57.074Z,81152,-0.05053711,-0.10925293,0.012573242
1734712317160,2024-12-20T16:31:57.160Z,81238,-0.061950684,-0.10015869,-0.0030517578
1734712317172,2024-12-20T16:31:57.172Z,81250,-0.038513184,-0.1071167,0.004760742
1734712317184,2024-12-20T16:31:57.184Z,81262,-0.04925537,-0.10797119,-0.0037841797
1734712317194,2024-12-20T16:31:57.194Z,81272,-0.03717041,-0.099121094,-0.012023926
1734712317203,2024-12-20T16:31:57.203Z,81281,-0.045043945,-0.107666016,0.009277344
1734712317210,2024-12-20T16:31:57.210Z,81288,-0.06048584,-0.107788086,0.0018920898
1734712317218,2024-12-20T16:31:57.218Z,81296,-0.054992676,-0.10498047,0.0068969727
1734712317225,2024-12-20T16:31:57.225Z,81303,-0.062316895,-0.113586426,0.015014648
1734712317232,2024-12-20T16:31:57.232Z,81310,-0.05657959,-0.1194458,0.008728027
1734712317239,2024-12-20T16:31:57.239Z,81317,-0.044311523,-0.10473633,-0.005126953
1734712317246,2024-12-20T16:31:57.246Z,81324,-0.04473877,-0.113708496,-0.009033203
1734712317252,2024-12-20T16:31:57.252Z,81330,-0.046936035,-0.10870361,-0.022033691
1734712317254,2024-12-20T16:31:57.254Z,81332,-0.061157227,-0.11853027,0.016418457
