Timestamp (ms),ISO DateTime,Elapsed Time (ms),Acceleration X,Acceleration Y,Acceleration Z
1734712179644,2024-12-20T16:29:39.644Z,20971,-0.04034424,-0.11230469,0.02923584
1734712179652,2024-12-20T16:29:39.652Z,20979,-0.040771484,-0.11224365,0.029663086
1734712179669,2024-12-20T16:29:39.669Z,20996,-0.04046631,-0.11175537,0.027526855
1734712179683,2024-12-20T16:29:39.683Z,21010,-0.040649414,-0.11206055,0.029052734
1734712179696,2024-12-20T16:29:39.696Z,21023,-0.04095459,-0.1126709,0.02960205
1734712179707,2024-12-20T16:29:39.707Z,21034,-0.040771484,-0.11254883,0.030273438
1734712179717,2024-12-20T16:29:39.717Z,21044,-0.040893555,-0.11260986,0.031555176
1734712179728,2024-12-20T16:29:39.728Z,21055,-0.040100098,-0.11199951,0.030334473
1734712179736,2024-12-20T16:29:39.736Z,21063,-0.04119873,-0.11175537,0.02911377
1734712179745,2024-12-20T16:29:39.745Z,21072,-0.0413208,-0.11187744,0.028198242
1734712179756,2024-12-20T16:29:39.756Z,21083,-0.041381836,-0.111572266,0.028625488
1734712179766,2024-12-20T16:29:39.766Z,21093,-0.04071045,-0.11151123,0.028320312
1734712179776,2024-12-20T16:29:39.776Z,21103,-0.041381836,-0.111572266,0.028076172
1734712179816,2024-12-20T16:29:39.816Z,21143,-0.04168701,-0.11175537,0.029968262
1734712179826,2024-12-20T16:29:39.826Z,21153,-0.042175293,-0.11175537,0.028198242
1734712179833,2024-12-20T16:29:39.833Z,21160,-0.04107666,-0.11236572,0.029663086
1734712179841,2024-12-20T16:29:39.841Z,21168,-0.039794922,-0.112976074,0.031188965
1734712179848,2024-12-20T16:29:39.848Z,21175,-0.040893555,-0.11218262,0.027954102
1734712179855,2024-12-20T16:29:39.855Z,21182,-0.040405273,-0.11328125,0.029174805
1734712179865,2024-12-20T16:29:39.865Z,21192,-0.042175293,-0.113342285,0.028869629
1734712179874,2024-12-20T16:29:39.874Z,21201,-0.040771484,-0.113464355,0.029663086
1734712179885,2024-12-20T16:29:39.885Z,21212,-0.04095459,-0.11456299,0.032714844
1734712179894,2024-12-20T16:29:39.894Z,21221,-0.04046631,-0.11529541,0.033569336
1734712179904,2024-12-20T16:29:39.904Z,21231,-0.040283203,-0.11437988,0.030456543
1734712179913,2024-12-20T16:29:39.913Z,21240,-0.039794922,-0.11505127,0.03100586
1734712179922,2024-12-20T16:29:39.922Z,21249,-0.039916992,-0.11462402,0.030578613
1734712179930,2024-12-20T16:29:39.930Z,21257,-0.040222168,-0.114868164,0.029418945
1734712179939,2024-12-20T16:29:39.939Z,21266,-0.03955078,-0.115112305,0.02935791
1734712179950,2024-12-20T16:29:39.950Z,21277,-0.03942871,-0.11517334,0.030944824
1734712179960,2024-12-20T16:29:39.960Z,21287,-0.040222168,-0.115234375,0.030578613
1734712179969,2024-12-20T16:29:39.969Z,21296,-0.040039062,-0.11529541,0.031677246
1734712179979,2024-12-20T16:29:39.979Z,21306,-0.040771484,-0.11553955,0.030761719
1734712179987,2024-12-20T16:29:39.987Z,21314,-0.04107666,-0.115600586,0.030944824
1734712179996,2024-12-20T16:29:39.996Z,21323,-0.03881836,-0.115234375,0.030578613
1734712180004,2024-12-20T16:29:40.004Z,21331,-0.03881836,-0.11468506,0.029907227
1734712180013,2024-12-20T16:29:40.013Z,21340,-0.04156494,-0.11419678,0.028930664
1734712180021,2024-12-20T16:29:40.021Z,21348,-0.041015625,-0.11425781,0.028259277
1734712180031,2024-12-20T16:29:40.031Z,21358,-0.039367676,-0.114868164,0.031311035
1734712180039,2024-12-20T16:29:40.039Z,21366,-0.03869629,-0.11462402,0.031188965
1734712180048,2024-12-20T16:29:40.048Z,21375,-0.039855957,-0.11401367,0.030273438
1734712180056,2024-12-20T16:29:40.056Z,21383,-0.03942871,-0.11401367,0.02947998
1734712180065,2024-12-20T16:29:40.065Z,21392,-0.039123535,-0.113708496,0.030395508
1734712180073,2024-12-20T16:29:40.073Z,21400,-0.039489746,-0.11303711,0.02911377
1734712180082,2024-12-20T16:29:40.082Z,21409,-0.039001465,-0.11224365,0.024230957
1734712180092,2024-12-20T16:29:40.092Z,21419,-0.038330078,-0.113098145,0.025756836
1734712180134,2024-12-20T16:29:40.134Z,21461,-0.03692627,-0.112976074,0.02746582
1734712180143,2024-12-20T16:29:40.143Z,21470,-0.03857422,-0.11248779,0.027954102
1734712180152,2024-12-20T16:29:40.152Z,21479,-0.03942871,-0.11273193,0.028137207
1734712180160,2024-12-20T16:29:40.160Z,21487,-0.03942871,-0.11315918,0.028808594
1734712180170,2024-12-20T16:29:40.170Z,21497,-0.039367676,-0.11364746,0.030151367
1734712180180,2024-12-20T16:29:40.180Z,21507,-0.03918457,-0.113464355,0.028564453
1734712180188,2024-12-20T16:29:40.188Z,21515,-0.03967285,-0.113464355,0.030334473
1734712180195,2024-12-20T16:29:40.195Z,21522,-0.04046631,-0.113464355,0.031066895
1734712180204,2024-12-20T16:29:40.204Z,21531,-0.039855957,-0.112854004,0.028381348
1734712180214,2024-12-20T16:29:40.214Z,21541,-0.03918457,-0.113098145,0.027648926
1734712180224,2024-12-20T16:29:40.224Z,21551,-0.03967285,-0.113586426,0.02734375
1734712180233,2024-12-20T16:29:40.233Z,21560,-0.03930664,-0.11431885,0.029541016
1734712180241,2024-12-20T16:29:40.241Z,21568,-0.038757324,-0.11450195,0.028503418
1734712180250,2024-12-20T16:29:40.250Z,21577,-0.038269043,-0.11480713,0.029174805
1734712180257,2024-12-20T16:29:40.257Z,21584,-0.039367676,-0.11425781,0.028381348
1734712180265,2024-12-20T16:29:40.265Z,21592,-0.0413208,-0.11425781,0.028503418
1734712180274,2024-12-20T16:29:40.274Z,21601,-0.039855957,-0.11480713,0.028686523
1734712180286,2024-12-20T16:29:40.286Z,21613,-0.039611816,-0.115356445,0.028503418
1734712180294,2024-12-20T16:29:40.294Z,21621,-0.039611816,-0.11590576,0.02911377
1734712180302,2024-12-20T16:29:40.302Z,21629,-0.040771484,-0.11663818,0.03173828
1734712180312,2024-12-20T16:29:40.312Z,21639,-0.041381836,-0.1171875,0.030883789
1734712180321,2024-12-20T16:29:40.321Z,21648,-0.042053223,-0.117492676,0.030944824
1734712180330,2024-12-20T16:29:40.330Z,21657,-0.043029785,-0.11804199,0.032836914
1734712180339,2024-12-20T16:29:40.339Z,21666,-0.043029785,-0.11828613,0.03149414
1734712180348,2024-12-20T16:29:40.348Z,21675,-0.044189453,-0.11791992,0.030395508
1734712180358,2024-12-20T16:29:40.358Z,21685,-0.04321289,-0.11791992,0.028930664
1734712180405,2024-12-20T16:29:40.405Z,21732,-0.043395996,-0.11907959,0.03186035
1734712180415,2024-12-20T16:29:40.415Z,21742,-0.04534912,-0.11981201,0.032409668
1734712180427,2024-12-20T16:29:40.427Z,21754,-0.043640137,-0.119628906,0.03161621
1734712180438,2024-12-20T16:29:40.438Z,21765,-0.044677734,-0.12036133,0.035888672
1734712180453,2024-12-20T16:29:40.453Z,21780,-0.0446167,-0.120666504,0.03527832
1734712180463,2024-12-20T16:29:40.463Z,21790,-0.043151855,-0.11834717,0.030395508
1734712180471,2024-12-20T16:29:40.471Z,21798,-0.04498291,-0.118652344,0.029968262
1734712180480,2024-12-20T16:29:40.480Z,21807,-0.044311523,-0.119018555,0.029663086
1734712180489,2024-12-20T16:29:40.489Z,21816,-0.043945312,-0.11907959,0.030273438
1734712180502,2024-12-20T16:29:40.502Z,21829,-0.04864502,-0.121154785,0.036621094
1734712180510,2024-12-20T16:29:40.510Z,21837,-0.049743652,-0.12176514,0.035461426
1734712180582,2024-12-20T16:29:40.582Z,21909,-0.049682617,-0.123046875,0.036987305
1734712180589,2024-12-20T16:29:40.589Z,21916,-0.04748535,-0.12207031,0.031188965
1734712180597,2024-12-20T16:29:40.597Z,21924,-0.050354004,-0.122558594,0.034057617
1734712180606,2024-12-20T16:29:40.606Z,21933,-0.050354004,-0.124816895,0.03692627
1734712180617,2024-12-20T16:29:40.617Z,21944,-0.05029297,-0.12390137,0.03643799
1734712180626,2024-12-20T16:29:40.626Z,21953,-0.05859375,-0.12207031,0.033569336
1734712180634,2024-12-20T16:29:40.634Z,21961,-0.056640625,-0.12219238,0.028442383
1734712180641,2024-12-20T16:29:40.641Z,21968,-0.053833008,-0.123046875,0.037231445
1734712180674,2024-12-20T16:29:40.674Z,22001,-0.05102539,-0.12231445,0.035095215
1734712180689,2024-12-20T16:29:40.689Z,22016,-0.05596924,-0.12249756,0.034973145
1734712180705,2024-12-20T16:29:40.705Z,22032,-0.05621338,-0.122680664,0.031921387
1734712180710,2024-12-20T16:29:40.710Z,22037,-0.05706787,-0.12207031,0.027893066
1734712180718,2024-12-20T16:29:40.718Z,22045,-0.061035156,-0.12121582,0.03643799
1734712180727,2024-12-20T16:29:40.727Z,22054,-0.06048584,-0.12207031,0.032470703
1734712180734,2024-12-20T16:29:40.734Z,22061,-0.05999756,-0.119506836,0.031433105
1734712180741,2024-12-20T16:29:40.741Z,22068,-0.06439209,-0.11993408,0.02911377
1734712180749,2024-12-20T16:29:40.749Z,22076,-0.067993164,-0.11895752,0.030761719
1734712180761,2024-12-20T16:29:40.761Z,22088,-0.066101074,-0.121276855,0.029968262
1734712180769,2024-12-20T16:29:40.769Z,22096,-0.06097412,-0.118896484,0.03173828
1734712180778,2024-12-20T16:29:40.778Z,22105,-0.06689453,-0.119506836,0.032104492
1734712180786,2024-12-20T16:29:40.786Z,22113,-0.062194824,-0.11987305,0.03479004
1734712180794,2024-12-20T16:29:40.794Z,22121,-0.07476807,-0.11828613,0.029907227
1734712180802,2024-12-20T16:29:40.802Z,22129,-0.07287598,-0.119018555,0.021362305
1734712180811,2024-12-20T16:29:40.811Z,22138,-0.059509277,-0.11767578,0.026489258
1734712180820,2024-12-20T16:29:40.820Z,22147,-0.064941406,-0.11767578,0.03149414
1734712180829,2024-12-20T16:29:40.829Z,22156,-0.055847168,-0.11407471,0.022583008
1734712180837,2024-12-20T16:29:40.837Z,22164,-0.055786133,-0.11462402,0.029418945
1734712180847,2024-12-20T16:29:40.847Z,22174,-0.06121826,-0.11645508,0.031433105
1734712180855,2024-12-20T16:29:40.855Z,22182,-0.0736084,-0.11187744,0.024597168
1734712180859,2024-12-20T16:29:40.859Z,22186,-0.07336426,-0.114746094,0.024658203
1734712180897,2024-12-20T16:29:40.897Z,22224,-0.05706787,-0.11193848,0.018493652
1734712180992,2024-12-20T16:29:40.992Z,22319,-0.05706787,-0.10827637,0.027160645
1734712181001,2024-12-20T16:29:41.001Z,22328,-0.055725098,-0.10961914,0.03692627
1734712181009,2024-12-20T16:29:41.009Z,22336,-0.055603027,-0.10858154,0.034729004
1734712181017,2024-12-20T16:29:41.017Z,22344,-0.065979004,-0.105163574,0.025878906
1734712181025,2024-12-20T16:29:41.025Z,22352,-0.062316895,-0.10522461,0.0087890625
1734712181078,2024-12-20T16:29:41.078Z,22405,-0.054260254,-0.103393555,0.020507812
1734712181121,2024-12-20T16:29:41.121Z,22448,-0.06048584,-0.1038208,0.023742676
1734712181169,2024-12-20T16:29:41.169Z,22496,-0.046081543,-0.1060791,0.020202637
1734712181179,2024-12-20T16:29:41.179Z,22506,-0.05456543,-0.10223389,0.028747559
1734712181268,2024-12-20T16:29:41.268Z,22595,-0.05834961,-0.105895996,0.03503418
1734712181286,2024-12-20T16:29:41.286Z,22613,-0.054626465,-0.103759766,0.03479004
1734712181292,2024-12-20T16:29:41.292Z,22619,-0.073791504,-0.09588623,0.012939453
1734712181297,2024-12-20T16:29:41.297Z,22624,-0.070739746,-0.099975586,0.0029907227
1734712181308,2024-12-20T16:29:41.308Z,22635,-0.041015625,-0.1060791,0.009460449
1734712181589,2024-12-20T16:29:41.589Z,22916,-0.061279297,-0.105529785,0.02130127
1734712181607,2024-12-20T16:29:41.607Z,22934,-0.06463623,-0.105407715,0.020141602
1734712181623,2024-12-20T16:29:41.623Z,22950,-0.056274414,-0.10498047,0.027954102
1734712181634,2024-12-20T16:29:41.634Z,22961,-0.061340332,-0.11016846,0.03564453
1734712181670,2024-12-20T16:29:41.670Z,22997,-0.06048584,-0.105651855,0.013244629
1734712181689,2024-12-20T16:29:41.689Z,23016,-0.0769043,-0.11047363,0.025634766
1734712181706,2024-12-20T16:29:41.706Z,23033,-0.0625,-0.10858154,0.022949219
1734712181713,2024-12-20T16:29:41.713Z,23040,-0.07757568,-0.1027832,0.017456055
1734712181717,2024-12-20T16:29:41.717Z,23044,-0.08532715,-0.09100342,-0.0068969727
1734712181724,2024-12-20T16:29:41.724Z,23051,-0.06732178,-0.09539795,-0.0020751953
1734712181731,2024-12-20T16:29:41.731Z,23058,-0.06921387,-0.10192871,0.0053710938
1734712181741,2024-12-20T16:29:41.741Z,23068,-0.066833496,-0.10412598,0.007751465
1734712181751,2024-12-20T16:29:41.751Z,23078,-0.062316895,-0.08947754,-0.00592041
1734712181758,2024-12-20T16:29:41.758Z,23085,-0.062927246,-0.09503174,6.1035156E-5
1734712181767,2024-12-20T16:29:41.767Z,23094,-0.07574463,-0.09741211,-0.003540039
1734712181801,2024-12-20T16:29:41.801Z,23128,-0.0657959,-0.09881592,0.004760742
1734712181991,2024-12-20T16:29:41.991Z,23318,-0.06970215,-0.101989746,-0.0049438477
1734712182008,2024-12-20T16:29:42.008Z,23335,-0.06542969,-0.103759766,0.0032958984
1734712182029,2024-12-20T16:29:42.029Z,23356,-0.06744385,-0.103149414,0.00579834
1734712182040,2024-12-20T16:29:42.040Z,23367,-0.06561279,-0.10736084,0.015563965
1734712182067,2024-12-20T16:29:42.067Z,23394,-0.068603516,-0.0960083,0.0067749023
1734712182076,2024-12-20T16:29:42.076Z,23403,-0.062927246,-0.09729004,0.0010375977
1734712182084,2024-12-20T16:29:42.084Z,23411,-0.058898926,-0.09967041,0.0044555664
1734712182092,2024-12-20T16:29:42.092Z,23419,-0.05517578,-0.10003662,-6.1035156E-5
1734712182096,2024-12-20T16:29:42.096Z,23423,-0.06060791,-0.10290527,0.0017700195
1734712182104,2024-12-20T16:29:42.104Z,23431,-0.057556152,-0.10601807,0.0053100586
1734712182115,2024-12-20T16:29:42.115Z,23442,-0.068603516,-0.10461426,0.0073242188
1734712182119,2024-12-20T16:29:42.119Z,23446,-0.06365967,-0.09991455,-0.0025024414
1734712182126,2024-12-20T16:29:42.126Z,23453,-0.061401367,-0.101989746,-4.8828125E-4
1734712182134,2024-12-20T16:29:42.134Z,23461,-0.053466797,-0.10131836,7.324219E-4
1734712182144,2024-12-20T16:29:42.144Z,23471,-0.05883789,-0.10522461,0.008666992
1734712182153,2024-12-20T16:29:42.153Z,23480,-0.055725098,-0.10772705,0.011230469
1734712182161,2024-12-20T16:29:42.161Z,23488,-0.06689453,-0.10418701,-0.0033569336
1734712182201,2024-12-20T16:29:42.201Z,23528,-0.050720215,-0.10321045,-0.004638672
1734712182208,2024-12-20T16:29:42.208Z,23535,-0.05029297,-0.105407715,-0.007080078
1734712182215,2024-12-20T16:29:42.215Z,23542,-0.053649902,-0.10662842,0.0034179688
1734712182223,2024-12-20T16:29:42.223Z,23550,-0.05456543,-0.10986328,0.004760742
1734712182229,2024-12-20T16:29:42.229Z,23556,-0.055725098,-0.1081543,0.010375977
1734712182237,2024-12-20T16:29:42.237Z,23564,-0.06378174,-0.109069824,0.0043945312
1734712182250,2024-12-20T16:29:42.250Z,23577,-0.055725098,-0.111572266,0.004760742
1734712182489,2024-12-20T16:29:42.489Z,23816,-0.058044434,-0.107055664,0.005859375
1734712182507,2024-12-20T16:29:42.507Z,23834,-0.055603027,-0.1105957,0.002319336
1734712182522,2024-12-20T16:29:42.522Z,23849,-0.05303955,-0.10473633,0.0012207031
1734712182535,2024-12-20T16:29:42.535Z,23862,-0.05731201,-0.10443115,9.765625E-4
1734712182547,2024-12-20T16:29:42.547Z,23874,-0.049194336,-0.11193848,0.0045776367
1734712182552,2024-12-20T16:29:42.552Z,23879,-0.057250977,-0.107421875,-0.0018310547
1734712182562,2024-12-20T16:29:42.562Z,23889,-0.052734375,-0.10809326,-0.0033569336
1734712182571,2024-12-20T16:29:42.571Z,23898,-0.05114746,-0.10839844,0.0012207031
1734712182580,2024-12-20T16:29:42.580Z,23907,-0.055480957,-0.111328125,-0.0016479492
1734712182589,2024-12-20T16:29:42.589Z,23916,-0.05480957,-0.10998535,-6.1035156E-4
1734712182606,2024-12-20T16:29:42.606Z,23933,-0.05621338,-0.11187744,0.0018310547
1734712182613,2024-12-20T16:29:42.613Z,23940,-0.057434082,-0.110961914,0.0016479492
1734712182617,2024-12-20T16:29:42.617Z,23944,-0.06011963,-0.10638428,0.0065307617
1734712182625,2024-12-20T16:29:42.625Z,23952,-0.06561279,-0.10626221,0.0029907227
1734712182634,2024-12-20T16:29:42.634Z,23961,-0.0579834,-0.10748291,0.003967285
1734712182643,2024-12-20T16:29:42.643Z,23970,-0.0579834,-0.10650635,0.0076904297
1734712182653,2024-12-20T16:29:42.653Z,23980,-0.05328369,-0.111816406,0.011108398
1734712182661,2024-12-20T16:29:42.661Z,23988,-0.055236816,-0.10870361,0.008300781
1734712182670,2024-12-20T16:29:42.670Z,23997,-0.059448242,-0.107055664,0.00579834
1734712182678,2024-12-20T16:29:42.678Z,24005,-0.06323242,-0.10675049,0.00982666
1734712182687,2024-12-20T16:29:42.687Z,24014,-0.059143066,-0.1081543,0.00390625
1734712182695,2024-12-20T16:29:42.695Z,24022,-0.057556152,-0.10699463,0.004333496
1734712182884,2024-12-20T16:29:42.884Z,24211,-0.054748535,-0.104003906,0.007446289
1734712182894,2024-12-20T16:29:42.894Z,24221,-0.05645752,-0.103271484,0.004760742
1734712182905,2024-12-20T16:29:42.905Z,24232,-0.05670166,-0.10028076,0.0087890625
1734712182918,2024-12-20T16:29:42.918Z,24245,-0.05706787,-0.09643555,0.004699707
1734712182929,2024-12-20T16:29:42.929Z,24256,-0.05480957,-0.095703125,0.0043945312
1734712182939,2024-12-20T16:29:42.939Z,24266,-0.057678223,-0.09399414,0.0010986328
1734712182949,2024-12-20T16:29:42.949Z,24276,-0.06359863,-0.09991455,0.009094238
1734712183016,2024-12-20T16:29:43.016Z,24343,-0.053894043,-0.10223389,0.015136719
1734712183025,2024-12-20T16:29:43.025Z,24352,-0.061462402,-0.097595215,0.0087890625
1734712183196,2024-12-20T16:29:43.196Z,24523,-0.055480957,-0.09820557,0.0063476562
1734712183213,2024-12-20T16:29:43.213Z,24540,-0.050231934,-0.09307861,0.005859375
1734712183226,2024-12-20T16:29:43.226Z,24553,-0.041809082,-0.10418701,0.00579834
1734712183241,2024-12-20T16:29:43.241Z,24568,-0.047546387,-0.097595215,0.0032348633
1734712183252,2024-12-20T16:29:43.252Z,24579,-0.053466797,-0.10089111,-0.0025024414
1734712183262,2024-12-20T16:29:43.262Z,24589,-0.040771484,-0.097961426,0.0064697266
1734712183272,2024-12-20T16:29:43.272Z,24599,-0.052368164,-0.09564209,-0.0015869141
1734712183281,2024-12-20T16:29:43.281Z,24608,-0.058044434,-0.10046387,0.0010986328
1734712183290,2024-12-20T16:29:43.290Z,24617,-0.06225586,-0.096069336,0.0045166016
1734712183298,2024-12-20T16:29:43.298Z,24625,-0.057739258,-0.10809326,0.0072021484
1734712183371,2024-12-20T16:29:43.371Z,24698,-0.056518555,-0.11364746,0.0010375977
1734712183379,2024-12-20T16:29:43.379Z,24706,-0.043395996,-0.11578369,0.0022583008
1734712183383,2024-12-20T16:29:43.383Z,24710,-0.061340332,-0.10070801,0.007751465
1734712183392,2024-12-20T16:29:43.392Z,24719,-0.06866455,-0.10925293,0.006286621
1734712183403,2024-12-20T16:29:43.403Z,24730,-0.05505371,-0.10241699,0.0021972656
1734712183416,2024-12-20T16:29:43.416Z,24743,-0.068237305,-0.09625244,-0.0018310547
1734712183514,2024-12-20T16:29:43.514Z,24841,-0.05657959,-0.10992432,-0.0078125
1734712183523,2024-12-20T16:29:43.523Z,24850,-0.05657959,-0.09979248,0.0031738281
1734712183532,2024-12-20T16:29:43.532Z,24859,-0.06121826,-0.10974121,-0.0115356445
1734712183542,2024-12-20T16:29:43.542Z,24869,-0.056152344,-0.1083374,-1.8310547E-4
1734712183597,2024-12-20T16:29:43.597Z,24924,-0.07159424,-0.10424805,0.012817383
1734712183608,2024-12-20T16:29:43.608Z,24935,-0.062683105,-0.10534668,0.0045776367
1734712183617,2024-12-20T16:29:43.617Z,24944,-0.06414795,-0.10357666,-0.008117676
1734712183625,2024-12-20T16:29:43.625Z,24952,-0.055908203,-0.10961914,2.4414062E-4
1734712183634,2024-12-20T16:29:43.634Z,24961,-0.058044434,-0.10760498,-3.6621094E-4
1734712183642,2024-12-20T16:29:43.642Z,24969,-0.05517578,-0.10076904,-3.6621094E-4
1734712183650,2024-12-20T16:29:43.650Z,24977,-0.059936523,-0.109313965,7.9345703E-4
1734712183658,2024-12-20T16:29:43.658Z,24985,-0.062194824,-0.10632324,0.014221191
1734712183665,2024-12-20T16:29:43.665Z,24992,-0.06536865,-0.105529785,0.015075684
1734712183672,2024-12-20T16:29:43.672Z,24999,-0.06463623,-0.10064697,0.008239746
1734712183680,2024-12-20T16:29:43.680Z,25007,-0.060424805,-0.1015625,-0.002746582
1734712183688,2024-12-20T16:29:43.688Z,25015,-0.062072754,-0.10229492,-0.009155273
1734712183693,2024-12-20T16:29:43.693Z,25020,-0.06341553,-0.103393555,-0.0048217773
1734712183701,2024-12-20T16:29:43.701Z,25028,-0.064208984,-0.10089111,4.272461E-4
1734712183709,2024-12-20T16:29:43.709Z,25036,-0.059692383,-0.10235596,-0.0099487305
1734712183717,2024-12-20T16:29:43.717Z,25044,-0.048583984,-0.10418701,-4.8828125E-4
1734712183726,2024-12-20T16:29:43.726Z,25053,-0.06262207,-0.10601807,-5.493164E-4
1734712183734,2024-12-20T16:29:43.734Z,25061,-0.06311035,-0.111206055,0.0115356445
1734712183742,2024-12-20T16:29:43.742Z,25069,-0.07312012,-0.11224365,0.0154418945
1734712183748,2024-12-20T16:29:43.748Z,25075,-0.07098389,-0.109191895,0.014038086
1734712183755,2024-12-20T16:29:43.755Z,25082,-0.068237305,-0.10803223,0.015319824
1734712183763,2024-12-20T16:29:43.763Z,25090,-0.05645752,-0.104003906,-0.0031738281
1734712183771,2024-12-20T16:29:43.771Z,25098,-0.059753418,-0.10333252,-0.0022583008
1734712183779,2024-12-20T16:29:43.779Z,25106,-0.06951904,-0.105895996,-0.0087890625
1734712183787,2024-12-20T16:29:43.787Z,25114,-0.05303955,-0.1104126,0.0029907227
1734712183793,2024-12-20T16:29:43.793Z,25120,-0.07171631,-0.1149292,0.01574707
1734712183800,2024-12-20T16:29:43.800Z,25127,-0.07299805,-0.11791992,0.019165039
1734712183808,2024-12-20T16:29:43.808Z,25135,-0.076293945,-0.11236572,0.022155762
1734712183821,2024-12-20T16:29:43.821Z,25148,-0.06567383,-0.10986328,9.1552734E-4
1734712183828,2024-12-20T16:29:43.828Z,25155,-0.050598145,-0.11242676,0.005126953
1734712183836,2024-12-20T16:29:43.836Z,25163,-0.07507324,-0.10498047,-2.4414062E-4
1734712183844,2024-12-20T16:29:43.844Z,25171,-0.058044434,-0.11468506,-9.765625E-4
1734712183871,2024-12-20T16:29:43.871Z,25198,-0.06762695,-0.111328125,0.0076293945
1734712183915,2024-12-20T16:29:43.915Z,25242,-0.07537842,-0.112976074,0.0056152344
1734712183958,2024-12-20T16:29:43.958Z,25285,-0.070739746,-0.11633301,0.009765625
1734712183966,2024-12-20T16:29:43.966Z,25293,-0.06768799,-0.11450195,0.016052246
1734712183976,2024-12-20T16:29:43.976Z,25303,-0.057495117,-0.11584473,0.0075683594
1734712183991,2024-12-20T16:29:43.991Z,25318,-0.06976318,-0.10827637,3.6621094E-4
1734712184001,2024-12-20T16:29:44.001Z,25328,-0.072265625,-0.10900879,-0.004638672
1734712184011,2024-12-20T16:29:44.011Z,25338,-0.0635376,-0.1104126,-0.005126953
1734712184020,2024-12-20T16:29:44.020Z,25347,-0.069885254,-0.11242676,0.003112793
1734712184029,2024-12-20T16:29:44.029Z,25356,-0.0715332,-0.11785889,0.016052246
1734712184037,2024-12-20T16:29:44.037Z,25364,-0.07330322,-0.11621094,0.024108887
1734712184047,2024-12-20T16:29:44.047Z,25374,-0.06384277,-0.11755371,0.02142334
1734712184074,2024-12-20T16:29:44.074Z,25401,-0.07299805,-0.1081543,0.007873535
1734712184086,2024-12-20T16:29:44.086Z,25413,-0.068237305,-0.10681152,-0.012268066
1734712184092,2024-12-20T16:29:44.092Z,25419,-0.06866455,-0.107788086,0.0053100586
1734712184101,2024-12-20T16:29:44.101Z,25428,-0.06732178,-0.11212158,0.012207031
1734712184108,2024-12-20T16:29:44.108Z,25435,-0.07598877,-0.11444092,0.018188477
1734712184116,2024-12-20T16:29:44.116Z,25443,-0.07324219,-0.10949707,0.022155762
1734712184124,2024-12-20T16:29:44.124Z,25451,-0.07159424,-0.11053467,0.014343262
1734712184131,2024-12-20T16:29:44.131Z,25458,-0.066833496,-0.10723877,0.009216309
1734712184139,2024-12-20T16:29:44.139Z,25466,-0.064941406,-0.10650635,0.0056152344
1734712184146,2024-12-20T16:29:44.146Z,25473,-0.06512451,-0.10333252,4.272461E-4
1734712184153,2024-12-20T16:29:44.153Z,25480,-0.07147217,-0.10443115,0.009094238
1734712184160,2024-12-20T16:29:44.160Z,25487,-0.062194824,-0.107177734,0.0033569336
1734712184168,2024-12-20T16:29:44.168Z,25495,-0.068603516,-0.10632324,0.009460449
1734712184175,2024-12-20T16:29:44.175Z,25502,-0.07055664,-0.109558105,0.019226074
1734712184181,2024-12-20T16:29:44.181Z,25508,-0.06719971,-0.11212158,0.028320312
1734712184189,2024-12-20T16:29:44.189Z,25516,-0.06555176,-0.10900879,0.023742676
1734712184196,2024-12-20T16:29:44.196Z,25523,-0.075805664,-0.101135254,0.008544922
1734712184205,2024-12-20T16:29:44.205Z,25532,-0.068603516,-0.101623535,4.8828125E-4
1734712184214,2024-12-20T16:29:44.214Z,25541,-0.06750488,-0.1038208,0.008972168
1734712184222,2024-12-20T16:29:44.222Z,25549,-0.062194824,-0.10424805,0.0073242188
1734712184232,2024-12-20T16:29:44.232Z,25559,-0.06665039,-0.10650635,0.010864258
1734712184244,2024-12-20T16:29:44.244Z,25571,-0.06585693,-0.11022949,0.024719238
1734712184273,2024-12-20T16:29:44.273Z,25600,-0.06951904,-0.10913086,0.028503418
1734712184281,2024-12-20T16:29:44.281Z,25608,-0.062316895,-0.10803223,0.019470215
1734712184288,2024-12-20T16:29:44.288Z,25615,-0.06298828,-0.10308838,0.018249512
1734712184297,2024-12-20T16:29:44.297Z,25624,-0.070373535,-0.101745605,0.0126953125
1734712184303,2024-12-20T16:29:44.303Z,25630,-0.057495117,-0.10272217,0.010925293
1734712184310,2024-12-20T16:29:44.310Z,25637,-0.061523438,-0.10205078,0.010620117
1734712184319,2024-12-20T16:29:44.319Z,25646,-0.059020996,-0.1071167,0.016052246
1734712184326,2024-12-20T16:29:44.326Z,25653,-0.06866455,-0.105285645,0.021972656
1734712184333,2024-12-20T16:29:44.333Z,25660,-0.061706543,-0.10583496,0.02508545
1734712184339,2024-12-20T16:29:44.339Z,25666,-0.06585693,-0.10974121,0.037902832
1734712184345,2024-12-20T16:29:44.345Z,25672,-0.059448242,-0.10418701,0.020446777
1734712184363,2024-12-20T16:29:44.363Z,25690,-0.05731201,-0.10058594,0.013061523
1734712184370,2024-12-20T16:29:44.370Z,25697,-0.059265137,-0.10229492,0.017028809
1734712184379,2024-12-20T16:29:44.379Z,25706,-0.05303955,-0.10083008,0.012878418
1734712184385,2024-12-20T16:29:44.385Z,25712,-0.057128906,-0.103637695,0.013122559
1734712184405,2024-12-20T16:29:44.405Z,25732,-0.056396484,-0.107177734,0.020629883
1734712184414,2024-12-20T16:29:44.414Z,25741,-0.059753418,-0.111083984,0.037719727
1734712184422,2024-12-20T16:29:44.422Z,25749,-0.059936523,-0.11065674,0.03363037
1734712184430,2024-12-20T16:29:44.430Z,25757,-0.061401367,-0.10809326,0.036315918
1734712184436,2024-12-20T16:29:44.436Z,25763,-0.06347656,-0.107177734,0.028442383
1734712184444,2024-12-20T16:29:44.444Z,25771,-0.056884766,-0.10449219,0.019348145
1734712184544,2024-12-20T16:29:44.544Z,25871,-0.050109863,-0.10583496,0.017028809
1734712184680,2024-12-20T16:29:44.680Z,26007,-0.0569458,-0.10601807,0.015319824
1734712184697,2024-12-20T16:29:44.697Z,26024,-0.055725098,-0.10925293,0.020629883
1734712184724,2024-12-20T16:29:44.724Z,26051,-0.054260254,-0.111816406,0.028808594
1734712184741,2024-12-20T16:29:44.741Z,26068,-0.06378174,-0.11541748,0.03515625
1734712184751,2024-12-20T16:29:44.751Z,26078,-0.061645508,-0.11456299,0.031066895
1734712184761,2024-12-20T16:29:44.761Z,26088,-0.05493164,-0.113098145,0.03112793
1734712184771,2024-12-20T16:29:44.771Z,26098,-0.058288574,-0.110839844,0.023742676
1734712184780,2024-12-20T16:29:44.780Z,26107,-0.054748535,-0.11291504,0.015625
1734712184789,2024-12-20T16:29:44.789Z,26116,-0.057495117,-0.11419678,0.02368164
1734712184796,2024-12-20T16:29:44.796Z,26123,-0.05834961,-0.1161499,0.020874023
1734712184805,2024-12-20T16:29:44.805Z,26132,-0.057678223,-0.11730957,0.023986816
1734712184809,2024-12-20T16:29:44.809Z,26136,-0.050048828,-0.11480713,0.022216797
1734712184817,2024-12-20T16:29:44.817Z,26144,-0.05041504,-0.11364746,0.03265381
1734712184859,2024-12-20T16:29:44.859Z,26186,-0.0491333,-0.114990234,0.031921387
1734712184866,2024-12-20T16:29:44.866Z,26193,-0.051940918,-0.113220215,0.028137207
1734712184872,2024-12-20T16:29:44.872Z,26199,-0.05090332,-0.11291504,0.029785156
1734712184879,2024-12-20T16:29:44.879Z,26206,-0.051879883,-0.11303711,0.029785156
1734712184886,2024-12-20T16:29:44.886Z,26213,-0.045837402,-0.11352539,0.02935791
1734712184947,2024-12-20T16:29:44.947Z,26274,-0.04711914,-0.11395264,0.031188965
1734712184955,2024-12-20T16:29:44.955Z,26282,-0.044006348,-0.11431885,0.029724121
1734712184964,2024-12-20T16:29:44.964Z,26291,-0.044189453,-0.11328125,0.026672363
1734712184973,2024-12-20T16:29:44.973Z,26300,-0.044189453,-0.113708496,0.028076172
1734712184983,2024-12-20T16:29:44.983Z,26310,-0.045043945,-0.11328125,0.028076172
1734712184992,2024-12-20T16:29:44.992Z,26319,-0.047058105,-0.11462402,0.028381348
1734712185001,2024-12-20T16:29:45.001Z,26328,-0.042175293,-0.11682129,0.029724121
1734712185041,2024-12-20T16:29:45.041Z,26368,-0.041992188,-0.117248535,0.030639648
1734712185052,2024-12-20T16:29:45.052Z,26379,-0.04284668,-0.11657715,0.030639648
1734712185062,2024-12-20T16:29:45.062Z,26389,-0.044189453,-0.116760254,0.031066895
1734712185072,2024-12-20T16:29:45.072Z,26399,-0.042663574,-0.117004395,0.03137207
1734712185080,2024-12-20T16:29:45.080Z,26407,-0.0390625,-0.11627197,0.028381348
1734712185084,2024-12-20T16:29:45.084Z,26411,-0.040222168,-0.11608887,0.02923584
1734712185127,2024-12-20T16:29:45.127Z,26454,-0.0390625,-0.11663818,0.030578613
1734712185135,2024-12-20T16:29:45.135Z,26462,-0.038208008,-0.11853027,0.03375244
1734712185143,2024-12-20T16:29:45.143Z,26470,-0.039489746,-0.11804199,0.03540039
1734712185151,2024-12-20T16:29:45.151Z,26478,-0.037719727,-0.11633301,0.031677246
1734712185159,2024-12-20T16:29:45.159Z,26486,-0.036315918,-0.11639404,0.02935791
1734712185167,2024-12-20T16:29:45.167Z,26494,-0.03375244,-0.11590576,0.027709961
1734712185171,2024-12-20T16:29:45.171Z,26498,-0.03765869,-0.11682129,0.030700684
1734712185178,2024-12-20T16:29:45.178Z,26505,-0.03857422,-0.1171875,0.031921387
1734712185185,2024-12-20T16:29:45.185Z,26512,-0.03894043,-0.11798096,0.033996582
1734712185191,2024-12-20T16:29:45.191Z,26518,-0.03857422,-0.11871338,0.03564453
1734712185197,2024-12-20T16:29:45.197Z,26524,-0.037963867,-0.11816406,0.03479004
1734712185203,2024-12-20T16:29:45.203Z,26530,-0.03527832,-0.11639404,0.029968262
1734712185218,2024-12-20T16:29:45.218Z,26545,-0.039245605,-0.117004395,0.032348633
1734712185227,2024-12-20T16:29:45.227Z,26554,-0.037475586,-0.11706543,0.033813477
1734712185239,2024-12-20T16:29:45.239Z,26566,-0.038146973,-0.11810303,0.034606934
1734712185246,2024-12-20T16:29:45.246Z,26573,-0.035217285,-0.117370605,0.036499023
1734712185253,2024-12-20T16:29:45.253Z,26580,-0.037231445,-0.115356445,0.033813477
1734712185263,2024-12-20T16:29:45.263Z,26590,-0.037719727,-0.11456299,0.028076172
1734712185271,2024-12-20T16:29:45.271Z,26598,-0.03491211,-0.11450195,0.028503418
1734712185278,2024-12-20T16:29:45.278Z,26605,-0.03540039,-0.11444092,0.032104492
1734712185286,2024-12-20T16:29:45.286Z,26613,-0.03643799,-0.11462402,0.030639648
1734712185294,2024-12-20T16:29:45.294Z,26621,-0.03717041,-0.11468506,0.034362793
1734712185301,2024-12-20T16:29:45.301Z,26628,-0.036987305,-0.11456299,0.035095215
1734712185535,2024-12-20T16:29:45.535Z,26862,-0.036010742,-0.113708496,0.034973145
1734712185556,2024-12-20T16:29:45.556Z,26883,-0.036315918,-0.11340332,0.035095215
1734712185576,2024-12-20T16:29:45.576Z,26903,-0.036743164,-0.11199951,0.03277588
1734712185588,2024-12-20T16:29:45.588Z,26915,-0.03363037,-0.11071777,0.029724121
1734712185599,2024-12-20T16:29:45.599Z,26926,-0.03375244,-0.11102295,0.03265381
1734712185619,2024-12-20T16:29:45.619Z,26946,-0.032287598,-0.111083984,0.03161621
1734712185630,2024-12-20T16:29:45.630Z,26957,-0.033813477,-0.11090088,0.032958984
1734712185639,2024-12-20T16:29:45.639Z,26966,-0.034973145,-0.11236572,0.03503418
1734712185647,2024-12-20T16:29:45.647Z,26974,-0.034118652,-0.11151123,0.033935547
1734712185655,2024-12-20T16:29:45.655Z,26982,-0.033081055,-0.11254883,0.033813477
1734712185662,2024-12-20T16:29:45.662Z,26989,-0.03253174,-0.11242676,0.031677246
1734712185712,2024-12-20T16:29:45.712Z,27039,-0.03302002,-0.11395264,0.03363037
1734712185716,2024-12-20T16:29:45.716Z,27043,-0.041625977,-0.13470459,0.03729248
1734712185760,2024-12-20T16:29:45.760Z,27087,-0.04284668,-0.1340332,0.04144287
1734712185775,2024-12-20T16:29:45.775Z,27102,-0.0423584,-0.13275146,0.041259766
1734712185813,2024-12-20T16:29:45.813Z,27140,-0.041137695,-0.13122559,0.037597656
1734712185827,2024-12-20T16:29:45.827Z,27154,-0.040649414,-0.13140869,0.04083252
1734712185838,2024-12-20T16:29:45.838Z,27165,-0.0413208,-0.13140869,0.042419434
1734712185850,2024-12-20T16:29:45.850Z,27177,-0.04321289,-0.12915039,0.04119873
1734712185859,2024-12-20T16:29:45.859Z,27186,-0.041137695,-0.12762451,0.03869629
1734712185868,2024-12-20T16:29:45.868Z,27195,-0.04272461,-0.128479,0.039916992
1734712185875,2024-12-20T16:29:45.875Z,27202,-0.046142578,-0.12609863,0.038513184
1734712185883,2024-12-20T16:29:45.883Z,27210,-0.046081543,-0.12426758,0.033569336
1734712185894,2024-12-20T16:29:45.894Z,27221,-0.048461914,-0.12365723,0.030944824
1734712185898,2024-12-20T16:29:45.898Z,27225,-0.044555664,-0.12475586,0.039611816
1734712185905,2024-12-20T16:29:45.905Z,27232,-0.052734375,-0.12036133,0.027160645
1734712185912,2024-12-20T16:29:45.912Z,27239,-0.053588867,-0.12097168,0.028076172
1734712185915,2024-12-20T16:29:45.915Z,27242,-0.058776855,-0.12243652,0.02947998
1734712185922,2024-12-20T16:29:45.922Z,27249,-0.072387695,-0.11859131,0.025146484
1734712185935,2024-12-20T16:29:45.935Z,27262,-0.06384277,-0.11517334,0.01550293
1734712185942,2024-12-20T16:29:45.942Z,27269,-0.052368164,-0.1171875,0.011108398
1734712185949,2024-12-20T16:29:45.949Z,27276,-0.0625,-0.11883545,0.023925781
1734712185955,2024-12-20T16:29:45.955Z,27282,-0.061157227,-0.118774414,0.030090332
1734712185962,2024-12-20T16:29:45.962Z,27289,-0.062316895,-0.11694336,0.028564453
1734712185968,2024-12-20T16:29:45.968Z,27295,-0.059448242,-0.11773682,0.024230957
1734712185987,2024-12-20T16:29:45.987Z,27314,-0.06866455,-0.11260986,0.020385742
1734712185993,2024-12-20T16:29:45.993Z,27320,-0.066589355,-0.112854004,0.0119018555
1734712186000,2024-12-20T16:29:46Z,27327,-0.061706543,-0.10882568,0.014465332
1734712186007,2024-12-20T16:29:46.007Z,27334,-0.07141113,-0.109436035,0.0234375
1734712186015,2024-12-20T16:29:46.015Z,27342,-0.057617188,-0.10681152,0.02545166
1734712186071,2024-12-20T16:29:46.071Z,27398,-0.0625,-0.105163574,0.021057129
1734712186079,2024-12-20T16:29:46.079Z,27406,-0.07122803,-0.10845947,0.022888184
1734712186085,2024-12-20T16:29:46.085Z,27412,-0.0680542,-0.105651855,0.018310547
1734712186093,2024-12-20T16:29:46.093Z,27420,-0.072631836,-0.103027344,0.008422852
1734712186100,2024-12-20T16:29:46.100Z,27427,-0.0736084,-0.10827637,0.009521484
1734712186107,2024-12-20T16:29:46.107Z,27434,-0.06402588,-0.10998535,0.017456055
1734712186119,2024-12-20T16:29:46.119Z,27446,-0.065979004,-0.1060791,0.01776123
1734712186126,2024-12-20T16:29:46.126Z,27453,-0.06896973,-0.105041504,0.02947998
1734712186134,2024-12-20T16:29:46.134Z,27461,-0.06768799,-0.10119629,0.01776123
1734712186162,2024-12-20T16:29:46.162Z,27489,-0.07489014,-0.09918213,0.007385254
1734712186169,2024-12-20T16:29:46.169Z,27496,-0.07757568,-0.10913086,0.0076904297
1734712186176,2024-12-20T16:29:46.176Z,27503,-0.07397461,-0.103881836,-0.0032958984
1734712186179,2024-12-20T16:29:46.179Z,27506,-0.059326172,-0.10498047,0.0063476562
1734712186186,2024-12-20T16:29:46.186Z,27513,-0.072387695,-0.10479736,0.011413574
1734712186194,2024-12-20T16:29:46.194Z,27521,-0.060424805,-0.10345459,0.012390137
1734712186209,2024-12-20T16:29:46.209Z,27536,-0.06591797,-0.10430908,0.019958496
1734712186217,2024-12-20T16:29:46.217Z,27544,-0.08343506,-0.09954834,0.011047363
1734712186223,2024-12-20T16:29:46.223Z,27550,-0.079711914,-0.095947266,-0.0012817383
1734712186230,2024-12-20T16:29:46.230Z,27557,-0.091308594,-0.09899902,-1.2207031E-4
1734712186237,2024-12-20T16:29:46.237Z,27564,-0.064086914,-0.10247803,0.0024414062
1734712186254,2024-12-20T16:29:46.254Z,27581,-0.06097412,-0.095947266,-0.0059814453
1734712186257,2024-12-20T16:29:46.257Z,27584,-0.06640625,-0.10217285,0.007080078
1734712186264,2024-12-20T16:29:46.264Z,27591,-0.06915283,-0.10205078,0.010803223
1734712186271,2024-12-20T16:29:46.271Z,27598,-0.07550049,-0.095947266,0.0040893555
1734712186278,2024-12-20T16:29:46.278Z,27605,-0.08227539,-0.10131836,2.4414062E-4
1734712186286,2024-12-20T16:29:46.286Z,27613,-0.074157715,-0.0993042,0.006286621
1734712186296,2024-12-20T16:29:46.296Z,27623,-0.07348633,-0.096191406,0.005004883
1734712186304,2024-12-20T16:29:46.304Z,27631,-0.05609131,-0.10070801,-0.0013427734
1734712186316,2024-12-20T16:29:46.316Z,27643,-0.06951904,-0.10119629,0.013916016
1734712186324,2024-12-20T16:29:46.324Z,27651,-0.068603516,-0.09777832,0.009460449
1734712186331,2024-12-20T16:29:46.331Z,27658,-0.07324219,-0.0960083,0.007507324
1734712186337,2024-12-20T16:29:46.337Z,27664,-0.09906006,-0.09588623,-0.006225586
1734712186345,2024-12-20T16:29:46.345Z,27672,-0.07232666,-0.09429932,0.0025634766
1734712186352,2024-12-20T16:29:46.352Z,27679,-0.05493164,-0.09527588,0.005065918
1734712186358,2024-12-20T16:29:46.358Z,27685,-0.06402588,-0.09259033,0.0028686523
1734712186364,2024-12-20T16:29:46.364Z,27691,-0.062805176,-0.09490967,0.0045166016
1734712186370,2024-12-20T16:29:46.370Z,27697,-0.061828613,-0.09692383,0.0072021484
1734712186385,2024-12-20T16:29:46.385Z,27712,-0.075805664,-0.09710693,0.009643555
1734712186391,2024-12-20T16:29:46.391Z,27718,-0.09075928,-0.091674805,-0.0014038086
1734712186398,2024-12-20T16:29:46.398Z,27725,-0.06738281,-0.08959961,-0.012512207
1734712186404,2024-12-20T16:29:46.404Z,27731,-0.059631348,-0.09552002,6.1035156E-5
1734712186410,2024-12-20T16:29:46.410Z,27737,-0.066589355,-0.09588623,-0.0034179688
1734712186418,2024-12-20T16:29:46.418Z,27745,-0.06665039,-0.09289551,0.002380371
1734712186483,2024-12-20T16:29:46.483Z,27810,-0.06463623,-0.095458984,4.272461E-4
1734712186490,2024-12-20T16:29:46.490Z,27817,-0.07409668,-0.099975586,0.0053100586
1734712186498,2024-12-20T16:29:46.498Z,27825,-0.07702637,-0.09436035,0.007019043
1734712186507,2024-12-20T16:29:46.507Z,27834,-0.07720947,-0.09094238,-0.0038452148
1734712186660,2024-12-20T16:29:46.660Z,27987,-0.061035156,-0.09106445,-0.008605957
1734712186669,2024-12-20T16:29:46.669Z,27996,-0.051452637,-0.09320068,0.0026245117
1734712186679,2024-12-20T16:29:46.679Z,28006,-0.06463623,-0.092163086,0.0031738281
1734712186689,2024-12-20T16:29:46.689Z,28016,-0.06726074,-0.09210205,-0.0017089844
1734712186698,2024-12-20T16:29:46.698Z,28025,-0.06793213,-0.09399414,1.8310547E-4
1734712186751,2024-12-20T16:29:46.751Z,28078,-0.070007324,-0.09765625,0.0025024414
1734712186767,2024-12-20T16:29:46.767Z,28094,-0.07183838,-0.09613037,0.0012817383
1734712186777,2024-12-20T16:29:46.777Z,28104,-0.06567383,-0.09075928,0.0025024414
1734712186787,2024-12-20T16:29:46.787Z,28114,-0.06097412,-0.09490967,-0.0021362305
1734712186797,2024-12-20T16:29:46.797Z,28124,-0.05999756,-0.09387207,-0.006958008
1734712186806,2024-12-20T16:29:46.806Z,28133,-0.06439209,-0.09588623,0.0034179688
1734712186814,2024-12-20T16:29:46.814Z,28141,-0.07019043,-0.09857178,0.0028686523
1734712186818,2024-12-20T16:29:46.818Z,28145,-0.07244873,-0.09295654,0.004272461
1734712186824,2024-12-20T16:29:46.824Z,28151,-0.06842041,-0.090148926,-0.0053710938
1734712186831,2024-12-20T16:29:46.831Z,28158,-0.058654785,-0.090026855,-0.010498047
1734712186838,2024-12-20T16:29:46.838Z,28165,-0.06695557,-0.085754395,-0.006958008
1734712186883,2024-12-20T16:29:46.883Z,28210,-0.055664062,-0.09338379,-0.011108398
1734712186890,2024-12-20T16:29:46.890Z,28217,-0.06085205,-0.09313965,2.4414062E-4
1734712186899,2024-12-20T16:29:46.899Z,28226,-0.06994629,-0.09899902,-0.0033569336
1734712186908,2024-12-20T16:29:46.908Z,28235,-0.06793213,-0.0960083,-0.004333496
1734712186916,2024-12-20T16:29:46.916Z,28243,-0.051208496,-0.09857178,-0.006713867
1734712186924,2024-12-20T16:29:46.924Z,28251,-0.057861328,-0.10308838,7.324219E-4
1734712186933,2024-12-20T16:29:46.933Z,28260,-0.0637207,-0.101623535,0.0029296875
1734712186940,2024-12-20T16:29:46.940Z,28267,-0.064453125,-0.09991455,-0.001953125
1734712186948,2024-12-20T16:29:46.948Z,28275,-0.061828613,-0.099609375,0.0052490234
1734712186956,2024-12-20T16:29:46.956Z,28283,-0.07519531,-0.0970459,-0.006164551
1734712186962,2024-12-20T16:29:46.962Z,28289,-0.056274414,-0.09814453,-0.010009766
1734712186971,2024-12-20T16:29:46.971Z,28298,-0.06677246,-0.10028076,-0.012390137
1734712186974,2024-12-20T16:29:46.974Z,28301,-0.061706543,-0.10760498,-0.0026855469
1734712187021,2024-12-20T16:29:47.021Z,28348,-0.06530762,-0.11376953,0.0068969727
1734712187028,2024-12-20T16:29:47.028Z,28355,-0.066345215,-0.10845947,-0.0048217773
1734712187035,2024-12-20T16:29:47.035Z,28362,-0.072509766,-0.10345459,-0.018249512
1734712187042,2024-12-20T16:29:47.042Z,28369,-0.059631348,-0.11193848,-0.0134887695
1734712187050,2024-12-20T16:29:47.050Z,28377,-0.0546875,-0.113586426,-0.009216309
1734712187157,2024-12-20T16:29:47.157Z,28484,-0.059570312,-0.112976074,7.9345703E-4
1734712187171,2024-12-20T16:29:47.171Z,28498,-0.06097412,-0.11633301,-0.0015258789
1734712187185,2024-12-20T16:29:47.185Z,28512,-0.06689453,-0.10913086,0.0033569336
1734712187195,2024-12-20T16:29:47.195Z,28522,-0.0637207,-0.111206055,0.0018920898
1734712187206,2024-12-20T16:29:47.206Z,28533,-0.06097412,-0.10699463,0.0010375977
1734712187215,2024-12-20T16:29:47.215Z,28542,-0.059448242,-0.1015625,-0.0068969727
1734712187245,2024-12-20T16:29:47.245Z,28572,-0.05407715,-0.09844971,-0.0044555664
1734712187296,2024-12-20T16:29:47.296Z,28623,-0.052856445,-0.10101318,-0.002746582
1734712187309,2024-12-20T16:29:47.309Z,28636,-0.053527832,-0.099853516,0.008422852
1734712187382,2024-12-20T16:29:47.382Z,28709,-0.05529785,-0.10443115,0.0075683594
1734712187396,2024-12-20T16:29:47.396Z,28723,-0.0579834,-0.097717285,0.003479004
1734712187412,2024-12-20T16:29:47.412Z,28739,-0.055419922,-0.0947876,1.2207031E-4
1734712187418,2024-12-20T16:29:47.418Z,28745,-0.051757812,-0.10913086,-0.0015258789
1734712187426,2024-12-20T16:29:47.426Z,28753,-0.05419922,-0.11138916,-0.0087890625
1734712187439,2024-12-20T16:29:47.439Z,28766,-0.044189453,-0.11273193,6.713867E-4
1734712187450,2024-12-20T16:29:47.450Z,28777,-0.05505371,-0.109802246,0.0034179688
1734712187457,2024-12-20T16:29:47.457Z,28784,-0.054870605,-0.11431885,0.0065307617
1734712187464,2024-12-20T16:29:47.464Z,28791,-0.04852295,-0.11364746,0.014526367
1734712187468,2024-12-20T16:29:47.468Z,28795,-0.039855957,-0.1104126,-0.0028686523
1734712187472,2024-12-20T16:29:47.472Z,28799,-0.0491333,-0.105895996,0.012451172
1734712187478,2024-12-20T16:29:47.478Z,28805,-0.057250977,-0.10437012,0.0064697266
1734712187515,2024-12-20T16:29:47.515Z,28842,-0.050109863,-0.10876465,1.8310547E-4
1734712187601,2024-12-20T16:29:47.601Z,28928,-0.06109619,-0.110839844,0.0064697266
1734712187609,2024-12-20T16:29:47.609Z,28936,-0.04498291,-0.11627197,0.0048828125
1734712187617,2024-12-20T16:29:47.617Z,28944,-0.038635254,-0.115600586,0.006591797
1734712187625,2024-12-20T16:29:47.625Z,28952,-0.042236328,-0.11682129,0.0013427734
1734712187635,2024-12-20T16:29:47.635Z,28962,-0.040222168,-0.11706543,0.010192871
1734712187643,2024-12-20T16:29:47.643Z,28970,-0.050231934,-0.11352539,0.0068969727
1734712187697,2024-12-20T16:29:47.697Z,29024,-0.048339844,-0.11352539,0.008361816
1734712187706,2024-12-20T16:29:47.706Z,29033,-0.050842285,-0.11340332,0.008117676
1734712187715,2024-12-20T16:29:47.715Z,29042,-0.05126953,-0.11193848,0.0079956055
1734712187724,2024-12-20T16:29:47.724Z,29051,-0.048034668,-0.115356445,0.0071411133
1734712187734,2024-12-20T16:29:47.734Z,29061,-0.03564453,-0.11804199,0.010864258
1734712187738,2024-12-20T16:29:47.738Z,29065,-0.05029297,-0.11254883,0.0025024414
1734712187782,2024-12-20T16:29:47.782Z,29109,-0.042236328,-0.110961914,0.0040283203
1734712187790,2024-12-20T16:29:47.790Z,29117,-0.040771484,-0.11053467,0.0059814453
1734712187799,2024-12-20T16:29:47.799Z,29126,-0.038391113,-0.111206055,0.003112793
1734712187808,2024-12-20T16:29:47.808Z,29135,-0.037597656,-0.11047363,0.008239746
1734712187817,2024-12-20T16:29:47.817Z,29144,-0.043395996,-0.11102295,0.009765625
1734712187826,2024-12-20T16:29:47.826Z,29153,-0.043762207,-0.11047363,0.0045166016
1734712187831,2024-12-20T16:29:47.831Z,29158,-0.038208008,-0.107177734,0.0029907227
1734712187839,2024-12-20T16:29:47.839Z,29166,-0.047912598,-0.105407715,7.9345703E-4
1734712187847,2024-12-20T16:29:47.847Z,29174,-0.043273926,-0.11236572,0.0079956055
1734712187854,2024-12-20T16:29:47.854Z,29181,-0.047607422,-0.1071167,0.0048217773
1734712187860,2024-12-20T16:29:47.860Z,29187,-0.044433594,-0.10797119,9.1552734E-4
1734712187866,2024-12-20T16:29:47.866Z,29193,-0.04675293,-0.10882568,0.0037841797
1734712187874,2024-12-20T16:29:47.874Z,29201,-0.055541992,-0.10418701,-6.1035156E-4
1734712187880,2024-12-20T16:29:47.880Z,29207,-0.04626465,-0.10681152,0.0013427734
1734712187886,2024-12-20T16:29:47.886Z,29213,-0.05053711,-0.099853516,4.8828125E-4
1734712187892,2024-12-20T16:29:47.892Z,29219,-0.048828125,-0.10394287,0.0053710938
1734712187899,2024-12-20T16:29:47.899Z,29226,-0.04156494,-0.09832764,0.0060424805
1734712187963,2024-12-20T16:29:47.963Z,29290,-0.053588867,-0.08746338,-0.0065307617
1734712188008,2024-12-20T16:29:48.008Z,29335,-0.055541992,-0.09265137,-0.016235352
1734712188053,2024-12-20T16:29:48.053Z,29380,-0.052856445,-0.094055176,-0.0138549805
1734712188061,2024-12-20T16:29:48.061Z,29388,-0.04711914,-0.101989746,-0.0036010742
1734712188097,2024-12-20T16:29:48.097Z,29424,-0.038208008,-0.105651855,0.009094238
1734712188105,2024-12-20T16:29:48.105Z,29432,-0.053649902,-0.107055664,0.0029907227
1734712188113,2024-12-20T16:29:48.113Z,29440,-0.0501709,-0.10821533,0.0020141602
1734712188122,2024-12-20T16:29:48.122Z,29449,-0.057128906,-0.10534668,-0.012573242
1734712188132,2024-12-20T16:29:48.132Z,29459,-0.058776855,-0.109558105,-0.021728516
1734712188141,2024-12-20T16:29:48.141Z,29468,-0.04736328,-0.11425781,-0.0028686523
1734712188150,2024-12-20T16:29:48.150Z,29477,-0.056030273,-0.11694336,6.713867E-4
1734712188157,2024-12-20T16:29:48.157Z,29484,-0.051330566,-0.11602783,0.0026245117
1734712188160,2024-12-20T16:29:48.160Z,29487,-0.053466797,-0.11383057,0.00579834
1734712188168,2024-12-20T16:29:48.168Z,29495,-0.04852295,-0.10986328,-0.0038452148
1734712188175,2024-12-20T16:29:48.175Z,29502,-0.05859375,-0.101745605,-0.0051879883
1734712188181,2024-12-20T16:29:48.181Z,29508,-0.054260254,-0.10864258,-0.0041503906
1734712188188,2024-12-20T16:29:48.188Z,29515,-0.04626465,-0.10418701,-0.0078125
1734712188236,2024-12-20T16:29:48.236Z,29563,-0.059143066,-0.09887695,-0.0036010742
1734712188244,2024-12-20T16:29:48.244Z,29571,-0.05645752,-0.10656738,-0.0017089844
1734712188254,2024-12-20T16:29:48.254Z,29581,-0.049987793,-0.109680176,0.0020751953
1734712188279,2024-12-20T16:29:48.279Z,29606,-0.058288574,-0.10461426,-0.008239746
1734712188288,2024-12-20T16:29:48.288Z,29615,-0.06262207,-0.10180664,-0.013427734
1734712188297,2024-12-20T16:29:48.297Z,29624,-0.061767578,-0.10345459,-0.014831543
1734712188306,2024-12-20T16:29:48.306Z,29633,-0.047790527,-0.11376953,-0.016174316
1734712188314,2024-12-20T16:29:48.314Z,29641,-0.044006348,-0.10845947,-0.0064697266
1734712188322,2024-12-20T16:29:48.322Z,29649,-0.06524658,-0.11114502,-4.8828125E-4
1734712188330,2024-12-20T16:29:48.330Z,29657,-0.05847168,-0.11639404,0.0013427734
1734712188336,2024-12-20T16:29:48.336Z,29663,-0.06982422,-0.10455322,-0.015686035
1734712188365,2024-12-20T16:29:48.365Z,29692,-0.049926758,-0.10992432,0.0037841797
1734712188461,2024-12-20T16:29:48.461Z,29788,-0.060546875,-0.10235596,-0.0017700195
1734712188477,2024-12-20T16:29:48.477Z,29804,-0.058898926,-0.099731445,-0.0052490234
1734712188489,2024-12-20T16:29:48.489Z,29816,-0.045288086,-0.0993042,-0.004638672
1734712188503,2024-12-20T16:29:48.503Z,29830,-0.06817627,-0.10070801,-0.0020141602
1734712188514,2024-12-20T16:29:48.514Z,29841,-0.053100586,-0.1060791,-0.0056762695
1734712188522,2024-12-20T16:29:48.522Z,29849,-0.05670166,-0.099487305,0.0045776367
1734712188532,2024-12-20T16:29:48.532Z,29859,-0.07122803,-0.10321045,-0.0030517578
1734712188540,2024-12-20T16:29:48.540Z,29867,-0.050964355,-0.09991455,-0.0048828125
1734712188549,2024-12-20T16:29:48.549Z,29876,-0.052734375,-0.10046387,0.0010375977
1734712188557,2024-12-20T16:29:48.557Z,29884,-0.05065918,-0.101257324,-0.0073242188
1734712188565,2024-12-20T16:29:48.565Z,29892,-0.05859375,-0.09375,-0.011779785
1734712188568,2024-12-20T16:29:48.568Z,29895,-0.060424805,-0.10845947,-0.022277832
1734712188574,2024-12-20T16:29:48.574Z,29901,-0.061950684,-0.09869385,-0.012756348
1734712188580,2024-12-20T16:29:48.580Z,29907,-0.06695557,-0.10522461,0.006164551
1734712188588,2024-12-20T16:29:48.588Z,29915,-0.06085205,-0.103515625,-0.0012207031
1734712188596,2024-12-20T16:29:48.596Z,29923,-0.066467285,-0.101135254,3.0517578E-4
1734712188602,2024-12-20T16:29:48.602Z,29929,-0.0770874,-0.10321045,-0.012878418
1734712188608,2024-12-20T16:29:48.608Z,29935,-0.066711426,-0.10522461,1.8310547E-4
1734712188614,2024-12-20T16:29:48.614Z,29941,-0.061401367,-0.11468506,-0.0026855469
1734712188620,2024-12-20T16:29:48.620Z,29947,-0.048095703,-0.10882568,-0.0073242188
1734712188626,2024-12-20T16:29:48.626Z,29953,-0.06463623,-0.10290527,-7.324219E-4
1734712188634,2024-12-20T16:29:48.634Z,29961,-0.05621338,-0.1026001,-0.0012817383
1734712188641,2024-12-20T16:29:48.641Z,29968,-0.07165527,-0.095703125,-0.010498047
1734712188648,2024-12-20T16:29:48.648Z,29975,-0.054260254,-0.09399414,-0.021728516
1734712188655,2024-12-20T16:29:48.655Z,29982,-0.052001953,-0.09729004,0.0018310547
1734712188660,2024-12-20T16:29:48.660Z,29987,-0.062683105,-0.103393555,-0.0033569336
1734712188666,2024-12-20T16:29:48.666Z,29993,-0.053588867,-0.10089111,0.0014038086
1734712188672,2024-12-20T16:29:48.672Z,29999,-0.06341553,-0.103881836,0.0051879883
1734712188678,2024-12-20T16:29:48.678Z,30005,-0.07043457,-0.10498047,0.016174316
1734712188727,2024-12-20T16:29:48.727Z,30054,-0.06402588,-0.10290527,0.010253906
1734712188734,2024-12-20T16:29:48.734Z,30061,-0.056030273,-0.09051514,-0.008483887
1734712188740,2024-12-20T16:29:48.740Z,30067,-0.05029297,-0.099121094,-0.014282227
1734712188746,2024-12-20T16:29:48.746Z,30073,-0.05895996,-0.107543945,-0.0061035156
1734712188770,2024-12-20T16:29:48.770Z,30097,-0.055114746,-0.10998535,-0.003112793
1734712188776,2024-12-20T16:29:48.776Z,30103,-0.06011963,-0.105285645,-0.0021972656
1734712188783,2024-12-20T16:29:48.783Z,30110,-0.06097412,-0.119262695,0.015258789
1734712188790,2024-12-20T16:29:48.790Z,30117,-0.069885254,-0.1126709,0.012573242
1734712188797,2024-12-20T16:29:48.797Z,30124,-0.054748535,-0.10394287,0.0010986328
1734712188804,2024-12-20T16:29:48.804Z,30131,-0.066833496,-0.107788086,-0.003967285
1734712188819,2024-12-20T16:29:48.819Z,30146,-0.05102539,-0.11029053,-0.0060424805
1734712188826,2024-12-20T16:29:48.826Z,30153,-0.06359863,-0.107910156,0.00390625
1734712188862,2024-12-20T16:29:48.862Z,30189,-0.052001953,-0.11138916,0.0028076172
1734712188869,2024-12-20T16:29:48.869Z,30196,-0.053466797,-0.109313965,0.016113281
1734712188876,2024-12-20T16:29:48.876Z,30203,-0.06262207,-0.10882568,0.023376465
1734712188883,2024-12-20T16:29:48.883Z,30210,-0.056884766,-0.10925293,0.011169434
1734712188890,2024-12-20T16:29:48.890Z,30217,-0.070495605,-0.09954834,0.010314941
1734712188896,2024-12-20T16:29:48.896Z,30223,-0.05505371,-0.10595703,0.007385254
1734712188908,2024-12-20T16:29:48.908Z,30235,-0.04168701,-0.10247803,0.0036010742
1734712188916,2024-12-20T16:29:48.916Z,30243,-0.04119873,-0.10534668,0.008972168
1734712188923,2024-12-20T16:29:48.923Z,30250,-0.049621582,-0.10760498,0.010131836
1734712188929,2024-12-20T16:29:48.929Z,30256,-0.051208496,-0.10888672,0.014526367
1734712188936,2024-12-20T16:29:48.936Z,30263,-0.060546875,-0.111083984,0.020202637
1734712188952,2024-12-20T16:29:48.952Z,30279,-0.053649902,-0.11193848,0.022949219
1734712188956,2024-12-20T16:29:48.956Z,30283,-0.056152344,-0.111206055,0.022094727
1734712188996,2024-12-20T16:29:48.996Z,30323,-0.051330566,-0.10821533,0.008728027
1734712189042,2024-12-20T16:29:49.042Z,30369,-0.050231934,-0.107177734,0.008422852
1734712189050,2024-12-20T16:29:49.050Z,30377,-0.04486084,-0.117248535,0.012084961
1734712189059,2024-12-20T16:29:49.059Z,30386,-0.053222656,-0.11102295,0.008300781
1734712189067,2024-12-20T16:29:49.067Z,30394,-0.060424805,-0.116882324,0.017211914
1734712189089,2024-12-20T16:29:49.089Z,30416,-0.059020996,-0.12420654,0.030456543
1734712189096,2024-12-20T16:29:49.096Z,30423,-0.058532715,-0.113220215,0.02508545
1734712189107,2024-12-20T16:29:49.107Z,30434,-0.055908203,-0.115722656,0.016967773
1734712189131,2024-12-20T16:29:49.131Z,30458,-0.04663086,-0.110839844,0.009887695
1734712189140,2024-12-20T16:29:49.140Z,30467,-0.053527832,-0.11022949,0.010559082
1734712189182,2024-12-20T16:29:49.182Z,30509,-0.060546875,-0.11419678,0.0075683594
1734712189191,2024-12-20T16:29:49.191Z,30518,-0.05621338,-0.115722656,0.0099487305
1734712189195,2024-12-20T16:29:49.195Z,30522,-0.05230713,-0.119140625,0.024414062
1734712189198,2024-12-20T16:29:49.198Z,30525,-0.050231934,-0.10723877,0.00970459
1734712189207,2024-12-20T16:29:49.207Z,30534,-0.06530762,-0.111816406,0.012939453
1734712189215,2024-12-20T16:29:49.215Z,30542,-0.05847168,-0.113708496,0.0126953125
1734712189266,2024-12-20T16:29:49.266Z,30593,-0.057250977,-0.120910645,0.030517578
1734712189316,2024-12-20T16:29:49.316Z,30643,-0.06201172,-0.117126465,0.03387451
1734712189329,2024-12-20T16:29:49.329Z,30656,-0.053894043,-0.11907959,0.032165527
1734712189343,2024-12-20T16:29:49.343Z,30670,-0.057617188,-0.12023926,0.032592773
1734712189352,2024-12-20T16:29:49.352Z,30679,-0.050964355,-0.118774414,0.011657715
1734712189358,2024-12-20T16:29:49.358Z,30685,-0.070251465,-0.115600586,0.02319336
1734712189367,2024-12-20T16:29:49.367Z,30694,-0.0602417,-0.117370605,0.028320312
1734712189371,2024-12-20T16:29:49.371Z,30698,-0.059692383,-0.11578369,0.028137207
1734712189380,2024-12-20T16:29:49.380Z,30707,-0.062927246,-0.11517334,0.029724121
1734712189388,2024-12-20T16:29:49.388Z,30715,-0.06976318,-0.11395264,0.022155762
1734712189398,2024-12-20T16:29:49.398Z,30725,-0.058410645,-0.11730957,0.026306152
1734712189414,2024-12-20T16:29:49.414Z,30741,-0.06463623,-0.11584473,0.027526855
1734712189422,2024-12-20T16:29:49.422Z,30749,-0.064575195,-0.11004639,0.025634766
1734712189425,2024-12-20T16:29:49.425Z,30752,-0.062927246,-0.11425781,0.03338623
1734712189432,2024-12-20T16:29:49.432Z,30759,-0.064575195,-0.111450195,0.02722168
1734712189438,2024-12-20T16:29:49.438Z,30765,-0.06085205,-0.11212158,0.028137207
1734712189492,2024-12-20T16:29:49.492Z,30819,-0.058532715,-0.11230469,0.031188965
1734712189498,2024-12-20T16:29:49.498Z,30825,-0.05682373,-0.112854004,0.037475586
1734712189505,2024-12-20T16:29:49.505Z,30832,-0.05480957,-0.11022949,0.034973145
1734712189511,2024-12-20T16:29:49.511Z,30838,-0.062072754,-0.10595703,0.025878906
1734712189517,2024-12-20T16:29:49.517Z,30844,-0.05419922,-0.10510254,0.022521973
1734712189524,2024-12-20T16:29:49.524Z,30851,-0.05279541,-0.105773926,0.02331543
1734712189539,2024-12-20T16:29:49.539Z,30866,-0.05670166,-0.10839844,0.024414062
1734712189545,2024-12-20T16:29:49.545Z,30872,-0.057250977,-0.11224365,0.029174805
1734712189552,2024-12-20T16:29:49.552Z,30879,-0.05206299,-0.11413574,0.040222168
1734712189558,2024-12-20T16:29:49.558Z,30885,-0.057739258,-0.11291504,0.03955078
1734712189564,2024-12-20T16:29:49.564Z,30891,-0.05291748,-0.11291504,0.03564453
1734712189580,2024-12-20T16:29:49.580Z,30907,-0.058044434,-0.11010742,0.03503418
1734712189583,2024-12-20T16:29:49.583Z,30910,-0.04852295,-0.11260986,0.0368042
1734712189590,2024-12-20T16:29:49.590Z,30917,-0.051818848,-0.111450195,0.037475586
1734712189596,2024-12-20T16:29:49.596Z,30923,-0.05407715,-0.11077881,0.034973145
1734712189602,2024-12-20T16:29:49.602Z,30929,-0.052124023,-0.11071777,0.033447266
1734712189608,2024-12-20T16:29:49.608Z,30935,-0.055114746,-0.11193848,0.034118652
1734712189625,2024-12-20T16:29:49.625Z,30952,-0.055480957,-0.1126709,0.035095215
1734712189631,2024-12-20T16:29:49.631Z,30958,-0.05303955,-0.11230469,0.037231445
1734712189638,2024-12-20T16:29:49.638Z,30965,-0.05114746,-0.11431885,0.04119873
1734712189644,2024-12-20T16:29:49.644Z,30971,-0.049865723,-0.11413574,0.041992188
1734712189650,2024-12-20T16:29:49.650Z,30977,-0.055114746,-0.11187744,0.04345703
1734712189656,2024-12-20T16:29:49.656Z,30983,-0.05682373,-0.112976074,0.040222168
1734712189673,2024-12-20T16:29:49.673Z,31000,-0.05328369,-0.11230469,0.038269043
1734712189679,2024-12-20T16:29:49.679Z,31006,-0.055419922,-0.11138916,0.03955078
1734712189686,2024-12-20T16:29:49.686Z,31013,-0.05529785,-0.111083984,0.039245605
1734712189692,2024-12-20T16:29:49.692Z,31019,-0.05303955,-0.11029053,0.03753662
1734712189697,2024-12-20T16:29:49.697Z,31024,-0.053344727,-0.11151123,0.04107666
1734712189717,2024-12-20T16:29:49.717Z,31044,-0.050354004,-0.11236572,0.043273926
1734712189723,2024-12-20T16:29:49.723Z,31050,-0.053466797,-0.111694336,0.042785645
1734712189728,2024-12-20T16:29:49.728Z,31055,-0.05291748,-0.11126709,0.040100098
1734712189734,2024-12-20T16:29:49.734Z,31061,-0.051635742,-0.109375,0.037902832
1734712189740,2024-12-20T16:29:49.740Z,31067,-0.050354004,-0.109069824,0.040161133
1734712189745,2024-12-20T16:29:49.745Z,31072,-0.04925537,-0.1083374,0.03930664
1734712189763,2024-12-20T16:29:49.763Z,31090,-0.05053711,-0.10925293,0.04156494
1734712189770,2024-12-20T16:29:49.770Z,31097,-0.048828125,-0.10784912,0.04119873
1734712189776,2024-12-20T16:29:49.776Z,31103,-0.049072266,-0.10852051,0.04345703
1734712189781,2024-12-20T16:29:49.781Z,31108,-0.04650879,-0.10797119,0.040527344
1734712189788,2024-12-20T16:29:49.788Z,31115,-0.04437256,-0.10845947,0.04156494
1734712189805,2024-12-20T16:29:49.805Z,31132,-0.043029785,-0.10858154,0.04333496
1734712189858,2024-12-20T16:29:49.858Z,31185,-0.04547119,-0.10882568,0.04449463
1734712189865,2024-12-20T16:29:49.865Z,31192,-0.04449463,-0.10845947,0.040771484
1734712189871,2024-12-20T16:29:49.871Z,31198,-0.043151855,-0.10852051,0.03930664
1734712189877,2024-12-20T16:29:49.877Z,31204,-0.042541504,-0.11065674,0.041748047
1734712189900,2024-12-20T16:29:49.900Z,31227,-0.04272461,-0.112976074,0.04852295
1734712189911,2024-12-20T16:29:49.911Z,31238,-0.03894043,-0.11187744,0.045715332
1734712189918,2024-12-20T16:29:49.918Z,31245,-0.038391113,-0.11248779,0.04510498
1734712189926,2024-12-20T16:29:49.926Z,31253,-0.039916992,-0.113098145,0.045410156
1734712189933,2024-12-20T16:29:49.933Z,31260,-0.038330078,-0.112854004,0.043823242
1734712189940,2024-12-20T16:29:49.940Z,31267,-0.03717041,-0.112976074,0.043273926
1734712189948,2024-12-20T16:29:49.948Z,31275,-0.038757324,-0.11425781,0.04309082
1734712189955,2024-12-20T16:29:49.955Z,31282,-0.038208008,-0.11584473,0.04449463
1734712189961,2024-12-20T16:29:49.961Z,31288,-0.037597656,-0.116760254,0.04675293
1734712189967,2024-12-20T16:29:49.967Z,31294,-0.03881836,-0.117614746,0.04711914
1734712189974,2024-12-20T16:29:49.974Z,31301,-0.036621094,-0.11846924,0.048095703
1734712189989,2024-12-20T16:29:49.989Z,31316,-0.036132812,-0.11755371,0.047607422
1734712189995,2024-12-20T16:29:49.995Z,31322,-0.035827637,-0.116882324,0.045959473
1734712190001,2024-12-20T16:29:50.001Z,31328,-0.031555176,-0.11578369,0.041625977
1734712190007,2024-12-20T16:29:50.007Z,31334,-0.03265381,-0.11517334,0.0413208
1734712190012,2024-12-20T16:29:50.012Z,31339,-0.034851074,-0.114990234,0.043151855
1734712190077,2024-12-20T16:29:50.077Z,31404,-0.0335083,-0.115600586,0.046142578
1734712190082,2024-12-20T16:29:50.082Z,31409,-0.03100586,-0.11505127,0.046875
1734712190088,2024-12-20T16:29:50.088Z,31415,-0.030273438,-0.11395264,0.045898438
1734712190093,2024-12-20T16:29:50.093Z,31420,-0.031921387,-0.11425781,0.045288086
1734712190098,2024-12-20T16:29:50.098Z,31425,-0.032409668,-0.113342285,0.041931152
1734712190104,2024-12-20T16:29:50.104Z,31431,-0.031311035,-0.113098145,0.039978027
1734712190214,2024-12-20T16:29:50.214Z,31541,-0.032043457,-0.11340332,0.04425049
1734712190220,2024-12-20T16:29:50.220Z,31547,-0.026916504,-0.11340332,0.042114258
1734712190227,2024-12-20T16:29:50.227Z,31554,-0.026794434,-0.11328125,0.044006348
1734712190239,2024-12-20T16:29:50.239Z,31566,-0.029785156,-0.11279297,0.043518066
1734712190256,2024-12-20T16:29:50.256Z,31583,-0.030151367,-0.11254883,0.042907715
1734712190266,2024-12-20T16:29:50.266Z,31593,-0.032104492,-0.11193848,0.042053223
1734712190276,2024-12-20T16:29:50.276Z,31603,-0.031433105,-0.11236572,0.04284668
1734712190285,2024-12-20T16:29:50.285Z,31612,-0.0289917,-0.11230469,0.04248047
1734712190305,2024-12-20T16:29:50.305Z,31632,-0.030456543,-0.11206055,0.0423584
1734712190311,2024-12-20T16:29:50.311Z,31638,-0.030334473,-0.11236572,0.042236328
1734712190318,2024-12-20T16:29:50.318Z,31645,-0.029418945,-0.1116333,0.042419434
1734712190324,2024-12-20T16:29:50.324Z,31651,-0.030273438,-0.11151123,0.04144287
1734712190327,2024-12-20T16:29:50.327Z,31654,-0.031188965,-0.113586426,0.043884277
1734712190332,2024-12-20T16:29:50.332Z,31659,-0.031433105,-0.11303711,0.044067383
1734712190344,2024-12-20T16:29:50.344Z,31671,-0.030639648,-0.11352539,0.042785645
1734712190350,2024-12-20T16:29:50.350Z,31677,-0.03100586,-0.11364746,0.045532227
1734712190356,2024-12-20T16:29:50.356Z,31683,-0.03112793,-0.113342285,0.043884277
1734712190362,2024-12-20T16:29:50.362Z,31689,-0.030822754,-0.11444092,0.04534912
1734712190368,2024-12-20T16:29:50.368Z,31695,-0.030395508,-0.11419678,0.045166016
1734712190375,2024-12-20T16:29:50.375Z,31702,-0.029418945,-0.11395264,0.0435791
1734712190395,2024-12-20T16:29:50.395Z,31722,-0.03173828,-0.11456299,0.04724121
1734712190401,2024-12-20T16:29:50.401Z,31728,-0.029907227,-0.11584473,0.047851562
1734712190408,2024-12-20T16:29:50.408Z,31735,-0.033691406,-0.115356445,0.047729492
1734712190414,2024-12-20T16:29:50.414Z,31741,-0.03363037,-0.11639404,0.047668457
1734712190421,2024-12-20T16:29:50.421Z,31748,-0.034118652,-0.11706543,0.04901123
1734712190435,2024-12-20T16:29:50.435Z,31762,-0.03314209,-0.1171875,0.047973633
1734712190441,2024-12-20T16:29:50.441Z,31768,-0.035705566,-0.117492676,0.04748535
1734712190486,2024-12-20T16:29:50.486Z,31813,-0.034606934,-0.11828613,0.050354004
1734712190492,2024-12-20T16:29:50.492Z,31819,-0.035095215,-0.11773682,0.047912598
1734712190498,2024-12-20T16:29:50.498Z,31825,-0.036621094,-0.11730957,0.045898438
1734712190506,2024-12-20T16:29:50.506Z,31833,-0.03527832,-0.11755371,0.046203613
1734712190512,2024-12-20T16:29:50.512Z,31839,-0.036743164,-0.11767578,0.04699707
1734712190571,2024-12-20T16:29:50.571Z,31898,-0.03466797,-0.11932373,0.04827881
1734712190578,2024-12-20T16:29:50.578Z,31905,-0.036193848,-0.121154785,0.05419922
1734712190616,2024-12-20T16:29:50.616Z,31943,-0.035827637,-0.12097168,0.05090332
1734712190623,2024-12-20T16:29:50.623Z,31950,-0.03894043,-0.12182617,0.050720215
1734712190630,2024-12-20T16:29:50.630Z,31957,-0.03753662,-0.12121582,0.05090332
1734712190665,2024-12-20T16:29:50.665Z,31992,-0.036071777,-0.12005615,0.047058105
1734712190673,2024-12-20T16:29:50.673Z,32000,-0.036254883,-0.12023926,0.048950195
1734712190681,2024-12-20T16:29:50.681Z,32008,-0.035339355,-0.121032715,0.051513672
1734712190707,2024-12-20T16:29:50.707Z,32034,-0.03704834,-0.121398926,0.053588867
1734712190753,2024-12-20T16:29:50.753Z,32080,-0.035705566,-0.123291016,0.055541992
1734712190762,2024-12-20T16:29:50.762Z,32089,-0.036987305,-0.12084961,0.051879883
1734712190771,2024-12-20T16:29:50.771Z,32098,-0.037231445,-0.119628906,0.050842285
1734712190780,2024-12-20T16:29:50.780Z,32107,-0.03692627,-0.12011719,0.051208496
1734712190789,2024-12-20T16:29:50.789Z,32116,-0.03704834,-0.11993408,0.054748535
1734712190793,2024-12-20T16:29:50.793Z,32120,-0.041625977,-0.119506836,0.045654297
1734712190802,2024-12-20T16:29:50.802Z,32129,-0.041137695,-0.11932373,0.048828125
1734712190810,2024-12-20T16:29:50.810Z,32137,-0.042419434,-0.119628906,0.05126953
1734712190814,2024-12-20T16:29:50.814Z,32141,-0.042663574,-0.12194824,0.055114746
1734712190821,2024-12-20T16:29:50.821Z,32148,-0.047180176,-0.12298584,0.055541992
1734712190827,2024-12-20T16:29:50.827Z,32154,-0.042419434,-0.121520996,0.048217773
1734712190834,2024-12-20T16:29:50.834Z,32161,-0.0501709,-0.120910645,0.05114746
1734712190837,2024-12-20T16:29:50.837Z,32164,-0.0446167,-0.1217041,0.04522705
1734712190843,2024-12-20T16:29:50.843Z,32170,-0.043701172,-0.119140625,0.046875
1734712190849,2024-12-20T16:29:50.849Z,32176,-0.05126953,-0.11920166,0.051879883
1734712190855,2024-12-20T16:29:50.855Z,32182,-0.043701172,-0.11529541,0.04510498
1734712190860,2024-12-20T16:29:50.860Z,32187,-0.042663574,-0.11529541,0.04272461
1734712190865,2024-12-20T16:29:50.865Z,32192,-0.05847168,-0.11755371,0.04296875
1734712190932,2024-12-20T16:29:50.932Z,32259,-0.053588867,-0.11566162,0.042114258
1734712190937,2024-12-20T16:29:50.937Z,32264,-0.06201172,-0.11883545,0.055908203
1734712191022,2024-12-20T16:29:51.022Z,32349,-0.052734375,-0.115356445,0.05267334
1734712191030,2024-12-20T16:29:51.030Z,32357,-0.053710938,-0.11224365,0.04473877
1734712191037,2024-12-20T16:29:51.037Z,32364,-0.053833008,-0.11810303,0.05065918
1734712191044,2024-12-20T16:29:51.044Z,32371,-0.046936035,-0.11456299,0.041870117
1734712191051,2024-12-20T16:29:51.051Z,32378,-0.047058105,-0.11291504,0.027404785
1734712191059,2024-12-20T16:29:51.059Z,32386,-0.07879639,-0.1138916,0.02960205
1734712191070,2024-12-20T16:29:51.070Z,32397,-0.061828613,-0.11230469,0.031188965
1734712191078,2024-12-20T16:29:51.078Z,32405,-0.059020996,-0.11706543,0.039733887
1734712191085,2024-12-20T16:29:51.085Z,32412,-0.06652832,-0.119140625,0.046569824
1734712191094,2024-12-20T16:29:51.094Z,32421,-0.06561279,-0.11645508,0.045410156
1734712191098,2024-12-20T16:29:51.098Z,32425,-0.057617188,-0.1149292,0.040283203
1734712191105,2024-12-20T16:29:51.105Z,32432,-0.07489014,-0.11810303,0.028259277
1734712191114,2024-12-20T16:29:51.114Z,32441,-0.08129883,-0.10699463,0.015380859
1734712191160,2024-12-20T16:29:51.160Z,32487,-0.053894043,-0.10687256,0.0146484375
1734712191167,2024-12-20T16:29:51.167Z,32494,-0.07043457,-0.10498047,0.032226562
1734712191259,2024-12-20T16:29:51.259Z,32586,-0.068481445,-0.10406494,0.03656006
1734712191273,2024-12-20T16:29:51.273Z,32600,-0.062561035,-0.11090088,0.044921875
1734712191286,2024-12-20T16:29:51.286Z,32613,-0.07330322,-0.1048584,0.0446167
1734712191294,2024-12-20T16:29:51.294Z,32621,-0.07476807,-0.10119629,0.033935547
1734712191300,2024-12-20T16:29:51.300Z,32627,-0.074645996,-0.107421875,0.013244629
1734712191307,2024-12-20T16:29:51.307Z,32634,-0.08526611,-0.103393555,0.009643555
1734712191339,2024-12-20T16:29:51.339Z,32666,-0.054260254,-0.10217285,0.011962891
1734712191346,2024-12-20T16:29:51.346Z,32673,-0.06878662,-0.09832764,0.017211914
1734712191352,2024-12-20T16:29:51.352Z,32679,-0.07232666,-0.101867676,0.029907227
1734712191358,2024-12-20T16:29:51.358Z,32685,-0.07373047,-0.0960083,0.03186035
1734712191380,2024-12-20T16:29:51.380Z,32707,-0.07092285,-0.09832764,0.026428223
1734712191386,2024-12-20T16:29:51.386Z,32713,-0.07965088,-0.09313965,0.023010254
1734712191393,2024-12-20T16:29:51.393Z,32720,-0.08441162,-0.09460449,0.0119018555
1734712191399,2024-12-20T16:29:51.399Z,32726,-0.081848145,-0.094055176,0.0053100586
1734712191405,2024-12-20T16:29:51.405Z,32732,-0.05810547,-0.09490967,0.008300781
1734712191412,2024-12-20T16:29:51.412Z,32739,-0.05102539,-0.099853516,0.00579834
1734712191429,2024-12-20T16:29:51.429Z,32756,-0.07159424,-0.09777832,0.017028809
1734712191435,2024-12-20T16:29:51.435Z,32762,-0.0736084,-0.09387207,0.007446289
1734712191442,2024-12-20T16:29:51.442Z,32769,-0.07537842,-0.091796875,0.007019043
1734712191447,2024-12-20T16:29:51.447Z,32774,-0.06036377,-0.0881958,-0.0017700195
1734712191453,2024-12-20T16:29:51.453Z,32780,-0.052734375,-0.093566895,0.0045166016
1734712191470,2024-12-20T16:29:51.470Z,32797,-0.059143066,-0.097229004,0.015808105
1734712191562,2024-12-20T16:29:51.562Z,32889,-0.062561035,-0.09429932,0.013000488
1734712191608,2024-12-20T16:29:51.608Z,32935,-0.05871582,-0.09350586,0.015197754
1734712191617,2024-12-20T16:29:51.617Z,32944,-0.070495605,-0.094177246,-0.0025634766
1734712191625,2024-12-20T16:29:51.625Z,32952,-0.064453125,-0.09057617,0.0036621094
1734712191633,2024-12-20T16:29:51.633Z,32960,-0.053222656,-0.08886719,0.0065307617
1734712191700,2024-12-20T16:29:51.700Z,33027,-0.050354004,-0.093688965,0.0014038086
1734712191714,2024-12-20T16:29:51.714Z,33041,-0.04852295,-0.08880615,0.007080078
1734712191728,2024-12-20T16:29:51.728Z,33055,-0.05871582,-0.0881958,0.0068969727
1734712191739,2024-12-20T16:29:51.739Z,33066,-0.044067383,-0.0970459,0.008666992
1734712191748,2024-12-20T16:29:51.748Z,33075,-0.062683105,-0.08728027,0.0057373047
1734712191756,2024-12-20T16:29:51.756Z,33083,-0.07672119,-0.09765625,-0.0034179688
1734712191764,2024-12-20T16:29:51.764Z,33091,-0.045654297,-0.093933105,1.8310547E-4
1734712191768,2024-12-20T16:29:51.768Z,33095,-0.058654785,-0.09350586,-7.9345703E-4
1734712191789,2024-12-20T16:29:51.789Z,33116,-0.058532715,-0.10723877,0.0059814453
1734712191795,2024-12-20T16:29:51.795Z,33122,-0.06604004,-0.09503174,-0.0026855469
1734712191800,2024-12-20T16:29:51.800Z,33127,-0.0579834,-0.1005249,0.0048217773
1734712191807,2024-12-20T16:29:51.807Z,33134,-0.055847168,-0.1038208,0.004638672
1734712191813,2024-12-20T16:29:51.813Z,33140,-0.053710938,-0.1071167,0.0029296875
1734712191830,2024-12-20T16:29:51.830Z,33157,-0.054260254,-0.097961426,-2.4414062E-4
1734712191837,2024-12-20T16:29:51.837Z,33164,-0.06036377,-0.101379395,1.2207031E-4
1734712191843,2024-12-20T16:29:51.843Z,33170,-0.05822754,-0.10510254,0.0045776367
1734712191850,2024-12-20T16:29:51.850Z,33177,-0.057250977,-0.097351074,-0.007751465
1734712191855,2024-12-20T16:29:51.855Z,33182,-0.05895996,-0.1003418,-0.0048217773
1734712191861,2024-12-20T16:29:51.861Z,33188,-0.06329346,-0.10003662,-0.0020751953
1734712191878,2024-12-20T16:29:51.878Z,33205,-0.05645752,-0.10205078,-0.006958008
1734712191884,2024-12-20T16:29:51.884Z,33211,-0.06304932,-0.1026001,-0.006286621
1734712191923,2024-12-20T16:29:51.923Z,33250,-0.059326172,-0.10498047,0.0
1734712191929,2024-12-20T16:29:51.929Z,33256,-0.06109619,-0.10974121,0.0028686523
1734712191936,2024-12-20T16:29:51.936Z,33263,-0.06365967,-0.10247803,-0.011169434
1734712191943,2024-12-20T16:29:51.943Z,33270,-0.056030273,-0.09979248,-0.008972168
1734712191950,2024-12-20T16:29:51.950Z,33277,-0.059326172,-0.105529785,-7.324219E-4
1734712191956,2024-12-20T16:29:51.956Z,33283,-0.06982422,-0.101257324,-0.018432617
1734712192013,2024-12-20T16:29:52.013Z,33340,-0.05407715,-0.103271484,-0.00390625
1734712192020,2024-12-20T16:29:52.020Z,33347,-0.059692383,-0.111328125,0.001159668
1734712192027,2024-12-20T16:29:52.027Z,33354,-0.06518555,-0.1138916,0.001159668
1734712192033,2024-12-20T16:29:52.033Z,33360,-0.05645752,-0.11340332,0.0040893555
1734712192040,2024-12-20T16:29:52.040Z,33367,-0.056762695,-0.10620117,0.001159668
1734712192048,2024-12-20T16:29:52.048Z,33375,-0.057800293,-0.1003418,4.8828125E-4
1734712192060,2024-12-20T16:29:52.060Z,33387,-0.0725708,-0.103149414,-0.0076293945
1734712192100,2024-12-20T16:29:52.100Z,33427,-0.059631348,-0.09844971,-0.0079956055
1734712192108,2024-12-20T16:29:52.108Z,33435,-0.047424316,-0.09686279,-0.0063476562
1734712192248,2024-12-20T16:29:52.248Z,33575,-0.053955078,-0.10949707,-0.0018310547
1734712192261,2024-12-20T16:29:52.261Z,33588,-0.055541992,-0.10839844,0.0032348633
1734712192275,2024-12-20T16:29:52.275Z,33602,-0.04949951,-0.10253906,0.0028686523
1734712192280,2024-12-20T16:29:52.280Z,33607,-0.042907715,-0.09887695,-0.002319336
1734712192291,2024-12-20T16:29:52.291Z,33618,-0.07128906,-0.101745605,-0.007019043
1734712192302,2024-12-20T16:29:52.302Z,33629,-0.05493164,-0.11004639,0.0017700195
1734712192329,2024-12-20T16:29:52.329Z,33656,-0.057373047,-0.10681152,-0.0030517578
1734712192420,2024-12-20T16:29:52.420Z,33747,-0.056640625,-0.10864258,0.0030517578
1734712192463,2024-12-20T16:29:52.463Z,33790,-0.05609131,-0.10748291,0.008544922
1734712192527,2024-12-20T16:29:52.527Z,33854,-0.06518555,-0.105651855,0.0031738281
1734712192541,2024-12-20T16:29:52.541Z,33868,-0.05255127,-0.105529785,-0.0048828125
1734712192554,2024-12-20T16:29:52.554Z,33881,-0.055664062,-0.10797119,-0.0032348633
1734712192561,2024-12-20T16:29:52.561Z,33888,-0.055236816,-0.10827637,0.0014648438
1734712192577,2024-12-20T16:29:52.577Z,33904,-0.054382324,-0.10784912,-0.0016479492
1734712192591,2024-12-20T16:29:52.591Z,33918,-0.045288086,-0.107543945,-0.0017089844
1734712192605,2024-12-20T16:29:52.605Z,33932,-0.054260254,-0.10699463,-0.0056152344
1734712192615,2024-12-20T16:29:52.615Z,33942,-0.04925537,-0.113342285,4.272461E-4
1734712192622,2024-12-20T16:29:52.622Z,33949,-0.052001953,-0.11444092,0.0012817383
1734712192626,2024-12-20T16:29:52.626Z,33953,-0.04711914,-0.116760254,0.0049438477
1734712192634,2024-12-20T16:29:52.634Z,33961,-0.045043945,-0.113098145,-0.003112793
1734712192637,2024-12-20T16:29:52.637Z,33964,-0.041809082,-0.10870361,0.0049438477
1734712192740,2024-12-20T16:29:52.740Z,34067,-0.044799805,-0.11376953,0.004211426
1734712192748,2024-12-20T16:29:52.748Z,34075,-0.050476074,-0.113586426,0.0099487305
1734712192763,2024-12-20T16:29:52.763Z,34090,-0.051818848,-0.11254883,0.0057373047
1734712192833,2024-12-20T16:29:52.833Z,34160,-0.05328369,-0.11102295,0.0032348633
1734712192847,2024-12-20T16:29:52.847Z,34174,-0.053649902,-0.111572266,0.00390625
1734712192862,2024-12-20T16:29:52.862Z,34189,-0.04663086,-0.11401367,0.001953125
1734712192877,2024-12-20T16:29:52.877Z,34204,-0.0423584,-0.1126709,0.009643555
1734712192891,2024-12-20T16:29:52.891Z,34218,-0.047851562,-0.11303711,0.008178711
1734712192902,2024-12-20T16:29:52.902Z,34229,-0.051574707,-0.1126709,0.008422852
1734712192910,2024-12-20T16:29:52.910Z,34237,-0.046875,-0.109802246,0.013122559
1734712192918,2024-12-20T16:29:52.918Z,34245,-0.0513916,-0.10784912,0.008422852
1734712192925,2024-12-20T16:29:52.925Z,34252,-0.05340576,-0.11126709,0.008178711
1734712192956,2024-12-20T16:29:52.956Z,34283,-0.042297363,-0.10986328,0.010009766
1734712192964,2024-12-20T16:29:52.964Z,34291,-0.045959473,-0.11212158,0.013977051
1734712192971,2024-12-20T16:29:52.971Z,34298,-0.045288086,-0.10949707,0.013366699
1734712192975,2024-12-20T16:29:52.975Z,34302,-0.039367676,-0.10839844,0.014770508
1734712192983,2024-12-20T16:29:52.983Z,34310,-0.04156494,-0.10534668,0.013427734
1734712192990,2024-12-20T16:29:52.990Z,34317,-0.04144287,-0.10296631,0.010375977
1734712193001,2024-12-20T16:29:53.001Z,34328,-0.045837402,-0.10046387,-0.004638672
1734712193046,2024-12-20T16:29:53.046Z,34373,-0.04058838,-0.106933594,0.0037841797
1734712193054,2024-12-20T16:29:53.054Z,34381,-0.04699707,-0.10723877,0.0029296875
1734712193061,2024-12-20T16:29:53.061Z,34388,-0.04321289,-0.10217285,0.0038452148
1734712193069,2024-12-20T16:29:53.069Z,34396,-0.037963867,-0.10784912,0.009033203
1734712193077,2024-12-20T16:29:53.077Z,34404,-0.043945312,-0.10626221,0.007385254
1734712193085,2024-12-20T16:29:53.085Z,34412,-0.041870117,-0.10180664,0.0032348633
1734712193143,2024-12-20T16:29:53.143Z,34470,-0.050109863,-0.10491943,0.009033203
1734712193154,2024-12-20T16:29:53.154Z,34481,-0.043884277,-0.10620117,0.009155273
1734712193162,2024-12-20T16:29:53.162Z,34489,-0.043151855,-0.09820557,-0.0021362305
1734712193171,2024-12-20T16:29:53.171Z,34498,-0.06524658,-0.101257324,-0.015563965
1734712193179,2024-12-20T16:29:53.179Z,34506,-0.039489746,-0.11303711,0.0060424805
1734712193188,2024-12-20T16:29:53.188Z,34515,-0.04949951,-0.11212158,-1.8310547E-4
1734712193192,2024-12-20T16:29:53.192Z,34519,-0.04473877,-0.111816406,3.6621094E-4
1734712193200,2024-12-20T16:29:53.200Z,34527,-0.046203613,-0.10614014,-0.007446289
1734712193228,2024-12-20T16:29:53.228Z,34555,-0.053649902,-0.10357666,-0.0029296875
1734712193235,2024-12-20T16:29:53.235Z,34562,-0.06213379,-0.1126709,-0.0068359375
1734712193243,2024-12-20T16:29:53.243Z,34570,-0.046569824,-0.11254883,0.0017089844
1734712193250,2024-12-20T16:29:53.250Z,34577,-0.049865723,-0.111083984,0.0037231445
1734712193253,2024-12-20T16:29:53.253Z,34580,-0.064331055,-0.1171875,0.008300781
1734712193261,2024-12-20T16:29:53.261Z,34588,-0.05883789,-0.11315918,7.324219E-4
1734712193317,2024-12-20T16:29:53.317Z,34644,-0.046142578,-0.11077881,-0.005126953
1734712193325,2024-12-20T16:29:53.325Z,34652,-0.051574707,-0.10876465,-0.0029907227
1734712193332,2024-12-20T16:29:53.332Z,34659,-0.049987793,-0.11053467,-0.009277344
1734712193339,2024-12-20T16:29:53.339Z,34666,-0.047851562,-0.10235596,-0.015380859
1734712193464,2024-12-20T16:29:53.464Z,34791,-0.06341553,-0.10473633,-0.0010986328
1734712193478,2024-12-20T16:29:53.478Z,34805,-0.060058594,-0.113098145,0.004638672
1734712193485,2024-12-20T16:29:53.485Z,34812,-0.055664062,-0.10345459,0.0013427734
1734712193496,2024-12-20T16:29:53.496Z,34823,-0.057922363,-0.10687256,0.0072631836
1734712193505,2024-12-20T16:29:53.505Z,34832,-0.059753418,-0.098083496,-0.0021362305
1734712193546,2024-12-20T16:29:53.546Z,34873,-0.06549072,-0.09686279,-6.1035156E-4
1734712193559,2024-12-20T16:29:53.559Z,34886,-0.055603027,-0.10461426,0.0012817383
1734712193571,2024-12-20T16:29:53.571Z,34898,-0.047912598,-0.10473633,6.713867E-4
1734712193580,2024-12-20T16:29:53.580Z,34907,-0.050964355,-0.101257324,-0.010009766
1734712193585,2024-12-20T16:29:53.585Z,34912,-0.05432129,-0.10858154,0.007751465
1734712193593,2024-12-20T16:29:53.593Z,34920,-0.07354736,-0.1048584,0.015686035
1734712193600,2024-12-20T16:29:53.600Z,34927,-0.057128906,-0.109802246,0.00592041
1734712193607,2024-12-20T16:29:53.607Z,34934,-0.059631348,-0.101135254,0.009765625
1734712193615,2024-12-20T16:29:53.615Z,34942,-0.063964844,-0.111083984,0.02178955
1734712193623,2024-12-20T16:29:53.623Z,34950,-0.07702637,-0.10650635,0.01977539
1734712193630,2024-12-20T16:29:53.630Z,34957,-0.080200195,-0.103881836,0.011657715
1734712193645,2024-12-20T16:29:53.645Z,34972,-0.06329346,-0.101989746,0.016052246
1734712193652,2024-12-20T16:29:53.652Z,34979,-0.070739746,-0.10131836,0.018127441
1734712193658,2024-12-20T16:29:53.658Z,34985,-0.0715332,-0.11206055,0.027770996
1734712193664,2024-12-20T16:29:53.664Z,34991,-0.064331055,-0.1071167,0.014892578
1734712193670,2024-12-20T16:29:53.670Z,34997,-0.056640625,-0.09906006,0.0119018555
1734712193675,2024-12-20T16:29:53.675Z,35002,-0.05444336,-0.10632324,-0.004760742
1734712193680,2024-12-20T16:29:53.680Z,35007,-0.05432129,-0.1026001,0.0018310547
1734712193685,2024-12-20T16:29:53.685Z,35012,-0.066711426,-0.107666016,0.0072631836
1734712193691,2024-12-20T16:29:53.691Z,35018,-0.062316895,-0.10961914,0.009765625
1734712193696,2024-12-20T16:29:53.696Z,35023,-0.07861328,-0.1083374,0.019042969
1734712193701,2024-12-20T16:29:53.701Z,35028,-0.06817627,-0.10662842,0.005493164
1734712193707,2024-12-20T16:29:53.707Z,35034,-0.057861328,-0.10369873,0.0031738281
1734712193722,2024-12-20T16:29:53.722Z,35049,-0.064697266,-0.107910156,0.013000488
1734712193727,2024-12-20T16:29:53.727Z,35054,-0.05529785,-0.111083984,-6.1035156E-4
1734712193733,2024-12-20T16:29:53.733Z,35060,-0.058410645,-0.10925293,0.008300781
1734712193738,2024-12-20T16:29:53.738Z,35065,-0.07281494,-0.10479736,0.007019043
1734712193744,2024-12-20T16:29:53.744Z,35071,-0.07098389,-0.10583496,0.003967285
1734712193766,2024-12-20T16:29:53.766Z,35093,-0.05517578,-0.10461426,0.010620117
1734712193771,2024-12-20T16:29:53.771Z,35098,-0.06976318,-0.10217285,0.0028686523
1734712193811,2024-12-20T16:29:53.811Z,35138,-0.0501709,-0.10675049,-0.007873535
1734712193818,2024-12-20T16:29:53.818Z,35145,-0.06677246,-0.112854004,0.018676758
1734712193824,2024-12-20T16:29:53.824Z,35151,-0.0690918,-0.1104126,0.021606445
1734712193831,2024-12-20T16:29:53.831Z,35158,-0.064208984,-0.10992432,0.01940918
1734712193839,2024-12-20T16:29:53.839Z,35166,-0.07446289,-0.107299805,0.0119018555
1734712193846,2024-12-20T16:29:53.846Z,35173,-0.059631348,-0.10131836,0.0028076172
1734712193908,2024-12-20T16:29:53.908Z,35235,-0.06329346,-0.10650635,0.0028686523
1734712194044,2024-12-20T16:29:54.044Z,35371,-0.05505371,-0.100097656,-0.0029296875
1734712194060,2024-12-20T16:29:54.060Z,35387,-0.044189453,-0.10888672,0.010681152
1734712194074,2024-12-20T16:29:54.074Z,35401,-0.0715332,-0.10290527,0.014221191
1734712194086,2024-12-20T16:29:54.086Z,35413,-0.056640625,-0.10748291,0.021057129
1734712194099,2024-12-20T16:29:54.099Z,35426,-0.0690918,-0.111328125,0.030212402
1734712194110,2024-12-20T16:29:54.110Z,35437,-0.072021484,-0.09851074,0.010864258
1734712194122,2024-12-20T16:29:54.122Z,35449,-0.06323242,-0.10168457,0.012451172
1734712194130,2024-12-20T16:29:54.130Z,35457,-0.06896973,-0.103027344,0.010375977
1734712194138,2024-12-20T16:29:54.138Z,35465,-0.05895996,-0.10064697,-0.0014038086
1734712194145,2024-12-20T16:29:54.145Z,35472,-0.043395996,-0.11077881,0.011291504
1734712194153,2024-12-20T16:29:54.153Z,35480,-0.068481445,-0.10986328,0.017944336
1734712194160,2024-12-20T16:29:54.160Z,35487,-0.051513672,-0.105529785,0.007751465
1734712194170,2024-12-20T16:29:54.170Z,35497,-0.05419922,-0.11151123,0.010803223
1734712194221,2024-12-20T16:29:54.221Z,35548,-0.064575195,-0.11029053,0.010375977
1734712194228,2024-12-20T16:29:54.228Z,35555,-0.05834961,-0.109558105,0.015075684
1734712194235,2024-12-20T16:29:54.235Z,35562,-0.058654785,-0.11706543,0.030883789
1734712194241,2024-12-20T16:29:54.241Z,35568,-0.06304932,-0.11212158,0.021972656
1734712194249,2024-12-20T16:29:54.249Z,35576,-0.057250977,-0.10876465,0.012023926
1734712194262,2024-12-20T16:29:54.262Z,35589,-0.060791016,-0.1081543,0.011962891
1734712194270,2024-12-20T16:29:54.270Z,35597,-0.057006836,-0.1105957,0.013916016
1734712194277,2024-12-20T16:29:54.277Z,35604,-0.05505371,-0.10858154,0.01171875
1734712194285,2024-12-20T16:29:54.285Z,35612,-0.06555176,-0.112976074,0.012573242
1734712194354,2024-12-20T16:29:54.354Z,35681,-0.05895996,-0.11755371,0.01763916
1734712194368,2024-12-20T16:29:54.368Z,35695,-0.059509277,-0.11541748,0.022155762
1734712194374,2024-12-20T16:29:54.374Z,35701,-0.049926758,-0.11102295,0.01953125
1734712194381,2024-12-20T16:29:54.381Z,35708,-0.0625,-0.11151123,0.018066406
1734712194395,2024-12-20T16:29:54.395Z,35722,-0.05657959,-0.117370605,0.018493652
1734712194404,2024-12-20T16:29:54.404Z,35731,-0.056762695,-0.11456299,0.026672363
1734712194413,2024-12-20T16:29:54.413Z,35740,-0.05731201,-0.115356445,0.03186035
1734712194422,2024-12-20T16:29:54.422Z,35749,-0.055847168,-0.113708496,0.024047852
1734712194430,2024-12-20T16:29:54.430Z,35757,-0.062316895,-0.11419678,0.016540527
1734712194438,2024-12-20T16:29:54.438Z,35765,-0.059692383,-0.1138916,0.012207031
1734712194446,2024-12-20T16:29:54.446Z,35773,-0.053894043,-0.11608887,0.012084961
1734712194532,2024-12-20T16:29:54.532Z,35859,-0.060668945,-0.119506836,0.020019531
1734712194540,2024-12-20T16:29:54.540Z,35867,-0.0569458,-0.12011719,0.026916504
1734712194543,2024-12-20T16:29:54.543Z,35870,-0.059692383,-0.11669922,0.017944336
1734712194550,2024-12-20T16:29:54.550Z,35877,-0.06439209,-0.11621094,0.016357422
1734712194557,2024-12-20T16:29:54.557Z,35884,-0.059326172,-0.118896484,0.018676758
1734712194564,2024-12-20T16:29:54.564Z,35891,-0.055786133,-0.11834717,0.027282715
1734712194576,2024-12-20T16:29:54.576Z,35903,-0.056640625,-0.11645508,0.028076172
1734712194583,2024-12-20T16:29:54.583Z,35910,-0.058166504,-0.115722656,0.035949707
1734712194666,2024-12-20T16:29:54.666Z,35993,-0.059936523,-0.11193848,0.026916504
1734712194673,2024-12-20T16:29:54.673Z,36000,-0.05895996,-0.111206055,0.014160156
1734712194680,2024-12-20T16:29:54.680Z,36007,-0.057434082,-0.11303711,0.01953125
1734712194686,2024-12-20T16:29:54.686Z,36013,-0.056762695,-0.111816406,0.023803711
1734712194717,2024-12-20T16:29:54.717Z,36044,-0.061523438,-0.110961914,0.024658203
1734712194725,2024-12-20T16:29:54.725Z,36052,-0.060302734,-0.11260986,0.029052734
1734712194734,2024-12-20T16:29:54.734Z,36061,-0.057800293,-0.11273193,0.028442383
1734712194742,2024-12-20T16:29:54.742Z,36069,-0.05895996,-0.115112305,0.034423828
1734712194750,2024-12-20T16:29:54.750Z,36077,-0.060913086,-0.117004395,0.042114258
1734712194760,2024-12-20T16:29:54.760Z,36087,-0.05645752,-0.11419678,0.03302002
1734712194768,2024-12-20T16:29:54.768Z,36095,-0.055541992,-0.11218262,0.025024414
1734712194775,2024-12-20T16:29:54.775Z,36102,-0.05908203,-0.11364746,0.032043457
1734712194782,2024-12-20T16:29:54.782Z,36109,-0.055480957,-0.11315918,0.026977539
1734712194788,2024-12-20T16:29:54.788Z,36115,-0.053649902,-0.11114502,0.025756836
1734712194800,2024-12-20T16:29:54.800Z,36127,-0.054016113,-0.11236572,0.027404785
1734712194805,2024-12-20T16:29:54.805Z,36132,-0.055603027,-0.11254883,0.030395508
1734712194811,2024-12-20T16:29:54.811Z,36138,-0.05444336,-0.1138916,0.03375244
1734712194816,2024-12-20T16:29:54.816Z,36143,-0.05090332,-0.112854004,0.028869629
1734712194822,2024-12-20T16:29:54.822Z,36149,-0.05493164,-0.11193848,0.031433105
1734712194846,2024-12-20T16:29:54.846Z,36173,-0.055541992,-0.11254883,0.03112793
1734712194852,2024-12-20T16:29:54.852Z,36179,-0.052856445,-0.11230469,0.024414062
1734712194857,2024-12-20T16:29:54.857Z,36184,-0.054260254,-0.11340332,0.028442383
1734712194863,2024-12-20T16:29:54.863Z,36190,-0.054626465,-0.11413574,0.030883789
1734712194891,2024-12-20T16:29:54.891Z,36218,-0.053710938,-0.11480713,0.033569336
1734712194936,2024-12-20T16:29:54.936Z,36263,-0.05126953,-0.11437988,0.033935547
1734712194943,2024-12-20T16:29:54.943Z,36270,-0.052368164,-0.112976074,0.030517578
1734712194951,2024-12-20T16:29:54.951Z,36278,-0.05505371,-0.11279297,0.033203125
1734712194960,2024-12-20T16:29:54.960Z,36287,-0.053344727,-0.11151123,0.030517578
1734712194968,2024-12-20T16:29:54.968Z,36295,-0.05114746,-0.11212158,0.030212402
1734712194976,2024-12-20T16:29:54.976Z,36303,-0.05267334,-0.11138916,0.027893066
1734712194985,2024-12-20T16:29:54.985Z,36312,-0.051086426,-0.111206055,0.027709961
1734712194992,2024-12-20T16:29:54.992Z,36319,-0.05078125,-0.11199951,0.031188965
1734712194999,2024-12-20T16:29:54.999Z,36326,-0.050842285,-0.11248779,0.03466797
1734712195007,2024-12-20T16:29:55.007Z,36334,-0.047302246,-0.109802246,0.031921387
1734712195013,2024-12-20T16:29:55.013Z,36340,-0.04748535,-0.10882568,0.030151367
1734712195072,2024-12-20T16:29:55.072Z,36399,-0.047912598,-0.10760498,0.026000977
1734712195212,2024-12-20T16:29:55.212Z,36539,-0.04840088,-0.107788086,0.02709961
1734712195254,2024-12-20T16:29:55.254Z,36581,-0.045837402,-0.10888672,0.029846191
1734712195347,2024-12-20T16:29:55.347Z,36674,-0.04638672,-0.10900879,0.03137207
1734712195400,2024-12-20T16:29:55.400Z,36727,-0.048217773,-0.109436035,0.032409668
1734712195419,2024-12-20T16:29:55.419Z,36746,-0.047851562,-0.110961914,0.031433105
1734712195432,2024-12-20T16:29:55.432Z,36759,-0.046203613,-0.11114502,0.032104492
1734712195446,2024-12-20T16:29:55.446Z,36773,-0.045837402,-0.1104126,0.030334473
1734712195456,2024-12-20T16:29:55.456Z,36783,-0.044677734,-0.111450195,0.032043457
1734712195465,2024-12-20T16:29:55.465Z,36792,-0.04473877,-0.10998535,0.028015137
1734712195474,2024-12-20T16:29:55.474Z,36801,-0.045410156,-0.11071777,0.028259277
1734712195483,2024-12-20T16:29:55.483Z,36810,-0.043701172,-0.11138916,0.030883789
1734712195486,2024-12-20T16:29:55.486Z,36813,-0.043395996,-0.11218262,0.032165527
1734712195494,2024-12-20T16:29:55.494Z,36821,-0.03869629,-0.1161499,0.03930664
1734712195498,2024-12-20T16:29:55.498Z,36825,-0.034118652,-0.1159668,0.0368042
1734712195504,2024-12-20T16:29:55.504Z,36831,-0.032287598,-0.11517334,0.034362793
1734712195507,2024-12-20T16:29:55.507Z,36834,-0.03100586,-0.11694336,0.042419434
1734712195514,2024-12-20T16:29:55.514Z,36841,-0.028747559,-0.117004395,0.04071045
1734712195521,2024-12-20T16:29:55.521Z,36848,-0.028564453,-0.11663818,0.039245605
1734712195526,2024-12-20T16:29:55.526Z,36853,-0.026000977,-0.11816406,0.041870117
1734712195532,2024-12-20T16:29:55.532Z,36859,-0.028625488,-0.1182251,0.041809082
1734712195538,2024-12-20T16:29:55.538Z,36865,-0.02960205,-0.11883545,0.041748047
1734712195543,2024-12-20T16:29:55.543Z,36870,-0.027526855,-0.11846924,0.041625977
1734712195549,2024-12-20T16:29:55.549Z,36876,-0.028137207,-0.12017822,0.04260254
1734712195568,2024-12-20T16:29:55.568Z,36895,-0.030273438,-0.12017822,0.0423584
1734712195655,2024-12-20T16:29:55.655Z,36982,-0.028625488,-0.12023926,0.04119873
1734712195662,2024-12-20T16:29:55.662Z,36989,-0.026428223,-0.11999512,0.03918457
1734712195668,2024-12-20T16:29:55.668Z,36995,-0.02935791,-0.12200928,0.041870117
1734712195674,2024-12-20T16:29:55.674Z,37001,-0.030090332,-0.12298584,0.044555664
1734712195701,2024-12-20T16:29:55.701Z,37028,-0.029296875,-0.12286377,0.041503906
1734712195705,2024-12-20T16:29:55.705Z,37032,-0.030700684,-0.1239624,0.04260254
1734712195712,2024-12-20T16:29:55.712Z,37039,-0.031311035,-0.12530518,0.04260254
1734712195721,2024-12-20T16:29:55.721Z,37048,-0.03363037,-0.12597656,0.044311523
1734712195729,2024-12-20T16:29:55.729Z,37056,-0.034179688,-0.12701416,0.043395996
1734712195743,2024-12-20T16:29:55.743Z,37070,-0.028137207,-0.12713623,0.0413208
1734712195752,2024-12-20T16:29:55.752Z,37079,-0.03302002,-0.12786865,0.04663086
1734712195795,2024-12-20T16:29:55.795Z,37122,-0.036621094,-0.12878418,0.046447754
1734712195803,2024-12-20T16:29:55.803Z,37130,-0.039733887,-0.13098145,0.05078125
1734712195810,2024-12-20T16:29:55.810Z,37137,-0.043884277,-0.13031006,0.045043945
1734712195817,2024-12-20T16:29:55.817Z,37144,-0.038879395,-0.12750244,0.04144287
1734712195824,2024-12-20T16:29:55.824Z,37151,-0.042907715,-0.1272583,0.047668457
1734712195836,2024-12-20T16:29:55.836Z,37163,-0.04309082,-0.12567139,0.04071045
1734712195841,2024-12-20T16:29:55.841Z,37168,-0.041259766,-0.1260376,0.042053223
1734712195849,2024-12-20T16:29:55.849Z,37176,-0.0446167,-0.12695312,0.043945312
1734712195855,2024-12-20T16:29:55.855Z,37182,-0.049560547,-0.1270752,0.0435791
1734712195860,2024-12-20T16:29:55.860Z,37187,-0.047607422,-0.12689209,0.040100098
1734712195886,2024-12-20T16:29:55.886Z,37213,-0.046203613,-0.1295166,0.04736328
1734712195933,2024-12-20T16:29:55.933Z,37260,-0.054870605,-0.122924805,0.03314209
1734712195940,2024-12-20T16:29:55.940Z,37267,-0.05456543,-0.12628174,0.04248047
1734712195947,2024-12-20T16:29:55.947Z,37274,-0.044677734,-0.124938965,0.036499023
1734712195954,2024-12-20T16:29:55.954Z,37281,-0.05218506,-0.12701416,0.04650879
1734712195961,2024-12-20T16:29:55.961Z,37288,-0.05529785,-0.12762451,0.051452637
1734712195970,2024-12-20T16:29:55.970Z,37297,-0.050109863,-0.12536621,0.042907715
1734712195976,2024-12-20T16:29:55.976Z,37303,-0.051330566,-0.122558594,0.03845215
1734712195983,2024-12-20T16:29:55.983Z,37310,-0.060668945,-0.12023926,0.037475586
1734712195990,2024-12-20T16:29:55.990Z,37317,-0.05517578,-0.11846924,0.023376465
1734712195996,2024-12-20T16:29:55.996Z,37323,-0.058288574,-0.11816406,0.032409668
1734712196018,2024-12-20T16:29:56.018Z,37345,-0.059631348,-0.12219238,0.04864502
1734712196024,2024-12-20T16:29:56.024Z,37351,-0.057739258,-0.116882324,0.041748047
1734712196030,2024-12-20T16:29:56.030Z,37357,-0.06414795,-0.10961914,0.022827148
1734712196036,2024-12-20T16:29:56.036Z,37363,-0.058410645,-0.1149292,0.026489258
1734712196042,2024-12-20T16:29:56.042Z,37369,-0.06939697,-0.11395264,0.029968262
1734712196063,2024-12-20T16:29:56.063Z,37390,-0.06365967,-0.11779785,0.03552246
1734712196069,2024-12-20T16:29:56.069Z,37396,-0.066589355,-0.119018555,0.044799805
1734712196074,2024-12-20T16:29:56.074Z,37401,-0.061584473,-0.11480713,0.04284668
1734712196079,2024-12-20T16:29:56.079Z,37406,-0.06689453,-0.113586426,0.042785645
1734712196085,2024-12-20T16:29:56.085Z,37412,-0.070251465,-0.11151123,0.035095215
1734712196152,2024-12-20T16:29:56.152Z,37479,-0.07421875,-0.11029053,0.023742676
1734712196158,2024-12-20T16:29:56.158Z,37485,-0.070251465,-0.11584473,0.02758789
1734712196163,2024-12-20T16:29:56.163Z,37490,-0.065979004,-0.10821533,0.017211914
1734712196168,2024-12-20T16:29:56.168Z,37495,-0.062194824,-0.111572266,0.028442383
1734712196200,2024-12-20T16:29:56.200Z,37527,-0.06994629,-0.11077881,0.034484863
1734712196207,2024-12-20T16:29:56.207Z,37534,-0.06945801,-0.10809326,0.039611816
1734712196215,2024-12-20T16:29:56.215Z,37542,-0.074401855,-0.10797119,0.03717041
1734712196222,2024-12-20T16:29:56.222Z,37549,-0.0715332,-0.105773926,0.029907227
1734712196229,2024-12-20T16:29:56.229Z,37556,-0.076538086,-0.10809326,0.030761719
1734712196240,2024-12-20T16:29:56.240Z,37567,-0.07519531,-0.10272217,0.008056641
1734712196246,2024-12-20T16:29:56.246Z,37573,-0.070617676,-0.10437012,0.013671875
1734712196286,2024-12-20T16:29:56.286Z,37613,-0.06695557,-0.10491943,0.012329102
1734712196289,2024-12-20T16:29:56.289Z,37616,-0.07727051,-0.10333252,0.041809082
1734712196296,2024-12-20T16:29:56.296Z,37623,-0.08343506,-0.10180664,0.03515625
1734712196303,2024-12-20T16:29:56.303Z,37630,-0.08087158,-0.09814453,0.026550293
1734712196310,2024-12-20T16:29:56.310Z,37637,-0.074157715,-0.10223389,0.0020141602
1734712196314,2024-12-20T16:29:56.314Z,37641,-0.052368164,-0.10534668,-0.0010986328
1734712196321,2024-12-20T16:29:56.321Z,37648,-0.06414795,-0.1003418,0.013977051
1734712196333,2024-12-20T16:29:56.333Z,37660,-0.0770874,-0.103759766,0.022644043
1734712196340,2024-12-20T16:29:56.340Z,37667,-0.0657959,-0.10290527,0.028686523
1734712196346,2024-12-20T16:29:56.346Z,37673,-0.07659912,-0.09820557,0.027954102
1734712196352,2024-12-20T16:29:56.352Z,37679,-0.07366943,-0.095825195,0.026367188
1734712196357,2024-12-20T16:29:56.357Z,37684,-0.08117676,-0.09094238,0.0032958984
1734712196375,2024-12-20T16:29:56.375Z,37702,-0.06640625,-0.09729004,4.8828125E-4
1734712196378,2024-12-20T16:29:56.378Z,37705,-0.061767578,-0.1003418,0.011413574
1734712196384,2024-12-20T16:29:56.384Z,37711,-0.06854248,-0.10253906,0.015991211
1734712196389,2024-12-20T16:29:56.389Z,37716,-0.06921387,-0.09832764,0.023010254
1734712196394,2024-12-20T16:29:56.394Z,37721,-0.06402588,-0.100097656,0.024475098
1734712196400,2024-12-20T16:29:56.400Z,37727,-0.062072754,-0.09362793,0.015380859
1734712196420,2024-12-20T16:29:56.420Z,37747,-0.07495117,-0.09063721,-0.0018920898
1734712196515,2024-12-20T16:29:56.515Z,37842,-0.06384277,-0.09350586,-0.005432129
1734712196556,2024-12-20T16:29:56.556Z,37883,-0.053894043,-0.09655762,0.011047363
1734712196564,2024-12-20T16:29:56.564Z,37891,-0.06048584,-0.09844971,0.01574707
1734712196573,2024-12-20T16:29:56.573Z,37900,-0.059265137,-0.097351074,0.014404297
1734712196581,2024-12-20T16:29:56.581Z,37908,-0.059020996,-0.09442139,0.022460938
1734712196591,2024-12-20T16:29:56.591Z,37918,-0.05718994,-0.09399414,0.026306152
1734712196599,2024-12-20T16:29:56.599Z,37926,-0.070007324,-0.0848999,-0.0076904297
1734712196608,2024-12-20T16:29:56.608Z,37935,-0.052246094,-0.08850098,-0.0034179688
1734712196621,2024-12-20T16:29:56.621Z,37948,-0.057495117,-0.09515381,0.0065307617
1734712196626,2024-12-20T16:29:56.626Z,37953,-0.06213379,-0.09112549,0.0036010742
1734712196632,2024-12-20T16:29:56.632Z,37959,-0.058898926,-0.09692383,0.0079956055
1734712196638,2024-12-20T16:29:56.638Z,37965,-0.0637207,-0.09259033,0.0020751953
1734712196692,2024-12-20T16:29:56.692Z,38019,-0.05871582,-0.09436035,0.0052490234
1734712196695,2024-12-20T16:29:56.695Z,38022,-0.06109619,-0.09527588,0.016357422
1734712196703,2024-12-20T16:29:56.703Z,38030,-0.06347656,-0.0947876,0.007080078
1734712196711,2024-12-20T16:29:56.711Z,38038,-0.059814453,-0.09173584,0.00390625
1734712196718,2024-12-20T16:29:56.718Z,38045,-0.05731201,-0.097595215,0.0036010742
1734712196741,2024-12-20T16:29:56.741Z,38068,-0.061279297,-0.09674072,-0.0036010742
1734712196748,2024-12-20T16:29:56.748Z,38075,-0.062194824,-0.09649658,0.004699707
1734712196756,2024-12-20T16:29:56.756Z,38083,-0.063964844,-0.10107422,0.005493164
1734712196763,2024-12-20T16:29:56.763Z,38090,-0.05493164,-0.09661865,0.010925293
1734712196771,2024-12-20T16:29:56.771Z,38098,-0.06414795,-0.09661865,0.0067749023
1734712196827,2024-12-20T16:29:56.827Z,38154,-0.05645752,-0.09185791,0.013122559
1734712196834,2024-12-20T16:29:56.834Z,38161,-0.059448242,-0.091552734,0.008605957
1734712196841,2024-12-20T16:29:56.841Z,38168,-0.057678223,-0.09851074,0.0034179688
1734712196847,2024-12-20T16:29:56.847Z,38174,-0.06439209,-0.091918945,0.010803223
1734712196964,2024-12-20T16:29:56.964Z,38291,-0.0637207,-0.095336914,0.0064086914
1734712197014,2024-12-20T16:29:57.014Z,38341,-0.05529785,-0.08734131,-0.007385254
1734712197028,2024-12-20T16:29:57.028Z,38355,-0.056274414,-0.097229004,-0.0014648438
1734712197040,2024-12-20T16:29:57.040Z,38367,-0.061279297,-0.09967041,-0.0068969727
1734712197052,2024-12-20T16:29:57.052Z,38379,-0.06335449,-0.09753418,-0.0024414062
1734712197062,2024-12-20T16:29:57.062Z,38389,-0.061035156,-0.093688965,-0.0033569336
1734712197070,2024-12-20T16:29:57.070Z,38397,-0.0579834,-0.106933594,-0.0016479492
1734712197078,2024-12-20T16:29:57.078Z,38405,-0.05859375,-0.099609375,0.006652832
1734712197081,2024-12-20T16:29:57.081Z,38408,-0.06237793,-0.09661865,-0.011108398
1734712197089,2024-12-20T16:29:57.089Z,38416,-0.06121826,-0.097229004,-0.0056762695
1734712197095,2024-12-20T16:29:57.095Z,38422,-0.05493164,-0.09838867,-0.011474609
1734712197103,2024-12-20T16:29:57.103Z,38430,-0.06970215,-0.0949707,-0.007751465
1734712197141,2024-12-20T16:29:57.141Z,38468,-0.06542969,-0.099731445,-0.0119018555
1734712197145,2024-12-20T16:29:57.145Z,38472,-0.06640625,-0.1048584,-0.007751465
1734712197152,2024-12-20T16:29:57.152Z,38479,-0.054870605,-0.107666016,0.0017089844
1734712197159,2024-12-20T16:29:57.159Z,38486,-0.055847168,-0.104003906,-0.007385254
1734712197165,2024-12-20T16:29:57.165Z,38492,-0.070373535,-0.1005249,-0.021972656
1734712197172,2024-12-20T16:29:57.172Z,38499,-0.06616211,-0.103637695,-0.019592285
1734712197232,2024-12-20T16:29:57.232Z,38559,-0.06713867,-0.10870361,-0.01171875
1734712197239,2024-12-20T16:29:57.239Z,38566,-0.04486084,-0.11126709,-0.0017700195
1734712197246,2024-12-20T16:29:57.246Z,38573,-0.054016113,-0.108947754,-0.004272461
1734712197253,2024-12-20T16:29:57.253Z,38580,-0.0637207,-0.10473633,-0.010437012
1734712197260,2024-12-20T16:29:57.260Z,38587,-0.058410645,-0.10235596,-0.013122559
1734712197266,2024-12-20T16:29:57.266Z,38593,-0.06500244,-0.103393555,-0.018554688
1734712197279,2024-12-20T16:29:57.279Z,38606,-0.052612305,-0.10772705,-0.009521484
1734712197286,2024-12-20T16:29:57.286Z,38613,-0.056762695,-0.11187744,1.8310547E-4
1734712197293,2024-12-20T16:29:57.293Z,38620,-0.06384277,-0.1081543,-0.005065918
1734712197319,2024-12-20T16:29:57.319Z,38646,-0.048950195,-0.10443115,-0.0076293945
1734712197326,2024-12-20T16:29:57.326Z,38653,-0.06829834,-0.09991455,-0.019592285
1734712197333,2024-12-20T16:29:57.333Z,38660,-0.05822754,-0.107055664,-0.005554199
1734712197336,2024-12-20T16:29:57.336Z,38663,-0.062072754,-0.10479736,-0.0040893555
1734712197343,2024-12-20T16:29:57.343Z,38670,-0.05859375,-0.1060791,-0.0053710938
1734712197349,2024-12-20T16:29:57.349Z,38676,-0.055419922,-0.103393555,-0.010009766
1734712197366,2024-12-20T16:29:57.366Z,38693,-0.057006836,-0.109191895,-1.2207031E-4
1734712197373,2024-12-20T16:29:57.373Z,38700,-0.054382324,-0.10961914,-0.0014648438
1734712197378,2024-12-20T16:29:57.378Z,38705,-0.04864502,-0.10418701,-0.009887695
1734712197384,2024-12-20T16:29:57.384Z,38711,-0.04638672,-0.107910156,-0.002746582
1734712197390,2024-12-20T16:29:57.390Z,38717,-0.056518555,-0.10723877,-0.009887695
1734712197396,2024-12-20T16:29:57.396Z,38723,-0.05908203,-0.11022949,-0.008239746
1734712197413,2024-12-20T16:29:57.413Z,38740,-0.0569458,-0.113586426,0.0010986328
1734712197419,2024-12-20T16:29:57.419Z,38746,-0.06237793,-0.11303711,-0.005432129
1734712197425,2024-12-20T16:29:57.425Z,38752,-0.055725098,-0.11437988,-0.005859375
1734712197431,2024-12-20T16:29:57.431Z,38758,-0.04473877,-0.11212158,-0.009521484
1734712197436,2024-12-20T16:29:57.436Z,38763,-0.045898438,-0.111694336,-0.009155273
1734712197455,2024-12-20T16:29:57.455Z,38782,-0.057861328,-0.11126709,-0.003479004
1734712197460,2024-12-20T16:29:57.460Z,38787,-0.058166504,-0.113220215,-0.0028076172
1734712197465,2024-12-20T16:29:57.465Z,38792,-0.05206299,-0.11077881,-0.0049438477
1734712197471,2024-12-20T16:29:57.471Z,38798,-0.055603027,-0.1083374,-0.011291504
1734712197477,2024-12-20T16:29:57.477Z,38804,-0.048034668,-0.10974121,-0.007751465
1734712197482,2024-12-20T16:29:57.482Z,38809,-0.045288086,-0.112976074,6.713867E-4
1734712197504,2024-12-20T16:29:57.504Z,38831,-0.051086426,-0.11035156,-0.009277344
1734712197510,2024-12-20T16:29:57.510Z,38837,-0.047424316,-0.11425781,0.0016479492
1734712197519,2024-12-20T16:29:57.519Z,38846,-0.053649902,-0.11340332,-0.0025634766
1734712197547,2024-12-20T16:29:57.547Z,38874,-0.057678223,-0.11114502,-0.006713867
1734712197553,2024-12-20T16:29:57.553Z,38880,-0.05053711,-0.10974121,-0.008300781
1734712197640,2024-12-20T16:29:57.640Z,38967,-0.05053711,-0.10900879,-0.0079956055
1734712197647,2024-12-20T16:29:57.647Z,38974,-0.046020508,-0.11199951,-0.006652832
1734712197653,2024-12-20T16:29:57.653Z,38980,-0.04486084,-0.11541748,-9.1552734E-4
1734712197660,2024-12-20T16:29:57.660Z,38987,-0.049072266,-0.11602783,-0.007080078
1734712197666,2024-12-20T16:29:57.666Z,38993,-0.049621582,-0.11755371,-0.0018920898
1734712197681,2024-12-20T16:29:57.681Z,39008,-0.052368164,-0.119506836,-6.713867E-4
1734712197726,2024-12-20T16:29:57.726Z,39053,-0.05847168,-0.11682129,-0.0060424805
1734712197734,2024-12-20T16:29:57.734Z,39061,-0.054504395,-0.11444092,-0.00579834
1734712197742,2024-12-20T16:29:57.742Z,39069,-0.05102539,-0.113708496,-0.012145996
1734712197749,2024-12-20T16:29:57.749Z,39076,-0.03955078,-0.117492676,-0.0029296875
1734712197757,2024-12-20T16:29:57.757Z,39084,-0.044799805,-0.11364746,-0.00579834
1734712197764,2024-12-20T16:29:57.764Z,39091,-0.051208496,-0.109069824,-0.012512207
1734712197776,2024-12-20T16:29:57.776Z,39103,-0.0435791,-0.11218262,-0.0067749023
1734712197783,2024-12-20T16:29:57.783Z,39110,-0.039855957,-0.111694336,6.1035156E-4
1734712197790,2024-12-20T16:29:57.790Z,39117,-0.048950195,-0.11016846,-0.005493164
1734712197796,2024-12-20T16:29:57.796Z,39123,-0.043273926,-0.11071777,0.0012207031
1734712197802,2024-12-20T16:29:57.802Z,39129,-0.050842285,-0.10748291,-2.4414062E-4
1734712197815,2024-12-20T16:29:57.815Z,39142,-0.05126953,-0.10559082,-0.010620117
1734712197866,2024-12-20T16:29:57.866Z,39193,-0.042541504,-0.10839844,0.0026855469
1734712197873,2024-12-20T16:29:57.873Z,39200,-0.043762207,-0.10809326,0.0025634766
1734712197880,2024-12-20T16:29:57.880Z,39207,-0.05065918,-0.10284424,-0.003479004
1734712197887,2024-12-20T16:29:57.887Z,39214,-0.049682617,-0.105895996,-0.005004883
1734712197894,2024-12-20T16:29:57.894Z,39221,-0.049987793,-0.10949707,-0.0010375977
1734712197907,2024-12-20T16:29:57.907Z,39234,-0.055358887,-0.10852051,-0.0051879883
1734712197913,2024-12-20T16:29:57.913Z,39240,-0.04748535,-0.11279297,5.493164E-4
1734712197918,2024-12-20T16:29:57.918Z,39245,-0.050048828,-0.11010742,0.0022583008
1734712197924,2024-12-20T16:29:57.924Z,39251,-0.054748535,-0.1104126,-4.8828125E-4
1734712197930,2024-12-20T16:29:57.930Z,39257,-0.05670166,-0.107055664,-0.0040893555
1734712197936,2024-12-20T16:29:57.936Z,39263,-0.05303955,-0.10412598,-9.1552734E-4
1734712197954,2024-12-20T16:29:57.954Z,39281,-0.053649902,-0.10357666,-0.009277344
1734712197960,2024-12-20T16:29:57.960Z,39287,-0.044677734,-0.10760498,0.001953125
1734712197966,2024-12-20T16:29:57.966Z,39293,-0.04827881,-0.10949707,7.9345703E-4
1734712197972,2024-12-20T16:29:57.972Z,39299,-0.047729492,-0.105285645,-0.001159668
1734712197978,2024-12-20T16:29:57.978Z,39305,-0.05090332,-0.10308838,0.004272461
1734712198042,2024-12-20T16:29:58.042Z,39369,-0.053527832,-0.10192871,0.0015869141
1734712198048,2024-12-20T16:29:58.048Z,39375,-0.055358887,-0.09765625,-0.0029296875
1734712198055,2024-12-20T16:29:58.055Z,39382,-0.047790527,-0.10205078,-2.4414062E-4
1734712198060,2024-12-20T16:29:58.060Z,39387,-0.051086426,-0.10479736,-0.0056762695
1734712198064,2024-12-20T16:29:58.064Z,39391,-0.048706055,-0.103881836,-9.765625E-4
1734712198071,2024-12-20T16:29:58.071Z,39398,-0.04876709,-0.1071167,-6.713867E-4
1734712198087,2024-12-20T16:29:58.087Z,39414,-0.05529785,-0.105773926,-0.0030517578
1734712198093,2024-12-20T16:29:58.093Z,39420,-0.04510498,-0.105895996,-1.2207031E-4
1734712198099,2024-12-20T16:29:58.099Z,39426,-0.059387207,-0.103515625,-0.015136719
1734712198106,2024-12-20T16:29:58.106Z,39433,-0.05609131,-0.10949707,-0.0056762695
1734712198112,2024-12-20T16:29:58.112Z,39439,-0.04510498,-0.112854004,0.0028076172
1734712198178,2024-12-20T16:29:58.178Z,39505,-0.05432129,-0.1104126,-0.003112793
1734712198181,2024-12-20T16:29:58.181Z,39508,-0.05670166,-0.10235596,-0.012084961
1734712198188,2024-12-20T16:29:58.188Z,39515,-0.06542969,-0.103393555,-0.01776123
1734712198193,2024-12-20T16:29:58.193Z,39520,-0.045532227,-0.1083374,0.001159668
1734712198198,2024-12-20T16:29:58.198Z,39525,-0.051513672,-0.107788086,-9.1552734E-4
1734712198204,2024-12-20T16:29:58.204Z,39531,-0.059265137,-0.10601807,-0.006286621
1734712198220,2024-12-20T16:29:58.220Z,39547,-0.055786133,-0.1038208,-0.004699707
1734712198364,2024-12-20T16:29:58.364Z,39691,-0.05908203,-0.10333252,-0.021728516
1734712198453,2024-12-20T16:29:58.453Z,39780,-0.047058105,-0.1071167,-0.016540527
1734712198466,2024-12-20T16:29:58.466Z,39793,-0.05480957,-0.107543945,0.0020141602
1734712198479,2024-12-20T16:29:58.479Z,39806,-0.06500244,-0.11279297,-0.0119018555
1734712198491,2024-12-20T16:29:58.491Z,39818,-0.0524292,-0.111083984,-0.0064086914
1734712198500,2024-12-20T16:29:58.500Z,39827,-0.05895996,-0.10522461,-0.010314941
1734712198508,2024-12-20T16:29:58.508Z,39835,-0.060424805,-0.103759766,-0.009521484
1734712198542,2024-12-20T16:29:58.542Z,39869,-0.06011963,-0.10760498,-0.010192871
1734712198547,2024-12-20T16:29:58.547Z,39874,-0.056152344,-0.103149414,-0.011352539
1734712198554,2024-12-20T16:29:58.554Z,39881,-0.049194336,-0.10180664,-0.03137207
1734712198562,2024-12-20T16:29:58.562Z,39889,-0.05114746,-0.1048584,-0.01159668
1734712198569,2024-12-20T16:29:58.569Z,39896,-0.052978516,-0.103515625,-0.024414062
1734712198580,2024-12-20T16:29:58.580Z,39907,-0.06695557,-0.10058594,-0.001159668
1734712198583,2024-12-20T16:29:58.583Z,39910,-0.06964111,-0.10681152,0.0053100586
1734712198587,2024-12-20T16:29:58.587Z,39914,-0.06262207,-0.1005249,0.0018920898
1734712198593,2024-12-20T16:29:58.593Z,39920,-0.061828613,-0.09442139,-0.0026245117
1734712198599,2024-12-20T16:29:58.599Z,39926,-0.058898926,-0.09777832,-0.017089844
1734712198630,2024-12-20T16:29:58.630Z,39957,-0.064819336,-0.0892334,-0.0099487305
1734712198637,2024-12-20T16:29:58.637Z,39964,-0.059020996,-0.0993042,-4.8828125E-4
1734712198645,2024-12-20T16:29:58.645Z,39972,-0.078430176,-0.09777832,-0.011474609
1734712198652,2024-12-20T16:29:58.652Z,39979,-0.04498291,-0.099975586,-0.018371582
1734712198659,2024-12-20T16:29:58.659Z,39986,-0.06121826,-0.093444824,0.013122559
1734712198683,2024-12-20T16:29:58.683Z,40010,-0.07147217,-0.101501465,-0.0018310547
1734712198692,2024-12-20T16:29:58.692Z,40019,-0.05029297,-0.093566895,-0.0012207031
1734712198698,2024-12-20T16:29:58.698Z,40025,-0.06085205,-0.103881836,0.010986328
1734712198766,2024-12-20T16:29:58.766Z,40093,-0.068481445,-0.10229492,0.004699707
1734712198772,2024-12-20T16:29:58.772Z,40099,-0.06549072,-0.0970459,0.0067749023
1734712198778,2024-12-20T16:29:58.778Z,40105,-0.07940674,-0.10168457,0.0119018555
1734712198784,2024-12-20T16:29:58.784Z,40111,-0.066345215,-0.099243164,-0.004211426
1734712198792,2024-12-20T16:29:58.792Z,40119,-0.049072266,-0.09197998,-7.324219E-4
1734712198806,2024-12-20T16:29:58.806Z,40133,-0.06591797,-0.094055176,0.0018920898
1734712198814,2024-12-20T16:29:58.814Z,40141,-0.05102539,-0.09442139,-0.0036621094
1734712198820,2024-12-20T16:29:58.820Z,40147,-0.05230713,-0.09857178,-1.2207031E-4
1734712198826,2024-12-20T16:29:58.826Z,40153,-0.058166504,-0.09814453,0.005126953
1734712198832,2024-12-20T16:29:58.832Z,40159,-0.067993164,-0.105041504,0.017089844
1734712198838,2024-12-20T16:29:58.838Z,40165,-0.08514404,-0.10498047,0.020812988
1734712198854,2024-12-20T16:29:58.854Z,40181,-0.06225586,-0.10668945,0.015075684
1734712198857,2024-12-20T16:29:58.857Z,40184,-0.0770874,-0.105529785,0.028747559
1734712198862,2024-12-20T16:29:58.862Z,40189,-0.072021484,-0.10437012,0.020507812
1734712198868,2024-12-20T16:29:58.868Z,40195,-0.05682373,-0.09667969,-0.011413574
1734712198874,2024-12-20T16:29:58.874Z,40201,-0.045776367,-0.09869385,-0.015258789
1734712198879,2024-12-20T16:29:58.879Z,40206,-0.06604004,-0.1027832,0.007019043
1734712198898,2024-12-20T16:29:58.898Z,40225,-0.057861328,-0.10522461,-0.0018310547
1734712198903,2024-12-20T16:29:58.903Z,40230,-0.05871582,-0.10827637,0.006225586
1734712198908,2024-12-20T16:29:58.908Z,40235,-0.06604004,-0.11706543,0.01586914
1734712198914,2024-12-20T16:29:58.914Z,40241,-0.06970215,-0.109313965,0.022460938
1734712198919,2024-12-20T16:29:58.919Z,40246,-0.07501221,-0.11291504,0.02130127
1734712198940,2024-12-20T16:29:58.940Z,40267,-0.07104492,-0.10437012,-0.0014648438
1734712198945,2024-12-20T16:29:58.945Z,40272,-0.04675293,-0.107543945,0.008056641
1734712198951,2024-12-20T16:29:58.951Z,40278,-0.04925537,-0.10656738,-0.0018310547
1734712199039,2024-12-20T16:29:59.039Z,40366,-0.055908203,-0.10821533,-0.005493164
1734712199045,2024-12-20T16:29:59.045Z,40372,-0.06628418,-0.11102295,0.010070801
1734712199052,2024-12-20T16:29:59.052Z,40379,-0.054626465,-0.11175537,0.009521484
1734712199058,2024-12-20T16:29:59.058Z,40385,-0.066101074,-0.119018555,0.020263672
1734712199065,2024-12-20T16:29:59.065Z,40392,-0.067871094,-0.11077881,0.020874023
1734712199088,2024-12-20T16:29:59.088Z,40415,-0.05682373,-0.11340332,0.018066406
1734712199094,2024-12-20T16:29:59.094Z,40421,-0.061279297,-0.109680176,0.0057373047
1734712199100,2024-12-20T16:29:59.100Z,40427,-0.04852295,-0.105895996,-0.005126953
1734712199107,2024-12-20T16:29:59.107Z,40434,-0.052001953,-0.11645508,0.007446289
1734712199113,2024-12-20T16:29:59.113Z,40440,-0.06652832,-0.11279297,0.0045166016
1734712199166,2024-12-20T16:29:59.166Z,40493,-0.055603027,-0.11175537,0.0095825195
1734712199212,2024-12-20T16:29:59.212Z,40539,-0.05999756,-0.11834717,0.027893066
1734712199224,2024-12-20T16:29:59.224Z,40551,-0.050354004,-0.116760254,0.012573242
1734712199236,2024-12-20T16:29:59.236Z,40563,-0.054870605,-0.112854004,0.0095825195
1734712199248,2024-12-20T16:29:59.248Z,40575,-0.06982422,-0.112976074,0.0075683594
1734712199262,2024-12-20T16:29:59.262Z,40589,-0.04949951,-0.11431885,0.010620117
1734712199270,2024-12-20T16:29:59.270Z,40597,-0.05529785,-0.12145996,0.021240234
1734712199278,2024-12-20T16:29:59.278Z,40605,-0.060791016,-0.12030029,0.026611328
1734712199285,2024-12-20T16:29:59.285Z,40612,-0.0513916,-0.11956787,0.026184082
1734712199292,2024-12-20T16:29:59.292Z,40619,-0.05303955,-0.11657715,0.020446777
1734712199300,2024-12-20T16:29:59.300Z,40627,-0.06323242,-0.117248535,0.015930176
1734712199307,2024-12-20T16:29:59.307Z,40634,-0.04626465,-0.11743164,0.011474609
1734712199311,2024-12-20T16:29:59.311Z,40638,-0.0546875,-0.12298584,0.016052246
1734712199316,2024-12-20T16:29:59.316Z,40643,-0.061828613,-0.11968994,0.018066406
1734712199322,2024-12-20T16:29:59.322Z,40649,-0.047790527,-0.119628906,0.013305664
1734712199327,2024-12-20T16:29:59.327Z,40654,-0.04534912,-0.11975098,0.022216797
1734712199392,2024-12-20T16:29:59.392Z,40719,-0.045410156,-0.1184082,0.020996094
1734712199395,2024-12-20T16:29:59.395Z,40722,-0.04638672,-0.1184082,0.024658203
1734712199400,2024-12-20T16:29:59.400Z,40727,-0.05505371,-0.11773682,0.031188965
1734712199405,2024-12-20T16:29:59.405Z,40732,-0.064086914,-0.117370605,0.020690918
1734712199410,2024-12-20T16:29:59.410Z,40737,-0.042907715,-0.11505127,0.016296387
1734712199415,2024-12-20T16:29:59.415Z,40742,-0.05029297,-0.11456299,0.025634766
1734712199532,2024-12-20T16:29:59.532Z,40859,-0.046691895,-0.115478516,0.017700195
1734712199544,2024-12-20T16:29:59.544Z,40871,-0.036071777,-0.11791992,0.019104004
1734712199556,2024-12-20T16:29:59.556Z,40883,-0.039794922,-0.11999512,0.028015137
1734712199566,2024-12-20T16:29:59.566Z,40893,-0.042541504,-0.119262695,0.027832031
1734712199574,2024-12-20T16:29:59.574Z,40901,-0.04071045,-0.12097168,0.02935791
1734712199582,2024-12-20T16:29:59.582Z,40909,-0.047851562,-0.11920166,0.03265381
1734712199590,2024-12-20T16:29:59.590Z,40917,-0.047973633,-0.119018555,0.024536133
1734712199593,2024-12-20T16:29:59.593Z,40920,-0.04119873,-0.12030029,0.021240234
1734712199600,2024-12-20T16:29:59.600Z,40927,-0.046203613,-0.1239624,0.027709961
1734712199608,2024-12-20T16:29:59.608Z,40935,-0.04473877,-0.123168945,0.03540039
1734712199615,2024-12-20T16:29:59.615Z,40942,-0.04547119,-0.123413086,0.03387451
1734712199621,2024-12-20T16:29:59.621Z,40948,-0.042785645,-0.12414551,0.030761719
1734712199628,2024-12-20T16:29:59.628Z,40955,-0.040283203,-0.12084961,0.024658203
1734712199632,2024-12-20T16:29:59.632Z,40959,-0.04095459,-0.11657715,0.028137207
1734712199660,2024-12-20T16:29:59.660Z,40987,-0.041931152,-0.11480713,0.03186035
1734712199667,2024-12-20T16:29:59.667Z,40994,-0.04083252,-0.117004395,0.027832031
1734712199672,2024-12-20T16:29:59.672Z,40999,-0.044555664,-0.115356445,0.026550293
1734712199679,2024-12-20T16:29:59.679Z,41006,-0.04498291,-0.117492676,0.033996582
1734712199684,2024-12-20T16:29:59.684Z,41011,-0.04333496,-0.11755371,0.036071777
1734712199689,2024-12-20T16:29:59.689Z,41016,-0.043823242,-0.11633301,0.03491211
1734712199710,2024-12-20T16:29:59.710Z,41037,-0.036315918,-0.11633301,0.033935547
1734712199716,2024-12-20T16:29:59.716Z,41043,-0.038330078,-0.11590576,0.032348633
1734712199722,2024-12-20T16:29:59.722Z,41049,-0.04321289,-0.11419678,0.031921387
1734712199727,2024-12-20T16:29:59.727Z,41054,-0.040405273,-0.11480713,0.030700684
1734712199732,2024-12-20T16:29:59.732Z,41059,-0.0446167,-0.11566162,0.034362793
1734712199801,2024-12-20T16:29:59.801Z,41128,-0.040527344,-0.115478516,0.035705566
1734712199804,2024-12-20T16:29:59.804Z,41131,-0.041259766,-0.11639404,0.03942871
1734712199809,2024-12-20T16:29:59.809Z,41136,-0.040039062,-0.11553955,0.040283203
1734712199814,2024-12-20T16:29:59.814Z,41141,-0.04034424,-0.113220215,0.03564453
1734712199840,2024-12-20T16:29:59.840Z,41167,-0.039978027,-0.11138916,0.0289917
1734712199890,2024-12-20T16:29:59.890Z,41217,-0.038269043,-0.110839844,0.025512695
1734712199902,2024-12-20T16:29:59.902Z,41229,-0.04296875,-0.115112305,0.035827637
1734712199914,2024-12-20T16:29:59.914Z,41241,-0.04321289,-0.11663818,0.04034424
1734712199925,2024-12-20T16:29:59.925Z,41252,-0.04095459,-0.11450195,0.03741455
1734712199935,2024-12-20T16:29:59.935Z,41262,-0.04425049,-0.11517334,0.03918457
1734712199943,2024-12-20T16:29:59.943Z,41270,-0.0435791,-0.11529541,0.039916992
1734712199950,2024-12-20T16:29:59.950Z,41277,-0.043640137,-0.113220215,0.038757324
1734712199954,2024-12-20T16:29:59.954Z,41281,-0.046142578,-0.113220215,0.041259766
1734712199960,2024-12-20T16:29:59.960Z,41287,-0.044311523,-0.11279297,0.038391113
1734712199967,2024-12-20T16:29:59.967Z,41294,-0.044799805,-0.11383057,0.041381836
1734712199974,2024-12-20T16:29:59.974Z,41301,-0.04168701,-0.11401367,0.04559326
1734712199981,2024-12-20T16:29:59.981Z,41308,-0.042236328,-0.11279297,0.04083252
1734712199986,2024-12-20T16:29:59.986Z,41313,-0.046325684,-0.113342285,0.048706055
1734712199992,2024-12-20T16:29:59.992Z,41319,-0.046325684,-0.112854004,0.046447754
1734712199997,2024-12-20T16:29:59.997Z,41324,-0.049804688,-0.11395264,0.04559326
1734712200002,2024-12-20T16:30:00.002Z,41329,-0.049865723,-0.11328125,0.044677734
1734712200007,2024-12-20T16:30:00.007Z,41334,-0.04272461,-0.111206055,0.041259766
1734712200024,2024-12-20T16:30:00.024Z,41351,-0.04034424,-0.11022949,0.03540039
1734712200029,2024-12-20T16:30:00.029Z,41356,-0.042053223,-0.111206055,0.034423828
1734712200034,2024-12-20T16:30:00.034Z,41361,-0.04534912,-0.11248779,0.04333496
1734712200039,2024-12-20T16:30:00.039Z,41366,-0.042236328,-0.11456299,0.04901123
1734712200044,2024-12-20T16:30:00.044Z,41371,-0.04345703,-0.113586426,0.047607422
1734712200112,2024-12-20T16:30:00.112Z,41439,-0.04345703,-0.11206055,0.04473877
1734712200118,2024-12-20T16:30:00.118Z,41445,-0.043029785,-0.1126709,0.044677734
1734712200122,2024-12-20T16:30:00.122Z,41449,-0.040527344,-0.11138916,0.043151855
1734712200127,2024-12-20T16:30:00.127Z,41454,-0.03845215,-0.11090088,0.039611816
1734712200132,2024-12-20T16:30:00.132Z,41459,-0.03869629,-0.11090088,0.040161133
1734712200137,2024-12-20T16:30:00.137Z,41464,-0.03729248,-0.11230469,0.044128418
1734712200158,2024-12-20T16:30:00.158Z,41485,-0.035583496,-0.1126709,0.047851562
1734712200165,2024-12-20T16:30:00.165Z,41492,-0.037719727,-0.11242676,0.047424316
1734712200172,2024-12-20T16:30:00.172Z,41499,-0.036743164,-0.111206055,0.041748047
1734712200205,2024-12-20T16:30:00.205Z,41532,-0.035461426,-0.111328125,0.040283203
1734712200253,2024-12-20T16:30:00.253Z,41580,-0.033813477,-0.11260986,0.042175293
1734712200266,2024-12-20T16:30:00.266Z,41593,-0.032226562,-0.11383057,0.04333496
1734712200294,2024-12-20T16:30:00.294Z,41621,-0.031433105,-0.11401367,0.044677734
1734712200307,2024-12-20T16:30:00.307Z,41634,-0.030151367,-0.11364746,0.04473877
1734712200318,2024-12-20T16:30:00.318Z,41645,-0.030578613,-0.113342285,0.044677734
1734712200331,2024-12-20T16:30:00.331Z,41658,-0.028869629,-0.11401367,0.04425049
1734712200346,2024-12-20T16:30:00.346Z,41673,-0.02722168,-0.114868164,0.043762207
1734712200359,2024-12-20T16:30:00.359Z,41686,-0.024536133,-0.11505127,0.042175293
1734712200370,2024-12-20T16:30:00.370Z,41697,-0.021911621,-0.114990234,0.042236328
1734712200382,2024-12-20T16:30:00.382Z,41709,-0.02331543,-0.11608887,0.044189453
1734712200393,2024-12-20T16:30:00.393Z,41720,-0.02520752,-0.11694336,0.045715332
1734712200400,2024-12-20T16:30:00.400Z,41727,-0.019042969,-0.117004395,0.042785645
1734712200407,2024-12-20T16:30:00.407Z,41734,-0.019592285,-0.11706543,0.04534912
1734712200414,2024-12-20T16:30:00.414Z,41741,-0.020141602,-0.11627197,0.044128418
1734712200417,2024-12-20T16:30:00.417Z,41744,-0.020812988,-0.117126465,0.04486084
1734712200424,2024-12-20T16:30:00.424Z,41751,-0.020935059,-0.117004395,0.047912598
1734712200430,2024-12-20T16:30:00.430Z,41757,-0.016601562,-0.114868164,0.044128418
1734712200435,2024-12-20T16:30:00.435Z,41762,-0.013916016,-0.115478516,0.042114258
1734712200441,2024-12-20T16:30:00.441Z,41768,-0.01586914,-0.115600586,0.042541504
1734712200447,2024-12-20T16:30:00.447Z,41774,-0.019348145,-0.1071167,0.052612305
1734712200451,2024-12-20T16:30:00.451Z,41778,-0.018981934,-0.12322998,0.040649414
1734712200456,2024-12-20T16:30:00.456Z,41783,-0.016418457,-0.11694336,0.04058838
1734712200462,2024-12-20T16:30:00.462Z,41789,-0.021240234,-0.11663818,0.047302246
1734712200469,2024-12-20T16:30:00.469Z,41796,-0.018676758,-0.11694336,0.04748535
1734712200477,2024-12-20T16:30:00.477Z,41804,-0.017944336,-0.114868164,0.0435791
1734712200488,2024-12-20T16:30:00.488Z,41815,-0.018310547,-0.11517334,0.04345703
1734712200503,2024-12-20T16:30:00.503Z,41830,-0.020507812,-0.114868164,0.04449463
1734712200510,2024-12-20T16:30:00.510Z,41837,-0.019042969,-0.11541748,0.044311523
1734712200515,2024-12-20T16:30:00.515Z,41842,-0.019226074,-0.11608887,0.048339844
1734712200519,2024-12-20T16:30:00.519Z,41846,-0.021057129,-0.11456299,0.045410156
1734712200523,2024-12-20T16:30:00.523Z,41850,-0.019165039,-0.11450195,0.044799805
1734712200528,2024-12-20T16:30:00.528Z,41855,-0.02130127,-0.11450195,0.046813965
1734712200533,2024-12-20T16:30:00.533Z,41860,-0.021728516,-0.11462402,0.045837402
1734712200611,2024-12-20T16:30:00.611Z,41938,-0.020996094,-0.114746094,0.046936035
1734712200622,2024-12-20T16:30:00.622Z,41949,-0.018920898,-0.11444092,0.0446167
1734712200634,2024-12-20T16:30:00.634Z,41961,-0.02331543,-0.11602783,0.049194336
1734712200647,2024-12-20T16:30:00.647Z,41974,-0.025146484,-0.11621094,0.04925537
1734712200659,2024-12-20T16:30:00.659Z,41986,-0.024353027,-0.11706543,0.04864502
1734712200671,2024-12-20T16:30:00.671Z,41998,-0.025756836,-0.11816406,0.049560547
1734712200682,2024-12-20T16:30:00.682Z,42009,-0.028564453,-0.12030029,0.052856445
1734712200691,2024-12-20T16:30:00.691Z,42018,-0.024963379,-0.11968994,0.049316406
1734712200699,2024-12-20T16:30:00.699Z,42026,-0.021240234,-0.12030029,0.045776367
1734712200706,2024-12-20T16:30:00.706Z,42033,-0.029907227,-0.12390137,0.050964355
1734712200713,2024-12-20T16:30:00.713Z,42040,-0.027160645,-0.12567139,0.052368164
1734712200719,2024-12-20T16:30:00.719Z,42046,-0.026428223,-0.12658691,0.051635742
1734712200722,2024-12-20T16:30:00.722Z,42049,-0.031982422,-0.13006592,0.05340576
1734712200728,2024-12-20T16:30:00.728Z,42055,-0.032836914,-0.1329956,0.055419922
1734712200734,2024-12-20T16:30:00.734Z,42061,-0.028808594,-0.13439941,0.053588867
1734712200739,2024-12-20T16:30:00.739Z,42066,-0.03100586,-0.13543701,0.05267334
1734712200744,2024-12-20T16:30:00.744Z,42071,-0.028930664,-0.13604736,0.050231934
1734712200750,2024-12-20T16:30:00.750Z,42077,-0.03149414,-0.1361084,0.052490234
1734712200754,2024-12-20T16:30:00.754Z,42081,-0.037353516,-0.137146,0.058166504
1734712200759,2024-12-20T16:30:00.759Z,42086,-0.033081055,-0.13555908,0.04876709
1734712200765,2024-12-20T16:30:00.765Z,42092,-0.03515625,-0.13433838,0.050231934
