Timestamp (ms),ISO DateTime,Elapsed Time (ms),Acceleration X,Acceleration Y,Acceleration Z
1725948952120,2024-09-10T06:15:52.120Z,64499,0.41522217,-0.7798462,0.3857422
1725948952164,2024-09-10T06:15:52.164Z,64543,0.41326904,-0.7906494,0.4286499
1725948952206,2024-09-10T06:15:52.206Z,64585,0.41070557,-0.80023193,0.43188477
1725948952252,2024-09-10T06:15:52.252Z,64631,0.42156982,-0.8106079,0.40808105
1725948952297,2024-09-10T06:15:52.297Z,64676,0.41033936,-0.80651855,0.397583
1725948952347,2024-09-10T06:15:52.347Z,64726,0.3963623,-0.7992554,0.38934326
1725948952366,2024-09-10T06:15:52.366Z,64745,0.40490723,-0.79992676,0.4008789
1725948952388,2024-09-10T06:15:52.388Z,64767,0.4102173,-0.80029297,0.38891602
1725948952436,2024-09-10T06:15:52.436Z,64815,0.4109497,-0.7827759,0.39959717
1725948952481,2024-09-10T06:15:52.481Z,64860,0.4185791,-0.78125,0.418396
1725948952528,2024-09-10T06:15:52.528Z,64907,0.4321289,-0.7941284,0.3916626
1725948952573,2024-09-10T06:15:52.573Z,64952,0.43688965,-0.80322266,0.38659668
1725948952619,2024-09-10T06:15:52.619Z,64998,0.44250488,-0.8054199,0.40112305
1725948952663,2024-09-10T06:15:52.663Z,65042,0.472229,-0.803833,0.42993164
1725948952707,2024-09-10T06:15:52.707Z,65086,0.45043945,-0.81463623,0.4161377
1725948952754,2024-09-10T06:15:52.754Z,65133,0.38653564,-0.8200073,0.36383057
1725948952774,2024-09-10T06:15:52.774Z,65153,0.37719727,-0.8339844,0.39318848
1725948952794,2024-09-10T06:15:52.794Z,65173,0.38360596,-0.85510254,0.40533447
1725948952843,2024-09-10T06:15:52.843Z,65222,0.33398438,-0.87457275,0.3866577
1725948952886,2024-09-10T06:15:52.886Z,65265,0.269104,-0.87384033,0.3986206
1725948952932,2024-09-10T06:15:52.932Z,65311,0.24902344,-0.89416504,0.39312744
1725948952977,2024-09-10T06:15:52.977Z,65356,0.29577637,-0.92401123,0.40411377
1725948953021,2024-09-10T06:15:53.021Z,65400,0.33294678,-0.9493408,0.3796997
1725948953113,2024-09-10T06:15:53.113Z,65492,0.33081055,-0.93518066,0.32403564
1725948953132,2024-09-10T06:15:53.132Z,65511,0.24176025,-0.90802,0.319458
1725948953153,2024-09-10T06:15:53.153Z,65532,0.14459229,-0.89331055,0.4058838
1725948953203,2024-09-10T06:15:53.203Z,65582,0.17358398,-0.90045166,0.35736084
1725948953222,2024-09-10T06:15:53.222Z,65601,0.18481445,-0.9466553,0.33728027
1725948953243,2024-09-10T06:15:53.243Z,65622,0.14025879,-0.95861816,0.31567383
1725948953291,2024-09-10T06:15:53.291Z,65670,0.11303711,-0.9959717,0.3071289
1725948953335,2024-09-10T06:15:53.335Z,65714,0.06970215,-1.0152588,0.3927002
1725948953381,2024-09-10T06:15:53.381Z,65760,-0.07897949,-1.0127563,0.43426514
1725948953429,2024-09-10T06:15:53.429Z,65808,-0.09515381,-0.98883057,0.28338623
1725948953473,2024-09-10T06:15:53.473Z,65852,-0.027648926,-0.9619751,0.14929199
1725948953516,2024-09-10T06:15:53.516Z,65895,-0.026916504,-0.91741943,0.2736206
1725948953560,2024-09-10T06:15:53.560Z,65939,0.015258789,-0.93688965,0.34558105
1725948953605,2024-09-10T06:15:53.605Z,65984,-0.006591797,-0.9495239,0.2576294
1725948953623,2024-09-10T06:15:53.623Z,66002,-0.101379395,-0.97802734,0.20599365
1725948953662,2024-09-10T06:15:53.662Z,66041,-0.10699463,-0.99780273,0.22302246
1725948953694,2024-09-10T06:15:53.694Z,66073,-0.12017822,-0.9883423,0.32531738
1725948953739,2024-09-10T06:15:53.739Z,66118,-0.093688965,-0.95654297,0.35516357
1725948953786,2024-09-10T06:15:53.786Z,66165,-0.111450195,-1.0046387,0.26776123
1725948953834,2024-09-10T06:15:53.834Z,66213,-0.080200195,-1.0085449,0.22747803
1725948953879,2024-09-10T06:15:53.879Z,66258,-0.14984131,-0.9558716,0.27044678
1725948953922,2024-09-10T06:15:53.922Z,66301,-0.26116943,-0.8876953,0.2850952
1725948953969,2024-09-10T06:15:53.969Z,66348,-0.29473877,-0.8712158,0.24353027
1725948954014,2024-09-10T06:15:54.014Z,66393,-0.22509766,-0.85931396,0.26531982
1725948954039,2024-09-10T06:15:54.039Z,66418,-0.17443848,-0.8807373,0.3284912
1725948954062,2024-09-10T06:15:54.062Z,66441,-0.1852417,-0.9038696,0.30944824
1725948954102,2024-09-10T06:15:54.102Z,66481,-0.27960205,-0.9017334,0.25134277
1725948954194,2024-09-10T06:15:54.194Z,66573,-0.28100586,-0.9003296,0.26696777
1725948954251,2024-09-10T06:15:54.251Z,66630,-0.24951172,-0.9237671,0.24279785
1725948954268,2024-09-10T06:15:54.268Z,66647,-0.15063477,-0.92767334,0.24212646
1725948954328,2024-09-10T06:15:54.328Z,66707,-0.17144775,-0.93634033,0.2088623
1725948954345,2024-09-10T06:15:54.345Z,66724,-0.20843506,-0.9802246,0.11651611
1725948954367,2024-09-10T06:15:54.367Z,66746,-0.32806396,-0.92144775,0.18585205
1725948954416,2024-09-10T06:15:54.416Z,66795,-0.3770752,-0.8339844,0.34429932
1725948954461,2024-09-10T06:15:54.461Z,66840,-0.32757568,-0.83880615,0.2699585
1725948954480,2024-09-10T06:15:54.480Z,66859,-0.25177002,-0.8521118,0.18060303
1725948954504,2024-09-10T06:15:54.504Z,66883,-0.2510376,-0.84399414,0.2052002
1725948954551,2024-09-10T06:15:54.551Z,66930,-0.28710938,-0.8674927,0.2185669
1725948954596,2024-09-10T06:15:54.596Z,66975,-0.30908203,-0.91900635,0.16784668
1725948954642,2024-09-10T06:15:54.642Z,67021,-0.3010254,-0.9633179,0.10412598
1725948954686,2024-09-10T06:15:54.686Z,67065,-0.3060913,-0.89678955,0.1529541
1725948954731,2024-09-10T06:15:54.731Z,67110,-0.296875,-0.84069824,0.19165039
1725948954779,2024-09-10T06:15:54.779Z,67158,-0.26391602,-0.86743164,0.1326294
1725948954821,2024-09-10T06:15:54.821Z,67200,-0.2888794,-0.83380127,0.19799805
1725948954868,2024-09-10T06:15:54.868Z,67247,-0.2886963,-0.8062744,0.23590088
1725948954889,2024-09-10T06:15:54.889Z,67268,-0.2697754,-0.85687256,0.08618164
1725948954910,2024-09-10T06:15:54.910Z,67289,-0.26904297,-0.9008789,0.05718994
1725948954956,2024-09-10T06:15:54.956Z,67335,-0.27612305,-0.9159546,0.17700195
1725948955001,2024-09-10T06:15:55.001Z,67380,-0.28778076,-0.94000244,0.21057129
1725948955045,2024-09-10T06:15:55.045Z,67424,-0.34155273,-0.9172363,0.25421143
1725948955092,2024-09-10T06:15:55.092Z,67471,-0.36950684,-0.9397583,0.1630249
1725948955186,2024-09-10T06:15:55.186Z,67565,-0.34899902,-0.9543457,0.08380127
1725948955205,2024-09-10T06:15:55.205Z,67584,-0.26104736,-0.85302734,0.23382568
1725948955225,2024-09-10T06:15:55.225Z,67604,-0.23516846,-0.79278564,0.26965332
1725948955270,2024-09-10T06:15:55.270Z,67649,-0.2927246,-0.7971802,0.121032715
1725948955287,2024-09-10T06:15:55.287Z,67666,-0.27178955,-0.74157715,0.064575195
1725948955312,2024-09-10T06:15:55.312Z,67691,-0.17034912,-0.78234863,0.042663574
1725948955407,2024-09-10T06:15:55.407Z,67786,-0.10083008,-0.87524414,0.07952881
1725948955425,2024-09-10T06:15:55.425Z,67804,-0.20800781,-0.8880615,0.22558594
1725948955495,2024-09-10T06:15:55.495Z,67874,-0.3015747,-0.79907227,0.3269043
1725948955514,2024-09-10T06:15:55.514Z,67893,-0.23999023,-0.8411255,0.10852051
1725948955537,2024-09-10T06:15:55.537Z,67916,-0.16674805,-0.8892822,0.013977051
1725948955587,2024-09-10T06:15:55.587Z,67966,-0.097839355,-0.96661377,0.07019043
1725948955630,2024-09-10T06:15:55.630Z,68009,-0.14544678,-1.0028687,0.16143799
1725948955676,2024-09-10T06:15:55.676Z,68055,-0.17993164,-0.99560547,0.13256836
1725948955724,2024-09-10T06:15:55.724Z,68103,-0.17370605,-0.9743042,0.09057617
1725948955745,2024-09-10T06:15:55.745Z,68124,-0.16833496,-0.9326782,0.17010498
1725948955766,2024-09-10T06:15:55.766Z,68145,-0.13665771,-0.96466064,0.20196533
1725948955812,2024-09-10T06:15:55.812Z,68191,-0.21569824,-0.97546387,0.2487793
1725948955856,2024-09-10T06:15:55.856Z,68235,-0.09320068,-1.0054321,0.15753174
1725948955900,2024-09-10T06:15:55.900Z,68279,-0.04901123,-1.0029297,0.20239258
1725948955945,2024-09-10T06:15:55.945Z,68324,-0.07342529,-0.98791504,0.25195312
1725948955992,2024-09-10T06:15:55.992Z,68371,-0.063964844,-1.0119019,0.22912598
1725948956036,2024-09-10T06:15:56.036Z,68415,-0.050231934,-1.0045776,0.27105713
1725948956126,2024-09-10T06:15:56.126Z,68505,-0.005554199,-1.0501099,0.2788086
1725948956172,2024-09-10T06:15:56.172Z,68551,-0.021057129,-1.0536499,0.32287598
1725948956193,2024-09-10T06:15:56.193Z,68572,0.011474609,-1.0598145,0.23852539
1725948956211,2024-09-10T06:15:56.211Z,68590,0.059387207,-1.0645752,0.23339844
1725948956223,2024-09-10T06:15:56.223Z,68602,0.049865723,-1.0574951,0.23901367
1725948956259,2024-09-10T06:15:56.259Z,68638,-0.003479004,-0.9909668,0.33520508
1725948956305,2024-09-10T06:15:56.305Z,68684,-0.07611084,-0.99468994,0.44122314
1725948956397,2024-09-10T06:15:56.397Z,68776,-0.02166748,-0.99993896,0.31115723
1725948956416,2024-09-10T06:15:56.416Z,68795,0.03717041,-0.9842529,0.25836182
1725948956441,2024-09-10T06:15:56.441Z,68820,0.10418701,-0.9735718,0.22601318
1725948956489,2024-09-10T06:15:56.489Z,68868,0.13861084,-0.9286499,0.26660156
1725948956530,2024-09-10T06:15:56.530Z,68909,0.15576172,-0.91552734,0.25793457
1725948956548,2024-09-10T06:15:56.548Z,68927,0.10784912,-0.9489746,0.28216553
1725948956578,2024-09-10T06:15:56.578Z,68957,0.04876709,-0.9696045,0.35498047
1725948956625,2024-09-10T06:15:56.625Z,69004,0.03527832,-0.96868896,0.37182617
1725948956666,2024-09-10T06:15:56.666Z,69045,0.091918945,-0.9706421,0.31402588
1725948956712,2024-09-10T06:15:56.712Z,69091,0.13842773,-0.9382324,0.21905518
1725948956757,2024-09-10T06:15:56.757Z,69136,0.17651367,-0.89489746,0.21746826
1725948956801,2024-09-10T06:15:56.801Z,69180,0.117126465,-0.8696289,0.37365723
1725948956848,2024-09-10T06:15:56.848Z,69227,0.070617676,-0.91845703,0.40631104
1725948956892,2024-09-10T06:15:56.892Z,69271,0.18798828,-0.98358154,0.28149414
1725948956935,2024-09-10T06:15:56.935Z,69314,0.19470215,-0.97473145,0.3916626
1725948956981,2024-09-10T06:15:56.981Z,69360,0.18780518,-0.9487915,0.44702148
1725948957001,2024-09-10T06:15:57.001Z,69380,0.18237305,-0.91259766,0.35388184
1725948957027,2024-09-10T06:15:57.027Z,69406,0.18121338,-0.8777466,0.25323486
1725948957071,2024-09-10T06:15:57.071Z,69450,0.1796875,-0.8566284,0.31652832
1725948957117,2024-09-10T06:15:57.117Z,69496,0.21899414,-0.8814087,0.32751465
1725948957167,2024-09-10T06:15:57.167Z,69546,0.27331543,-0.90057373,0.34381104
1725948957206,2024-09-10T06:15:57.206Z,69585,0.26263428,-0.88116455,0.46777344
1725948957250,2024-09-10T06:15:57.250Z,69629,0.27166748,-0.8647461,0.4295044
1725948957297,2024-09-10T06:15:57.297Z,69676,0.3267212,-0.83654785,0.3867798
1725948957343,2024-09-10T06:15:57.343Z,69722,0.34283447,-0.8024292,0.39874268
1725948957385,2024-09-10T06:15:57.385Z,69764,0.34136963,-0.79681396,0.41571045
1725948957406,2024-09-10T06:15:57.406Z,69785,0.3633423,-0.8206177,0.42016602
1725948957431,2024-09-10T06:15:57.431Z,69810,0.36968994,-0.81500244,0.45635986
1725948957476,2024-09-10T06:15:57.476Z,69855,0.33929443,-0.78912354,0.47125244
1725948957522,2024-09-10T06:15:57.522Z,69901,0.36083984,-0.7977295,0.4453125
1725948957567,2024-09-10T06:15:57.567Z,69946,0.40734863,-0.8198242,0.43359375
1725948957614,2024-09-10T06:15:57.614Z,69993,0.37286377,-0.82611084,0.41656494
1725948957657,2024-09-10T06:15:57.657Z,70036,0.34729004,-0.82666016,0.45428467
1725948957703,2024-09-10T06:15:57.703Z,70082,0.36132812,-0.82940674,0.45465088
1725948957748,2024-09-10T06:15:57.748Z,70127,0.36102295,-0.8249512,0.42236328
1725948957793,2024-09-10T06:15:57.793Z,70172,0.36358643,-0.82580566,0.41833496
1725948957810,2024-09-10T06:15:57.810Z,70189,0.35101318,-0.82525635,0.42785645
1725948957834,2024-09-10T06:15:57.834Z,70213,0.3647461,-0.8189087,0.44158936
1725948957881,2024-09-10T06:15:57.881Z,70260,0.37664795,-0.8156738,0.42108154
1725948957926,2024-09-10T06:15:57.926Z,70305,0.35772705,-0.80389404,0.41656494
1725948957973,2024-09-10T06:15:57.973Z,70352,0.3630371,-0.80010986,0.4138794
1725948958018,2024-09-10T06:15:58.018Z,70397,0.3690796,-0.80999756,0.40759277
1725948958063,2024-09-10T06:15:58.063Z,70442,0.350708,-0.81921387,0.43200684
1725948958151,2024-09-10T06:15:58.151Z,70530,0.34625244,-0.83929443,0.4613037
1725948958173,2024-09-10T06:15:58.173Z,70552,0.3328247,-0.83807373,0.44384766
1725948958195,2024-09-10T06:15:58.195Z,70574,0.32867432,-0.8598633,0.41052246
1725948958211,2024-09-10T06:15:58.211Z,70590,0.3423462,-0.8885498,0.42266846
1725948958237,2024-09-10T06:15:58.237Z,70616,0.35095215,-0.9020386,0.44091797
1725948958286,2024-09-10T06:15:58.286Z,70665,0.32391357,-0.8880615,0.4071045
1725948958331,2024-09-10T06:15:58.331Z,70710,0.30169678,-0.87609863,0.36413574
1725948958378,2024-09-10T06:15:58.378Z,70757,0.269104,-0.871521,0.34814453
1725948958421,2024-09-10T06:15:58.421Z,70800,0.23504639,-0.8777466,0.33294678
1725948958467,2024-09-10T06:15:58.467Z,70846,0.20526123,-0.90283203,0.31445312
1725948958512,2024-09-10T06:15:58.512Z,70891,0.22155762,-0.95770264,0.3843994
1725948958555,2024-09-10T06:15:58.555Z,70934,0.18536377,-1.0041504,0.46826172
1725948958602,2024-09-10T06:15:58.602Z,70981,0.13647461,-0.9979248,0.44396973
1725948958646,2024-09-10T06:15:58.646Z,71025,0.11584473,-0.9456787,0.32611084
1725948958665,2024-09-10T06:15:58.665Z,71044,0.15814209,-0.920105,0.3067627
1725948958690,2024-09-10T06:15:58.690Z,71069,0.16394043,-0.89404297,0.34100342
1725948958735,2024-09-10T06:15:58.735Z,71114,0.11315918,-0.9266968,0.37316895
1725948958782,2024-09-10T06:15:58.782Z,71161,-0.0061035156,-0.97003174,0.39898682
1725948958829,2024-09-10T06:15:58.829Z,71208,0.06311035,-0.96673584,0.41223145
1725948958872,2024-09-10T06:15:58.872Z,71251,0.06896973,-1.0266113,0.40283203
1725948958917,2024-09-10T06:15:58.917Z,71296,0.017028809,-0.98773193,0.42541504
1725948958963,2024-09-10T06:15:58.963Z,71342,-0.014160156,-0.9810791,0.402771
1725948959052,2024-09-10T06:15:59.052Z,71431,-0.047790527,-0.96484375,0.38067627
1725948959073,2024-09-10T06:15:59.073Z,71452,-0.15545654,-0.92596436,0.28936768
1725948959093,2024-09-10T06:15:59.093Z,71472,-0.20953369,-0.8798828,0.30499268
1725948959111,2024-09-10T06:15:59.111Z,71490,-0.18774414,-0.8770752,0.38720703
1725948959141,2024-09-10T06:15:59.141Z,71520,-0.080322266,-0.8847046,0.34625244
1725948959186,2024-09-10T06:15:59.186Z,71565,-0.13092041,-0.90515137,0.32312012
1725948959278,2024-09-10T06:15:59.278Z,71657,-0.21673584,-0.91748047,0.3242798
1725948959296,2024-09-10T06:15:59.296Z,71675,-0.27954102,-0.9296875,0.2822876
1725948959318,2024-09-10T06:15:59.318Z,71697,-0.25146484,-0.8875122,0.29736328
1725948959412,2024-09-10T06:15:59.412Z,71791,-0.19378662,-0.8935547,0.387146
1725948959430,2024-09-10T06:15:59.430Z,71809,-0.19055176,-0.9008789,0.34631348
1725948959454,2024-09-10T06:15:59.454Z,71833,-0.21234131,-0.90008545,0.22418213
1725948959501,2024-09-10T06:15:59.501Z,71880,-0.22045898,-0.88238525,0.24841309
1725948959518,2024-09-10T06:15:59.518Z,71897,-0.28552246,-0.83428955,0.39331055
1725948959545,2024-09-10T06:15:59.545Z,71924,-0.27960205,-0.8274536,0.347229
1725948959635,2024-09-10T06:15:59.635Z,72014,-0.26446533,-0.8599243,0.2453003
1725948959653,2024-09-10T06:15:59.653Z,72032,-0.25756836,-0.8721924,0.26348877
1725948959679,2024-09-10T06:15:59.679Z,72058,-0.31744385,-0.86016846,0.3571167
1725948959726,2024-09-10T06:15:59.726Z,72105,-0.31195068,-0.9036255,0.30603027
1725948959770,2024-09-10T06:15:59.770Z,72149,-0.28277588,-0.9143677,0.23803711
1725948959818,2024-09-10T06:15:59.818Z,72197,-0.28027344,-0.8773804,0.24658203
1725948959860,2024-09-10T06:15:59.860Z,72239,-0.30065918,-0.8457031,0.2553711
1725948959904,2024-09-10T06:15:59.904Z,72283,-0.27825928,-0.86450195,0.14123535
1725948959923,2024-09-10T06:15:59.923Z,72302,-0.28356934,-0.8876343,0.18518066
1725948959950,2024-09-10T06:15:59.950Z,72329,-0.34179688,-0.89282227,0.29736328
1725948959995,2024-09-10T06:15:59.995Z,72374,-0.30023193,-0.90441895,0.2841797
1725948960040,2024-09-10T06:16:00.040Z,72419,-0.29022217,-0.87561035,0.2366333
1725948960090,2024-09-10T06:16:00.090Z,72469,-0.30529785,-0.8540039,0.23760986
1725948960224,2024-09-10T06:16:00.224Z,72603,-0.32177734,-0.8189087,0.26287842
1725948960250,2024-09-10T06:16:00.250Z,72629,-0.2758789,-0.8909302,0.16351318
1725948960273,2024-09-10T06:16:00.273Z,72652,-0.2545166,-0.960083,0.10076904
1725948960292,2024-09-10T06:16:00.292Z,72671,-0.26904297,-0.89471436,0.2850952
1725948960318,2024-09-10T06:16:00.318Z,72697,-0.25073242,-0.84259033,0.3996582
1725948960333,2024-09-10T06:16:00.333Z,72712,-0.27990723,-0.85388184,0.31652832
1725948960359,2024-09-10T06:16:00.359Z,72738,-0.2678833,-0.8395996,0.21264648
1725948960400,2024-09-10T06:16:00.400Z,72779,-0.2019043,-0.876709,0.17687988
1725948960446,2024-09-10T06:16:00.446Z,72825,-0.18664551,-0.83374023,0.348938
1725948960491,2024-09-10T06:16:00.491Z,72870,-0.18334961,-0.8418579,0.34802246
1725948960537,2024-09-10T06:16:00.537Z,72916,-0.23120117,-0.8720703,0.25134277
1725948960582,2024-09-10T06:16:00.582Z,72961,-0.24304199,-0.8789673,0.19683838
1725948960625,2024-09-10T06:16:00.625Z,73004,-0.15734863,-0.87750244,0.22216797
1725948960672,2024-09-10T06:16:00.672Z,73051,-0.11462402,-0.8701172,0.2670288
1725948960718,2024-09-10T06:16:00.718Z,73097,-0.15533447,-0.8410034,0.286438
1725948960736,2024-09-10T06:16:00.736Z,73115,-0.22467041,-0.767334,0.27734375
1725948960759,2024-09-10T06:16:00.759Z,73138,-0.17767334,-0.79473877,0.12896729
1725948960817,2024-09-10T06:16:00.817Z,73196,-0.14892578,-0.85668945,0.12835693
1725948960853,2024-09-10T06:16:00.853Z,73232,-0.12634277,-0.8787842,0.26080322
1725948960941,2024-09-10T06:16:00.941Z,73320,-0.18041992,-0.90844727,0.2699585
1725948960960,2024-09-10T06:16:00.960Z,73339,-0.2987671,-0.9289551,0.17633057
1725948960985,2024-09-10T06:16:00.985Z,73364,-0.25024414,-0.9483032,0.1375122
1725948961031,2024-09-10T06:16:01.031Z,73410,-0.2520752,-0.9158325,0.3526001
1725948961121,2024-09-10T06:16:01.121Z,73500,-0.18963623,-0.9086304,0.36706543
1725948961140,2024-09-10T06:16:01.140Z,73519,-0.20629883,-0.86834717,0.22747803
1725948961159,2024-09-10T06:16:01.159Z,73538,-0.1652832,-0.8925781,0.12310791
1725948961178,2024-09-10T06:16:01.178Z,73557,-0.17327881,-0.90356445,0.24041748
1725948961257,2024-09-10T06:16:01.257Z,73636,-0.09197998,-0.9736328,0.26660156
1725948961274,2024-09-10T06:16:01.274Z,73653,-0.16070557,-1.0045166,0.29077148
1725948961308,2024-09-10T06:16:01.308Z,73687,-0.1765747,-1.0707397,0.22174072
1725948961345,2024-09-10T06:16:01.345Z,73724,-0.14331055,-1.0949097,0.25891113
1725948961392,2024-09-10T06:16:01.392Z,73771,-0.10241699,-1.0813599,0.31115723
1725948961439,2024-09-10T06:16:01.439Z,73818,1.8310547E-4,-1.0562134,0.22564697
1725948961491,2024-09-10T06:16:01.491Z,73870,-0.04034424,-1.0182495,0.25164795
1725948961524,2024-09-10T06:16:01.524Z,73903,-0.043701172,-1.0090332,0.2781372
1725948961572,2024-09-10T06:16:01.572Z,73951,-0.009033203,-1.0161743,0.35290527
1725948961591,2024-09-10T06:16:01.591Z,73970,0.017700195,-1.0076294,0.37304688
1725948961617,2024-09-10T06:16:01.617Z,73996,0.055419922,-1.0046997,0.2598877
1725948961660,2024-09-10T06:16:01.660Z,74039,0.034057617,-0.96899414,0.3131714
1725948961706,2024-09-10T06:16:01.706Z,74085,0.084350586,-0.95196533,0.34985352
1725948961751,2024-09-10T06:16:01.751Z,74130,0.1774292,-0.95892334,0.3043213
1725948961795,2024-09-10T06:16:01.795Z,74174,0.19598389,-0.9526367,0.3400879
1725948961842,2024-09-10T06:16:01.842Z,74221,0.19171143,-0.95928955,0.37023926
1725948961888,2024-09-10T06:16:01.888Z,74267,0.2119751,-0.9282837,0.41912842
1725948961932,2024-09-10T06:16:01.932Z,74311,0.26733398,-0.8996582,0.39562988
1725948961976,2024-09-10T06:16:01.976Z,74355,0.27526855,-0.8673096,0.3513794
1725948961995,2024-09-10T06:16:01.995Z,74374,0.3151245,-0.84155273,0.3805542
1725948962020,2024-09-10T06:16:02.020Z,74399,0.371521,-0.8222046,0.3807373
1725948962065,2024-09-10T06:16:02.065Z,74444,0.35931396,-0.7920532,0.4414673
1725948962111,2024-09-10T06:16:02.111Z,74490,0.36975098,-0.7984009,0.44750977
1725948962157,2024-09-10T06:16:02.157Z,74536,0.36291504,-0.8048096,0.4675293
1725948962250,2024-09-10T06:16:02.250Z,74629,0.4041748,-0.8225708,0.47528076
1725948962272,2024-09-10T06:16:02.272Z,74651,0.41467285,-0.8040161,0.4958496
1725948962295,2024-09-10T06:16:02.295Z,74674,0.4083252,-0.77349854,0.4831543
1725948962335,2024-09-10T06:16:02.335Z,74714,0.41729736,-0.7283325,0.46691895
1725948962382,2024-09-10T06:16:02.382Z,74761,0.42510986,-0.7105713,0.49090576
1725948962426,2024-09-10T06:16:02.426Z,74805,0.41333008,-0.6992798,0.564209
1725948962443,2024-09-10T06:16:02.443Z,74822,0.42614746,-0.6824951,0.61657715
1725948962470,2024-09-10T06:16:02.470Z,74849,0.43249512,-0.66845703,0.55651855
1725948962517,2024-09-10T06:16:02.517Z,74896,0.45721436,-0.6658325,0.56365967
1725948962561,2024-09-10T06:16:02.561Z,74940,0.44555664,-0.6531372,0.59484863
1725948962608,2024-09-10T06:16:02.608Z,74987,0.47418213,-0.63513184,0.60028076
1725948962652,2024-09-10T06:16:02.652Z,75031,0.49749756,-0.6448364,0.59716797
1725948962698,2024-09-10T06:16:02.698Z,75077,0.48101807,-0.65618896,0.55322266
1725948962744,2024-09-10T06:16:02.744Z,75123,0.46600342,-0.67211914,0.5839844
1725948962788,2024-09-10T06:16:02.788Z,75167,0.4779663,-0.69781494,0.5536499
1725948962831,2024-09-10T06:16:02.831Z,75210,0.48565674,-0.7191162,0.5285034
1725948962850,2024-09-10T06:16:02.850Z,75229,0.48486328,-0.7092285,0.50250244
1725948962878,2024-09-10T06:16:02.878Z,75257,0.46392822,-0.6838989,0.49438477
1725948962922,2024-09-10T06:16:02.922Z,75301,0.48016357,-0.663208,0.47607422
1725948962967,2024-09-10T06:16:02.967Z,75346,0.49371338,-0.6793823,0.4920044
1725948963015,2024-09-10T06:16:03.015Z,75394,0.49108887,-0.7033081,0.44683838
1725948963057,2024-09-10T06:16:03.057Z,75436,0.4703369,-0.72039795,0.47576904
1725948963146,2024-09-10T06:16:03.146Z,75525,0.4708252,-0.71154785,0.48632812
1725948963165,2024-09-10T06:16:03.165Z,75544,0.46203613,-0.6913452,0.4923706
1725948963190,2024-09-10T06:16:03.190Z,75569,0.46105957,-0.68927,0.49176025
1725948963252,2024-09-10T06:16:03.252Z,75631,0.46417236,-0.69866943,0.4866333
1725948963269,2024-09-10T06:16:03.269Z,75648,0.45422363,-0.7015991,0.49572754
1725948963292,2024-09-10T06:16:03.292Z,75671,0.4413452,-0.7022095,0.4631958
1725948963326,2024-09-10T06:16:03.326Z,75705,0.4414673,-0.69885254,0.46636963
1725948963371,2024-09-10T06:16:03.371Z,75750,0.44177246,-0.7044678,0.51501465
1725948963417,2024-09-10T06:16:03.417Z,75796,0.4397583,-0.7182617,0.47479248
1725948963464,2024-09-10T06:16:03.464Z,75843,0.4390869,-0.7462158,0.49798584
1725948963509,2024-09-10T06:16:03.509Z,75888,0.46374512,-0.7940674,0.5151367
1725948963557,2024-09-10T06:16:03.557Z,75936,0.47540283,-0.81225586,0.48846436
1725948963597,2024-09-10T06:16:03.597Z,75976,0.45715332,-0.8023071,0.57476807
1725948963643,2024-09-10T06:16:03.643Z,76022,0.44732666,-0.829895,0.5584717
1725948963687,2024-09-10T06:16:03.687Z,76066,0.38568115,-0.873291,0.5336304
1725948963704,2024-09-10T06:16:03.704Z,76083,0.29742432,-0.93688965,0.52349854
1725948963738,2024-09-10T06:16:03.738Z,76117,0.3121338,-0.92285156,0.5463867
1725948963774,2024-09-10T06:16:03.774Z,76153,0.34313965,-0.86968994,0.48858643
1725948963821,2024-09-10T06:16:03.821Z,76200,0.29711914,-0.8345337,0.44317627
1725948963865,2024-09-10T06:16:03.865Z,76244,0.29211426,-0.8070679,0.43530273
1725948963910,2024-09-10T06:16:03.910Z,76289,0.31048584,-0.8126831,0.44909668
1725948963955,2024-09-10T06:16:03.955Z,76334,0.27600098,-0.8763428,0.4126587
1725948963998,2024-09-10T06:16:03.998Z,76377,0.1749878,-0.8885498,0.5340576
1725948964045,2024-09-10T06:16:04.045Z,76424,0.09326172,-0.8937378,0.66589355
1725948964092,2024-09-10T06:16:04.092Z,76471,0.03112793,-0.96990967,0.63861084
1725948964110,2024-09-10T06:16:04.110Z,76489,-0.0017700195,-1.0134888,0.5930786
1725948964135,2024-09-10T06:16:04.135Z,76514,0.08691406,-1.0314331,0.3798828
1725948964180,2024-09-10T06:16:04.180Z,76559,0.08282471,-0.93621826,0.28631592
1725948964227,2024-09-10T06:16:04.227Z,76606,-0.056274414,-0.88342285,0.46374512
1725948964271,2024-09-10T06:16:04.271Z,76650,-0.011291504,-0.8406372,0.47406006
1725948964315,2024-09-10T06:16:04.315Z,76694,0.032470703,-0.8249512,0.4633789
1725948964361,2024-09-10T06:16:04.361Z,76740,0.0256958,-0.798584,0.4616089
1725948964406,2024-09-10T06:16:04.406Z,76785,-0.06903076,-0.795105,0.4277954
1725948964451,2024-09-10T06:16:04.451Z,76830,-0.12097168,-0.80474854,0.3399048
1725948964498,2024-09-10T06:16:04.498Z,76877,-0.2020874,-0.8308716,0.3371582
1725948964519,2024-09-10T06:16:04.519Z,76898,-0.19750977,-0.8360596,0.43078613
1725948964588,2024-09-10T06:16:04.588Z,76967,-0.22216797,-0.8945923,0.30334473
1725948964607,2024-09-10T06:16:04.607Z,76986,-0.3024292,-0.8424072,0.29797363
1725948964627,2024-09-10T06:16:04.627Z,77006,-0.27197266,-0.776062,0.38342285
1725948964675,2024-09-10T06:16:04.675Z,77054,-0.2709961,-0.74572754,0.4371338
1725948964723,2024-09-10T06:16:04.723Z,77102,-0.25994873,-0.7831421,0.40350342
1725948964767,2024-09-10T06:16:04.767Z,77146,-0.22796631,-0.8106079,0.34869385
1725948964816,2024-09-10T06:16:04.816Z,77195,-0.20092773,-0.78948975,0.34295654
1725948964857,2024-09-10T06:16:04.857Z,77236,-0.21704102,-0.7961426,0.36639404
1725948964903,2024-09-10T06:16:04.903Z,77282,-0.21923828,-0.8288574,0.3632202
1725948964949,2024-09-10T06:16:04.949Z,77328,-0.25219727,-0.85943604,0.34838867
1725948964967,2024-09-10T06:16:04.967Z,77346,-0.17547607,-0.87579346,0.33068848
1725948964990,2024-09-10T06:16:04.990Z,77369,-0.21008301,-0.80340576,0.43414307
1725948965035,2024-09-10T06:16:05.035Z,77414,-0.23291016,-0.8237915,0.38220215
1725948965083,2024-09-10T06:16:05.083Z,77462,-0.2984619,-0.80908203,0.38085938
1725948965130,2024-09-10T06:16:05.130Z,77509,-0.26135254,-0.772583,0.4262085
1725948965174,2024-09-10T06:16:05.174Z,77553,-0.19464111,-0.7661133,0.41949463
1725948965216,2024-09-10T06:16:05.216Z,77595,-0.19073486,-0.82910156,0.36035156
1725948965262,2024-09-10T06:16:05.262Z,77641,-0.24871826,-0.8456421,0.38336182
1725948965349,2024-09-10T06:16:05.349Z,77728,-0.2821045,-0.86157227,0.4053955
1725948965408,2024-09-10T06:16:05.408Z,77787,-0.31292725,-0.82281494,0.47576904
1725948965430,2024-09-10T06:16:05.430Z,77809,-0.27453613,-0.803772,0.47698975
1725948965448,2024-09-10T06:16:05.448Z,77827,-0.2593994,-0.8342285,0.3475952
1725948965464,2024-09-10T06:16:05.464Z,77843,-0.21685791,-0.76776123,0.34197998
1725948965484,2024-09-10T06:16:05.484Z,77863,-0.19165039,-0.7687988,0.2689209
1725948965539,2024-09-10T06:16:05.539Z,77918,-0.21716309,-0.77160645,0.30688477
1725948965577,2024-09-10T06:16:05.577Z,77956,-0.28375244,-0.76794434,0.34490967
1725948965625,2024-09-10T06:16:05.625Z,78004,-0.24291992,-0.80426025,0.31750488
1725948965668,2024-09-10T06:16:05.668Z,78047,-0.25341797,-0.8043213,0.36590576
1725948965802,2024-09-10T06:16:05.802Z,78181,-0.2822876,-0.84191895,0.32989502
1725948965822,2024-09-10T06:16:05.822Z,78201,-0.26745605,-0.83917236,0.32769775
1725948965840,2024-09-10T06:16:05.840Z,78219,-0.19836426,-0.89923096,0.28619385
1725948965857,2024-09-10T06:16:05.857Z,78236,-0.24365234,-0.8876343,0.37402344
1725948965869,2024-09-10T06:16:05.869Z,78248,-0.26208496,-0.92456055,0.35913086
1725948965888,2024-09-10T06:16:05.888Z,78267,-0.23834229,-0.89727783,0.42681885
1725948965934,2024-09-10T06:16:05.934Z,78313,-0.20996094,-0.94244385,0.38275146
1725948965982,2024-09-10T06:16:05.982Z,78361,-0.23901367,-0.9343262,0.38726807
1725948966025,2024-09-10T06:16:06.025Z,78404,-0.23187256,-0.96746826,0.33642578
1725948966072,2024-09-10T06:16:06.072Z,78451,-0.12805176,-0.9749756,0.3279419
1725948966117,2024-09-10T06:16:06.117Z,78496,-0.06768799,-1.012146,0.33685303
1725948966159,2024-09-10T06:16:06.159Z,78538,-0.051208496,-1.0090942,0.38116455
1725948966207,2024-09-10T06:16:06.207Z,78586,-0.016052246,-1.0531616,0.34490967
1725948966223,2024-09-10T06:16:06.223Z,78602,0.026733398,-1.0418091,0.39282227
1725948966251,2024-09-10T06:16:06.251Z,78630,-0.009765625,-0.97210693,0.4625244
1725948966296,2024-09-10T06:16:06.296Z,78675,-0.040893555,-0.96746826,0.3873291
1725948966386,2024-09-10T06:16:06.386Z,78765,-0.055725098,-0.9215088,0.3515625
1725948966405,2024-09-10T06:16:06.405Z,78784,-0.0357666,-0.83081055,0.3289795
1725948966450,2024-09-10T06:16:06.450Z,78829,0.053649902,-0.8520508,0.1862793
1725948966475,2024-09-10T06:16:06.475Z,78854,0.15386963,-0.98986816,0.0927124
1725948966519,2024-09-10T06:16:06.519Z,78898,0.08917236,-1.0842896,0.3421631
1725948966566,2024-09-10T06:16:06.566Z,78945,0.0713501,-1.0697021,0.38641357
1725948966613,2024-09-10T06:16:06.613Z,78992,0.12762451,-1.0111084,0.2816162
1725948966630,2024-09-10T06:16:06.630Z,79009,0.22961426,-0.9550781,0.25634766
1725948966656,2024-09-10T06:16:06.656Z,79035,0.25201416,-0.90667725,0.30230713
1725948966699,2024-09-10T06:16:06.699Z,79078,0.23254395,-0.9279785,0.30426025
1725948966746,2024-09-10T06:16:06.746Z,79125,0.19189453,-0.97039795,0.2798462
1725948966793,2024-09-10T06:16:06.793Z,79172,0.25671387,-1.0109863,0.22064209
1725948966837,2024-09-10T06:16:06.837Z,79216,0.2998047,-0.9804077,0.26574707
1725948966883,2024-09-10T06:16:06.883Z,79262,0.2935791,-0.9262085,0.28137207
1725948966927,2024-09-10T06:16:06.927Z,79306,0.26330566,-0.8841553,0.2555542
1725948966970,2024-09-10T06:16:06.970Z,79349,0.29040527,-0.8828125,0.22857666
1725948967017,2024-09-10T06:16:07.017Z,79396,0.3008423,-0.8979492,0.28204346
1725948967035,2024-09-10T06:16:07.035Z,79414,0.29101562,-0.9180908,0.2944336
1725948967061,2024-09-10T06:16:07.061Z,79440,0.28198242,-0.92889404,0.260437
1725948967107,2024-09-10T06:16:07.107Z,79486,0.27508545,-0.93182373,0.26434326
1725948967151,2024-09-10T06:16:07.151Z,79530,0.25775146,-0.93115234,0.26428223
1725948967198,2024-09-10T06:16:07.198Z,79577,0.21954346,-0.9197998,0.28588867
1725948967252,2024-09-10T06:16:07.252Z,79631,0.23840332,-0.9135132,0.25500488
1725948967285,2024-09-10T06:16:07.285Z,79664,0.25787354,-0.9065552,0.2565918
1725948967331,2024-09-10T06:16:07.331Z,79710,0.2345581,-0.8997803,0.30688477
1725948967375,2024-09-10T06:16:07.375Z,79754,0.23254395,-0.8977051,0.31488037
1725948967429,2024-09-10T06:16:07.429Z,79808,0.23864746,-0.89764404,0.2775879
1725948967445,2024-09-10T06:16:07.445Z,79824,0.23364258,-0.90301514,0.25823975
1725948967461,2024-09-10T06:16:07.461Z,79840,0.23040771,-0.9069824,0.2796631
1725948967510,2024-09-10T06:16:07.510Z,79889,0.23956299,-0.90948486,0.2890625
1725948967556,2024-09-10T06:16:07.556Z,79935,0.23321533,-0.9043579,0.29870605
1725948967602,2024-09-10T06:16:07.602Z,79981,0.22088623,-0.8963623,0.27752686
1725948967648,2024-09-10T06:16:07.648Z,80027,0.22595215,-0.8987427,0.29162598
1725948967690,2024-09-10T06:16:07.690Z,80069,0.23687744,-0.901001,0.32348633
1725948967736,2024-09-10T06:16:07.736Z,80115,0.23718262,-0.8989258,0.3295288
1725948967782,2024-09-10T06:16:07.782Z,80161,0.23303223,-0.8932495,0.3326416
1725948967824,2024-09-10T06:16:07.824Z,80203,0.23815918,-0.897522,0.31854248
1725948967870,2024-09-10T06:16:07.870Z,80249,0.22625732,-0.9121094,0.32452393
1725948967885,2024-09-10T06:16:07.885Z,80264,0.2286377,-0.96569824,0.3314209
1725948967917,2024-09-10T06:16:07.917Z,80296,0.27246094,-1.0578003,0.34344482
1725948967964,2024-09-10T06:16:07.964Z,80343,0.26635742,-1.0734253,0.39349365
1725948968008,2024-09-10T06:16:08.008Z,80387,0.17565918,-1.0358887,0.41119385
1725948968052,2024-09-10T06:16:08.052Z,80431,0.14031982,-0.9674072,0.36138916
1725948968096,2024-09-10T06:16:08.096Z,80475,0.21520996,-0.9814453,0.27435303
1725948968142,2024-09-10T06:16:08.142Z,80521,0.19299316,-0.9942627,0.35931396
1725948968186,2024-09-10T06:16:08.186Z,80565,0.15838623,-1.0319214,0.39630127
1725948968231,2024-09-10T06:16:08.231Z,80610,0.05505371,-1.0350342,0.48547363
1725948968278,2024-09-10T06:16:08.278Z,80657,-1.2207031E-4,-1.0288086,0.49609375
1725948968298,2024-09-10T06:16:08.298Z,80677,0.09588623,-1.019165,0.31689453
1725948968322,2024-09-10T06:16:08.322Z,80701,0.12695312,-0.95092773,0.24273682
1725948968366,2024-09-10T06:16:08.366Z,80745,-0.043884277,-0.85406494,0.28778076
1725948968411,2024-09-10T06:16:08.411Z,80790,-0.10119629,-0.8018799,0.25280762
1725948968458,2024-09-10T06:16:08.458Z,80837,0.006591797,-0.8317871,0.27764893
1725948968501,2024-09-10T06:16:08.501Z,80880,0.08569336,-0.8814697,0.3649292
1725948968546,2024-09-10T06:16:08.546Z,80925,0.014282227,-0.9567261,0.33447266
1725948968593,2024-09-10T06:16:08.593Z,80972,-0.06951904,-0.99731445,0.26715088
1725948968636,2024-09-10T06:16:08.636Z,81015,-0.16827393,-0.9891968,0.22290039
1725948968680,2024-09-10T06:16:08.680Z,81059,-0.09857178,-0.95458984,0.24267578
1725948968726,2024-09-10T06:16:08.726Z,81105,0.024719238,-0.93640137,0.25134277
1725948968744,2024-09-10T06:16:08.744Z,81123,-0.049621582,-0.9133911,0.32678223
1725948968770,2024-09-10T06:16:08.770Z,81149,-0.2364502,-0.9121704,0.3708496
1725948968817,2024-09-10T06:16:08.817Z,81196,-0.16186523,-0.9293823,0.1887207
1725948968862,2024-09-10T06:16:08.862Z,81241,-0.11401367,-0.9138794,0.17456055
1725948968907,2024-09-10T06:16:08.907Z,81286,-0.1696167,-0.9086304,0.331604
1725948968952,2024-09-10T06:16:08.952Z,81331,-0.2043457,-0.9126587,0.35949707
1725948968995,2024-09-10T06:16:08.995Z,81374,-0.21081543,-0.90515137,0.28851318
1725948969047,2024-09-10T06:16:09.047Z,81426,-0.22955322,-0.8512573,0.33520508
1725948969085,2024-09-10T06:16:09.085Z,81464,-0.23675537,-0.8118286,0.31622314
1725948969131,2024-09-10T06:16:09.131Z,81510,-0.23535156,-0.80303955,0.22753906
1725948969146,2024-09-10T06:16:09.146Z,81525,-0.2574463,-0.79870605,0.30480957
1725948969175,2024-09-10T06:16:09.175Z,81554,-0.2730713,-0.8440552,0.28375244
1725948969221,2024-09-10T06:16:09.221Z,81600,-0.27301025,-0.85388184,0.26416016
1725948969266,2024-09-10T06:16:09.266Z,81645,-0.25183105,-0.8707886,0.26293945
1725948969310,2024-09-10T06:16:09.310Z,81689,-0.24090576,-0.87701416,0.26202393
1725948969357,2024-09-10T06:16:09.357Z,81736,-0.2522583,-0.92736816,0.20739746
1725948969401,2024-09-10T06:16:09.401Z,81780,-0.29431152,-0.9547119,0.24865723
1725948969446,2024-09-10T06:16:09.446Z,81825,-0.26324463,-0.9359741,0.34661865
1725948969491,2024-09-10T06:16:09.491Z,81870,-0.23242188,-0.9680176,0.2730713
1725948969536,2024-09-10T06:16:09.536Z,81915,-0.23504639,-0.95202637,0.19342041
1725948969553,2024-09-10T06:16:09.553Z,81932,-0.21246338,-0.8808594,0.24584961
1725948969580,2024-09-10T06:16:09.580Z,81959,-0.16619873,-0.8654175,0.25946045
1725948969672,2024-09-10T06:16:09.672Z,82051,-0.13140869,-0.86083984,0.2678833
1725948969689,2024-09-10T06:16:09.689Z,82068,-0.12322998,-0.87841797,0.28424072
1725948969738,2024-09-10T06:16:09.738Z,82117,-0.10046387,-0.91430664,0.2617798
1725948969759,2024-09-10T06:16:09.759Z,82138,-0.07965088,-0.8777466,0.3414917
1725948969805,2024-09-10T06:16:09.805Z,82184,-0.08258057,-0.8805542,0.34588623
1725948969851,2024-09-10T06:16:09.851Z,82230,-0.123168945,-0.90686035,0.30273438
1725948969895,2024-09-10T06:16:09.895Z,82274,-0.066223145,-0.89172363,0.31304932
1725948970046,2024-09-10T06:16:10.046Z,82425,-0.032348633,-0.9053345,0.35662842
1725948970067,2024-09-10T06:16:10.067Z,82446,-0.052856445,-0.9505005,0.3748169
1725948970086,2024-09-10T06:16:10.086Z,82465,-0.076538086,-0.9850464,0.39318848
1725948970098,2024-09-10T06:16:10.098Z,82477,-0.07659912,-0.9744873,0.41625977
1725948970109,2024-09-10T06:16:10.109Z,82488,-0.043762207,-0.95233154,0.40515137
1725948970120,2024-09-10T06:16:10.120Z,82499,-0.079956055,-0.951355,0.37817383
1725948970208,2024-09-10T06:16:10.208Z,82587,-0.15692139,-0.92181396,0.3718872
1725948970216,2024-09-10T06:16:10.216Z,82595,-0.16345215,-0.84954834,0.3626709
1725948970298,2024-09-10T06:16:10.298Z,82677,-0.13598633,-0.8164673,0.32507324
1725948970306,2024-09-10T06:16:10.306Z,82685,-0.14630127,-0.82598877,0.35040283
1725948970347,2024-09-10T06:16:10.347Z,82726,-0.1765747,-0.8577881,0.36499023
1725948970391,2024-09-10T06:16:10.391Z,82770,-0.17102051,-0.887146,0.34088135
1725948970406,2024-09-10T06:16:10.406Z,82785,-0.15637207,-0.9059448,0.32666016
1725948970435,2024-09-10T06:16:10.435Z,82814,-0.14233398,-0.89367676,0.35565186
1725948970480,2024-09-10T06:16:10.480Z,82859,-0.16241455,-0.9215088,0.39239502
1725948970528,2024-09-10T06:16:10.528Z,82907,-0.14849854,-0.93927,0.41625977
1725948970620,2024-09-10T06:16:10.620Z,82999,-0.074157715,-0.8845215,0.41107178
1725948970640,2024-09-10T06:16:10.640Z,83019,-0.07043457,-0.8145752,0.38763428
1725948970661,2024-09-10T06:16:10.661Z,83040,-0.107421875,-0.75,0.32183838
1725948970753,2024-09-10T06:16:10.753Z,83132,-0.10821533,-0.76379395,0.253479
1725948970770,2024-09-10T06:16:10.770Z,83149,-0.043273926,-0.79034424,0.29327393
1725948970794,2024-09-10T06:16:10.794Z,83173,-0.03515625,-0.8488159,0.3821411
1725948970806,2024-09-10T06:16:10.806Z,83185,-0.15991211,-0.86517334,0.40118408
1725948970840,2024-09-10T06:16:10.840Z,83219,-0.16308594,-0.7965088,0.33984375
1725948970930,2024-09-10T06:16:10.930Z,83309,-0.15118408,-0.7749634,0.2828369
1725948970947,2024-09-10T06:16:10.947Z,83326,-0.08178711,-0.7560425,0.29400635
1725948970975,2024-09-10T06:16:10.975Z,83354,-0.07904053,-0.83929443,0.2828369
1725948971019,2024-09-10T06:16:11.019Z,83398,-0.17462158,-0.8562012,0.38720703
1725948971065,2024-09-10T06:16:11.065Z,83444,-0.2211914,-0.9008179,0.3717041
1725948971158,2024-09-10T06:16:11.158Z,83537,-0.19995117,-0.90930176,0.35565186
1725948971175,2024-09-10T06:16:11.175Z,83554,-0.15411377,-0.878479,0.2956543
1725948971201,2024-09-10T06:16:11.201Z,83580,-0.06506348,-0.95495605,0.10614014
1725948971246,2024-09-10T06:16:11.246Z,83625,-0.14056396,-0.91485596,0.22161865
1725948971262,2024-09-10T06:16:11.262Z,83641,-0.23461914,-0.9810791,0.24169922
1725948971290,2024-09-10T06:16:11.290Z,83669,-0.19470215,-1.1373291,0.15411377
1725948971336,2024-09-10T06:16:11.336Z,83715,-0.2477417,-1.2311401,0.18121338
1725948971381,2024-09-10T06:16:11.381Z,83760,-0.2783203,-1.2502441,0.24456787
1725948971427,2024-09-10T06:16:11.427Z,83806,-0.25195312,-1.2003784,0.22705078
1725948971515,2024-09-10T06:16:11.515Z,83894,-0.26391602,-1.1313477,0.14324951
1725948971532,2024-09-10T06:16:11.532Z,83911,-0.22833252,-1.1499023,0.018615723
1725948971559,2024-09-10T06:16:11.559Z,83938,-0.21777344,-1.0465698,0.11242676
1725948971604,2024-09-10T06:16:11.604Z,83983,-0.113586426,-0.9251709,0.19244385
1725948971651,2024-09-10T06:16:11.651Z,84030,-0.016845703,-0.84906006,0.1973877
1725948971672,2024-09-10T06:16:11.672Z,84051,1.2207031E-4,-0.8503418,0.18151855
1725948971696,2024-09-10T06:16:11.696Z,84075,-0.005126953,-0.8723755,0.18951416
1725948971742,2024-09-10T06:16:11.742Z,84121,0.0040893555,-0.9003296,0.26971436
1725948971786,2024-09-10T06:16:11.786Z,84165,0.045410156,-0.9466553,0.31451416
1725948971831,2024-09-10T06:16:11.831Z,84210,0.10021973,-0.9970703,0.31762695
1725948971877,2024-09-10T06:16:11.877Z,84256,0.13549805,-1.0411987,0.3126831
1725948971920,2024-09-10T06:16:11.920Z,84299,0.15698242,-1.071228,0.3302002
1725948971966,2024-09-10T06:16:11.966Z,84345,0.21600342,-1.0340576,0.34552002
1725948972012,2024-09-10T06:16:12.012Z,84391,0.28552246,-0.97436523,0.27886963
1725948972056,2024-09-10T06:16:12.056Z,84435,0.35375977,-0.9036865,0.23034668
1725948972071,2024-09-10T06:16:12.071Z,84450,0.35961914,-0.8776245,0.24743652
1725948972099,2024-09-10T06:16:12.099Z,84478,0.3178711,-0.8677368,0.30371094
1725948972144,2024-09-10T06:16:12.144Z,84523,0.3267212,-0.88793945,0.3093872
1725948972193,2024-09-10T06:16:12.193Z,84572,0.3604126,-0.91192627,0.29266357
1725948972234,2024-09-10T06:16:12.234Z,84613,0.3355713,-0.90423584,0.32177734
1725948972295,2024-09-10T06:16:12.295Z,84674,0.33911133,-0.8986206,0.3133545
1725948972324,2024-09-10T06:16:12.324Z,84703,0.3595581,-0.8977051,0.29144287
1725948972371,2024-09-10T06:16:12.371Z,84750,0.35040283,-0.9081421,0.2874756
1725948972416,2024-09-10T06:16:12.416Z,84795,0.30133057,-0.9072876,0.30010986
1725948972461,2024-09-10T06:16:12.461Z,84840,0.26281738,-0.89904785,0.3034668
1725948972507,2024-09-10T06:16:12.507Z,84886,0.2672119,-0.90960693,0.26171875
1725948972523,2024-09-10T06:16:12.523Z,84902,0.26782227,-0.9006958,0.2637329
1725948972549,2024-09-10T06:16:12.549Z,84928,0.25012207,-0.87939453,0.256958
1725948972595,2024-09-10T06:16:12.595Z,84974,0.20617676,-0.8687134,0.24853516
1725948972641,2024-09-10T06:16:12.641Z,85020,0.18426514,-0.8911743,0.2571411
1725948972686,2024-09-10T06:16:12.686Z,85065,0.18511963,-0.92907715,0.27722168
1725948972777,2024-09-10T06:16:12.777Z,85156,0.16809082,-0.9597168,0.28778076
1725948972794,2024-09-10T06:16:12.794Z,85173,0.14624023,-0.96661377,0.26739502
1725948972820,2024-09-10T06:16:12.820Z,85199,0.17230225,-0.9680786,0.23590088
1725948972865,2024-09-10T06:16:12.865Z,85244,0.17883301,-0.96099854,0.17419434
1725948972914,2024-09-10T06:16:12.914Z,85293,0.16571045,-0.92388916,0.19024658
1725948972931,2024-09-10T06:16:12.931Z,85310,0.16156006,-0.9100342,0.24743652
1725948972955,2024-09-10T06:16:12.955Z,85334,0.16290283,-0.90515137,0.26397705
1725948973000,2024-09-10T06:16:13Z,85379,0.1854248,-0.94036865,0.13916016
1725948973046,2024-09-10T06:16:13.046Z,85425,0.15740967,-0.96203613,0.107666016
1725948973089,2024-09-10T06:16:13.089Z,85468,0.099731445,-1.0095215,0.15484619
1725948973181,2024-09-10T06:16:13.181Z,85560,0.10369873,-1.033081,0.20611572
1725948973199,2024-09-10T06:16:13.199Z,85578,0.10571289,-1.0246582,0.26068115
1725948973225,2024-09-10T06:16:13.225Z,85604,0.16448975,-0.9553833,0.16442871
1725948973270,2024-09-10T06:16:13.270Z,85649,0.21051025,-0.9343872,0.0059814453
1725948973316,2024-09-10T06:16:13.316Z,85695,0.14294434,-0.9226074,0.2078247
1725948973335,2024-09-10T06:16:13.335Z,85714,0.10211182,-0.97869873,0.06756592
1725948973359,2024-09-10T06:16:13.359Z,85738,0.055908203,-1.062561,-0.07574463
1725948973405,2024-09-10T06:16:13.405Z,85784,0.016479492,-1.097229,0.13256836
1725948973451,2024-09-10T06:16:13.451Z,85830,0.04650879,-1.0939941,0.27520752
1725948973496,2024-09-10T06:16:13.496Z,85875,0.14300537,-1.1668701,0.036499023
1725948973540,2024-09-10T06:16:13.540Z,85919,0.10748291,-1.201416,-0.12335205
1725948973587,2024-09-10T06:16:13.587Z,85966,0.01361084,-1.0985107,-0.06530762
1725948973634,2024-09-10T06:16:13.634Z,86013,0.0041503906,-1.0542603,0.009399414
1725948973676,2024-09-10T06:16:13.676Z,86055,-0.021484375,-1.03125,0.055725098
1725948973720,2024-09-10T06:16:13.720Z,86099,-0.056396484,-0.9986572,0.13226318
1725948973769,2024-09-10T06:16:13.769Z,86148,-0.047180176,-0.97888184,0.20440674
1725948973789,2024-09-10T06:16:13.789Z,86168,-0.08459473,-0.9454346,0.18804932
1725948973812,2024-09-10T06:16:13.812Z,86191,-0.045837402,-0.92248535,0.10144043
1725948973856,2024-09-10T06:16:13.856Z,86235,-0.054870605,-0.85369873,0.07611084
1725948973901,2024-09-10T06:16:13.901Z,86280,-0.026672363,-0.87823486,0.16534424
1725948973946,2024-09-10T06:16:13.946Z,86325,-0.008483887,-0.92767334,0.21392822
1725948973990,2024-09-10T06:16:13.990Z,86369,-0.101135254,-0.977417,0.27856445
1725948974036,2024-09-10T06:16:14.036Z,86415,-0.21502686,-0.99328613,0.2932129
1725948974080,2024-09-10T06:16:14.080Z,86459,-0.25183105,-0.99102783,0.23577881
1725948974169,2024-09-10T06:16:14.169Z,86548,-0.15997314,-0.9875488,0.20129395
1725948974186,2024-09-10T06:16:14.186Z,86565,-0.1786499,-0.9984131,0.20983887
1725948974201,2024-09-10T06:16:14.201Z,86580,-0.30651855,-0.9935913,0.19451904
1725948974216,2024-09-10T06:16:14.216Z,86595,-0.39794922,-0.9460449,0.222229
1725948974266,2024-09-10T06:16:14.266Z,86645,-0.27563477,-0.89630127,0.3182373
1725948974305,2024-09-10T06:16:14.305Z,86684,-0.2220459,-0.85754395,0.2672119
1725948974353,2024-09-10T06:16:14.353Z,86732,-0.26104736,-0.86224365,0.113586426
1725948974487,2024-09-10T06:16:14.487Z,86866,-0.2722168,-0.8554077,0.17626953
1725948974508,2024-09-10T06:16:14.508Z,86887,-0.21612549,-0.8473511,0.30944824
1725948974526,2024-09-10T06:16:14.526Z,86905,-0.25665283,-0.8345337,0.32080078
1725948974549,2024-09-10T06:16:14.549Z,86928,-0.2699585,-0.8461914,0.2692871
1725948974573,2024-09-10T06:16:14.573Z,86952,-0.35339355,-0.7883911,0.35577393
1725948974584,2024-09-10T06:16:14.584Z,86963,-0.19042969,-0.8092041,0.35699463
1725948974624,2024-09-10T06:16:14.624Z,87003,-0.038024902,-0.86901855,0.3330078
1725948974666,2024-09-10T06:16:14.666Z,87045,-0.15283203,-0.8886719,0.36431885
1725948974713,2024-09-10T06:16:14.713Z,87092,-0.28497314,-0.94085693,0.33935547
1725948974756,2024-09-10T06:16:14.756Z,87135,-0.23706055,-0.94421387,0.3192749
1725948974802,2024-09-10T06:16:14.802Z,87181,-0.1652832,-0.9572754,0.31018066
1725948974848,2024-09-10T06:16:14.848Z,87227,-0.18328857,-0.9798584,0.25335693
1725948974890,2024-09-10T06:16:14.890Z,87269,-0.19342041,-0.94592285,0.28936768
1725948974936,2024-09-10T06:16:14.936Z,87315,-0.2098999,-0.90148926,0.2861328
1725948974981,2024-09-10T06:16:14.981Z,87360,-0.18896484,-0.9517822,0.1564331
1725948974995,2024-09-10T06:16:14.995Z,87374,-0.13012695,-0.9345093,0.15252686
1725948975024,2024-09-10T06:16:15.024Z,87403,-0.12365723,-0.9317627,0.20489502
1725948975115,2024-09-10T06:16:15.115Z,87494,-0.18048096,-0.9055786,0.28131104
1725948975129,2024-09-10T06:16:15.129Z,87508,-0.2163086,-0.901062,0.2581787
1725948975208,2024-09-10T06:16:15.208Z,87587,-0.17224121,-0.90844727,0.19787598
1725948975225,2024-09-10T06:16:15.225Z,87604,-0.09307861,-0.8873291,0.18457031
1725948975255,2024-09-10T06:16:15.255Z,87634,-0.076416016,-0.88287354,0.15576172
1725948975296,2024-09-10T06:16:15.296Z,87675,-0.15667725,-0.90515137,0.16119385
1725948975340,2024-09-10T06:16:15.340Z,87719,-0.23236084,-0.8148804,0.34594727
1725948975385,2024-09-10T06:16:15.385Z,87764,-0.28497314,-0.7225952,0.34820557
1725948975433,2024-09-10T06:16:15.433Z,87812,-0.25671387,-0.6899414,0.19171143
1725948975449,2024-09-10T06:16:15.449Z,87828,-0.15722656,-0.74212646,0.117614746
1725948975474,2024-09-10T06:16:15.474Z,87853,-0.16619873,-0.8153076,0.1954956
1725948975520,2024-09-10T06:16:15.520Z,87899,-0.15008545,-0.87701416,0.25567627
1725948975565,2024-09-10T06:16:15.565Z,87944,-0.21722412,-0.9345093,0.24230957
1725948975612,2024-09-10T06:16:15.612Z,87991,-0.21282959,-0.96362305,0.22741699
1725948975657,2024-09-10T06:16:15.657Z,88036,-0.18792725,-0.95703125,0.24438477
1725948975701,2024-09-10T06:16:15.701Z,88080,-0.13824463,-0.9076538,0.20825195
1725948975747,2024-09-10T06:16:15.747Z,88126,-0.15710449,-0.81658936,0.1671753
1725948975792,2024-09-10T06:16:15.792Z,88171,-0.22735596,-0.81085205,0.1638794
1725948975838,2024-09-10T06:16:15.838Z,88217,-0.1651001,-0.7868042,0.20172119
1725948975856,2024-09-10T06:16:15.856Z,88235,-0.10797119,-0.8591919,0.11010742
1725948975880,2024-09-10T06:16:15.880Z,88259,-0.070739746,-0.8500366,0.13140869
1725948975924,2024-09-10T06:16:15.924Z,88303,-0.13000488,-0.93621826,0.21704102
1725948975972,2024-09-10T06:16:15.972Z,88351,-0.1876831,-0.9309082,0.29797363
1725948976016,2024-09-10T06:16:16.016Z,88395,-0.11981201,-1.0095825,0.16894531
1725948976062,2024-09-10T06:16:16.062Z,88441,-0.087646484,-1.0463867,0.18231201
1725948976106,2024-09-10T06:16:16.106Z,88485,-0.12231445,-1.0199585,0.21453857
1725948976151,2024-09-10T06:16:16.151Z,88530,-0.07574463,-1.0331421,0.08605957
1725948976199,2024-09-10T06:16:16.199Z,88578,0.0748291,-1.1346436,0.04473877
1725948976240,2024-09-10T06:16:16.240Z,88619,0.00579834,-1.2081299,0.19140625
1725948976257,2024-09-10T06:16:16.257Z,88636,-0.113586426,-1.1629028,0.3458252
1725948976286,2024-09-10T06:16:16.286Z,88665,-0.09063721,-1.0712891,0.32250977
1725948976330,2024-09-10T06:16:16.330Z,88709,0.22918701,-0.95874023,0.25109863
1725948976376,2024-09-10T06:16:16.376Z,88755,0.42712402,-0.88079834,0.2890625
1725948976422,2024-09-10T06:16:16.422Z,88801,0.37542725,-0.8414917,0.3147583
1725948976465,2024-09-10T06:16:16.465Z,88844,0.3017578,-0.8070679,0.33496094
1725948976510,2024-09-10T06:16:16.510Z,88889,0.2774048,-0.7166748,0.586792
1725948976556,2024-09-10T06:16:16.556Z,88935,0.44055176,-0.64068604,0.5910034
1725948976601,2024-09-10T06:16:16.601Z,88980,0.47955322,-0.5930786,0.05090332
1725948976644,2024-09-10T06:16:16.644Z,89023,0.7305298,-0.33172607,-0.4751587
1725948976690,2024-09-10T06:16:16.690Z,89069,0.73095703,-0.08856201,-0.3710327
1725948976699,2024-09-10T06:16:16.699Z,89078,1.2130737,-0.075927734,-0.008178711
1725948976730,2024-09-10T06:16:16.730Z,89109,1.3383179,-0.07080078,0.14416504
1725948976776,2024-09-10T06:16:16.776Z,89155,1.2524414,0.0033569336,0.16107178
1725948976821,2024-09-10T06:16:16.821Z,89200,1.0742798,0.12915039,-0.068603516
