Timestamp (ms),ISO DateTime,Elapsed Time (ms),Acceleration X,Acceleration Y,Acceleration Z
1725817448675,2024-09-08T17:44:08.675Z,17531,0.089416504,1.0618286,0.18432617
1725817448688,2024-09-08T17:44:08.688Z,17544,0.09259033,1.0467529,0.15979004
1725817448718,2024-09-08T17:44:08.718Z,17574,0.12432861,1.017334,0.1574707
1725817448763,2024-09-08T17:44:08.763Z,17619,0.12878418,0.9818115,0.16064453
1725817448776,2024-09-08T17:44:08.776Z,17632,0.12731934,0.9393921,0.17681885
1725817448805,2024-09-08T17:44:08.805Z,17661,0.12213135,0.90686035,0.19000244
1725817448851,2024-09-08T17:44:08.851Z,17707,0.11810303,0.89105225,0.19354248
1725817448899,2024-09-08T17:44:08.899Z,17755,0.13775635,0.89801025,0.21502686
1725817448945,2024-09-08T17:44:08.945Z,17801,0.1453247,0.9232788,0.23535156
1725817448991,2024-09-08T17:44:08.991Z,17847,0.13415527,0.9249878,0.22912598
1725817449036,2024-09-08T17:44:09.036Z,17892,0.14196777,0.92803955,0.23858643
1725817449084,2024-09-08T17:44:09.084Z,17940,0.15423584,0.93237305,0.26019287
1725817449127,2024-09-08T17:44:09.127Z,17983,0.14654541,0.9352417,0.25878906
1725817449174,2024-09-08T17:44:09.174Z,18030,0.14160156,0.947876,0.24450684
1725817449192,2024-09-08T17:44:09.192Z,18048,0.14672852,0.9797363,0.2578125
1725817449214,2024-09-08T17:44:09.214Z,18070,0.14343262,0.9929199,0.25964355
1725817449261,2024-09-08T17:44:09.261Z,18117,0.13653564,1.0124512,0.2647705
1725817449306,2024-09-08T17:44:09.306Z,18162,0.12963867,1.0217285,0.26397705
1725817449354,2024-09-08T17:44:09.354Z,18210,0.12677002,1.0040894,0.2553711
1725817449396,2024-09-08T17:44:09.396Z,18252,0.11871338,0.99053955,0.24407959
1725817449440,2024-09-08T17:44:09.440Z,18296,0.12860107,0.9869385,0.2333374
1725817449484,2024-09-08T17:44:09.484Z,18340,0.1486206,0.96313477,0.21929932
1725817449532,2024-09-08T17:44:09.532Z,18388,0.14050293,0.9511719,0.21295166
1725817449576,2024-09-08T17:44:09.576Z,18432,0.12884521,0.954834,0.2078247
1725817449597,2024-09-08T17:44:09.597Z,18453,0.12799072,0.95983887,0.19708252
1725817449620,2024-09-08T17:44:09.620Z,18476,0.1348877,0.96099854,0.19476318
1725817449666,2024-09-08T17:44:09.666Z,18522,0.14544678,0.9592285,0.18780518
1725817449712,2024-09-08T17:44:09.712Z,18568,0.15447998,0.95562744,0.18487549
1725817449757,2024-09-08T17:44:09.757Z,18613,0.15887451,0.9503174,0.18847656
1725817449804,2024-09-08T17:44:09.804Z,18660,0.15570068,0.9556885,0.19708252
1725817449846,2024-09-08T17:44:09.846Z,18702,0.14569092,0.96520996,0.21270752
1725817449892,2024-09-08T17:44:09.892Z,18748,0.1385498,0.9836426,0.22851562
1725817449938,2024-09-08T17:44:09.938Z,18794,0.13903809,1.015686,0.24035645
1725817449983,2024-09-08T17:44:09.983Z,18839,0.1461792,1.0269165,0.26220703
1725817450028,2024-09-08T17:44:10.028Z,18884,0.14959717,1.0120239,0.26153564
1725817450051,2024-09-08T17:44:10.051Z,18907,0.13671875,0.9951782,0.24987793
1725817450071,2024-09-08T17:44:10.071Z,18927,0.12908936,0.97875977,0.24700928
1725817450116,2024-09-08T17:44:10.116Z,18972,0.14294434,0.95654297,0.23382568
1725817450160,2024-09-08T17:44:10.160Z,19016,0.16052246,0.9421387,0.21960449
1725817450208,2024-09-08T17:44:10.208Z,19064,0.17858887,0.90997314,0.21765137
1725817450256,2024-09-08T17:44:10.256Z,19112,0.18292236,0.87927246,0.22241211
1725817450298,2024-09-08T17:44:10.298Z,19154,0.18353271,0.8909302,0.22833252
1725817450342,2024-09-08T17:44:10.342Z,19198,0.18292236,0.92840576,0.25561523
1725817450384,2024-09-08T17:44:10.384Z,19240,0.17651367,0.9716797,0.27197266
1725817450434,2024-09-08T17:44:10.434Z,19290,0.16906738,0.96118164,0.28302002
1725817450453,2024-09-08T17:44:10.453Z,19309,0.1675415,0.93878174,0.29052734
1725817450474,2024-09-08T17:44:10.474Z,19330,0.1784668,0.92645264,0.29052734
1725817450519,2024-09-08T17:44:10.519Z,19375,0.19146729,0.9173584,0.29248047
1725817450564,2024-09-08T17:44:10.564Z,19420,0.19403076,0.9237671,0.2956543
1725817450612,2024-09-08T17:44:10.612Z,19468,0.19769287,0.9613037,0.3069458
1725817450656,2024-09-08T17:44:10.656Z,19512,0.2033081,0.9690552,0.30218506
1725817450703,2024-09-08T17:44:10.703Z,19559,0.22918701,0.9765625,0.31811523
1725817450749,2024-09-08T17:44:10.749Z,19605,0.27441406,1.0197754,0.32128906
1725817450790,2024-09-08T17:44:10.790Z,19646,0.37756348,1.0465698,0.33868408
1725817450834,2024-09-08T17:44:10.834Z,19690,0.2861328,0.99572754,0.3796997
1725817450851,2024-09-08T17:44:10.851Z,19707,0.23236084,0.9326782,0.3668213
1725817450878,2024-09-08T17:44:10.878Z,19734,0.28875732,0.9189453,0.3704834
1725817450924,2024-09-08T17:44:10.924Z,19780,0.3157959,0.9177246,0.38684082
1725817450970,2024-09-08T17:44:10.970Z,19826,0.331604,0.9024048,0.38415527
1725817451015,2024-09-08T17:44:11.015Z,19871,0.324646,0.9313965,0.42492676
1725817451060,2024-09-08T17:44:11.060Z,19916,0.2705078,0.9580078,0.4015503
1725817451106,2024-09-08T17:44:11.106Z,19962,0.26153564,0.85272217,0.3361206
1725817451150,2024-09-08T17:44:11.150Z,20006,0.3026123,0.82244873,0.3519287
1725817451195,2024-09-08T17:44:11.195Z,20051,0.3477173,0.8043823,0.33911133
1725817451242,2024-09-08T17:44:11.242Z,20098,0.40319824,0.7816162,0.3267212
1725817451289,2024-09-08T17:44:11.289Z,20145,0.46520996,0.7453003,0.34051514
1725817451307,2024-09-08T17:44:11.307Z,20163,0.564209,0.6777954,0.30181885
1725817451330,2024-09-08T17:44:11.330Z,20186,0.6403198,0.6345215,0.27069092
1725817451375,2024-09-08T17:44:11.375Z,20231,0.68096924,0.59552,0.2736206
1725817451420,2024-09-08T17:44:11.420Z,20276,0.7477417,0.58251953,0.24572754
1725817451464,2024-09-08T17:44:11.464Z,20320,0.73046875,0.58428955,0.2515869
1725817451511,2024-09-08T17:44:11.511Z,20367,0.59576416,0.52770996,0.1774292
1725817451555,2024-09-08T17:44:11.555Z,20411,0.67041016,0.41760254,0.07196045
1725817451602,2024-09-08T17:44:11.602Z,20458,0.81744385,0.3272705,0.15576172
1725817451646,2024-09-08T17:44:11.646Z,20502,0.87353516,0.43273926,0.26879883
1725817451690,2024-09-08T17:44:11.690Z,20546,0.97436523,0.6904297,0.019714355
1725817451709,2024-09-08T17:44:11.709Z,20565,1.0892944,0.9034424,-0.25427246
1725817451736,2024-09-08T17:44:11.736Z,20592,1.1206055,0.7605591,-0.121398926
1725817451782,2024-09-08T17:44:11.782Z,20638,0.8208008,0.5812988,0.028625488
1725817451826,2024-09-08T17:44:11.826Z,20682,0.5809326,0.37268066,-0.031066895
1725817451870,2024-09-08T17:44:11.870Z,20726,0.5288696,0.27075195,0.0025634766
1725817451914,2024-09-08T17:44:11.914Z,20770,0.6829834,0.44006348,-0.24926758
1725817451962,2024-09-08T17:44:11.962Z,20818,1.0770874,0.73321533,-0.484375
1725817452005,2024-09-08T17:44:12.005Z,20861,1.1099854,0.81396484,-0.49743652
1725817452052,2024-09-08T17:44:12.052Z,20908,0.798584,0.6328125,-0.15106201
1725817452098,2024-09-08T17:44:12.098Z,20954,0.51348877,0.34887695,0.1260376
1725817452122,2024-09-08T17:44:12.122Z,20978,0.43823242,0.27001953,0.15374756
1725817452147,2024-09-08T17:44:12.147Z,21003,0.7232666,0.56707764,-0.2055664
1725817452186,2024-09-08T17:44:12.186Z,21042,1.2907104,0.89471436,-0.5944214
1725817452232,2024-09-08T17:44:12.232Z,21088,1.0110474,0.61987305,-0.46350098
1725817452279,2024-09-08T17:44:12.279Z,21135,0.6168823,0.20495605,-0.06085205
1725817452322,2024-09-08T17:44:12.322Z,21178,0.45837402,0.10046387,0.14697266
1725817452367,2024-09-08T17:44:12.367Z,21223,0.5963745,0.30126953,-0.10418701
1725817452411,2024-09-08T17:44:12.411Z,21267,1.190918,0.715271,-0.52197266
1725817452457,2024-09-08T17:44:12.457Z,21313,1.1873779,0.763916,-0.44781494
1725817452500,2024-09-08T17:44:12.500Z,21356,0.8260498,0.40338135,-0.23754883
1725817452544,2024-09-08T17:44:12.544Z,21400,0.6263428,0.21160889,-0.12585449
1725817452561,2024-09-08T17:44:12.561Z,21417,0.7121582,0.3685913,-0.23535156
1725817452589,2024-09-08T17:44:12.589Z,21445,1.1765747,0.6592407,-0.46655273
1725817452636,2024-09-08T17:44:12.636Z,21492,1.0239868,0.56085205,-0.38555908
1725817452680,2024-09-08T17:44:12.680Z,21536,0.77923584,0.32696533,-0.2512207
1725817452725,2024-09-08T17:44:12.725Z,21581,0.54107666,0.2446289,-0.04272461
1725817452781,2024-09-08T17:44:12.781Z,21637,0.6043701,0.36553955,-0.18139648
1725817452815,2024-09-08T17:44:12.815Z,21671,1.2817383,0.7598877,-0.3824463
1725817452860,2024-09-08T17:44:12.860Z,21716,1.4136353,0.89312744,-0.42303467
1725817452905,2024-09-08T17:44:12.905Z,21761,0.8161621,0.43200684,-0.09082031
1725817452949,2024-09-08T17:44:12.949Z,21805,0.25317383,0.13970947,0.1506958
1725817452967,2024-09-08T17:44:12.967Z,21823,0.29156494,0.26818848,0.07635498
1725817453007,2024-09-08T17:44:13.007Z,21863,1.2731934,0.73791504,-0.35064697
1725817453086,2024-09-08T17:44:13.086Z,21942,1.5849609,0.84173584,-0.4850464
1725817453105,2024-09-08T17:44:13.105Z,21961,1.0645142,0.4362793,-0.29205322
1725817453175,2024-09-08T17:44:13.175Z,22031,0.38134766,0.08618164,0.038085938
1725817453192,2024-09-08T17:44:13.192Z,22048,0.09375,0.06707764,0.21624756
1725817453219,2024-09-08T17:44:13.219Z,22075,0.6766968,0.4375,-0.114868164
1725817453266,2024-09-08T17:44:13.266Z,22122,1.6778564,0.7583008,-0.37890625
1725817453309,2024-09-08T17:44:13.309Z,22165,1.4039917,0.5772705,-0.4276123
1725817453356,2024-09-08T17:44:13.356Z,22212,0.8550415,0.27807617,-0.115356445
1725817453374,2024-09-08T17:44:13.374Z,22230,0.45910645,0.21636963,0.08178711
1725817453400,2024-09-08T17:44:13.400Z,22256,0.46697998,0.30944824,0.095336914
1725817453444,2024-09-08T17:44:13.444Z,22300,0.9125366,0.51208496,-0.09313965
1725817453488,2024-09-08T17:44:13.488Z,22344,1.1783447,0.59521484,-0.20239258
1725817453536,2024-09-08T17:44:13.536Z,22392,1.083252,0.51416016,-0.15631104
1725817453581,2024-09-08T17:44:13.581Z,22437,0.96661377,0.47747803,-0.07507324
1725817453628,2024-09-08T17:44:13.628Z,22484,0.8543701,0.458313,0.010925293
1725817453671,2024-09-08T17:44:13.671Z,22527,0.7911377,0.43371582,-0.07324219
1725817453716,2024-09-08T17:44:13.716Z,22572,0.822876,0.38464355,-0.062194824
1725817453760,2024-09-08T17:44:13.760Z,22616,0.7178345,0.33544922,-0.034179688
1725817453808,2024-09-08T17:44:13.808Z,22664,0.7427368,0.36505127,-0.01373291
1725817453830,2024-09-08T17:44:13.830Z,22686,0.857666,0.43218994,0.0115356445
1725817453850,2024-09-08T17:44:13.850Z,22706,0.88360596,0.44763184,0.0028076172
1725817453895,2024-09-08T17:44:13.895Z,22751,0.8792114,0.50177,0.012451172
1725817453941,2024-09-08T17:44:13.941Z,22797,0.9814453,0.5891113,0.06732178
1725817453987,2024-09-08T17:44:13.987Z,22843,0.92871094,0.6112671,0.041748047
1725817454075,2024-09-08T17:44:14.075Z,22931,0.7737427,0.58691406,0.04925537
1725817454097,2024-09-08T17:44:14.097Z,22953,0.7644043,0.5722656,0.10333252
1725817454121,2024-09-08T17:44:14.121Z,22977,0.7926636,0.55126953,0.0670166
1725817454164,2024-09-08T17:44:14.164Z,23020,0.7749634,0.5105591,0.053222656
1725817454212,2024-09-08T17:44:14.212Z,23068,0.81518555,0.5130615,0.064575195
1725817454231,2024-09-08T17:44:14.231Z,23087,0.88635254,0.5741577,0.06329346
1725817454254,2024-09-08T17:44:14.254Z,23110,0.94470215,0.6506958,0.12298584
1725817454300,2024-09-08T17:44:14.300Z,23156,0.8311157,0.6486206,0.12237549
1725817454344,2024-09-08T17:44:14.344Z,23200,0.7686157,0.61383057,0.11730957
1725817454391,2024-09-08T17:44:14.391Z,23247,0.7536011,0.5933838,0.11657715
1725817454435,2024-09-08T17:44:14.435Z,23291,0.7406006,0.59484863,0.107177734
1725817454481,2024-09-08T17:44:14.481Z,23337,0.743103,0.63848877,0.106933594
1725817454527,2024-09-08T17:44:14.527Z,23383,0.7429199,0.637146,0.07873535
1725817454573,2024-09-08T17:44:14.573Z,23429,0.76538086,0.5938721,0.06774902
1725817454617,2024-09-08T17:44:14.617Z,23473,0.7692261,0.5671997,0.074401855
1725817454638,2024-09-08T17:44:14.638Z,23494,0.73828125,0.55999756,0.050842285
1725817454660,2024-09-08T17:44:14.660Z,23516,0.7550049,0.5578613,0.060302734
1725817454704,2024-09-08T17:44:14.704Z,23560,0.76171875,0.54089355,0.061767578
1725817454751,2024-09-08T17:44:14.751Z,23607,0.7562866,0.53100586,0.052978516
1725817454795,2024-09-08T17:44:14.795Z,23651,0.7967529,0.5315552,0.064453125
1725817454843,2024-09-08T17:44:14.843Z,23699,0.83776855,0.5366211,0.08843994
1725817454889,2024-09-08T17:44:14.889Z,23745,0.82147217,0.5209961,0.0949707
1725817454933,2024-09-08T17:44:14.933Z,23789,0.83081055,0.49743652,0.09210205
1725817454977,2024-09-08T17:44:14.977Z,23833,0.87384033,0.5009155,0.09136963
1725817455032,2024-09-08T17:44:15.032Z,23888,0.9030762,0.5232544,0.08630371
1725817455050,2024-09-08T17:44:15.050Z,23906,0.9439697,0.5554199,0.10211182
1725817455066,2024-09-08T17:44:15.066Z,23922,0.9675293,0.5924072,0.106933594
1725817455110,2024-09-08T17:44:15.110Z,23966,0.8621216,0.58221436,0.098083496
1725817455156,2024-09-08T17:44:15.156Z,24012,0.7824707,0.5358887,0.074523926
1725817455201,2024-09-08T17:44:15.201Z,24057,0.79937744,0.5196533,0.06463623
1725817455248,2024-09-08T17:44:15.248Z,24104,0.81085205,0.54003906,0.06329346
1725817455291,2024-09-08T17:44:15.291Z,24147,0.8125,0.5710449,0.06732178
1725817455337,2024-09-08T17:44:15.337Z,24193,0.81463623,0.60046387,0.07147217
1725817455383,2024-09-08T17:44:15.383Z,24239,0.8148804,0.6229248,0.0803833
1725817455428,2024-09-08T17:44:15.428Z,24284,0.80822754,0.6430664,0.10986328
1725817455474,2024-09-08T17:44:15.474Z,24330,0.79211426,0.6690674,0.14147949
1725817455499,2024-09-08T17:44:15.499Z,24355,0.7520752,0.6781616,0.16888428
1725817455519,2024-09-08T17:44:15.519Z,24375,0.6838989,0.6586914,0.15979004
1725817455562,2024-09-08T17:44:15.562Z,24418,0.63183594,0.611084,0.13232422
1725817455607,2024-09-08T17:44:15.607Z,24463,0.63720703,0.5515137,0.118896484
1725817455652,2024-09-08T17:44:15.652Z,24508,0.7180176,0.5070801,0.105407715
1725817455706,2024-09-08T17:44:15.706Z,24562,0.78930664,0.48413086,0.08630371
1725817455740,2024-09-08T17:44:15.740Z,24596,0.8380127,0.4772339,0.07421875
1725817455787,2024-09-08T17:44:15.787Z,24643,0.88952637,0.48077393,0.06304932
1725817455831,2024-09-08T17:44:15.831Z,24687,0.9468384,0.5102539,0.06317139
1725817455878,2024-09-08T17:44:15.878Z,24734,0.9442749,0.55181885,0.078430176
1725817455896,2024-09-08T17:44:15.896Z,24752,0.8930664,0.57928467,0.091918945
1725817455928,2024-09-08T17:44:15.928Z,24784,0.85150146,0.5908203,0.099975586
1725817455965,2024-09-08T17:44:15.965Z,24821,0.8036499,0.58514404,0.105407715
1725817456012,2024-09-08T17:44:16.012Z,24868,0.7709961,0.5878296,0.09942627
1725817456055,2024-09-08T17:44:16.055Z,24911,0.7689209,0.6125488,0.10406494
1725817456101,2024-09-08T17:44:16.101Z,24957,0.7802124,0.6409912,0.10522461
1725817456144,2024-09-08T17:44:16.144Z,25000,0.7817993,0.6451416,0.103881836
1725817456189,2024-09-08T17:44:16.189Z,25045,0.7570801,0.63879395,0.1104126
1725817456235,2024-09-08T17:44:16.235Z,25091,0.74005127,0.63531494,0.11645508
1725817456279,2024-09-08T17:44:16.279Z,25135,0.7348633,0.63861084,0.1270752
1725817456326,2024-09-08T17:44:16.326Z,25182,0.7238159,0.63720703,0.13574219
1725817456337,2024-09-08T17:44:16.337Z,25193,0.7186279,0.63342285,0.1437378
1725817456370,2024-09-08T17:44:16.370Z,25226,0.7211914,0.6431885,0.14337158
1725817456416,2024-09-08T17:44:16.416Z,25272,0.7352295,0.62890625,0.13201904
1725817456461,2024-09-08T17:44:16.461Z,25317,0.76190186,0.59539795,0.1251831
1725817456506,2024-09-08T17:44:16.506Z,25362,0.7873535,0.586853,0.12945557
1725817456550,2024-09-08T17:44:16.550Z,25406,0.79852295,0.60424805,0.13568115
1725817456597,2024-09-08T17:44:16.597Z,25453,0.80200195,0.6109619,0.15008545
1725817456641,2024-09-08T17:44:16.641Z,25497,0.7993164,0.5891113,0.15222168
1725817456684,2024-09-08T17:44:16.684Z,25540,0.796875,0.5710449,0.15368652
1725817456732,2024-09-08T17:44:16.732Z,25588,0.80181885,0.57580566,0.15454102
1725817456758,2024-09-08T17:44:16.758Z,25614,0.80200195,0.59503174,0.15789795
1725817456776,2024-09-08T17:44:16.776Z,25632,0.7958374,0.62176514,0.1616211
1725817456867,2024-09-08T17:44:16.867Z,25723,0.7838135,0.63720703,0.1661377
1725817456918,2024-09-08T17:44:16.918Z,25774,0.76312256,0.64593506,0.17010498
1725817456938,2024-09-08T17:44:16.938Z,25794,0.7324219,0.64282227,0.17718506
1725817456955,2024-09-08T17:44:16.955Z,25811,0.7103882,0.64056396,0.18218994
1725817457001,2024-09-08T17:44:17.001Z,25857,0.69403076,0.6370239,0.18084717
1725817457043,2024-09-08T17:44:17.043Z,25899,0.6795044,0.62109375,0.17712402
1725817457093,2024-09-08T17:44:17.093Z,25949,0.6876831,0.6016846,0.17401123
1725817457134,2024-09-08T17:44:17.134Z,25990,0.71606445,0.5941162,0.17242432
1725817457151,2024-09-08T17:44:17.151Z,26007,0.7373657,0.6011963,0.17260742
1725817457189,2024-09-08T17:44:17.189Z,26045,0.7546387,0.5994873,0.18035889
1725817457226,2024-09-08T17:44:17.226Z,26082,0.7600708,0.5930176,0.18359375
1725817457272,2024-09-08T17:44:17.272Z,26128,0.76519775,0.586853,0.18640137
1725817457316,2024-09-08T17:44:17.316Z,26172,0.77630615,0.5906372,0.19439697
1725817457362,2024-09-08T17:44:17.362Z,26218,0.78253174,0.597229,0.19720459
1725817457407,2024-09-08T17:44:17.407Z,26263,0.76971436,0.6039429,0.21331787
1725817457450,2024-09-08T17:44:17.450Z,26306,0.76898193,0.6263428,0.23095703
1725817457499,2024-09-08T17:44:17.499Z,26355,0.74438477,0.6470337,0.23443604
1725817457539,2024-09-08T17:44:17.539Z,26395,0.7137451,0.6453247,0.21942139
1725817457557,2024-09-08T17:44:17.557Z,26413,0.7045288,0.63720703,0.20178223
1725817457588,2024-09-08T17:44:17.588Z,26444,0.7047119,0.645813,0.19055176
1725817457629,2024-09-08T17:44:17.629Z,26485,0.7079468,0.66918945,0.18591309
1725817457675,2024-09-08T17:44:17.675Z,26531,0.7077637,0.6873779,0.18328857
1725817457719,2024-09-08T17:44:17.719Z,26575,0.70306396,0.6852417,0.17901611
1725817457765,2024-09-08T17:44:17.765Z,26621,0.7086792,0.6849365,0.17614746
1725817457811,2024-09-08T17:44:17.811Z,26667,0.7020874,0.6807251,0.16741943
1725817457863,2024-09-08T17:44:17.863Z,26719,0.7025757,0.6786499,0.16693115
1725817457900,2024-09-08T17:44:17.900Z,26756,0.70129395,0.68115234,0.16516113
1725817457946,2024-09-08T17:44:17.946Z,26802,0.69940186,0.6828003,0.16784668
1725817457998,2024-09-08T17:44:17.998Z,26854,0.696167,0.6835327,0.17041016
1725817458016,2024-09-08T17:44:18.016Z,26872,0.6913452,0.6864624,0.1730957
1725817458036,2024-09-08T17:44:18.036Z,26892,0.6951294,0.69018555,0.1720581
1725817458079,2024-09-08T17:44:18.079Z,26935,0.6986084,0.69818115,0.17712402
1725817458125,2024-09-08T17:44:18.125Z,26981,0.6889038,0.7034302,0.18048096
1725817458171,2024-09-08T17:44:18.171Z,27027,0.67248535,0.701416,0.18585205
1725817458215,2024-09-08T17:44:18.215Z,27071,0.6638794,0.7078247,0.18621826
1725817458260,2024-09-08T17:44:18.260Z,27116,0.6586914,0.7168579,0.1854248
1725817458304,2024-09-08T17:44:18.304Z,27160,0.66137695,0.720459,0.18518066
1725817458352,2024-09-08T17:44:18.352Z,27208,0.6586914,0.7171631,0.1829834
1725817458396,2024-09-08T17:44:18.396Z,27252,0.64190674,0.7064209,0.18347168
1725817458415,2024-09-08T17:44:18.415Z,27271,0.62249756,0.71398926,0.19116211
1725817458440,2024-09-08T17:44:18.440Z,27296,0.56396484,0.72320557,0.1906128
1725817458484,2024-09-08T17:44:18.484Z,27340,0.4753418,0.69537354,0.17382812
1725817458531,2024-09-08T17:44:18.531Z,27387,0.42059326,0.69329834,0.16497803
1725817458574,2024-09-08T17:44:18.574Z,27430,0.4154663,0.72680664,0.16937256
1725817458624,2024-09-08T17:44:18.624Z,27480,0.40319824,0.7955322,0.18481445
1725817458666,2024-09-08T17:44:18.666Z,27522,0.38208008,0.8774414,0.19995117
1725817458712,2024-09-08T17:44:18.712Z,27568,0.42919922,0.98999023,0.2619629
1725817458756,2024-09-08T17:44:18.756Z,27612,0.3817749,1.0244141,0.21807861
1725817458803,2024-09-08T17:44:18.803Z,27659,0.34558105,1.029541,0.14086914
1725817458821,2024-09-08T17:44:18.821Z,27677,0.33306885,1.0345459,0.12200928
1725817458845,2024-09-08T17:44:18.845Z,27701,0.30023193,1.0189209,0.12963867
1725817458892,2024-09-08T17:44:18.892Z,27748,0.26306152,1.0211182,0.13708496
1725817458936,2024-09-08T17:44:18.936Z,27792,0.2298584,1.0203247,0.1282959
1725817458982,2024-09-08T17:44:18.982Z,27838,0.2020874,1.0148315,0.11022949
1725817459027,2024-09-08T17:44:19.027Z,27883,0.18798828,1.0061035,0.09020996
1725817459070,2024-09-08T17:44:19.070Z,27926,0.19366455,1.0126343,0.09899902
1725817459121,2024-09-08T17:44:19.121Z,27977,0.1987915,1.0186157,0.11975098
1725817459161,2024-09-08T17:44:19.161Z,28017,0.16760254,1.0241089,0.12017822
1725817459206,2024-09-08T17:44:19.206Z,28062,0.13922119,1.0202637,0.11456299
1725817459251,2024-09-08T17:44:19.251Z,28107,0.13275146,1.0055542,0.12286377
1725817459268,2024-09-08T17:44:19.268Z,28124,0.13256836,0.9987793,0.12957764
1725817459295,2024-09-08T17:44:19.295Z,28151,0.12567139,1.0065918,0.1293335
1725817459341,2024-09-08T17:44:19.341Z,28197,0.11151123,1.0151367,0.13726807
1725817459387,2024-09-08T17:44:19.387Z,28243,0.10974121,1.003479,0.1430664
1725817459431,2024-09-08T17:44:19.431Z,28287,0.06378174,0.9944458,0.13171387
1725817459476,2024-09-08T17:44:19.476Z,28332,0.04168701,0.99017334,0.14447021
1725817459522,2024-09-08T17:44:19.522Z,28378,0.09350586,0.9962158,0.14337158
1725817459567,2024-09-08T17:44:19.567Z,28423,0.13531494,0.9920044,0.12219238
1725817459612,2024-09-08T17:44:19.612Z,28468,0.13934326,0.9603882,0.11669922
1725817459656,2024-09-08T17:44:19.656Z,28512,0.13873291,0.9503174,0.111694336
1725817459673,2024-09-08T17:44:19.673Z,28529,0.137146,0.9786377,0.10839844
1725817459700,2024-09-08T17:44:19.700Z,28556,0.13903809,0.9949951,0.10394287
1725817459747,2024-09-08T17:44:19.747Z,28603,0.14093018,1.0056152,0.09490967
1725817459793,2024-09-08T17:44:19.793Z,28649,0.13708496,1.0202026,0.0949707
1725817459838,2024-09-08T17:44:19.838Z,28694,0.13568115,1.0175781,0.08782959
1725817459882,2024-09-08T17:44:19.882Z,28738,0.13769531,1.0101318,0.080566406
1725817459926,2024-09-08T17:44:19.926Z,28782,0.13574219,1.0026245,0.07507324
1725817459973,2024-09-08T17:44:19.973Z,28829,0.12390137,0.9555664,0.06866455
1725817460016,2024-09-08T17:44:20.016Z,28872,0.11828613,0.9299927,0.0814209
1725817460061,2024-09-08T17:44:20.061Z,28917,0.11730957,0.9390869,0.10974121
1725817460081,2024-09-08T17:44:20.081Z,28937,0.11187744,0.9567871,0.12652588
1725817460105,2024-09-08T17:44:20.105Z,28961,0.10992432,0.9937134,0.12884521
1725817460150,2024-09-08T17:44:20.150Z,29006,0.11437988,1.0092163,0.13739014
1725817460195,2024-09-08T17:44:20.195Z,29051,0.13085938,0.9949341,0.15618896
1725817460243,2024-09-08T17:44:20.243Z,29099,0.13452148,1.0007935,0.17456055
1725817460286,2024-09-08T17:44:20.286Z,29142,0.122924805,1.0166016,0.18511963
1725817460332,2024-09-08T17:44:20.332Z,29188,0.10089111,1.0204468,0.17663574
1725817460375,2024-09-08T17:44:20.375Z,29231,0.093322754,1.0200806,0.15533447
1725817460422,2024-09-08T17:44:20.422Z,29278,0.11224365,1.0142822,0.14581299
1725817460467,2024-09-08T17:44:20.467Z,29323,0.12011719,0.99523926,0.13128662
1725817460510,2024-09-08T17:44:20.510Z,29366,0.11352539,0.98339844,0.119262695
1725817460527,2024-09-08T17:44:20.527Z,29383,0.10784912,0.9926758,0.11633301
1725817460552,2024-09-08T17:44:20.552Z,29408,0.10321045,0.9916992,0.101379395
1725817460600,2024-09-08T17:44:20.600Z,29456,0.105163574,0.98553467,0.09484863
1725817460646,2024-09-08T17:44:20.646Z,29502,0.11303711,0.9781494,0.093933105
1725817460690,2024-09-08T17:44:20.690Z,29546,0.118896484,0.97680664,0.09326172
1725817460736,2024-09-08T17:44:20.736Z,29592,0.11401367,0.9812012,0.09625244
1725817460781,2024-09-08T17:44:20.781Z,29637,0.11383057,0.98217773,0.10583496
1725817460825,2024-09-08T17:44:20.825Z,29681,0.11621094,0.9829712,0.12133789
1725817460869,2024-09-08T17:44:20.869Z,29725,0.1026001,0.9855957,0.14770508
1725817460923,2024-09-08T17:44:20.923Z,29779,0.09564209,0.982666,0.15759277
1725817460944,2024-09-08T17:44:20.944Z,29800,0.12652588,0.98205566,0.16448975
1725817460964,2024-09-08T17:44:20.964Z,29820,0.14294434,0.97662354,0.16809082
1725817461004,2024-09-08T17:44:21.004Z,29860,0.12841797,0.98828125,0.16992188
1725817461051,2024-09-08T17:44:21.051Z,29907,0.12646484,1.007019,0.16430664
1725817461095,2024-09-08T17:44:21.095Z,29951,0.12896729,0.9918213,0.17059326
1725817461144,2024-09-08T17:44:21.144Z,30000,0.123291016,0.979126,0.17114258
1725817461188,2024-09-08T17:44:21.188Z,30044,0.12908936,0.9845581,0.16540527
1725817461229,2024-09-08T17:44:21.229Z,30085,0.13433838,0.9855957,0.1642456
1725817461275,2024-09-08T17:44:21.275Z,30131,0.12805176,0.9846802,0.1585083
1725817461322,2024-09-08T17:44:21.322Z,30178,0.13031006,0.98773193,0.15435791
1725817461342,2024-09-08T17:44:21.342Z,30198,0.12994385,0.9852905,0.15228271
1725817461371,2024-09-08T17:44:21.371Z,30227,0.12371826,0.98132324,0.1541748
1725817461409,2024-09-08T17:44:21.409Z,30265,0.12530518,0.9875488,0.16503906
1725817461455,2024-09-08T17:44:21.455Z,30311,0.12902832,0.9906006,0.17126465
1725817461504,2024-09-08T17:44:21.504Z,30360,0.11773682,0.9767456,0.16760254
1725817461546,2024-09-08T17:44:21.546Z,30402,0.10546875,0.9550171,0.14190674
1725817461589,2024-09-08T17:44:21.589Z,30445,0.11755371,0.95654297,0.12792969
1725817461637,2024-09-08T17:44:21.637Z,30493,0.12390137,0.9829712,0.1459961
1725817461682,2024-09-08T17:44:21.682Z,30538,0.11303711,0.9901123,0.16253662
1725817461726,2024-09-08T17:44:21.726Z,30582,0.10546875,0.98913574,0.16912842
1725817461770,2024-09-08T17:44:21.770Z,30626,0.10205078,0.9941406,0.16625977
1725817461791,2024-09-08T17:44:21.791Z,30647,0.10119629,0.9906006,0.14050293
1725817461823,2024-09-08T17:44:21.823Z,30679,0.107543945,1.0023804,0.12536621
1725817461859,2024-09-08T17:44:21.859Z,30715,0.10546875,0.9929199,0.13604736
1725817461906,2024-09-08T17:44:21.906Z,30762,0.09851074,0.9821167,0.15997314
1725817461951,2024-09-08T17:44:21.951Z,30807,0.101135254,0.9846802,0.18371582
1725817461997,2024-09-08T17:44:21.997Z,30853,0.09588623,0.9738159,0.19403076
1725817462088,2024-09-08T17:44:22.088Z,30944,0.09338379,0.97772217,0.17340088
1725817462110,2024-09-08T17:44:22.110Z,30966,0.10876465,0.99664307,0.16705322
1725817462131,2024-09-08T17:44:22.131Z,30987,0.10430908,0.99676514,0.15216064
1725817462174,2024-09-08T17:44:22.174Z,31030,0.109313965,0.98657227,0.13189697
1725817462191,2024-09-08T17:44:22.191Z,31047,0.124816895,0.97143555,0.11810303
1725817462220,2024-09-08T17:44:22.220Z,31076,0.14117432,0.95562744,0.12219238
1725817462264,2024-09-08T17:44:22.264Z,31120,0.14770508,0.9487915,0.12731934
1725817462312,2024-09-08T17:44:22.312Z,31168,0.1484375,0.9623413,0.13763428
1725817462357,2024-09-08T17:44:22.357Z,31213,0.15008545,0.9837036,0.14453125
1725817462401,2024-09-08T17:44:22.401Z,31257,0.1517334,1.0003662,0.1630249
1725817462445,2024-09-08T17:44:22.445Z,31301,0.14801025,1.0164795,0.18493652
1725817462491,2024-09-08T17:44:22.491Z,31347,0.1373291,1.0338135,0.20111084
1725817462536,2024-09-08T17:44:22.536Z,31392,0.122680664,1.0526123,0.18725586
1725817462579,2024-09-08T17:44:22.579Z,31435,0.10736084,1.0525513,0.1675415
1725817462596,2024-09-08T17:44:22.596Z,31452,0.11010742,1.0283203,0.1473999
1725817462628,2024-09-08T17:44:22.628Z,31484,0.11212158,1.006958,0.12438965
1725817462671,2024-09-08T17:44:22.671Z,31527,0.10644531,1.0058594,0.10095215
1725817462716,2024-09-08T17:44:22.716Z,31572,0.09893799,0.9918213,0.0892334
1725817462762,2024-09-08T17:44:22.762Z,31618,0.089416504,0.98339844,0.0836792
1725817462807,2024-09-08T17:44:22.807Z,31663,0.08392334,0.98443604,0.07879639
1725817462851,2024-09-08T17:44:22.851Z,31707,0.081604004,0.9713745,0.08703613
1725817462895,2024-09-08T17:44:22.895Z,31751,0.078308105,0.954895,0.093322754
1725817462942,2024-09-08T17:44:22.942Z,31798,0.082214355,0.9663086,0.09436035
1725817462993,2024-09-08T17:44:22.993Z,31849,0.087646484,0.9788208,0.10650635
1725817463030,2024-09-08T17:44:23.030Z,31886,0.09301758,0.9616089,0.11767578
1725817463047,2024-09-08T17:44:23.047Z,31903,0.1003418,0.96466064,0.1315918
1725817463074,2024-09-08T17:44:23.074Z,31930,0.097473145,0.9805908,0.14630127
1725817463121,2024-09-08T17:44:23.121Z,31977,0.09277344,0.9871826,0.15325928
1725817463167,2024-09-08T17:44:23.167Z,32023,0.09942627,0.99401855,0.15686035
1725817463212,2024-09-08T17:44:23.212Z,32068,0.11376953,0.9991455,0.15942383
1725817463261,2024-09-08T17:44:23.261Z,32117,0.12158203,1.0048828,0.16412354
1725817463307,2024-09-08T17:44:23.307Z,32163,0.12640381,1.0074463,0.16326904
1725817463346,2024-09-08T17:44:23.346Z,32202,0.13000488,1.0036621,0.15838623
1725817463391,2024-09-08T17:44:23.391Z,32247,0.13275146,0.99835205,0.15484619
1725817463435,2024-09-08T17:44:23.435Z,32291,0.1348877,0.9915161,0.14776611
1725817463451,2024-09-08T17:44:23.451Z,32307,0.13568115,0.9869385,0.14221191
1725817463481,2024-09-08T17:44:23.481Z,32337,0.13275146,0.98883057,0.13970947
1725817463525,2024-09-08T17:44:23.525Z,32381,0.1272583,0.986084,0.13653564
1725817463570,2024-09-08T17:44:23.570Z,32426,0.12475586,0.9929199,0.1315918
1725817463616,2024-09-08T17:44:23.616Z,32472,0.12005615,1.001648,0.1296997
1725817463661,2024-09-08T17:44:23.661Z,32517,0.1116333,0.9916382,0.13586426
1725817463705,2024-09-08T17:44:23.705Z,32561,0.10772705,0.9891968,0.1361084
1725817463750,2024-09-08T17:44:23.750Z,32606,0.10424805,0.99816895,0.13598633
1725817463796,2024-09-08T17:44:23.796Z,32652,0.097839355,0.9970093,0.1359253
1725817463841,2024-09-08T17:44:23.841Z,32697,0.099487305,0.98498535,0.1359253
1725817463862,2024-09-08T17:44:23.862Z,32718,0.10168457,0.9784546,0.13165283
1725817463885,2024-09-08T17:44:23.885Z,32741,0.10406494,0.9707031,0.13000488
1725817463939,2024-09-08T17:44:23.939Z,32795,0.10858154,0.9613037,0.1274414
1725817463976,2024-09-08T17:44:23.976Z,32832,0.11193848,0.9717407,0.13061523
1725817464020,2024-09-08T17:44:24.020Z,32876,0.121398926,0.98999023,0.13757324
1725817464066,2024-09-08T17:44:24.066Z,32922,0.10900879,0.98535156,0.14196777
1725817464111,2024-09-08T17:44:24.111Z,32967,0.111083984,0.9661255,0.14013672
1725817464155,2024-09-08T17:44:24.155Z,33011,0.10601807,0.9503784,0.11779785
1725817464203,2024-09-08T17:44:24.203Z,33059,0.08898926,0.9719238,0.089782715
1725817464247,2024-09-08T17:44:24.247Z,33103,0.105651855,0.9941406,0.10046387
1725817464292,2024-09-08T17:44:24.292Z,33148,0.11651611,1.0115967,0.13085938
1725817464310,2024-09-08T17:44:24.310Z,33166,0.11602783,1.0344238,0.15716553
1725817464342,2024-09-08T17:44:24.342Z,33198,0.12554932,1.0338135,0.16998291
1725817464381,2024-09-08T17:44:24.381Z,33237,0.1385498,1.0180664,0.15118408
1725817464430,2024-09-08T17:44:24.430Z,33286,0.13848877,1.0012817,0.1430664
1725817464471,2024-09-08T17:44:24.471Z,33327,0.16033936,1.0043335,0.14685059
1725817464515,2024-09-08T17:44:24.515Z,33371,0.14221191,1.0082397,0.15093994
1725817464561,2024-09-08T17:44:24.561Z,33417,0.12408447,1.0083008,0.13812256
1725817464653,2024-09-08T17:44:24.653Z,33509,0.08343506,1.0037842,0.0970459
1725817464672,2024-09-08T17:44:24.672Z,33528,0.07208252,1.0148926,0.07269287
1725817464694,2024-09-08T17:44:24.694Z,33550,0.09576416,1.0299683,0.05328369
1725817464711,2024-09-08T17:44:24.711Z,33567,0.12408447,1.012207,0.049743652
1725817464738,2024-09-08T17:44:24.738Z,33594,0.093811035,0.9887085,0.062805176
1725817464784,2024-09-08T17:44:24.784Z,33640,0.07165527,0.9797363,0.06933594
1725817464830,2024-09-08T17:44:24.830Z,33686,0.09667969,0.97247314,0.064453125
1725817464877,2024-09-08T17:44:24.877Z,33733,0.11431885,0.9633789,0.068481445
1725817464920,2024-09-08T17:44:24.920Z,33776,0.124816895,0.9664917,0.089782715
1725817464966,2024-09-08T17:44:24.966Z,33822,0.13873291,0.97717285,0.109802246
1725817465013,2024-09-08T17:44:25.013Z,33869,0.13391113,0.99279785,0.12231445
1725817465056,2024-09-08T17:44:25.056Z,33912,0.11920166,0.99816895,0.118652344
1725817465100,2024-09-08T17:44:25.100Z,33956,0.11114502,0.99468994,0.1105957
1725817465119,2024-09-08T17:44:25.119Z,33975,0.11981201,0.9891968,0.10571289
1725817465146,2024-09-08T17:44:25.146Z,34002,0.13208008,0.9916992,0.103881836
1725817465188,2024-09-08T17:44:25.188Z,34044,0.13116455,0.989563,0.10687256
1725817465235,2024-09-08T17:44:25.235Z,34091,0.13372803,0.9835205,0.0993042
1725817465280,2024-09-08T17:44:25.280Z,34136,0.13574219,0.9875488,0.10064697
1725817465327,2024-09-08T17:44:25.327Z,34183,0.14788818,0.9926758,0.11022949
1725817465369,2024-09-08T17:44:25.369Z,34225,0.13800049,0.9937744,0.11682129
1725817465415,2024-09-08T17:44:25.415Z,34271,0.11920166,0.99401855,0.112854004
1725817465460,2024-09-08T17:44:25.460Z,34316,0.11138916,1.0061035,0.1116333
1725817465504,2024-09-08T17:44:25.504Z,34360,0.11633301,1.0060425,0.10253906
1725817465549,2024-09-08T17:44:25.549Z,34405,0.123168945,0.97772217,0.07745361
1725817465567,2024-09-08T17:44:25.567Z,34423,0.1473999,0.9472046,0.08306885
1725817465596,2024-09-08T17:44:25.596Z,34452,0.14379883,0.96343994,0.11071777
1725817465641,2024-09-08T17:44:25.641Z,34497,0.121398926,1.008728,0.119384766
1725817465686,2024-09-08T17:44:25.686Z,34542,0.12158203,1.0187988,0.115234375
1725817465730,2024-09-08T17:44:25.730Z,34586,0.14941406,1.0153198,0.12487793
1725817465776,2024-09-08T17:44:25.776Z,34632,0.14196777,1.0288696,0.13183594
1725817465820,2024-09-08T17:44:25.820Z,34676,0.10424805,1.0348511,0.123413086
1725817465866,2024-09-08T17:44:25.866Z,34722,0.091430664,1.0313721,0.10986328
1725817465910,2024-09-08T17:44:25.910Z,34766,0.09039307,1.0185547,0.09790039
1725817465955,2024-09-08T17:44:25.955Z,34811,0.09692383,1.0023804,0.08312988
1725817465973,2024-09-08T17:44:25.973Z,34829,0.10583496,0.9890747,0.07434082
1725817465999,2024-09-08T17:44:25.999Z,34855,0.10626221,0.98291016,0.0736084
1725817466046,2024-09-08T17:44:26.046Z,34902,0.097351074,0.98516846,0.076293945
1725817466089,2024-09-08T17:44:26.089Z,34945,0.09423828,0.9881592,0.07647705
1725817466135,2024-09-08T17:44:26.135Z,34991,0.092041016,0.9890137,0.08459473
1725817466181,2024-09-08T17:44:26.181Z,35037,0.097961426,0.97857666,0.09197998
1725817466227,2024-09-08T17:44:26.227Z,35083,0.09844971,0.98236084,0.100097656
1725817466273,2024-09-08T17:44:26.273Z,35129,0.09338379,0.9812622,0.11016846
1725817466316,2024-09-08T17:44:26.316Z,35172,0.09942627,0.96069336,0.12261963
1725817466361,2024-09-08T17:44:26.361Z,35217,0.10699463,0.95666504,0.1293335
1725817466380,2024-09-08T17:44:26.380Z,35236,0.11090088,0.9630127,0.12963867
1725817466404,2024-09-08T17:44:26.404Z,35260,0.11669922,0.97058105,0.13555908
1725817466448,2024-09-08T17:44:26.448Z,35304,0.12530518,0.97772217,0.1359253
1725817466495,2024-09-08T17:44:26.495Z,35351,0.13305664,1.000061,0.14477539
1725817466539,2024-09-08T17:44:26.539Z,35395,0.13446045,1.0175171,0.1538086
1725817466630,2024-09-08T17:44:26.630Z,35486,0.13409424,1.027832,0.15570068
1725817466646,2024-09-08T17:44:26.646Z,35502,0.14117432,1.0302124,0.14978027
1725817466674,2024-09-08T17:44:26.674Z,35530,0.14221191,1.0126343,0.15460205
1725817466721,2024-09-08T17:44:26.721Z,35577,0.121154785,1.0058594,0.15319824
1725817466765,2024-09-08T17:44:26.765Z,35621,0.11315918,0.99938965,0.14331055
1725817466812,2024-09-08T17:44:26.812Z,35668,0.107543945,0.9934082,0.13366699
1725817466834,2024-09-08T17:44:26.834Z,35690,0.10443115,0.9968262,0.12561035
1725817466855,2024-09-08T17:44:26.855Z,35711,0.10180664,1.0012207,0.117248535
1725817466899,2024-09-08T17:44:26.899Z,35755,0.09820557,0.9958496,0.11437988
1725817466946,2024-09-08T17:44:26.946Z,35802,0.09515381,0.9846802,0.109436035
1725817466989,2024-09-08T17:44:26.989Z,35845,0.093933105,0.9777832,0.10626221
1725817467035,2024-09-08T17:44:27.035Z,35891,0.091430664,0.9660034,0.10913086
1725817467081,2024-09-08T17:44:27.081Z,35937,0.08557129,0.9707031,0.109375
1725817467125,2024-09-08T17:44:27.125Z,35981,0.08459473,0.9729004,0.11376953
1725817467171,2024-09-08T17:44:27.171Z,36027,0.088378906,0.9685669,0.1262207
1725817467220,2024-09-08T17:44:27.220Z,36076,0.09613037,0.9657593,0.1281128
1725817467239,2024-09-08T17:44:27.239Z,36095,0.107421875,0.97735596,0.1262207
1725817467259,2024-09-08T17:44:27.259Z,36115,0.109802246,0.99090576,0.12963867
1725817467305,2024-09-08T17:44:27.305Z,36161,0.11193848,0.9971924,0.1340332
1725817467351,2024-09-08T17:44:27.351Z,36207,0.11651611,1.005127,0.13684082
1725817467398,2024-09-08T17:44:27.398Z,36254,0.11920166,1.0075073,0.13409424
1725817467440,2024-09-08T17:44:27.440Z,36296,0.12384033,1.0066528,0.12384033
1725817467484,2024-09-08T17:44:27.484Z,36340,0.12823486,1.0039062,0.11053467
1725817467529,2024-09-08T17:44:27.529Z,36385,0.13092041,1.0024414,0.10223389
1725817467574,2024-09-08T17:44:27.574Z,36430,0.12286377,1.0048828,0.09942627
1725817467619,2024-09-08T17:44:27.619Z,36475,0.1149292,0.9967041,0.09527588
1725817467635,2024-09-08T17:44:27.635Z,36491,0.11291504,0.99316406,0.09490967
1725817467665,2024-09-08T17:44:27.665Z,36521,0.10876465,0.9909668,0.09887695
1725817467711,2024-09-08T17:44:27.711Z,36567,0.10321045,0.99102783,0.10656738
1725817467755,2024-09-08T17:44:27.755Z,36611,0.099365234,0.9902954,0.11401367
1725817467801,2024-09-08T17:44:27.801Z,36657,0.095458984,0.9819946,0.12188721
1725817467846,2024-09-08T17:44:27.846Z,36702,0.09448242,0.98083496,0.13098145
1725817467891,2024-09-08T17:44:27.891Z,36747,0.09185791,0.99108887,0.13409424
1725817467936,2024-09-08T17:44:27.936Z,36792,0.09741211,0.99884033,0.13891602
1725817467981,2024-09-08T17:44:27.981Z,36837,0.10089111,1.0054932,0.13977051
1725817468024,2024-09-08T17:44:28.024Z,36880,0.10101318,1.0056152,0.13464355
1725817468068,2024-09-08T17:44:28.068Z,36924,0.10675049,0.9994507,0.13214111
1725817468085,2024-09-08T17:44:28.085Z,36941,0.109069824,0.99194336,0.11956787
1725817468114,2024-09-08T17:44:28.114Z,36970,0.111450195,0.9874878,0.11328125
1725817468161,2024-09-08T17:44:28.161Z,37017,0.11431885,0.97351074,0.10821533
1725817468206,2024-09-08T17:44:28.206Z,37062,0.11517334,0.9755249,0.10089111
1725817468251,2024-09-08T17:44:28.251Z,37107,0.11755371,0.97784424,0.101501465
1725817468296,2024-09-08T17:44:28.296Z,37152,0.11895752,0.97698975,0.11151123
1725817468341,2024-09-08T17:44:28.341Z,37197,0.1171875,0.98724365,0.12164307
1725817468386,2024-09-08T17:44:28.386Z,37242,0.122802734,0.99816895,0.12219238
1725817468433,2024-09-08T17:44:28.433Z,37289,0.12994385,0.9986572,0.11859131
1725817468474,2024-09-08T17:44:28.474Z,37330,0.128479,0.9975586,0.119506836
1725817468491,2024-09-08T17:44:28.491Z,37347,0.12097168,1.0029297,0.12402344
1725817468519,2024-09-08T17:44:28.519Z,37375,0.11810303,0.99786377,0.12585449
1725817468565,2024-09-08T17:44:28.565Z,37421,0.1071167,0.9957886,0.12536621
1725817468610,2024-09-08T17:44:28.610Z,37466,0.10430908,1.0036011,0.12451172
1725817468657,2024-09-08T17:44:28.657Z,37513,0.10913086,1.0039673,0.11755371
1725817468702,2024-09-08T17:44:28.702Z,37558,0.105041504,1.0074463,0.11230469
1725817468747,2024-09-08T17:44:28.747Z,37603,0.097351074,1.0042114,0.11669922
1725817468790,2024-09-08T17:44:28.790Z,37646,0.1003418,0.99316406,0.115722656
1725817468835,2024-09-08T17:44:28.835Z,37691,0.097595215,0.9871216,0.114868164
1725817468881,2024-09-08T17:44:28.881Z,37737,0.088378906,0.98950195,0.112854004
1725817468896,2024-09-08T17:44:28.896Z,37752,0.09338379,1.0004272,0.11206055
1725817468923,2024-09-08T17:44:28.923Z,37779,0.094177246,0.9887085,0.117004395
1725817468968,2024-09-08T17:44:28.968Z,37824,0.09094238,0.98083496,0.11633301
1725817469017,2024-09-08T17:44:29.017Z,37873,0.099121094,0.9857788,0.11242676
1725817469059,2024-09-08T17:44:29.059Z,37915,0.106933594,0.97998047,0.10803223
1725817469105,2024-09-08T17:44:29.105Z,37961,0.10522461,0.9885254,0.116882324
1725817469150,2024-09-08T17:44:29.150Z,38006,0.111083984,0.99993896,0.13513184
1725817469194,2024-09-08T17:44:29.194Z,38050,0.11779785,0.9998779,0.14038086
1725817469240,2024-09-08T17:44:29.240Z,38096,0.11657715,0.9916382,0.13696289
1725817469286,2024-09-08T17:44:29.286Z,38142,0.12463379,0.98809814,0.12768555
1725817469329,2024-09-08T17:44:29.329Z,38185,0.12438965,0.97839355,0.12927246
1725817469345,2024-09-08T17:44:29.345Z,38201,0.117492676,0.9776001,0.12896729
1725817469375,2024-09-08T17:44:29.375Z,38231,0.122680664,0.9824829,0.12634277
1725817469420,2024-09-08T17:44:29.420Z,38276,0.12750244,0.98223877,0.13275146
1725817469465,2024-09-08T17:44:29.465Z,38321,0.12628174,0.986145,0.1427002
1725817469511,2024-09-08T17:44:29.511Z,38367,0.1293335,0.9944458,0.15338135
1725817469555,2024-09-08T17:44:29.555Z,38411,0.12664795,0.9968262,0.15032959
1725817469601,2024-09-08T17:44:29.601Z,38457,0.13214111,0.9967041,0.14031982
1725817469644,2024-09-08T17:44:29.644Z,38500,0.13696289,0.9884033,0.13537598
1725817469690,2024-09-08T17:44:29.690Z,38546,0.13031006,0.9777832,0.14025879
1725817469734,2024-09-08T17:44:29.734Z,38590,0.114868164,0.97888184,0.14160156
1725817469750,2024-09-08T17:44:29.750Z,38606,0.107543945,0.98236084,0.14025879
1725817469779,2024-09-08T17:44:29.779Z,38635,0.09741211,1.0172119,0.14178467
1725817469825,2024-09-08T17:44:29.825Z,38681,0.099243164,1.022583,0.14453125
1725817469870,2024-09-08T17:44:29.870Z,38726,0.107421875,0.9840088,0.13232422
1725817469914,2024-09-08T17:44:29.914Z,38770,0.11035156,0.9715576,0.11743164
1725817469960,2024-09-08T17:44:29.960Z,38816,0.0927124,0.9906006,0.11114502
1725817470005,2024-09-08T17:44:30.005Z,38861,0.08441162,0.98724365,0.10687256
1725817470051,2024-09-08T17:44:30.051Z,38907,0.09088135,0.9798584,0.10321045
1725817470094,2024-09-08T17:44:30.094Z,38950,0.091918945,0.99139404,0.10839844
1725817470139,2024-09-08T17:44:30.139Z,38995,0.095336914,0.9938965,0.105407715
1725817470158,2024-09-08T17:44:30.158Z,39014,0.10662842,0.9830322,0.110961914
1725817470183,2024-09-08T17:44:30.183Z,39039,0.107543945,0.9769287,0.11993408
1725817470230,2024-09-08T17:44:30.230Z,39086,0.110961914,0.99224854,0.13208008
1725817470275,2024-09-08T17:44:30.275Z,39131,0.1126709,1.0101929,0.13134766
1725817470321,2024-09-08T17:44:30.321Z,39177,0.114990234,1.013855,0.13153076
1725817470365,2024-09-08T17:44:30.365Z,39221,0.12762451,1.0111084,0.12451172
1725817470408,2024-09-08T17:44:30.408Z,39264,0.13879395,1.006897,0.11968994
1725817470452,2024-09-08T17:44:30.452Z,39308,0.12585449,0.9954834,0.12402344
1725817470502,2024-09-08T17:44:30.502Z,39358,0.11566162,0.9918213,0.13342285
1725817470543,2024-09-08T17:44:30.543Z,39399,0.113220215,0.99645996,0.13409424
1725817470590,2024-09-08T17:44:30.590Z,39446,0.12451172,0.9938965,0.12854004
1725817470606,2024-09-08T17:44:30.606Z,39462,0.13128662,0.99853516,0.1184082
1725817470633,2024-09-08T17:44:30.633Z,39489,0.13323975,0.99005127,0.10839844
1725817470679,2024-09-08T17:44:30.679Z,39535,0.13269043,0.9789429,0.111694336
1725817470724,2024-09-08T17:44:30.724Z,39580,0.12042236,0.9891968,0.107177734
1725817470770,2024-09-08T17:44:30.770Z,39626,0.119018555,1.0013428,0.11425781
1725817470814,2024-09-08T17:44:30.814Z,39670,0.11291504,1.0032959,0.11401367
1725817470860,2024-09-08T17:44:30.860Z,39716,0.11584473,0.99975586,0.10870361
1725817470906,2024-09-08T17:44:30.906Z,39762,0.11212158,0.986084,0.109558105
1725817470948,2024-09-08T17:44:30.948Z,39804,0.105773926,0.98431396,0.109558105
1725817470996,2024-09-08T17:44:30.996Z,39852,0.1015625,0.9968872,0.109313965
1725817471020,2024-09-08T17:44:31.020Z,39876,0.10021973,0.99432373,0.10070801
1725817471038,2024-09-08T17:44:31.038Z,39894,0.10925293,0.99212646,0.099487305
1725817471084,2024-09-08T17:44:31.084Z,39940,0.109680176,0.9908447,0.097473145
1725817471131,2024-09-08T17:44:31.131Z,39987,0.10601807,0.9835205,0.09667969
1725817471175,2024-09-08T17:44:31.175Z,40031,0.107421875,0.98431396,0.10101318
1725817471223,2024-09-08T17:44:31.223Z,40079,0.10772705,0.9996948,0.105163574
1725817471263,2024-09-08T17:44:31.263Z,40119,0.10852051,1.0118408,0.11248779
1725817471308,2024-09-08T17:44:31.308Z,40164,0.11340332,0.9992676,0.11907959
1725817471356,2024-09-08T17:44:31.356Z,40212,0.113220215,0.98931885,0.111206055
1725817471403,2024-09-08T17:44:31.403Z,40259,0.10656738,0.9890137,0.11236572
1725817471419,2024-09-08T17:44:31.419Z,40275,0.10095215,1.0056152,0.11230469
1725817471444,2024-09-08T17:44:31.444Z,40300,0.10345459,1.0265503,0.12585449
1725817471493,2024-09-08T17:44:31.493Z,40349,0.101867676,1.0255737,0.1328125
1725817471534,2024-09-08T17:44:31.534Z,40390,0.107543945,1.0258179,0.13122559
1725817471580,2024-09-08T17:44:31.580Z,40436,0.103027344,1.0120239,0.1217041
1725817471625,2024-09-08T17:44:31.625Z,40481,0.101989746,0.9767456,0.1071167
1725817471714,2024-09-08T17:44:31.714Z,40570,0.10107422,0.9492798,0.101501465
1725817471729,2024-09-08T17:44:31.729Z,40585,0.10070801,0.94677734,0.103637695
1725817471759,2024-09-08T17:44:31.759Z,40615,0.10491943,0.956604,0.108947754
1725817471804,2024-09-08T17:44:31.804Z,40660,0.11566162,0.98309326,0.113586426
1725817471848,2024-09-08T17:44:31.848Z,40704,0.13220215,1.0092773,0.11993408
1725817471862,2024-09-08T17:44:31.862Z,40718,0.14172363,1.0123291,0.12615967
1725817471892,2024-09-08T17:44:31.892Z,40748,0.14147949,0.9984131,0.12390137
1725817471939,2024-09-08T17:44:31.939Z,40795,0.13977051,0.99768066,0.121154785
1725817471983,2024-09-08T17:44:31.983Z,40839,0.13092041,0.9882202,0.11187744
1725817472033,2024-09-08T17:44:32.033Z,40889,0.12536621,0.96881104,0.09088135
1725817472075,2024-09-08T17:44:32.075Z,40931,0.12860107,0.9904785,0.088256836
1725817472121,2024-09-08T17:44:32.121Z,40977,0.11706543,1.0054932,0.10461426
1725817472165,2024-09-08T17:44:32.165Z,41021,0.111572266,0.96868896,0.103515625
1725817472211,2024-09-08T17:44:32.211Z,41067,0.11859131,0.9720459,0.1026001
1725817472257,2024-09-08T17:44:32.257Z,41113,0.093811035,0.9974365,0.0927124
1725817472274,2024-09-08T17:44:32.274Z,41130,0.08502197,1.0073242,0.07910156
1725817472299,2024-09-08T17:44:32.299Z,41155,0.091918945,1.022583,0.08026123
1725817472346,2024-09-08T17:44:32.346Z,41202,0.078430176,1.0237427,0.08404541
1725817472391,2024-09-08T17:44:32.391Z,41247,0.028198242,1.015564,0.09991455
1725817472434,2024-09-08T17:44:32.434Z,41290,-0.054992676,0.9942627,0.117126465
1725817472481,2024-09-08T17:44:32.481Z,41337,0.0056152344,0.9951782,0.100097656
1725817472524,2024-09-08T17:44:32.524Z,41380,0.10119629,1.0109863,0.07867432
1725817472571,2024-09-08T17:44:32.571Z,41427,0.13140869,1.0202026,0.081848145
1725817472615,2024-09-08T17:44:32.615Z,41471,0.1126709,1.0261841,0.07141113
1725817472660,2024-09-08T17:44:32.660Z,41516,0.10839844,1.0291138,0.07055664
1725817472677,2024-09-08T17:44:32.677Z,41533,0.11828613,1.0222168,0.078063965
1725817472707,2024-09-08T17:44:32.707Z,41563,0.1171875,1.0297852,0.07421875
1725817472749,2024-09-08T17:44:32.749Z,41605,0.111816406,1.0375366,0.062805176
1725817472796,2024-09-08T17:44:32.796Z,41652,0.10986328,1.0212402,0.053955078
1725817472839,2024-09-08T17:44:32.839Z,41695,0.111694336,0.9893799,0.045776367
1725817472884,2024-09-08T17:44:32.884Z,41740,0.10296631,0.96984863,0.040222168
1725817472930,2024-09-08T17:44:32.930Z,41786,0.09539795,0.95770264,0.038330078
1725817472975,2024-09-08T17:44:32.975Z,41831,0.09869385,0.9713745,0.043518066
1725817473020,2024-09-08T17:44:33.020Z,41876,0.099731445,0.97821045,0.05456543
1725817473069,2024-09-08T17:44:33.069Z,41925,0.10253906,0.97753906,0.06506348
1725817473110,2024-09-08T17:44:33.110Z,41966,0.114746094,0.99694824,0.08312988
1725817473126,2024-09-08T17:44:33.126Z,41982,0.099243164,1.0846558,0.101989746
1725817473160,2024-09-08T17:44:33.160Z,42016,0.11248779,1.1002197,0.16986084
1725817473200,2024-09-08T17:44:33.200Z,42056,0.12683105,1.0315552,0.1607666
1725817473245,2024-09-08T17:44:33.245Z,42101,0.15795898,0.9904785,0.14526367
1725817473291,2024-09-08T17:44:33.291Z,42147,0.1427002,0.94403076,0.18859863
1725817473337,2024-09-08T17:44:33.337Z,42193,0.087768555,0.90008545,0.16436768
1725817473381,2024-09-08T17:44:33.381Z,42237,0.10546875,0.9017334,0.15197754
1725817473425,2024-09-08T17:44:33.425Z,42281,0.13433838,0.921875,0.14135742
1725817473468,2024-09-08T17:44:33.468Z,42324,0.1126709,0.9359741,0.1003418
1725817473561,2024-09-08T17:44:33.561Z,42417,0.116760254,0.97229004,0.07006836
1725817473577,2024-09-08T17:44:33.577Z,42433,0.14788818,0.9918213,0.09655762
1725817473593,2024-09-08T17:44:33.593Z,42449,0.13116455,1.0505371,0.09234619
1725817473614,2024-09-08T17:44:33.614Z,42470,0.09655762,1.0878296,0.09698486
1725817473649,2024-09-08T17:44:33.649Z,42505,0.07714844,1.0552979,0.10888672
1725817473697,2024-09-08T17:44:33.697Z,42553,0.06555176,1.0109253,0.11248779
1725817473738,2024-09-08T17:44:33.738Z,42594,0.13214111,0.98394775,0.095825195
1725817473785,2024-09-08T17:44:33.785Z,42641,0.16009521,0.98602295,0.093933105
1725817473830,2024-09-08T17:44:33.830Z,42686,0.17529297,0.9838867,0.06829834
1725817473875,2024-09-08T17:44:33.875Z,42731,0.24243164,0.97558594,0.046142578
1725817473919,2024-09-08T17:44:33.919Z,42775,0.25842285,0.95977783,0.051513672
1725817473934,2024-09-08T17:44:33.934Z,42790,0.25305176,0.97314453,0.030090332
1725817473963,2024-09-08T17:44:33.963Z,42819,0.2722168,0.9689331,0.010803223
1725817474010,2024-09-08T17:44:34.010Z,42866,0.27514648,0.96643066,0.05517578
1725817474053,2024-09-08T17:44:34.053Z,42909,0.2590332,0.99121094,0.113220215
1725817474099,2024-09-08T17:44:34.099Z,42955,0.30023193,0.98272705,0.0814209
1725817474145,2024-09-08T17:44:34.145Z,43001,0.31384277,0.9354248,0.066833496
1725817474189,2024-09-08T17:44:34.189Z,43045,0.32843018,0.9570923,0.09942627
1725817474235,2024-09-08T17:44:34.235Z,43091,0.3324585,0.94836426,0.123535156
1725817474280,2024-09-08T17:44:34.280Z,43136,0.35565186,0.91778564,0.11651611
1725817474326,2024-09-08T17:44:34.326Z,43182,0.36517334,0.92108154,0.12310791
1725817474369,2024-09-08T17:44:34.369Z,43225,0.32763672,0.94000244,0.10211182
1725817474385,2024-09-08T17:44:34.385Z,43241,0.32373047,0.9971924,0.08166504
1725817474414,2024-09-08T17:44:34.414Z,43270,0.28918457,1.064209,0.057678223
1725817474460,2024-09-08T17:44:34.460Z,43316,0.24993896,0.9887085,0.045654297
1725817474505,2024-09-08T17:44:34.505Z,43361,0.2758789,0.91619873,0.06713867
1725817474552,2024-09-08T17:44:34.552Z,43408,0.2652588,0.9647827,0.05279541
1725817474594,2024-09-08T17:44:34.594Z,43450,0.22784424,1.0308838,0.06970215
1725817474639,2024-09-08T17:44:34.639Z,43495,0.13641357,0.98846436,0.11328125
1725817474685,2024-09-08T17:44:34.685Z,43541,0.078186035,0.92071533,0.11450195
1725817474728,2024-09-08T17:44:34.728Z,43584,0.20251465,0.86590576,0.026977539
1725817474776,2024-09-08T17:44:34.776Z,43632,0.3225708,0.82006836,0.023742676
1725817474792,2024-09-08T17:44:34.792Z,43648,0.30651855,0.8131714,0.0022583008
1725817474820,2024-09-08T17:44:34.820Z,43676,0.26745605,0.83428955,-0.02154541
1725817474864,2024-09-08T17:44:34.864Z,43720,0.2894287,0.9003296,-0.047302246
1725817474911,2024-09-08T17:44:34.911Z,43767,0.31445312,1.0021362,-0.088378906
1725817474955,2024-09-08T17:44:34.955Z,43811,0.27642822,1.083435,-0.13946533
1725817475003,2024-09-08T17:44:35.003Z,43859,0.21484375,1.0838013,-0.13122559
1725817475044,2024-09-08T17:44:35.044Z,43900,0.24346924,1.0427856,-0.091552734
1725817475091,2024-09-08T17:44:35.091Z,43947,0.26940918,1.0178223,-0.094177246
1725817475136,2024-09-08T17:44:35.136Z,43992,0.23944092,1.0159912,-0.0791626
1725817475179,2024-09-08T17:44:35.179Z,44035,0.24279785,0.99157715,-0.093933105
1725817475195,2024-09-08T17:44:35.195Z,44051,0.2512207,1.0301514,-0.09106445
1725817475224,2024-09-08T17:44:35.224Z,44080,0.19848633,1.0750732,-0.076293945
1725817475269,2024-09-08T17:44:35.269Z,44125,0.20288086,1.0501099,-0.09863281
1725817475315,2024-09-08T17:44:35.315Z,44171,0.26940918,1.0469971,-0.13232422
1725817475358,2024-09-08T17:44:35.358Z,44214,0.32421875,1.0001831,-0.1716919
1725817475404,2024-09-08T17:44:35.404Z,44260,0.3815918,0.9683838,-0.12823486
1725817475453,2024-09-08T17:44:35.453Z,44309,0.3890381,0.9625244,-0.0680542
1725817475496,2024-09-08T17:44:35.496Z,44352,0.49108887,1.020752,-0.20819092
1725817475584,2024-09-08T17:44:35.584Z,44440,0.5810547,1.0362549,-0.3847046
1725817475602,2024-09-08T17:44:35.602Z,44458,0.62597656,0.96917725,-0.41412354
1725817475619,2024-09-08T17:44:35.619Z,44475,0.51452637,0.9246826,-0.32507324
1725817475635,2024-09-08T17:44:35.635Z,44491,0.5965576,1.107727,-0.19226074
1725817475673,2024-09-08T17:44:35.673Z,44529,0.58984375,1.314331,-0.24536133
1725817475724,2024-09-08T17:44:35.724Z,44580,0.3918457,1.5304565,-0.17022705
1725817475764,2024-09-08T17:44:35.764Z,44620,0.019226074,1.7007446,0.07507324
1725817475813,2024-09-08T17:44:35.813Z,44669,-0.3538208,1.5119629,0.20861816
1725817475854,2024-09-08T17:44:35.854Z,44710,0.40509033,1.1234741,-0.25006104
1725817475905,2024-09-08T17:44:35.905Z,44761,0.6586914,0.9734497,-0.23138428
1725817475947,2024-09-08T17:44:35.947Z,44803,0.080566406,0.7536621,-0.10369873
1725817475991,2024-09-08T17:44:35.991Z,44847,0.040161133,0.61798096,0.15539551
1725817476036,2024-09-08T17:44:36.036Z,44892,0.2828369,0.5606079,0.14520264
1725817476053,2024-09-08T17:44:36.053Z,44909,0.47302246,0.5178833,-0.16766357
1725817476079,2024-09-08T17:44:36.079Z,44935,0.66638184,0.46746826,-0.21759033
1725817476124,2024-09-08T17:44:36.124Z,44980,0.83813477,0.43823242,-0.29888916
1725817476170,2024-09-08T17:44:36.170Z,45026,0.8441162,0.43133545,-0.40667725
1725817476216,2024-09-08T17:44:36.216Z,45072,0.89593506,0.45910645,-0.37243652
1725817476258,2024-09-08T17:44:36.258Z,45114,0.9075928,0.47375488,-0.3560791
1725817476304,2024-09-08T17:44:36.304Z,45160,0.8936157,0.47564697,-0.3729248
1725817476350,2024-09-08T17:44:36.350Z,45206,0.9053345,0.4970703,-0.33721924
1725817476394,2024-09-08T17:44:36.394Z,45250,0.8463135,0.4967041,-0.36254883
1725817476442,2024-09-08T17:44:36.442Z,45298,0.814209,0.505249,-0.33343506
1725817476458,2024-09-08T17:44:36.458Z,45314,0.7710571,0.5124512,-0.29223633
1725817476492,2024-09-08T17:44:36.492Z,45348,0.74890137,0.51416016,-0.3086548
1725817476530,2024-09-08T17:44:36.530Z,45386,0.7557373,0.5300293,-0.32336426
1725817476574,2024-09-08T17:44:36.574Z,45430,0.7265625,0.52685547,-0.3234253
1725817476619,2024-09-08T17:44:36.619Z,45475,0.6654663,0.52508545,-0.2993164
1725817476665,2024-09-08T17:44:36.665Z,45521,0.57733154,0.51989746,-0.28704834
1725817476707,2024-09-08T17:44:36.707Z,45563,0.5046387,0.49798584,-0.3463745
1725817476754,2024-09-08T17:44:36.754Z,45610,0.54907227,0.45922852,-0.38311768
1725817476799,2024-09-08T17:44:36.799Z,45655,0.779541,0.7114868,-0.12023926
1725817476843,2024-09-08T17:44:36.843Z,45699,0.8293457,0.901001,-0.045410156
1725817476890,2024-09-08T17:44:36.890Z,45746,0.7319336,1.0220947,-0.15057373
1725817476908,2024-09-08T17:44:36.908Z,45764,0.72265625,1.1593628,0.03540039
1725817476947,2024-09-08T17:44:36.947Z,45803,0.72875977,1.1437988,0.30737305
1725817476979,2024-09-08T17:44:36.979Z,45835,0.637146,0.95336914,0.29803467
1725817477022,2024-09-08T17:44:37.022Z,45878,0.6893921,0.8306885,0.24822998
1725817477068,2024-09-08T17:44:37.068Z,45924,0.7984009,0.7774048,0.20794678
1725817477115,2024-09-08T17:44:37.115Z,45971,0.8518677,0.74713135,0.114990234
1725817477158,2024-09-08T17:44:37.158Z,46014,0.8942871,0.76068115,0.032226562
1725817477202,2024-09-08T17:44:37.202Z,46058,0.9222412,0.76452637,0.039245605
1725817477249,2024-09-08T17:44:37.249Z,46105,0.9782715,0.78271484,0.13494873
1725817477297,2024-09-08T17:44:37.297Z,46153,0.93304443,0.7774658,0.19378662
1725817477314,2024-09-08T17:44:37.314Z,46170,0.9123535,0.6899414,0.22503662
1725817477339,2024-09-08T17:44:37.339Z,46195,1.1074829,0.5845947,0.3010254
1725817477383,2024-09-08T17:44:37.383Z,46239,1.1781616,0.41815186,0.28692627
1725817477430,2024-09-08T17:44:37.430Z,46286,0.98236084,0.22717285,0.21624756
1725817477477,2024-09-08T17:44:37.477Z,46333,1.1663818,0.1486206,0.17553711
1725817477520,2024-09-08T17:44:37.520Z,46376,1.0866089,0.12512207,0.032287598
1725817477565,2024-09-08T17:44:37.565Z,46421,0.62750244,-0.078186035,-0.004272461
1725817477610,2024-09-08T17:44:37.610Z,46466,0.4267578,-0.23504639,0.080322266
1725817477660,2024-09-08T17:44:37.660Z,46516,0.21746826,-0.40979004,0.09185791
1725817477699,2024-09-08T17:44:37.699Z,46555,0.1329956,-0.5609741,0.11383057
1725817477713,2024-09-08T17:44:37.713Z,46569,0.089904785,-0.65478516,0.20898438
1725817477753,2024-09-08T17:44:37.753Z,46609,0.0052490234,-0.7727661,0.23608398
1725817477791,2024-09-08T17:44:37.791Z,46647,-0.117248535,-0.8284302,0.34985352
1725817477840,2024-09-08T17:44:37.840Z,46696,-0.13531494,-0.8147583,0.3731079
1725817477879,2024-09-08T17:44:37.879Z,46735,0.1638794,-0.80444336,0.14831543
1725817477923,2024-09-08T17:44:37.923Z,46779,0.89611816,-0.77404785,-0.17260742
1725817477968,2024-09-08T17:44:37.968Z,46824,1.0736084,-0.8599243,-0.5313721
1725817478014,2024-09-08T17:44:38.014Z,46870,0.6664429,-0.88793945,-0.07196045
1725817478059,2024-09-08T17:44:38.059Z,46915,0.33648682,-0.79119873,0.5040283
1725817478105,2024-09-08T17:44:38.105Z,46961,0.13323975,-0.72991943,0.65130615
1725817478151,2024-09-08T17:44:38.151Z,47007,0.21917725,-0.6915283,0.5997925
1725817478167,2024-09-08T17:44:38.167Z,47023,0.9580078,-0.64801025,0.3544922
1725817478194,2024-09-08T17:44:38.194Z,47050,1.2241211,-0.7984009,-0.03314209
1725817478237,2024-09-08T17:44:38.237Z,47093,0.9753418,-0.92041016,0.055847168
1725817478285,2024-09-08T17:44:38.285Z,47141,0.6804199,-0.8979492,0.33502197
1725817478328,2024-09-08T17:44:38.328Z,47184,0.15063477,-0.8093262,0.4282837
1725817478375,2024-09-08T17:44:38.375Z,47231,-0.17700195,-0.7139282,0.44451904
1725817478421,2024-09-08T17:44:38.421Z,47277,-0.1720581,-0.5844116,0.3031006
1725817478465,2024-09-08T17:44:38.465Z,47321,-0.016967773,-0.43847656,0.10284424
1725817478511,2024-09-08T17:44:38.511Z,47367,0.4683838,-0.42712402,-0.39678955
1725817478556,2024-09-08T17:44:38.556Z,47412,1.0476685,-0.45159912,-0.8886719
1725817478572,2024-09-08T17:44:38.572Z,47428,0.9871826,-0.6942749,-0.8198242
1725817478610,2024-09-08T17:44:38.610Z,47466,0.70129395,-0.9220581,-0.44451904
1725817478644,2024-09-08T17:44:38.644Z,47500,0.60595703,-0.96606445,-0.26281738
1725817478691,2024-09-08T17:44:38.691Z,47547,0.6801758,-0.9024658,-0.2942505
1725817478734,2024-09-08T17:44:38.734Z,47590,0.74938965,-0.7663574,-0.34747314
1725817478782,2024-09-08T17:44:38.782Z,47638,0.6890869,-0.67437744,-0.3260498
1725817478826,2024-09-08T17:44:38.826Z,47682,0.4862671,-0.6323242,-0.27288818
1725817478869,2024-09-08T17:44:38.869Z,47725,0.3909912,-0.6473999,-0.29388428
1725817478914,2024-09-08T17:44:38.914Z,47770,0.44500732,-0.63067627,-0.3479004
1725817478960,2024-09-08T17:44:38.960Z,47816,0.55566406,-0.5611572,-0.29400635
1725817478977,2024-09-08T17:44:38.977Z,47833,0.66815186,-0.48168945,-0.2689209
1725817479003,2024-09-08T17:44:39.003Z,47859,0.6869507,-0.46350098,-0.31811523
1725817479051,2024-09-08T17:44:39.051Z,47907,0.6581421,-0.4421997,-0.33648682
1725817479096,2024-09-08T17:44:39.096Z,47952,0.6187744,-0.40264893,-0.3734131
1725817479141,2024-09-08T17:44:39.141Z,47997,0.5809326,-0.3826294,-0.46514893
1725817479186,2024-09-08T17:44:39.186Z,48042,0.5439453,-0.3215332,-0.54693604
1725817479232,2024-09-08T17:44:39.232Z,48088,0.5811157,-0.27539062,-0.69085693
1725817479276,2024-09-08T17:44:39.276Z,48132,0.7283325,-0.2658081,-0.7918701
1725817479320,2024-09-08T17:44:39.320Z,48176,0.75598145,-0.28381348,-0.8451538
1725817479365,2024-09-08T17:44:39.365Z,48221,0.8088379,-0.2883911,-0.852478
1725817479381,2024-09-08T17:44:39.381Z,48237,0.87506104,-0.2345581,-0.7910156
1725817479407,2024-09-08T17:44:39.407Z,48263,0.9026489,-0.12670898,-0.67755127
1725817479454,2024-09-08T17:44:39.454Z,48310,1.0101318,-0.040222168,-0.67974854
1725817479501,2024-09-08T17:44:39.501Z,48357,0.9494629,-0.0119018555,-0.68341064
1725817479592,2024-09-08T17:44:39.592Z,48448,0.8647461,0.03125,-0.56170654
1725817479611,2024-09-08T17:44:39.611Z,48467,0.8149414,0.11230469,-0.4607544
1725817479635,2024-09-08T17:44:39.635Z,48491,0.6661377,0.18145752,-0.5718994
1725817479678,2024-09-08T17:44:39.678Z,48534,0.63757324,0.24499512,-0.63049316
1725817479724,2024-09-08T17:44:39.724Z,48580,0.848938,0.3392334,-0.5908203
1725817479768,2024-09-08T17:44:39.768Z,48624,0.97857666,0.3383789,-0.84503174
1725817479817,2024-09-08T17:44:39.817Z,48673,1.0218506,0.2949829,-0.79016113
1725817479832,2024-09-08T17:44:39.832Z,48688,0.8880005,0.18884277,-0.7305298
1725817479906,2024-09-08T17:44:39.906Z,48762,0.6959839,0.091918945,-0.6836548
1725817479921,2024-09-08T17:44:39.921Z,48777,0.6189575,0.049865723,-0.62805176
1725817479968,2024-09-08T17:44:39.968Z,48824,0.44885254,0.03466797,-0.7496948
1725817480008,2024-09-08T17:44:40.008Z,48864,0.48931885,0.09057617,-1.1226807
1725817480039,2024-09-08T17:44:40.039Z,48895,0.7163696,0.14294434,-1.4734497
1725817480100,2024-09-08T17:44:40.100Z,48956,0.73339844,0.054138184,-1.4569702
1725817480129,2024-09-08T17:44:40.129Z,48985,0.6946411,-0.05303955,-0.8886719
1725817480177,2024-09-08T17:44:40.177Z,49033,0.49505615,-0.15197754,-0.46783447
1725817480221,2024-09-08T17:44:40.221Z,49077,0.46411133,-0.19934082,-0.3361206
1725817480236,2024-09-08T17:44:40.236Z,49092,0.3922119,-0.16168213,0.051757812
1725817480267,2024-09-08T17:44:40.267Z,49123,0.21551514,-0.1026001,0.088378906
1725817480310,2024-09-08T17:44:40.310Z,49166,0.24542236,0.029846191,-0.30273438
1725817480356,2024-09-08T17:44:40.356Z,49212,0.45965576,0.15692139,-0.9517212
1725817480397,2024-09-08T17:44:40.397Z,49253,0.71429443,0.2802124,-1.4869995
1725817480539,2024-09-08T17:44:40.539Z,49395,0.7105713,0.23413086,-1.4603882
1725817480559,2024-09-08T17:44:40.559Z,49415,0.7194824,0.0814209,-1.0614624
1725817480577,2024-09-08T17:44:40.577Z,49433,0.75201416,-0.06896973,-0.7807617
1725817480597,2024-09-08T17:44:40.597Z,49453,0.75775146,-0.10644531,-0.64801025
1725817480624,2024-09-08T17:44:40.624Z,49480,0.7866211,-0.09375,-0.7112427
1725817480639,2024-09-08T17:44:40.639Z,49495,0.8274536,-0.061462402,-0.8912964
1725817480668,2024-09-08T17:44:40.668Z,49524,0.902771,-0.030090332,-0.9871216
1725817480714,2024-09-08T17:44:40.714Z,49570,0.8675537,-0.05670166,-0.9885864
1725817480761,2024-09-08T17:44:40.761Z,49617,0.7748413,-0.08679199,-0.8979492
1725817480803,2024-09-08T17:44:40.803Z,49659,0.60754395,-0.16137695,-0.77856445
1725817480849,2024-09-08T17:44:40.849Z,49705,0.48156738,-0.25164795,-0.5821533
1725817480895,2024-09-08T17:44:40.895Z,49751,0.44451904,-0.29040527,-0.41436768
1725817480941,2024-09-08T17:44:40.941Z,49797,0.38085938,-0.2588501,-0.14666748
1725817481079,2024-09-08T17:44:41.079Z,49935,0.43792725,-0.1303711,0.03881836
1725817481099,2024-09-08T17:44:41.099Z,49955,0.33972168,0.10687256,-0.26538086
1725817481118,2024-09-08T17:44:41.118Z,49974,0.6628418,0.28607178,-0.9046631
1725817481137,2024-09-08T17:44:41.137Z,49993,1.0116577,0.47314453,-1.3284302
1725817481152,2024-09-08T17:44:41.152Z,50008,0.6046753,0.26086426,-1.300354
1725817481167,2024-09-08T17:44:41.167Z,50023,0.4453125,-0.041809082,-0.9446411
1725817481210,2024-09-08T17:44:41.210Z,50066,0.4397583,-0.20733643,-0.82232666
1725817481255,2024-09-08T17:44:41.255Z,50111,0.5368042,-0.26306152,-0.7955322
1725817481302,2024-09-08T17:44:41.302Z,50158,0.68670654,-0.23718262,-0.8856201
1725817481345,2024-09-08T17:44:41.345Z,50201,0.7626343,-0.15948486,-0.9415283
1725817481391,2024-09-08T17:44:41.391Z,50247,0.7741699,-0.07354736,-0.8787842
1725817481436,2024-09-08T17:44:41.436Z,50292,0.75097656,-0.01184082,-0.8258667
1725817481528,2024-09-08T17:44:41.528Z,50384,0.68548584,0.03363037,-0.72039795
1725817481548,2024-09-08T17:44:41.548Z,50404,0.6688843,0.0869751,-0.68066406
1725817481566,2024-09-08T17:44:41.566Z,50422,0.64727783,0.12475586,-0.64105225
1725817481583,2024-09-08T17:44:41.583Z,50439,0.6421509,0.13720703,-0.5979614
1725817481612,2024-09-08T17:44:41.612Z,50468,0.66973877,0.120666504,-0.6126709
1725817481660,2024-09-08T17:44:41.660Z,50516,0.6824341,0.104003906,-0.553772
1725817481748,2024-09-08T17:44:41.748Z,50604,0.6123047,0.086242676,-0.6051636
1725817481764,2024-09-08T17:44:41.764Z,50620,0.5600586,0.10144043,-0.6178589
1725817481793,2024-09-08T17:44:41.793Z,50649,0.5651245,0.1149292,-0.46844482
1725817481840,2024-09-08T17:44:41.840Z,50696,0.42175293,0.17651367,-0.49066162
1725817481979,2024-09-08T17:44:41.979Z,50835,0.46905518,0.39257812,-0.5065918
1725817481997,2024-09-08T17:44:41.997Z,50853,0.6179199,0.61712646,-0.4880371
1725817482016,2024-09-08T17:44:42.016Z,50872,0.6433716,0.8395996,-0.48742676
1725817482032,2024-09-08T17:44:42.032Z,50888,0.6168823,1.0391846,-0.49017334
1725817482048,2024-09-08T17:44:42.048Z,50904,0.59906006,1.0394897,-0.6669922
1725817482110,2024-09-08T17:44:42.110Z,50966,0.6729126,0.8838501,-0.5777588
1725817482124,2024-09-08T17:44:42.124Z,50980,0.7060547,0.76953125,-0.52404785
1725817482154,2024-09-08T17:44:42.154Z,51010,0.6819458,0.75549316,-0.50061035
1725817482199,2024-09-08T17:44:42.199Z,51055,0.6624756,0.8015137,-0.47875977
1725817482337,2024-09-08T17:44:42.337Z,51193,0.6268921,0.7710571,-0.4761963
1725817482354,2024-09-08T17:44:42.354Z,51210,0.61395264,0.8093262,-0.4859619
1725817482371,2024-09-08T17:44:42.371Z,51227,0.5761719,0.8272705,-0.5253296
1725817482386,2024-09-08T17:44:42.386Z,51242,0.48321533,0.8502197,-0.5322876
1725817482398,2024-09-08T17:44:42.398Z,51254,0.42736816,0.85528564,-0.5308838
1725817482421,2024-09-08T17:44:42.421Z,51277,0.40667725,0.87719727,-0.54229736
1725817482469,2024-09-08T17:44:42.469Z,51325,0.40423584,0.861145,-0.63635254
1725817482514,2024-09-08T17:44:42.514Z,51370,0.4459839,0.9537964,-0.7098999
1725817482560,2024-09-08T17:44:42.560Z,51416,0.5182495,1.0864868,-0.5952759
1725817482604,2024-09-08T17:44:42.604Z,51460,0.49749756,1.0952759,-0.38879395
1725817482648,2024-09-08T17:44:42.648Z,51504,0.36608887,1.0066528,-0.2288208
1725817482695,2024-09-08T17:44:42.695Z,51551,0.45587158,0.94091797,-0.056274414
1725817482738,2024-09-08T17:44:42.738Z,51594,0.5108032,0.79693604,0.08135986
1725817482753,2024-09-08T17:44:42.753Z,51609,0.41137695,0.71710205,0.05279541
1725817482783,2024-09-08T17:44:42.783Z,51639,0.4781494,0.63464355,0.013671875
1725817482829,2024-09-08T17:44:42.829Z,51685,0.8934326,0.588562,0.091796875
1725817482875,2024-09-08T17:44:42.875Z,51731,0.9332886,0.48309326,-0.28302002
1725817482920,2024-09-08T17:44:42.920Z,51776,1.0903931,0.50512695,-0.46697998
1725817482965,2024-09-08T17:44:42.965Z,51821,1.3131714,0.3885498,-0.46020508
1725817483010,2024-09-08T17:44:43.010Z,51866,1.2636108,0.21289062,-0.45532227
1725817483055,2024-09-08T17:44:43.055Z,51911,1.2288818,0.1204834,-0.41644287
1725817483100,2024-09-08T17:44:43.100Z,51956,1.2932129,0.08294678,-0.40533447
1725817483147,2024-09-08T17:44:43.147Z,52003,1.2365112,0.101379395,-0.37591553
1725817483164,2024-09-08T17:44:43.164Z,52020,1.1019287,0.09661865,-0.30151367
1725817483202,2024-09-08T17:44:43.202Z,52058,0.87402344,0.083740234,-0.2718506
1725817483235,2024-09-08T17:44:43.235Z,52091,0.7050781,-0.01739502,-0.13452148
1725817483281,2024-09-08T17:44:43.281Z,52137,0.5812378,-0.06738281,-0.073791504
1725817483323,2024-09-08T17:44:43.323Z,52179,0.44970703,-0.16033936,-0.009399414
1725817483370,2024-09-08T17:44:43.370Z,52226,0.43951416,-0.2713623,0.07574463
1725817483416,2024-09-08T17:44:43.416Z,52272,0.43273926,-0.39001465,0.14556885
1725817483461,2024-09-08T17:44:43.461Z,52317,0.22949219,-0.5352783,0.19573975
1725817483505,2024-09-08T17:44:43.505Z,52361,0.20202637,-0.57873535,0.17163086
1725817483551,2024-09-08T17:44:43.551Z,52407,1.0256958,-0.24658203,0.00579834
1725817483596,2024-09-08T17:44:43.596Z,52452,1.7391968,0.054626465,-0.20007324
1725817483610,2024-09-08T17:44:43.610Z,52466,1.1071167,-0.30334473,0.012390137
1725817483638,2024-09-08T17:44:43.638Z,52494,0.453125,-0.59265137,0.38586426
1725817483684,2024-09-08T17:44:43.684Z,52540,0.35009766,-0.60583496,0.40490723
1725817483730,2024-09-08T17:44:43.730Z,52586,1.2514038,-0.2078247,0.101867676
1725817483773,2024-09-08T17:44:43.773Z,52629,1.6401978,-0.12896729,-0.09631348
1725817483821,2024-09-08T17:44:43.821Z,52677,0.7836914,-0.5048828,0.23150635
1725817483865,2024-09-08T17:44:43.865Z,52721,0.1437378,-0.5769043,0.25274658
1725817483909,2024-09-08T17:44:43.909Z,52765,0.84887695,-0.27197266,0.16552734
1725817483954,2024-09-08T17:44:43.954Z,52810,1.2269287,-0.2107544,-0.10858154
1725817483999,2024-09-08T17:44:43.999Z,52855,1.0549927,-0.4100952,-0.014343262
1725817484013,2024-09-08T17:44:44.013Z,52869,0.9016113,-0.43182373,0.12310791
1725817484043,2024-09-08T17:44:44.043Z,52899,0.8851929,-0.3866577,0.14807129
1725817484090,2024-09-08T17:44:44.090Z,52946,0.8397827,-0.3927002,0.10882568
1725817484134,2024-09-08T17:44:44.134Z,52990,0.88952637,-0.39630127,0.093566895
1725817484179,2024-09-08T17:44:44.179Z,53035,0.888855,-0.37982178,0.09301758
1725817484225,2024-09-08T17:44:44.225Z,53081,0.850647,-0.3760376,0.08465576
1725817484271,2024-09-08T17:44:44.271Z,53127,0.7850342,-0.3746338,0.051635742
1725817484315,2024-09-08T17:44:44.315Z,53171,0.6468506,-0.33624268,0.032592773
1725817484359,2024-09-08T17:44:44.359Z,53215,0.44281006,-0.27960205,-0.019226074
1725817484404,2024-09-08T17:44:44.404Z,53260,0.52612305,-0.16699219,-0.14935303
1725817484423,2024-09-08T17:44:44.423Z,53279,0.7665405,-0.015686035,-0.17553711
1725817484448,2024-09-08T17:44:44.448Z,53304,1.0855713,0.16149902,-0.22167969
1725817484493,2024-09-08T17:44:44.493Z,53349,0.998291,0.2296753,-0.22528076
1725817484539,2024-09-08T17:44:44.539Z,53395,0.75250244,0.27423096,0.11071777
1725817484585,2024-09-08T17:44:44.585Z,53441,0.6481323,0.29956055,0.070251465
1725817484630,2024-09-08T17:44:44.630Z,53486,0.78741455,0.42736816,-0.36767578
1725817484675,2024-09-08T17:44:44.675Z,53531,1.0049438,0.47766113,-0.4743042
1725817484721,2024-09-08T17:44:44.721Z,53577,1.1082764,0.4364624,-0.7471924
1725817484766,2024-09-08T17:44:44.766Z,53622,1.1237183,0.3569336,-1.0899658
1725817484808,2024-09-08T17:44:44.808Z,53664,1.107544,0.2878418,-0.98394775
1725817484855,2024-09-08T17:44:44.855Z,53711,0.885437,0.24615479,-0.8913574
1725817484871,2024-09-08T17:44:44.871Z,53727,0.79486084,0.24499512,-0.84783936
1725817484900,2024-09-08T17:44:44.900Z,53756,0.7733154,0.26397705,-0.83709717
1725817484946,2024-09-08T17:44:44.946Z,53802,0.77282715,0.3447876,-0.7729492
1725817484990,2024-09-08T17:44:44.990Z,53846,0.7102051,0.4022827,-0.71875
1725817485040,2024-09-08T17:44:45.040Z,53896,0.666626,0.39819336,-0.72058105
1725817485079,2024-09-08T17:44:45.079Z,53935,0.69836426,0.41607666,-0.6906128
1725817485125,2024-09-08T17:44:45.125Z,53981,0.68707275,0.3914795,-0.6972046
1725817485171,2024-09-08T17:44:45.171Z,54027,0.69403076,0.3710327,-0.6921997
1725817485218,2024-09-08T17:44:45.218Z,54074,0.68304443,0.3408203,-0.6480713
1725817485258,2024-09-08T17:44:45.258Z,54114,0.65911865,0.317688,-0.6529541
1725817485319,2024-09-08T17:44:45.319Z,54175,0.62750244,0.2942505,-0.62390137
1725817485336,2024-09-08T17:44:45.336Z,54192,0.7030029,0.302063,-0.62109375
1725817485352,2024-09-08T17:44:45.352Z,54208,1.0863647,0.3986206,-0.53466797
1725817485394,2024-09-08T17:44:45.394Z,54250,1.69104,0.45819092,-0.74890137
1725817485440,2024-09-08T17:44:45.440Z,54296,1.8137207,0.31756592,-0.9147339
1725817485485,2024-09-08T17:44:45.485Z,54341,1.3684082,0.2163086,-0.89105225
1725817485528,2024-09-08T17:44:45.528Z,54384,0.53411865,0.15533447,-0.6609497
1725817485574,2024-09-08T17:44:45.574Z,54430,0.039855957,0.04711914,-0.54833984
1725817485621,2024-09-08T17:44:45.621Z,54477,-0.20483398,-0.1038208,-0.48321533
1725817485667,2024-09-08T17:44:45.667Z,54523,-0.38067627,-0.23449707,-0.513916
1725817485687,2024-09-08T17:44:45.687Z,54543,-0.46618652,-0.3114624,-0.8118286
1725817485709,2024-09-08T17:44:45.709Z,54565,-0.17736816,-0.19506836,-0.8199463
1725817485754,2024-09-08T17:44:45.754Z,54610,0.014526367,-0.10412598,-0.7459717
1725817485846,2024-09-08T17:44:45.846Z,54702,0.24572754,-0.050842285,-0.6939697
1725817485866,2024-09-08T17:44:45.866Z,54722,0.43823242,-0.068237305,-0.77575684
1725817485890,2024-09-08T17:44:45.890Z,54746,0.68927,-0.046936035,-0.7998047
1725817485934,2024-09-08T17:44:45.934Z,54790,0.8947754,-0.011230469,-0.8765869
1725817486023,2024-09-08T17:44:46.023Z,54879,0.9689331,0.021240234,-1.0459595
1725817486039,2024-09-08T17:44:46.039Z,54895,1.0241089,0.05657959,-1.0917969
1725817486068,2024-09-08T17:44:46.068Z,54924,1.0696411,0.09307861,-1.0650635
1725817486115,2024-09-08T17:44:46.115Z,54971,1.0111694,0.15673828,-0.95526123
1725817486129,2024-09-08T17:44:46.129Z,54985,0.92108154,0.2652588,-0.744751
1725817486162,2024-09-08T17:44:46.162Z,55018,0.7930908,0.29882812,-0.6079712
1725817486204,2024-09-08T17:44:46.204Z,55060,0.6502075,0.2522583,-0.56658936
1725817486251,2024-09-08T17:44:46.251Z,55107,0.654541,0.18701172,-0.5894165
1725817486297,2024-09-08T17:44:46.297Z,55153,0.67077637,0.14050293,-0.78302
1725817486342,2024-09-08T17:44:46.342Z,55198,0.732666,0.16448975,-0.90649414
1725817486384,2024-09-08T17:44:46.384Z,55240,0.74713135,0.16033936,-0.9146118
1725817486430,2024-09-08T17:44:46.430Z,55286,0.6824951,0.14923096,-0.83984375
1725817486521,2024-09-08T17:44:46.521Z,55377,0.6654053,0.13690186,-0.7979126
1725817486537,2024-09-08T17:44:46.537Z,55393,0.6276245,0.12786865,-0.7318115
1725817486557,2024-09-08T17:44:46.557Z,55413,0.55908203,0.1060791,-0.6645508
1725817486579,2024-09-08T17:44:46.579Z,55435,0.51116943,0.1083374,-0.67749023
1725817486608,2024-09-08T17:44:46.608Z,55464,0.55340576,0.1428833,-0.67858887
1725817486654,2024-09-08T17:44:46.654Z,55510,0.6696167,0.16497803,-0.66851807
1725817486698,2024-09-08T17:44:46.698Z,55554,0.8015137,0.15789795,-0.7349243
1725817486744,2024-09-08T17:44:46.744Z,55600,0.76220703,0.12213135,-0.79644775
1725817486799,2024-09-08T17:44:46.799Z,55655,0.7709961,0.083984375,-0.84576416
1725817486836,2024-09-08T17:44:46.836Z,55692,0.43475342,0.0079956055,-0.9204712
1725817486878,2024-09-08T17:44:46.878Z,55734,0.18591309,-0.040222168,-0.73565674
1725817486924,2024-09-08T17:44:46.924Z,55780,0.17260742,-0.024597168,-0.7591553
1725817486938,2024-09-08T17:44:46.938Z,55794,0.2810669,0.011169434,-1.0391235
1725817486969,2024-09-08T17:44:46.969Z,55825,0.40740967,0.05267334,-0.9960327
1725817487014,2024-09-08T17:44:47.014Z,55870,0.47009277,0.047729492,-1.0371704
1725817487061,2024-09-08T17:44:47.061Z,55917,0.5941162,0.17175293,-0.9336548
1725817487105,2024-09-08T17:44:47.105Z,55961,0.8187256,0.25512695,-0.82440186
1725817487157,2024-09-08T17:44:47.157Z,56013,0.8751831,0.29388428,-0.6925049
1725817487193,2024-09-08T17:44:47.193Z,56049,0.8340454,0.30755615,-0.6312866
1725817487240,2024-09-08T17:44:47.240Z,56096,0.7877197,0.28741455,-0.6437988
1725817487284,2024-09-08T17:44:47.284Z,56140,0.7402954,0.27148438,-0.6168823
1725817487328,2024-09-08T17:44:47.328Z,56184,0.6488037,0.2111206,-0.6765747
1725817487374,2024-09-08T17:44:47.374Z,56230,0.6378174,0.2088623,-0.7578125
1725817487389,2024-09-08T17:44:47.389Z,56245,0.6850586,0.25933838,-0.89416504
1725817487418,2024-09-08T17:44:47.418Z,56274,0.6970825,0.27496338,-0.90722656
1725817487462,2024-09-08T17:44:47.462Z,56318,0.62145996,0.21472168,-0.8626709
1725817487508,2024-09-08T17:44:47.508Z,56364,0.5363159,0.16131592,-0.72698975
1725817487553,2024-09-08T17:44:47.553Z,56409,0.57073975,0.17401123,-0.7216797
1725817487599,2024-09-08T17:44:47.599Z,56455,0.62023926,0.21295166,-0.8870239
1725817487691,2024-09-08T17:44:47.691Z,56547,0.6750488,0.21606445,-0.8779907
1725817487710,2024-09-08T17:44:47.710Z,56566,0.69122314,0.16491699,-0.6298828
1725817487736,2024-09-08T17:44:47.736Z,56592,0.6814575,0.1026001,-0.40307617
1725817487779,2024-09-08T17:44:47.779Z,56635,0.5780029,0.08666992,-0.41174316
1725817487871,2024-09-08T17:44:47.871Z,56727,0.45788574,0.17523193,-0.76257324
1725817487885,2024-09-08T17:44:47.885Z,56741,0.60614014,0.2515869,-0.9998779
1725817487901,2024-09-08T17:44:47.901Z,56757,0.614624,0.23443604,-1.0567627
1725817487917,2024-09-08T17:44:47.917Z,56773,0.65338135,0.15911865,-0.6704712
1725817487958,2024-09-08T17:44:47.958Z,56814,0.6427002,0.06213379,-0.4119873
1725817488004,2024-09-08T17:44:48.004Z,56860,0.5564575,0.014038086,-0.3392334
1725817488094,2024-09-08T17:44:48.094Z,56950,0.47045898,0.05731201,-0.6289673
1725817488110,2024-09-08T17:44:48.110Z,56966,0.71502686,0.25463867,-1.1679077
1725817488139,2024-09-08T17:44:48.139Z,56995,0.7722168,0.3729248,-1.3113403
1725817488183,2024-09-08T17:44:48.183Z,57039,0.6602173,0.2220459,-0.9395752
1725817488197,2024-09-08T17:44:48.197Z,57053,0.5821533,0.08972168,-0.53466797
1725817488242,2024-09-08T17:44:48.242Z,57098,0.5081787,0.05029297,-0.3824463
1725817488277,2024-09-08T17:44:48.277Z,57133,0.42822266,0.045837402,-0.519104
1725817488319,2024-09-08T17:44:48.319Z,57175,0.5429077,0.17230225,-0.7799072
1725817488366,2024-09-08T17:44:48.366Z,57222,0.61102295,0.31207275,-1.1071777
1725817488410,2024-09-08T17:44:48.410Z,57266,0.5802002,0.30029297,-1.1766357
1725817488456,2024-09-08T17:44:48.456Z,57312,0.5628052,0.2142334,-0.8206177
1725817488498,2024-09-08T17:44:48.498Z,57354,0.5161743,0.14678955,-0.58673096
1725817488545,2024-09-08T17:44:48.545Z,57401,0.49023438,0.13336182,-0.41900635
1725817488591,2024-09-08T17:44:48.591Z,57447,0.4159546,0.22607422,-0.24719238
1725817488634,2024-09-08T17:44:48.634Z,57490,0.55078125,0.40753174,-0.25616455
1725817488648,2024-09-08T17:44:48.648Z,57504,0.6505127,0.5615845,-0.24859619
1725817488688,2024-09-08T17:44:48.688Z,57544,0.67248535,0.7312012,-0.14935303
1725817488724,2024-09-08T17:44:48.724Z,57580,0.52734375,0.98883057,-0.18029785
1725817488771,2024-09-08T17:44:48.771Z,57627,0.2074585,1.3655396,-0.12420654
1725817488815,2024-09-08T17:44:48.815Z,57671,0.1184082,1.6619873,0.07611084
1725817488862,2024-09-08T17:44:48.862Z,57718,-0.01361084,1.5004883,0.12786865
1725817488910,2024-09-08T17:44:48.910Z,57766,-0.04046631,1.1203003,0.083496094
1725817488948,2024-09-08T17:44:48.948Z,57804,-0.01550293,1.046814,0.11590576
1725817488992,2024-09-08T17:44:48.992Z,57848,0.2952881,1.0516968,0.11230469
1725817489039,2024-09-08T17:44:49.039Z,57895,0.57025146,0.9869385,0.054260254
1725817489055,2024-09-08T17:44:49.055Z,57911,0.4833374,0.9151001,0.13635254
1725817489083,2024-09-08T17:44:49.083Z,57939,0.22998047,0.9055786,0.18365479
1725817489129,2024-09-08T17:44:49.129Z,57985,0.105285645,1.0241699,0.16217041
1725817489174,2024-09-08T17:44:49.174Z,58030,0.10021973,1.163208,0.13110352
1725817489220,2024-09-08T17:44:49.220Z,58076,0.14294434,1.1386108,0.15734863
1725817489266,2024-09-08T17:44:49.266Z,58122,0.16967773,1.1201782,0.19262695
1725817489313,2024-09-08T17:44:49.313Z,58169,0.18609619,1.1866455,0.14855957
1725817489357,2024-09-08T17:44:49.357Z,58213,0.2697754,1.185852,0.09338379
1725817489401,2024-09-08T17:44:49.401Z,58257,0.4593506,1.0741577,0.043640137
1725817489446,2024-09-08T17:44:49.446Z,58302,0.5470581,0.9293213,0.010620117
1725817489462,2024-09-08T17:44:49.462Z,58318,0.53900146,0.8551636,-0.041503906
1725817489489,2024-09-08T17:44:49.489Z,58345,0.5600586,0.7955322,-0.1359253
1725817489536,2024-09-08T17:44:49.536Z,58392,0.66503906,0.76971436,-0.10797119
1725817489580,2024-09-08T17:44:49.580Z,58436,0.6862793,0.69750977,-0.24957275
1725817489627,2024-09-08T17:44:49.627Z,58483,0.6704712,0.50079346,-0.22387695
1725817489669,2024-09-08T17:44:49.669Z,58525,0.5492554,0.32983398,-0.29400635
1725817489715,2024-09-08T17:44:49.715Z,58571,0.6452637,0.15655518,-0.52319336
1725817489762,2024-09-08T17:44:49.762Z,58618,0.7592163,0.15960693,-0.58825684
1725817489806,2024-09-08T17:44:49.806Z,58662,0.6782837,0.22265625,-0.6525879
1725817489850,2024-09-08T17:44:49.850Z,58706,0.62438965,0.2364502,-0.59661865
1725817489900,2024-09-08T17:44:49.900Z,58756,0.6226196,0.29473877,-0.576355
1725817489915,2024-09-08T17:44:49.915Z,58771,0.72595215,0.41644287,-0.63171387
1725817489945,2024-09-08T17:44:49.945Z,58801,0.7518921,0.43481445,-0.6234741
1725817489984,2024-09-08T17:44:49.984Z,58840,0.6889038,0.33746338,-0.59198
1725817490029,2024-09-08T17:44:50.029Z,58885,0.6625366,0.23028564,-0.48254395
1725817490075,2024-09-08T17:44:50.075Z,58931,0.57940674,0.17480469,-0.4944458
1725817490118,2024-09-08T17:44:50.118Z,58974,0.6225586,0.1586914,-0.6403198
1725817490165,2024-09-08T17:44:50.165Z,59021,0.7532959,0.19836426,-0.82470703
1725817490210,2024-09-08T17:44:50.210Z,59066,0.8770752,0.23382568,-0.9024658
1725817490253,2024-09-08T17:44:50.253Z,59109,0.8964844,0.1743164,-0.751709
1725817490299,2024-09-08T17:44:50.299Z,59155,0.8161011,0.0892334,-0.57543945
1725817490353,2024-09-08T17:44:50.353Z,59209,0.7513428,0.101379395,-0.50531006
1725817490368,2024-09-08T17:44:50.368Z,59224,0.6296387,0.13964844,-0.58898926
1725817490389,2024-09-08T17:44:50.389Z,59245,0.63952637,0.15924072,-0.9057007
1725817490435,2024-09-08T17:44:50.435Z,59291,0.541626,0.15002441,-1.1311646
1725817490479,2024-09-08T17:44:50.479Z,59335,0.44433594,0.024902344,-1.1420898
1725817490528,2024-09-08T17:44:50.528Z,59384,0.4319458,-0.03692627,-0.95721436
1725817490572,2024-09-08T17:44:50.572Z,59428,0.41864014,-0.049194336,-0.74902344
1725817490616,2024-09-08T17:44:50.616Z,59472,0.40039062,-0.12677002,-0.5782471
1725817490661,2024-09-08T17:44:50.661Z,59517,0.2828369,-0.19934082,-0.45513916
1725817490751,2024-09-08T17:44:50.751Z,59607,0.3831787,-0.031188965,-0.7402954
1725817490768,2024-09-08T17:44:50.768Z,59624,0.7614746,0.31536865,-1.1381226
1725817490784,2024-09-08T17:44:50.784Z,59640,0.80566406,0.3380127,-1.017456
1725817490801,2024-09-08T17:44:50.801Z,59657,0.7036133,0.17370605,-0.6790161
1725817490837,2024-09-08T17:44:50.837Z,59693,0.6511841,0.14770508,-0.4539795
1725817490889,2024-09-08T17:44:50.889Z,59745,0.67315674,0.19140625,-0.5321655
1725817490930,2024-09-08T17:44:50.930Z,59786,0.7761841,0.3045044,-0.6773071
1725817490975,2024-09-08T17:44:50.975Z,59831,0.83898926,0.35125732,-0.75842285
1725817491021,2024-09-08T17:44:51.021Z,59877,0.79785156,0.25427246,-0.7468262
1725817491066,2024-09-08T17:44:51.066Z,59922,0.6498413,0.123168945,-0.6685791
1725817491111,2024-09-08T17:44:51.111Z,59967,0.51934814,0.044921875,-0.739563
1725817491153,2024-09-08T17:44:51.153Z,60009,0.501709,0.04650879,-0.8691406
1725817491167,2024-09-08T17:44:51.167Z,60023,0.51501465,0.08856201,-0.9783325
1725817491200,2024-09-08T17:44:51.200Z,60056,0.49499512,0.13830566,-0.9613037
1725817491243,2024-09-08T17:44:51.243Z,60099,0.4765625,0.16607666,-0.89019775
1725817491287,2024-09-08T17:44:51.287Z,60143,0.43432617,0.23822021,-0.71875
1725817491336,2024-09-08T17:44:51.336Z,60192,0.40838623,0.3748169,-0.48242188
1725817491387,2024-09-08T17:44:51.387Z,60243,0.46661377,0.39239502,-0.29119873
1725817491424,2024-09-08T17:44:51.424Z,60280,0.45135498,0.38433838,-0.3717041
1725817491468,2024-09-08T17:44:51.468Z,60324,0.5456543,0.4362793,-0.5059204
1725817491514,2024-09-08T17:44:51.514Z,60370,0.6630249,0.6210327,-0.40734863
1725817491558,2024-09-08T17:44:51.558Z,60414,0.6912842,0.93933105,-0.45617676
1725817491572,2024-09-08T17:44:51.572Z,60428,0.6713257,1.2168579,-0.5270386
1725817491613,2024-09-08T17:44:51.613Z,60469,0.70458984,1.095459,-0.50897217
1725817491649,2024-09-08T17:44:51.649Z,60505,0.6677246,0.899292,-0.5209961
1725817491695,2024-09-08T17:44:51.695Z,60551,0.55249023,0.8458252,-0.54559326
1725817491738,2024-09-08T17:44:51.738Z,60594,0.47045898,0.80340576,-0.5584717
1725817491787,2024-09-08T17:44:51.787Z,60643,0.421875,0.6530762,-0.49621582
1725817491829,2024-09-08T17:44:51.829Z,60685,0.40893555,0.5648804,-0.33416748
1725817491874,2024-09-08T17:44:51.874Z,60730,0.48858643,0.78240967,-0.28588867
1725817491919,2024-09-08T17:44:51.919Z,60775,0.40411377,1.116272,-0.47277832
1725817491966,2024-09-08T17:44:51.966Z,60822,0.28411865,1.1227417,-0.38043213
1725817491982,2024-09-08T17:44:51.982Z,60838,0.3760376,0.91882324,-0.22216797
1725817492015,2024-09-08T17:44:52.015Z,60871,0.37530518,0.7841797,-0.20318604
1725817492064,2024-09-08T17:44:52.064Z,60920,0.32037354,0.85040283,-0.18377686
1725817492100,2024-09-08T17:44:52.100Z,60956,0.33221436,0.977417,-0.1897583
1725817492146,2024-09-08T17:44:52.146Z,61002,0.36401367,1.0253906,-0.1743164
1725817492191,2024-09-08T17:44:52.191Z,61047,0.31066895,1.0477905,-0.12371826
1725817492236,2024-09-08T17:44:52.236Z,61092,0.34509277,1.0634155,-0.055236816
1725817492280,2024-09-08T17:44:52.280Z,61136,0.26141357,1.010498,0.02154541
1725817492323,2024-09-08T17:44:52.323Z,61179,0.2625122,1.0254517,0.12878418
1725817492370,2024-09-08T17:44:52.370Z,61226,0.36865234,1.003418,0.057739258
1725817492415,2024-09-08T17:44:52.415Z,61271,0.47857666,0.97558594,0.0034179688
1725817492429,2024-09-08T17:44:52.429Z,61285,0.5598755,0.9614258,-0.05444336
1725817492458,2024-09-08T17:44:52.458Z,61314,0.7445679,0.88916016,-0.24487305
1725817492504,2024-09-08T17:44:52.504Z,61360,0.88964844,0.779541,-0.36279297
1725817492551,2024-09-08T17:44:52.551Z,61407,0.94836426,0.6914673,-0.43444824
1725817492593,2024-09-08T17:44:52.593Z,61449,1.0609131,0.66522217,-0.50567627
1725817492638,2024-09-08T17:44:52.638Z,61494,1.2163696,0.6895752,-0.5786133
1725817492684,2024-09-08T17:44:52.684Z,61540,1.2781372,0.7229614,-0.65802
1725817492728,2024-09-08T17:44:52.728Z,61584,1.2145996,0.75946045,-0.6055298
1725817492774,2024-09-08T17:44:52.774Z,61630,1.0154419,0.76464844,-0.38549805
1725817492821,2024-09-08T17:44:52.821Z,61677,0.87609863,0.72821045,-0.23059082
1725817492837,2024-09-08T17:44:52.837Z,61693,0.67803955,0.6838989,-0.06384277
1725817492871,2024-09-08T17:44:52.871Z,61727,0.51586914,0.59716797,0.026733398
1725817492910,2024-09-08T17:44:52.910Z,61766,0.4958496,0.5581665,0.09222412
1725817492955,2024-09-08T17:44:52.955Z,61811,0.54119873,0.5151367,0.14678955
1725817493001,2024-09-08T17:44:53.001Z,61857,0.52716064,0.4472046,0.12939453
1725817493045,2024-09-08T17:44:53.045Z,61901,0.52923584,0.3363037,0.18658447
1725817493092,2024-09-08T17:44:53.092Z,61948,0.6727295,0.23449707,0.2097168
1725817493135,2024-09-08T17:44:53.135Z,61991,0.87268066,0.19470215,0.07696533
1725817493180,2024-09-08T17:44:53.180Z,62036,1.1743164,0.12915039,-0.016784668
1725817493223,2024-09-08T17:44:53.223Z,62079,1.458313,0.030639648,-0.15435791
1725817493236,2024-09-08T17:44:53.236Z,62092,1.5062256,-0.17425537,-0.17932129
1725817493270,2024-09-08T17:44:53.270Z,62126,1.3234253,-0.33325195,-0.09576416
1725817493314,2024-09-08T17:44:53.314Z,62170,1.0705566,-0.37554932,-0.07836914
1725817493362,2024-09-08T17:44:53.362Z,62218,0.99334717,-0.3139038,-0.04559326
1725817493405,2024-09-08T17:44:53.405Z,62261,1.0195923,-0.19171143,0.0138549805
1725817493451,2024-09-08T17:44:53.451Z,62307,1.0582886,-0.051635742,0.005065918
1725817493496,2024-09-08T17:44:53.496Z,62352,1.081665,0.12817383,-0.003479004
1725817493584,2024-09-08T17:44:53.584Z,62440,1.0553589,0.27496338,0.023742676
1725817493600,2024-09-08T17:44:53.600Z,62456,1.0446777,0.37182617,0.07324219
1725817493632,2024-09-08T17:44:53.632Z,62488,1.0206299,0.4041748,0.051940918
1725817493722,2024-09-08T17:44:53.722Z,62578,0.9014282,0.3762207,0.04852295
1725817493738,2024-09-08T17:44:53.738Z,62594,0.79541016,0.32141113,0.068115234
1725817493755,2024-09-08T17:44:53.755Z,62611,0.75653076,0.25524902,0.0670166
1725817493771,2024-09-08T17:44:53.771Z,62627,0.67840576,0.18127441,0.051452637
1725817493810,2024-09-08T17:44:53.810Z,62666,0.5083008,0.14031982,0.08898926
1725817493856,2024-09-08T17:44:53.856Z,62712,0.5209961,0.20800781,0.048950195
1725817493900,2024-09-08T17:44:53.900Z,62756,0.65771484,0.3380127,-0.08538818
1725817493943,2024-09-08T17:44:53.943Z,62799,0.72454834,0.49047852,-0.12683105
1725817493988,2024-09-08T17:44:53.988Z,62844,0.914978,0.6829834,-0.13116455
1725817494034,2024-09-08T17:44:54.034Z,62890,1.1414185,0.8105469,-0.2876587
1725817494081,2024-09-08T17:44:54.081Z,62937,1.1810913,0.80029297,-0.36572266
1725817494097,2024-09-08T17:44:54.097Z,62953,1.1728516,0.6867676,-0.32104492
1725817494122,2024-09-08T17:44:54.122Z,62978,1.0631104,0.559021,-0.38848877
1725817494169,2024-09-08T17:44:54.169Z,63025,1.0098877,0.50061035,-0.29345703
1725817494215,2024-09-08T17:44:54.215Z,63071,1.0320435,0.44036865,-0.21765137
1725817494260,2024-09-08T17:44:54.260Z,63116,1.0551147,0.394104,-0.24078369
1725817494305,2024-09-08T17:44:54.305Z,63161,1.0673828,0.4081421,-0.20935059
1725817494351,2024-09-08T17:44:54.351Z,63207,1.0258789,0.4607544,-0.1953125
1725817494393,2024-09-08T17:44:54.393Z,63249,0.90545654,0.5142822,-0.1906128
1725817494441,2024-09-08T17:44:54.441Z,63297,0.7368164,0.55444336,-0.091308594
1725817494486,2024-09-08T17:44:54.486Z,63342,0.5551758,0.5233154,-0.0040283203
1725817494499,2024-09-08T17:44:54.499Z,63355,0.45788574,0.50341797,0.086242676
1725817494528,2024-09-08T17:44:54.528Z,63384,0.3638916,0.6035156,0.13226318
1725817494575,2024-09-08T17:44:54.575Z,63431,0.2869873,0.7067261,0.09539795
1725817494623,2024-09-08T17:44:54.623Z,63479,0.15386963,0.8920288,-0.041992188
1725817494663,2024-09-08T17:44:54.663Z,63519,0.07287598,1.1829224,-0.060058594
1725817494708,2024-09-08T17:44:54.708Z,63564,0.26013184,1.4622803,0.1159668
1725817494755,2024-09-08T17:44:54.755Z,63611,0.48999023,1.3911743,-0.07312012
1725817494800,2024-09-08T17:44:54.800Z,63656,0.6522827,1.0980225,-0.3413086
1725817494843,2024-09-08T17:44:54.843Z,63699,0.74993896,0.97906494,-0.19366455
1725817494891,2024-09-08T17:44:54.891Z,63747,0.91119385,0.93273926,-0.2565918
1725817494937,2024-09-08T17:44:54.937Z,63793,0.87908936,0.87976074,-0.28875732
1725817494952,2024-09-08T17:44:54.952Z,63808,0.7531128,0.90234375,-0.1796875
1725817494978,2024-09-08T17:44:54.978Z,63834,0.63983154,0.9526367,-0.09588623
1725817495024,2024-09-08T17:44:55.024Z,63880,0.60943604,1.0071411,-0.056640625
1725817495071,2024-09-08T17:44:55.071Z,63927,0.46984863,1.0100098,0.042053223
1725817495113,2024-09-08T17:44:55.113Z,63969,0.38989258,0.91833496,0.066345215
1725817495158,2024-09-08T17:44:55.158Z,64014,0.335083,0.84313965,0.065979004
1725817495203,2024-09-08T17:44:55.203Z,64059,0.26013184,0.78674316,0.10321045
1725817495251,2024-09-08T17:44:55.251Z,64107,0.25701904,0.7662964,0.025817871
1725817495294,2024-09-08T17:44:55.294Z,64150,0.3447876,0.80145264,-0.034240723
1725817495339,2024-09-08T17:44:55.339Z,64195,0.33026123,0.84039307,-0.0053710938
1725817495355,2024-09-08T17:44:55.355Z,64211,0.2654419,0.8781128,0.05279541
1725817495383,2024-09-08T17:44:55.383Z,64239,0.24920654,0.9243164,0.019104004
1725817495429,2024-09-08T17:44:55.429Z,64285,0.22180176,0.99835205,0.033935547
1725817495476,2024-09-08T17:44:55.476Z,64332,0.13195801,1.0588989,0.10253906
1725817495519,2024-09-08T17:44:55.519Z,64375,0.07800293,1.0939941,0.11779785
1725817495563,2024-09-08T17:44:55.563Z,64419,0.09240723,1.1121826,0.122558594
1725817495609,2024-09-08T17:44:55.609Z,64465,0.17303467,1.1002197,0.1585083
1725817495655,2024-09-08T17:44:55.655Z,64511,0.24505615,1.0843506,0.19689941
1725817495699,2024-09-08T17:44:55.699Z,64555,0.26678467,1.0650024,0.20648193
1725817495745,2024-09-08T17:44:55.745Z,64601,0.22058105,1.03302,0.2000122
1725817495761,2024-09-08T17:44:55.761Z,64617,0.2086792,1.0140991,0.19848633
1725817495791,2024-09-08T17:44:55.791Z,64647,0.21636963,1.010498,0.18988037
1725817495835,2024-09-08T17:44:55.835Z,64691,0.22607422,0.9928589,0.16827393
1725817495879,2024-09-08T17:44:55.879Z,64735,0.2119751,0.9989624,0.14685059
1725817495925,2024-09-08T17:44:55.925Z,64781,0.19641113,1.005188,0.13549805
1725817495969,2024-09-08T17:44:55.969Z,64825,0.1807251,1.0001831,0.11907959
1725817496059,2024-09-08T17:44:56.059Z,64915,0.17242432,1.0054321,0.10479736
1725817496076,2024-09-08T17:44:56.076Z,64932,0.16534424,1.0042114,0.08441162
1725817496104,2024-09-08T17:44:56.104Z,64960,0.15789795,0.9890137,0.07891846
1725817496148,2024-09-08T17:44:56.148Z,65004,0.16308594,0.9682617,0.06713867
1725817496195,2024-09-08T17:44:56.195Z,65051,0.19165039,0.9606323,0.050048828
1725817496211,2024-09-08T17:44:56.211Z,65067,0.2041626,0.98217773,0.08416748
1725817496239,2024-09-08T17:44:56.239Z,65095,0.14819336,0.9658203,0.08343506
1725817496284,2024-09-08T17:44:56.284Z,65140,0.30358887,0.93865967,0.07879639
1725817496331,2024-09-08T17:44:56.331Z,65187,0.45825195,0.9343872,0.089660645
1725817496375,2024-09-08T17:44:56.375Z,65231,0.60913086,0.91693115,0.05895996
1725817496418,2024-09-08T17:44:56.418Z,65274,0.5769043,0.8937378,0.044921875
1725817496464,2024-09-08T17:44:56.464Z,65320,0.5209961,0.9168701,-0.03527832
1725817496509,2024-09-08T17:44:56.509Z,65365,0.3587036,0.9414673,-0.03503418
1725817496555,2024-09-08T17:44:56.555Z,65411,0.1539917,0.96643066,0.05102539
1725817496598,2024-09-08T17:44:56.598Z,65454,-0.15264893,0.9869385,0.08880615
1725817496611,2024-09-08T17:44:56.611Z,65467,-0.37408447,0.9365845,0.11212158
1725817496643,2024-09-08T17:44:56.643Z,65499,-0.24865723,0.9859009,0.057434082
1725817496689,2024-09-08T17:44:56.689Z,65545,0.09362793,1.0481567,0.025756836
1725817496733,2024-09-08T17:44:56.733Z,65589,0.44488525,1.0473022,-0.06188965
1725817496779,2024-09-08T17:44:56.779Z,65635,0.56695557,0.9266968,-0.055786133
1725817496826,2024-09-08T17:44:56.826Z,65682,0.7335205,0.8861084,-0.06939697
1725817496870,2024-09-08T17:44:56.870Z,65726,0.6869507,0.9078369,-0.08203125
1725817496914,2024-09-08T17:44:56.914Z,65770,0.47961426,0.9365845,-0.16900635
1725817496959,2024-09-08T17:44:56.959Z,65815,0.3642578,0.94207764,-0.26654053
1725817497005,2024-09-08T17:44:57.005Z,65861,0.30145264,0.90771484,-0.31976318
1725817497018,2024-09-08T17:44:57.018Z,65874,0.26379395,0.88049316,-0.30944824
1725817497048,2024-09-08T17:44:57.048Z,65904,0.2789917,0.87475586,-0.30426025
1725817497095,2024-09-08T17:44:57.095Z,65951,0.26507568,0.88287354,-0.25274658
1725817497139,2024-09-08T17:44:57.139Z,65995,0.2880249,0.8887329,-0.22296143
1725817497182,2024-09-08T17:44:57.182Z,66038,0.3696289,0.89056396,-0.19439697
1725817497230,2024-09-08T17:44:57.230Z,66086,0.41345215,0.9016113,-0.13806152
1725817497275,2024-09-08T17:44:57.275Z,66131,0.44189453,0.9265747,-0.07885742
1725817497318,2024-09-08T17:44:57.318Z,66174,0.4691162,0.9508667,-0.080200195
1725817497365,2024-09-08T17:44:57.365Z,66221,0.4769287,0.96759033,-0.01928711
1725817497411,2024-09-08T17:44:57.411Z,66267,0.5463257,0.95269775,-0.010070801
1725817497453,2024-09-08T17:44:57.453Z,66309,0.59503174,0.9369507,-0.050476074
1725817497466,2024-09-08T17:44:57.466Z,66322,0.5829468,0.94555664,-0.059143066
1725817497501,2024-09-08T17:44:57.501Z,66357,0.5130005,0.9707031,-0.13861084
1725817497546,2024-09-08T17:44:57.546Z,66402,0.33587646,0.98480225,-0.2355957
1725817497589,2024-09-08T17:44:57.589Z,66445,0.095825195,0.9803467,-0.22406006
1725817497632,2024-09-08T17:44:57.632Z,66488,-0.14093018,0.95928955,-0.063964844
1725817497679,2024-09-08T17:44:57.679Z,66535,-0.22192383,0.9586792,0.080444336
1725817497723,2024-09-08T17:44:57.723Z,66579,-0.18218994,0.9737549,0.11053467
1725817497768,2024-09-08T17:44:57.768Z,66624,-0.0927124,0.99053955,0.08728027
1725817497812,2024-09-08T17:44:57.812Z,66668,0.037841797,0.98883057,0.0491333
1725817497860,2024-09-08T17:44:57.860Z,66716,0.12866211,1.0215454,0.044433594
1725817497874,2024-09-08T17:44:57.874Z,66730,0.34899902,1.0617676,-0.004638672
1725817497903,2024-09-08T17:44:57.903Z,66759,0.6241455,0.9998779,-0.062927246
1725817497950,2024-09-08T17:44:57.950Z,66806,0.6399536,0.9656372,-0.03149414
1725817497995,2024-09-08T17:44:57.995Z,66851,0.5430908,0.9540405,-0.16748047
1725817498042,2024-09-08T17:44:58.042Z,66898,0.6066284,0.89538574,-0.34014893
1725817498083,2024-09-08T17:44:58.083Z,66939,0.6834717,0.79052734,-0.45837402
1725817498130,2024-09-08T17:44:58.130Z,66986,0.5883789,0.73272705,-0.50341797
1725817498175,2024-09-08T17:44:58.175Z,67031,0.46697998,0.70196533,-0.48718262
1725817498219,2024-09-08T17:44:58.219Z,67075,0.38128662,0.7089844,-0.5348511
1725817498264,2024-09-08T17:44:58.264Z,67120,0.46124268,0.7597656,-0.7190552
1725817498279,2024-09-08T17:44:58.279Z,67135,0.38781738,0.7918701,-0.8019409
1725817498310,2024-09-08T17:44:58.310Z,67166,0.5985718,0.81744385,-0.7940674
1725817498356,2024-09-08T17:44:58.356Z,67212,0.71746826,0.8444824,-0.7163696
1725817498401,2024-09-08T17:44:58.401Z,67257,0.8395996,0.8206177,-0.64434814
1725817498445,2024-09-08T17:44:58.445Z,67301,0.92456055,0.82714844,-0.4192505
1725817498490,2024-09-08T17:44:58.490Z,67346,0.87475586,0.77197266,-0.14068604
1725817498535,2024-09-08T17:44:58.535Z,67391,0.72216797,0.70391846,0.08874512
1725817498580,2024-09-08T17:44:58.580Z,67436,0.5476074,0.6533203,0.2199707
1725817498625,2024-09-08T17:44:58.625Z,67481,0.6879883,0.67736816,0.2871704
1725817498668,2024-09-08T17:44:58.668Z,67524,0.87506104,0.70477295,0.2453003
1725817498714,2024-09-08T17:44:58.714Z,67570,1.0394287,0.9593506,0.4050293
1725817498731,2024-09-08T17:44:58.731Z,67587,0.29699707,0.82592773,0.78741455
1725817498760,2024-09-08T17:44:58.760Z,67616,0.06542969,0.5083618,0.5531006
1725817498806,2024-09-08T17:44:58.806Z,67662,0.29888916,0.3652954,0.34918213
1725817498851,2024-09-08T17:44:58.851Z,67707,-4.272461E-4,0.23522949,0.2614746
1725817498896,2024-09-08T17:44:58.896Z,67752,0.30218506,0.2798462,0.37176514
1725817498939,2024-09-08T17:44:58.939Z,67795,1.4608765,0.30047607,0.6234131
1725817498983,2024-09-08T17:44:58.983Z,67839,1.2387085,0.06695557,0.46551514
1725817499028,2024-09-08T17:44:59.028Z,67884,1.454895,0.056640625,0.4569702
1725817499073,2024-09-08T17:44:59.073Z,67929,1.9257812,0.08868408,0.50213623
1725817499119,2024-09-08T17:44:59.119Z,67975,1.4341431,0.045715332,0.3522339
1725817499134,2024-09-08T17:44:59.134Z,67990,0.9925537,0.11785889,0.34094238
1725817499165,2024-09-08T17:44:59.165Z,68021,0.69311523,0.24536133,0.59814453
1725817499209,2024-09-08T17:44:59.209Z,68065,0.053222656,0.24243164,0.60253906
1725817499253,2024-09-08T17:44:59.253Z,68109,-0.109313965,0.25604248,0.5783081
1725817499300,2024-09-08T17:44:59.300Z,68156,-0.12786865,0.22137451,0.48937988
1725817499347,2024-09-08T17:44:59.347Z,68203,0.3100586,0.107788086,0.55181885
1725817499387,2024-09-08T17:44:59.387Z,68243,1.250061,0.03845215,0.67523193
1725817499481,2024-09-08T17:44:59.481Z,68337,0.89624023,0.04058838,0.6810303
1725817499494,2024-09-08T17:44:59.494Z,68350,0.638855,-0.07470703,0.5163574
1725817499524,2024-09-08T17:44:59.524Z,68380,1.0687866,0.019165039,0.69592285
1725817499538,2024-09-08T17:44:59.538Z,68394,1.1155396,0.06341553,0.5932007
1725817499567,2024-09-08T17:44:59.567Z,68423,1.4018555,0.09613037,0.5753784
1725817499613,2024-09-08T17:44:59.613Z,68469,1.5640259,0.097961426,0.63848877
1725817499664,2024-09-08T17:44:59.664Z,68520,1.0244751,0.095336914,0.6813965
1725817499703,2024-09-08T17:44:59.703Z,68559,0.8925781,0.10424805,0.71240234
1725817499747,2024-09-08T17:44:59.747Z,68603,0.758667,0.08917236,0.66833496
1725817499795,2024-09-08T17:44:59.795Z,68651,0.3909912,0.058288574,0.5473633
1725817499838,2024-09-08T17:44:59.838Z,68694,0.35406494,0.033081055,0.5057373
1725817499886,2024-09-08T17:44:59.886Z,68742,0.19628906,0.15655518,0.5723877
1725817499930,2024-09-08T17:44:59.930Z,68786,-0.06842041,0.19415283,0.51586914
1725817499973,2024-09-08T17:44:59.973Z,68829,0.48083496,0.21685791,0.59332275
1725817499987,2024-09-08T17:44:59.987Z,68843,0.7178345,0.12915039,0.63500977
1725817500028,2024-09-08T17:45:00.028Z,68884,0.70666504,0.079711914,0.56365967
1725817500064,2024-09-08T17:45:00.064Z,68920,1.213562,0.10345459,0.7011719
1725817500110,2024-09-08T17:45:00.110Z,68966,1.5269165,0.13977051,0.6279297
1725817500156,2024-09-08T17:45:00.156Z,69012,1.6275024,0.1729126,0.6651001
1725817500200,2024-09-08T17:45:00.200Z,69056,1.3916016,0.11627197,0.67407227
1725817500246,2024-09-08T17:45:00.246Z,69102,1.15625,0.045898438,0.53674316
1725817500290,2024-09-08T17:45:00.290Z,69146,0.88238525,0.08807373,0.6265869
1725817500335,2024-09-08T17:45:00.335Z,69191,0.47265625,0.1340332,0.6211548
1725817500382,2024-09-08T17:45:00.382Z,69238,0.17974854,0.17401123,0.5696411
1725817500397,2024-09-08T17:45:00.397Z,69253,0.08770752,0.24285889,0.55755615
1725817500423,2024-09-08T17:45:00.423Z,69279,-0.058654785,0.23376465,0.5119629
1725817500469,2024-09-08T17:45:00.469Z,69325,0.44750977,0.20581055,0.6038208
1725817500513,2024-09-08T17:45:00.513Z,69369,1.0307617,0.21716309,0.6898804
1725817500558,2024-09-08T17:45:00.558Z,69414,1.022522,0.125,0.59381104
1725817500606,2024-09-08T17:45:00.606Z,69462,1.2384033,-0.0015869141,0.55877686
1725817500649,2024-09-08T17:45:00.649Z,69505,1.6696167,-0.14703369,0.5800781
1725817500695,2024-09-08T17:45:00.695Z,69551,1.4451904,-0.23937988,0.4708252
1725817500740,2024-09-08T17:45:00.740Z,69596,0.7182007,-0.13134766,0.49969482
1725817500785,2024-09-08T17:45:00.785Z,69641,0.5303955,0.027526855,0.57922363
1725817500802,2024-09-08T17:45:00.802Z,69658,0.5922241,0.13421631,0.67626953
1725817500830,2024-09-08T17:45:00.830Z,69686,0.36291504,0.23590088,0.6713867
1725817500876,2024-09-08T17:45:00.876Z,69732,0.19274902,0.2880249,0.54681396
1725817500921,2024-09-08T17:45:00.921Z,69777,0.28118896,0.3829956,0.3848877
1725817500964,2024-09-08T17:45:00.964Z,69820,0.5891113,0.44519043,0.40472412
1725817501009,2024-09-08T17:45:01.009Z,69865,0.8600464,0.4477539,0.59368896
1725817501101,2024-09-08T17:45:01.101Z,69957,0.90545654,0.30114746,0.50408936
1725817501154,2024-09-08T17:45:01.154Z,70010,1.0703735,0.29907227,0.36761475
1725817501167,2024-09-08T17:45:01.167Z,70023,1.1547852,0.34136963,0.38061523
1725817501236,2024-09-08T17:45:01.236Z,70092,1.1186523,0.33947754,0.4376831
1725817501249,2024-09-08T17:45:01.249Z,70105,1.1185913,0.32666016,0.40893555
1725817501262,2024-09-08T17:45:01.262Z,70118,0.9714966,0.29943848,0.42504883
1725817501278,2024-09-08T17:45:01.278Z,70134,0.79693604,0.27227783,0.4984131
1725817501322,2024-09-08T17:45:01.322Z,70178,0.80145264,0.27435303,0.5
1725817501369,2024-09-08T17:45:01.369Z,70225,0.798584,0.31188965,0.4683838
1725817501413,2024-09-08T17:45:01.413Z,70269,0.82128906,0.41033936,0.5515137
1725817501467,2024-09-08T17:45:01.467Z,70323,0.8529663,0.4749756,0.58203125
1725817501502,2024-09-08T17:45:01.502Z,70358,0.73553467,0.49731445,0.5097046
1725817501549,2024-09-08T17:45:01.549Z,70405,0.66967773,0.5246582,0.5090332
1725817501595,2024-09-08T17:45:01.595Z,70451,0.6928711,0.56140137,0.5187988
1725817501639,2024-09-08T17:45:01.639Z,70495,0.7301636,0.5704346,0.49401855
1725817501653,2024-09-08T17:45:01.653Z,70509,0.7071533,0.5595093,0.45037842
1725817501685,2024-09-08T17:45:01.685Z,70541,0.6054077,0.51605225,0.414917
1725817501730,2024-09-08T17:45:01.730Z,70586,0.50616455,0.47161865,0.3789673
1725817501776,2024-09-08T17:45:01.776Z,70632,0.46813965,0.4840088,0.36688232
1725817501822,2024-09-08T17:45:01.822Z,70678,0.41912842,0.5159912,0.37438965
1725817501864,2024-09-08T17:45:01.864Z,70720,0.44970703,0.59625244,0.4020996
1725817501908,2024-09-08T17:45:01.908Z,70764,0.42730713,0.67736816,0.3875122
1725817501958,2024-09-08T17:45:01.958Z,70814,0.4006958,0.767334,0.35302734
1725817501998,2024-09-08T17:45:01.998Z,70854,0.41101074,0.87493896,0.34973145
1725817502044,2024-09-08T17:45:02.044Z,70900,0.38061523,0.95440674,0.30981445
1725817502059,2024-09-08T17:45:02.059Z,70915,0.39312744,1.0385132,0.27526855
1725817502087,2024-09-08T17:45:02.087Z,70943,0.43218994,1.0994263,0.23590088
1725817502133,2024-09-08T17:45:02.133Z,70989,0.44830322,1.1137695,0.215271
1725817502177,2024-09-08T17:45:02.177Z,71033,0.45080566,1.0784912,0.22644043
1725817502223,2024-09-08T17:45:02.223Z,71079,0.37738037,1.00177,0.21276855
1725817502267,2024-09-08T17:45:02.267Z,71123,0.32592773,0.99243164,0.21398926
1725817502313,2024-09-08T17:45:02.313Z,71169,0.25341797,1.0249023,0.20526123
1725817502360,2024-09-08T17:45:02.360Z,71216,0.18115234,1.0422363,0.19122314
1725817502405,2024-09-08T17:45:02.405Z,71261,0.14611816,1.0402222,0.15484619
1725817502451,2024-09-08T17:45:02.451Z,71307,0.14556885,1.0203247,0.11315918
1725817502468,2024-09-08T17:45:02.468Z,71324,0.14703369,1.0072632,0.09399414
1725817502493,2024-09-08T17:45:02.493Z,71349,0.15588379,1.0108032,0.07098389
1725817502538,2024-09-08T17:45:02.538Z,71394,0.16778564,1.0233765,0.05029297
1725817502585,2024-09-08T17:45:02.585Z,71441,0.17486572,1.0001221,0.051696777
1725817502627,2024-09-08T17:45:02.627Z,71483,0.17016602,0.96643066,0.050354004
1725817502675,2024-09-08T17:45:02.675Z,71531,0.159729,0.97558594,0.0501709
1725817502718,2024-09-08T17:45:02.718Z,71574,0.14135742,0.9866333,0.059326172
1725817502765,2024-09-08T17:45:02.765Z,71621,0.117004395,0.97821045,0.064819336
1725817502808,2024-09-08T17:45:02.808Z,71664,0.10632324,0.97058105,0.07220459
1725817502855,2024-09-08T17:45:02.855Z,71711,0.121520996,0.9555664,0.08898926
1725817502897,2024-09-08T17:45:02.897Z,71753,0.1315918,0.9515991,0.103271484
1725817502908,2024-09-08T17:45:02.908Z,71764,0.13421631,0.9606323,0.1171875
1725817502942,2024-09-08T17:45:02.942Z,71798,0.13330078,0.9581909,0.11999512
1725817502987,2024-09-08T17:45:02.987Z,71843,0.1338501,0.95410156,0.10845947
1725817503033,2024-09-08T17:45:03.033Z,71889,0.14489746,0.9649658,0.109191895
1725817503078,2024-09-08T17:45:03.078Z,71934,0.15942383,0.96447754,0.1138916
1725817503125,2024-09-08T17:45:03.125Z,71981,0.16467285,1.0010986,0.1071167
1725817503170,2024-09-08T17:45:03.170Z,72026,0.17071533,1.076477,0.09033203
1725817503214,2024-09-08T17:45:03.214Z,72070,0.17297363,1.1033936,0.07836914
1725817503259,2024-09-08T17:45:03.259Z,72115,0.16448975,1.0710449,0.05810547
1725817503304,2024-09-08T17:45:03.304Z,72160,0.15484619,1.0582886,0.045043945
1725817503318,2024-09-08T17:45:03.318Z,72174,0.14349365,1.0651855,0.02319336
1725817503348,2024-09-08T17:45:03.348Z,72204,0.13763428,1.0941162,0.018127441
1725817503394,2024-09-08T17:45:03.394Z,72250,0.1383667,1.0859985,0.01159668
1725817503439,2024-09-08T17:45:03.439Z,72295,0.1293335,1.0654907,0.0037841797
1725817503485,2024-09-08T17:45:03.485Z,72341,0.11578369,1.0511475,0.005065918
1725817503530,2024-09-08T17:45:03.530Z,72386,0.10992432,1.031189,0.0076293945
1725817503576,2024-09-08T17:45:03.576Z,72432,0.101501465,0.994812,0.0075683594
1725817503621,2024-09-08T17:45:03.621Z,72477,0.095214844,0.9671631,0.011230469
1725817503665,2024-09-08T17:45:03.665Z,72521,0.09075928,0.97943115,0.009765625
1725817503709,2024-09-08T17:45:03.709Z,72565,0.09283447,0.9918213,0.00579834
1725817503724,2024-09-08T17:45:03.724Z,72580,0.10839844,0.97283936,0.0025024414
1725817503755,2024-09-08T17:45:03.755Z,72611,0.12902832,0.93811035,0.032348633
1725817503801,2024-09-08T17:45:03.801Z,72657,0.14489746,0.92852783,0.08392334
1725817503844,2024-09-08T17:45:03.844Z,72700,0.1427002,0.9929199,0.11224365
1725817503890,2024-09-08T17:45:03.890Z,72746,0.13311768,1.0581055,0.12225342
1725817503932,2024-09-08T17:45:03.932Z,72788,0.12133789,1.0599976,0.12286377
1725817503978,2024-09-08T17:45:03.978Z,72834,0.1161499,1.0466309,0.1338501
1725817504025,2024-09-08T17:45:04.025Z,72881,0.12896729,1.0303345,0.14239502
1725817504071,2024-09-08T17:45:04.071Z,72927,0.15075684,1.0449829,0.14300537
1725817504113,2024-09-08T17:45:04.113Z,72969,0.14758301,1.0703125,0.16711426
1725817504158,2024-09-08T17:45:04.158Z,73014,0.13330078,1.0428467,0.18499756
1725817504172,2024-09-08T17:45:04.172Z,73028,0.13140869,0.9688721,0.18762207
1725817504203,2024-09-08T17:45:04.203Z,73059,0.1373291,0.94818115,0.19494629
1725817504249,2024-09-08T17:45:04.249Z,73105,0.13006592,0.9303589,0.23510742
1725817504294,2024-09-08T17:45:04.294Z,73150,0.12609863,0.8875122,0.2849121
1725817504340,2024-09-08T17:45:04.340Z,73196,0.105407715,0.8967285,0.30895996
1725817504383,2024-09-08T17:45:04.383Z,73239,0.06463623,0.95806885,0.2793579
1725817504429,2024-09-08T17:45:04.429Z,73285,0.032348633,0.99609375,0.2515869
1725817504477,2024-09-08T17:45:04.477Z,73333,0.016601562,1.0058594,0.2479248
1725817504518,2024-09-08T17:45:04.518Z,73374,0.01751709,1.0112915,0.23858643
1725817504566,2024-09-08T17:45:04.566Z,73422,0.02734375,1.0267944,0.2166748
1725817504581,2024-09-08T17:45:04.581Z,73437,0.022094727,1.052002,0.21362305
1725817504611,2024-09-08T17:45:04.611Z,73467,-1.8310547E-4,1.0740356,0.19580078
1725817504654,2024-09-08T17:45:04.654Z,73510,-0.013000488,1.0546875,0.15344238
1725817504745,2024-09-08T17:45:04.745Z,73601,0.015197754,1.0320435,0.1326294
1725817504759,2024-09-08T17:45:04.759Z,73615,0.042053223,0.97906494,0.13238525
1725817504788,2024-09-08T17:45:04.788Z,73644,0.06347656,0.90075684,0.12915039
1725817504834,2024-09-08T17:45:04.834Z,73690,0.08691406,0.83917236,0.14935303
1725817504880,2024-09-08T17:45:04.880Z,73736,0.09869385,0.850647,0.19488525
1725817504924,2024-09-08T17:45:04.924Z,73780,0.09051514,0.8845825,0.20245361
1725817504970,2024-09-08T17:45:04.970Z,73826,0.10040283,0.9411621,0.2131958
1725817504983,2024-09-08T17:45:04.983Z,73839,0.1048584,0.99694824,0.22137451
1725817505013,2024-09-08T17:45:05.013Z,73869,0.091796875,1.012207,0.21514893
1725817505060,2024-09-08T17:45:05.060Z,73916,0.09173584,1.0222778,0.22827148
1725817505103,2024-09-08T17:45:05.103Z,73959,0.09448242,1.019165,0.23083496
1725817505149,2024-09-08T17:45:05.149Z,74005,0.08581543,0.99920654,0.21807861
1725817505194,2024-09-08T17:45:05.194Z,74050,0.07861328,0.9941406,0.2055664
1725817505240,2024-09-08T17:45:05.240Z,74096,0.081604004,0.9963379,0.18865967
1725817505284,2024-09-08T17:45:05.284Z,74140,0.09338379,0.991333,0.17260742
1725817505327,2024-09-08T17:45:05.327Z,74183,0.10681152,0.99786377,0.17102051
1725817505374,2024-09-08T17:45:05.374Z,74230,0.11126709,1.0006714,0.17712402
1725817505417,2024-09-08T17:45:05.417Z,74273,0.10284424,0.99365234,0.18347168
1725817505430,2024-09-08T17:45:05.430Z,74286,0.09082031,0.99835205,0.20629883
1725817505508,2024-09-08T17:45:05.508Z,74364,0.080078125,1.0140991,0.24249268
1725817505522,2024-09-08T17:45:05.522Z,74378,0.09265137,1.0136719,0.2508545
1725817505554,2024-09-08T17:45:05.554Z,74410,0.081848145,1.0375977,0.24169922
1725817505607,2024-09-08T17:45:05.607Z,74463,0.07531738,1.1029663,0.27752686
1725817505644,2024-09-08T17:45:05.644Z,74500,0.08178711,1.1101074,0.29766846
1725817505689,2024-09-08T17:45:05.689Z,74545,0.049865723,1.1480103,0.22930908
1725817505733,2024-09-08T17:45:05.733Z,74589,0.03717041,1.2006836,0.1864624
1725817505786,2024-09-08T17:45:05.786Z,74642,0.083740234,1.236206,0.2189331
1725817505825,2024-09-08T17:45:05.825Z,74681,0.018615723,1.15979,0.1876831
1725817505839,2024-09-08T17:45:05.839Z,74695,0.05706787,1.0671387,0.23706055
1725817505871,2024-09-08T17:45:05.871Z,74727,0.1473999,0.975708,0.27838135
1725817505914,2024-09-08T17:45:05.914Z,74770,0.23614502,0.9100342,0.28179932
1725817505959,2024-09-08T17:45:05.959Z,74815,0.3638916,0.83013916,0.3482666
1725817506004,2024-09-08T17:45:06.004Z,74860,0.34631348,0.7388916,0.3416748
1725817506047,2024-09-08T17:45:06.047Z,74903,0.39630127,0.67803955,0.46655273
1725817506095,2024-09-08T17:45:06.095Z,74951,0.36291504,0.5494995,0.50878906
1725817506139,2024-09-08T17:45:06.139Z,74995,0.29211426,0.414917,0.5102539
1725817506185,2024-09-08T17:45:06.185Z,75041,-0.022399902,0.3876953,0.5186157
1725817506232,2024-09-08T17:45:06.232Z,75088,-0.022338867,0.5147095,0.39904785
1725817506247,2024-09-08T17:45:06.247Z,75103,0.13189697,0.909729,0.27142334
1725817506275,2024-09-08T17:45:06.275Z,75131,0.8196411,1.0930786,0.61309814
1725817506339,2024-09-08T17:45:06.339Z,75195,0.77020264,0.90460205,0.61761475
1725817506363,2024-09-08T17:45:06.363Z,75219,0.4743042,0.6820679,0.50146484
1725817506409,2024-09-08T17:45:06.409Z,75265,0.49493408,0.49780273,0.5042114
1725817506456,2024-09-08T17:45:06.456Z,75312,0.40789795,0.40612793,0.3972168
1725817506502,2024-09-08T17:45:06.502Z,75358,0.4336548,0.48608398,0.41430664
1725817506544,2024-09-08T17:45:06.544Z,75400,0.61486816,0.6347046,0.5489502
1725817506729,2024-09-08T17:45:06.729Z,75585,0.6503296,0.66534424,0.6861572
1725817506748,2024-09-08T17:45:06.748Z,75604,0.5856323,0.7023926,0.76519775
1725817506768,2024-09-08T17:45:06.768Z,75624,0.4821167,0.69818115,0.74053955
1725817506783,2024-09-08T17:45:06.783Z,75639,0.48919678,0.6112671,0.6680908
1725817506799,2024-09-08T17:45:06.799Z,75655,0.58862305,0.5317993,0.6119385
1725817506813,2024-09-08T17:45:06.813Z,75669,0.5507202,0.52508545,0.5886841
1725817506826,2024-09-08T17:45:06.826Z,75682,0.49273682,0.5480957,0.62890625
1725817506904,2024-09-08T17:45:06.904Z,75760,0.50494385,0.56292725,0.6627197
1725817506948,2024-09-08T17:45:06.948Z,75804,0.5060425,0.5587158,0.6843262
1725817506961,2024-09-08T17:45:06.961Z,75817,0.55511475,0.57421875,0.69415283
1725817507083,2024-09-08T17:45:07.083Z,75939,0.49969482,0.5689087,0.67803955
1725817507095,2024-09-08T17:45:07.095Z,75951,0.49127197,0.5440674,0.6576538
1725817507134,2024-09-08T17:45:07.134Z,75990,0.51208496,0.53674316,0.6624756
1725817507179,2024-09-08T17:45:07.179Z,76035,0.49468994,0.54797363,0.67059326
1725817507192,2024-09-08T17:45:07.192Z,76048,0.49493408,0.55426025,0.66638184
1725817507271,2024-09-08T17:45:07.271Z,76127,0.5005493,0.5619507,0.65844727
1725817507285,2024-09-08T17:45:07.285Z,76141,0.48706055,0.55493164,0.6800537
1725817507297,2024-09-08T17:45:07.297Z,76153,0.4882202,0.5477295,0.68444824
1725817507308,2024-09-08T17:45:07.308Z,76164,0.4890747,0.5531616,0.6553345
1725817507354,2024-09-08T17:45:07.354Z,76210,0.48760986,0.5563965,0.6428833
1725817507404,2024-09-08T17:45:07.404Z,76260,0.49291992,0.5553589,0.6560669
1725817507490,2024-09-08T17:45:07.490Z,76346,0.48657227,0.5579834,0.6633301
1725817507504,2024-09-08T17:45:07.504Z,76360,0.48358154,0.55688477,0.65289307
1725817507517,2024-09-08T17:45:07.517Z,76373,0.49328613,0.5463867,0.65563965
1725817507533,2024-09-08T17:45:07.533Z,76389,0.50616455,0.5404663,0.66052246
1725817507585,2024-09-08T17:45:07.585Z,76441,0.50042725,0.5270386,0.63757324
1725817507668,2024-09-08T17:45:07.668Z,76524,0.4888916,0.51226807,0.61938477
1725817507683,2024-09-08T17:45:07.683Z,76539,0.5218506,0.5012207,0.6288452
1725817507714,2024-09-08T17:45:07.714Z,76570,0.5397339,0.47320557,0.6535034
1725817507803,2024-09-08T17:45:07.803Z,76659,0.51904297,0.45654297,0.69403076
1725817507857,2024-09-08T17:45:07.857Z,76713,0.5588379,0.48217773,0.77923584
1725817507872,2024-09-08T17:45:07.872Z,76728,0.5619507,0.53674316,0.79571533
1725817507939,2024-09-08T17:45:07.939Z,76795,0.5293579,0.51867676,0.6913452
1725817507953,2024-09-08T17:45:07.953Z,76809,0.53759766,0.43884277,0.65930176
1725817507967,2024-09-08T17:45:07.967Z,76823,0.5446167,0.38549805,0.6799927
1725817508078,2024-09-08T17:45:08.078Z,76934,0.5170288,0.38623047,0.7025757
1725817508096,2024-09-08T17:45:08.096Z,76952,0.5430908,0.44744873,0.7249756
1725817508111,2024-09-08T17:45:08.111Z,76967,0.58410645,0.50494385,0.71429443
1725817508124,2024-09-08T17:45:08.124Z,76980,0.5661011,0.48132324,0.68829346
1725817508162,2024-09-08T17:45:08.162Z,77018,0.5545654,0.4196167,0.6821289
1725817508209,2024-09-08T17:45:08.209Z,77065,0.5629883,0.4109497,0.67071533
1725817508252,2024-09-08T17:45:08.252Z,77108,0.58703613,0.43200684,0.6732788
1725817508345,2024-09-08T17:45:08.345Z,77201,0.5888672,0.44958496,0.6929321
1725817508359,2024-09-08T17:45:08.359Z,77215,0.5844116,0.45440674,0.6724243
1725817508372,2024-09-08T17:45:08.372Z,77228,0.58740234,0.43377686,0.6734009
1725817508388,2024-09-08T17:45:08.388Z,77244,0.5671997,0.41033936,0.70129395
1725817508525,2024-09-08T17:45:08.525Z,77381,0.5519409,0.40222168,0.70947266
1725817508541,2024-09-08T17:45:08.541Z,77397,0.5500488,0.39093018,0.713501
1725817508555,2024-09-08T17:45:08.555Z,77411,0.5462036,0.3831787,0.7207031
1725817508658,2024-09-08T17:45:08.658Z,77514,0.54815674,0.39123535,0.70825195
1725817508752,2024-09-08T17:45:08.752Z,77608,0.5612793,0.40075684,0.70770264
1725817508839,2024-09-08T17:45:08.839Z,77695,0.52960205,0.47235107,0.7369995
1725817508944,2024-09-08T17:45:08.944Z,77800,0.55670166,0.4960327,0.821167
1725817509080,2024-09-08T17:45:09.080Z,77936,0.5163574,0.4239502,0.7539673
1725817509099,2024-09-08T17:45:09.099Z,77955,0.53009033,0.33929443,0.69873047
1725817509117,2024-09-08T17:45:09.117Z,77973,0.5773926,0.33184814,0.7086792
1725817509164,2024-09-08T17:45:09.164Z,78020,0.5697632,0.4173584,0.6907959
1725817509176,2024-09-08T17:45:09.176Z,78032,0.54748535,0.45587158,0.6786499
1725817509188,2024-09-08T17:45:09.188Z,78044,0.5248413,0.4321289,0.7105713
1725817509197,2024-09-08T17:45:09.197Z,78053,0.4968872,0.4038086,0.7612915
1725817509206,2024-09-08T17:45:09.206Z,78062,0.52282715,0.4038086,0.7463379
1725817509213,2024-09-08T17:45:09.213Z,78069,0.5723877,0.41827393,0.70373535
1725817509289,2024-09-08T17:45:09.289Z,78145,0.5944214,0.43444824,0.67230225
1725817509302,2024-09-08T17:45:09.302Z,78158,0.54248047,0.43829346,0.71069336
1725817509314,2024-09-08T17:45:09.314Z,78170,0.5061035,0.41540527,0.7529297
1725817509339,2024-09-08T17:45:09.339Z,78195,0.50250244,0.4041748,0.7710571
1725817509385,2024-09-08T17:45:09.385Z,78241,0.5027466,0.41137695,0.7666626
1725817509398,2024-09-08T17:45:09.398Z,78254,0.5145874,0.41412354,0.74694824
1725817509410,2024-09-08T17:45:09.410Z,78266,0.5130615,0.41870117,0.7453003
1725817509423,2024-09-08T17:45:09.423Z,78279,0.50457764,0.4296875,0.73480225
1725817509513,2024-09-08T17:45:09.513Z,78369,0.5187378,0.43920898,0.7189331
1725817509564,2024-09-08T17:45:09.564Z,78420,0.536499,0.4463501,0.71069336
1725817509578,2024-09-08T17:45:09.578Z,78434,0.5482788,0.4486084,0.7060547
1725817509590,2024-09-08T17:45:09.590Z,78446,0.5578613,0.44189453,0.70544434
1725817509603,2024-09-08T17:45:09.603Z,78459,0.5562744,0.4389038,0.70233154
1725817509615,2024-09-08T17:45:09.615Z,78471,0.54522705,0.44177246,0.7037964
1725817509693,2024-09-08T17:45:09.693Z,78549,0.53656006,0.4512329,0.7122803
1725817509705,2024-09-08T17:45:09.705Z,78561,0.53826904,0.4562378,0.71795654
1725817509738,2024-09-08T17:45:09.738Z,78594,0.5439453,0.4541626,0.6937866
1725817509785,2024-09-08T17:45:09.785Z,78641,0.5506592,0.45428467,0.66204834
1725817509833,2024-09-08T17:45:09.833Z,78689,0.5507202,0.45581055,0.6598511
1725817509874,2024-09-08T17:45:09.874Z,78730,0.5529785,0.46014404,0.6660156
1725817509919,2024-09-08T17:45:09.919Z,78775,0.526062,0.4598999,0.67285156
1725817509973,2024-09-08T17:45:09.973Z,78829,0.5709839,0.446167,0.6757202
1725817510007,2024-09-08T17:45:10.007Z,78863,0.5408325,0.46813965,0.6721802
1725817510021,2024-09-08T17:45:10.021Z,78877,0.55218506,0.49645996,0.69055176
1725817510053,2024-09-08T17:45:10.053Z,78909,0.56848145,0.50897217,0.69488525
1725817510101,2024-09-08T17:45:10.101Z,78957,0.5697632,0.48791504,0.6713257
1725817510143,2024-09-08T17:45:10.143Z,78999,0.5618286,0.46166992,0.64416504
1725817510190,2024-09-08T17:45:10.190Z,79046,0.5526123,0.45568848,0.6359253
1725817510235,2024-09-08T17:45:10.235Z,79091,0.54815674,0.46905518,0.661499
1725817510278,2024-09-08T17:45:10.278Z,79134,0.5435791,0.48779297,0.69299316
1725817510419,2024-09-08T17:45:10.419Z,79275,0.541626,0.49694824,0.6900635
1725817510436,2024-09-08T17:45:10.436Z,79292,0.5440674,0.49169922,0.6743164
1725817510453,2024-09-08T17:45:10.453Z,79309,0.5408325,0.47961426,0.6767578
1725817510467,2024-09-08T17:45:10.467Z,79323,0.5352783,0.47711182,0.6783447
1725817510482,2024-09-08T17:45:10.482Z,79338,0.5305176,0.47906494,0.6799927
1725817510503,2024-09-08T17:45:10.503Z,79359,0.52941895,0.4798584,0.6869507
1725817510551,2024-09-08T17:45:10.551Z,79407,0.5241699,0.47906494,0.6956177
1725817510686,2024-09-08T17:45:10.686Z,79542,0.51885986,0.48217773,0.69854736
1725817510730,2024-09-08T17:45:10.730Z,79586,0.5177002,0.48101807,0.6986084
1725817510749,2024-09-08T17:45:10.749Z,79605,0.5136719,0.48138428,0.7053833
1725817510818,2024-09-08T17:45:10.818Z,79674,0.50982666,0.48291016,0.70861816
1725817510831,2024-09-08T17:45:10.831Z,79687,0.510437,0.48046875,0.70391846
1725817510845,2024-09-08T17:45:10.845Z,79701,0.5073242,0.4794922,0.6958008
1725817510857,2024-09-08T17:45:10.857Z,79713,0.51464844,0.48406982,0.6888428
1725817510868,2024-09-08T17:45:10.868Z,79724,0.5275879,0.48339844,0.6911621
1725817510907,2024-09-08T17:45:10.907Z,79763,0.52856445,0.4805298,0.6950073
1725817510956,2024-09-08T17:45:10.956Z,79812,0.52752686,0.47869873,0.6963501
1725817511001,2024-09-08T17:45:11.001Z,79857,0.52319336,0.47528076,0.7041626
1725817511043,2024-09-08T17:45:11.043Z,79899,0.51953125,0.4710083,0.71221924
1725817511089,2024-09-08T17:45:11.089Z,79945,0.5165405,0.46887207,0.71447754
1725817511135,2024-09-08T17:45:11.135Z,79991,0.51690674,0.46862793,0.7053833
1725817511178,2024-09-08T17:45:11.178Z,80034,0.51953125,0.47125244,0.701355
1725817511225,2024-09-08T17:45:11.225Z,80081,0.5180054,0.47302246,0.704895
1725817511269,2024-09-08T17:45:11.269Z,80125,0.5142822,0.472229,0.7095337
1725817511314,2024-09-08T17:45:11.314Z,80170,0.51538086,0.46795654,0.710083
1725817511326,2024-09-08T17:45:11.326Z,80182,0.51397705,0.46844482,0.708313
1725817511359,2024-09-08T17:45:11.359Z,80215,0.513916,0.47265625,0.71221924
1725817511403,2024-09-08T17:45:11.403Z,80259,0.51672363,0.47113037,0.71014404
1725817511447,2024-09-08T17:45:11.447Z,80303,0.51257324,0.46832275,0.70391846
1725817511495,2024-09-08T17:45:11.495Z,80351,0.5155029,0.46881104,0.7081299
1725817511541,2024-09-08T17:45:11.541Z,80397,0.52246094,0.4642334,0.7025757
1725817511582,2024-09-08T17:45:11.582Z,80438,0.5314331,0.46636963,0.70166016
