Timestamp (ms),ISO DateTime,Elapsed Time (ms),Acceleration X,Acceleration Y,Acceleration Z
1725816754506,2024-09-08T17:32:34.506Z,24954,0.24871826,0.4776001,0.8184204
1725816754547,2024-09-08T17:32:34.547Z,24995,0.26934814,0.49432373,0.81365967
1725816754593,2024-09-08T17:32:34.593Z,25041,0.28289795,0.50531006,0.81762695
1725816754640,2024-09-08T17:32:34.640Z,25088,0.2966919,0.5343628,0.7796631
1725816754652,2024-09-08T17:32:34.652Z,25100,0.28686523,0.5439453,0.79400635
1725816754781,2024-09-08T17:32:34.781Z,25229,0.2531128,0.5371094,0.79901123
1725816754800,2024-09-08T17:32:34.800Z,25248,0.24053955,0.52697754,0.78497314
1725816754817,2024-09-08T17:32:34.817Z,25265,0.24279785,0.52471924,0.82196045
1725816754829,2024-09-08T17:32:34.829Z,25277,0.26397705,0.5211792,0.82177734
1725816754864,2024-09-08T17:32:34.864Z,25312,0.27319336,0.50250244,0.81414795
1725816754911,2024-09-08T17:32:34.911Z,25359,0.26794434,0.49212646,0.8204346
1725816755006,2024-09-08T17:32:35.006Z,25454,0.26342773,0.48657227,0.8336792
1725816755027,2024-09-08T17:32:35.027Z,25475,0.25390625,0.49212646,0.8358154
1725816755096,2024-09-08T17:32:35.096Z,25544,0.27526855,0.5007324,0.81329346
1725816755121,2024-09-08T17:32:35.121Z,25569,0.27008057,0.5140381,0.8074341
1725816755145,2024-09-08T17:32:35.145Z,25593,0.2687378,0.5218506,0.8049927
1725816755164,2024-09-08T17:32:35.164Z,25612,0.27471924,0.5258179,0.80352783
1725816755178,2024-09-08T17:32:35.178Z,25626,0.2723999,0.5258179,0.8051758
1725816755226,2024-09-08T17:32:35.226Z,25674,0.26452637,0.52770996,0.7970581
1725816755272,2024-09-08T17:32:35.272Z,25720,0.26330566,0.5192871,0.80133057
1725816755318,2024-09-08T17:32:35.318Z,25766,0.24920654,0.508728,0.81152344
1725816755367,2024-09-08T17:32:35.367Z,25815,0.2571411,0.5136719,0.8123779
1725816755409,2024-09-08T17:32:35.409Z,25857,0.2750244,0.50579834,0.82873535
1725816755455,2024-09-08T17:32:35.455Z,25903,0.25836182,0.50024414,0.8265381
1725816755502,2024-09-08T17:32:35.502Z,25950,0.26049805,0.49816895,0.8206177
1725816755528,2024-09-08T17:32:35.528Z,25976,0.27197266,0.48364258,0.8372803
1725816755552,2024-09-08T17:32:35.552Z,26000,0.25061035,0.47210693,0.84942627
1725816755588,2024-09-08T17:32:35.588Z,26036,0.24127197,0.48162842,0.83026123
1725816755681,2024-09-08T17:32:35.681Z,26129,0.2772827,0.49536133,0.8006592
1725816755702,2024-09-08T17:32:35.702Z,26150,0.27905273,0.522583,0.8000488
1725816755722,2024-09-08T17:32:35.722Z,26170,0.28582764,0.5335083,0.80181885
1725816755767,2024-09-08T17:32:35.767Z,26215,0.27703857,0.526062,0.80688477
1725816755812,2024-09-08T17:32:35.812Z,26260,0.2598877,0.51104736,0.8192749
1725816755858,2024-09-08T17:32:35.858Z,26306,0.25170898,0.50164795,0.81640625
1725816755909,2024-09-08T17:32:35.909Z,26357,0.2467041,0.4935913,0.8248291
1725816755930,2024-09-08T17:32:35.930Z,26378,0.24664307,0.4850464,0.82958984
1725816755951,2024-09-08T17:32:35.951Z,26399,0.28240967,0.4925537,0.8302002
1725816755992,2024-09-08T17:32:35.992Z,26440,0.29437256,0.4967041,0.8218384
1725816756039,2024-09-08T17:32:36.039Z,26487,0.27160645,0.5054321,0.8187866
1725816756129,2024-09-08T17:32:36.129Z,26577,0.25250244,0.4909668,0.8422241
1725816756149,2024-09-08T17:32:36.149Z,26597,0.24316406,0.48864746,0.8293457
1725816756170,2024-09-08T17:32:36.170Z,26618,0.26489258,0.50213623,0.81225586
1725816756220,2024-09-08T17:32:36.220Z,26668,0.27435303,0.5142212,0.8033447
1725816756307,2024-09-08T17:32:36.307Z,26755,0.27630615,0.5183716,0.81500244
1725816756328,2024-09-08T17:32:36.328Z,26776,0.26885986,0.5145874,0.81707764
1725816756348,2024-09-08T17:32:36.348Z,26796,0.2508545,0.5037842,0.8189087
1725816756363,2024-09-08T17:32:36.363Z,26811,0.24261475,0.4984131,0.81134033
1725816756398,2024-09-08T17:32:36.398Z,26846,0.23846436,0.5001221,0.8288574
1725816756442,2024-09-08T17:32:36.442Z,26890,0.26867676,0.50231934,0.82110596
1725816756500,2024-09-08T17:32:36.500Z,26948,0.28076172,0.50439453,0.81689453
1725816756539,2024-09-08T17:32:36.539Z,26987,0.26794434,0.5050659,0.8132324
1725816756578,2024-09-08T17:32:36.578Z,27026,0.26098633,0.506897,0.83636475
1725816756670,2024-09-08T17:32:36.670Z,27118,0.25378418,0.48284912,0.84295654
1725816756692,2024-09-08T17:32:36.692Z,27140,0.24853516,0.47784424,0.8242798
1725816756716,2024-09-08T17:32:36.716Z,27164,0.258667,0.49456787,0.8328247
1725816756759,2024-09-08T17:32:36.759Z,27207,0.25286865,0.5088501,0.8086548
1725816756778,2024-09-08T17:32:36.778Z,27226,0.28582764,0.5261841,0.7866211
1725816756798,2024-09-08T17:32:36.798Z,27246,0.27978516,0.5235596,0.82421875
1725816756845,2024-09-08T17:32:36.845Z,27293,0.24450684,0.51342773,0.81469727
1725816756892,2024-09-08T17:32:36.892Z,27340,0.24468994,0.51330566,0.79248047
1725816756939,2024-09-08T17:32:36.939Z,27387,0.2567749,0.49993896,0.83776855
1725816756983,2024-09-08T17:32:36.983Z,27431,0.2678833,0.48571777,0.8354492
1725816757027,2024-09-08T17:32:37.027Z,27475,0.27496338,0.48120117,0.8204956
1725816757074,2024-09-08T17:32:37.074Z,27522,0.26989746,0.48468018,0.82385254
1725816757121,2024-09-08T17:32:37.121Z,27569,0.2772827,0.48602295,0.8375244
1725816757164,2024-09-08T17:32:37.164Z,27612,0.27526855,0.48510742,0.8427124
1725816757187,2024-09-08T17:32:37.187Z,27635,0.2738037,0.48669434,0.8294678
1725816757207,2024-09-08T17:32:37.207Z,27655,0.26312256,0.49243164,0.82281494
1725816757251,2024-09-08T17:32:37.251Z,27699,0.27441406,0.5032959,0.81256104
1725816757298,2024-09-08T17:32:37.298Z,27746,0.29516602,0.5126953,0.8132324
1725816757345,2024-09-08T17:32:37.345Z,27793,0.28503418,0.5161133,0.81243896
1725816757391,2024-09-08T17:32:37.391Z,27839,0.25860596,0.51049805,0.78900146
1725816757477,2024-09-08T17:32:37.477Z,27925,0.25512695,0.5031738,0.80218506
1725816757496,2024-09-08T17:32:37.496Z,27944,0.26983643,0.5111084,0.829895
1725816757522,2024-09-08T17:32:37.522Z,27970,0.2736206,0.50372314,0.8152466
1725816757568,2024-09-08T17:32:37.568Z,28016,0.2644043,0.5007324,0.81188965
1725816757612,2024-09-08T17:32:37.612Z,28060,0.25927734,0.50531006,0.81884766
1725816757630,2024-09-08T17:32:37.630Z,28078,0.27526855,0.48608398,0.83691406
1725816757667,2024-09-08T17:32:37.667Z,28115,0.26953125,0.46166992,0.8376465
1725816757703,2024-09-08T17:32:37.703Z,28151,0.27313232,0.47705078,0.8232422
1725816757747,2024-09-08T17:32:37.747Z,28195,0.28186035,0.48687744,0.83239746
1725816757792,2024-09-08T17:32:37.792Z,28240,0.27020264,0.48590088,0.8378296
1725816757843,2024-09-08T17:32:37.843Z,28291,0.2824707,0.4923706,0.81536865
1725816757887,2024-09-08T17:32:37.887Z,28335,0.2947998,0.49523926,0.8148804
1725816757929,2024-09-08T17:32:37.929Z,28377,0.2919922,0.50341797,0.81066895
1725816757973,2024-09-08T17:32:37.973Z,28421,0.29693604,0.51519775,0.8065796
1725816758020,2024-09-08T17:32:38.020Z,28468,0.29510498,0.50775146,0.8062134
1725816758042,2024-09-08T17:32:38.042Z,28490,0.276062,0.491333,0.80426025
1725816758064,2024-09-08T17:32:38.064Z,28512,0.2709961,0.49090576,0.8184204
1725816758110,2024-09-08T17:32:38.110Z,28558,0.26898193,0.50579834,0.8239136
1725816758155,2024-09-08T17:32:38.155Z,28603,0.30230713,0.4953003,0.8109131
1725816758199,2024-09-08T17:32:38.199Z,28647,0.28735352,0.4892578,0.8276367
1725816758242,2024-09-08T17:32:38.242Z,28690,0.26281738,0.48962402,0.8389282
1725816758298,2024-09-08T17:32:38.298Z,28746,0.2781372,0.47143555,0.82128906
1725816758334,2024-09-08T17:32:38.334Z,28782,0.28533936,0.4597168,0.83032227
1725816758380,2024-09-08T17:32:38.380Z,28828,0.2822876,0.4761963,0.8395386
1725816758516,2024-09-08T17:32:38.516Z,28964,0.29803467,0.4989624,0.82373047
1725816758538,2024-09-08T17:32:38.538Z,28986,0.296875,0.5018921,0.8106079
1725816758566,2024-09-08T17:32:38.566Z,29014,0.2652588,0.4925537,0.82214355
1725816758585,2024-09-08T17:32:38.585Z,29033,0.26794434,0.49371338,0.82373047
1725816758599,2024-09-08T17:32:38.599Z,29047,0.28625488,0.5071411,0.8152466
1725816758612,2024-09-08T17:32:38.612Z,29060,0.29101562,0.5140381,0.80303955
1725816758647,2024-09-08T17:32:38.647Z,29095,0.27288818,0.5150757,0.7998657
1725816758688,2024-09-08T17:32:38.688Z,29136,0.26080322,0.5181885,0.7947998
1725816758736,2024-09-08T17:32:38.736Z,29184,0.26190186,0.515625,0.8029785
1725816758831,2024-09-08T17:32:38.831Z,29279,0.26507568,0.5144043,0.8151245
1725816758849,2024-09-08T17:32:38.849Z,29297,0.2770996,0.50665283,0.8119507
1725816758863,2024-09-08T17:32:38.863Z,29311,0.27166748,0.50427246,0.8308716
1725816758875,2024-09-08T17:32:38.875Z,29323,0.25134277,0.4998169,0.83947754
1725816758916,2024-09-08T17:32:38.916Z,29364,0.26306152,0.49719238,0.81536865
1725816758961,2024-09-08T17:32:38.961Z,29409,0.28686523,0.493042,0.8185425
1725816759055,2024-09-08T17:32:39.055Z,29503,0.27563477,0.49121094,0.821228
1725816759075,2024-09-08T17:32:39.075Z,29523,0.2722168,0.5070801,0.8048096
1725816759094,2024-09-08T17:32:39.094Z,29542,0.27160645,0.51623535,0.8395996
1725816759189,2024-09-08T17:32:39.189Z,29637,0.26593018,0.5214844,0.81030273
1725816759207,2024-09-08T17:32:39.207Z,29655,0.2602539,0.51135254,0.8052368
1725816759231,2024-09-08T17:32:39.231Z,29679,0.2689209,0.5037842,0.81481934
1725816759278,2024-09-08T17:32:39.278Z,29726,0.2789917,0.51605225,0.8036499
1725816759297,2024-09-08T17:32:39.297Z,29745,0.26940918,0.5390625,0.7984619
1725816759321,2024-09-08T17:32:39.321Z,29769,0.2574463,0.5596924,0.7770996
1725816759366,2024-09-08T17:32:39.366Z,29814,0.25250244,0.55371094,0.7850952
1725816759412,2024-09-08T17:32:39.412Z,29860,0.2467041,0.5459595,0.8051758
1725816759458,2024-09-08T17:32:39.458Z,29906,0.25048828,0.5426636,0.7866211
1725816759503,2024-09-08T17:32:39.503Z,29951,0.24456787,0.54052734,0.78808594
1725816759547,2024-09-08T17:32:39.547Z,29995,0.2531128,0.52575684,0.83032227
1725816759593,2024-09-08T17:32:39.593Z,30041,0.2557373,0.5149536,0.8161011
1725816759638,2024-09-08T17:32:39.638Z,30086,0.25750732,0.51934814,0.79663086
1725816759729,2024-09-08T17:32:39.729Z,30177,0.24890137,0.5185547,0.81518555
1725816759748,2024-09-08T17:32:39.748Z,30196,0.26605225,0.52563477,0.8076172
1725816759767,2024-09-08T17:32:39.767Z,30215,0.26965332,0.52911377,0.80029297
1725816759781,2024-09-08T17:32:39.781Z,30229,0.24224854,0.53271484,0.8170166
1725816759817,2024-09-08T17:32:39.817Z,30265,0.24542236,0.53125,0.8010864
1725816759862,2024-09-08T17:32:39.862Z,30310,0.2703247,0.52093506,0.80737305
1725816759910,2024-09-08T17:32:39.910Z,30358,0.2607422,0.5155029,0.822876
1725816759959,2024-09-08T17:32:39.959Z,30407,0.26708984,0.520874,0.805542
1725816759997,2024-09-08T17:32:39.997Z,30445,0.26208496,0.5149536,0.8182373
1725816760045,2024-09-08T17:32:40.045Z,30493,0.24230957,0.5155029,0.81481934
1725816760087,2024-09-08T17:32:40.087Z,30535,0.25439453,0.5205078,0.8066406
1725816760136,2024-09-08T17:32:40.136Z,30584,0.2625122,0.5153198,0.8206787
1725816760156,2024-09-08T17:32:40.156Z,30604,0.26257324,0.51623535,0.8165283
1725816760177,2024-09-08T17:32:40.177Z,30625,0.260437,0.5157471,0.81359863
1725816760222,2024-09-08T17:32:40.222Z,30670,0.25897217,0.50805664,0.8286133
1725816760267,2024-09-08T17:32:40.267Z,30715,0.24108887,0.51220703,0.81970215
1725816760313,2024-09-08T17:32:40.313Z,30761,0.25177002,0.51989746,0.8031616
1725816760359,2024-09-08T17:32:40.359Z,30807,0.26574707,0.51446533,0.81481934
1725816760404,2024-09-08T17:32:40.404Z,30852,0.24346924,0.5093994,0.8216553
1725816760450,2024-09-08T17:32:40.450Z,30898,0.23937988,0.5205078,0.80944824
1725816760495,2024-09-08T17:32:40.495Z,30943,0.25946045,0.53149414,0.8060913
1725816760541,2024-09-08T17:32:40.541Z,30989,0.25195312,0.5204468,0.8110962
1725816760565,2024-09-08T17:32:40.565Z,31013,0.23693848,0.5199585,0.8117676
1725816760587,2024-09-08T17:32:40.587Z,31035,0.2503662,0.53271484,0.8210449
1725816760672,2024-09-08T17:32:40.672Z,31120,0.25286865,0.526062,0.80578613
1725816760691,2024-09-08T17:32:40.691Z,31139,0.26416016,0.49993896,0.81018066
1725816760716,2024-09-08T17:32:40.716Z,31164,0.2354126,0.50164795,0.8470459
1725816760772,2024-09-08T17:32:40.772Z,31220,0.2312622,0.5261841,0.8012085
1725816760806,2024-09-08T17:32:40.806Z,31254,0.2685547,0.52923584,0.78015137
1725816760855,2024-09-08T17:32:40.855Z,31303,0.2626953,0.5144043,0.8435669
1725816760899,2024-09-08T17:32:40.899Z,31347,0.22174072,0.51885986,0.8317871
1725816760943,2024-09-08T17:32:40.943Z,31391,0.23132324,0.52301025,0.8008423
1725816760963,2024-09-08T17:32:40.963Z,31411,0.2526245,0.51867676,0.8234253
1725816760987,2024-09-08T17:32:40.987Z,31435,0.24285889,0.52893066,0.82489014
1725816761033,2024-09-08T17:32:41.033Z,31481,0.25512695,0.5219116,0.80029297
1725816761079,2024-09-08T17:32:41.079Z,31527,0.24615479,0.50878906,0.8190918
1725816761122,2024-09-08T17:32:41.122Z,31570,0.24450684,0.50982666,0.80651855
1725816761263,2024-09-08T17:32:41.263Z,31711,0.2387085,0.5171509,0.81365967
1725816761287,2024-09-08T17:32:41.287Z,31735,0.22930908,0.52246094,0.831604
1725816761309,2024-09-08T17:32:41.309Z,31757,0.22839355,0.52319336,0.81225586
1725816761329,2024-09-08T17:32:41.329Z,31777,0.23638916,0.52923584,0.82489014
1725816761354,2024-09-08T17:32:41.354Z,31802,0.23999023,0.5251465,0.82092285
1725816761371,2024-09-08T17:32:41.371Z,31819,0.24603271,0.52093506,0.81555176
1725816761393,2024-09-08T17:32:41.393Z,31841,0.24804688,0.5136719,0.79956055
1725816761437,2024-09-08T17:32:41.437Z,31885,0.24230957,0.51116943,0.8125
1725816761483,2024-09-08T17:32:41.483Z,31931,0.24279785,0.5145874,0.8353882
1725816761530,2024-09-08T17:32:41.530Z,31978,0.22625732,0.5338135,0.8186035
1725816761619,2024-09-08T17:32:41.619Z,32067,0.22735596,0.5343628,0.8130493
1725816761639,2024-09-08T17:32:41.639Z,32087,0.22784424,0.5274658,0.82647705
1725816761662,2024-09-08T17:32:41.662Z,32110,0.24304199,0.52423096,0.7962036
1725816761707,2024-09-08T17:32:41.707Z,32155,0.2390747,0.51348877,0.8051758
1725816761752,2024-09-08T17:32:41.752Z,32200,0.23364258,0.5140991,0.8260498
1725816761798,2024-09-08T17:32:41.798Z,32246,0.22131348,0.5281372,0.82769775
1725816761843,2024-09-08T17:32:41.843Z,32291,0.2267456,0.53271484,0.80981445
1725816761863,2024-09-08T17:32:41.863Z,32311,0.23266602,0.51971436,0.81726074
1725816761888,2024-09-08T17:32:41.888Z,32336,0.22918701,0.51898193,0.83184814
1725816761933,2024-09-08T17:32:41.933Z,32381,0.23071289,0.52697754,0.7998047
1725816761978,2024-09-08T17:32:41.978Z,32426,0.2571411,0.5361328,0.79437256
1725816762069,2024-09-08T17:32:42.069Z,32517,0.25787354,0.5272217,0.80584717
1725816762123,2024-09-08T17:32:42.123Z,32571,0.23602295,0.50408936,0.82385254
1725816762140,2024-09-08T17:32:42.140Z,32588,0.21325684,0.50219727,0.84820557
1725816762155,2024-09-08T17:32:42.155Z,32603,0.21472168,0.5232544,0.8339844
1725816762204,2024-09-08T17:32:42.204Z,32652,0.23626709,0.52685547,0.81622314
1725816762221,2024-09-08T17:32:42.221Z,32669,0.25061035,0.5118408,0.8186035
1725816762246,2024-09-08T17:32:42.246Z,32694,0.23822021,0.49926758,0.82318115
1725816762336,2024-09-08T17:32:42.336Z,32784,0.2432251,0.5010376,0.80914307
1725816762382,2024-09-08T17:32:42.382Z,32830,0.2588501,0.5032959,0.82214355
1725816762401,2024-09-08T17:32:42.401Z,32849,0.23406982,0.508728,0.83428955
1725816762426,2024-09-08T17:32:42.426Z,32874,0.21691895,0.5101929,0.8309326
1725816762473,2024-09-08T17:32:42.473Z,32921,0.23022461,0.5232544,0.82714844
1725816762517,2024-09-08T17:32:42.517Z,32965,0.24908447,0.52557373,0.81073
1725816762563,2024-09-08T17:32:42.563Z,33011,0.2512207,0.5065918,0.8126831
1725816762608,2024-09-08T17:32:42.608Z,33056,0.26080322,0.49664307,0.829895
1725816762654,2024-09-08T17:32:42.654Z,33102,0.2532959,0.4862671,0.8290405
1725816762672,2024-09-08T17:32:42.672Z,33120,0.22601318,0.49578857,0.82891846
1725816762697,2024-09-08T17:32:42.697Z,33145,0.24243164,0.51275635,0.82073975
1725816762801,2024-09-08T17:32:42.801Z,33249,0.24908447,0.5159912,0.82373047
1725816762822,2024-09-08T17:32:42.822Z,33270,0.24371338,0.5142212,0.83496094
1725816762841,2024-09-08T17:32:42.841Z,33289,0.2411499,0.5081177,0.8286133
1725816762876,2024-09-08T17:32:42.876Z,33324,0.24499512,0.49835205,0.81781006
1725816762922,2024-09-08T17:32:42.922Z,33370,0.25708008,0.4866333,0.8306885
1725816763014,2024-09-08T17:32:43.014Z,33462,0.25567627,0.48815918,0.8289795
1725816763033,2024-09-08T17:32:43.033Z,33481,0.2475586,0.49560547,0.8227539
1725816763106,2024-09-08T17:32:43.106Z,33554,0.24072266,0.506897,0.82696533
1725816763126,2024-09-08T17:32:43.126Z,33574,0.24945068,0.50177,0.8293457
1725816763148,2024-09-08T17:32:43.148Z,33596,0.22509766,0.4951172,0.8461914
1725816763167,2024-09-08T17:32:43.167Z,33615,0.23059082,0.50634766,0.8328247
1725816763191,2024-09-08T17:32:43.191Z,33639,0.25463867,0.5148926,0.8095703
1725816763238,2024-09-08T17:32:43.238Z,33686,0.26452637,0.49957275,0.8161011
1725816763328,2024-09-08T17:32:43.328Z,33776,0.26055908,0.47961426,0.83343506
1725816763350,2024-09-08T17:32:43.350Z,33798,0.24639893,0.47955322,0.8409424
1725816763373,2024-09-08T17:32:43.373Z,33821,0.23529053,0.48742676,0.8331909
1725816763418,2024-09-08T17:32:43.418Z,33866,0.24908447,0.49224854,0.82214355
1725816763463,2024-09-08T17:32:43.463Z,33911,0.24090576,0.5004883,0.8497925
1725816763516,2024-09-08T17:32:43.516Z,33964,0.23217773,0.5105591,0.84381104
1725816763551,2024-09-08T17:32:43.551Z,33999,0.23370361,0.5111084,0.8330078
1725816763569,2024-09-08T17:32:43.569Z,34017,0.2420044,0.51452637,0.81036377
1725816763596,2024-09-08T17:32:43.596Z,34044,0.25317383,0.51898193,0.8064575
1725816763642,2024-09-08T17:32:43.642Z,34090,0.23950195,0.5195923,0.83117676
1725816763688,2024-09-08T17:32:43.688Z,34136,0.24182129,0.5085449,0.81689453
1725816763733,2024-09-08T17:32:43.733Z,34181,0.22564697,0.50964355,0.8135376
1725816763780,2024-09-08T17:32:43.780Z,34228,0.2107544,0.519104,0.82714844
1725816763825,2024-09-08T17:32:43.825Z,34273,0.21636963,0.53131104,0.8306885
1725816763870,2024-09-08T17:32:43.870Z,34318,0.20233154,0.5299072,0.82159424
1725816763914,2024-09-08T17:32:43.914Z,34362,0.18707275,0.5376587,0.81103516
1725816763934,2024-09-08T17:32:43.934Z,34382,0.19329834,0.5517578,0.81866455
1725816763958,2024-09-08T17:32:43.958Z,34406,0.21905518,0.548645,0.8065796
1725816764002,2024-09-08T17:32:44.002Z,34450,0.22241211,0.5385132,0.8208008
1725816764047,2024-09-08T17:32:44.047Z,34495,0.19714355,0.55059814,0.8440552
1725816764096,2024-09-08T17:32:44.096Z,34544,0.18518066,0.54956055,0.8078003
1725816764142,2024-09-08T17:32:44.142Z,34590,0.1694336,0.5462036,0.8278198
1725816764231,2024-09-08T17:32:44.231Z,34679,0.19555664,0.54589844,0.8876953
1725816764253,2024-09-08T17:32:44.253Z,34701,0.15631104,0.5270996,0.864624
1725816764270,2024-09-08T17:32:44.270Z,34718,0.117004395,0.49890137,0.81359863
1725816764316,2024-09-08T17:32:44.316Z,34764,0.13769531,0.5003662,0.8449707
1725816764331,2024-09-08T17:32:44.331Z,34779,0.13696289,0.53167725,0.8880615
1725816764455,2024-09-08T17:32:44.455Z,34903,0.083618164,0.54486084,0.8430176
1725816764472,2024-09-08T17:32:44.472Z,34920,0.036987305,0.56744385,0.8577881
1725816764490,2024-09-08T17:32:44.490Z,34938,-0.030273438,0.60528564,0.8919678
1725816764502,2024-09-08T17:32:44.502Z,34950,-0.068481445,0.6121216,0.8256836
1725816764541,2024-09-08T17:32:44.541Z,34989,-0.054138184,0.64990234,0.8491211
1725816764587,2024-09-08T17:32:44.587Z,35035,-0.026367188,0.697937,0.8652344
1725816764633,2024-09-08T17:32:44.633Z,35081,-0.049316406,0.67974854,0.7860718
1725816764677,2024-09-08T17:32:44.677Z,35125,-0.11590576,0.67681885,0.7338257
1725816764724,2024-09-08T17:32:44.724Z,35172,-0.18109131,0.65893555,0.6259155
1725816764742,2024-09-08T17:32:44.742Z,35190,-0.1338501,0.66400146,0.58935547
1725816764767,2024-09-08T17:32:44.767Z,35215,-0.10253906,0.6140747,0.5585327
1725816764813,2024-09-08T17:32:44.813Z,35261,-0.057006836,0.52679443,0.46173096
1725816764906,2024-09-08T17:32:44.906Z,35354,0.003479004,0.5852051,0.34326172
1725816764924,2024-09-08T17:32:44.924Z,35372,0.16223145,0.9395752,0.38653564
1725816764946,2024-09-08T17:32:44.946Z,35394,-0.2642212,1.6077881,0.38049316
1725816764994,2024-09-08T17:32:44.994Z,35442,-0.20727539,1.092041,0.37982178
1725816765039,2024-09-08T17:32:45.039Z,35487,-0.08850098,0.64208984,0.5081177
1725816765083,2024-09-08T17:32:45.083Z,35531,-0.38446045,0.79382324,0.6491089
1725816765134,2024-09-08T17:32:45.134Z,35582,-0.33306885,0.91186523,0.6067505
1725816765157,2024-09-08T17:32:45.157Z,35605,-0.15441895,0.7914429,0.6187744
1725816765177,2024-09-08T17:32:45.177Z,35625,-0.15478516,0.78948975,0.55737305
1725816765216,2024-09-08T17:32:45.216Z,35664,-0.15966797,0.7788696,0.5991821
1725816765264,2024-09-08T17:32:45.264Z,35712,-0.20306396,0.7369995,0.62768555
1725816765311,2024-09-08T17:32:45.311Z,35759,-0.22216797,0.7617798,0.64349365
1725816765352,2024-09-08T17:32:45.352Z,35800,-0.2163086,0.770874,0.65966797
1725816765398,2024-09-08T17:32:45.398Z,35846,-0.2154541,0.7663574,0.6409912
1725816765443,2024-09-08T17:32:45.443Z,35891,-0.20446777,0.75701904,0.6220093
1725816765488,2024-09-08T17:32:45.488Z,35936,-0.23150635,0.74645996,0.6717529
1725816765535,2024-09-08T17:32:45.535Z,35983,-0.203125,0.7366333,0.6605835
1725816765579,2024-09-08T17:32:45.579Z,36027,-0.20379639,0.7312012,0.6565552
1725816765597,2024-09-08T17:32:45.597Z,36045,-0.22772217,0.7294922,0.6472168
1725816765621,2024-09-08T17:32:45.621Z,36069,-0.22930908,0.73883057,0.62908936
1725816765667,2024-09-08T17:32:45.667Z,36115,-0.23284912,0.734375,0.6416626
1725816765714,2024-09-08T17:32:45.714Z,36162,-0.23181152,0.7317505,0.6660156
1725816765759,2024-09-08T17:32:45.759Z,36207,-0.22875977,0.729126,0.6594238
1725816765803,2024-09-08T17:32:45.803Z,36251,-0.2434082,0.7305298,0.66241455
1725816765858,2024-09-08T17:32:45.858Z,36306,-0.2602539,0.7180786,0.63409424
1725816765895,2024-09-08T17:32:45.895Z,36343,-0.26031494,0.7180176,0.6571655
1725816765937,2024-09-08T17:32:45.937Z,36385,-0.26776123,0.72216797,0.66516113
1725816765984,2024-09-08T17:32:45.984Z,36432,-0.26605225,0.7303467,0.6376953
1725816766002,2024-09-08T17:32:46.002Z,36450,-0.27600098,0.7357788,0.6298828
1725816766082,2024-09-08T17:32:46.082Z,36530,-0.23791504,0.7512207,0.62249756
1725816766100,2024-09-08T17:32:46.100Z,36548,-0.23602295,0.77160645,0.62823486
1725816766115,2024-09-08T17:32:46.115Z,36563,-0.25177002,0.7718506,0.602478
1725816766163,2024-09-08T17:32:46.163Z,36611,-0.25750732,0.7769165,0.59350586
1725816766208,2024-09-08T17:32:46.208Z,36656,-0.2506714,0.77545166,0.58551025
1725816766299,2024-09-08T17:32:46.299Z,36747,-0.2539673,0.7767334,0.5796509
1725816766320,2024-09-08T17:32:46.320Z,36768,-0.2779541,0.7752075,0.5859375
1725816766343,2024-09-08T17:32:46.343Z,36791,-0.28515625,0.7654419,0.5852661
1725816766388,2024-09-08T17:32:46.388Z,36836,-0.3109131,0.79052734,0.5956421
1725816766407,2024-09-08T17:32:46.407Z,36855,-0.2637329,0.7236328,0.5831909
1725816766434,2024-09-08T17:32:46.434Z,36882,-0.31744385,0.7730713,0.48461914
1725816766479,2024-09-08T17:32:46.479Z,36927,-0.3178711,0.7494507,0.64416504
1725816766524,2024-09-08T17:32:46.524Z,36972,-0.24078369,0.7850342,0.5831299
1725816766569,2024-09-08T17:32:46.569Z,37017,-0.26470947,0.7873535,0.5745239
1725816766615,2024-09-08T17:32:46.615Z,37063,-0.27764893,0.7836304,0.5819092
1725816766661,2024-09-08T17:32:46.661Z,37109,-0.25964355,0.79351807,0.5788574
1725816766703,2024-09-08T17:32:46.703Z,37151,-0.26538086,0.78582764,0.59143066
1725816766748,2024-09-08T17:32:46.748Z,37196,-0.24682617,0.78356934,0.5845947
1725816766794,2024-09-08T17:32:46.794Z,37242,-0.24627686,0.78411865,0.5904541
1725816766848,2024-09-08T17:32:46.848Z,37296,-0.262146,0.7628174,0.60284424
1725816766866,2024-09-08T17:32:46.866Z,37314,-0.27282715,0.75909424,0.5939331
1725816766881,2024-09-08T17:32:46.881Z,37329,-0.28033447,0.7647705,0.59124756
1725816766927,2024-09-08T17:32:46.927Z,37375,-0.27288818,0.7711792,0.59191895
1725816766974,2024-09-08T17:32:46.974Z,37422,-0.26922607,0.7717285,0.6068115
1725816767018,2024-09-08T17:32:47.018Z,37466,-0.2564087,0.7747803,0.59472656
1725816767063,2024-09-08T17:32:47.063Z,37511,-0.27368164,0.7706299,0.5689697
1725816767107,2024-09-08T17:32:47.107Z,37555,-0.2738037,0.7727051,0.57025146
1725816767155,2024-09-08T17:32:47.155Z,37603,-0.27215576,0.7753906,0.59594727
1725816767198,2024-09-08T17:32:47.198Z,37646,-0.26904297,0.77215576,0.5910034
1725816767244,2024-09-08T17:32:47.244Z,37692,-0.2746582,0.76776123,0.5845947
1725816767267,2024-09-08T17:32:47.267Z,37715,-0.26287842,0.7784424,0.5877075
1725816767289,2024-09-08T17:32:47.289Z,37737,-0.27227783,0.7765503,0.5883789
1725816767334,2024-09-08T17:32:47.334Z,37782,-0.26879883,0.7729492,0.57354736
1725816767377,2024-09-08T17:32:47.377Z,37825,-0.26757812,0.7711792,0.58813477
1725816767423,2024-09-08T17:32:47.423Z,37871,-0.26409912,0.77441406,0.5921631
1725816767468,2024-09-08T17:32:47.468Z,37916,-0.26794434,0.7716675,0.5800781
1725816767515,2024-09-08T17:32:47.515Z,37963,-0.26715088,0.7753906,0.5873413
1725816767560,2024-09-08T17:32:47.560Z,38008,-0.27337646,0.774292,0.59161377
1725816767605,2024-09-08T17:32:47.605Z,38053,-0.26898193,0.77490234,0.58917236
1725816767695,2024-09-08T17:32:47.695Z,38143,-0.26281738,0.7747803,0.5793457
1725816767800,2024-09-08T17:32:47.800Z,38248,-0.26690674,0.7727051,0.58447266
1725816767823,2024-09-08T17:32:47.823Z,38271,-0.2718506,0.776062,0.5911865
1725816767843,2024-09-08T17:32:47.843Z,38291,-0.2574463,0.77856445,0.58325195
1725816767858,2024-09-08T17:32:47.858Z,38306,-0.26104736,0.78082275,0.579895
1725816767869,2024-09-08T17:32:47.869Z,38317,-0.25878906,0.77978516,0.5817871
1725816767880,2024-09-08T17:32:47.880Z,38328,-0.26116943,0.7753906,0.579895
1725816767917,2024-09-08T17:32:47.917Z,38365,-0.26385498,0.7775879,0.586792
1725816768007,2024-09-08T17:32:48.007Z,38455,-0.26208496,0.77893066,0.5839844
1725816768059,2024-09-08T17:32:48.059Z,38507,-0.26068115,0.7849121,0.5909424
1725816768077,2024-09-08T17:32:48.077Z,38525,-0.27746582,0.7765503,0.57580566
1725816768095,2024-09-08T17:32:48.095Z,38543,-0.26831055,0.77490234,0.57128906
1725816768152,2024-09-08T17:32:48.152Z,38600,-0.2531128,0.7849121,0.57214355
1725816768169,2024-09-08T17:32:48.169Z,38617,-0.24316406,0.78790283,0.5806885
1725816768188,2024-09-08T17:32:48.188Z,38636,-0.25720215,0.78692627,0.57855225
1725816768232,2024-09-08T17:32:48.232Z,38680,-0.25976562,0.7854614,0.576416
1725816768276,2024-09-08T17:32:48.276Z,38724,-0.25305176,0.784729,0.5779419
1725816768324,2024-09-08T17:32:48.324Z,38772,-0.2487793,0.78796387,0.5860596
1725816768370,2024-09-08T17:32:48.370Z,38818,-0.2498169,0.7850952,0.57336426
1725816768412,2024-09-08T17:32:48.412Z,38860,-0.24847412,0.78759766,0.5689087
1725816768457,2024-09-08T17:32:48.457Z,38905,-0.24786377,0.7880249,0.57073975
1725816768504,2024-09-08T17:32:48.504Z,38952,-0.24890137,0.7859497,0.5765991
1725816768550,2024-09-08T17:32:48.550Z,38998,-0.25402832,0.7836914,0.5775757
1725816768572,2024-09-08T17:32:48.572Z,39020,-0.25097656,0.78375244,0.5928955
1725816768594,2024-09-08T17:32:48.594Z,39042,-0.25482178,0.7813721,0.58258057
1725816768648,2024-09-08T17:32:48.648Z,39096,-0.2503662,0.78411865,0.59606934
1725816768681,2024-09-08T17:32:48.681Z,39129,-0.2536621,0.7819824,0.58465576
1725816768728,2024-09-08T17:32:48.728Z,39176,-0.25891113,0.77575684,0.57647705
1725816768772,2024-09-08T17:32:48.772Z,39220,-0.26153564,0.7758789,0.5689697
1725816768818,2024-09-08T17:32:48.818Z,39266,-0.25134277,0.78234863,0.5820923
1725816768863,2024-09-08T17:32:48.863Z,39311,-0.25982666,0.78015137,0.588562
1725816768953,2024-09-08T17:32:48.953Z,39401,-0.26715088,0.7781372,0.5852051
1725816768972,2024-09-08T17:32:48.972Z,39420,-0.26922607,0.7758789,0.59210205
1725816769010,2024-09-08T17:32:49.010Z,39458,-0.26690674,0.7739868,0.5968628
1725816769027,2024-09-08T17:32:49.027Z,39475,-0.25604248,0.77612305,0.5845337
1725816769046,2024-09-08T17:32:49.046Z,39494,-0.25402832,0.776001,0.5716553
1725816769088,2024-09-08T17:32:49.088Z,39536,-0.25952148,0.7792969,0.581604
1725816769142,2024-09-08T17:32:49.142Z,39590,-0.27386475,0.77508545,0.5923462
1725816769226,2024-09-08T17:32:49.226Z,39674,-0.2664795,0.77178955,0.6057739
1725816769244,2024-09-08T17:32:49.244Z,39692,-0.2616577,0.7749634,0.6092529
1725816769266,2024-09-08T17:32:49.266Z,39714,-0.24713135,0.7720947,0.58148193
1725816769311,2024-09-08T17:32:49.311Z,39759,-0.2538452,0.7692261,0.5806885
1725816769358,2024-09-08T17:32:49.358Z,39806,-0.253479,0.7692261,0.5701904
1725816769376,2024-09-08T17:32:49.376Z,39824,-0.25354004,0.76501465,0.5860596
1725816769403,2024-09-08T17:32:49.403Z,39851,-0.26312256,0.76275635,0.59680176
1725816769446,2024-09-08T17:32:49.446Z,39894,-0.27624512,0.7774658,0.6067505
1725816769491,2024-09-08T17:32:49.491Z,39939,-0.26782227,0.78167725,0.6105957
1725816769537,2024-09-08T17:32:49.537Z,39985,-0.25317383,0.7731323,0.5856323
1725816769583,2024-09-08T17:32:49.583Z,40031,-0.265625,0.77526855,0.58673096
1725816769628,2024-09-08T17:32:49.628Z,40076,-0.25805664,0.7749634,0.5826416
1725816769676,2024-09-08T17:32:49.676Z,40124,-0.25994873,0.77093506,0.58514404
1725816769719,2024-09-08T17:32:49.719Z,40167,-0.2614746,0.77160645,0.58447266
1725816769766,2024-09-08T17:32:49.766Z,40214,-0.26013184,0.76916504,0.59503174
1725816769789,2024-09-08T17:32:49.789Z,40237,-0.25927734,0.7786255,0.59887695
1725816769811,2024-09-08T17:32:49.811Z,40259,-0.26715088,0.78808594,0.6017456
1725816769854,2024-09-08T17:32:49.854Z,40302,-0.2701416,0.81573486,0.6152344
1725816769898,2024-09-08T17:32:49.898Z,40346,-0.28515625,0.82910156,0.5936279
1725816769943,2024-09-08T17:32:49.943Z,40391,-0.28070068,0.7921753,0.491333
1725816769989,2024-09-08T17:32:49.989Z,40437,-0.31054688,0.7776489,0.47894287
1725816770034,2024-09-08T17:32:50.034Z,40482,-0.33184814,0.80249023,0.5297241
1725816770078,2024-09-08T17:32:50.078Z,40526,-0.24310303,0.829895,0.46972656
1725816770123,2024-09-08T17:32:50.123Z,40571,-0.22570801,0.8129883,0.5657959
1725816770170,2024-09-08T17:32:50.170Z,40618,-0.2944336,0.8119507,0.569397
1725816770190,2024-09-08T17:32:50.190Z,40638,-0.35583496,0.8168335,0.5638428
1725816770211,2024-09-08T17:32:50.211Z,40659,-0.27978516,0.81225586,0.46783447
1725816770256,2024-09-08T17:32:50.256Z,40704,-0.22650146,0.81604004,0.40130615
1725816770304,2024-09-08T17:32:50.304Z,40752,-0.32470703,0.77056885,0.4892578
1725816770392,2024-09-08T17:32:50.392Z,40840,-0.34655762,0.7453003,0.58044434
1725816770413,2024-09-08T17:32:50.413Z,40861,-0.3935547,0.73968506,0.5963135
1725816770438,2024-09-08T17:32:50.438Z,40886,-0.34906006,0.7626953,0.61712646
1725816770482,2024-09-08T17:32:50.482Z,40930,-0.28918457,0.79907227,0.55963135
1725816770526,2024-09-08T17:32:50.526Z,40974,-0.28948975,0.803833,0.5653076
1725816770574,2024-09-08T17:32:50.574Z,41022,-0.30126953,0.7808838,0.58618164
1725816770618,2024-09-08T17:32:50.618Z,41066,-0.29681396,0.7555542,0.5845337
1725816770636,2024-09-08T17:32:50.636Z,41084,-0.29516602,0.7632446,0.5941162
1725816770707,2024-09-08T17:32:50.707Z,41155,-0.27319336,0.7883301,0.5906372
1725816770725,2024-09-08T17:32:50.725Z,41173,-0.24829102,0.8115845,0.52770996
1725816770751,2024-09-08T17:32:50.751Z,41199,-0.24914551,0.8240967,0.49676514
1725816770806,2024-09-08T17:32:50.806Z,41254,-0.28375244,0.80200195,0.5036011
1725816770842,2024-09-08T17:32:50.842Z,41290,-0.30523682,0.77593994,0.53289795
1725816770889,2024-09-08T17:32:50.889Z,41337,-0.2662964,0.77008057,0.54034424
1725816770933,2024-09-08T17:32:50.933Z,41381,-0.2633667,0.76782227,0.62823486
1725816770977,2024-09-08T17:32:50.977Z,41425,-0.3209839,0.7298584,0.7215576
1725816771024,2024-09-08T17:32:51.024Z,41472,-0.32086182,0.7080078,0.66760254
1725816771041,2024-09-08T17:32:51.041Z,41489,-0.28424072,0.73846436,0.6143799
1725816771066,2024-09-08T17:32:51.066Z,41514,-0.255188,0.7614746,0.5698242
1725816771112,2024-09-08T17:32:51.112Z,41560,-0.22607422,0.7703247,0.5429077
1725816771160,2024-09-08T17:32:51.160Z,41608,-0.24487305,0.7785034,0.557251
1725816771203,2024-09-08T17:32:51.203Z,41651,-0.23657227,0.7785034,0.6329346
1725816771249,2024-09-08T17:32:51.249Z,41697,-0.2697754,0.7479248,0.73028564
1725816771295,2024-09-08T17:32:51.295Z,41743,-0.2857666,0.7142334,0.6737671
1725816771339,2024-09-08T17:32:51.339Z,41787,-0.2816162,0.7154541,0.6343994
1725816771383,2024-09-08T17:32:51.383Z,41831,-0.24279785,0.7529907,0.61224365
1725816771428,2024-09-08T17:32:51.428Z,41876,-0.19378662,0.7833252,0.55877686
1725816771447,2024-09-08T17:32:51.447Z,41895,-0.206604,0.80462646,0.52349854
1725816771472,2024-09-08T17:32:51.472Z,41920,-0.22644043,0.80792236,0.55389404
1725816771516,2024-09-08T17:32:51.516Z,41964,-0.24847412,0.7819214,0.6161499
1725816771561,2024-09-08T17:32:51.561Z,42009,-0.2592163,0.7435913,0.638916
1725816771611,2024-09-08T17:32:51.611Z,42059,-0.23937988,0.7255249,0.6548462
1725816771650,2024-09-08T17:32:51.650Z,42098,-0.23547363,0.73132324,0.6668091
1725816771698,2024-09-08T17:32:51.698Z,42146,-0.22894287,0.7168579,0.63446045
1725816771745,2024-09-08T17:32:51.745Z,42193,-0.23638916,0.7052002,0.5977173
1725816771789,2024-09-08T17:32:51.789Z,42237,-0.26190186,0.70532227,0.69000244
1725816771834,2024-09-08T17:32:51.834Z,42282,-0.276062,0.69244385,0.7738037
1725816771880,2024-09-08T17:32:51.880Z,42328,-0.23614502,0.6911621,0.7359009
1725816771901,2024-09-08T17:32:51.901Z,42349,-0.1951294,0.7252197,0.69836426
1725816771926,2024-09-08T17:32:51.926Z,42374,-0.15014648,0.75201416,0.635437
1725816771977,2024-09-08T17:32:51.977Z,42425,-0.16229248,0.7490845,0.60076904
1725816772010,2024-09-08T17:32:52.010Z,42458,-0.20941162,0.7297363,0.6351929
1725816772057,2024-09-08T17:32:52.057Z,42505,-0.234375,0.710022,0.6589966
1725816772104,2024-09-08T17:32:52.104Z,42552,-0.22045898,0.6991577,0.69085693
1725816772148,2024-09-08T17:32:52.148Z,42596,-0.19177246,0.7067871,0.7108154
1725816772238,2024-09-08T17:32:52.238Z,42686,-0.19458008,0.70544434,0.72662354
1725816772256,2024-09-08T17:32:52.256Z,42704,-0.20910645,0.69940186,0.7241211
1725816772282,2024-09-08T17:32:52.282Z,42730,-0.20166016,0.699646,0.69976807
1725816772297,2024-09-08T17:32:52.297Z,42745,-0.20758057,0.6990967,0.7023926
1725816772327,2024-09-08T17:32:52.327Z,42775,-0.19464111,0.70147705,0.6739502
1725816772373,2024-09-08T17:32:52.373Z,42821,-0.1671753,0.71191406,0.65844727
1725816772417,2024-09-08T17:32:52.417Z,42865,-0.18109131,0.7074585,0.6343994
1725816772467,2024-09-08T17:32:52.467Z,42915,-0.20288086,0.69281006,0.6913452
1725816772510,2024-09-08T17:32:52.510Z,42958,-0.20489502,0.6842041,0.7336426
1725816772553,2024-09-08T17:32:52.553Z,43001,-0.19415283,0.68634033,0.7503662
1725816772598,2024-09-08T17:32:52.598Z,43046,-0.19122314,0.6876221,0.7515869
1725816772644,2024-09-08T17:32:52.644Z,43092,-0.18017578,0.6865845,0.7114258
1725816772695,2024-09-08T17:32:52.695Z,43143,-0.17895508,0.6862793,0.6829834
1725816772712,2024-09-08T17:32:52.712Z,43160,-0.16741943,0.6889038,0.7025757
1725816772735,2024-09-08T17:32:52.735Z,43183,-0.17456055,0.6854248,0.6907959
1725816772824,2024-09-08T17:32:52.824Z,43272,-0.17669678,0.68188477,0.7125244
1725816772841,2024-09-08T17:32:52.841Z,43289,-0.20977783,0.6699219,0.7056885
1725816772866,2024-09-08T17:32:52.866Z,43314,-0.23095703,0.66259766,0.73883057
1725816772911,2024-09-08T17:32:52.911Z,43359,-0.18548584,0.6843262,0.746521
1725816772959,2024-09-08T17:32:52.959Z,43407,-0.15264893,0.7076416,0.7316284
1725816773003,2024-09-08T17:32:53.003Z,43451,-0.115234375,0.720459,0.699646
1725816773049,2024-09-08T17:32:53.049Z,43497,-0.1328125,0.72265625,0.6795654
1725816773094,2024-09-08T17:32:53.094Z,43542,-0.14520264,0.7122803,0.68011475
1725816773139,2024-09-08T17:32:53.139Z,43587,-0.17572021,0.6970215,0.69641113
1725816773156,2024-09-08T17:32:53.156Z,43604,-0.17590332,0.689209,0.7168579
1725816773182,2024-09-08T17:32:53.182Z,43630,-0.19366455,0.6933594,0.71868896
1725816773228,2024-09-08T17:32:53.228Z,43676,-0.20648193,0.66796875,0.704834
1725816773273,2024-09-08T17:32:53.273Z,43721,-0.17077637,0.6687012,0.7078247
1725816773321,2024-09-08T17:32:53.321Z,43769,-0.15588379,0.69055176,0.7312622
1725816773363,2024-09-08T17:32:53.363Z,43811,-0.16308594,0.68743896,0.75164795
1725816773407,2024-09-08T17:32:53.407Z,43855,-0.16674805,0.69091797,0.7012329
1725816773453,2024-09-08T17:32:53.453Z,43901,-0.14111328,0.717041,0.68707275
1725816773498,2024-09-08T17:32:53.498Z,43946,-0.1227417,0.7289429,0.689209
1725816773543,2024-09-08T17:32:53.543Z,43991,-0.15637207,0.71136475,0.68725586
1725816773558,2024-09-08T17:32:53.558Z,44006,-0.1564331,0.70599365,0.70269775
1725816773631,2024-09-08T17:32:53.631Z,44079,-0.14428711,0.7032471,0.678833
1725816773647,2024-09-08T17:32:53.647Z,44095,-0.14257812,0.7007446,0.69989014
1725816773676,2024-09-08T17:32:53.676Z,44124,-0.14794922,0.69677734,0.71429443
1725816773728,2024-09-08T17:32:53.728Z,44176,-0.1651001,0.68634033,0.71990967
1725816773767,2024-09-08T17:32:53.767Z,44215,-0.16442871,0.68414307,0.70983887
1725816773813,2024-09-08T17:32:53.813Z,44261,-0.1486206,0.6934204,0.7219238
1725816773856,2024-09-08T17:32:53.856Z,44304,-0.14111328,0.6968384,0.72424316
1725816773948,2024-09-08T17:32:53.948Z,44396,-0.14251709,0.694397,0.7138672
1725816773966,2024-09-08T17:32:53.966Z,44414,-0.14404297,0.69433594,0.71087646
1725816773983,2024-09-08T17:32:53.983Z,44431,-0.14239502,0.6929321,0.7057495
1725816774001,2024-09-08T17:32:54.001Z,44449,-0.13555908,0.7000122,0.7059326
1725816774038,2024-09-08T17:32:54.038Z,44486,-0.14245605,0.69744873,0.70806885
1725816774082,2024-09-08T17:32:54.082Z,44530,-0.14611816,0.69299316,0.72088623
1725816774127,2024-09-08T17:32:54.127Z,44575,-0.14569092,0.6895752,0.7172241
1725816774174,2024-09-08T17:32:54.174Z,44622,-0.14550781,0.69122314,0.7217407
1725816774217,2024-09-08T17:32:54.217Z,44665,-0.13238525,0.69818115,0.7095947
1725816774261,2024-09-08T17:32:54.261Z,44709,-0.13000488,0.7003174,0.7024536
1725816774306,2024-09-08T17:32:54.306Z,44754,-0.13885498,0.6967163,0.70306396
1725816774363,2024-09-08T17:32:54.363Z,44811,-0.14416504,0.69317627,0.7123413
1725816774395,2024-09-08T17:32:54.395Z,44843,-0.14111328,0.6937256,0.7177124
1725816774414,2024-09-08T17:32:54.414Z,44862,-0.1385498,0.692749,0.7126465
1725816774441,2024-09-08T17:32:54.441Z,44889,-0.13696289,0.69073486,0.71087646
1725816774533,2024-09-08T17:32:54.533Z,44981,-0.1486206,0.6898804,0.7279663
1725816774549,2024-09-08T17:32:54.549Z,44997,-0.14208984,0.6885376,0.7252197
1725816774577,2024-09-08T17:32:54.577Z,45025,-0.14160156,0.6923218,0.7290039
1725816774623,2024-09-08T17:32:54.623Z,45071,-0.13146973,0.70025635,0.71173096
1725816774671,2024-09-08T17:32:54.671Z,45119,-0.12884521,0.70648193,0.6989136
1725816774756,2024-09-08T17:32:54.756Z,45204,-0.1274414,0.70666504,0.69091797
1725816774772,2024-09-08T17:32:54.772Z,45220,-0.119628906,0.7098999,0.7022705
1725816774801,2024-09-08T17:32:54.801Z,45249,-0.12805176,0.70233154,0.70513916
1725816774816,2024-09-08T17:32:54.816Z,45264,-0.1463623,0.6904297,0.71655273
1725816774847,2024-09-08T17:32:54.847Z,45295,-0.14678955,0.6885376,0.7119751
1725816774891,2024-09-08T17:32:54.891Z,45339,-0.14624023,0.68774414,0.70861816
1725816774938,2024-09-08T17:32:54.938Z,45386,-0.14300537,0.6902466,0.7208252
1725816774982,2024-09-08T17:32:54.982Z,45430,-0.13934326,0.69299316,0.7189331
1725816775027,2024-09-08T17:32:55.027Z,45475,-0.13903809,0.6939697,0.7159424
1725816775072,2024-09-08T17:32:55.072Z,45520,-0.144104,0.69451904,0.7105713
1725816775118,2024-09-08T17:32:55.118Z,45566,-0.13781738,0.6954956,0.70996094
1725816775164,2024-09-08T17:32:55.164Z,45612,-0.13439941,0.69470215,0.7140503
1725816775208,2024-09-08T17:32:55.208Z,45656,-0.13513184,0.6973877,0.71051025
1725816775225,2024-09-08T17:32:55.225Z,45673,-0.13623047,0.69641113,0.71643066
1725816775300,2024-09-08T17:32:55.300Z,45748,-0.13250732,0.69488525,0.6959839
1725816775316,2024-09-08T17:32:55.316Z,45764,-0.12927246,0.70025635,0.7211914
1725816775342,2024-09-08T17:32:55.342Z,45790,-0.13208008,0.69036865,0.72631836
1725816775389,2024-09-08T17:32:55.389Z,45837,-0.14239502,0.68341064,0.73114014
1725816775432,2024-09-08T17:32:55.432Z,45880,-0.14056396,0.68518066,0.7175293
1725816775478,2024-09-08T17:32:55.478Z,45926,-0.1274414,0.6956787,0.7156372
1725816775523,2024-09-08T17:32:55.523Z,45971,-0.12915039,0.6965332,0.7150879
1725816775568,2024-09-08T17:32:55.568Z,46016,-0.13848877,0.6945801,0.7151489
1725816775616,2024-09-08T17:32:55.616Z,46064,-0.13769531,0.69696045,0.7207031
1725816775658,2024-09-08T17:32:55.658Z,46106,-0.13635254,0.6972656,0.7038574
1725816775677,2024-09-08T17:32:55.677Z,46125,-0.13983154,0.6968384,0.7032471
1725816775703,2024-09-08T17:32:55.703Z,46151,-0.14202881,0.69921875,0.7102661
1725816775746,2024-09-08T17:32:55.746Z,46194,-0.13842773,0.70336914,0.7081909
1725816775794,2024-09-08T17:32:55.794Z,46242,-0.15063477,0.6970215,0.68151855
1725816775838,2024-09-08T17:32:55.838Z,46286,-0.15289307,0.69976807,0.70843506
1725816775883,2024-09-08T17:32:55.883Z,46331,-0.14758301,0.7140503,0.74731445
1725816775927,2024-09-08T17:32:55.927Z,46375,-0.16949463,0.7086792,0.71777344
1725816775974,2024-09-08T17:32:55.974Z,46422,-0.17144775,0.71435547,0.6762085
1725816776020,2024-09-08T17:32:56.020Z,46468,-0.15777588,0.73773193,0.6651001
1725816776063,2024-09-08T17:32:56.063Z,46511,-0.16290283,0.7324219,0.6501465
1725816776082,2024-09-08T17:32:56.082Z,46530,-0.19238281,0.72302246,0.67181396
1725816776106,2024-09-08T17:32:56.106Z,46554,-0.20654297,0.7255249,0.65582275
1725816776164,2024-09-08T17:32:56.164Z,46612,-0.20587158,0.72021484,0.66204834
1725816776196,2024-09-08T17:32:56.196Z,46644,-0.22540283,0.70892334,0.65911865
1725816776243,2024-09-08T17:32:56.243Z,46691,-0.22839355,0.7027588,0.6763916
1725816776288,2024-09-08T17:32:56.288Z,46736,-0.22851562,0.70477295,0.66729736
1725816776333,2024-09-08T17:32:56.333Z,46781,-0.23510742,0.70147705,0.6766968
1725816776380,2024-09-08T17:32:56.380Z,46828,-0.21960449,0.7052002,0.67633057
1725816776423,2024-09-08T17:32:56.423Z,46871,-0.21984863,0.704895,0.6939697
1725816776467,2024-09-08T17:32:56.467Z,46915,-0.21575928,0.6916504,0.67700195
1725816776485,2024-09-08T17:32:56.485Z,46933,-0.206604,0.6956787,0.70684814
1725816776511,2024-09-08T17:32:56.511Z,46959,-0.19781494,0.7006836,0.69921875
1725816776566,2024-09-08T17:32:56.566Z,47014,-0.19268799,0.69628906,0.6932373
1725816776602,2024-09-08T17:32:56.602Z,47050,-0.19909668,0.69244385,0.69537354
1725816776649,2024-09-08T17:32:56.649Z,47097,-0.19421387,0.6930542,0.71588135
1725816776693,2024-09-08T17:32:56.693Z,47141,-0.18865967,0.6829834,0.72052
1725816776738,2024-09-08T17:32:56.738Z,47186,-0.19177246,0.6819458,0.7388916
1725816776784,2024-09-08T17:32:56.784Z,47232,-0.21520996,0.66625977,0.73431396
1725816776830,2024-09-08T17:32:56.830Z,47278,-0.18817139,0.6644287,0.7290039
1725816776875,2024-09-08T17:32:56.875Z,47323,-0.16638184,0.68536377,0.6933594
1725816776921,2024-09-08T17:32:56.921Z,47369,-0.18548584,0.6746216,0.720459
1725816776938,2024-09-08T17:32:56.938Z,47386,-0.2097168,0.65802,0.7334595
1725816776969,2024-09-08T17:32:56.969Z,47417,-0.21099854,0.6547241,0.75476074
1725816777008,2024-09-08T17:32:57.008Z,47456,-0.1843872,0.6680298,0.7344971
1725816777053,2024-09-08T17:32:57.053Z,47501,-0.16699219,0.68096924,0.7142334
1725816777096,2024-09-08T17:32:57.096Z,47544,-0.17675781,0.6843872,0.7114868
1725816777141,2024-09-08T17:32:57.141Z,47589,-0.18426514,0.6856079,0.7182617
1725816777188,2024-09-08T17:32:57.188Z,47636,-0.18560791,0.68573,0.71917725
1725816777231,2024-09-08T17:32:57.231Z,47679,-0.17956543,0.6852417,0.7104492
1725816777277,2024-09-08T17:32:57.277Z,47725,-0.17718506,0.6826782,0.7178955
1725816777323,2024-09-08T17:32:57.323Z,47771,-0.18572998,0.67907715,0.7177124
1725816777339,2024-09-08T17:32:57.339Z,47787,-0.18585205,0.6746216,0.7119751
1725816777370,2024-09-08T17:32:57.370Z,47818,-0.19116211,0.6835327,0.73095703
1725816777413,2024-09-08T17:32:57.413Z,47861,-0.18743896,0.6801758,0.7089844
1725816777458,2024-09-08T17:32:57.458Z,47906,-0.18341064,0.6867676,0.71173096
1725816777503,2024-09-08T17:32:57.503Z,47951,-0.18640137,0.68408203,0.7131958
1725816777548,2024-09-08T17:32:57.548Z,47996,-0.18109131,0.6852417,0.713501
1725816777593,2024-09-08T17:32:57.593Z,48041,-0.19873047,0.67681885,0.71118164
1725816777638,2024-09-08T17:32:57.638Z,48086,-0.20007324,0.6744995,0.7185669
1725816777682,2024-09-08T17:32:57.682Z,48130,-0.19836426,0.67315674,0.71746826
1725816777729,2024-09-08T17:32:57.729Z,48177,-0.18786621,0.68078613,0.71984863
1725816777747,2024-09-08T17:32:57.747Z,48195,-0.18652344,0.6846924,0.71398926
1725816777773,2024-09-08T17:32:57.773Z,48221,-0.18817139,0.6810913,0.7107544
1725816777817,2024-09-08T17:32:57.817Z,48265,-0.19018555,0.6810303,0.7155762
1725816777862,2024-09-08T17:32:57.862Z,48310,-0.18798828,0.6834717,0.7220459
1725816777910,2024-09-08T17:32:57.910Z,48358,-0.184021,0.68463135,0.7034912
1725816777959,2024-09-08T17:32:57.959Z,48407,-0.18847656,0.68322754,0.6999512
1725816778000,2024-09-08T17:32:58Z,48448,-0.19207764,0.67370605,0.6904907
1725816778043,2024-09-08T17:32:58.043Z,48491,-0.17236328,0.68463135,0.725647
1725816778088,2024-09-08T17:32:58.088Z,48536,-0.19085693,0.6900635,0.75219727
1725816778131,2024-09-08T17:32:58.131Z,48579,-0.21002197,0.66918945,0.74005127
1725816778178,2024-09-08T17:32:58.178Z,48626,-0.20159912,0.66986084,0.72784424
1725816778196,2024-09-08T17:32:58.196Z,48644,-0.17108154,0.6852417,0.7050171
1725816778222,2024-09-08T17:32:58.222Z,48670,-0.15008545,0.7003174,0.67755127
1725816778269,2024-09-08T17:32:58.269Z,48717,-0.15655518,0.69970703,0.6762085
1725816778312,2024-09-08T17:32:58.312Z,48760,-0.17932129,0.696167,0.7038574
1725816778356,2024-09-08T17:32:58.356Z,48804,-0.20166016,0.68322754,0.7296753
1725816778401,2024-09-08T17:32:58.401Z,48849,-0.19750977,0.67352295,0.75982666
1725816778451,2024-09-08T17:32:58.451Z,48899,-0.18304443,0.67736816,0.758667
1725816778494,2024-09-08T17:32:58.494Z,48942,-0.16766357,0.6867676,0.70739746
1725816778541,2024-09-08T17:32:58.541Z,48989,-0.1673584,0.6898804,0.645874
1725816778583,2024-09-08T17:32:58.583Z,49031,-0.16992188,0.6878662,0.64971924
1725816778600,2024-09-08T17:32:58.600Z,49048,-0.18096924,0.68969727,0.7234497
1725816778625,2024-09-08T17:32:58.625Z,49073,-0.2074585,0.6692505,0.79034424
1725816778673,2024-09-08T17:32:58.673Z,49121,-0.20025635,0.65875244,0.77667236
1725816778717,2024-09-08T17:32:58.717Z,49165,-0.16485596,0.6816406,0.70288086
1725816778764,2024-09-08T17:32:58.764Z,49212,-0.1416626,0.6916504,0.6595459
1725816778808,2024-09-08T17:32:58.808Z,49256,-0.14520264,0.6977539,0.680542
1725816778854,2024-09-08T17:32:58.854Z,49302,-0.17443848,0.69299316,0.722229
1725816778906,2024-09-08T17:32:58.906Z,49354,-0.18255615,0.6789551,0.7854614
1725816778940,2024-09-08T17:32:58.940Z,49388,-0.17163086,0.6741333,0.7576294
1725816778986,2024-09-08T17:32:58.986Z,49434,-0.15533447,0.67822266,0.7183838
1725816779001,2024-09-08T17:32:59.001Z,49449,-0.14727783,0.67822266,0.6687012
1725816779033,2024-09-08T17:32:59.033Z,49481,-0.16937256,0.68048096,0.7105713
1725816779077,2024-09-08T17:32:59.077Z,49525,-0.18737793,0.6790161,0.74676514
1725816779122,2024-09-08T17:32:59.122Z,49570,-0.18713379,0.6748047,0.76483154
1725816779169,2024-09-08T17:32:59.169Z,49617,-0.18341064,0.6722412,0.74957275
1725816779214,2024-09-08T17:32:59.214Z,49662,-0.16912842,0.6748047,0.71661377
1725816779257,2024-09-08T17:32:59.257Z,49705,-0.15350342,0.6846924,0.67407227
1725816779303,2024-09-08T17:32:59.303Z,49751,-0.17614746,0.682312,0.6779175
1725816779348,2024-09-08T17:32:59.348Z,49796,-0.20196533,0.666626,0.7189331
1725816779394,2024-09-08T17:32:59.394Z,49842,-0.20422363,0.6717529,0.76342773
1725816779439,2024-09-08T17:32:59.439Z,49887,-0.20129395,0.6673584,0.76293945
1725816779455,2024-09-08T17:32:59.455Z,49903,-0.20239258,0.6607666,0.74505615
1725816779481,2024-09-08T17:32:59.481Z,49929,-0.1875,0.67645264,0.6958618
1725816779526,2024-09-08T17:32:59.526Z,49974,-0.15350342,0.69470215,0.65930176
1725816779573,2024-09-08T17:32:59.573Z,50021,-0.16864014,0.6981201,0.6875
1725816779616,2024-09-08T17:32:59.616Z,50064,-0.19445801,0.6911621,0.73309326
1725816779661,2024-09-08T17:32:59.661Z,50109,-0.21636963,0.6673584,0.7474365
1725816779707,2024-09-08T17:32:59.707Z,50155,-0.2109375,0.6633911,0.75634766
1725816779750,2024-09-08T17:32:59.750Z,50198,-0.18286133,0.6835327,0.69970703
1725816779795,2024-09-08T17:32:59.795Z,50243,-0.16638184,0.69384766,0.6588135
1725816779841,2024-09-08T17:32:59.841Z,50289,-0.19329834,0.6923828,0.66986084
1725816779856,2024-09-08T17:32:59.856Z,50304,-0.20629883,0.6949463,0.7151489
1725816779886,2024-09-08T17:32:59.886Z,50334,-0.21154785,0.6765137,0.77008057
1725816779932,2024-09-08T17:32:59.932Z,50380,-0.2098999,0.664978,0.76501465
1725816779976,2024-09-08T17:32:59.976Z,50424,-0.19641113,0.6706543,0.69195557
1725816780022,2024-09-08T17:33:00.022Z,50470,-0.16442871,0.6915283,0.66101074
1725816780071,2024-09-08T17:33:00.071Z,50519,-0.17614746,0.69921875,0.6508789
1725816780125,2024-09-08T17:33:00.125Z,50573,-0.21044922,0.6837158,0.7114258
1725816780157,2024-09-08T17:33:00.157Z,50605,-0.23095703,0.6647339,0.7938843
1725816780203,2024-09-08T17:33:00.203Z,50651,-0.22088623,0.6541748,0.75720215
1725816780248,2024-09-08T17:33:00.248Z,50696,-0.20471191,0.66186523,0.73461914
1725816780268,2024-09-08T17:33:00.268Z,50716,-0.18011475,0.67633057,0.7052002
1725816780293,2024-09-08T17:33:00.293Z,50741,-0.1642456,0.69158936,0.67578125
1725816780337,2024-09-08T17:33:00.337Z,50785,-0.18225098,0.6890869,0.69299316
1725816780382,2024-09-08T17:33:00.382Z,50830,-0.199646,0.67681885,0.6889038
1725816780428,2024-09-08T17:33:00.428Z,50876,-0.20806885,0.66204834,0.7258301
1725816780471,2024-09-08T17:33:00.471Z,50919,-0.20025635,0.6526489,0.75128174
1725816780514,2024-09-08T17:33:00.514Z,50962,-0.18530273,0.65185547,0.75286865
1725816780561,2024-09-08T17:33:00.561Z,51009,-0.18878174,0.647522,0.75494385
1725816780606,2024-09-08T17:33:00.606Z,51054,-0.18481445,0.6581421,0.741272
1725816780652,2024-09-08T17:33:00.652Z,51100,-0.18286133,0.6595459,0.75183105
1725816780697,2024-09-08T17:33:00.697Z,51145,-0.18170166,0.65930176,0.75616455
1725816780717,2024-09-08T17:33:00.717Z,51165,-0.17224121,0.6625366,0.74713135
1725816780743,2024-09-08T17:33:00.743Z,51191,-0.15905762,0.6672363,0.7375488
1725816780787,2024-09-08T17:33:00.787Z,51235,-0.14941406,0.6768799,0.72735596
1725816780833,2024-09-08T17:33:00.833Z,51281,-0.14581299,0.6791992,0.7076416
1725816780879,2024-09-08T17:33:00.879Z,51327,-0.1574707,0.6756592,0.68933105
1725816780921,2024-09-08T17:33:00.921Z,51369,-0.17822266,0.664978,0.7340088
1725816780968,2024-09-08T17:33:00.968Z,51416,-0.18914795,0.65338135,0.7440796
1725816781013,2024-09-08T17:33:01.013Z,51461,-0.18841553,0.64630127,0.7672119
1725816781055,2024-09-08T17:33:01.055Z,51503,-0.17828369,0.64959717,0.75823975
1725816781101,2024-09-08T17:33:01.101Z,51549,-0.17028809,0.652771,0.7302246
1725816781119,2024-09-08T17:33:01.119Z,51567,-0.17474365,0.65045166,0.75927734
1725816781147,2024-09-08T17:33:01.147Z,51595,-0.1687622,0.6567383,0.75042725
1725816781192,2024-09-08T17:33:01.192Z,51640,-0.15545654,0.66381836,0.7269287
1725816781236,2024-09-08T17:33:01.236Z,51684,-0.1494751,0.67181396,0.74005127
1725816781283,2024-09-08T17:33:01.283Z,51731,-0.1538086,0.6668701,0.732605
1725816781328,2024-09-08T17:33:01.328Z,51776,-0.15490723,0.6671753,0.736145
1725816781373,2024-09-08T17:33:01.373Z,51821,-0.1550293,0.6664429,0.72631836
1725816781418,2024-09-08T17:33:01.418Z,51866,-0.16644287,0.6604004,0.73394775
1725816781463,2024-09-08T17:33:01.463Z,51911,-0.17480469,0.651062,0.7462158
1725816781551,2024-09-08T17:33:01.551Z,51999,-0.17803955,0.6497803,0.76538086
1725816781569,2024-09-08T17:33:01.569Z,52017,-0.1762085,0.64990234,0.7429199
1725816781587,2024-09-08T17:33:01.587Z,52035,-0.17120361,0.6533203,0.74572754
1725816781603,2024-09-08T17:33:01.603Z,52051,-0.16491699,0.65563965,0.74005127
1725816781642,2024-09-08T17:33:01.642Z,52090,-0.17016602,0.6553345,0.7515259
1725816781688,2024-09-08T17:33:01.688Z,52136,-0.16864014,0.6547241,0.74835205
1725816781734,2024-09-08T17:33:01.734Z,52182,-0.15917969,0.6646118,0.73760986
1725816781780,2024-09-08T17:33:01.780Z,52228,-0.15460205,0.66900635,0.7349243
1725816781822,2024-09-08T17:33:01.822Z,52270,-0.15856934,0.6678467,0.73114014
1725816781874,2024-09-08T17:33:01.874Z,52322,-0.1616211,0.6625366,0.73101807
1725816781911,2024-09-08T17:33:01.911Z,52359,-0.15716553,0.6659546,0.7229614
1725816781958,2024-09-08T17:33:01.958Z,52406,-0.16265869,0.65734863,0.7284546
1725816781977,2024-09-08T17:33:01.977Z,52425,-0.18713379,0.6444702,0.76464844
1725816782001,2024-09-08T17:33:02.001Z,52449,-0.18060303,0.6415405,0.7583008
1725816782046,2024-09-08T17:33:02.046Z,52494,-0.17492676,0.645874,0.7607422
1725816782092,2024-09-08T17:33:02.092Z,52540,-0.18017578,0.6401367,0.767334
1725816782136,2024-09-08T17:33:02.136Z,52584,-0.17645264,0.6381836,0.75579834
1725816782188,2024-09-08T17:33:02.188Z,52636,-0.16143799,0.65374756,0.74676514
1725816782228,2024-09-08T17:33:02.228Z,52676,-0.14440918,0.6647339,0.7424927
1725816782273,2024-09-08T17:33:02.273Z,52721,-0.1459961,0.6680908,0.72528076
1725816782319,2024-09-08T17:33:02.319Z,52767,-0.16046143,0.6625366,0.72491455
1725816782363,2024-09-08T17:33:02.363Z,52811,-0.16955566,0.6553345,0.737854
1725816782381,2024-09-08T17:33:02.381Z,52829,-0.18249512,0.63812256,0.7391968
1725816782407,2024-09-08T17:33:02.407Z,52855,-0.19506836,0.6240845,0.7698364
1725816782451,2024-09-08T17:33:02.451Z,52899,-0.18908691,0.62713623,0.78778076
1725816782499,2024-09-08T17:33:02.499Z,52947,-0.17578125,0.63897705,0.7720947
1725816782542,2024-09-08T17:33:02.542Z,52990,-0.16479492,0.65289307,0.748291
1725816782635,2024-09-08T17:33:02.635Z,53083,-0.15258789,0.66381836,0.7406006
1725816782651,2024-09-08T17:33:02.651Z,53099,-0.1486206,0.6694336,0.7335205
1725816782676,2024-09-08T17:33:02.676Z,53124,-0.15405273,0.66937256,0.727417
1725816782726,2024-09-08T17:33:02.726Z,53174,-0.16107178,0.6640625,0.7255249
1725816782767,2024-09-08T17:33:02.767Z,53215,-0.1687622,0.6567993,0.7229614
1725816782784,2024-09-08T17:33:02.784Z,53232,-0.18304443,0.64556885,0.7344971
1725816782814,2024-09-08T17:33:02.814Z,53262,-0.1977539,0.6370239,0.76068115
1725816782857,2024-09-08T17:33:02.857Z,53305,-0.19458008,0.6418457,0.777771
1725816782904,2024-09-08T17:33:02.904Z,53352,-0.17816162,0.6515503,0.76434326
1725816782948,2024-09-08T17:33:02.948Z,53396,-0.1673584,0.65631104,0.7352295
1725816782993,2024-09-08T17:33:02.993Z,53441,-0.15100098,0.66729736,0.73132324
1725816783038,2024-09-08T17:33:03.038Z,53486,-0.15325928,0.67022705,0.72613525
1725816783084,2024-09-08T17:33:03.084Z,53532,-0.16241455,0.6640625,0.7241821
1725816783126,2024-09-08T17:33:03.126Z,53574,-0.16680908,0.6630249,0.71728516
1725816783222,2024-09-08T17:33:03.222Z,53670,-0.17730713,0.65515137,0.74279785
1725816783239,2024-09-08T17:33:03.239Z,53687,-0.18701172,0.6446533,0.76934814
1725816783255,2024-09-08T17:33:03.255Z,53703,-0.18963623,0.6421509,0.7601929
1725816783306,2024-09-08T17:33:03.306Z,53754,-0.18572998,0.6452637,0.7583618
1725816783360,2024-09-08T17:33:03.360Z,53808,-0.17144775,0.6529541,0.74505615
1725816783376,2024-09-08T17:33:03.376Z,53824,-0.15948486,0.6585083,0.73950195
1725816783395,2024-09-08T17:33:03.395Z,53843,-0.16107178,0.6595459,0.7393799
1725816783442,2024-09-08T17:33:03.442Z,53890,-0.15838623,0.6665039,0.7338867
1725816783533,2024-09-08T17:33:03.533Z,53981,-0.15368652,0.6710205,0.73254395
1725816783550,2024-09-08T17:33:03.550Z,53998,-0.16101074,0.6680908,0.734375
1725816783579,2024-09-08T17:33:03.579Z,54027,-0.1675415,0.6643677,0.73931885
1725816783620,2024-09-08T17:33:03.620Z,54068,-0.1694336,0.6646118,0.7426758
1725816783636,2024-09-08T17:33:03.636Z,54084,-0.17028809,0.6627197,0.73638916
1725816783666,2024-09-08T17:33:03.666Z,54114,-0.17419434,0.6604004,0.73547363
1725816783711,2024-09-08T17:33:03.711Z,54159,-0.17510986,0.65930176,0.7315674
1725816783758,2024-09-08T17:33:03.758Z,54206,-0.17230225,0.66156006,0.7304077
1725816783803,2024-09-08T17:33:03.803Z,54251,-0.17022705,0.6658325,0.73339844
1725816783845,2024-09-08T17:33:03.845Z,54293,-0.16937256,0.6687012,0.7324829
1725816783892,2024-09-08T17:33:03.892Z,54340,-0.17059326,0.6680298,0.73010254
1725816783936,2024-09-08T17:33:03.936Z,54384,-0.16693115,0.66619873,0.72906494
1725816783980,2024-09-08T17:33:03.980Z,54428,-0.1671753,0.66400146,0.7341919
1725816784028,2024-09-08T17:33:04.028Z,54476,-0.16540527,0.6630249,0.7420654
1725816784043,2024-09-08T17:33:04.043Z,54491,-0.16137695,0.664917,0.74157715
1725816784072,2024-09-08T17:33:04.072Z,54520,-0.1630249,0.666687,0.7315674
1725816784118,2024-09-08T17:33:04.118Z,54566,-0.16809082,0.6654053,0.73553467
1725816784163,2024-09-08T17:33:04.163Z,54611,-0.16369629,0.6670532,0.7281494
1725816784208,2024-09-08T17:33:04.208Z,54656,-0.15881348,0.6719971,0.7344971
1725816784253,2024-09-08T17:33:04.253Z,54701,-0.16558838,0.6688843,0.7316284
1725816784296,2024-09-08T17:33:04.296Z,54744,-0.16906738,0.66589355,0.73254395
1725816784342,2024-09-08T17:33:04.342Z,54790,-0.16369629,0.66955566,0.7305908
1725816784388,2024-09-08T17:33:04.388Z,54836,-0.16027832,0.67474365,0.72784424
1725816784434,2024-09-08T17:33:04.434Z,54882,-0.16369629,0.675354,0.7284546
1725816784526,2024-09-08T17:33:04.526Z,54974,-0.1616211,0.6746826,0.7248535
1725816784544,2024-09-08T17:33:04.544Z,54992,-0.16271973,0.6727905,0.7276001
1725816784561,2024-09-08T17:33:04.561Z,55009,-0.16931152,0.6696167,0.7310791
1725816784577,2024-09-08T17:33:04.577Z,55025,-0.17028809,0.6682129,0.7317505
1725816784611,2024-09-08T17:33:04.611Z,55059,-0.16748047,0.673584,0.7319336
1725816784658,2024-09-08T17:33:04.658Z,55106,-0.168396,0.67474365,0.72906494
1725816784700,2024-09-08T17:33:04.700Z,55148,-0.1716919,0.6746216,0.7236328
1725816784749,2024-09-08T17:33:04.749Z,55197,-0.175354,0.67230225,0.7200928
1725816784796,2024-09-08T17:33:04.796Z,55244,-0.17382812,0.671875,0.7304077
1725816784837,2024-09-08T17:33:04.837Z,55285,-0.1741333,0.67181396,0.7318115
1725816784890,2024-09-08T17:33:04.890Z,55338,-0.17828369,0.6715088,0.732605
1725816784904,2024-09-08T17:33:04.904Z,55352,-0.18518066,0.6699829,0.727417
1725816784924,2024-09-08T17:33:04.924Z,55372,-0.18756104,0.6709595,0.72387695
1725816785023,2024-09-08T17:33:05.023Z,55471,-0.17462158,0.6762085,0.7211914
1725816785036,2024-09-08T17:33:05.036Z,55484,-0.1730957,0.68444824,0.71551514
1725816785060,2024-09-08T17:33:05.060Z,55508,-0.18261719,0.6791382,0.71917725
1725816785114,2024-09-08T17:33:05.114Z,55562,-0.18585205,0.6779175,0.7142334
1725816785157,2024-09-08T17:33:05.157Z,55605,-0.19049072,0.6755371,0.72058105
1725816785196,2024-09-08T17:33:05.196Z,55644,-0.19708252,0.6720581,0.71655273
1725816785290,2024-09-08T17:33:05.290Z,55738,-0.19238281,0.6762085,0.71813965
1725816785306,2024-09-08T17:33:05.306Z,55754,-0.18829346,0.6815796,0.717041
1725816785323,2024-09-08T17:33:05.323Z,55771,-0.19311523,0.6781616,0.7104492
1725816785375,2024-09-08T17:33:05.375Z,55823,-0.18823242,0.6796875,0.7296753
1725816785389,2024-09-08T17:33:05.389Z,55837,-0.18121338,0.68359375,0.72302246
1725816785420,2024-09-08T17:33:05.420Z,55868,-0.17572021,0.6881714,0.71533203
1725816785467,2024-09-08T17:33:05.467Z,55915,-0.17504883,0.6906738,0.70233154
1725816785514,2024-09-08T17:33:05.514Z,55962,-0.17980957,0.69055176,0.70928955
1725816785558,2024-09-08T17:33:05.558Z,56006,-0.18707275,0.6887207,0.70861816
1725816785602,2024-09-08T17:33:05.602Z,56050,-0.19012451,0.6849365,0.7037964
1725816785647,2024-09-08T17:33:05.647Z,56095,-0.19116211,0.6852417,0.6936035
1725816785694,2024-09-08T17:33:05.694Z,56142,-0.19580078,0.68634033,0.6999512
1725816785738,2024-09-08T17:33:05.738Z,56186,-0.20379639,0.6817627,0.73828125
1725816785754,2024-09-08T17:33:05.754Z,56202,-0.19897461,0.6786499,0.75061035
1725816785782,2024-09-08T17:33:05.782Z,56230,-0.18725586,0.69036865,0.71569824
1725816785827,2024-09-08T17:33:05.827Z,56275,-0.17370605,0.70288086,0.67303467
1725816785873,2024-09-08T17:33:05.873Z,56321,-0.16516113,0.704895,0.64782715
1725816785918,2024-09-08T17:33:05.918Z,56366,-0.17449951,0.7025757,0.6586914
1725816786010,2024-09-08T17:33:06.010Z,56458,-0.19598389,0.6967163,0.7346802
1725816786028,2024-09-08T17:33:06.028Z,56476,-0.21569824,0.6781616,0.803772
1725816786051,2024-09-08T17:33:06.051Z,56499,-0.19281006,0.684021,0.72180176
1725816786095,2024-09-08T17:33:06.095Z,56543,-0.16864014,0.70977783,0.64593506
1725816786143,2024-09-08T17:33:06.143Z,56591,-0.15734863,0.7085571,0.631958
1725816786158,2024-09-08T17:33:06.158Z,56606,-0.18121338,0.70513916,0.6824951
1725816786280,2024-09-08T17:33:06.280Z,56728,-0.2130127,0.6751709,0.7723999
1725816786295,2024-09-08T17:33:06.295Z,56743,-0.2144165,0.66070557,0.7817383
1725816786311,2024-09-08T17:33:06.311Z,56759,-0.18518066,0.68536377,0.71209717
1725816786327,2024-09-08T17:33:06.327Z,56775,-0.15942383,0.696167,0.6624756
1725816786366,2024-09-08T17:33:06.366Z,56814,-0.16925049,0.69799805,0.66278076
1725816786411,2024-09-08T17:33:06.411Z,56859,-0.19689941,0.69610596,0.72210693
1725816786458,2024-09-08T17:33:06.458Z,56906,-0.21575928,0.67333984,0.77075195
1725816786502,2024-09-08T17:33:06.502Z,56950,-0.2033081,0.6705322,0.75805664
1725816786550,2024-09-08T17:33:06.550Z,56998,-0.17034912,0.6898804,0.68426514
1725816786567,2024-09-08T17:33:06.567Z,57015,-0.15930176,0.7001343,0.65789795
1725816786592,2024-09-08T17:33:06.592Z,57040,-0.17474365,0.6993408,0.6635132
1725816786636,2024-09-08T17:33:06.636Z,57084,-0.20648193,0.6975708,0.7324219
1725816786683,2024-09-08T17:33:06.683Z,57131,-0.22009277,0.6726074,0.763855
1725816786729,2024-09-08T17:33:06.729Z,57177,-0.19903564,0.6720581,0.7514038
1725816786816,2024-09-08T17:33:06.816Z,57264,-0.16656494,0.6951904,0.68115234
1725816786832,2024-09-08T17:33:06.832Z,57280,-0.16345215,0.70092773,0.66711426
1725816786861,2024-09-08T17:33:06.861Z,57309,-0.1895752,0.69122314,0.67077637
1725816786953,2024-09-08T17:33:06.953Z,57401,-0.21185303,0.6819458,0.72766113
1725816786969,2024-09-08T17:33:06.969Z,57417,-0.21539307,0.66522217,0.76989746
1725816786985,2024-09-08T17:33:06.985Z,57433,-0.19793701,0.67163086,0.7425537
1725816786997,2024-09-08T17:33:06.997Z,57445,-0.17633057,0.6914673,0.6906738
1725816787132,2024-09-08T17:33:07.132Z,57580,-0.1618042,0.69921875,0.6793823
1725816787147,2024-09-08T17:33:07.147Z,57595,-0.16552734,0.6937866,0.6595459
1725816787166,2024-09-08T17:33:07.166Z,57614,-0.18548584,0.69384766,0.7147217
1725816787182,2024-09-08T17:33:07.182Z,57630,-0.21099854,0.666626,0.77838135
1725816787220,2024-09-08T17:33:07.220Z,57668,-0.21765137,0.6437378,0.78790283
1725816787267,2024-09-08T17:33:07.267Z,57715,-0.18408203,0.6607666,0.7303467
1725816787311,2024-09-08T17:33:07.311Z,57759,-0.15539551,0.68896484,0.6813965
1725816787401,2024-09-08T17:33:07.401Z,57849,-0.15356445,0.69610596,0.6843262
1725816787417,2024-09-08T17:33:07.417Z,57865,-0.17926025,0.68688965,0.7030029
1725816787452,2024-09-08T17:33:07.452Z,57900,-0.190979,0.6725464,0.72210693
1725816787465,2024-09-08T17:33:07.465Z,57913,-0.19354248,0.6605835,0.760437
1725816787536,2024-09-08T17:33:07.536Z,57984,-0.19439697,0.6489868,0.77508545
1725816787550,2024-09-08T17:33:07.550Z,57998,-0.18804932,0.65234375,0.7584839
1725816787580,2024-09-08T17:33:07.580Z,58028,-0.17163086,0.6721802,0.7199707
1725816787625,2024-09-08T17:33:07.625Z,58073,-0.16131592,0.685791,0.6999512
1725816787671,2024-09-08T17:33:07.671Z,58119,-0.15631104,0.6895752,0.6992798
1725816787717,2024-09-08T17:33:07.717Z,58165,-0.1605835,0.6885376,0.7094116
1725816787762,2024-09-08T17:33:07.762Z,58210,-0.17126465,0.6744995,0.7217407
1725816787806,2024-09-08T17:33:07.806Z,58254,-0.18157959,0.6595459,0.7484131
1725816787822,2024-09-08T17:33:07.822Z,58270,-0.18371582,0.65319824,0.7470703
1725816787852,2024-09-08T17:33:07.852Z,58300,-0.184021,0.65960693,0.7598877
1725816787897,2024-09-08T17:33:07.897Z,58345,-0.18115234,0.6618042,0.7382202
1725816787944,2024-09-08T17:33:07.944Z,58392,-0.17327881,0.6693115,0.7258301
1725816788033,2024-09-08T17:33:08.033Z,58481,-0.15930176,0.67871094,0.71673584
1725816788049,2024-09-08T17:33:08.049Z,58497,-0.15258789,0.6834717,0.70318604
1725816788077,2024-09-08T17:33:08.077Z,58525,-0.15704346,0.6760254,0.7300415
1725816788121,2024-09-08T17:33:08.121Z,58569,-0.17425537,0.664917,0.7285156
1725816788214,2024-09-08T17:33:08.214Z,58662,-0.1829834,0.6553955,0.743103
1725816788228,2024-09-08T17:33:08.228Z,58676,-0.17999268,0.65478516,0.7562256
1725816788244,2024-09-08T17:33:08.244Z,58692,-0.17193604,0.65686035,0.7423096
1725816788258,2024-09-08T17:33:08.258Z,58706,-0.17114258,0.6557007,0.74328613
1725816788301,2024-09-08T17:33:08.301Z,58749,-0.16955566,0.6576538,0.7496948
1725816788347,2024-09-08T17:33:08.347Z,58795,-0.15899658,0.6651001,0.7397461
1725816788390,2024-09-08T17:33:08.390Z,58838,-0.14910889,0.6743164,0.73010254
1725816788436,2024-09-08T17:33:08.436Z,58884,-0.1453247,0.6762085,0.7246094
1725816788481,2024-09-08T17:33:08.481Z,58929,-0.14575195,0.675354,0.7248535
1725816788526,2024-09-08T17:33:08.526Z,58974,-0.152771,0.66711426,0.7359009
1725816788571,2024-09-08T17:33:08.571Z,59019,-0.16168213,0.66033936,0.74749756
1725816788616,2024-09-08T17:33:08.616Z,59064,-0.16949463,0.6549072,0.75665283
1725816788661,2024-09-08T17:33:08.661Z,59109,-0.16040039,0.6553345,0.7485962
1725816788673,2024-09-08T17:33:08.673Z,59121,-0.15283203,0.6668701,0.732666
1725816788705,2024-09-08T17:33:08.705Z,59153,-0.14605713,0.6713257,0.7373047
1725816788749,2024-09-08T17:33:08.749Z,59197,-0.14416504,0.6759033,0.7357788
1725816788798,2024-09-08T17:33:08.798Z,59246,-0.1494751,0.6734619,0.72839355
1725816788843,2024-09-08T17:33:08.843Z,59291,-0.14178467,0.6776123,0.72717285
1725816788891,2024-09-08T17:33:08.891Z,59339,-0.13848877,0.68133545,0.7251587
1725816788930,2024-09-08T17:33:08.930Z,59378,-0.1427002,0.6777954,0.71899414
1725816788978,2024-09-08T17:33:08.978Z,59426,-0.15362549,0.67285156,0.7234497
1725816789023,2024-09-08T17:33:09.023Z,59471,-0.16156006,0.66522217,0.7384033
1725816789068,2024-09-08T17:33:09.068Z,59516,-0.16607666,0.6604614,0.7390137
1725816789085,2024-09-08T17:33:09.085Z,59533,-0.16461182,0.66070557,0.75128174
1725816789112,2024-09-08T17:33:09.112Z,59560,-0.15856934,0.6616821,0.7467041
1725816789158,2024-09-08T17:33:09.158Z,59606,-0.15753174,0.6651001,0.74450684
1725816789207,2024-09-08T17:33:09.207Z,59655,-0.15759277,0.66589355,0.73583984
1725816789290,2024-09-08T17:33:09.290Z,59738,-0.15045166,0.6716919,0.736084
1725816789306,2024-09-08T17:33:09.306Z,59754,-0.1519165,0.670166,0.7342529
1725816789382,2024-09-08T17:33:09.382Z,59830,-0.15283203,0.6682739,0.73461914
1725816789398,2024-09-08T17:33:09.398Z,59846,-0.15325928,0.6682129,0.73443604
1725816789428,2024-09-08T17:33:09.428Z,59876,-0.1583252,0.66607666,0.72332764
1725816789517,2024-09-08T17:33:09.517Z,59965,-0.16540527,0.66204834,0.7376709
1725816789530,2024-09-08T17:33:09.530Z,59978,-0.1819458,0.65270996,0.7429199
1725816789545,2024-09-08T17:33:09.545Z,59993,-0.17388916,0.6534424,0.74328613
1725816789560,2024-09-08T17:33:09.560Z,60008,-0.15881348,0.6638794,0.7462158
1725816789649,2024-09-08T17:33:09.649Z,60097,-0.16705322,0.6621094,0.74316406
1725816789664,2024-09-08T17:33:09.664Z,60112,-0.1720581,0.65618896,0.7437134
1725816789743,2024-09-08T17:33:09.743Z,60191,-0.16278076,0.6646118,0.74658203
1725816789757,2024-09-08T17:33:09.757Z,60205,-0.15692139,0.66711426,0.73101807
1725816789786,2024-09-08T17:33:09.786Z,60234,-0.1560669,0.6679077,0.73461914
1725816789833,2024-09-08T17:33:09.833Z,60281,-0.15765381,0.6713257,0.72546387
1725816789922,2024-09-08T17:33:09.922Z,60370,-0.15661621,0.6759033,0.73498535
1725816789938,2024-09-08T17:33:09.938Z,60386,-0.16082764,0.6737671,0.7216797
1725816789954,2024-09-08T17:33:09.954Z,60402,-0.15533447,0.6744995,0.7258911
1725816789969,2024-09-08T17:33:09.969Z,60417,-0.16131592,0.6699829,0.72210693
1725816790103,2024-09-08T17:33:10.103Z,60551,-0.17077637,0.6605835,0.7467041
1725816790118,2024-09-08T17:33:10.118Z,60566,-0.18157959,0.6522827,0.75268555
1725816790134,2024-09-08T17:33:10.134Z,60582,-0.17779541,0.65270996,0.74835205
1725816790150,2024-09-08T17:33:10.150Z,60598,-0.16882324,0.6576538,0.7393799
1725816790192,2024-09-08T17:33:10.192Z,60640,-0.16210938,0.6645508,0.73687744
1725816790236,2024-09-08T17:33:10.236Z,60684,-0.16290283,0.66381836,0.73443604
1725816790284,2024-09-08T17:33:10.284Z,60732,-0.16296387,0.664978,0.7435303
1725816790330,2024-09-08T17:33:10.330Z,60778,-0.1605835,0.66534424,0.73217773
1725816790342,2024-09-08T17:33:10.342Z,60790,-0.16253662,0.6658325,0.74487305
1725816790371,2024-09-08T17:33:10.371Z,60819,-0.16918945,0.6588135,0.7402954
1725816790416,2024-09-08T17:33:10.416Z,60864,-0.17230225,0.65478516,0.7369385
1725816790463,2024-09-08T17:33:10.463Z,60911,-0.17437744,0.65423584,0.74072266
1725816790507,2024-09-08T17:33:10.507Z,60955,-0.16986084,0.6588135,0.7489624
1725816790551,2024-09-08T17:33:10.551Z,60999,-0.17034912,0.66064453,0.7435303
1725816790598,2024-09-08T17:33:10.598Z,61046,-0.17346191,0.661499,0.7379761
1725816790643,2024-09-08T17:33:10.643Z,61091,-0.16925049,0.6654053,0.72369385
1725816790687,2024-09-08T17:33:10.687Z,61135,-0.16271973,0.66467285,0.7374878
1725816790735,2024-09-08T17:33:10.735Z,61183,-0.17016602,0.6593628,0.74487305
1725816790753,2024-09-08T17:33:10.753Z,61201,-0.1716919,0.6538086,0.74261475
1725816790775,2024-09-08T17:33:10.775Z,61223,-0.17022705,0.6550293,0.75115967
1725816790821,2024-09-08T17:33:10.821Z,61269,-0.16864014,0.65448,0.7440796
1725816790912,2024-09-08T17:33:10.912Z,61360,-0.16705322,0.65423584,0.74884033
1725816790928,2024-09-08T17:33:10.928Z,61376,-0.16259766,0.6591797,0.74072266
1725816790959,2024-09-08T17:33:10.959Z,61407,-0.16625977,0.65527344,0.74664307
1725816791003,2024-09-08T17:33:11.003Z,61451,-0.16693115,0.6529541,0.7508545
1725816791045,2024-09-08T17:33:11.045Z,61493,-0.16156006,0.65625,0.74383545
1725816791091,2024-09-08T17:33:11.091Z,61539,-0.16314697,0.6569824,0.7472534
1725816791137,2024-09-08T17:33:11.137Z,61585,-0.16021729,0.65844727,0.7390747
1725816791181,2024-09-08T17:33:11.181Z,61629,-0.16040039,0.6591797,0.74871826
1725816791196,2024-09-08T17:33:11.196Z,61644,-0.15698242,0.6626587,0.7449341
1725816791226,2024-09-08T17:33:11.226Z,61674,-0.15466309,0.6641846,0.7387085
1725816791272,2024-09-08T17:33:11.272Z,61720,-0.16290283,0.65826416,0.74017334
1725816791317,2024-09-08T17:33:11.317Z,61765,-0.16113281,0.6569824,0.74346924
1725816791362,2024-09-08T17:33:11.362Z,61810,-0.15856934,0.65856934,0.74450684
1725816791408,2024-09-08T17:33:11.408Z,61856,-0.1585083,0.6590576,0.74713135
1725816791453,2024-09-08T17:33:11.453Z,61901,-0.16082764,0.65686035,0.74957275
1725816791497,2024-09-08T17:33:11.497Z,61945,-0.16668701,0.65441895,0.74853516
1725816791544,2024-09-08T17:33:11.544Z,61992,-0.16333008,0.65515137,0.74346924
1725816791587,2024-09-08T17:33:11.587Z,62035,-0.16375732,0.65563965,0.74053955
1725816791601,2024-09-08T17:33:11.601Z,62049,-0.16668701,0.6520996,0.74884033
1725816791630,2024-09-08T17:33:11.630Z,62078,-0.16784668,0.651062,0.7510376
1725816791677,2024-09-08T17:33:11.677Z,62125,-0.16247559,0.6531372,0.7457886
1725816791722,2024-09-08T17:33:11.722Z,62170,-0.16625977,0.65356445,0.74884033
1725816791766,2024-09-08T17:33:11.766Z,62214,-0.16589355,0.65289307,0.75494385
1725816791813,2024-09-08T17:33:11.813Z,62261,-0.16485596,0.65448,0.74713135
1725816791859,2024-09-08T17:33:11.859Z,62307,-0.1675415,0.65130615,0.74346924
1725816791900,2024-09-08T17:33:11.900Z,62348,-0.16992188,0.64868164,0.7529297
1725816791947,2024-09-08T17:33:11.947Z,62395,-0.17614746,0.64508057,0.75
1725816791993,2024-09-08T17:33:11.993Z,62441,-0.17736816,0.64331055,0.7541504
1725816792011,2024-09-08T17:33:12.011Z,62459,-0.17932129,0.642334,0.75720215
1725816792036,2024-09-08T17:33:12.036Z,62484,-0.17614746,0.6428833,0.75408936
1725816792081,2024-09-08T17:33:12.081Z,62529,-0.17364502,0.64312744,0.7548828
1725816792126,2024-09-08T17:33:12.126Z,62574,-0.17272949,0.644104,0.7528076
1725816792171,2024-09-08T17:33:12.171Z,62619,-0.1687622,0.6465454,0.7468262
1725816792261,2024-09-08T17:33:12.261Z,62709,-0.16668701,0.6502075,0.7513428
1725816792278,2024-09-08T17:33:12.278Z,62726,-0.16418457,0.65448,0.75549316
1725816792308,2024-09-08T17:33:12.308Z,62756,-0.16351318,0.6564331,0.7489624
1725816792352,2024-09-08T17:33:12.352Z,62800,-0.16314697,0.6574707,0.74035645
1725816792396,2024-09-08T17:33:12.396Z,62844,-0.16711426,0.65545654,0.7504883
1725816792442,2024-09-08T17:33:12.442Z,62890,-0.16894531,0.6513672,0.74224854
1725816792456,2024-09-08T17:33:12.456Z,62904,-0.17010498,0.6522217,0.73773193
1725816792485,2024-09-08T17:33:12.485Z,62933,-0.17144775,0.6524048,0.7474365
1725816792532,2024-09-08T17:33:12.532Z,62980,-0.16680908,0.6558838,0.75097656
1725816792576,2024-09-08T17:33:12.576Z,63024,-0.16583252,0.65515137,0.7492676
1725816792622,2024-09-08T17:33:12.622Z,63070,-0.16778564,0.64923096,0.7363281
1725816792666,2024-09-08T17:33:12.666Z,63114,-0.16522217,0.6505127,0.7501831
1725816792711,2024-09-08T17:33:12.711Z,63159,-0.16339111,0.6515503,0.7590332
1725816792758,2024-09-08T17:33:12.758Z,63206,-0.16827393,0.64520264,0.7550659
1725816792800,2024-09-08T17:33:12.800Z,63248,-0.17346191,0.6435547,0.7536621
1725816792847,2024-09-08T17:33:12.847Z,63295,-0.16491699,0.6489258,0.7390747
1725816792864,2024-09-08T17:33:12.864Z,63312,-0.15466309,0.65374756,0.75323486
1725816792893,2024-09-08T17:33:12.893Z,63341,-0.16088867,0.65448,0.7548828
1725816792938,2024-09-08T17:33:12.938Z,63386,-0.16345215,0.65234375,0.74401855
1725816792982,2024-09-08T17:33:12.982Z,63430,-0.16491699,0.64819336,0.7529297
1725816793027,2024-09-08T17:33:13.027Z,63475,-0.15960693,0.65197754,0.7527466
1725816793070,2024-09-08T17:33:13.070Z,63518,-0.15588379,0.6529541,0.74658203
1725816793115,2024-09-08T17:33:13.115Z,63563,-0.14855957,0.6569824,0.74664307
1725816793163,2024-09-08T17:33:13.163Z,63611,-0.15441895,0.65704346,0.7498169
1725816793208,2024-09-08T17:33:13.208Z,63656,-0.16174316,0.64990234,0.74560547
1725816793250,2024-09-08T17:33:13.250Z,63698,-0.14764404,0.65649414,0.7501831
1725816793264,2024-09-08T17:33:13.264Z,63712,-0.13916016,0.65789795,0.75512695
1725816793294,2024-09-08T17:33:13.294Z,63742,-0.15307617,0.64819336,0.7558594
1725816793341,2024-09-08T17:33:13.341Z,63789,-0.15698242,0.64697266,0.7531738
1725816793385,2024-09-08T17:33:13.385Z,63833,-0.15124512,0.65527344,0.75183105
1725816793431,2024-09-08T17:33:13.431Z,63879,-0.14703369,0.65545654,0.7495117
1725816793476,2024-09-08T17:33:13.476Z,63924,-0.14837646,0.65527344,0.7473755
1725816793520,2024-09-08T17:33:13.520Z,63968,-0.14593506,0.65686035,0.7505493
1725816793574,2024-09-08T17:33:13.574Z,64022,-0.14483643,0.6565552,0.74542236
1725816793610,2024-09-08T17:33:13.610Z,64058,-0.1494751,0.65509033,0.74627686
1725816793655,2024-09-08T17:33:13.655Z,64103,-0.14959717,0.65441895,0.7559204
1725816793701,2024-09-08T17:33:13.701Z,64149,-0.14672852,0.65374756,0.7505493
1725816793716,2024-09-08T17:33:13.716Z,64164,-0.14788818,0.6541748,0.7493286
1725816793747,2024-09-08T17:33:13.747Z,64195,-0.1517334,0.65057373,0.75994873
1725816793791,2024-09-08T17:33:13.791Z,64239,-0.15270996,0.6501465,0.7522583
1725816793836,2024-09-08T17:33:13.836Z,64284,-0.15576172,0.6503296,0.7498779
1725816793882,2024-09-08T17:33:13.882Z,64330,-0.15270996,0.64941406,0.75494385
1725816793927,2024-09-08T17:33:13.927Z,64375,-0.15246582,0.6498413,0.74993896
1725816793970,2024-09-08T17:33:13.970Z,64418,-0.16156006,0.645874,0.7593384
1725816794016,2024-09-08T17:33:14.016Z,64464,-0.15887451,0.6453247,0.7520752
1725816794061,2024-09-08T17:33:14.061Z,64509,-0.15466309,0.6522827,0.75787354
1725816794106,2024-09-08T17:33:14.106Z,64554,-0.15740967,0.64886475,0.7440796
1725816794121,2024-09-08T17:33:14.121Z,64569,-0.16143799,0.64971924,0.7545166
1725816794150,2024-09-08T17:33:14.150Z,64598,-0.15985107,0.64886475,0.7491455
1725816794195,2024-09-08T17:33:14.195Z,64643,-0.16149902,0.6499634,0.7576904
1725816794243,2024-09-08T17:33:14.243Z,64691,-0.16589355,0.6473999,0.7490845
1725816794285,2024-09-08T17:33:14.285Z,64733,-0.16229248,0.64923096,0.7485962
1725816794330,2024-09-08T17:33:14.330Z,64778,-0.16455078,0.6520386,0.75567627
1725816794375,2024-09-08T17:33:14.375Z,64823,-0.16680908,0.6484375,0.7451172
1725816794420,2024-09-08T17:33:14.420Z,64868,-0.16748047,0.6482544,0.7515259
1725816794512,2024-09-08T17:33:14.512Z,64960,-0.16320801,0.65356445,0.7474365
1725816794527,2024-09-08T17:33:14.527Z,64975,-0.16235352,0.65393066,0.75250244
1725816794542,2024-09-08T17:33:14.542Z,64990,-0.16491699,0.65411377,0.7481079
1725816794602,2024-09-08T17:33:14.602Z,65050,-0.16589355,0.6539917,0.7459717
1725816794659,2024-09-08T17:33:14.659Z,65107,-0.16552734,0.6536255,0.7416992
1725816794675,2024-09-08T17:33:14.675Z,65123,-0.16461182,0.6548462,0.74542236
1725816794691,2024-09-08T17:33:14.691Z,65139,-0.16442871,0.6571045,0.7510376
1725816794736,2024-09-08T17:33:14.736Z,65184,-0.17047119,0.6536865,0.7440796
1725816794782,2024-09-08T17:33:14.782Z,65230,-0.17022705,0.6508789,0.7468872
1725816794826,2024-09-08T17:33:14.826Z,65274,-0.16339111,0.6514282,0.7451782
1725816794870,2024-09-08T17:33:14.870Z,65318,-0.16595459,0.6503296,0.7486572
1725816794918,2024-09-08T17:33:14.918Z,65366,-0.17364502,0.6503296,0.74749756
1725816794963,2024-09-08T17:33:14.963Z,65411,-0.16845703,0.65301514,0.75
1725816795006,2024-09-08T17:33:15.006Z,65454,-0.16986084,0.6516113,0.74835205
1725816795021,2024-09-08T17:33:15.021Z,65469,-0.16784668,0.65185547,0.7501221
1725816795051,2024-09-08T17:33:15.051Z,65499,-0.16516113,0.6520386,0.7446289
1725816795096,2024-09-08T17:33:15.096Z,65544,-0.16375732,0.6555786,0.75042725
1725816795143,2024-09-08T17:33:15.143Z,65591,-0.16412354,0.6520386,0.7475586
1725816795187,2024-09-08T17:33:15.187Z,65635,-0.16326904,0.6547241,0.7481079
1725816795230,2024-09-08T17:33:15.230Z,65678,-0.15808105,0.6582031,0.7401123
1725816795279,2024-09-08T17:33:15.279Z,65727,-0.15802002,0.6585083,0.7439575
1725816795330,2024-09-08T17:33:15.330Z,65778,-0.1630249,0.6552124,0.7498169
1725816795369,2024-09-08T17:33:15.369Z,65817,-0.16552734,0.65423584,0.7451782
1725816795383,2024-09-08T17:33:15.383Z,65831,-0.15716553,0.6577759,0.74383545
1725816795411,2024-09-08T17:33:15.411Z,65859,-0.16015625,0.65960693,0.7397461
1725816795458,2024-09-08T17:33:15.458Z,65906,-0.15942383,0.65649414,0.7459717
1725816795502,2024-09-08T17:33:15.502Z,65950,-0.15789795,0.65856934,0.7529907
1725816795553,2024-09-08T17:33:15.553Z,66001,-0.16430664,0.6576538,0.7423096
1725816795590,2024-09-08T17:33:15.590Z,66038,-0.1642456,0.65734863,0.7385864
1725816795681,2024-09-08T17:33:15.681Z,66129,-0.15490723,0.66259766,0.7387085
1725816795734,2024-09-08T17:33:15.734Z,66182,-0.15777588,0.6616211,0.7467041
1725816795748,2024-09-08T17:33:15.748Z,66196,-0.16174316,0.66082764,0.7428589
1725816795769,2024-09-08T17:33:15.769Z,66217,-0.16467285,0.6599121,0.7428589
1725816795782,2024-09-08T17:33:15.782Z,66230,-0.15423584,0.663208,0.74713135
1725816795862,2024-09-08T17:33:15.862Z,66310,-0.15332031,0.6689453,0.7219238
1725816795918,2024-09-08T17:33:15.918Z,66366,-0.1671753,0.6715698,0.73309326
1725816795937,2024-09-08T17:33:15.937Z,66385,-0.16101074,0.6656494,0.7371216
1725816795955,2024-09-08T17:33:15.955Z,66403,-0.16241455,0.66522217,0.74298096
1725816795996,2024-09-08T17:33:15.996Z,66444,-0.16931152,0.6611328,0.743042
1725816796050,2024-09-08T17:33:16.050Z,66498,-0.17401123,0.6635132,0.7307739
1725816796087,2024-09-08T17:33:16.087Z,66535,-0.1774292,0.66516113,0.73321533
1725816796132,2024-09-08T17:33:16.132Z,66580,-0.17797852,0.6647949,0.7327881
1725816796176,2024-09-08T17:33:16.176Z,66624,-0.17156982,0.66851807,0.7357788
1725816796221,2024-09-08T17:33:16.221Z,66669,-0.17254639,0.67144775,0.7197876
1725816796239,2024-09-08T17:33:16.239Z,66687,-0.18139648,0.6712036,0.72180176
1725816796266,2024-09-08T17:33:16.266Z,66714,-0.1743164,0.6720581,0.7338257
1725816796313,2024-09-08T17:33:16.313Z,66761,-0.17486572,0.6765747,0.72546387
1725816796357,2024-09-08T17:33:16.357Z,66805,-0.18109131,0.6739502,0.7219238
1725816796403,2024-09-08T17:33:16.403Z,66851,-0.17791748,0.67333984,0.7211914
1725816796448,2024-09-08T17:33:16.448Z,66896,-0.17425537,0.6784668,0.72229004
1725816796490,2024-09-08T17:33:16.490Z,66938,-0.17749023,0.67681885,0.7224121
1725816796585,2024-09-08T17:33:16.585Z,67033,-0.18145752,0.6759033,0.7224121
1725816796602,2024-09-08T17:33:16.602Z,67050,-0.1798706,0.67541504,0.7241821
1725816796626,2024-09-08T17:33:16.626Z,67074,-0.18328857,0.66955566,0.72613525
1725816796651,2024-09-08T17:33:16.651Z,67099,-0.17144775,0.6754761,0.7207031
1725816796669,2024-09-08T17:33:16.669Z,67117,-0.15734863,0.6913452,0.7156372
1725816796718,2024-09-08T17:33:16.718Z,67166,-0.16802979,0.6911621,0.7130127
1725816796763,2024-09-08T17:33:16.763Z,67211,-0.19122314,0.6676636,0.73132324
1725816796813,2024-09-08T17:33:16.813Z,67261,-0.15881348,0.6890869,0.7032471
1725816796852,2024-09-08T17:33:16.852Z,67300,-0.13861084,0.71691895,0.6876831
1725816796899,2024-09-08T17:33:16.899Z,67347,-0.13146973,0.71429443,0.7097168
1725816796942,2024-09-08T17:33:16.942Z,67390,-0.15527344,0.70111084,0.71221924
1725816796989,2024-09-08T17:33:16.989Z,67437,-0.15979004,0.69055176,0.7145386
1725816797033,2024-09-08T17:33:17.033Z,67481,-0.15460205,0.7003174,0.69763184
1725816797047,2024-09-08T17:33:17.047Z,67495,-0.14038086,0.72076416,0.68829346
1725816797076,2024-09-08T17:33:17.076Z,67524,-0.14147949,0.725647,0.67840576
1725816797122,2024-09-08T17:33:17.122Z,67570,-0.1385498,0.7111206,0.68200684
1725816797167,2024-09-08T17:33:17.167Z,67615,-0.15356445,0.7059326,0.6995239
1725816797210,2024-09-08T17:33:17.210Z,67658,-0.16088867,0.71990967,0.70336914
1725816797255,2024-09-08T17:33:17.255Z,67703,-0.1307373,0.7294922,0.6820679
1725816797301,2024-09-08T17:33:17.301Z,67749,-0.12158203,0.7290039,0.6720581
1725816797345,2024-09-08T17:33:17.345Z,67793,-0.13354492,0.7180176,0.68566895
1725816797391,2024-09-08T17:33:17.391Z,67839,-0.1359253,0.7272949,0.6751709
1725816797485,2024-09-08T17:33:17.485Z,67933,-0.1362915,0.73986816,0.68444824
1725816797500,2024-09-08T17:33:17.500Z,67948,-0.1315918,0.7319336,0.6868286
1725816797522,2024-09-08T17:33:17.522Z,67970,-0.13006592,0.72424316,0.6921997
1725816797537,2024-09-08T17:33:17.537Z,67985,-0.13952637,0.7246094,0.6708374
1725816797570,2024-09-08T17:33:17.570Z,68018,-0.13275146,0.7392578,0.65448
1725816797616,2024-09-08T17:33:17.616Z,68064,-0.14056396,0.7406006,0.68359375
1725816797661,2024-09-08T17:33:17.661Z,68109,-0.14263916,0.72888184,0.70336914
1725816797707,2024-09-08T17:33:17.707Z,68155,-0.15319824,0.7472534,0.7155762
1725816797752,2024-09-08T17:33:17.752Z,68200,-0.12890625,0.79211426,0.6512451
1725816797798,2024-09-08T17:33:17.798Z,68246,-0.06225586,0.82598877,0.6125488
1725816797887,2024-09-08T17:33:17.887Z,68335,-0.12408447,0.82006836,0.6611328
1725816797902,2024-09-08T17:33:17.902Z,68350,-0.36090088,0.89056396,0.38134766
1725816797918,2024-09-08T17:33:17.918Z,68366,-0.18981934,0.9417114,0.09161377
1725816797933,2024-09-08T17:33:17.933Z,68381,0.4902954,0.8531494,0.77319336
1725816797978,2024-09-08T17:33:17.978Z,68426,-0.046081543,0.91223145,0.8869629
1725816798030,2024-09-08T17:33:18.030Z,68478,0.0012817383,0.8665161,0.7468262
1725816798064,2024-09-08T17:33:18.064Z,68512,0.09161377,0.7583008,0.6976929
1725816798112,2024-09-08T17:33:18.112Z,68560,0.111083984,0.67163086,0.9279785
1725816798156,2024-09-08T17:33:18.156Z,68604,0.20227051,0.61553955,1.0629272
1725816798202,2024-09-08T17:33:18.202Z,68650,0.2444458,0.6135254,1.0640869
1725816798246,2024-09-08T17:33:18.246Z,68694,0.28027344,0.53930664,1.0536499
1725816798291,2024-09-08T17:33:18.291Z,68739,0.28131104,0.49725342,1.0994263
1725816798307,2024-09-08T17:33:18.307Z,68755,0.3293457,0.5060425,0.9451294
1725816798336,2024-09-08T17:33:18.336Z,68784,0.4413452,0.4758911,0.79907227
1725816798382,2024-09-08T17:33:18.382Z,68830,0.48242188,0.43206787,0.68859863
1725816798427,2024-09-08T17:33:18.427Z,68875,0.4989624,0.38238525,0.48675537
1725816798472,2024-09-08T17:33:18.472Z,68920,0.5168457,0.3366089,0.38598633
1725816798517,2024-09-08T17:33:18.517Z,68965,0.5006714,0.3053589,0.37109375
1725816798562,2024-09-08T17:33:18.562Z,69010,0.4489746,0.28399658,0.38031006
1725816798607,2024-09-08T17:33:18.607Z,69055,0.41540527,0.28063965,0.44000244
1725816798653,2024-09-08T17:33:18.653Z,69101,0.41046143,0.3059082,0.5546875
1725816798695,2024-09-08T17:33:18.695Z,69143,0.41448975,0.35394287,0.6091919
1725816798741,2024-09-08T17:33:18.741Z,69189,0.44073486,0.4298706,0.68707275
1725816798756,2024-09-08T17:33:18.756Z,69204,0.46783447,0.5170288,0.76446533
1725816798785,2024-09-08T17:33:18.785Z,69233,0.45703125,0.5626831,0.71258545
1725816798832,2024-09-08T17:33:18.832Z,69280,0.45587158,0.5918579,0.75775146
1725816798878,2024-09-08T17:33:18.878Z,69326,0.397583,0.61968994,0.7612915
1725816798929,2024-09-08T17:33:18.929Z,69377,0.35888672,0.6390991,0.6496582
1725816798968,2024-09-08T17:33:18.968Z,69416,0.38763428,0.68096924,0.65197754
1725816799013,2024-09-08T17:33:19.013Z,69461,0.3694458,0.7090454,0.5522461
1725816799057,2024-09-08T17:33:19.057Z,69505,0.42364502,0.7617798,0.45404053
1725816799102,2024-09-08T17:33:19.102Z,69550,0.48101807,0.8139038,0.5527344
1725816799149,2024-09-08T17:33:19.149Z,69597,0.4588623,0.81799316,0.5977173
1725816799165,2024-09-08T17:33:19.165Z,69613,0.45874023,0.8087158,0.5606079
1725816799193,2024-09-08T17:33:19.193Z,69641,0.39837646,0.82629395,0.5823364
1725816799237,2024-09-08T17:33:19.237Z,69685,0.3704834,0.859375,0.7062378
1725816799279,2024-09-08T17:33:19.279Z,69727,0.30480957,0.8498535,0.71398926
1725816799328,2024-09-08T17:33:19.328Z,69776,0.276062,0.80596924,0.51678467
1725816799372,2024-09-08T17:33:19.372Z,69820,0.29718018,0.82336426,0.44458008
1725816799417,2024-09-08T17:33:19.417Z,69865,0.29840088,0.8465576,0.45446777
1725816799461,2024-09-08T17:33:19.461Z,69909,0.2713623,0.8532715,0.4307251
1725816799507,2024-09-08T17:33:19.507Z,69955,0.26672363,0.84552,0.40875244
1725816799550,2024-09-08T17:33:19.550Z,69998,0.2888794,0.83795166,0.41467285
1725816799562,2024-09-08T17:33:19.562Z,70010,0.27056885,0.8175659,0.39624023
1725816799595,2024-09-08T17:33:19.595Z,70043,0.33276367,0.8010254,0.4550171
1725816799642,2024-09-08T17:33:19.642Z,70090,0.35461426,0.7859497,0.45806885
1725816799685,2024-09-08T17:33:19.685Z,70133,0.3782959,0.7821655,0.4128418
1725816799730,2024-09-08T17:33:19.730Z,70178,0.48632812,0.8083496,0.42279053
1725816799777,2024-09-08T17:33:19.777Z,70225,0.3612671,0.7848511,0.37023926
1725816799823,2024-09-08T17:33:19.823Z,70271,0.3522339,0.7932739,0.421875
1725816799866,2024-09-08T17:33:19.866Z,70314,0.4085083,0.77545166,0.46087646
1725816799911,2024-09-08T17:33:19.911Z,70359,0.117492676,0.79956055,0.40222168
1725816799957,2024-09-08T17:33:19.957Z,70405,0.28881836,0.86242676,0.49395752
1725816800001,2024-09-08T17:33:20.001Z,70449,0.39453125,0.8710327,0.47998047
1725816800014,2024-09-08T17:33:20.014Z,70462,0.3670044,0.8947754,0.48913574
1725816800046,2024-09-08T17:33:20.046Z,70494,0.37939453,0.86743164,0.44482422
1725816800090,2024-09-08T17:33:20.090Z,70538,0.3544922,0.82788086,0.41314697
1725816800134,2024-09-08T17:33:20.134Z,70582,0.3363037,0.8253174,0.4482422
1725816800181,2024-09-08T17:33:20.181Z,70629,0.38653564,0.83843994,0.45092773
1725816800227,2024-09-08T17:33:20.227Z,70675,0.40844727,0.84295654,0.41577148
1725816800272,2024-09-08T17:33:20.272Z,70720,0.3770752,0.8514404,0.42236328
1725816800318,2024-09-08T17:33:20.318Z,70766,0.3720703,0.8411255,0.411438
1725816800360,2024-09-08T17:33:20.360Z,70808,0.3748169,0.8345337,0.39892578
1725816800406,2024-09-08T17:33:20.406Z,70854,0.37670898,0.8447876,0.385437
1725816800420,2024-09-08T17:33:20.420Z,70868,0.37670898,0.85754395,0.37579346
1725816800450,2024-09-08T17:33:20.450Z,70898,0.37200928,0.8535156,0.3829956
1725816800495,2024-09-08T17:33:20.495Z,70943,0.3791504,0.84558105,0.3753662
1725816800541,2024-09-08T17:33:20.541Z,70989,0.37615967,0.84661865,0.37976074
1725816800586,2024-09-08T17:33:20.586Z,71034,0.37322998,0.8391113,0.38043213
1725816800630,2024-09-08T17:33:20.630Z,71078,0.3840332,0.8342285,0.38128662
1725816800767,2024-09-08T17:33:20.767Z,71215,0.38635254,0.82769775,0.4152832
1725816800782,2024-09-08T17:33:20.782Z,71230,0.3753662,0.8227539,0.41088867
1725816800796,2024-09-08T17:33:20.796Z,71244,0.36688232,0.81884766,0.36791992
1725816800810,2024-09-08T17:33:20.810Z,71258,0.40203857,0.8345947,0.39746094
1725816800821,2024-09-08T17:33:20.821Z,71269,0.42980957,0.84594727,0.40600586
1725816800855,2024-09-08T17:33:20.855Z,71303,0.38269043,0.8658447,0.4180298
1725816800902,2024-09-08T17:33:20.902Z,71350,0.30963135,0.87371826,0.42822266
1725816800992,2024-09-08T17:33:20.992Z,71440,0.355896,0.84039307,0.33624268
1725816801005,2024-09-08T17:33:21.005Z,71453,0.4597168,0.8153076,0.28674316
1725816801036,2024-09-08T17:33:21.036Z,71484,0.45074463,0.8190918,0.3460083
1725816801080,2024-09-08T17:33:21.080Z,71528,0.39782715,0.83154297,0.36517334
1725816801127,2024-09-08T17:33:21.127Z,71575,0.38739014,0.8488159,0.35107422
1725816801170,2024-09-08T17:33:21.170Z,71618,0.38513184,0.87628174,0.3795166
1725816801219,2024-09-08T17:33:21.219Z,71667,0.3657837,0.8621826,0.3947754
1725816801263,2024-09-08T17:33:21.263Z,71711,0.38952637,0.82110596,0.3661499
1725816801279,2024-09-08T17:33:21.279Z,71727,0.40093994,0.8048096,0.36291504
1725816801306,2024-09-08T17:33:21.306Z,71754,0.40447998,0.82922363,0.34991455
1725816801351,2024-09-08T17:33:21.351Z,71799,0.39263916,0.8543701,0.34783936
1725816801396,2024-09-08T17:33:21.396Z,71844,0.39001465,0.8265991,0.37158203
1725816801441,2024-09-08T17:33:21.441Z,71889,0.383667,0.821228,0.3912964
1725816801487,2024-09-08T17:33:21.487Z,71935,0.39874268,0.81762695,0.38885498
1725816801532,2024-09-08T17:33:21.532Z,71980,0.41967773,0.8210449,0.36505127
1725816801574,2024-09-08T17:33:21.574Z,72022,0.40533447,0.84277344,0.36920166
1725816801622,2024-09-08T17:33:21.622Z,72070,0.3809204,0.86694336,0.38476562
1725816801670,2024-09-08T17:33:21.670Z,72118,0.39361572,0.8516846,0.35247803
1725816801683,2024-09-08T17:33:21.683Z,72131,0.4248047,0.83343506,0.34753418
1725816801756,2024-09-08T17:33:21.756Z,72204,0.42437744,0.8338623,0.3546753
1725816801800,2024-09-08T17:33:21.800Z,72248,0.40753174,0.8265991,0.35668945
1725816801813,2024-09-08T17:33:21.813Z,72261,0.4284668,0.82403564,0.36309814
1725816801855,2024-09-08T17:33:21.855Z,72303,0.42138672,0.8353882,0.3703003
1725816801941,2024-09-08T17:33:21.941Z,72389,0.40570068,0.8418579,0.37225342
1725816801955,2024-09-08T17:33:21.955Z,72403,0.41638184,0.83825684,0.3638916
1725816801981,2024-09-08T17:33:21.981Z,72429,0.4161377,0.835083,0.35821533
1725816802027,2024-09-08T17:33:22.027Z,72475,0.41967773,0.8322754,0.3659668
1725816802071,2024-09-08T17:33:22.071Z,72519,0.44732666,0.8442993,0.39245605
1725816802085,2024-09-08T17:33:22.085Z,72533,0.48571777,0.8921509,0.4281006
1725816802115,2024-09-08T17:33:22.115Z,72563,0.49310303,0.9883423,0.4920044
1725816802161,2024-09-08T17:33:22.161Z,72609,0.42590332,0.9589844,0.46191406
1725816802204,2024-09-08T17:33:22.204Z,72652,0.36547852,0.78240967,0.3515625
1725816802252,2024-09-08T17:33:22.252Z,72700,0.34161377,0.63220215,0.2694702
1725816802297,2024-09-08T17:33:22.297Z,72745,0.39575195,0.5549927,0.23754883
1725816802342,2024-09-08T17:33:22.342Z,72790,0.42156982,0.54711914,0.23571777
1725816802386,2024-09-08T17:33:22.386Z,72834,0.43676758,0.74902344,0.43182373
1725816802430,2024-09-08T17:33:22.430Z,72878,0.5097656,1.1252441,0.6694946
1725816802475,2024-09-08T17:33:22.475Z,72923,0.51104736,1.211853,0.5703125
1725816802521,2024-09-08T17:33:22.521Z,72969,0.36676025,1.0326538,0.64660645
1725816802534,2024-09-08T17:33:22.534Z,72982,0.5576782,0.9406738,0.9119873
1725816802566,2024-09-08T17:33:22.566Z,73014,0.49835205,0.7779541,1.057312
1725816802611,2024-09-08T17:33:22.611Z,73059,0.2617798,0.62823486,0.85931396
1725816802655,2024-09-08T17:33:22.655Z,73103,0.43688965,0.5029297,0.2805786
1725816802702,2024-09-08T17:33:22.702Z,73150,0.52001953,0.45690918,0.066467285
1725816802747,2024-09-08T17:33:22.747Z,73195,0.5820923,0.4697876,0.027709961
1725816802790,2024-09-08T17:33:22.790Z,73238,0.6187744,0.4356079,-0.46691895
1725816802837,2024-09-08T17:33:22.837Z,73285,0.69750977,0.40771484,-0.7041626
1725816802882,2024-09-08T17:33:22.882Z,73330,0.8163452,0.3727417,-0.41436768
1725816802924,2024-09-08T17:33:22.924Z,73372,0.88031006,0.30480957,-0.2946167
1725816802937,2024-09-08T17:33:22.937Z,73385,0.9425659,0.27575684,-0.1796875
1725816802971,2024-09-08T17:33:22.971Z,73419,1.0371704,0.27612305,-0.057006836
1725816803015,2024-09-08T17:33:23.015Z,73463,1.1311646,0.25512695,-0.08081055
1725816803062,2024-09-08T17:33:23.062Z,73510,1.0705566,0.1975708,0.028381348
1725816803108,2024-09-08T17:33:23.108Z,73556,1.0610962,0.08416748,-0.0154418945
1725816803197,2024-09-08T17:33:23.197Z,73645,0.89624023,0.05493164,0.02319336
1725816803212,2024-09-08T17:33:23.212Z,73660,0.829834,0.21398926,-0.24285889
1725816803240,2024-09-08T17:33:23.240Z,73688,0.9147949,0.31744385,-0.6029663
1725816803297,2024-09-08T17:33:23.297Z,73745,0.8477783,0.17370605,-0.62316895
1725816803333,2024-09-08T17:33:23.333Z,73781,0.79852295,0.027832031,-0.51293945
1725816803347,2024-09-08T17:33:23.347Z,73795,0.77124023,0.005065918,-0.40368652
1725816803380,2024-09-08T17:33:23.380Z,73828,0.8535156,0.018188477,-0.3348999
1725816803421,2024-09-08T17:33:23.421Z,73869,0.8900757,0.012756348,-0.3164673
1725816803465,2024-09-08T17:33:23.465Z,73913,0.90704346,0.0099487305,-0.2980957
1725816803512,2024-09-08T17:33:23.512Z,73960,0.89056396,0.024719238,-0.27642822
1725816803557,2024-09-08T17:33:23.557Z,74005,0.92407227,0.035705566,-0.32244873
1725816803647,2024-09-08T17:33:23.647Z,74095,0.9346924,0.047668457,-0.33551025
1725816803662,2024-09-08T17:33:23.662Z,74110,0.9286499,0.056396484,-0.3330078
1725816803694,2024-09-08T17:33:23.694Z,74142,0.9428711,0.041503906,-0.33953857
1725816803735,2024-09-08T17:33:23.735Z,74183,0.9439087,0.034423828,-0.32965088
1725816803829,2024-09-08T17:33:23.829Z,74277,0.93914795,0.04699707,-0.32940674
1725816803844,2024-09-08T17:33:23.844Z,74292,0.9581299,0.057617188,-0.32629395
1725816803859,2024-09-08T17:33:23.859Z,74307,0.9859009,0.060913086,-0.3256836
1725816803873,2024-09-08T17:33:23.873Z,74321,1.0251465,0.053833008,-0.34448242
1725816803925,2024-09-08T17:33:23.925Z,74373,1.1131592,0.016784668,-0.3363037
1725816803960,2024-09-08T17:33:23.960Z,74408,1.1704102,-0.03173828,-0.29840088
1725816804005,2024-09-08T17:33:24.005Z,74453,1.1853638,-0.0848999,-0.3513794
1725816804051,2024-09-08T17:33:24.051Z,74499,1.2316895,-0.12213135,-0.36706543
1725816804103,2024-09-08T17:33:24.103Z,74551,1.2539673,-0.15899658,-0.35821533
1725816804142,2024-09-08T17:33:24.142Z,74590,1.2223511,-0.2355957,-0.26293945
1725816804187,2024-09-08T17:33:24.187Z,74635,1.1514282,-0.3043213,-0.12524414
1725816804203,2024-09-08T17:33:24.203Z,74651,0.9696655,-0.28393555,0.01550293
1725816804234,2024-09-08T17:33:24.234Z,74682,0.8066406,-0.2987671,0.03149414
1725816804276,2024-09-08T17:33:24.276Z,74724,0.5529785,-0.31298828,0.030212402
1725816804319,2024-09-08T17:33:24.319Z,74767,0.4389038,-0.33996582,-0.038085938
1725816804367,2024-09-08T17:33:24.367Z,74815,0.4083252,-0.36602783,-0.09631348
1725816804410,2024-09-08T17:33:24.410Z,74858,0.31158447,-0.38134766,-0.25506592
1725816804456,2024-09-08T17:33:24.456Z,74904,0.30932617,-0.41638184,-0.32495117
1725816804500,2024-09-08T17:33:24.500Z,74948,0.45367432,-0.48583984,-0.18249512
1725816804545,2024-09-08T17:33:24.545Z,74993,0.54052734,-0.54711914,-0.07318115
1725816804592,2024-09-08T17:33:24.592Z,75040,0.58618164,-0.56951904,0.09210205
1725816804609,2024-09-08T17:33:24.609Z,75057,0.60565186,-0.5662842,0.043518066
1725816804647,2024-09-08T17:33:24.647Z,75095,0.67437744,-0.48431396,-0.0072021484
1725816804682,2024-09-08T17:33:24.682Z,75130,0.6832886,-0.3284912,0.1461792
1725816804734,2024-09-08T17:33:24.734Z,75182,0.70129395,-0.17156982,0.14630127
1725816804773,2024-09-08T17:33:24.773Z,75221,0.8438721,0.03704834,0.269104
1725816804820,2024-09-08T17:33:24.820Z,75268,0.78302,0.2088623,0.3166504
1725816804860,2024-09-08T17:33:24.860Z,75308,0.7114868,0.5031738,0.3425293
1725816804907,2024-09-08T17:33:24.907Z,75355,0.6635742,0.7678833,0.5685425
1725816804952,2024-09-08T17:33:24.952Z,75400,0.46917725,0.87579346,0.70336914
1725816804995,2024-09-08T17:33:24.995Z,75443,0.051696777,0.95007324,0.93865967
1725816805042,2024-09-08T17:33:25.042Z,75490,-0.3930664,0.7969971,0.9373779
1725816805059,2024-09-08T17:33:25.059Z,75507,-0.4399414,0.71173096,0.9447632
1725816805088,2024-09-08T17:33:25.088Z,75536,-0.2722168,0.78601074,0.95111084
1725816805132,2024-09-08T17:33:25.132Z,75580,-0.33898926,0.8826904,0.79345703
1725816805177,2024-09-08T17:33:25.177Z,75625,-0.25360107,1.0527954,0.935791
1725816805223,2024-09-08T17:33:25.223Z,75671,-0.07788086,1.0110474,1.0025024
1725816805268,2024-09-08T17:33:25.268Z,75716,0.038330078,0.84490967,0.7866821
1725816805311,2024-09-08T17:33:25.311Z,75759,0.06378174,0.7371826,0.7305908
1725816805358,2024-09-08T17:33:25.358Z,75806,0.032958984,0.6272583,0.76641846
1725816805399,2024-09-08T17:33:25.399Z,75847,-0.076171875,0.5492554,0.58203125
1725816805447,2024-09-08T17:33:25.447Z,75895,-0.053344727,0.631897,0.30273438
1725816805462,2024-09-08T17:33:25.462Z,75910,-0.046142578,1.411438,0.107299805
1725816805492,2024-09-08T17:33:25.492Z,75940,-0.1060791,1.5429688,0.3536377
1725816805538,2024-09-08T17:33:25.538Z,75986,0.12011719,0.77368164,0.55126953
1725816805579,2024-09-08T17:33:25.579Z,76027,-0.03894043,0.6364136,0.68133545
1725816805626,2024-09-08T17:33:25.626Z,76074,-0.3499756,0.8317261,0.70007324
1725816805718,2024-09-08T17:33:25.718Z,76166,-0.23797607,0.84033203,0.6619873
1725816805759,2024-09-08T17:33:25.759Z,76207,-0.1385498,0.76794434,0.58044434
1725816805776,2024-09-08T17:33:25.776Z,76224,-0.23425293,0.74658203,0.56829834
1725816805807,2024-09-08T17:33:25.807Z,76255,-0.18292236,0.74938965,0.63848877
1725816805852,2024-09-08T17:33:25.852Z,76300,-0.1809082,0.7680664,0.67211914
1725816805904,2024-09-08T17:33:25.904Z,76352,-0.184021,0.78448486,0.6166992
1725816805919,2024-09-08T17:33:25.919Z,76367,-0.1850586,0.79260254,0.61602783
1725816805940,2024-09-08T17:33:25.940Z,76388,-0.18701172,0.7969971,0.59887695
1725816805987,2024-09-08T17:33:25.987Z,76435,-0.18200684,0.8135376,0.5446167
1725816806031,2024-09-08T17:33:26.031Z,76479,-0.17718506,0.80908203,0.55462646
1725816806077,2024-09-08T17:33:26.077Z,76525,-0.15960693,0.8041382,0.6137085
1725816806122,2024-09-08T17:33:26.122Z,76570,-0.17163086,0.8052368,0.58709717
1725816806167,2024-09-08T17:33:26.167Z,76615,-0.19268799,0.8062744,0.5354614
1725816806210,2024-09-08T17:33:26.210Z,76658,-0.16986084,0.8130493,0.53845215
1725816806264,2024-09-08T17:33:26.264Z,76712,-0.16204834,0.81915283,0.57684326
1725816806279,2024-09-08T17:33:26.279Z,76727,-0.19458008,0.80218506,0.59417725
1725816806307,2024-09-08T17:33:26.307Z,76755,-0.21929932,0.7904663,0.6142578
1725816806346,2024-09-08T17:33:26.346Z,76794,-0.19934082,0.79071045,0.5873413
1725816806391,2024-09-08T17:33:26.391Z,76839,-0.17572021,0.79919434,0.5599365
1725816806439,2024-09-08T17:33:26.439Z,76887,-0.17407227,0.80322266,0.56378174
1725816806480,2024-09-08T17:33:26.480Z,76928,-0.18511963,0.8050537,0.57489014
1725816806528,2024-09-08T17:33:26.528Z,76976,-0.1873169,0.8087158,0.5982666
1725816806573,2024-09-08T17:33:26.573Z,77021,-0.19329834,0.8049927,0.5753784
1725816806615,2024-09-08T17:33:26.615Z,77063,-0.18481445,0.8005371,0.5755005
1725816806660,2024-09-08T17:33:26.660Z,77108,-0.17773438,0.80029297,0.5904541
1725816806756,2024-09-08T17:33:26.756Z,77204,-0.17919922,0.7999878,0.57733154
1725816806770,2024-09-08T17:33:26.770Z,77218,-0.19104004,0.79626465,0.5703125
1725816806786,2024-09-08T17:33:26.786Z,77234,-0.19677734,0.7994385,0.58251953
1725816806800,2024-09-08T17:33:26.800Z,77248,-0.19232178,0.7979126,0.59161377
1725816806840,2024-09-08T17:33:26.840Z,77288,-0.18688965,0.79467773,0.60357666
1725816806886,2024-09-08T17:33:26.886Z,77334,-0.18139648,0.79541016,0.5961304
1725816806931,2024-09-08T17:33:26.931Z,77379,-0.18572998,0.79211426,0.5788574
1725816806976,2024-09-08T17:33:26.976Z,77424,-0.18237305,0.7967529,0.5891113
1725816807021,2024-09-08T17:33:27.021Z,77469,-0.17956543,0.79870605,0.59143066
1725816807064,2024-09-08T17:33:27.064Z,77512,-0.18457031,0.7921753,0.58587646
1725816807109,2024-09-08T17:33:27.109Z,77557,-0.1887207,0.79003906,0.6026001
1725816807124,2024-09-08T17:33:27.124Z,77572,-0.18701172,0.7910156,0.5866089
1725816807162,2024-09-08T17:33:27.162Z,77610,-0.18469238,0.7913208,0.5968628
1725816807202,2024-09-08T17:33:27.202Z,77650,-0.18432617,0.7920532,0.59643555
1725816807246,2024-09-08T17:33:27.246Z,77694,-0.17767334,0.7925415,0.5913086
1725816807293,2024-09-08T17:33:27.293Z,77741,-0.17779541,0.79211426,0.5973511
1725816807335,2024-09-08T17:33:27.335Z,77783,-0.17913818,0.7902832,0.60217285
1725816807386,2024-09-08T17:33:27.386Z,77834,-0.18286133,0.7871094,0.600708
1725816807427,2024-09-08T17:33:27.427Z,77875,-0.1784668,0.7910156,0.59942627
1725816807471,2024-09-08T17:33:27.471Z,77919,-0.16607666,0.7953491,0.5967407
1725816807516,2024-09-08T17:33:27.516Z,77964,-0.17089844,0.7959595,0.5944824
1725816807562,2024-09-08T17:33:27.562Z,78010,-0.17529297,0.79119873,0.59020996
1725816807577,2024-09-08T17:33:27.577Z,78025,-0.17889404,0.7887573,0.59368896
1725816807606,2024-09-08T17:33:27.606Z,78054,-0.1739502,0.79052734,0.59783936
1725816807652,2024-09-08T17:33:27.652Z,78100,-0.1739502,0.7885742,0.604126
1725816807696,2024-09-08T17:33:27.696Z,78144,-0.18377686,0.7838745,0.61364746
1725816807743,2024-09-08T17:33:27.743Z,78191,-0.1765747,0.7857666,0.6026001
1725816807832,2024-09-08T17:33:27.832Z,78280,-0.16748047,0.7897949,0.58740234
1725816807848,2024-09-08T17:33:27.848Z,78296,-0.17596436,0.786499,0.6021118
1725816807920,2024-09-08T17:33:27.920Z,78368,-0.17993164,0.784729,0.6080322
1725816807933,2024-09-08T17:33:27.933Z,78381,-0.16796875,0.78601074,0.61828613
1725816808012,2024-09-08T17:33:28.012Z,78460,-0.17358398,0.7833252,0.6157837
1725816808026,2024-09-08T17:33:28.026Z,78474,-0.1696167,0.78302,0.6126709
1725816808039,2024-09-08T17:33:28.039Z,78487,-0.16790771,0.78582764,0.6166382
1725816808055,2024-09-08T17:33:28.055Z,78503,-0.17095947,0.7825928,0.60894775
1725816808101,2024-09-08T17:33:28.101Z,78549,-0.16473389,0.78234863,0.6038208
1725816808146,2024-09-08T17:33:28.146Z,78594,-0.1685791,0.7861328,0.6022949
1725816808191,2024-09-08T17:33:28.191Z,78639,-0.16229248,0.7862549,0.61242676
1725816808235,2024-09-08T17:33:28.235Z,78683,-0.1673584,0.78601074,0.6259155
1725816808328,2024-09-08T17:33:28.328Z,78776,-0.17211914,0.7783203,0.6077881
1725816808342,2024-09-08T17:33:28.342Z,78790,-0.1638794,0.78100586,0.61035156
1725816808414,2024-09-08T17:33:28.414Z,78862,-0.16766357,0.78131104,0.6175537
1725816808459,2024-09-08T17:33:28.459Z,78907,-0.15332031,0.7819214,0.6099243
1725816808473,2024-09-08T17:33:28.473Z,78921,-0.17095947,0.77960205,0.62213135
1725816808487,2024-09-08T17:33:28.487Z,78935,-0.1739502,0.77923584,0.62145996
1725816808504,2024-09-08T17:33:28.504Z,78952,-0.1586914,0.7874756,0.60687256
1725816808551,2024-09-08T17:33:28.551Z,78999,-0.17004395,0.7854614,0.6074829
1725816808596,2024-09-08T17:33:28.596Z,79044,-0.16931152,0.78723145,0.59606934
1725816808646,2024-09-08T17:33:28.646Z,79094,-0.16864014,0.788147,0.63635254
1725816808688,2024-09-08T17:33:28.688Z,79136,-0.19763184,0.8008423,0.6335449
1725816808732,2024-09-08T17:33:28.732Z,79180,-0.11981201,0.8223877,0.6231079
1725816808778,2024-09-08T17:33:28.778Z,79226,-0.140625,0.8713989,0.8463135
1725816808820,2024-09-08T17:33:28.820Z,79268,-0.11859131,0.8154297,0.725708
1725816808833,2024-09-08T17:33:28.833Z,79281,-0.19354248,0.7006836,0.7333374
1725816808866,2024-09-08T17:33:28.866Z,79314,-0.24700928,0.6921997,0.95544434
1725816808911,2024-09-08T17:33:28.911Z,79359,-0.25,0.8317261,1.0864868
1725816808954,2024-09-08T17:33:28.954Z,79402,-0.29174805,0.8399658,1.5135498
1725816809000,2024-09-08T17:33:29Z,79448,-0.2781372,1.1054077,1.1528931
1725816809046,2024-09-08T17:33:29.046Z,79494,-0.3661499,1.5686646,1.0001221
1725816809140,2024-09-08T17:33:29.140Z,79588,-0.63671875,1.4577637,1.2571411
1725816809156,2024-09-08T17:33:29.156Z,79604,-0.40264893,1.4127197,1.0133667
1725816809182,2024-09-08T17:33:29.182Z,79630,0.06677246,1.2458496,0.5546875
1725816809230,2024-09-08T17:33:29.230Z,79678,0.16558838,0.9804077,0.5437622
1725816809244,2024-09-08T17:33:29.244Z,79692,0.0960083,0.92840576,0.039123535
1725816809273,2024-09-08T17:33:29.273Z,79721,-0.1984253,0.107543945,-0.08538818
1725816809315,2024-09-08T17:33:29.315Z,79763,-0.20251465,-0.053344727,0.18164062
1725816809363,2024-09-08T17:33:29.363Z,79811,-0.24346924,-0.21282959,0.031677246
1725816809405,2024-09-08T17:33:29.405Z,79853,-0.30426025,-0.34106445,-0.02923584
1725816809452,2024-09-08T17:33:29.452Z,79900,-0.604126,-0.50909424,0.13848877
1725816809498,2024-09-08T17:33:29.498Z,79946,-0.81018066,-0.6766968,0.25042725
1725816809539,2024-09-08T17:33:29.539Z,79987,-1.0566406,-0.586853,0.10101318
1725816809586,2024-09-08T17:33:29.586Z,80034,-1.2120972,-0.53149414,-0.035583496
1725816809630,2024-09-08T17:33:29.630Z,80078,-1.2017212,-0.41955566,0.09057617
1725816809643,2024-09-08T17:33:29.643Z,80091,-0.8956299,-0.35491943,0.31591797
1725816809686,2024-09-08T17:33:29.686Z,80134,-0.59802246,-0.3109131,0.43670654
1725816809722,2024-09-08T17:33:29.722Z,80170,-0.39422607,-0.1430664,0.5003662
1725816809767,2024-09-08T17:33:29.767Z,80215,0.2808838,0.4734497,1.2272339
1725816809810,2024-09-08T17:33:29.810Z,80258,0.6047363,0.61590576,1.6799927
1725816809856,2024-09-08T17:33:29.856Z,80304,0.27471924,0.64123535,1.2386475
1725816809902,2024-09-08T17:33:29.902Z,80350,0.57250977,0.83966064,1.5175171
1725816809944,2024-09-08T17:33:29.944Z,80392,0.4420166,0.62890625,1.4293213
1725816809990,2024-09-08T17:33:29.990Z,80438,0.15667725,0.48742676,1.3441162
1725816810036,2024-09-08T17:33:30.036Z,80484,0.16741943,0.42266846,1.1694336
1725816810082,2024-09-08T17:33:30.082Z,80530,0.2956543,0.35272217,1.093811
1725816810125,2024-09-08T17:33:30.125Z,80573,0.24023438,0.35595703,1.079834
1725816810136,2024-09-08T17:33:30.136Z,80584,0.16741943,0.35839844,0.9650879
1725816810171,2024-09-08T17:33:30.171Z,80619,0.08154297,0.3015747,0.87823486
1725816810217,2024-09-08T17:33:30.217Z,80665,0.006958008,0.27209473,0.83099365
1725816810260,2024-09-08T17:33:30.260Z,80708,-0.049194336,0.25860596,0.697937
1725816810308,2024-09-08T17:33:30.308Z,80756,-0.22998047,0.22839355,0.5723877
1725816810399,2024-09-08T17:33:30.399Z,80847,-0.13079834,0.3255005,0.63604736
1725816810413,2024-09-08T17:33:30.413Z,80861,-0.15716553,0.44726562,0.635437
1725816810441,2024-09-08T17:33:30.441Z,80889,-0.24743652,0.51672363,0.62994385
1725816810504,2024-09-08T17:33:30.504Z,80952,-0.31274414,0.49420166,0.6635132
1725816810515,2024-09-08T17:33:30.515Z,80963,-0.22998047,0.45074463,0.7166748
1725816810576,2024-09-08T17:33:30.576Z,81024,0.10498047,0.6395874,1.2855225
1725816810588,2024-09-08T17:33:30.588Z,81036,-0.32922363,0.5704956,1.6437988
1725816810621,2024-09-08T17:33:30.621Z,81069,-0.6254883,0.57177734,1.2628784
1725816810666,2024-09-08T17:33:30.666Z,81114,-0.12347412,0.52160645,1.1203003
1725816810710,2024-09-08T17:33:30.710Z,81158,-0.08325195,0.4454956,1.0281982
1725816810772,2024-09-08T17:33:30.772Z,81220,-0.12011719,0.47650146,0.89282227
1725816810801,2024-09-08T17:33:30.801Z,81249,0.03173828,0.47277832,0.89331055
1725816810846,2024-09-08T17:33:30.846Z,81294,-0.093688965,0.38464355,0.77301025
1725816810890,2024-09-08T17:33:30.890Z,81338,0.035217285,0.42004395,0.7922363
1725816810902,2024-09-08T17:33:30.902Z,81350,-0.018188477,0.5036621,0.8265991
1725816810979,2024-09-08T17:33:30.979Z,81427,-0.18334961,0.5597534,0.88098145
1725816810991,2024-09-08T17:33:30.991Z,81439,-0.20904541,0.6288452,0.96398926
1725816811025,2024-09-08T17:33:31.025Z,81473,-0.27252197,0.6166382,0.9672241
1725816811071,2024-09-08T17:33:31.071Z,81519,-0.19189453,0.59002686,0.932312
1725816811122,2024-09-08T17:33:31.122Z,81570,-0.07757568,0.5725708,0.8791504
1725816811159,2024-09-08T17:33:31.159Z,81607,-0.029785156,0.53564453,0.8156738
1725816811206,2024-09-08T17:33:31.206Z,81654,0.010559082,0.3961792,0.72387695
1725816811251,2024-09-08T17:33:31.251Z,81699,0.07910156,0.29736328,0.62664795
1725816811295,2024-09-08T17:33:31.295Z,81743,0.18518066,0.083862305,0.57263184
1725816811342,2024-09-08T17:33:31.342Z,81790,0.30316162,-0.02923584,0.5371704
1725816811355,2024-09-08T17:33:31.355Z,81803,0.41168213,-0.06951904,0.57696533
1725816811387,2024-09-08T17:33:31.387Z,81835,0.44451904,-0.13806152,0.49487305
1725816811431,2024-09-08T17:33:31.431Z,81879,0.82177734,-0.18249512,0.6184082
1725816811475,2024-09-08T17:33:31.475Z,81923,0.8209839,-0.19067383,0.7761841
1725816811522,2024-09-08T17:33:31.522Z,81970,0.7298584,-0.1352539,0.8446655
1725816811567,2024-09-08T17:33:31.567Z,82015,0.53460693,-0.1408081,0.6590576
1725816811610,2024-09-08T17:33:31.610Z,82058,0.4333496,-0.061706543,0.61450195
1725816811655,2024-09-08T17:33:31.655Z,82103,0.6320801,0.062316895,0.73101807
1725816811700,2024-09-08T17:33:31.700Z,82148,0.9298706,0.0657959,0.75213623
1725816811746,2024-09-08T17:33:31.746Z,82194,0.7415161,-0.07128906,0.33825684
1725816811757,2024-09-08T17:33:31.757Z,82205,0.81073,-0.02545166,0.06976318
1725816811789,2024-09-08T17:33:31.789Z,82237,0.94451904,0.11743164,0.20043945
1725816811835,2024-09-08T17:33:31.835Z,82283,0.9086914,0.15856934,0.32458496
1725816811879,2024-09-08T17:33:31.879Z,82327,1.1889038,0.25494385,0.4534912
1725816811927,2024-09-08T17:33:31.927Z,82375,1.0343018,0.21533203,0.25891113
1725816811973,2024-09-08T17:33:31.973Z,82421,0.71655273,0.2923584,0.038635254
1725816812014,2024-09-08T17:33:32.014Z,82462,0.9737549,0.42590332,0.144104
1725816812062,2024-09-08T17:33:32.062Z,82510,1.091919,0.47265625,0.07751465
1725816812105,2024-09-08T17:33:32.105Z,82553,1.2044678,0.5421753,-0.027404785
1725816812153,2024-09-08T17:33:32.153Z,82601,1.1661377,0.65686035,-0.117004395
1725816812170,2024-09-08T17:33:32.170Z,82618,1.2946777,0.7149658,-0.091674805
1725816812198,2024-09-08T17:33:32.198Z,82646,0.89001465,0.5907593,-0.082458496
1725816812241,2024-09-08T17:33:32.241Z,82689,0.71191406,0.5357666,-0.14520264
1725816812334,2024-09-08T17:33:32.334Z,82782,0.8548584,0.53601074,-0.22814941
1725816812348,2024-09-08T17:33:32.348Z,82796,0.61364746,0.50445557,-0.21282959
1725816812376,2024-09-08T17:33:32.376Z,82824,0.47229004,0.51727295,-0.19927979
1725816812421,2024-09-08T17:33:32.421Z,82869,0.5727539,0.5663452,-0.07733154
1725816812466,2024-09-08T17:33:32.466Z,82914,0.7453613,0.6380005,-0.07293701
1725816812513,2024-09-08T17:33:32.513Z,82961,0.6987915,0.6586914,-0.14916992
1725816812559,2024-09-08T17:33:32.559Z,83007,0.5950928,0.75268555,-0.06414795
1725816812574,2024-09-08T17:33:32.574Z,83022,0.97387695,0.9623413,0.031066895
1725816812600,2024-09-08T17:33:32.600Z,83048,1.0892944,0.9817505,-0.009033203
1725816812645,2024-09-08T17:33:32.645Z,83093,0.9039917,0.8677368,-0.027893066
1725816812692,2024-09-08T17:33:32.692Z,83140,0.61273193,0.7489624,3.6621094E-4
1725816812734,2024-09-08T17:33:32.734Z,83182,0.61242676,0.65771484,0.035217285
1725816812780,2024-09-08T17:33:32.780Z,83228,0.6553345,0.5698242,-0.06695557
1725816812824,2024-09-08T17:33:32.824Z,83272,0.6386719,0.5402832,-0.07348633
1725816812874,2024-09-08T17:33:32.874Z,83322,0.6314087,0.56622314,-0.12896729
1725816812922,2024-09-08T17:33:32.922Z,83370,0.5888672,0.5684204,-0.09954834
1725816812961,2024-09-08T17:33:32.961Z,83409,0.6446533,0.63653564,-0.024597168
1725816813008,2024-09-08T17:33:33.008Z,83456,0.6759033,0.68743896,-0.031311035
1725816813026,2024-09-08T17:33:33.026Z,83474,0.75408936,0.7200928,-0.0045166016
1725816813052,2024-09-08T17:33:33.052Z,83500,0.7960205,0.75213623,0.0063476562
1725816813095,2024-09-08T17:33:33.095Z,83543,0.8678589,0.74609375,-0.017944336
1725816813141,2024-09-08T17:33:33.141Z,83589,0.88183594,0.70477295,-0.053771973
1725816813234,2024-09-08T17:33:33.234Z,83682,0.8629761,0.6704712,-0.059814453
1725816813250,2024-09-08T17:33:33.250Z,83698,0.69000244,0.65631104,-0.0390625
1725816813275,2024-09-08T17:33:33.275Z,83723,0.6470337,0.67456055,-0.0390625
1725816813321,2024-09-08T17:33:33.321Z,83769,0.6869507,0.67059326,-0.05480957
1725816813367,2024-09-08T17:33:33.367Z,83815,0.6689453,0.64471436,-0.023132324
1725816813412,2024-09-08T17:33:33.412Z,83860,0.67736816,0.62731934,-0.079833984
1725816813427,2024-09-08T17:33:33.427Z,83875,0.6094971,0.63305664,-0.08691406
1725816813456,2024-09-08T17:33:33.456Z,83904,0.7877197,0.6422119,-0.042419434
1725816813501,2024-09-08T17:33:33.501Z,83949,0.88879395,0.6323242,-0.12365723
1725816813546,2024-09-08T17:33:33.546Z,83994,0.8659668,0.6176758,-0.14233398
1725816813590,2024-09-08T17:33:33.590Z,84038,0.8356323,0.61779785,-0.12890625
1725816813635,2024-09-08T17:33:33.635Z,84083,0.72351074,0.6364136,-0.008300781
1725816813680,2024-09-08T17:33:33.680Z,84128,0.7053833,0.64416504,0.032226562
1725816813728,2024-09-08T17:33:33.728Z,84176,0.7850342,0.5950928,-0.05682373
1725816813770,2024-09-08T17:33:33.770Z,84218,0.7520752,0.56811523,-0.02368164
1725816813818,2024-09-08T17:33:33.818Z,84266,0.7391968,0.5753784,-0.026977539
1725816813830,2024-09-08T17:33:33.830Z,84278,0.78027344,0.6088257,-0.1060791
1725816813859,2024-09-08T17:33:33.859Z,84307,0.8461914,0.6535034,-0.054016113
1725816813907,2024-09-08T17:33:33.907Z,84355,0.8074341,0.6534424,-0.0748291
1725816813952,2024-09-08T17:33:33.952Z,84400,0.7453003,0.6168213,-0.07446289
1725816813996,2024-09-08T17:33:33.996Z,84444,0.7764282,0.58117676,-0.07171631
1725816814043,2024-09-08T17:33:34.043Z,84491,0.7906494,0.5780029,-0.05596924
1725816814085,2024-09-08T17:33:34.085Z,84533,0.76257324,0.5880127,-0.086242676
1725816814131,2024-09-08T17:33:34.131Z,84579,0.77459717,0.6156616,-0.112976074
1725816814176,2024-09-08T17:33:34.176Z,84624,0.79907227,0.5985718,-0.10809326
1725816814224,2024-09-08T17:33:34.224Z,84672,0.7965088,0.59198,-0.072753906
1725816814266,2024-09-08T17:33:34.266Z,84714,0.76904297,0.5860596,-0.09655762
1725816814279,2024-09-08T17:33:34.279Z,84727,0.7595215,0.5760498,-0.09100342
1725816814312,2024-09-08T17:33:34.312Z,84760,0.75549316,0.6118164,-0.070007324
1725816814356,2024-09-08T17:33:34.356Z,84804,0.75250244,0.6309204,-0.14385986
1725816814399,2024-09-08T17:33:34.399Z,84847,0.79382324,0.6179199,-0.12615967
1725816814445,2024-09-08T17:33:34.445Z,84893,0.7918091,0.5782471,-0.07800293
1725816814492,2024-09-08T17:33:34.492Z,84940,0.7449341,0.53881836,-0.0871582
1725816814535,2024-09-08T17:33:34.535Z,84983,0.73498535,0.5454712,-0.13568115
1725816814588,2024-09-08T17:33:34.588Z,85036,0.7458496,0.5778198,-0.18621826
1725816814631,2024-09-08T17:33:34.631Z,85079,0.7432251,0.595459,-0.19372559
1725816814673,2024-09-08T17:33:34.673Z,85121,0.91186523,0.67681885,-0.1262207
1725816814686,2024-09-08T17:33:34.686Z,85134,0.84832764,0.684021,-0.15875244
1725816814726,2024-09-08T17:33:34.726Z,85174,0.72717285,0.657959,-0.20300293
1725816814762,2024-09-08T17:33:34.762Z,85210,0.7562866,0.6687622,-0.2088623
1725816814806,2024-09-08T17:33:34.806Z,85254,0.7067261,0.6591797,-0.1817627
1725816814850,2024-09-08T17:33:34.850Z,85298,0.7052002,0.6241455,-0.16845703
1725816814894,2024-09-08T17:33:34.894Z,85342,0.70947266,0.61309814,-0.17608643
1725816814940,2024-09-08T17:33:34.940Z,85388,0.75964355,0.607605,-0.13061523
1725816814987,2024-09-08T17:33:34.987Z,85435,0.79937744,0.6223755,-0.115356445
1725816815031,2024-09-08T17:33:35.031Z,85479,0.75561523,0.6624756,-0.13635254
1725816815078,2024-09-08T17:33:35.078Z,85526,0.72540283,0.6878052,-0.14398193
1725816815093,2024-09-08T17:33:35.093Z,85541,0.7288208,0.6661377,-0.16461182
1725816815119,2024-09-08T17:33:35.119Z,85567,0.71606445,0.6536255,-0.15765381
1725816815172,2024-09-08T17:33:35.172Z,85620,0.72558594,0.649292,-0.13793945
1725816815211,2024-09-08T17:33:35.211Z,85659,0.70825195,0.64331055,-0.15161133
1725816815302,2024-09-08T17:33:35.302Z,85750,0.7022095,0.6442261,-0.16101074
1725816815317,2024-09-08T17:33:35.317Z,85765,0.7145996,0.65448,-0.14007568
1725816815345,2024-09-08T17:33:35.345Z,85793,0.6930542,0.65270996,-0.13879395
1725816815398,2024-09-08T17:33:35.398Z,85846,0.6746216,0.63513184,-0.13189697
1725816815437,2024-09-08T17:33:35.437Z,85885,0.64660645,0.6220703,-0.13287354
1725816815481,2024-09-08T17:33:35.481Z,85929,0.67041016,0.66052246,-0.13311768
1725816815532,2024-09-08T17:33:35.532Z,85980,0.7327881,0.7265625,-0.109802246
1725816815546,2024-09-08T17:33:35.546Z,85994,0.67077637,0.743042,-0.1116333
1725816815569,2024-09-08T17:33:35.569Z,86017,0.67163086,0.7713623,-0.1171875
1725816815616,2024-09-08T17:33:35.616Z,86064,0.69140625,0.7994385,-0.13250732
1725816815661,2024-09-08T17:33:35.661Z,86109,0.6212158,0.8376465,-0.13897705
1725816815705,2024-09-08T17:33:35.705Z,86153,0.6595459,0.84906006,-0.089904785
1725816815759,2024-09-08T17:33:35.759Z,86207,0.61798096,0.80267334,-0.10357666
1725816815794,2024-09-08T17:33:35.794Z,86242,0.6022339,0.78552246,-0.10772705
1725816815842,2024-09-08T17:33:35.842Z,86290,0.63067627,0.7788696,-0.10223389
1725816815886,2024-09-08T17:33:35.886Z,86334,0.62854004,0.77215576,-0.11004639
1725816815933,2024-09-08T17:33:35.933Z,86381,0.6096802,0.7648926,-0.106933594
1725816815950,2024-09-08T17:33:35.950Z,86398,0.6047363,0.76361084,-0.117126465
1725816815978,2024-09-08T17:33:35.978Z,86426,0.6099243,0.7706909,-0.10107422
1725816816022,2024-09-08T17:33:36.022Z,86470,0.6035156,0.7741699,-0.112976074
1725816816068,2024-09-08T17:33:36.068Z,86516,0.5996094,0.77874756,-0.12677002
1725816816111,2024-09-08T17:33:36.111Z,86559,0.6064453,0.80181885,-0.097595215
1725816816155,2024-09-08T17:33:36.155Z,86603,0.6001587,0.8043213,-0.11126709
1725816816200,2024-09-08T17:33:36.200Z,86648,0.5977783,0.79748535,-0.10888672
1725816816295,2024-09-08T17:33:36.295Z,86743,0.5938721,0.7833252,-0.113098145
1725816816307,2024-09-08T17:33:36.307Z,86755,0.6088257,0.78063965,-0.10656738
1725816816356,2024-09-08T17:33:36.356Z,86804,0.6211548,0.7984009,-0.11755371
1725816816368,2024-09-08T17:33:36.368Z,86816,0.5977173,0.81451416,-0.11004639
1725816816382,2024-09-08T17:33:36.382Z,86830,0.5697632,0.81359863,-0.10253906
1725816816426,2024-09-08T17:33:36.426Z,86874,0.5899658,0.80023193,-0.11242676
1725816816472,2024-09-08T17:33:36.472Z,86920,0.5880127,0.7944946,-0.11242676
1725816816515,2024-09-08T17:33:36.515Z,86963,0.5793457,0.795105,-0.10455322
1725816816564,2024-09-08T17:33:36.564Z,87012,0.5905762,0.79608154,-0.09991455
1725816816605,2024-09-08T17:33:36.605Z,87053,0.5895996,0.7922363,-0.101379395
1725816816649,2024-09-08T17:33:36.649Z,87097,0.58966064,0.798584,-0.103393555
1725816816744,2024-09-08T17:33:36.744Z,87192,0.5934448,0.8024292,-0.10308838
1725816816758,2024-09-08T17:33:36.758Z,87206,0.5861206,0.8009033,-0.10021973
1725816816798,2024-09-08T17:33:36.798Z,87246,0.5858154,0.8048096,-0.10272217
1725816816810,2024-09-08T17:33:36.810Z,87258,0.5814209,0.8088379,-0.11859131
1725816816831,2024-09-08T17:33:36.831Z,87279,0.58709717,0.8129883,-0.09863281
1725816816876,2024-09-08T17:33:36.876Z,87324,0.6040039,0.79730225,-0.06982422
1725816816927,2024-09-08T17:33:36.927Z,87375,0.5830078,0.7886963,-0.11236572
1725816816964,2024-09-08T17:33:36.964Z,87412,0.5708618,0.79345703,-0.11621094
1725816817012,2024-09-08T17:33:37.012Z,87460,0.574646,0.7993164,-0.1239624
1725816817055,2024-09-08T17:33:37.055Z,87503,0.578125,0.80688477,-0.1126709
1725816817102,2024-09-08T17:33:37.102Z,87550,0.572876,0.80944824,-0.09503174
1725816817148,2024-09-08T17:33:37.148Z,87596,0.58288574,0.81500244,-0.109313965
1725816817190,2024-09-08T17:33:37.190Z,87638,0.5856323,0.8111572,-0.10662842
1725816817204,2024-09-08T17:33:37.204Z,87652,0.5860596,0.79852295,-0.105407715
1725816817236,2024-09-08T17:33:37.236Z,87684,0.58447266,0.79992676,-0.11260986
1725816817281,2024-09-08T17:33:37.281Z,87729,0.57592773,0.8048096,-0.11224365
1725816817325,2024-09-08T17:33:37.325Z,87773,0.57318115,0.8128052,-0.107177734
1725816817371,2024-09-08T17:33:37.371Z,87819,0.5737915,0.81658936,-0.111083984
1725816817416,2024-09-08T17:33:37.416Z,87864,0.5725708,0.8178711,-0.11126709
1725816817462,2024-09-08T17:33:37.462Z,87910,0.5753784,0.81622314,-0.11468506
