Timestamp (ms),ISO DateTime,Elapsed Time (ms),Acceleration X,Acceleration Y,Acceleration Z
1735320998709,2024-12-27T17:36:38.709Z,18209,-0.038513184,-0.11645508,-0.012634277
1735320998793,2024-12-27T17:36:38.793Z,18293,-0.03881836,-0.11663818,-0.012329102
1735320998810,2024-12-27T17:36:38.810Z,18310,-0.0390625,-0.11694336,-0.012145996
1735320998825,2024-12-27T17:36:38.825Z,18325,-0.0390625,-0.11669922,-0.012451172
1735320998840,2024-12-27T17:36:38.840Z,18340,-0.038757324,-0.1159668,-0.012390137
1735320998853,2024-12-27T17:36:38.853Z,18353,-0.03942871,-0.11639404,-0.012084961
1735320998865,2024-12-27T17:36:38.865Z,18365,-0.040527344,-0.11645508,-0.012451172
1735320998875,2024-12-27T17:36:38.875Z,18375,-0.039855957,-0.11633301,-0.012145996
1735320998886,2024-12-27T17:36:38.886Z,18386,-0.03942871,-0.1161499,-0.012634277
1735320998896,2024-12-27T17:36:38.896Z,18396,-0.03930664,-0.11645508,-0.012817383
1735320998906,2024-12-27T17:36:38.906Z,18406,-0.03857422,-0.11682129,-0.0134887695
1735320998914,2024-12-27T17:36:38.914Z,18414,-0.038208008,-0.11694336,-0.01361084
1735320998922,2024-12-27T17:36:38.922Z,18422,-0.038391113,-0.11627197,-0.012023926
1735320998932,2024-12-27T17:36:38.932Z,18432,-0.039489746,-0.1161499,-0.011413574
1735320998941,2024-12-27T17:36:38.941Z,18441,-0.039245605,-0.11633301,-0.01184082
1735320998949,2024-12-27T17:36:38.949Z,18449,-0.038085938,-0.11627197,-0.012145996
1735320998958,2024-12-27T17:36:38.958Z,18458,-0.038024902,-0.11663818,-0.0119018555
1735320998967,2024-12-27T17:36:38.967Z,18467,-0.038085938,-0.116882324,-0.012512207
1735320998975,2024-12-27T17:36:38.975Z,18475,-0.037475586,-0.11682129,-0.012573242
1735320998983,2024-12-27T17:36:38.983Z,18483,-0.037475586,-0.116760254,-0.0126953125
1735320998991,2024-12-27T17:36:38.991Z,18491,-0.038391113,-0.11663818,-0.012939453
1735320998999,2024-12-27T17:36:38.999Z,18499,-0.038269043,-0.117126465,-0.013793945
1735320999008,2024-12-27T17:36:39.008Z,18508,-0.037963867,-0.1171875,-0.013244629
1735320999015,2024-12-27T17:36:39.015Z,18515,-0.039001465,-0.11730957,-0.013061523
1735320999024,2024-12-27T17:36:39.024Z,18524,-0.039367676,-0.11755371,-0.012939453
1735320999032,2024-12-27T17:36:39.032Z,18532,-0.03942871,-0.117248535,-0.012756348
1735320999040,2024-12-27T17:36:39.040Z,18540,-0.039123535,-0.11706543,-0.012329102
1735320999049,2024-12-27T17:36:39.049Z,18549,-0.039001465,-0.117248535,-0.0126953125
1735320999060,2024-12-27T17:36:39.060Z,18560,-0.03869629,-0.11785889,-0.014099121
1735320999068,2024-12-27T17:36:39.068Z,18568,-0.037841797,-0.11779785,-0.013427734
1735320999076,2024-12-27T17:36:39.076Z,18576,-0.038085938,-0.11743164,-0.013122559
1735320999083,2024-12-27T17:36:39.083Z,18583,-0.038269043,-0.11773682,-0.013122559
1735320999091,2024-12-27T17:36:39.091Z,18591,-0.038146973,-0.11779785,-0.012329102
1735320999099,2024-12-27T17:36:39.099Z,18599,-0.038635254,-0.11773682,-0.012390137
1735320999110,2024-12-27T17:36:39.110Z,18610,-0.03717041,-0.117614746,-0.012207031
1735320999118,2024-12-27T17:36:39.118Z,18618,-0.037353516,-0.11773682,-0.0119018555
1735320999127,2024-12-27T17:36:39.127Z,18627,-0.038879395,-0.117614746,-0.01159668
1735320999136,2024-12-27T17:36:39.136Z,18636,-0.038024902,-0.11798096,-0.012145996
1735320999146,2024-12-27T17:36:39.146Z,18646,-0.03668213,-0.11859131,-0.012512207
1735320999159,2024-12-27T17:36:39.159Z,18659,-0.03692627,-0.11853027,-0.012451172
1735320999168,2024-12-27T17:36:39.168Z,18668,-0.037902832,-0.1184082,-0.011962891
1735320999178,2024-12-27T17:36:39.178Z,18678,-0.03869629,-0.11834717,-0.012512207
1735320999188,2024-12-27T17:36:39.188Z,18688,-0.03845215,-0.11859131,-0.0134887695
1735320999199,2024-12-27T17:36:39.199Z,18699,-0.038146973,-0.119384766,-0.012939453
1735320999209,2024-12-27T17:36:39.209Z,18709,-0.039855957,-0.12011719,-0.013427734
1735320999219,2024-12-27T17:36:39.219Z,18719,-0.041625977,-0.12072754,-0.0138549805
1735320999230,2024-12-27T17:36:39.230Z,18730,-0.04144287,-0.12145996,-0.014038086
1735320999239,2024-12-27T17:36:39.239Z,18739,-0.04156494,-0.12194824,-0.014587402
1735320999248,2024-12-27T17:36:39.248Z,18748,-0.042785645,-0.123168945,-0.015686035
1735320999257,2024-12-27T17:36:39.257Z,18757,-0.043701172,-0.12475586,-0.015991211
1735320999266,2024-12-27T17:36:39.266Z,18766,-0.045532227,-0.12561035,-0.015625
1735320999275,2024-12-27T17:36:39.275Z,18775,-0.047546387,-0.12683105,-0.01550293
1735320999284,2024-12-27T17:36:39.284Z,18784,-0.04937744,-0.12786865,-0.015686035
1735320999294,2024-12-27T17:36:39.294Z,18794,-0.04736328,-0.12750244,-0.016723633
1735320999303,2024-12-27T17:36:39.303Z,18803,-0.043151855,-0.12908936,-0.015991211
1735320999313,2024-12-27T17:36:39.313Z,18813,-0.04650879,-0.12927246,-0.013366699
1735320999321,2024-12-27T17:36:39.321Z,18821,-0.05114746,-0.12890625,-0.013244629
1735320999331,2024-12-27T17:36:39.331Z,18831,-0.04748535,-0.12890625,-0.014770508
1735320999341,2024-12-27T17:36:39.341Z,18841,-0.043762207,-0.12945557,-0.013916016
1735320999350,2024-12-27T17:36:39.350Z,18850,-0.045959473,-0.12866211,-0.01361084
1735320999361,2024-12-27T17:36:39.361Z,18861,-0.044921875,-0.12878418,-0.013122559
1735320999370,2024-12-27T17:36:39.370Z,18870,-0.044433594,-0.12805176,-0.008728027
1735320999378,2024-12-27T17:36:39.378Z,18878,-0.049804688,-0.12652588,-0.009643555
1735320999421,2024-12-27T17:36:39.421Z,18921,-0.04650879,-0.12817383,-0.012023926
1735320999431,2024-12-27T17:36:39.431Z,18931,-0.04547119,-0.12945557,-0.0138549805
1735320999439,2024-12-27T17:36:39.439Z,18939,-0.049987793,-0.13049316,-0.01550293
1735320999511,2024-12-27T17:36:39.511Z,19011,-0.050476074,-0.13153076,-0.016723633
1735320999519,2024-12-27T17:36:39.519Z,19019,-0.04937744,-0.13134766,-0.017578125
1735320999529,2024-12-27T17:36:39.529Z,19029,-0.049621582,-0.13085938,-0.017089844
1735320999539,2024-12-27T17:36:39.539Z,19039,-0.052490234,-0.13049316,-0.014770508
1735320999548,2024-12-27T17:36:39.548Z,19048,-0.051208496,-0.13000488,-0.010925293
1735320999557,2024-12-27T17:36:39.557Z,19057,-0.049865723,-0.12762451,-0.00982666
1735320999566,2024-12-27T17:36:39.566Z,19066,-0.05126953,-0.1272583,-0.012145996
1735320999575,2024-12-27T17:36:39.575Z,19075,-0.04626465,-0.12878418,-0.012023926
1735320999584,2024-12-27T17:36:39.584Z,19084,-0.044189453,-0.12945557,-0.014892578
1735320999593,2024-12-27T17:36:39.593Z,19093,-0.044067383,-0.12890625,-0.01361084
1735320999602,2024-12-27T17:36:39.602Z,19102,-0.04626465,-0.1274414,-0.009277344
1735320999611,2024-12-27T17:36:39.611Z,19111,-0.05126953,-0.1262207,-0.008178711
1735320999616,2024-12-27T17:36:39.616Z,19116,-0.05090332,-0.12133789,-0.009399414
1735320999653,2024-12-27T17:36:39.653Z,19153,-0.049743652,-0.120788574,-0.015136719
1735320999664,2024-12-27T17:36:39.664Z,19164,-0.04534912,-0.123168945,-0.02130127
1735320999673,2024-12-27T17:36:39.673Z,19173,-0.04724121,-0.12390137,-0.020690918
1735320999682,2024-12-27T17:36:39.682Z,19182,-0.057006836,-0.12164307,-0.017089844
1735320999692,2024-12-27T17:36:39.692Z,19192,-0.064941406,-0.12121582,-0.012756348
1735320999700,2024-12-27T17:36:39.700Z,19200,-0.06585693,-0.12054443,-0.012268066
1735320999709,2024-12-27T17:36:39.709Z,19209,-0.06286621,-0.1204834,-0.01373291
1735320999717,2024-12-27T17:36:39.717Z,19217,-0.059692383,-0.121154785,-0.015808105
1735320999728,2024-12-27T17:36:39.728Z,19228,-0.053222656,-0.12194824,-0.019165039
1735320999737,2024-12-27T17:36:39.737Z,19237,-0.049682617,-0.122924805,-0.020202637
1735320999746,2024-12-27T17:36:39.746Z,19246,-0.047729492,-0.12261963,-0.01953125
1735320999755,2024-12-27T17:36:39.755Z,19255,-0.06060791,-0.111206055,-0.009033203
1735320999764,2024-12-27T17:36:39.764Z,19264,-0.05303955,-0.11291504,-0.012878418
1735320999773,2024-12-27T17:36:39.773Z,19273,-0.051940918,-0.11212158,-0.013244629
1735320999782,2024-12-27T17:36:39.782Z,19282,-0.059509277,-0.11047363,-0.008361816
1735320999790,2024-12-27T17:36:39.790Z,19290,-0.06555176,-0.109436035,-0.007751465
1735320999828,2024-12-27T17:36:39.828Z,19328,-0.06451416,-0.111083984,-0.022033691
1735320999836,2024-12-27T17:36:39.836Z,19336,-0.049987793,-0.1161499,-0.02520752
1735320999845,2024-12-27T17:36:39.845Z,19345,-0.059753418,-0.11053467,-0.013671875
1735320999853,2024-12-27T17:36:39.853Z,19353,-0.07574463,-0.1060791,-0.020385742
1735320999862,2024-12-27T17:36:39.862Z,19362,-0.064819336,-0.107910156,-0.02130127
1735320999874,2024-12-27T17:36:39.874Z,19374,-0.0647583,-0.10864258,-0.014831543
1735320999883,2024-12-27T17:36:39.883Z,19383,-0.07434082,-0.10845947,-0.010009766
1735320999892,2024-12-27T17:36:39.892Z,19392,-0.07556152,-0.105895996,-0.012817383
1735320999901,2024-12-27T17:36:39.901Z,19401,-0.06549072,-0.10870361,-0.018798828
1735320999909,2024-12-27T17:36:39.909Z,19409,-0.05621338,-0.1105957,-0.020507812
1735320999919,2024-12-27T17:36:39.919Z,19419,-0.06390381,-0.105407715,-0.013366699
1735320999928,2024-12-27T17:36:39.928Z,19428,-0.074035645,-0.103271484,-0.012634277
1735320999932,2024-12-27T17:36:39.932Z,19432,-0.0703125,-0.10272217,-0.010131836
1735320999941,2024-12-27T17:36:39.941Z,19441,-0.06970215,-0.101989746,-0.008178711
1735320999964,2024-12-27T17:36:39.964Z,19464,-0.07244873,-0.1003418,-0.0068969727
1735320999974,2024-12-27T17:36:39.974Z,19474,-0.0725708,-0.1015625,-0.012268066
1735320999983,2024-12-27T17:36:39.983Z,19483,-0.06707764,-0.10668945,-0.022644043
1735320999992,2024-12-27T17:36:39.992Z,19492,-0.056640625,-0.10797119,-0.02331543
1735321000001,2024-12-27T17:36:40.001Z,19501,-0.060791016,-0.10437012,-0.016052246
1735321000009,2024-12-27T17:36:40.009Z,19509,-0.07751465,-0.10241699,-0.011352539
1735321000019,2024-12-27T17:36:40.019Z,19519,-0.08343506,-0.1003418,-0.0048828125
1735321000028,2024-12-27T17:36:40.028Z,19528,-0.08123779,-0.09851074,-0.0064697266
1735321000036,2024-12-27T17:36:40.036Z,19536,-0.07470703,-0.10076904,-0.012451172
1735321000045,2024-12-27T17:36:40.045Z,19545,-0.06738281,-0.10369873,-0.024169922
1735321000054,2024-12-27T17:36:40.054Z,19554,-0.061523438,-0.10900879,-0.023864746
1735321000097,2024-12-27T17:36:40.097Z,19597,-0.070251465,-0.10656738,-0.018249512
1735321000101,2024-12-27T17:36:40.101Z,19601,-0.076538086,-0.10479736,-0.020751953
1735321000110,2024-12-27T17:36:40.110Z,19610,-0.072509766,-0.10217285,-0.012817383
1735321000119,2024-12-27T17:36:40.119Z,19619,-0.07727051,-0.099243164,-0.012207031
1735321000128,2024-12-27T17:36:40.128Z,19628,-0.076293945,-0.10296631,-0.011657715
1735321000137,2024-12-27T17:36:40.137Z,19637,-0.072143555,-0.1015625,-0.01550293
1735321000146,2024-12-27T17:36:40.146Z,19646,-0.06817627,-0.10070801,-0.02331543
1735321000155,2024-12-27T17:36:40.155Z,19655,-0.06201172,-0.10455322,-0.028259277
1735321000163,2024-12-27T17:36:40.163Z,19663,-0.05987549,-0.105529785,-0.026855469
1735321000172,2024-12-27T17:36:40.172Z,19672,-0.06591797,-0.103759766,-0.021118164
1735321000180,2024-12-27T17:36:40.180Z,19680,-0.07348633,-0.10058594,-0.016296387
1735321000189,2024-12-27T17:36:40.189Z,19689,-0.07531738,-0.09857178,-0.017150879
1735321000198,2024-12-27T17:36:40.198Z,19698,-0.059570312,-0.099609375,-0.025756836
1735321000207,2024-12-27T17:36:40.207Z,19707,-0.056152344,-0.101257324,-0.030090332
1735321000214,2024-12-27T17:36:40.214Z,19714,-0.06903076,-0.09906006,-0.027282715
1735321000220,2024-12-27T17:36:40.220Z,19720,-0.07513428,-0.09674072,-0.020263672
1735321000231,2024-12-27T17:36:40.231Z,19731,-0.06933594,-0.09454346,-0.016967773
1735321000237,2024-12-27T17:36:40.237Z,19737,-0.064819336,-0.09362793,-0.013793945
1735321000244,2024-12-27T17:36:40.244Z,19744,-0.058532715,-0.09686279,-0.021911621
1735321000252,2024-12-27T17:36:40.252Z,19752,-0.054626465,-0.09857178,-0.031799316
1735321000260,2024-12-27T17:36:40.260Z,19760,-0.053466797,-0.10357666,-0.037963867
1735321000267,2024-12-27T17:36:40.267Z,19767,-0.059631348,-0.101989746,-0.036499023
1735321000280,2024-12-27T17:36:40.280Z,19780,-0.06951904,-0.09649658,-0.033691406
1735321000321,2024-12-27T17:36:40.321Z,19821,-0.064941406,-0.101989746,-0.027160645
1735321000372,2024-12-27T17:36:40.372Z,19872,-0.061584473,-0.10107422,-0.015136719
1735321000380,2024-12-27T17:36:40.380Z,19880,-0.06286621,-0.09698486,-0.014099121
1735321000388,2024-12-27T17:36:40.388Z,19888,-0.05871582,-0.10028076,-0.025756836
1735321000396,2024-12-27T17:36:40.396Z,19896,-0.05328369,-0.1038208,-0.03186035
1735321000405,2024-12-27T17:36:40.405Z,19905,-0.06555176,-0.10418701,-0.03869629
1735321000412,2024-12-27T17:36:40.412Z,19912,-0.061401367,-0.10498047,-0.033996582
1735321000502,2024-12-27T17:36:40.502Z,20002,-0.05340576,-0.09942627,-0.028015137
1735321000510,2024-12-27T17:36:40.510Z,20010,-0.050476074,-0.099365234,-0.024597168
1735321000518,2024-12-27T17:36:40.518Z,20018,-0.050964355,-0.1026001,-0.02557373
1735321000526,2024-12-27T17:36:40.526Z,20026,-0.052246094,-0.10180664,-0.01574707
1735321000533,2024-12-27T17:36:40.533Z,20033,-0.05102539,-0.09851074,-0.013916016
1735321000541,2024-12-27T17:36:40.541Z,20041,-0.053466797,-0.10424805,-0.020385742
1735321000552,2024-12-27T17:36:40.552Z,20052,-0.03869629,-0.09692383,-0.020874023
1735321000559,2024-12-27T17:36:40.559Z,20059,-0.030944824,-0.09539795,-0.01977539
1735321000566,2024-12-27T17:36:40.566Z,20066,-0.03765869,-0.09552002,-0.018066406
1735321000574,2024-12-27T17:36:40.574Z,20074,-0.0446167,-0.097961426,-0.0234375
1735321000590,2024-12-27T17:36:40.590Z,20090,-0.033203125,-0.103881836,-0.024414062
1735321000597,2024-12-27T17:36:40.597Z,20097,-0.016906738,-0.10180664,-0.01739502
1735321000600,2024-12-27T17:36:40.600Z,20100,-0.014282227,-0.11450195,-0.023925781
1735321000608,2024-12-27T17:36:40.608Z,20108,-0.02142334,-0.10827637,-0.019165039
1735321000615,2024-12-27T17:36:40.615Z,20115,-0.034362793,-0.104003906,-0.020629883
1735321000640,2024-12-27T17:36:40.640Z,20140,-0.025146484,-0.1003418,-0.01574707
1735321000647,2024-12-27T17:36:40.647Z,20147,-0.022460938,-0.101135254,-0.019958496
1735321000656,2024-12-27T17:36:40.656Z,20156,-0.018737793,-0.10961914,-0.020141602
1735321000664,2024-12-27T17:36:40.664Z,20164,-0.023925781,-0.1071167,-0.01965332
1735321000671,2024-12-27T17:36:40.671Z,20171,-0.026062012,-0.11053467,-0.023925781
1735321000681,2024-12-27T17:36:40.681Z,20181,-0.013000488,-0.11639404,-0.01574707
1735321000689,2024-12-27T17:36:40.689Z,20189,-0.015991211,-0.10925293,-0.0154418945
1735321000696,2024-12-27T17:36:40.696Z,20196,-0.018005371,-0.10498047,-0.022033691
1735321000702,2024-12-27T17:36:40.702Z,20202,-0.016113281,-0.107543945,-0.022399902
1735321000711,2024-12-27T17:36:40.711Z,20211,-0.018554688,-0.11065674,-0.018920898
1735321000720,2024-12-27T17:36:40.720Z,20220,-0.024475098,-0.11395264,-0.026367188
1735321000730,2024-12-27T17:36:40.730Z,20230,-0.019226074,-0.11846924,-0.031188965
1735321000738,2024-12-27T17:36:40.738Z,20238,-0.015319824,-0.11730957,-0.026611328
1735321000746,2024-12-27T17:36:40.746Z,20246,-0.016113281,-0.11218262,-0.023254395
1735321000753,2024-12-27T17:36:40.753Z,20253,-0.016662598,-0.10748291,-0.022644043
1735321000761,2024-12-27T17:36:40.761Z,20261,-0.013000488,-0.107910156,-0.019104004
1735321000772,2024-12-27T17:36:40.772Z,20272,-0.0029907227,-0.11315918,-0.014160156
1735321000779,2024-12-27T17:36:40.779Z,20279,-0.012084961,-0.11608887,-0.018432617
1735321000787,2024-12-27T17:36:40.787Z,20287,-0.024597168,-0.115478516,-0.026306152
1735321000795,2024-12-27T17:36:40.795Z,20295,-0.023986816,-0.1161499,-0.030090332
1735321000803,2024-12-27T17:36:40.803Z,20303,-0.013244629,-0.118774414,-0.022949219
1735321000811,2024-12-27T17:36:40.811Z,20311,-0.014038086,-0.11462402,-0.024353027
1735321000819,2024-12-27T17:36:40.819Z,20319,-0.011352539,-0.11047363,-0.022155762
1735321000827,2024-12-27T17:36:40.827Z,20327,-0.012268066,-0.10913086,-0.021057129
1735321000835,2024-12-27T17:36:40.835Z,20335,-0.011169434,-0.1171875,-0.015197754
1735321000844,2024-12-27T17:36:40.844Z,20344,-0.011352539,-0.12011719,-0.015014648
1735321000852,2024-12-27T17:36:40.852Z,20352,-0.024475098,-0.11462402,-0.024536133
1735321000861,2024-12-27T17:36:40.861Z,20361,-0.020202637,-0.11657715,-0.02734375
1735321000869,2024-12-27T17:36:40.869Z,20369,-0.010925293,-0.1204834,-0.026916504
1735321000876,2024-12-27T17:36:40.876Z,20376,-0.007446289,-0.11993408,-0.025268555
1735321000884,2024-12-27T17:36:40.884Z,20384,-0.010192871,-0.11663818,-0.021362305
1735321000891,2024-12-27T17:36:40.891Z,20391,-0.012207031,-0.11578369,-0.022888184
1735321000899,2024-12-27T17:36:40.899Z,20399,-0.009460449,-0.116882324,-0.017822266
1735321000912,2024-12-27T17:36:40.912Z,20412,-0.010925293,-0.11810303,-0.010314941
1735321000919,2024-12-27T17:36:40.919Z,20419,-0.017822266,-0.120910645,-0.017333984
1735321000930,2024-12-27T17:36:40.930Z,20430,-0.023498535,-0.12121582,-0.024963379
1735321000937,2024-12-27T17:36:40.937Z,20437,-0.011474609,-0.12408447,-0.022583008
1735321000950,2024-12-27T17:36:40.950Z,20450,-0.0018920898,-0.12445068,-0.022216797
1735321000958,2024-12-27T17:36:40.958Z,20458,-0.0126953125,-0.1161499,-0.02545166
1735321000969,2024-12-27T17:36:40.969Z,20469,-0.013793945,-0.11669922,-0.01940918
1735321000978,2024-12-27T17:36:40.978Z,20478,-0.010498047,-0.123046875,-0.012268066
1735321000996,2024-12-27T17:36:40.996Z,20496,-0.01727295,-0.12408447,-0.010192871
1735321001005,2024-12-27T17:36:41.005Z,20505,-0.016113281,-0.121520996,-0.020324707
1735321001019,2024-12-27T17:36:41.019Z,20519,-0.00970459,-0.12054443,-0.022094727
1735321001026,2024-12-27T17:36:41.026Z,20526,-0.012512207,-0.11785889,-0.025390625
1735321001034,2024-12-27T17:36:41.034Z,20534,-0.0115356445,-0.11895752,-0.026733398
1735321001043,2024-12-27T17:36:41.043Z,20543,-0.0059814453,-0.119140625,-0.019226074
1735321001051,2024-12-27T17:36:41.051Z,20551,-0.010559082,-0.11999512,-0.010437012
1735321001059,2024-12-27T17:36:41.059Z,20559,-0.014587402,-0.12042236,-0.01171875
1735321001066,2024-12-27T17:36:41.066Z,20566,-0.012268066,-0.12017822,-0.012451172
1735321001085,2024-12-27T17:36:41.085Z,20585,-0.012390137,-0.118652344,-0.012634277
1735321001094,2024-12-27T17:36:41.094Z,20594,-0.014160156,-0.11859131,-0.02142334
1735321001101,2024-12-27T17:36:41.101Z,20601,-0.015075684,-0.118652344,-0.026611328
1735321001108,2024-12-27T17:36:41.108Z,20608,-0.00390625,-0.1184082,-0.02154541
1735321001115,2024-12-27T17:36:41.115Z,20615,-0.004211426,-0.116882324,-0.017211914
1735321001130,2024-12-27T17:36:41.130Z,20630,-0.010192871,-0.11419678,-0.0138549805
1735321001138,2024-12-27T17:36:41.138Z,20638,-0.009033203,-0.117492676,-0.0115356445
1735321001147,2024-12-27T17:36:41.147Z,20647,-0.011352539,-0.12084961,-0.012512207
1735321001156,2024-12-27T17:36:41.156Z,20656,-0.013977051,-0.12097168,-0.013061523
1735321001176,2024-12-27T17:36:41.176Z,20676,-0.009887695,-0.11981201,-0.014404297
1735321001185,2024-12-27T17:36:41.185Z,20685,-0.009216309,-0.11999512,-0.019104004
1735321001192,2024-12-27T17:36:41.192Z,20692,-0.013000488,-0.12298584,-0.020263672
1735321001200,2024-12-27T17:36:41.200Z,20700,-0.011169434,-0.12231445,-0.016479492
1735321001209,2024-12-27T17:36:41.209Z,20709,-0.009765625,-0.121398926,-0.011962891
1735321001221,2024-12-27T17:36:41.221Z,20721,-0.007751465,-0.12237549,-0.006164551
1735321001229,2024-12-27T17:36:41.229Z,20729,-0.006958008,-0.1227417,-0.0068969727
1735321001236,2024-12-27T17:36:41.236Z,20736,-0.0057373047,-0.12072754,-0.009094238
1735321001243,2024-12-27T17:36:41.243Z,20743,-0.00793457,-0.11956787,-0.013244629
1735321001312,2024-12-27T17:36:41.312Z,20812,-0.013061523,-0.12109375,-0.017944336
1735321001318,2024-12-27T17:36:41.318Z,20818,-0.011352539,-0.12164307,-0.01574707
1735321001325,2024-12-27T17:36:41.325Z,20825,-0.008361816,-0.12042236,-0.013183594
1735321001334,2024-12-27T17:36:41.334Z,20834,-0.007080078,-0.11968994,-0.008178711
1735321001357,2024-12-27T17:36:41.357Z,20857,-0.0065307617,-0.1194458,-0.005432129
1735321001365,2024-12-27T17:36:41.365Z,20865,-0.008178711,-0.12011719,-0.0021972656
1735321001374,2024-12-27T17:36:41.374Z,20874,-0.008178711,-0.121276855,-0.0020751953
1735321001384,2024-12-27T17:36:41.384Z,20884,-0.0075683594,-0.11987305,-0.0076904297
1735321001391,2024-12-27T17:36:41.391Z,20891,-0.0068969727,-0.118652344,-0.011047363
1735321001400,2024-12-27T17:36:41.400Z,20900,-0.0052490234,-0.119140625,-0.014221191
1735321001407,2024-12-27T17:36:41.407Z,20907,-0.0018920898,-0.12036133,-0.013793945
1735321001414,2024-12-27T17:36:41.414Z,20914,-0.0048828125,-0.11846924,-0.009643555
1735321001422,2024-12-27T17:36:41.422Z,20922,-0.009765625,-0.11566162,-0.0067749023
1735321001430,2024-12-27T17:36:41.430Z,20930,-0.009460449,-0.117248535,-0.0049438477
1735321001437,2024-12-27T17:36:41.437Z,20937,-0.0056152344,-0.12030029,-0.0053710938
1735321001445,2024-12-27T17:36:41.445Z,20945,-0.0052490234,-0.1204834,-0.0059814453
1735321001452,2024-12-27T17:36:41.452Z,20952,-0.0072021484,-0.12060547,-0.008239746
1735321001459,2024-12-27T17:36:41.459Z,20959,-0.0065307617,-0.12097168,-0.009155273
1735321001466,2024-12-27T17:36:41.466Z,20966,-0.007751465,-0.1171875,-0.0072021484
1735321001473,2024-12-27T17:36:41.473Z,20973,-0.010375977,-0.11505127,-0.008239746
1735321001480,2024-12-27T17:36:41.480Z,20980,-0.008056641,-0.11608887,-0.0119018555
1735321001495,2024-12-27T17:36:41.495Z,20995,-0.0026855469,-0.11981201,-0.0073242188
1735321001538,2024-12-27T17:36:41.538Z,21038,-0.0060424805,-0.11975098,-0.008361816
1735321001545,2024-12-27T17:36:41.545Z,21045,-0.008666992,-0.12164307,-0.009521484
1735321001552,2024-12-27T17:36:41.552Z,21052,-0.0079956055,-0.12036133,-0.008239746
1735321001560,2024-12-27T17:36:41.560Z,21060,-0.010314941,-0.11859131,-0.0068359375
1735321001630,2024-12-27T17:36:41.630Z,21130,-0.008605957,-0.119140625,-0.0057373047
1735321001688,2024-12-27T17:36:41.688Z,21188,-0.007446289,-0.11834717,-0.008483887
1735321001705,2024-12-27T17:36:41.705Z,21205,-0.008178711,-0.117614746,-0.009521484
1735321001720,2024-12-27T17:36:41.720Z,21220,-0.010681152,-0.11785889,-0.010009766
1735321001731,2024-12-27T17:36:41.731Z,21231,-0.008239746,-0.119384766,-0.010498047
1735321001741,2024-12-27T17:36:41.741Z,21241,-0.0068969727,-0.118896484,-0.0126953125
1735321001752,2024-12-27T17:36:41.752Z,21252,-0.0057373047,-0.11828613,-0.0107421875
1735321001763,2024-12-27T17:36:41.763Z,21263,-0.005554199,-0.116760254,-0.008178711
1735321001771,2024-12-27T17:36:41.771Z,21271,-0.0060424805,-0.11633301,-0.008178711
1735321001780,2024-12-27T17:36:41.780Z,21280,-0.008483887,-0.11590576,-0.010437012
1735321001788,2024-12-27T17:36:41.788Z,21288,-0.014038086,-0.11621094,-0.015808105
1735321001796,2024-12-27T17:36:41.796Z,21296,-0.012878418,-0.11706543,-0.014953613
1735321001800,2024-12-27T17:36:41.800Z,21300,-0.0057373047,-0.115356445,-0.009277344
1735321001811,2024-12-27T17:36:41.811Z,21311,-0.0178833,-0.11578369,-0.01574707
1735321001819,2024-12-27T17:36:41.819Z,21319,-0.012939453,-0.119506836,-0.009643555
1735321001826,2024-12-27T17:36:41.826Z,21326,-0.00970459,-0.11730957,-0.0107421875
1735321001833,2024-12-27T17:36:41.833Z,21333,-0.007873535,-0.11645508,-0.013671875
1735321001841,2024-12-27T17:36:41.841Z,21341,-0.007385254,-0.11608887,-0.017944336
1735321001850,2024-12-27T17:36:41.850Z,21350,-0.015014648,-0.1116333,-0.01977539
1735321001859,2024-12-27T17:36:41.859Z,21359,-0.01977539,-0.111450195,-0.023986816
1735321001867,2024-12-27T17:36:41.867Z,21367,-0.014038086,-0.115478516,-0.02142334
1735321001875,2024-12-27T17:36:41.875Z,21375,-0.008911133,-0.115478516,-0.01574707
1735321001885,2024-12-27T17:36:41.885Z,21385,-0.014282227,-0.114990234,-0.015808105
1735321001995,2024-12-27T17:36:41.995Z,21495,-0.012145996,-0.11419678,-0.016845703
1735321002005,2024-12-27T17:36:42.005Z,21505,-0.012634277,-0.109375,-0.020629883
1735321002015,2024-12-27T17:36:42.015Z,21515,-0.020690918,-0.10858154,-0.023925781
1735321002037,2024-12-27T17:36:42.037Z,21537,-0.018798828,-0.113220215,-0.022216797
1735321002047,2024-12-27T17:36:42.047Z,21547,-0.015930176,-0.11657715,-0.022583008
1735321002057,2024-12-27T17:36:42.057Z,21557,-0.012939453,-0.11920166,-0.023986816
1735321002066,2024-12-27T17:36:42.066Z,21566,-0.01940918,-0.115478516,-0.024536133
1735321002075,2024-12-27T17:36:42.075Z,21575,-0.022460938,-0.11218262,-0.018005371
1735321002083,2024-12-27T17:36:42.083Z,21583,-0.017578125,-0.11206055,-0.020568848
1735321002090,2024-12-27T17:36:42.090Z,21590,-0.014038086,-0.11627197,-0.02520752
1735321002097,2024-12-27T17:36:42.097Z,21597,-0.02178955,-0.115722656,-0.021850586
1735321002103,2024-12-27T17:36:42.103Z,21603,-0.031555176,-0.121520996,-0.034423828
1735321002110,2024-12-27T17:36:42.110Z,21610,-0.026184082,-0.12371826,-0.02709961
1735321002124,2024-12-27T17:36:42.124Z,21624,-0.03253174,-0.11755371,-0.018493652
1735321002131,2024-12-27T17:36:42.131Z,21631,-0.040649414,-0.1161499,-0.026000977
1735321002138,2024-12-27T17:36:42.138Z,21638,-0.039489746,-0.11242676,-0.03149414
1735321002158,2024-12-27T17:36:42.158Z,21658,-0.03527832,-0.11627197,-0.039245605
1735321002173,2024-12-27T17:36:42.173Z,21673,-0.022766113,-0.121520996,-0.03704834
1735321002184,2024-12-27T17:36:42.184Z,21684,-0.030334473,-0.11791992,-0.030761719
1735321002190,2024-12-27T17:36:42.190Z,21690,-0.03857422,-0.112854004,-0.02709961
1735321002198,2024-12-27T17:36:42.198Z,21698,-0.030639648,-0.11138916,-0.023132324
1735321002205,2024-12-27T17:36:42.205Z,21705,-0.03942871,-0.107177734,-0.022521973
1735321002213,2024-12-27T17:36:42.213Z,21713,-0.047973633,-0.10614014,-0.027160645
1735321002220,2024-12-27T17:36:42.220Z,21720,-0.036193848,-0.10809326,-0.034301758
1735321002227,2024-12-27T17:36:42.227Z,21727,-0.029174805,-0.11022949,-0.040100098
1735321002234,2024-12-27T17:36:42.234Z,21734,-0.0289917,-0.11590576,-0.037475586
1735321002242,2024-12-27T17:36:42.242Z,21742,-0.031677246,-0.11273193,-0.030944824
1735321002252,2024-12-27T17:36:42.252Z,21752,-0.038879395,-0.10662842,-0.022583008
1735321002260,2024-12-27T17:36:42.260Z,21760,-0.043273926,-0.10449219,-0.016235352
1735321002267,2024-12-27T17:36:42.267Z,21767,-0.046203613,-0.103637695,-0.020507812
1735321002274,2024-12-27T17:36:42.274Z,21774,-0.037353516,-0.10784912,-0.028808594
1735321002283,2024-12-27T17:36:42.283Z,21783,-0.035888672,-0.10852051,-0.034973145
1735321002289,2024-12-27T17:36:42.289Z,21789,-0.045959473,-0.10723877,-0.04071045
1735321002298,2024-12-27T17:36:42.298Z,21798,-0.032226562,-0.11077881,-0.04107666
1735321002306,2024-12-27T17:36:42.306Z,21806,-0.020690918,-0.11303711,-0.028747559
1735321002314,2024-12-27T17:36:42.314Z,21814,-0.044006348,-0.107788086,-0.020019531
1735321002321,2024-12-27T17:36:42.321Z,21821,-0.05419922,-0.105163574,-0.024475098
1735321002329,2024-12-27T17:36:42.329Z,21829,-0.043151855,-0.10583496,-0.030700684
1735321002337,2024-12-27T17:36:42.337Z,21837,-0.040222168,-0.10949707,-0.03277588
1735321002344,2024-12-27T17:36:42.344Z,21844,-0.03845215,-0.11328125,-0.03479004
1735321002351,2024-12-27T17:36:42.351Z,21851,-0.04071045,-0.111572266,-0.03137207
1735321002360,2024-12-27T17:36:42.360Z,21860,-0.042541504,-0.11004639,-0.027648926
1735321002366,2024-12-27T17:36:42.366Z,21866,-0.040649414,-0.1083374,-0.026672363
1735321002372,2024-12-27T17:36:42.372Z,21872,-0.039245605,-0.10723877,-0.028503418
1735321002379,2024-12-27T17:36:42.379Z,21879,-0.043945312,-0.10797119,-0.027526855
1735321002386,2024-12-27T17:36:42.386Z,21886,-0.04638672,-0.10858154,-0.030883789
1735321002398,2024-12-27T17:36:42.398Z,21898,-0.038757324,-0.109375,-0.03375244
1735321002405,2024-12-27T17:36:42.405Z,21905,-0.031555176,-0.110961914,-0.0345459
1735321002492,2024-12-27T17:36:42.492Z,21992,-0.037109375,-0.11047363,-0.027526855
1735321002501,2024-12-27T17:36:42.501Z,22001,-0.043518066,-0.10656738,-0.021911621
1735321002508,2024-12-27T17:36:42.508Z,22008,-0.043945312,-0.10656738,-0.026245117
1735321002518,2024-12-27T17:36:42.518Z,22018,-0.0423584,-0.10852051,-0.028381348
1735321002528,2024-12-27T17:36:42.528Z,22028,-0.043701172,-0.10949707,-0.025878906
1735321002539,2024-12-27T17:36:42.539Z,22039,-0.0513916,-0.1081543,-0.029663086
1735321002548,2024-12-27T17:36:42.548Z,22048,-0.0446167,-0.11413574,-0.033081055
1735321002630,2024-12-27T17:36:42.630Z,22130,-0.03668213,-0.11602783,-0.030273438
1735321002646,2024-12-27T17:36:42.646Z,22146,-0.045410156,-0.11590576,-0.030761719
1735321002661,2024-12-27T17:36:42.661Z,22161,-0.05255127,-0.115356445,-0.032470703
1735321002672,2024-12-27T17:36:42.672Z,22172,-0.054016113,-0.11206055,-0.029968262
1735321002683,2024-12-27T17:36:42.683Z,22183,-0.050964355,-0.11480713,-0.030212402
1735321002694,2024-12-27T17:36:42.694Z,22194,-0.05102539,-0.11743164,-0.026794434
1735321002702,2024-12-27T17:36:42.702Z,22202,-0.059509277,-0.114746094,-0.02331543
1735321002712,2024-12-27T17:36:42.712Z,22212,-0.061279297,-0.11340332,-0.026977539
1735321002721,2024-12-27T17:36:42.721Z,22221,-0.049987793,-0.11584473,-0.030212402
1735321002730,2024-12-27T17:36:42.730Z,22230,-0.047546387,-0.11541748,-0.026550293
1735321002742,2024-12-27T17:36:42.742Z,22242,-0.05822754,-0.11273193,-0.02947998
1735321002751,2024-12-27T17:36:42.751Z,22251,-0.05493164,-0.11340332,-0.036499023
1735321002758,2024-12-27T17:36:42.758Z,22258,-0.046203613,-0.11645508,-0.02709961
1735321002764,2024-12-27T17:36:42.764Z,22264,-0.060058594,-0.109558105,-0.017578125
1735321002771,2024-12-27T17:36:42.771Z,22271,-0.06774902,-0.105651855,-0.016784668
1735321002779,2024-12-27T17:36:42.779Z,22279,-0.066833496,-0.10491943,-0.019470215
1735321002795,2024-12-27T17:36:42.795Z,22295,-0.0647583,-0.1060791,-0.019714355
1735321002802,2024-12-27T17:36:42.802Z,22302,-0.06317139,-0.10601807,-0.01940918
1735321002809,2024-12-27T17:36:42.809Z,22309,-0.06304932,-0.107055664,-0.02154541
1735321002815,2024-12-27T17:36:42.815Z,22315,-0.06262207,-0.10803223,-0.017150879
1735321002822,2024-12-27T17:36:42.822Z,22322,-0.064453125,-0.10784912,-0.018371582
1735321002828,2024-12-27T17:36:42.828Z,22328,-0.064575195,-0.1071167,-0.018371582
1735321002844,2024-12-27T17:36:42.844Z,22344,-0.066101074,-0.103515625,-0.010498047
1735321002852,2024-12-27T17:36:42.852Z,22352,-0.0748291,-0.09967041,-0.0076293945
1735321002858,2024-12-27T17:36:42.858Z,22358,-0.06842041,-0.10308838,-0.011474609
1735321002865,2024-12-27T17:36:42.865Z,22365,-0.059265137,-0.10614014,-0.009277344
1735321002872,2024-12-27T17:36:42.872Z,22372,-0.06689453,-0.104003906,-0.007873535
1735321002885,2024-12-27T17:36:42.885Z,22385,-0.07043457,-0.10614014,-0.013977051
1735321002888,2024-12-27T17:36:42.888Z,22388,-0.060058594,-0.109558105,-0.014160156
1735321002895,2024-12-27T17:36:42.895Z,22395,-0.06439209,-0.10760498,-0.009887695
1735321002902,2024-12-27T17:36:42.902Z,22402,-0.0635376,-0.1083374,-0.008239746
1735321002910,2024-12-27T17:36:42.910Z,22410,-0.06964111,-0.10632324,-0.005859375
1735321002918,2024-12-27T17:36:42.918Z,22418,-0.07531738,-0.10583496,-0.0053100586
1735321002931,2024-12-27T17:36:42.931Z,22431,-0.06866455,-0.107788086,-0.010620117
1735321002937,2024-12-27T17:36:42.937Z,22437,-0.06561279,-0.1126709,-0.01574707
1735321002943,2024-12-27T17:36:42.943Z,22443,-0.067871094,-0.11419678,-0.0107421875
1735321003026,2024-12-27T17:36:43.026Z,22526,-0.06829834,-0.11303711,-0.011413574
1735321003032,2024-12-27T17:36:43.032Z,22532,-0.06524658,-0.11193848,-0.011047363
1735321003039,2024-12-27T17:36:43.039Z,22539,-0.07220459,-0.11102295,-0.004760742
1735321003071,2024-12-27T17:36:43.071Z,22571,-0.08105469,-0.11022949,-0.0038452148
1735321003079,2024-12-27T17:36:43.079Z,22579,-0.07623291,-0.10949707,-0.006164551
1735321003087,2024-12-27T17:36:43.087Z,22587,-0.065979004,-0.11315918,-0.013183594
1735321003095,2024-12-27T17:36:43.095Z,22595,-0.06677246,-0.115600586,-0.009399414
1735321003103,2024-12-27T17:36:43.103Z,22603,-0.07550049,-0.113586426,-0.004333496
1735321003157,2024-12-27T17:36:43.157Z,22657,-0.073913574,-0.11352539,-0.007446289
1735321003166,2024-12-27T17:36:43.166Z,22666,-0.070129395,-0.1126709,-0.008117676
1735321003175,2024-12-27T17:36:43.175Z,22675,-0.06976318,-0.11224365,-0.008483887
1735321003184,2024-12-27T17:36:43.184Z,22684,-0.06451416,-0.11016846,-0.009460449
1735321003194,2024-12-27T17:36:43.194Z,22694,-0.06335449,-0.109069824,-0.00793457
1735321003203,2024-12-27T17:36:43.203Z,22703,-0.070007324,-0.10803223,-0.0052490234
1735321003211,2024-12-27T17:36:43.211Z,22711,-0.065979004,-0.109558105,-0.0076904297
1735321003219,2024-12-27T17:36:43.219Z,22719,-0.060180664,-0.111083984,-0.014831543
1735321003228,2024-12-27T17:36:43.228Z,22728,-0.060302734,-0.111694336,-0.012268066
1735321003235,2024-12-27T17:36:43.235Z,22735,-0.06530762,-0.10882568,-0.008605957
1735321003241,2024-12-27T17:36:43.241Z,22741,-0.07019043,-0.107421875,-0.005432129
1735321003249,2024-12-27T17:36:43.249Z,22749,-0.071777344,-0.10620117,-0.004638672
1735321003252,2024-12-27T17:36:43.252Z,22752,-0.06317139,-0.11407471,-0.014709473
1735321003260,2024-12-27T17:36:43.260Z,22760,-0.05505371,-0.11273193,-0.013977051
1735321003266,2024-12-27T17:36:43.266Z,22766,-0.065979004,-0.11035156,-0.010070801
1735321003273,2024-12-27T17:36:43.273Z,22773,-0.070129395,-0.109069824,-0.004333496
1735321003281,2024-12-27T17:36:43.281Z,22781,-0.070251465,-0.10559082,6.713867E-4
1735321003384,2024-12-27T17:36:43.384Z,22884,-0.07147217,-0.10455322,0.0
1735321003390,2024-12-27T17:36:43.390Z,22890,-0.06451416,-0.10620117,-0.0017700195
1735321003396,2024-12-27T17:36:43.396Z,22896,-0.055541992,-0.10687256,-0.0037841797
1735321003403,2024-12-27T17:36:43.403Z,22903,-0.054260254,-0.109680176,-0.0072021484
1735321003409,2024-12-27T17:36:43.409Z,22909,-0.059020996,-0.11212158,-0.0073242188
1735321003416,2024-12-27T17:36:43.416Z,22916,-0.056396484,-0.11004639,-0.005493164
1735321003429,2024-12-27T17:36:43.429Z,22929,-0.057250977,-0.10699463,-0.0017089844
1735321003436,2024-12-27T17:36:43.436Z,22936,-0.060058594,-0.106933594,0.0026245117
1735321003444,2024-12-27T17:36:43.444Z,22944,-0.060546875,-0.10620117,0.004272461
1735321003452,2024-12-27T17:36:43.452Z,22952,-0.05822754,-0.10583496,0.0025634766
1735321003476,2024-12-27T17:36:43.476Z,22976,-0.05895996,-0.10797119,3.6621094E-4
1735321003484,2024-12-27T17:36:43.484Z,22984,-0.06085205,-0.11126709,-0.0056152344
1735321003488,2024-12-27T17:36:43.488Z,22988,-0.06518555,-0.109375,-0.002380371
1735321003501,2024-12-27T17:36:43.501Z,23001,-0.059020996,-0.110961914,-0.0043945312
1735321003509,2024-12-27T17:36:43.509Z,23009,-0.056274414,-0.111206055,-0.0049438477
1735321003516,2024-12-27T17:36:43.516Z,23016,-0.053527832,-0.111083984,-0.0053100586
1735321003524,2024-12-27T17:36:43.524Z,23024,-0.050476074,-0.11279297,-0.005554199
1735321003532,2024-12-27T17:36:43.532Z,23032,-0.051757812,-0.11138916,-8.544922E-4
1735321003539,2024-12-27T17:36:43.539Z,23039,-0.057006836,-0.109313965,6.1035156E-5
1735321003546,2024-12-27T17:36:43.546Z,23046,-0.05657959,-0.11004639,-0.0025634766
1735321003560,2024-12-27T17:36:43.560Z,23060,-0.049926758,-0.109375,-0.0012207031
1735321003567,2024-12-27T17:36:43.567Z,23067,-0.050109863,-0.10949707,-0.0041503906
1735321003573,2024-12-27T17:36:43.573Z,23073,-0.04937744,-0.11260986,-0.0064697266
1735321003579,2024-12-27T17:36:43.579Z,23079,-0.046203613,-0.112976074,-0.0025024414
1735321003586,2024-12-27T17:36:43.586Z,23086,-0.051696777,-0.11151123,6.1035156E-4
1735321003591,2024-12-27T17:36:43.591Z,23091,-0.05731201,-0.110839844,-0.0013427734
1735321003609,2024-12-27T17:36:43.609Z,23109,-0.053833008,-0.11273193,-0.0013427734
1735321003615,2024-12-27T17:36:43.615Z,23115,-0.057617188,-0.11291504,-0.004211426
1735321003621,2024-12-27T17:36:43.621Z,23121,-0.0579834,-0.11407471,-0.0079956055
1735321003628,2024-12-27T17:36:43.628Z,23128,-0.053527832,-0.11621094,-0.008972168
1735321003634,2024-12-27T17:36:43.634Z,23134,-0.05102539,-0.116882324,-0.004699707
1735321003650,2024-12-27T17:36:43.650Z,23150,-0.056030273,-0.1161499,-0.0036621094
1735321003700,2024-12-27T17:36:43.700Z,23200,-0.059570312,-0.11694336,-0.005432129
1735321003706,2024-12-27T17:36:43.706Z,23206,-0.059448242,-0.116882324,-0.004333496
1735321003714,2024-12-27T17:36:43.714Z,23214,-0.061401367,-0.11755371,-0.0060424805
1735321003721,2024-12-27T17:36:43.721Z,23221,-0.058288574,-0.11791992,-0.0075683594
1735321003728,2024-12-27T17:36:43.728Z,23228,-0.05633545,-0.11663818,-0.009277344
1735321003788,2024-12-27T17:36:43.788Z,23288,-0.0579834,-0.11584473,-0.008972168
1735321003796,2024-12-27T17:36:43.796Z,23296,-0.053466797,-0.11590576,-0.0053710938
1735321003804,2024-12-27T17:36:43.804Z,23304,-0.052368164,-0.113708496,-0.002319336
1735321003812,2024-12-27T17:36:43.812Z,23312,-0.056396484,-0.11212158,-0.0013427734
1735321003821,2024-12-27T17:36:43.821Z,23321,-0.053466797,-0.113342285,-0.0028686523
1735321003828,2024-12-27T17:36:43.828Z,23328,-0.05114746,-0.11437988,-0.004638672
1735321003837,2024-12-27T17:36:43.837Z,23337,-0.051208496,-0.11364746,-0.0052490234
1735321003844,2024-12-27T17:36:43.844Z,23344,-0.046142578,-0.11364746,-0.0053100586
1735321003851,2024-12-27T17:36:43.851Z,23351,-0.04425049,-0.11254883,-0.0044555664
1735321003857,2024-12-27T17:36:43.857Z,23357,-0.04815674,-0.11236572,-0.0040283203
1735321003863,2024-12-27T17:36:43.863Z,23363,-0.047302246,-0.11456299,-0.003967285
1735321003876,2024-12-27T17:36:43.876Z,23376,-0.046691895,-0.11505127,-0.0037231445
1735321003879,2024-12-27T17:36:43.879Z,23379,-0.049865723,-0.11968994,-0.0107421875
1735321003886,2024-12-27T17:36:43.886Z,23386,-0.05316162,-0.119140625,-0.009216309
1735321003924,2024-12-27T17:36:43.924Z,23424,-0.057128906,-0.117614746,-0.008911133
1735321003932,2024-12-27T17:36:43.932Z,23432,-0.052124023,-0.11657715,-0.0067749023
1735321003939,2024-12-27T17:36:43.939Z,23439,-0.052246094,-0.11602783,-0.005554199
1735321003947,2024-12-27T17:36:43.947Z,23447,-0.055908203,-0.115478516,-0.006652832
1735321003955,2024-12-27T17:36:43.955Z,23455,-0.05444336,-0.11541748,-0.009155273
1735321003965,2024-12-27T17:36:43.965Z,23465,-0.05090332,-0.11682129,-0.011962891
1735321003972,2024-12-27T17:36:43.972Z,23472,-0.05065918,-0.116760254,-0.011413574
1735321003978,2024-12-27T17:36:43.978Z,23478,-0.053100586,-0.11706543,-0.011169434
1735321003985,2024-12-27T17:36:43.985Z,23485,-0.0501709,-0.11663818,-0.008972168
1735321003992,2024-12-27T17:36:43.992Z,23492,-0.047912598,-0.115234375,-0.006958008
1735321004016,2024-12-27T17:36:44.016Z,23516,-0.048095703,-0.115356445,-0.0057373047
1735321004022,2024-12-27T17:36:44.022Z,23522,-0.046936035,-0.113098145,-0.0043945312
1735321004030,2024-12-27T17:36:44.030Z,23530,-0.047973633,-0.11401367,-0.007080078
1735321004037,2024-12-27T17:36:44.037Z,23537,-0.043945312,-0.11517334,-0.0076293945
1735321004043,2024-12-27T17:36:44.043Z,23543,-0.04437256,-0.11505127,-0.0068969727
1735321004055,2024-12-27T17:36:44.055Z,23555,-0.04650879,-0.1138916,-0.0061035156
1735321004063,2024-12-27T17:36:44.063Z,23563,-0.04699707,-0.11376953,-0.0045776367
1735321004070,2024-12-27T17:36:44.070Z,23570,-0.043945312,-0.11425781,-0.0028686523
1735321004076,2024-12-27T17:36:44.076Z,23576,-0.04345703,-0.113098145,-0.0028076172
1735321004083,2024-12-27T17:36:44.083Z,23583,-0.04675293,-0.11315918,-0.004333496
1735321004089,2024-12-27T17:36:44.089Z,23589,-0.046813965,-0.11413574,-0.0059814453
1735321004103,2024-12-27T17:36:44.103Z,23603,-0.046447754,-0.1159668,-0.008544922
1735321004111,2024-12-27T17:36:44.111Z,23611,-0.047180176,-0.115112305,-0.007446289
1735321004118,2024-12-27T17:36:44.118Z,23618,-0.04486084,-0.115234375,-0.0072631836
1735321004126,2024-12-27T17:36:44.126Z,23626,-0.04547119,-0.115234375,-0.0056762695
1735321004134,2024-12-27T17:36:44.134Z,23634,-0.05053711,-0.11431885,-0.004333496
1735321004145,2024-12-27T17:36:44.145Z,23645,-0.051635742,-0.11407471,-0.004211426
1735321004154,2024-12-27T17:36:44.154Z,23654,-0.049926758,-0.113464355,-0.004211426
1735321004193,2024-12-27T17:36:44.193Z,23693,-0.05065918,-0.113708496,-0.0052490234
1735321004202,2024-12-27T17:36:44.202Z,23702,-0.049987793,-0.1149292,-0.007385254
1735321004208,2024-12-27T17:36:44.208Z,23708,-0.048461914,-0.11553955,-0.007080078
1735321004215,2024-12-27T17:36:44.215Z,23715,-0.05255127,-0.11505127,-0.0061035156
1735321004221,2024-12-27T17:36:44.221Z,23721,-0.052001953,-0.114868164,-0.0056762695
1735321004229,2024-12-27T17:36:44.229Z,23729,-0.050476074,-0.113708496,-0.0038452148
1735321004238,2024-12-27T17:36:44.238Z,23738,-0.051757812,-0.113342285,-0.0045166016
1735321004244,2024-12-27T17:36:44.244Z,23744,-0.04925537,-0.11407471,-0.004211426
1735321004250,2024-12-27T17:36:44.250Z,23750,-0.047851562,-0.11456299,-0.0064086914
1735321004256,2024-12-27T17:36:44.256Z,23756,-0.049926758,-0.115112305,-0.009094238
1735321004262,2024-12-27T17:36:44.262Z,23762,-0.05291748,-0.11468506,-0.009155273
1735321004282,2024-12-27T17:36:44.282Z,23782,-0.050720215,-0.1149292,-0.00982666
1735321004288,2024-12-27T17:36:44.288Z,23788,-0.04925537,-0.1149292,-0.010314941
1735321004294,2024-12-27T17:36:44.294Z,23794,-0.04949951,-0.11456299,-0.0079956055
1735321004301,2024-12-27T17:36:44.301Z,23801,-0.051696777,-0.113586426,-0.0067749023
1735321004307,2024-12-27T17:36:44.307Z,23807,-0.05303955,-0.11352539,-0.0071411133
1735321004313,2024-12-27T17:36:44.313Z,23813,-0.049621582,-0.11352539,-0.008117676
1735321004376,2024-12-27T17:36:44.376Z,23876,-0.050109863,-0.11383057,-0.008911133
1735321004382,2024-12-27T17:36:44.382Z,23882,-0.052856445,-0.114746094,-0.009643555
1735321004388,2024-12-27T17:36:44.388Z,23888,-0.05090332,-0.11578369,-0.010620117
1735321004418,2024-12-27T17:36:44.418Z,23918,-0.04949951,-0.1159668,-0.010498047
1735321004425,2024-12-27T17:36:44.425Z,23925,-0.048217773,-0.11566162,-0.010620117
1735321004468,2024-12-27T17:36:44.468Z,23968,-0.04748535,-0.11608887,-0.010009766
1735321004476,2024-12-27T17:36:44.476Z,23976,-0.04724121,-0.11602783,-0.006958008
1735321004485,2024-12-27T17:36:44.485Z,23985,-0.048217773,-0.1149292,-0.00579834
1735321004492,2024-12-27T17:36:44.492Z,23992,-0.049560547,-0.11431885,-0.0071411133
1735321004500,2024-12-27T17:36:44.500Z,24000,-0.046142578,-0.11566162,-0.008666992
1735321004507,2024-12-27T17:36:44.507Z,24007,-0.043945312,-0.116882324,-0.010620117
1735321004515,2024-12-27T17:36:44.515Z,24015,-0.04498291,-0.11633301,-0.010253906
1735321004521,2024-12-27T17:36:44.521Z,24021,-0.045959473,-0.11639404,-0.010070801
1735321004527,2024-12-27T17:36:44.527Z,24027,-0.04425049,-0.11621094,-0.008422852
1735321004534,2024-12-27T17:36:44.534Z,24034,-0.04534912,-0.114868164,-0.0056152344
1735321004540,2024-12-27T17:36:44.540Z,24040,-0.046142578,-0.11468506,-0.0072631836
1735321004553,2024-12-27T17:36:44.553Z,24053,-0.04473877,-0.11657715,-0.009765625
1735321004559,2024-12-27T17:36:44.559Z,24059,-0.044677734,-0.11639404,-0.010070801
1735321004566,2024-12-27T17:36:44.566Z,24066,-0.041625977,-0.11590576,-0.00970459
1735321004572,2024-12-27T17:36:44.572Z,24072,-0.043884277,-0.114868164,-0.007385254
1735321004577,2024-12-27T17:36:44.577Z,24077,-0.04711914,-0.11437988,-0.0064086914
1735321004597,2024-12-27T17:36:44.597Z,24097,-0.044433594,-0.11529541,-0.008361816
1735321004604,2024-12-27T17:36:44.604Z,24104,-0.04296875,-0.11584473,-0.007873535
1735321004610,2024-12-27T17:36:44.610Z,24110,-0.046081543,-0.11694336,-0.0076293945
1735321004616,2024-12-27T17:36:44.616Z,24116,-0.04748535,-0.11828613,-0.008239746
1735321004623,2024-12-27T17:36:44.623Z,24123,-0.043518066,-0.11834717,-0.008361816
1735321004628,2024-12-27T17:36:44.628Z,24128,-0.042175293,-0.119018555,-0.008422852
1735321004644,2024-12-27T17:36:44.644Z,24144,-0.043823242,-0.11993408,-0.009460449
1735321004650,2024-12-27T17:36:44.650Z,24150,-0.043640137,-0.11981201,-0.006286621
1735321004657,2024-12-27T17:36:44.657Z,24157,-0.048217773,-0.11828613,-0.004211426
1735321004664,2024-12-27T17:36:44.664Z,24164,-0.047790527,-0.120666504,-0.007446289
1735321004671,2024-12-27T17:36:44.671Z,24171,-0.045410156,-0.122680664,-0.007507324
1735321004686,2024-12-27T17:36:44.686Z,24186,-0.047607422,-0.123413086,-0.008605957
1735321004692,2024-12-27T17:36:44.692Z,24192,-0.047851562,-0.12420654,-0.008361816
1735321004699,2024-12-27T17:36:44.699Z,24199,-0.050720215,-0.12438965,-0.008544922
1735321004706,2024-12-27T17:36:44.706Z,24206,-0.05316162,-0.12554932,-0.008422852
1735321004712,2024-12-27T17:36:44.712Z,24212,-0.05126953,-0.12524414,-0.0072021484
1735321004718,2024-12-27T17:36:44.718Z,24218,-0.053894043,-0.12487793,-0.00592041
1735321004735,2024-12-27T17:36:44.735Z,24235,-0.057678223,-0.12432861,-0.0053710938
1735321004742,2024-12-27T17:36:44.742Z,24242,-0.057373047,-0.12475586,-0.0053100586
1735321004749,2024-12-27T17:36:44.749Z,24249,-0.056274414,-0.12628174,-0.006652832
1735321004775,2024-12-27T17:36:44.775Z,24275,-0.055480957,-0.12774658,-0.007507324
1735321004782,2024-12-27T17:36:44.782Z,24282,-0.055358887,-0.12823486,-0.006713867
1735321004789,2024-12-27T17:36:44.789Z,24289,-0.054260254,-0.12860107,-0.0068359375
1735321004796,2024-12-27T17:36:44.796Z,24296,-0.052001953,-0.12884521,-0.006652832
1735321004802,2024-12-27T17:36:44.802Z,24302,-0.049682617,-0.12750244,-0.003479004
1735321004809,2024-12-27T17:36:44.809Z,24309,-0.051635742,-0.12542725,-0.0017089844
1735321004824,2024-12-27T17:36:44.824Z,24324,-0.054016113,-0.12310791,-0.0029296875
1735321004830,2024-12-27T17:36:44.830Z,24330,-0.051818848,-0.12347412,-0.003112793
1735321004838,2024-12-27T17:36:44.838Z,24338,-0.051086426,-0.12359619,-0.004638672
1735321004849,2024-12-27T17:36:44.849Z,24349,-0.051086426,-0.1237793,-0.006958008
1735321004912,2024-12-27T17:36:44.912Z,24412,-0.050598145,-0.123046875,-0.0036621094
1735321004919,2024-12-27T17:36:44.919Z,24419,-0.056396484,-0.12194824,-0.0032348633
1735321004926,2024-12-27T17:36:44.926Z,24426,-0.055236816,-0.12164307,-3.0517578E-4
1735321004932,2024-12-27T17:36:44.932Z,24432,-0.057861328,-0.119506836,0.0022583008
1735321004939,2024-12-27T17:36:44.939Z,24439,-0.06085205,-0.119506836,9.1552734E-4
1735321004946,2024-12-27T17:36:44.946Z,24446,-0.055664062,-0.11993408,-0.0013427734
1735321004959,2024-12-27T17:36:44.959Z,24459,-0.051513672,-0.120910645,-0.0033569336
1735321004966,2024-12-27T17:36:44.966Z,24466,-0.05218506,-0.12188721,-0.003540039
1735321004973,2024-12-27T17:36:44.973Z,24473,-0.055541992,-0.12060547,-0.003540039
1735321004979,2024-12-27T17:36:44.979Z,24479,-0.055419922,-0.12145996,-0.002319336
1735321004987,2024-12-27T17:36:44.987Z,24487,-0.055847168,-0.12188721,3.6621094E-4
1735321005000,2024-12-27T17:36:45Z,24500,-0.061340332,-0.12054443,0.002319336
1735321005007,2024-12-27T17:36:45.007Z,24507,-0.062927246,-0.12072754,-1.2207031E-4
1735321005013,2024-12-27T17:36:45.013Z,24513,-0.05493164,-0.12463379,-0.0044555664
1735321005020,2024-12-27T17:36:45.020Z,24520,-0.049987793,-0.12585449,-0.0045776367
1735321005027,2024-12-27T17:36:45.027Z,24527,-0.05883789,-0.124816895,-0.003479004
1735321005033,2024-12-27T17:36:45.033Z,24533,-0.0602417,-0.124816895,-0.0028686523
1735321005048,2024-12-27T17:36:45.048Z,24548,-0.058044434,-0.123168945,-0.0015258789
1735321005055,2024-12-27T17:36:45.055Z,24555,-0.06390381,-0.11975098,0.0010986328
1735321005061,2024-12-27T17:36:45.061Z,24561,-0.060668945,-0.11968994,6.1035156E-5
1735321005067,2024-12-27T17:36:45.067Z,24567,-0.060424805,-0.11883545,-4.8828125E-4
1735321005074,2024-12-27T17:36:45.074Z,24574,-0.057739258,-0.119018555,-5.493164E-4
1735321005090,2024-12-27T17:36:45.090Z,24590,-0.048706055,-0.11932373,-0.0033569336
1735321005096,2024-12-27T17:36:45.096Z,24596,-0.05834961,-0.11743164,-0.0015869141
1735321005103,2024-12-27T17:36:45.103Z,24603,-0.059265137,-0.117126465,-1.2207031E-4
1735321005109,2024-12-27T17:36:45.109Z,24609,-0.0579834,-0.11480713,0.0017700195
1735321005135,2024-12-27T17:36:45.135Z,24635,-0.06262207,-0.112976074,0.002319336
1735321005141,2024-12-27T17:36:45.141Z,24641,-0.061767578,-0.11199951,0.002319336
1735321005147,2024-12-27T17:36:45.147Z,24647,-0.06402588,-0.11016846,0.0032958984
1735321005153,2024-12-27T17:36:45.153Z,24653,-0.058898926,-0.111694336,-0.0024414062
1735321005159,2024-12-27T17:36:45.159Z,24659,-0.056030273,-0.11663818,-0.008422852
1735321005184,2024-12-27T17:36:45.184Z,24684,-0.06213379,-0.11669922,-0.0037231445
1735321005190,2024-12-27T17:36:45.190Z,24690,-0.06982422,-0.110839844,0.0012817383
1735321005197,2024-12-27T17:36:45.197Z,24697,-0.06994629,-0.11047363,0.0012817383
1735321005203,2024-12-27T17:36:45.203Z,24703,-0.068237305,-0.11199951,9.1552734E-4
1735321005210,2024-12-27T17:36:45.210Z,24710,-0.068603516,-0.11230469,9.765625E-4
1735321005271,2024-12-27T17:36:45.271Z,24771,-0.06939697,-0.11199951,0.0012817383
1735321005280,2024-12-27T17:36:45.280Z,24780,-0.0635376,-0.11401367,-0.0020751953
1735321005287,2024-12-27T17:36:45.287Z,24787,-0.05706787,-0.11462402,-0.002746582
1735321005295,2024-12-27T17:36:45.295Z,24795,-0.06304932,-0.111816406,0.0029907227
1735321005304,2024-12-27T17:36:45.304Z,24804,-0.064331055,-0.10845947,0.003479004
1735321005312,2024-12-27T17:36:45.312Z,24812,-0.056640625,-0.11016846,3.0517578E-4
1735321005321,2024-12-27T17:36:45.321Z,24821,-0.06225586,-0.109069824,0.0036010742
1735321005330,2024-12-27T17:36:45.330Z,24830,-0.068237305,-0.10723877,0.0044555664
1735321005337,2024-12-27T17:36:45.337Z,24837,-0.053955078,-0.1105957,-0.0010986328
1735321005345,2024-12-27T17:36:45.345Z,24845,-0.052368164,-0.111816406,-0.002380371
1735321005352,2024-12-27T17:36:45.352Z,24852,-0.06689453,-0.11004639,0.002380371
1735321005360,2024-12-27T17:36:45.360Z,24860,-0.06555176,-0.10876465,0.0025024414
1735321005367,2024-12-27T17:36:45.367Z,24867,-0.06237793,-0.107055664,0.0028076172
1735321005373,2024-12-27T17:36:45.373Z,24873,-0.0670166,-0.108947754,0.0032348633
1735321005379,2024-12-27T17:36:45.379Z,24879,-0.06878662,-0.11004639,0.004760742
1735321005385,2024-12-27T17:36:45.385Z,24885,-0.06640625,-0.10888672,0.003967285
1735321005391,2024-12-27T17:36:45.391Z,24891,-0.062072754,-0.11047363,0.0021362305
1735321005408,2024-12-27T17:36:45.408Z,24908,-0.06274414,-0.1071167,0.003967285
1735321005414,2024-12-27T17:36:45.414Z,24914,-0.06689453,-0.10559082,0.003967285
1735321005420,2024-12-27T17:36:45.420Z,24920,-0.057678223,-0.10858154,0.005126953
1735321005426,2024-12-27T17:36:45.426Z,24926,-0.058166504,-0.10662842,0.008422852
1735321005432,2024-12-27T17:36:45.432Z,24932,-0.05883789,-0.107543945,0.00982666
1735321005455,2024-12-27T17:36:45.455Z,24955,-0.056396484,-0.10675049,0.009460449
1735321005462,2024-12-27T17:36:45.462Z,24962,-0.05847168,-0.105041504,0.009277344
1735321005468,2024-12-27T17:36:45.468Z,24968,-0.054870605,-0.107055664,0.006958008
1735321005474,2024-12-27T17:36:45.474Z,24974,-0.048950195,-0.108947754,0.0041503906
1735321005499,2024-12-27T17:36:45.499Z,24999,-0.046020508,-0.11291504,7.9345703E-4
1735321005506,2024-12-27T17:36:45.506Z,25006,-0.045959473,-0.11254883,0.0036010742
1735321005515,2024-12-27T17:36:45.515Z,25015,-0.05303955,-0.11029053,0.010070801
1735321005522,2024-12-27T17:36:45.522Z,25022,-0.059448242,-0.11035156,0.012634277
1735321005530,2024-12-27T17:36:45.530Z,25030,-0.05682373,-0.11138916,0.011230469
1735321005543,2024-12-27T17:36:45.543Z,25043,-0.051757812,-0.115600586,0.0038452148
1735321005550,2024-12-27T17:36:45.550Z,25050,-0.049682617,-0.117492676,0.0024414062
1735321005556,2024-12-27T17:36:45.556Z,25056,-0.052368164,-0.11090088,0.008483887
1735321005563,2024-12-27T17:36:45.563Z,25063,-0.052612305,-0.1105957,0.0076293945
1735321005585,2024-12-27T17:36:45.585Z,25085,-0.050964355,-0.113342285,0.006652832
1735321005591,2024-12-27T17:36:45.591Z,25091,-0.055725098,-0.11199951,0.012878418
1735321005597,2024-12-27T17:36:45.597Z,25097,-0.059265137,-0.107055664,0.012878418
1735321005603,2024-12-27T17:36:45.603Z,25103,-0.051574707,-0.10797119,0.005004883
1735321005609,2024-12-27T17:36:45.609Z,25109,-0.03704834,-0.11553955,0.0021972656
1735321005631,2024-12-27T17:36:45.631Z,25131,-0.048339844,-0.11212158,0.0028686523
1735321005638,2024-12-27T17:36:45.638Z,25138,-0.05029297,-0.11212158,0.0028686523
1735321005644,2024-12-27T17:36:45.644Z,25144,-0.043029785,-0.11236572,0.008666992
1735321005651,2024-12-27T17:36:45.651Z,25151,-0.043518066,-0.111450195,0.009277344
1735321005722,2024-12-27T17:36:45.722Z,25222,-0.04949951,-0.10925293,0.0087890625
1735321005732,2024-12-27T17:36:45.732Z,25232,-0.047302246,-0.109375,0.0076293945
1735321005740,2024-12-27T17:36:45.740Z,25240,-0.04626465,-0.109436035,0.0059814453
1735321005748,2024-12-27T17:36:45.748Z,25248,-0.04864502,-0.11102295,0.005432129
1735321005758,2024-12-27T17:36:45.758Z,25258,-0.03765869,-0.11291504,0.00579834
1735321005768,2024-12-27T17:36:45.768Z,25268,-0.032836914,-0.111206055,0.0056762695
1735321005777,2024-12-27T17:36:45.777Z,25277,-0.043029785,-0.10687256,0.006652832
1735321005785,2024-12-27T17:36:45.785Z,25285,-0.05230713,-0.10601807,0.0040893555
1735321005793,2024-12-27T17:36:45.793Z,25293,-0.043273926,-0.109191895,0.0068969727
1735321005800,2024-12-27T17:36:45.800Z,25300,-0.042419434,-0.10699463,0.010192871
1735321005807,2024-12-27T17:36:45.807Z,25307,-0.04168701,-0.10961914,0.010620117
1735321005814,2024-12-27T17:36:45.814Z,25314,-0.012084961,-0.1282959,0.012145996
1735321005821,2024-12-27T17:36:45.821Z,25321,-0.035095215,-0.095703125,-0.0045776367
1735321005827,2024-12-27T17:36:45.827Z,25327,-0.09057617,-0.087402344,-0.0032958984
1735321005833,2024-12-27T17:36:45.833Z,25333,-0.05126953,-0.11651611,0.0036621094
1735321005839,2024-12-27T17:36:45.839Z,25339,-0.019348145,-0.113464355,0.0068969727
1735321005855,2024-12-27T17:36:45.855Z,25355,-0.042053223,-0.10845947,0.007446289
1735321005861,2024-12-27T17:36:45.861Z,25361,-0.05883789,-0.10650635,0.0017700195
1735321005869,2024-12-27T17:36:45.869Z,25369,-0.040771484,-0.10760498,5.493164E-4
1735321005875,2024-12-27T17:36:45.875Z,25375,-0.036010742,-0.106933594,0.00390625
1735321005881,2024-12-27T17:36:45.881Z,25381,-0.03942871,-0.10839844,0.0032348633
1735321005887,2024-12-27T17:36:45.887Z,25387,-0.038879395,-0.10888672,0.0068359375
1735321005904,2024-12-27T17:36:45.904Z,25404,-0.04663086,-0.105773926,0.007446289
1735321005910,2024-12-27T17:36:45.910Z,25410,-0.0435791,-0.109313965,0.0053710938
1735321005915,2024-12-27T17:36:45.915Z,25415,-0.03656006,-0.11071777,0.006286621
1735321005921,2024-12-27T17:36:45.921Z,25421,-0.042907715,-0.1060791,0.001159668
1735321005927,2024-12-27T17:36:45.927Z,25427,-0.041748047,-0.10998535,4.272461E-4
1735321005945,2024-12-27T17:36:45.945Z,25445,-0.041015625,-0.11126709,0.0037231445
1735321005952,2024-12-27T17:36:45.952Z,25452,-0.047424316,-0.10900879,0.00793457
1735321005958,2024-12-27T17:36:45.958Z,25458,-0.04425049,-0.10772705,0.00579834
1735321005963,2024-12-27T17:36:45.963Z,25463,-0.03656006,-0.110961914,-0.0020141602
1735321006040,2024-12-27T17:36:46.040Z,25540,-0.031921387,-0.11383057,-0.002319336
1735321006047,2024-12-27T17:36:46.047Z,25547,-0.03778076,-0.110839844,0.002380371
1735321006055,2024-12-27T17:36:46.055Z,25555,-0.041015625,-0.11224365,0.00579834
1735321006062,2024-12-27T17:36:46.062Z,25562,-0.04498291,-0.11138916,0.0072631836
1735321006070,2024-12-27T17:36:46.070Z,25570,-0.042297363,-0.111694336,0.009887695
1735321006077,2024-12-27T17:36:46.077Z,25577,-0.03491211,-0.113342285,0.008666992
1735321006085,2024-12-27T17:36:46.085Z,25585,-0.03125,-0.1126709,0.0020751953
1735321006134,2024-12-27T17:36:46.134Z,25634,-0.034423828,-0.11114502,4.272461E-4
1735321006147,2024-12-27T17:36:46.147Z,25647,-0.0368042,-0.10864258,1.8310547E-4
1735321006182,2024-12-27T17:36:46.182Z,25682,-0.039367676,-0.107910156,0.0013427734
1735321006194,2024-12-27T17:36:46.194Z,25694,-0.038208008,-0.10803223,0.0030517578
1735321006202,2024-12-27T17:36:46.202Z,25702,-0.030090332,-0.11114502,0.0053710938
1735321006212,2024-12-27T17:36:46.212Z,25712,-0.027404785,-0.11016846,0.005126953
1735321006221,2024-12-27T17:36:46.221Z,25721,-0.032592773,-0.10876465,0.0025024414
1735321006229,2024-12-27T17:36:46.229Z,25729,-0.032836914,-0.111816406,-0.0025024414
1735321006237,2024-12-27T17:36:46.237Z,25737,-0.030822754,-0.11419678,-0.0048828125
1735321006246,2024-12-27T17:36:46.246Z,25746,-0.028381348,-0.114868164,-0.001953125
1735321006253,2024-12-27T17:36:46.253Z,25753,-0.031982422,-0.11578369,-0.0010375977
1735321006260,2024-12-27T17:36:46.260Z,25760,-0.03967285,-0.117370605,-0.0028686523
1735321006267,2024-12-27T17:36:46.267Z,25767,-0.029785156,-0.117614746,0.0014648438
1735321006284,2024-12-27T17:36:46.284Z,25784,-0.038146973,-0.11682129,-1.8310547E-4
1735321006292,2024-12-27T17:36:46.292Z,25792,-0.029296875,-0.119262695,3.6621094E-4
1735321006298,2024-12-27T17:36:46.298Z,25798,-0.03137207,-0.11437988,-0.0032958984
1735321006304,2024-12-27T17:36:46.304Z,25804,-0.03100586,-0.11437988,-0.0068359375
1735321006310,2024-12-27T17:36:46.310Z,25810,-0.028686523,-0.11694336,-0.0025024414
1735321006315,2024-12-27T17:36:46.315Z,25815,-0.03717041,-0.11395264,0.0032348633
1735321006321,2024-12-27T17:36:46.321Z,25821,-0.030639648,-0.11212158,0.006713867
1735321006327,2024-12-27T17:36:46.327Z,25827,-0.024719238,-0.111816406,0.0041503906
1735321006333,2024-12-27T17:36:46.333Z,25833,-0.023071289,-0.11291504,0.0026245117
1735321006351,2024-12-27T17:36:46.351Z,25851,-0.028320312,-0.111328125,-0.005432129
1735321006359,2024-12-27T17:36:46.359Z,25859,-0.03375244,-0.11413574,-0.012817383
1735321006364,2024-12-27T17:36:46.364Z,25864,-0.025268555,-0.117492676,-0.0067749023
1735321006370,2024-12-27T17:36:46.370Z,25870,-0.032043457,-0.112976074,-0.009155273
1735321006376,2024-12-27T17:36:46.376Z,25876,-0.034118652,-0.113342285,-0.0014038086
1735321006382,2024-12-27T17:36:46.382Z,25882,-0.027282715,-0.11138916,0.006591797
1735321006400,2024-12-27T17:36:46.400Z,25900,-0.025024414,-0.111694336,0.0063476562
1735321006407,2024-12-27T17:36:46.407Z,25907,-0.028259277,-0.11199951,0.0032958984
1735321006413,2024-12-27T17:36:46.413Z,25913,-0.030456543,-0.11138916,-0.0032348633
1735321006419,2024-12-27T17:36:46.419Z,25919,-0.033203125,-0.1126709,-0.011413574
1735321006425,2024-12-27T17:36:46.425Z,25925,-0.024719238,-0.11505127,-0.008728027
1735321006488,2024-12-27T17:36:46.488Z,25988,-0.02545166,-0.11077881,-0.0072631836
1735321006494,2024-12-27T17:36:46.494Z,25994,-0.026428223,-0.10748291,-0.0015258789
1735321006500,2024-12-27T17:36:46.500Z,26000,-0.022216797,-0.105895996,0.001159668
1735321006505,2024-12-27T17:36:46.505Z,26005,-0.027282715,-0.10925293,-0.0020141602
1735321006511,2024-12-27T17:36:46.511Z,26011,-0.024902344,-0.11413574,-0.002319336
1735321006517,2024-12-27T17:36:46.517Z,26017,-0.026123047,-0.11779785,-0.0056152344
1735321006537,2024-12-27T17:36:46.537Z,26037,-0.029907227,-0.11779785,-0.0064086914
1735321006544,2024-12-27T17:36:46.544Z,26044,-0.023620605,-0.11541748,-0.0045166016
1735321006550,2024-12-27T17:36:46.550Z,26050,-0.023620605,-0.11425781,-0.004272461
1735321006558,2024-12-27T17:36:46.558Z,26058,-0.027648926,-0.115356445,-0.0030517578
1735321006564,2024-12-27T17:36:46.564Z,26064,-0.026000977,-0.11541748,-0.0029296875
1735321006575,2024-12-27T17:36:46.575Z,26075,-0.020324707,-0.11999512,-0.0014648438
1735321006581,2024-12-27T17:36:46.581Z,26081,-0.026367188,-0.122924805,-0.0064086914
1735321006587,2024-12-27T17:36:46.587Z,26087,-0.028564453,-0.12145996,-0.007019043
1735321006593,2024-12-27T17:36:46.593Z,26093,-0.026428223,-0.12042236,-0.0076904297
1735321006599,2024-12-27T17:36:46.599Z,26099,-0.025268555,-0.11993408,-0.0061035156
1735321006605,2024-12-27T17:36:46.605Z,26105,-0.019226074,-0.119628906,-0.0038452148
1735321006624,2024-12-27T17:36:46.624Z,26124,-0.019104004,-0.11853027,-0.0030517578
1735321006630,2024-12-27T17:36:46.630Z,26130,-0.019592285,-0.12133789,7.324219E-4
1735321006637,2024-12-27T17:36:46.637Z,26137,-0.018066406,-0.12194824,0.0020141602
1735321006643,2024-12-27T17:36:46.643Z,26143,-0.027038574,-0.1184082,-0.0017089844
1735321006648,2024-12-27T17:36:46.648Z,26148,-0.02960205,-0.117614746,-0.0048828125
1735321006665,2024-12-27T17:36:46.665Z,26165,-0.021240234,-0.12060547,-0.0068359375
1735321006673,2024-12-27T17:36:46.673Z,26173,-0.015197754,-0.12207031,-0.0056152344
1735321006678,2024-12-27T17:36:46.678Z,26178,-0.014404297,-0.118652344,-0.0029296875
1735321006684,2024-12-27T17:36:46.684Z,26184,-0.01171875,-0.11639404,-3.6621094E-4
1735321006710,2024-12-27T17:36:46.710Z,26210,-0.013549805,-0.11883545,0.0018920898
1735321006716,2024-12-27T17:36:46.716Z,26216,-0.021362305,-0.119140625,0.0014038086
1735321006722,2024-12-27T17:36:46.722Z,26222,-0.022216797,-0.119628906,9.1552734E-4
1735321006728,2024-12-27T17:36:46.728Z,26228,-0.02331543,-0.1194458,-0.0029907227
1735321006733,2024-12-27T17:36:46.733Z,26233,-0.018859863,-0.12249756,-0.006958008
1735321006739,2024-12-27T17:36:46.739Z,26239,-0.012390137,-0.123291016,-0.0053100586
1735321006760,2024-12-27T17:36:46.760Z,26260,-0.0119018555,-0.12042236,-9.765625E-4
1735321006775,2024-12-27T17:36:46.775Z,26275,-0.017944336,-0.119506836,-9.1552734E-4
1735321006781,2024-12-27T17:36:46.781Z,26281,-0.019042969,-0.12158203,6.1035156E-5
1735321006788,2024-12-27T17:36:46.788Z,26288,-0.016967773,-0.12371826,0.0018310547
1735321006795,2024-12-27T17:36:46.795Z,26295,-0.015258789,-0.12719727,0.0012207031
1735321006847,2024-12-27T17:36:46.847Z,26347,-0.010192871,-0.12615967,-4.8828125E-4
1735321006855,2024-12-27T17:36:46.855Z,26355,-0.008239746,-0.12298584,3.6621094E-4
1735321006863,2024-12-27T17:36:46.863Z,26363,-0.017822266,-0.1237793,-0.0012207031
1735321006870,2024-12-27T17:36:46.870Z,26370,-0.021118164,-0.12359619,-0.0029296875
1735321006879,2024-12-27T17:36:46.879Z,26379,-0.017822266,-0.12286377,-0.0025634766
1735321006886,2024-12-27T17:36:46.886Z,26386,-0.016357422,-0.124816895,0.0020141602
1735321006894,2024-12-27T17:36:46.894Z,26394,-0.014831543,-0.12359619,0.0036010742
1735321006904,2024-12-27T17:36:46.904Z,26404,-0.012390137,-0.12188721,0.0048828125
1735321006911,2024-12-27T17:36:46.911Z,26411,-0.014343262,-0.121032715,0.005065918
1735321006924,2024-12-27T17:36:46.924Z,26424,-0.017333984,-0.12005615,0.0012207031
1735321006932,2024-12-27T17:36:46.932Z,26432,-0.016174316,-0.11993408,-7.9345703E-4
1735321006938,2024-12-27T17:36:46.938Z,26438,-0.016540527,-0.11981201,-0.0016479492
1735321006943,2024-12-27T17:36:46.943Z,26443,-0.0146484375,-0.12030029,0.0
1735321006980,2024-12-27T17:36:46.980Z,26480,-0.0146484375,-0.11975098,0.0025024414
1735321006985,2024-12-27T17:36:46.985Z,26485,-0.014953613,-0.11987305,0.0021972656
1735321006991,2024-12-27T17:36:46.991Z,26491,-0.014099121,-0.12060547,0.0032958984
1735321006997,2024-12-27T17:36:46.997Z,26497,-0.016113281,-0.12158203,0.0043945312
1735321007003,2024-12-27T17:36:47.003Z,26503,-0.018432617,-0.12164307,0.00390625
1735321007009,2024-12-27T17:36:47.009Z,26509,-0.019165039,-0.12451172,0.0031738281
1735321007028,2024-12-27T17:36:47.028Z,26528,-0.018188477,-0.12927246,0.003479004
1735321007034,2024-12-27T17:36:47.034Z,26534,-0.018432617,-0.12670898,0.0028076172
1735321007041,2024-12-27T17:36:47.041Z,26541,-0.01574707,-0.122680664,0.0015258789
1735321007047,2024-12-27T17:36:47.047Z,26547,-0.014465332,-0.12060547,9.1552734E-4
1735321007053,2024-12-27T17:36:47.053Z,26553,-0.013305664,-0.121032715,0.0034179688
1735321007069,2024-12-27T17:36:47.069Z,26569,-0.015197754,-0.12207031,0.0040893555
1735321007075,2024-12-27T17:36:47.075Z,26575,-0.016479492,-0.12298584,0.006591797
1735321007081,2024-12-27T17:36:47.081Z,26581,-0.015014648,-0.12249756,0.0057373047
1735321007086,2024-12-27T17:36:47.086Z,26586,-0.016723633,-0.120910645,0.00592041
1735321007092,2024-12-27T17:36:47.092Z,26592,-0.017578125,-0.11645508,0.0064086914
1735321007097,2024-12-27T17:36:47.097Z,26597,-0.013977051,-0.117492676,0.0056762695
1735321007119,2024-12-27T17:36:47.119Z,26619,-0.0134887695,-0.120666504,0.0064086914
1735321007126,2024-12-27T17:36:47.126Z,26626,-0.015686035,-0.11987305,0.00579834
1735321007131,2024-12-27T17:36:47.131Z,26631,-0.0146484375,-0.11791992,0.00592041
1735321007137,2024-12-27T17:36:47.137Z,26637,-0.0134887695,-0.11627197,0.0045776367
1735321007143,2024-12-27T17:36:47.143Z,26643,-0.012145996,-0.11706543,0.0037231445
1735321007161,2024-12-27T17:36:47.161Z,26661,-0.011230469,-0.11791992,0.004760742
1735321007168,2024-12-27T17:36:47.168Z,26668,-0.012573242,-0.119628906,0.004638672
1735321007177,2024-12-27T17:36:47.177Z,26677,-0.016113281,-0.12194824,0.0064697266
1735321007183,2024-12-27T17:36:47.183Z,26683,-0.016723633,-0.12145996,0.008117676
1735321007189,2024-12-27T17:36:47.189Z,26689,-0.016357422,-0.12030029,0.008056641
1735321007196,2024-12-27T17:36:47.196Z,26696,-0.015136719,-0.12017822,0.007873535
1735321007210,2024-12-27T17:36:47.210Z,26710,-0.014709473,-0.12017822,0.0064697266
1735321007215,2024-12-27T17:36:47.215Z,26715,-0.017089844,-0.12084961,0.0053100586
1735321007221,2024-12-27T17:36:47.221Z,26721,-0.017150879,-0.121276855,0.0051879883
1735321007227,2024-12-27T17:36:47.227Z,26727,-0.015014648,-0.12225342,0.0056762695
1735321007249,2024-12-27T17:36:47.249Z,26749,-0.016357422,-0.12011719,0.0073242188
1735321007255,2024-12-27T17:36:47.255Z,26755,-0.017150879,-0.11755371,0.00793457
1735321007261,2024-12-27T17:36:47.261Z,26761,-0.016235352,-0.117614746,0.008178711
1735321007266,2024-12-27T17:36:47.266Z,26766,-0.01550293,-0.11846924,0.008178711
1735321007273,2024-12-27T17:36:47.273Z,26773,-0.016662598,-0.117370605,0.006958008
1735321007295,2024-12-27T17:36:47.295Z,26795,-0.019470215,-0.115356445,0.006225586
1735321007301,2024-12-27T17:36:47.301Z,26801,-0.01751709,-0.11431885,0.005065918
1735321007308,2024-12-27T17:36:47.308Z,26808,-0.013977051,-0.1149292,0.0049438477
1735321007314,2024-12-27T17:36:47.314Z,26814,-0.014282227,-0.114746094,0.006286621
1735321007340,2024-12-27T17:36:47.340Z,26840,-0.018066406,-0.11328125,0.009033203
1735321007346,2024-12-27T17:36:47.346Z,26846,-0.017333984,-0.11273193,0.010009766
1735321007353,2024-12-27T17:36:47.353Z,26853,-0.014465332,-0.11254883,0.010314941
1735321007360,2024-12-27T17:36:47.360Z,26860,-0.015075684,-0.11383057,0.008728027
1735321007386,2024-12-27T17:36:47.386Z,26886,-0.018798828,-0.11419678,0.006591797
1735321007393,2024-12-27T17:36:47.393Z,26893,-0.021972656,-0.113586426,0.00592041
1735321007400,2024-12-27T17:36:47.400Z,26900,-0.020080566,-0.11437988,0.0076904297
1735321007408,2024-12-27T17:36:47.408Z,26908,-0.017578125,-0.113708496,0.00793457
1735321007414,2024-12-27T17:36:47.414Z,26914,-0.014709473,-0.113464355,0.010314941
1735321007432,2024-12-27T17:36:47.432Z,26932,-0.013244629,-0.11407471,0.011962891
1735321007439,2024-12-27T17:36:47.439Z,26939,-0.020263672,-0.11328125,0.010559082
1735321007446,2024-12-27T17:36:47.446Z,26946,-0.024475098,-0.11236572,0.008178711
1735321007453,2024-12-27T17:36:47.453Z,26953,-0.021057129,-0.11401367,0.006225586
1735321007475,2024-12-27T17:36:47.475Z,26975,-0.015075684,-0.114990234,0.0072631836
1735321007481,2024-12-27T17:36:47.481Z,26981,-0.01550293,-0.11206055,0.010131836
1735321007487,2024-12-27T17:36:47.487Z,26987,-0.022094727,-0.11022949,0.009033203
1735321007493,2024-12-27T17:36:47.493Z,26993,-0.022766113,-0.111816406,0.0075683594
1735321007499,2024-12-27T17:36:47.499Z,26999,-0.022094727,-0.1104126,0.009216309
1735321007521,2024-12-27T17:36:47.521Z,27021,-0.016357422,-0.11328125,0.0099487305
1735321007531,2024-12-27T17:36:47.531Z,27031,-0.012451172,-0.11798096,0.008728027
1735321007536,2024-12-27T17:36:47.536Z,27036,-0.026428223,-0.11425781,0.008300781
1735321007543,2024-12-27T17:36:47.543Z,27043,-0.030273438,-0.11151123,0.0038452148
1735321007565,2024-12-27T17:36:47.565Z,27065,-0.020263672,-0.11407471,0.002380371
1735321007571,2024-12-27T17:36:47.571Z,27071,-0.018005371,-0.11364746,0.0060424805
1735321007577,2024-12-27T17:36:47.577Z,27077,-0.026000977,-0.112854004,0.010803223
1735321007583,2024-12-27T17:36:47.583Z,27083,-0.02557373,-0.11425781,0.011413574
1735321007589,2024-12-27T17:36:47.589Z,27089,-0.02557373,-0.11407471,0.009094238
1735321007611,2024-12-27T17:36:47.611Z,27111,-0.029785156,-0.11328125,0.0037841797
1735321007617,2024-12-27T17:36:47.617Z,27117,-0.024414062,-0.11364746,7.324219E-4
1735321007624,2024-12-27T17:36:47.624Z,27124,-0.023986816,-0.11480713,-7.324219E-4
1735321007630,2024-12-27T17:36:47.630Z,27130,-0.02355957,-0.12060547,-0.0015258789
1735321007655,2024-12-27T17:36:47.655Z,27155,-0.02709961,-0.11871338,0.005004883
1735321007660,2024-12-27T17:36:47.660Z,27160,-0.041503906,-0.111083984,0.009521484
1735321007665,2024-12-27T17:36:47.665Z,27165,-0.042114258,-0.11273193,0.0057373047
1735321007671,2024-12-27T17:36:47.671Z,27171,-0.028381348,-0.11798096,0.004211426
1735321007699,2024-12-27T17:36:47.699Z,27199,-0.025939941,-0.11932373,0.0013427734
1735321007706,2024-12-27T17:36:47.706Z,27206,-0.038024902,-0.118774414,-9.1552734E-4
1735321007712,2024-12-27T17:36:47.712Z,27212,-0.037353516,-0.11773682,-0.0010986328
1735321007719,2024-12-27T17:36:47.719Z,27219,-0.034057617,-0.11376953,9.1552734E-4
1735321007726,2024-12-27T17:36:47.726Z,27226,-0.04071045,-0.11175537,0.0029907227
1735321007745,2024-12-27T17:36:47.745Z,27245,-0.04260254,-0.112976074,0.003540039
1735321007752,2024-12-27T17:36:47.752Z,27252,-0.04071045,-0.11383057,0.006958008
1735321007796,2024-12-27T17:36:47.796Z,27296,-0.04510498,-0.115234375,-7.9345703E-4
1735321007804,2024-12-27T17:36:47.804Z,27304,-0.046142578,-0.11804199,-0.004760742
1735321007812,2024-12-27T17:36:47.812Z,27312,-0.041809082,-0.11383057,-0.0018310547
1735321007819,2024-12-27T17:36:47.819Z,27319,-0.04144287,-0.11273193,-0.0034179688
1735321007826,2024-12-27T17:36:47.826Z,27326,-0.043395996,-0.114868164,-0.0010375977
1735321007837,2024-12-27T17:36:47.837Z,27337,-0.04864502,-0.1149292,0.0015258789
1735321007843,2024-12-27T17:36:47.843Z,27343,-0.051635742,-0.1149292,0.0022583008
1735321007849,2024-12-27T17:36:47.849Z,27349,-0.047302246,-0.1149292,0.0018310547
1735321007854,2024-12-27T17:36:47.854Z,27354,-0.05340576,-0.11425781,-0.0056762695
1735321007861,2024-12-27T17:36:47.861Z,27361,-0.054260254,-0.11767578,-0.010314941
1735321007866,2024-12-27T17:36:47.866Z,27366,-0.048706055,-0.120788574,-0.0072631836
1735321007884,2024-12-27T17:36:47.884Z,27384,-0.051696777,-0.11853027,-0.010131836
1735321007890,2024-12-27T17:36:47.890Z,27390,-0.04547119,-0.11968994,-0.005493164
1735321007897,2024-12-27T17:36:47.897Z,27397,-0.049926758,-0.114990234,0.0014038086
1735321007903,2024-12-27T17:36:47.903Z,27403,-0.06628418,-0.10913086,5.493164E-4
1735321007909,2024-12-27T17:36:47.909Z,27409,-0.06555176,-0.1104126,-9.1552734E-4
1735321007929,2024-12-27T17:36:47.929Z,27429,-0.056152344,-0.110961914,-0.0028076172
1735321007935,2024-12-27T17:36:47.935Z,27435,-0.050964355,-0.1126709,-0.009765625
1735321007941,2024-12-27T17:36:47.941Z,27441,-0.040893555,-0.11785889,-0.012512207
1735321007948,2024-12-27T17:36:47.948Z,27448,-0.04547119,-0.11315918,-0.008544922
1735321007971,2024-12-27T17:36:47.971Z,27471,-0.050231934,-0.11102295,-0.0051879883
1735321007978,2024-12-27T17:36:47.978Z,27478,-0.05255127,-0.1060791,1.2207031E-4
1735321007984,2024-12-27T17:36:47.984Z,27484,-0.061340332,-0.10095215,-9.1552734E-4
1735321007990,2024-12-27T17:36:47.990Z,27490,-0.057556152,-0.105285645,-0.0033569336
1735321008015,2024-12-27T17:36:48.015Z,27515,-0.051208496,-0.10748291,-0.0014038086
1735321008021,2024-12-27T17:36:48.021Z,27521,-0.052124023,-0.10760498,-0.0020751953
1735321008027,2024-12-27T17:36:48.027Z,27527,-0.053222656,-0.109191895,-0.007507324
1735321008033,2024-12-27T17:36:48.033Z,27533,-0.055847168,-0.10559082,-0.0078125
1735321008040,2024-12-27T17:36:48.040Z,27540,-0.05706787,-0.103393555,-0.004760742
1735321008060,2024-12-27T17:36:48.060Z,27560,-0.05517578,-0.10412598,-0.004638672
1735321008066,2024-12-27T17:36:48.066Z,27566,-0.0579834,-0.107421875,-0.005065918
1735321008072,2024-12-27T17:36:48.072Z,27572,-0.06097412,-0.10852051,-0.004699707
1735321008078,2024-12-27T17:36:48.078Z,27578,-0.062805176,-0.10656738,-0.008300781
1735321008107,2024-12-27T17:36:48.107Z,27607,-0.060668945,-0.10699463,-0.009765625
1735321008113,2024-12-27T17:36:48.113Z,27613,-0.064086914,-0.10534668,-0.011047363
1735321008119,2024-12-27T17:36:48.119Z,27619,-0.0637207,-0.105895996,-0.014038086
1735321008126,2024-12-27T17:36:48.126Z,27626,-0.059692383,-0.10998535,-0.012329102
1735321008152,2024-12-27T17:36:48.152Z,27652,-0.06304932,-0.10858154,-0.0045166016
1735321008160,2024-12-27T17:36:48.160Z,27660,-0.06719971,-0.10638428,-0.003479004
1735321008167,2024-12-27T17:36:48.167Z,27667,-0.06213379,-0.10687256,-0.007446289
1735321008175,2024-12-27T17:36:48.175Z,27675,-0.062316895,-0.10827637,-0.012817383
1735321008182,2024-12-27T17:36:48.182Z,27682,-0.059753418,-0.11303711,-0.014160156
1735321008196,2024-12-27T17:36:48.196Z,27696,-0.05810547,-0.11206055,-0.011962891
1735321008204,2024-12-27T17:36:48.204Z,27704,-0.06555176,-0.109436035,-0.008300781
1735321008211,2024-12-27T17:36:48.211Z,27711,-0.068115234,-0.10858154,-0.002319336
1735321008220,2024-12-27T17:36:48.220Z,27720,-0.0680542,-0.10668945,7.9345703E-4
1735321008227,2024-12-27T17:36:48.227Z,27727,-0.064697266,-0.10699463,-0.004333496
1735321008245,2024-12-27T17:36:48.245Z,27745,-0.062316895,-0.107299805,-0.0075683594
1735321008250,2024-12-27T17:36:48.250Z,27750,-0.06555176,-0.107177734,-0.012390137
1735321008256,2024-12-27T17:36:48.256Z,27756,-0.06060791,-0.10803223,-0.013793945
1735321008262,2024-12-27T17:36:48.262Z,27762,-0.061462402,-0.10473633,-0.010437012
1735321008286,2024-12-27T17:36:48.286Z,27786,-0.068359375,-0.103027344,-0.008178711
1735321008292,2024-12-27T17:36:48.292Z,27792,-0.070251465,-0.10296631,-0.008911133
1735321008298,2024-12-27T17:36:48.298Z,27798,-0.068115234,-0.101135254,-0.0078125
1735321008303,2024-12-27T17:36:48.303Z,27803,-0.06829834,-0.099243164,-0.00793457
1735321008329,2024-12-27T17:36:48.329Z,27829,-0.06994629,-0.099121094,-0.01171875
1735321008335,2024-12-27T17:36:48.335Z,27835,-0.06762695,-0.10205078,-0.01751709
1735321008342,2024-12-27T17:36:48.342Z,27842,-0.06817627,-0.10455322,-0.018493652
1735321008380,2024-12-27T17:36:48.380Z,27880,-0.07348633,-0.10534668,-0.017700195
1735321008387,2024-12-27T17:36:48.387Z,27887,-0.07611084,-0.10272217,-0.013977051
1735321008394,2024-12-27T17:36:48.394Z,27894,-0.08026123,-0.09820557,-0.011108398
1735321008402,2024-12-27T17:36:48.402Z,27902,-0.080200195,-0.09552002,-0.010925293
1735321008409,2024-12-27T17:36:48.409Z,27909,-0.07659912,-0.095825195,-0.009521484
1735321008423,2024-12-27T17:36:48.423Z,27923,-0.072753906,-0.09942627,-0.01586914
1735321008429,2024-12-27T17:36:48.429Z,27929,-0.06719971,-0.101379395,-0.018249512
1735321008435,2024-12-27T17:36:48.435Z,27935,-0.07458496,-0.10131836,-0.015930176
1735321008441,2024-12-27T17:36:48.441Z,27941,-0.07287598,-0.103149414,-0.015625
1735321008448,2024-12-27T17:36:48.448Z,27948,-0.072265625,-0.0982666,-0.012817383
1735321008453,2024-12-27T17:36:48.453Z,27953,-0.083862305,-0.09552002,-0.0076293945
1735321008468,2024-12-27T17:36:48.468Z,27968,-0.08068848,-0.09844971,-0.007751465
1735321008475,2024-12-27T17:36:48.475Z,27975,-0.07940674,-0.097717285,-0.008972168
1735321008481,2024-12-27T17:36:48.481Z,27981,-0.07952881,-0.09954834,-0.010437012
1735321008486,2024-12-27T17:36:48.486Z,27986,-0.07531738,-0.10211182,-0.015380859
1735321008510,2024-12-27T17:36:48.510Z,28010,-0.07336426,-0.1027832,-0.015258789
1735321008517,2024-12-27T17:36:48.517Z,28017,-0.07745361,-0.10247803,-0.015197754
1735321008523,2024-12-27T17:36:48.523Z,28023,-0.08001709,-0.101379395,-0.013916016
1735321008529,2024-12-27T17:36:48.529Z,28029,-0.08013916,-0.10021973,-0.00970459
1735321008534,2024-12-27T17:36:48.534Z,28034,-0.08337402,-0.09832764,-0.006591797
1735321008602,2024-12-27T17:36:48.602Z,28102,-0.08734131,-0.09661865,-0.006652832
1735321008609,2024-12-27T17:36:48.609Z,28109,-0.08734131,-0.097351074,-0.008422852
1735321008615,2024-12-27T17:36:48.615Z,28115,-0.08392334,-0.10003662,-0.008605957
1735321008621,2024-12-27T17:36:48.621Z,28121,-0.08294678,-0.10021973,-0.010437012
1735321008627,2024-12-27T17:36:48.627Z,28127,-0.080200195,-0.101745605,-0.014709473
1735321008633,2024-12-27T17:36:48.633Z,28133,-0.07476807,-0.10223389,-0.01550293
1735321008649,2024-12-27T17:36:48.649Z,28149,-0.0803833,-0.09729004,-0.010925293
1735321008655,2024-12-27T17:36:48.655Z,28155,-0.091430664,-0.095581055,-0.004638672
1735321008661,2024-12-27T17:36:48.661Z,28161,-0.09051514,-0.0970459,-0.0045776367
1735321008666,2024-12-27T17:36:48.666Z,28166,-0.085998535,-0.0982666,-0.007019043
1735321008672,2024-12-27T17:36:48.672Z,28172,-0.079589844,-0.10058594,-0.009155273
1735321008690,2024-12-27T17:36:48.690Z,28190,-0.07904053,-0.09942627,-0.0068359375
1735321008696,2024-12-27T17:36:48.696Z,28196,-0.08337402,-0.09954834,-0.009216309
1735321008701,2024-12-27T17:36:48.701Z,28201,-0.07940674,-0.10241699,-0.013549805
1735321008706,2024-12-27T17:36:48.706Z,28206,-0.090270996,-0.0982666,-0.0068969727
1735321008712,2024-12-27T17:36:48.712Z,28212,-0.092041016,-0.0970459,-0.0053710938
1735321008717,2024-12-27T17:36:48.717Z,28217,-0.09173584,-0.095947266,-0.0040893555
1735321008739,2024-12-27T17:36:48.739Z,28239,-0.09838867,-0.09411621,-0.0026855469
1735321008745,2024-12-27T17:36:48.745Z,28245,-0.095703125,-0.09448242,-0.0053710938
1735321008751,2024-12-27T17:36:48.751Z,28251,-0.08605957,-0.09625244,-0.0099487305
1735321008758,2024-12-27T17:36:48.758Z,28258,-0.08569336,-0.09649658,-0.009033203
1735321008764,2024-12-27T17:36:48.764Z,28264,-0.089416504,-0.09710693,-0.0107421875
1735321008779,2024-12-27T17:36:48.779Z,28279,-0.08685303,-0.09674072,-0.013671875
1735321008785,2024-12-27T17:36:48.785Z,28285,-0.08496094,-0.09527588,-0.010009766
1735321008791,2024-12-27T17:36:48.791Z,28291,-0.097839355,-0.09033203,0.001159668
1735321008797,2024-12-27T17:36:48.797Z,28297,-0.103759766,-0.08459473,0.0063476562
1735321008825,2024-12-27T17:36:48.825Z,28325,-0.084472656,-0.08673096,1.8310547E-4
1735321008830,2024-12-27T17:36:48.830Z,28330,-0.075927734,-0.09118652,-0.006958008
1735321008836,2024-12-27T17:36:48.836Z,28336,-0.080200195,-0.09564209,-0.0073242188
1735321008842,2024-12-27T17:36:48.842Z,28342,-0.07684326,-0.09454346,-0.0064697266
1735321008848,2024-12-27T17:36:48.848Z,28348,-0.078552246,-0.088256836,-0.0032348633
1735321008870,2024-12-27T17:36:48.870Z,28370,-0.081604004,-0.08782959,-6.1035156E-5
1735321008876,2024-12-27T17:36:48.876Z,28376,-0.08654785,-0.08746338,0.0026855469
1735321008881,2024-12-27T17:36:48.881Z,28381,-0.08892822,-0.08477783,0.005065918
1735321008886,2024-12-27T17:36:48.886Z,28386,-0.081726074,-0.0859375,0.0022583008
1735321008915,2024-12-27T17:36:48.915Z,28415,-0.07702637,-0.0904541,-0.004211426
1735321008921,2024-12-27T17:36:48.921Z,28421,-0.07476807,-0.096069336,-0.0071411133
1735321008927,2024-12-27T17:36:48.927Z,28427,-0.07904053,-0.09875488,-0.006958008
1735321008933,2024-12-27T17:36:48.933Z,28433,-0.08392334,-0.09655762,-0.0033569336
1735321008961,2024-12-27T17:36:48.961Z,28461,-0.08868408,-0.09313965,0.0022583008
1735321008968,2024-12-27T17:36:48.968Z,28468,-0.08850098,-0.09631348,0.0045776367
1735321008975,2024-12-27T17:36:48.975Z,28475,-0.08679199,-0.095336914,0.005554199
1735321008982,2024-12-27T17:36:48.982Z,28482,-0.07861328,-0.09765625,0.0013427734
1735321008989,2024-12-27T17:36:48.989Z,28489,-0.07159424,-0.10406494,-0.0015258789
1735321009005,2024-12-27T17:36:49.005Z,28505,-0.07537842,-0.1015625,0.0021972656
1735321009012,2024-12-27T17:36:49.012Z,28512,-0.071899414,-0.10028076,0.0020751953
1735321009018,2024-12-27T17:36:49.018Z,28518,-0.0725708,-0.10223389,0.0036010742
1735321009024,2024-12-27T17:36:49.024Z,28524,-0.0791626,-0.101867676,0.0065307617
1735321009142,2024-12-27T17:36:49.142Z,28642,-0.07458496,-0.09765625,0.010070801
1735321009148,2024-12-27T17:36:49.148Z,28648,-0.07470703,-0.09442139,0.009094238
1735321009154,2024-12-27T17:36:49.154Z,28654,-0.070251465,-0.09899902,0.0052490234
1735321009159,2024-12-27T17:36:49.159Z,28659,-0.06793213,-0.10638428,0.0041503906
1735321009165,2024-12-27T17:36:49.165Z,28665,-0.07525635,-0.11254883,0.0032348633
1735321009170,2024-12-27T17:36:49.170Z,28670,-0.07043457,-0.11230469,0.0021972656
1735321009190,2024-12-27T17:36:49.190Z,28690,-0.06933594,-0.107910156,0.0024414062
1735321009197,2024-12-27T17:36:49.197Z,28697,-0.07092285,-0.10839844,0.004333496
1735321009204,2024-12-27T17:36:49.204Z,28704,-0.075683594,-0.10491943,0.008056641
1735321009212,2024-12-27T17:36:49.212Z,28712,-0.06933594,-0.10498047,0.0071411133
1735321009219,2024-12-27T17:36:49.219Z,28719,-0.06414795,-0.107910156,0.006591797
1735321009231,2024-12-27T17:36:49.231Z,28731,-0.057861328,-0.112854004,0.0028686523
1735321009238,2024-12-27T17:36:49.238Z,28738,-0.058898926,-0.10949707,0.005554199
1735321009246,2024-12-27T17:36:49.246Z,28746,-0.05810547,-0.10723877,0.006958008
1735321009252,2024-12-27T17:36:49.252Z,28752,-0.05456543,-0.10638428,0.0079956055
1735321009259,2024-12-27T17:36:49.259Z,28759,-0.055480957,-0.10595703,0.007873535
1735321009265,2024-12-27T17:36:49.265Z,28765,-0.0524292,-0.10723877,0.0076293945
1735321009280,2024-12-27T17:36:49.280Z,28780,-0.050842285,-0.110839844,0.0026855469
1735321009286,2024-12-27T17:36:49.286Z,28786,-0.053955078,-0.11395264,0.0026855469
1735321009293,2024-12-27T17:36:49.293Z,28793,-0.056518555,-0.11010742,0.008422852
1735321009299,2024-12-27T17:36:49.299Z,28799,-0.059387207,-0.1083374,0.0072631836
1735321009304,2024-12-27T17:36:49.304Z,28804,-0.057922363,-0.1104126,0.0068969727
1735321009321,2024-12-27T17:36:49.321Z,28821,-0.057861328,-0.11010742,0.0071411133
1735321009328,2024-12-27T17:36:49.328Z,28828,-0.051757812,-0.11047363,0.00390625
1735321009334,2024-12-27T17:36:49.334Z,28834,-0.049621582,-0.11230469,0.0020751953
1735321009339,2024-12-27T17:36:49.339Z,28839,-0.058288574,-0.11468506,0.0032958984
1735321009345,2024-12-27T17:36:49.345Z,28845,-0.06329346,-0.11566162,0.0018310547
1735321009350,2024-12-27T17:36:49.350Z,28850,-0.059020996,-0.11730957,0.0024414062
1735321009459,2024-12-27T17:36:49.459Z,28959,-0.056152344,-0.11920166,0.0020141602
1735321009464,2024-12-27T17:36:49.464Z,28964,-0.06439209,-0.11816406,0.0020751953
1735321009470,2024-12-27T17:36:49.470Z,28970,-0.0657959,-0.116760254,0.0053710938
1735321009547,2024-12-27T17:36:49.547Z,29047,-0.061035156,-0.11639404,0.003112793
1735321009554,2024-12-27T17:36:49.554Z,29054,-0.06304932,-0.11834717,-5.493164E-4
1735321009561,2024-12-27T17:36:49.561Z,29061,-0.068359375,-0.11993408,1.2207031E-4
1735321009569,2024-12-27T17:36:49.569Z,29069,-0.07092285,-0.11956787,-0.001953125
1735321009575,2024-12-27T17:36:49.575Z,29075,-0.06677246,-0.1217041,-0.005126953
1735321009582,2024-12-27T17:36:49.582Z,29082,-0.07141113,-0.12164307,-0.004333496
1735321009641,2024-12-27T17:36:49.641Z,29141,-0.07232666,-0.12084961,-0.003112793
1735321009682,2024-12-27T17:36:49.682Z,29182,-0.067871094,-0.120666504,-0.0015258789
1735321009687,2024-12-27T17:36:49.687Z,29187,-0.07489014,-0.119384766,-0.006958008
1735321009696,2024-12-27T17:36:49.696Z,29196,-0.07879639,-0.11651611,-0.0053100586
1735321009705,2024-12-27T17:36:49.705Z,29205,-0.07305908,-0.11212158,-0.0045776367
1735321009714,2024-12-27T17:36:49.714Z,29214,-0.072143555,-0.109313965,-0.006713867
1735321009723,2024-12-27T17:36:49.723Z,29223,-0.059814453,-0.10101318,-0.010375977
1735321009731,2024-12-27T17:36:49.731Z,29231,-0.06036377,-0.10223389,-0.014892578
1735321009739,2024-12-27T17:36:49.739Z,29239,-0.055786133,-0.10284424,-0.014587402
1735321009747,2024-12-27T17:36:49.747Z,29247,-0.062683105,-0.1003418,-0.010498047
1735321009818,2024-12-27T17:36:49.818Z,29318,-0.06298828,-0.09869385,-0.00982666
1735321009827,2024-12-27T17:36:49.827Z,29327,-0.05871582,-0.097961426,-0.007446289
1735321009831,2024-12-27T17:36:49.831Z,29331,-0.06939697,-0.105773926,-0.010009766
1735321009839,2024-12-27T17:36:49.839Z,29339,-0.06781006,-0.10656738,-0.009521484
1735321009843,2024-12-27T17:36:49.843Z,29343,-0.06842041,-0.10510254,-0.0036621094
1735321009847,2024-12-27T17:36:49.847Z,29347,-0.06616211,-0.10534668,-0.0021362305
1735321009854,2024-12-27T17:36:49.854Z,29354,-0.06921387,-0.10595703,-0.0029296875
1735321009864,2024-12-27T17:36:49.864Z,29364,-0.068359375,-0.10760498,-0.005432129
1735321009872,2024-12-27T17:36:49.872Z,29372,-0.064697266,-0.109069824,-0.0038452148
1735321009879,2024-12-27T17:36:49.879Z,29379,-0.06744385,-0.107666016,-0.0029907227
1735321009889,2024-12-27T17:36:49.889Z,29389,-0.06524658,-0.10772705,-0.005126953
1735321009895,2024-12-27T17:36:49.895Z,29395,-0.062438965,-0.106933594,-0.0036621094
1735321009901,2024-12-27T17:36:49.901Z,29401,-0.06188965,-0.10650635,-7.324219E-4
1735321009996,2024-12-27T17:36:49.996Z,29496,-0.061462402,-0.105773926,-5.493164E-4
1735321010000,2024-12-27T17:36:50Z,29500,-0.05847168,-0.109436035,-0.0040283203
1735321010005,2024-12-27T17:36:50.005Z,29505,-0.059814453,-0.10888672,-0.0015258789
1735321010010,2024-12-27T17:36:50.010Z,29510,-0.06085205,-0.10772705,-0.0015258789
1735321010015,2024-12-27T17:36:50.015Z,29515,-0.05810547,-0.10870361,-0.0014648438
1735321010021,2024-12-27T17:36:50.021Z,29521,-0.055419922,-0.10949707,-0.0020751953
1735321010086,2024-12-27T17:36:50.086Z,29586,-0.056762695,-0.11010742,-0.002319336
1735321010131,2024-12-27T17:36:50.131Z,29631,-0.05718994,-0.1116333,-0.0040283203
1735321010139,2024-12-27T17:36:50.139Z,29639,-0.05645752,-0.112976074,-0.003112793
1735321010147,2024-12-27T17:36:50.147Z,29647,-0.060791016,-0.111816406,-7.9345703E-4
1735321010154,2024-12-27T17:36:50.154Z,29654,-0.060058594,-0.111816406,-4.8828125E-4
1735321010162,2024-12-27T17:36:50.162Z,29662,-0.059143066,-0.1116333,5.493164E-4
1735321010222,2024-12-27T17:36:50.222Z,29722,-0.06048584,-0.11218262,7.324219E-4
1735321010268,2024-12-27T17:36:50.268Z,29768,-0.057373047,-0.11254883,-4.272461E-4
1735321010280,2024-12-27T17:36:50.280Z,29780,-0.057556152,-0.111572266,0.0018920898
1735321010293,2024-12-27T17:36:50.293Z,29793,-0.06201172,-0.11016846,0.003479004
1735321010302,2024-12-27T17:36:50.302Z,29802,-0.059509277,-0.10992432,0.003479004
1735321010311,2024-12-27T17:36:50.311Z,29811,-0.058410645,-0.10974121,0.0037231445
1735321010319,2024-12-27T17:36:50.319Z,29819,-0.05718994,-0.11260986,0.0010375977
1735321010412,2024-12-27T17:36:50.412Z,29912,-0.06573486,-0.11804199,0.0017700195
1735321010425,2024-12-27T17:36:50.425Z,29925,-0.06707764,-0.12084961,7.9345703E-4
1735321010439,2024-12-27T17:36:50.439Z,29939,-0.06335449,-0.122924805,6.713867E-4
1735321010454,2024-12-27T17:36:50.454Z,29954,-0.06518555,-0.12249756,0.0020751953
1735321010468,2024-12-27T17:36:50.468Z,29968,-0.07434082,-0.12133789,0.0068969727
1735321010539,2024-12-27T17:36:50.539Z,30039,-0.07055664,-0.12347412,0.005065918
1735321010546,2024-12-27T17:36:50.546Z,30046,-0.07110596,-0.116760254,0.007019043
1735321010561,2024-12-27T17:36:50.561Z,30061,-0.06793213,-0.11669922,0.0056762695
1735321010574,2024-12-27T17:36:50.574Z,30074,-0.07116699,-0.11621094,0.005065918
1735321010585,2024-12-27T17:36:50.585Z,30085,-0.07354736,-0.11651611,0.0051879883
1735321010593,2024-12-27T17:36:50.593Z,30093,-0.07122803,-0.117004395,0.0031738281
1735321010601,2024-12-27T17:36:50.601Z,30101,-0.07086182,-0.11791992,0.0036010742
1735321010605,2024-12-27T17:36:50.605Z,30105,-0.07092285,-0.1182251,0.0025634766
1735321010613,2024-12-27T17:36:50.613Z,30113,-0.06347656,-0.12121582,-0.001953125
1735321010619,2024-12-27T17:36:50.619Z,30119,-0.070495605,-0.118652344,6.1035156E-4
1735321010625,2024-12-27T17:36:50.625Z,30125,-0.080078125,-0.11517334,0.004638672
1735321010632,2024-12-27T17:36:50.632Z,30132,-0.0793457,-0.113586426,0.0029907227
1735321010638,2024-12-27T17:36:50.638Z,30138,-0.0725708,-0.114990234,-0.0012817383
1735321010641,2024-12-27T17:36:50.641Z,30141,-0.0657959,-0.103515625,-0.0015869141
1735321010672,2024-12-27T17:36:50.672Z,30172,-0.07116699,-0.10308838,0.0012817383
1735321010678,2024-12-27T17:36:50.678Z,30178,-0.06903076,-0.101989746,-9.1552734E-4
1735321010684,2024-12-27T17:36:50.684Z,30184,-0.070739746,-0.10144043,1.2207031E-4
1735321010689,2024-12-27T17:36:50.689Z,30189,-0.07287598,-0.0982666,0.0016479492
1735321010695,2024-12-27T17:36:50.695Z,30195,-0.07196045,-0.09637451,-1.8310547E-4
1735321010701,2024-12-27T17:36:50.701Z,30201,-0.07562256,-0.097595215,6.1035156E-5
1735321010718,2024-12-27T17:36:50.718Z,30218,-0.07543945,-0.09979248,-5.493164E-4
1735321010723,2024-12-27T17:36:50.723Z,30223,-0.07824707,-0.099609375,-0.0016479492
1735321010730,2024-12-27T17:36:50.730Z,30230,-0.07952881,-0.09863281,-0.0031738281
1735321010735,2024-12-27T17:36:50.735Z,30235,-0.07562256,-0.09564209,-0.006225586
1735321010741,2024-12-27T17:36:50.741Z,30241,-0.07269287,-0.09503174,-0.006958008
1735321010760,2024-12-27T17:36:50.760Z,30260,-0.083984375,-0.091918945,-6.713867E-4
1735321010767,2024-12-27T17:36:50.767Z,30267,-0.086120605,-0.0925293,8.544922E-4
1735321010772,2024-12-27T17:36:50.772Z,30272,-0.0791626,-0.09643555,-0.006591797
1735321010777,2024-12-27T17:36:50.777Z,30277,-0.07281494,-0.097717285,-0.009887695
1735321010783,2024-12-27T17:36:50.783Z,30283,-0.0871582,-0.0914917,-0.0015258789
1735321010788,2024-12-27T17:36:50.788Z,30288,-0.08074951,-0.09136963,-0.00579834
1735321010808,2024-12-27T17:36:50.808Z,30308,-0.07751465,-0.093444824,-0.00579834
1735321010854,2024-12-27T17:36:50.854Z,30354,-0.08502197,-0.09283447,-0.0025634766
1735321010860,2024-12-27T17:36:50.860Z,30360,-0.083496094,-0.0914917,-0.0014648438
1735321010867,2024-12-27T17:36:50.867Z,30367,-0.08758545,-0.09326172,-3.6621094E-4
1735321010874,2024-12-27T17:36:50.874Z,30374,-0.08459473,-0.09454346,-0.0031738281
1735321010882,2024-12-27T17:36:50.882Z,30382,-0.07354736,-0.095458984,-0.008911133
1735321010899,2024-12-27T17:36:50.899Z,30399,-0.078308105,-0.093566895,-0.005004883
1735321010906,2024-12-27T17:36:50.906Z,30406,-0.078308105,-0.09173584,-0.0036621094
1735321010911,2024-12-27T17:36:50.911Z,30411,-0.07574463,-0.091796875,-0.0016479492
1735321010917,2024-12-27T17:36:50.917Z,30417,-0.08526611,-0.09051514,0.0017700195
1735321010922,2024-12-27T17:36:50.922Z,30422,-0.08392334,-0.0927124,0.0028076172
1735321010927,2024-12-27T17:36:50.927Z,30427,-0.079589844,-0.09490967,5.493164E-4
1735321010940,2024-12-27T17:36:50.940Z,30440,-0.076538086,-0.09686279,-0.0033569336
1735321010946,2024-12-27T17:36:50.946Z,30446,-0.078125,-0.09576416,-0.0015869141
1735321010951,2024-12-27T17:36:50.951Z,30451,-0.077941895,-0.09411621,-0.0030517578
1735321010957,2024-12-27T17:36:50.957Z,30457,-0.07873535,-0.09436035,-3.6621094E-4
1735321010963,2024-12-27T17:36:50.963Z,30463,-0.089416504,-0.095458984,0.0049438477
1735321010968,2024-12-27T17:36:50.968Z,30468,-0.085632324,-0.096069336,0.0032348633
1735321010989,2024-12-27T17:36:50.989Z,30489,-0.085632324,-0.09576416,0.003112793
1735321010995,2024-12-27T17:36:50.995Z,30495,-0.08123779,-0.099365234,3.0517578E-4
1735321011002,2024-12-27T17:36:51.002Z,30502,-0.076538086,-0.10003662,-4.8828125E-4
1735321011007,2024-12-27T17:36:51.007Z,30507,-0.07739258,-0.099731445,-3.0517578E-4
1735321011013,2024-12-27T17:36:51.013Z,30513,-0.075927734,-0.0993042,6.1035156E-5
1735321011030,2024-12-27T17:36:51.030Z,30530,-0.07623291,-0.10064697,9.765625E-4
1735321011036,2024-12-27T17:36:51.036Z,30536,-0.08453369,-0.09851074,0.007507324
1735321011041,2024-12-27T17:36:51.041Z,30541,-0.08782959,-0.095581055,0.009155273
1735321011047,2024-12-27T17:36:51.047Z,30547,-0.07946777,-0.09906006,0.003540039
1735321011052,2024-12-27T17:36:51.052Z,30552,-0.07720947,-0.10235596,0.002746582
1735321011057,2024-12-27T17:36:51.057Z,30557,-0.078063965,-0.10205078,0.0010986328
1735321011079,2024-12-27T17:36:51.079Z,30579,-0.06921387,-0.101867676,0.0
1735321011085,2024-12-27T17:36:51.085Z,30585,-0.07373047,-0.101135254,0.0020141602
1735321011090,2024-12-27T17:36:51.090Z,30590,-0.08306885,-0.09869385,0.008605957
1735321011097,2024-12-27T17:36:51.097Z,30597,-0.085510254,-0.09893799,0.011291504
1735321011103,2024-12-27T17:36:51.103Z,30603,-0.08911133,-0.09692383,0.0099487305
1735321011120,2024-12-27T17:36:51.120Z,30620,-0.07171631,-0.10083008,-0.0012207031
1735321011126,2024-12-27T17:36:51.126Z,30626,-0.056030273,-0.10748291,-0.0056762695
1735321011133,2024-12-27T17:36:51.133Z,30633,-0.07171631,-0.1038208,-1.8310547E-4
1735321011140,2024-12-27T17:36:51.140Z,30640,-0.07086182,-0.10180664,-0.0036010742
1735321011164,2024-12-27T17:36:51.164Z,30664,-0.06652832,-0.10192871,-0.0010986328
1735321011170,2024-12-27T17:36:51.170Z,30670,-0.08001709,-0.099487305,0.0057373047
1735321011176,2024-12-27T17:36:51.176Z,30676,-0.08404541,-0.09613037,0.009338379
1735321011210,2024-12-27T17:36:51.210Z,30710,-0.07434082,-0.09527588,0.005126953
1735321011216,2024-12-27T17:36:51.216Z,30716,-0.061706543,-0.10241699,-0.0018310547
1735321011222,2024-12-27T17:36:51.222Z,30722,-0.06561279,-0.103759766,-0.0012817383
1735321011228,2024-12-27T17:36:51.228Z,30728,-0.06604004,-0.10424805,-0.0018920898
1735321011235,2024-12-27T17:36:51.235Z,30735,-0.06402588,-0.10272217,-0.0024414062
1735321011241,2024-12-27T17:36:51.241Z,30741,-0.059814453,-0.10266113,0.002319336
1735321011260,2024-12-27T17:36:51.260Z,30760,-0.06402588,-0.09967041,0.0072021484
1735321011266,2024-12-27T17:36:51.266Z,30766,-0.07147217,-0.095703125,0.008544922
1735321011272,2024-12-27T17:36:51.272Z,30772,-0.060180664,-0.097961426,0.0072631836
1735321011278,2024-12-27T17:36:51.278Z,30778,-0.05114746,-0.10235596,-0.0014648438
1735321011284,2024-12-27T17:36:51.284Z,30784,-0.047729492,-0.107543945,-0.0021972656
1735321011301,2024-12-27T17:36:51.301Z,30801,-0.054504395,-0.10583496,4.8828125E-4
1735321011306,2024-12-27T17:36:51.306Z,30806,-0.05065918,-0.10827637,-3.6621094E-4
1735321011313,2024-12-27T17:36:51.313Z,30813,-0.05419922,-0.10522461,0.0073242188
1735321011319,2024-12-27T17:36:51.319Z,30819,-0.060546875,-0.10211182,0.011474609
1735321011347,2024-12-27T17:36:51.347Z,30847,-0.05633545,-0.10180664,0.012207031
1735321011353,2024-12-27T17:36:51.353Z,30853,-0.047912598,-0.1027832,0.008422852
1735321011359,2024-12-27T17:36:51.359Z,30859,-0.04156494,-0.10772705,-2.4414062E-4
1735321011365,2024-12-27T17:36:51.365Z,30865,-0.03869629,-0.1081543,-0.006591797
1735321011371,2024-12-27T17:36:51.371Z,30871,-0.039367676,-0.10687256,-0.005126953
1735321011390,2024-12-27T17:36:51.390Z,30890,-0.041748047,-0.10595703,0.0014648438
1735321011396,2024-12-27T17:36:51.396Z,30896,-0.05328369,-0.10021973,0.0064086914
1735321011403,2024-12-27T17:36:51.403Z,30903,-0.051574707,-0.09844971,0.0067749023
1735321011408,2024-12-27T17:36:51.408Z,30908,-0.03741455,-0.10107422,0.0053100586
1735321011435,2024-12-27T17:36:51.435Z,30935,-0.033569336,-0.10491943,0.0024414062
1735321011441,2024-12-27T17:36:51.441Z,30941,-0.03173828,-0.10845947,0.0017089844
1735321011447,2024-12-27T17:36:51.447Z,30947,-0.031555176,-0.107055664,0.0029907227
1735321011453,2024-12-27T17:36:51.453Z,30953,-0.03765869,-0.10461426,0.0013427734
1735321011480,2024-12-27T17:36:51.480Z,30980,-0.037719727,-0.1026001,0.0018310547
1735321011486,2024-12-27T17:36:51.486Z,30986,-0.02758789,-0.10430908,0.003967285
1735321011492,2024-12-27T17:36:51.492Z,30992,-0.028869629,-0.10461426,0.004333496
1735321011498,2024-12-27T17:36:51.498Z,30998,-0.011047363,-0.12188721,0.014038086
1735321011504,2024-12-27T17:36:51.504Z,31004,-0.02520752,-0.09875488,0.0030517578
1735321011525,2024-12-27T17:36:51.525Z,31025,-0.07965088,-0.09295654,0.0017089844
1735321011533,2024-12-27T17:36:51.533Z,31033,-0.0289917,-0.12487793,0.00592041
1735321011540,2024-12-27T17:36:51.540Z,31040,0.010070801,-0.12145996,0.0030517578
1735321011546,2024-12-27T17:36:51.546Z,31046,-0.023986816,-0.11279297,0.0018310547
1735321011569,2024-12-27T17:36:51.569Z,31069,-0.04827881,-0.10998535,0.0059814453
1735321011574,2024-12-27T17:36:51.574Z,31074,-0.034240723,-0.110961914,0.0072631836
1735321011579,2024-12-27T17:36:51.579Z,31079,-0.021240234,-0.11602783,0.004699707
1735321011584,2024-12-27T17:36:51.584Z,31084,-0.013000488,-0.118896484,0.003967285
1735321011589,2024-12-27T17:36:51.589Z,31089,-0.01776123,-0.11224365,0.009216309
1735321011616,2024-12-27T17:36:51.616Z,31116,-0.018798828,-0.1138916,0.0072021484
1735321011621,2024-12-27T17:36:51.621Z,31121,-0.018310547,-0.11791992,0.009460449
1735321011626,2024-12-27T17:36:51.626Z,31126,-0.020324707,-0.116882324,0.009765625
1735321011633,2024-12-27T17:36:51.633Z,31133,-0.024841309,-0.116760254,0.0029907227
1735321011712,2024-12-27T17:36:51.712Z,31212,-0.02722168,-0.11694336,0.0026245117
1735321011719,2024-12-27T17:36:51.719Z,31219,-0.015136719,-0.12219238,0.004333496
1735321011727,2024-12-27T17:36:51.727Z,31227,-0.014404297,-0.11834717,0.010803223
1735321011734,2024-12-27T17:36:51.734Z,31234,-0.017456055,-0.11456299,0.010437012
1735321011741,2024-12-27T17:36:51.741Z,31241,-0.019714355,-0.11425781,0.007385254
1735321011748,2024-12-27T17:36:51.748Z,31248,-0.015197754,-0.11352539,0.0063476562
1735321011756,2024-12-27T17:36:51.756Z,31256,-0.016906738,-0.114868164,0.004211426
1735321011763,2024-12-27T17:36:51.763Z,31263,-0.02557373,-0.12023926,0.002380371
1735321011770,2024-12-27T17:36:51.770Z,31270,-0.02520752,-0.123535156,0.00793457
1735321011776,2024-12-27T17:36:51.776Z,31276,-0.019470215,-0.12298584,0.011230469
1735321011783,2024-12-27T17:36:51.783Z,31283,-0.015136719,-0.12219238,0.008605957
1735321011798,2024-12-27T17:36:51.798Z,31298,-0.019226074,-0.120788574,0.010559082
1735321011804,2024-12-27T17:36:51.804Z,31304,-0.023498535,-0.11956787,0.009765625
1735321011809,2024-12-27T17:36:51.809Z,31309,-0.021606445,-0.11968994,0.0021972656
1735321011816,2024-12-27T17:36:51.816Z,31316,-0.022766113,-0.12615967,2.4414062E-4
1735321011821,2024-12-27T17:36:51.821Z,31321,-0.018981934,-0.13079834,0.0044555664
1735321011826,2024-12-27T17:36:51.826Z,31326,-0.01727295,-0.12530518,0.00579834
1735321011842,2024-12-27T17:36:51.842Z,31342,-0.017700195,-0.120666504,0.0072631836
1735321011848,2024-12-27T17:36:51.848Z,31348,-0.012878418,-0.12213135,0.0072021484
1735321011854,2024-12-27T17:36:51.854Z,31354,-0.016784668,-0.12365723,0.010070801
1735321011859,2024-12-27T17:36:51.859Z,31359,-0.025268555,-0.123535156,0.012023926
1735321011864,2024-12-27T17:36:51.864Z,31364,-0.028747559,-0.12536621,0.0073242188
1735321011889,2024-12-27T17:36:51.889Z,31389,-0.024414062,-0.12384033,0.007080078
1735321011895,2024-12-27T17:36:51.895Z,31395,-0.015319824,-0.1217041,0.005554199
1735321011901,2024-12-27T17:36:51.901Z,31401,-0.016357422,-0.1194458,0.006652832
1735321011907,2024-12-27T17:36:51.907Z,31407,-0.019897461,-0.11791992,0.008666992
1735321011912,2024-12-27T17:36:51.912Z,31412,-0.023986816,-0.11401367,0.007019043
1735321011930,2024-12-27T17:36:51.930Z,31430,-0.018432617,-0.11462402,0.005859375
1735321011976,2024-12-27T17:36:51.976Z,31476,-0.008728027,-0.11785889,0.008300781
1735321011983,2024-12-27T17:36:51.983Z,31483,-0.015075684,-0.11804199,0.008300781
1735321011989,2024-12-27T17:36:51.989Z,31489,-0.015991211,-0.11999512,0.0064086914
1735321011996,2024-12-27T17:36:51.996Z,31496,-0.0154418945,-0.1182251,0.0068969727
1735321012003,2024-12-27T17:36:52.003Z,31503,-0.021484375,-0.11553955,0.0071411133
1735321012009,2024-12-27T17:36:52.009Z,31509,-0.019226074,-0.11608887,0.004211426
1735321012023,2024-12-27T17:36:52.023Z,31523,-0.016601562,-0.11413574,0.008300781
1735321012029,2024-12-27T17:36:52.029Z,31529,-0.019348145,-0.115600586,0.011108398
1735321012035,2024-12-27T17:36:52.035Z,31535,-0.018066406,-0.11981201,0.011108398
1735321012041,2024-12-27T17:36:52.041Z,31541,-0.01739502,-0.119628906,0.011047363
1735321012046,2024-12-27T17:36:52.046Z,31546,-0.0134887695,-0.11834717,0.0045166016
1735321012067,2024-12-27T17:36:52.067Z,31567,-0.021362305,-0.118896484,0.002319336
1735321012073,2024-12-27T17:36:52.073Z,31573,-0.028503418,-0.11639404,0.0048217773
1735321012079,2024-12-27T17:36:52.079Z,31579,-0.028930664,-0.11260986,0.005004883
1735321012085,2024-12-27T17:36:52.085Z,31585,-0.018127441,-0.11645508,0.0053100586
1735321012090,2024-12-27T17:36:52.090Z,31590,-0.013916016,-0.12005615,0.009643555
1735321012094,2024-12-27T17:36:52.094Z,31594,-0.016540527,-0.1204834,0.012268066
1735321012113,2024-12-27T17:36:52.113Z,31613,-0.017822266,-0.12286377,0.011291504
1735321012119,2024-12-27T17:36:52.119Z,31619,-0.020751953,-0.12298584,0.009399414
1735321012125,2024-12-27T17:36:52.125Z,31625,-0.025024414,-0.11907959,0.007873535
1735321012130,2024-12-27T17:36:52.130Z,31630,-0.024353027,-0.117370605,0.0072631836
1735321012154,2024-12-27T17:36:52.154Z,31654,-0.024658203,-0.118896484,0.0053100586
1735321012250,2024-12-27T17:36:52.250Z,31750,-0.020935059,-0.12054443,0.0053100586
1735321012256,2024-12-27T17:36:52.256Z,31756,-0.01184082,-0.12261963,0.008605957
1735321012262,2024-12-27T17:36:52.262Z,31762,-0.018798828,-0.12231445,0.01184082
1735321012269,2024-12-27T17:36:52.269Z,31769,-0.026611328,-0.11981201,0.014404297
1735321012278,2024-12-27T17:36:52.278Z,31778,-0.02734375,-0.11541748,0.014709473
1735321012291,2024-12-27T17:36:52.291Z,31791,-0.02722168,-0.11505127,0.011230469
1735321012300,2024-12-27T17:36:52.300Z,31800,-0.022888184,-0.11975098,0.0078125
1735321012308,2024-12-27T17:36:52.308Z,31808,-0.020690918,-0.12249756,0.008544922
1735321012314,2024-12-27T17:36:52.314Z,31814,-0.020568848,-0.12017822,0.009094238
1735321012321,2024-12-27T17:36:52.321Z,31821,-0.020690918,-0.11883545,0.012573242
1735321012327,2024-12-27T17:36:52.327Z,31827,-0.024536133,-0.11608887,0.012451172
1735321012337,2024-12-27T17:36:52.337Z,31837,-0.018859863,-0.117370605,0.013122559
1735321012342,2024-12-27T17:36:52.342Z,31842,-0.020507812,-0.117370605,0.015625
1735321012347,2024-12-27T17:36:52.347Z,31847,-0.02960205,-0.11364746,0.012207031
1735321012352,2024-12-27T17:36:52.352Z,31852,-0.023010254,-0.11456299,0.011047363
1735321012385,2024-12-27T17:36:52.385Z,31885,-0.018920898,-0.116760254,0.011230469
1735321012391,2024-12-27T17:36:52.391Z,31891,-0.02130127,-0.11456299,0.010070801
1735321012397,2024-12-27T17:36:52.397Z,31897,-0.025390625,-0.11199951,0.012390137
1735321012404,2024-12-27T17:36:52.404Z,31904,-0.024658203,-0.11553955,0.013061523
1735321012409,2024-12-27T17:36:52.409Z,31909,-0.021972656,-0.117492676,0.015380859
1735321012425,2024-12-27T17:36:52.425Z,31925,-0.026367188,-0.117004395,0.01727295
1735321012432,2024-12-27T17:36:52.432Z,31932,-0.028503418,-0.11804199,0.015075684
1735321012439,2024-12-27T17:36:52.439Z,31939,-0.022521973,-0.119018555,0.012023926
1735321012444,2024-12-27T17:36:52.444Z,31944,-0.018127441,-0.1217041,0.010437012
1735321012450,2024-12-27T17:36:52.450Z,31950,-0.020019531,-0.12451172,0.010986328
1735321012456,2024-12-27T17:36:52.456Z,31956,-0.025634766,-0.12384033,0.013977051
1735321012475,2024-12-27T17:36:52.475Z,31975,-0.028320312,-0.121276855,0.017211914
1735321012481,2024-12-27T17:36:52.481Z,31981,-0.028869629,-0.11981201,0.016662598
1735321012487,2024-12-27T17:36:52.487Z,31987,-0.026062012,-0.12054443,0.016174316
1735321012492,2024-12-27T17:36:52.492Z,31992,-0.020812988,-0.12182617,0.016845703
1735321012498,2024-12-27T17:36:52.498Z,31998,-0.020080566,-0.12145996,0.016479492
1735321012517,2024-12-27T17:36:52.517Z,32017,-0.022033691,-0.12005615,0.017150879
1735321012523,2024-12-27T17:36:52.523Z,32023,-0.025756836,-0.11828613,0.014282227
1735321012528,2024-12-27T17:36:52.528Z,32028,-0.027038574,-0.11651611,0.014160156
1735321012534,2024-12-27T17:36:52.534Z,32034,-0.026794434,-0.11352539,0.014282227
1735321012540,2024-12-27T17:36:52.540Z,32040,-0.024536133,-0.113342285,0.014038086
1735321012544,2024-12-27T17:36:52.544Z,32044,-0.017333984,-0.11480713,0.016296387
1735321012565,2024-12-27T17:36:52.565Z,32065,-0.023742676,-0.113098145,0.016967773
1735321012570,2024-12-27T17:36:52.570Z,32070,-0.026184082,-0.11425781,0.017211914
1735321012575,2024-12-27T17:36:52.575Z,32075,-0.024353027,-0.11242676,0.016113281
1735321012580,2024-12-27T17:36:52.580Z,32080,-0.026367188,-0.111572266,0.015197754
1735321012586,2024-12-27T17:36:52.586Z,32086,-0.025512695,-0.11242676,0.013671875
1735321012606,2024-12-27T17:36:52.606Z,32106,-0.024780273,-0.11090088,0.013549805
1735321012611,2024-12-27T17:36:52.611Z,32111,-0.02709961,-0.10949707,0.013427734
1735321012617,2024-12-27T17:36:52.617Z,32117,-0.024230957,-0.111328125,0.0126953125
1735321012622,2024-12-27T17:36:52.622Z,32122,-0.022338867,-0.113220215,0.013977051
1735321012628,2024-12-27T17:36:52.628Z,32128,-0.028747559,-0.11193848,0.013793945
1735321012650,2024-12-27T17:36:52.650Z,32150,-0.030212402,-0.1116333,0.0138549805
1735321012655,2024-12-27T17:36:52.655Z,32155,-0.026611328,-0.11315918,0.012634277
1735321012660,2024-12-27T17:36:52.660Z,32160,-0.028320312,-0.11315918,0.012756348
1735321012666,2024-12-27T17:36:52.666Z,32166,-0.024902344,-0.11419678,0.017333984
1735321012695,2024-12-27T17:36:52.695Z,32195,-0.026489258,-0.11090088,0.016418457
1735321012701,2024-12-27T17:36:52.701Z,32201,-0.029418945,-0.111083984,0.012023926
1735321012707,2024-12-27T17:36:52.707Z,32207,-0.027893066,-0.113220215,0.012145996
1735321012713,2024-12-27T17:36:52.713Z,32213,-0.033691406,-0.10852051,0.01361084
1735321012740,2024-12-27T17:36:52.740Z,32240,-0.03527832,-0.10583496,0.01373291
1735321012745,2024-12-27T17:36:52.745Z,32245,-0.024658203,-0.109680176,0.0154418945
1735321012751,2024-12-27T17:36:52.751Z,32251,-0.026855469,-0.10650635,0.0134887695
1735321012761,2024-12-27T17:36:52.761Z,32261,-0.022338867,-0.108947754,0.0134887695
1735321012770,2024-12-27T17:36:52.770Z,32270,-0.01373291,-0.114746094,0.016357422
1735321012785,2024-12-27T17:36:52.785Z,32285,-0.036193848,-0.109375,0.014770508
1735321012791,2024-12-27T17:36:52.791Z,32291,-0.04498291,-0.10675049,0.014221191
1735321012795,2024-12-27T17:36:52.795Z,32295,-0.03289795,-0.10620117,0.014221191
1735321012801,2024-12-27T17:36:52.801Z,32301,-0.029174805,-0.10632324,0.011657715
1735321012829,2024-12-27T17:36:52.829Z,32329,-0.022583008,-0.113098145,0.0138549805
1735321012836,2024-12-27T17:36:52.836Z,32336,-0.02368164,-0.11193848,0.015991211
1735321012842,2024-12-27T17:36:52.842Z,32342,-0.035461426,-0.109558105,0.013183594
1735321012847,2024-12-27T17:36:52.847Z,32347,-0.03881836,-0.11212158,0.01361084
1735321012853,2024-12-27T17:36:52.853Z,32353,-0.036193848,-0.11035156,0.0154418945
1735321012876,2024-12-27T17:36:52.876Z,32376,-0.042236328,-0.10662842,0.012817383
1735321012883,2024-12-27T17:36:52.883Z,32383,-0.031799316,-0.11462402,0.017700195
1735321012889,2024-12-27T17:36:52.889Z,32389,-0.029785156,-0.11743164,0.015991211
1735321012894,2024-12-27T17:36:52.894Z,32394,-0.039916992,-0.11291504,0.007080078
1735321012923,2024-12-27T17:36:52.923Z,32423,-0.035949707,-0.11328125,0.008361816
1735321012931,2024-12-27T17:36:52.931Z,32431,-0.029052734,-0.11553955,0.011779785
1735321012936,2024-12-27T17:36:52.936Z,32436,-0.041381836,-0.1126709,0.015014648
1735321012940,2024-12-27T17:36:52.940Z,32440,-0.044921875,-0.10974121,0.01739502
1735321012944,2024-12-27T17:36:52.944Z,32444,-0.033203125,-0.11206055,0.01739502
1735321013015,2024-12-27T17:36:53.015Z,32515,-0.04034424,-0.111450195,0.013183594
1735321013027,2024-12-27T17:36:53.027Z,32527,-0.048828125,-0.11218262,0.009521484
1735321013038,2024-12-27T17:36:53.038Z,32538,-0.04107666,-0.113098145,0.008178711
1735321013048,2024-12-27T17:36:53.048Z,32548,-0.036621094,-0.11468506,0.009277344
1735321013056,2024-12-27T17:36:53.056Z,32556,-0.03137207,-0.119628906,0.015380859
1735321013064,2024-12-27T17:36:53.064Z,32564,-0.034851074,-0.11505127,0.021118164
1735321013071,2024-12-27T17:36:53.071Z,32571,-0.04699707,-0.10870361,0.020935059
1735321013078,2024-12-27T17:36:53.078Z,32578,-0.056518555,-0.103271484,0.0076293945
1735321013085,2024-12-27T17:36:53.085Z,32585,-0.044067383,-0.11022949,0.004638672
1735321013096,2024-12-27T17:36:53.096Z,32596,-0.031433105,-0.11785889,0.014465332
1735321013103,2024-12-27T17:36:53.103Z,32603,-0.0390625,-0.11730957,0.014831543
1735321013109,2024-12-27T17:36:53.109Z,32609,-0.040771484,-0.116882324,0.015686035
1735321013115,2024-12-27T17:36:53.115Z,32615,-0.039245605,-0.11352539,0.018615723
1735321013121,2024-12-27T17:36:53.121Z,32621,-0.040405273,-0.11199951,0.015808105
1735321013126,2024-12-27T17:36:53.126Z,32626,-0.04748535,-0.113098145,0.014709473
1735321013131,2024-12-27T17:36:53.131Z,32631,-0.055114746,-0.1116333,0.015563965
1735321013137,2024-12-27T17:36:53.137Z,32637,-0.050720215,-0.11462402,0.011291504
1735321013148,2024-12-27T17:36:53.148Z,32648,-0.043151855,-0.118896484,0.0115356445
1735321013153,2024-12-27T17:36:53.153Z,32653,-0.040161133,-0.117126465,0.008117676
1735321013159,2024-12-27T17:36:53.159Z,32659,-0.04095459,-0.1182251,0.00970459
1735321013163,2024-12-27T17:36:53.163Z,32663,-0.04559326,-0.114746094,0.018066406
1735321013168,2024-12-27T17:36:53.168Z,32668,-0.055236816,-0.10620117,0.015258789
1735321013190,2024-12-27T17:36:53.190Z,32690,-0.059631348,-0.105773926,0.01171875
1735321013196,2024-12-27T17:36:53.196Z,32696,-0.05303955,-0.11016846,0.009887695
1735321013202,2024-12-27T17:36:53.202Z,32702,-0.045288086,-0.113586426,0.010192871
1735321013208,2024-12-27T17:36:53.208Z,32708,-0.046020508,-0.114746094,0.009765625
1735321013237,2024-12-27T17:36:53.237Z,32737,-0.053833008,-0.11218262,0.0063476562
1735321013242,2024-12-27T17:36:53.242Z,32742,-0.05041504,-0.109191895,0.010314941
1735321013247,2024-12-27T17:36:53.247Z,32747,-0.047973633,-0.10601807,0.013671875
1735321013253,2024-12-27T17:36:53.253Z,32753,-0.059265137,-0.101745605,0.010253906
1735321013259,2024-12-27T17:36:53.259Z,32759,-0.060424805,-0.10369873,0.009155273
1735321013280,2024-12-27T17:36:53.280Z,32780,-0.053527832,-0.10888672,0.012084961
1735321013286,2024-12-27T17:36:53.286Z,32786,-0.053527832,-0.10998535,0.014099121
1735321013292,2024-12-27T17:36:53.292Z,32792,-0.060180664,-0.107421875,0.010559082
1735321013298,2024-12-27T17:36:53.298Z,32798,-0.05871582,-0.107055664,0.0076904297
1735321013325,2024-12-27T17:36:53.325Z,32825,-0.055664062,-0.10437012,0.008911133
1735321013331,2024-12-27T17:36:53.331Z,32831,-0.05432129,-0.10394287,0.011779785
1735321013337,2024-12-27T17:36:53.337Z,32837,-0.05633545,-0.10430908,0.010131836
1735321013343,2024-12-27T17:36:53.343Z,32843,-0.05596924,-0.10699463,0.009277344
1735321013372,2024-12-27T17:36:53.372Z,32872,-0.057495117,-0.109802246,0.010864258
1735321013378,2024-12-27T17:36:53.378Z,32878,-0.064941406,-0.105285645,0.01373291
1735321013384,2024-12-27T17:36:53.384Z,32884,-0.06604004,-0.101745605,0.005554199
1735321013390,2024-12-27T17:36:53.390Z,32890,-0.052368164,-0.109436035,0.004699707
1735321013396,2024-12-27T17:36:53.396Z,32896,-0.05065918,-0.10992432,0.013977051
1735321013416,2024-12-27T17:36:53.416Z,32916,-0.06188965,-0.1060791,0.0119018555
1735321013423,2024-12-27T17:36:53.423Z,32923,-0.05987549,-0.107421875,0.012084961
1735321013429,2024-12-27T17:36:53.429Z,32929,-0.06011963,-0.10571289,0.013916016
1735321013436,2024-12-27T17:36:53.436Z,32936,-0.06915283,-0.10449219,0.010009766
1735321013508,2024-12-27T17:36:53.508Z,33008,-0.06451416,-0.10723877,0.005554199
1735321013515,2024-12-27T17:36:53.515Z,33015,-0.05621338,-0.10870361,0.006652832
1735321013521,2024-12-27T17:36:53.521Z,33021,-0.05444336,-0.10900879,0.00970459
1735321013527,2024-12-27T17:36:53.527Z,33027,-0.05480957,-0.10870361,0.012207031
1735321013533,2024-12-27T17:36:53.533Z,33033,-0.058288574,-0.10632324,0.014160156
1735321013540,2024-12-27T17:36:53.540Z,33040,-0.0657959,-0.10144043,0.014953613
1735321013554,2024-12-27T17:36:53.554Z,33054,-0.068481445,-0.101257324,0.011352539
1735321013560,2024-12-27T17:36:53.560Z,33060,-0.06604004,-0.10546875,0.008239746
1735321013566,2024-12-27T17:36:53.566Z,33066,-0.059387207,-0.1105957,0.00579834
1735321013573,2024-12-27T17:36:53.573Z,33073,-0.05529785,-0.11151123,0.006958008
1735321013579,2024-12-27T17:36:53.579Z,33079,-0.0592041,-0.10925293,0.008666992
1735321013599,2024-12-27T17:36:53.599Z,33099,-0.06384277,-0.1060791,0.008728027
1735321013605,2024-12-27T17:36:53.605Z,33105,-0.061645508,-0.10748291,0.008544922
1735321013610,2024-12-27T17:36:53.610Z,33110,-0.06542969,-0.11010742,0.010803223
1735321013615,2024-12-27T17:36:53.615Z,33115,-0.072631836,-0.10803223,0.010131836
1735321013620,2024-12-27T17:36:53.620Z,33120,-0.06762695,-0.1071167,0.0071411133
1735321013625,2024-12-27T17:36:53.625Z,33125,-0.06121826,-0.111206055,0.002380371
1735321013643,2024-12-27T17:36:53.643Z,33143,-0.05670166,-0.11755371,0.0012207031
1735321013648,2024-12-27T17:36:53.648Z,33148,-0.0579834,-0.11682129,0.009277344
1735321013654,2024-12-27T17:36:53.654Z,33154,-0.068603516,-0.110961914,0.012634277
1735321013660,2024-12-27T17:36:53.660Z,33160,-0.06976318,-0.109680176,0.008239746
1735321013665,2024-12-27T17:36:53.665Z,33165,-0.06011963,-0.11224365,0.0075683594
1735321013686,2024-12-27T17:36:53.686Z,33186,-0.061767578,-0.113342285,0.008972168
1735321013692,2024-12-27T17:36:53.692Z,33192,-0.06359863,-0.11352539,0.009521484
1735321013697,2024-12-27T17:36:53.697Z,33197,-0.060058594,-0.111328125,0.00970459
1735321013703,2024-12-27T17:36:53.703Z,33203,-0.05859375,-0.107788086,0.007446289
1735321013708,2024-12-27T17:36:53.708Z,33208,-0.053344727,-0.10882568,0.007385254
1735321013730,2024-12-27T17:36:53.730Z,33230,-0.052978516,-0.109313965,0.010131836
1735321013736,2024-12-27T17:36:53.736Z,33236,-0.06201172,-0.1081543,0.010070801
1735321013742,2024-12-27T17:36:53.742Z,33242,-0.058898926,-0.1105957,0.008361816
1735321013747,2024-12-27T17:36:53.747Z,33247,-0.05407715,-0.11212158,0.0068969727
1735321013775,2024-12-27T17:36:53.775Z,33275,-0.059570312,-0.110961914,0.0068969727
1735321013782,2024-12-27T17:36:53.782Z,33282,-0.0625,-0.10803223,0.008178711
1735321013788,2024-12-27T17:36:53.788Z,33288,-0.06036377,-0.10650635,0.0057373047
1735321013794,2024-12-27T17:36:53.794Z,33294,-0.05822754,-0.11004639,0.0059814453
1735321013799,2024-12-27T17:36:53.799Z,33299,-0.05731201,-0.11199951,0.0071411133
1735321013819,2024-12-27T17:36:53.819Z,33319,-0.062072754,-0.11242676,0.0053100586
1735321013825,2024-12-27T17:36:53.825Z,33325,-0.066223145,-0.113220215,0.005065918
1735321013830,2024-12-27T17:36:53.830Z,33330,-0.059753418,-0.11065674,0.006713867
1735321013836,2024-12-27T17:36:53.836Z,33336,-0.057556152,-0.10839844,0.0076293945
1735321013865,2024-12-27T17:36:53.865Z,33365,-0.06536865,-0.109375,0.0078125
1735321013871,2024-12-27T17:36:53.871Z,33371,-0.06225586,-0.11047363,0.009460449
1735321013877,2024-12-27T17:36:53.877Z,33377,-0.05529785,-0.11236572,0.009094238
1735321013882,2024-12-27T17:36:53.882Z,33382,-0.056274414,-0.112976074,0.010681152
1735321013888,2024-12-27T17:36:53.888Z,33388,-0.06060791,-0.11212158,0.008605957
1735321013909,2024-12-27T17:36:53.909Z,33409,-0.062805176,-0.11242676,0.006164551
1735321013915,2024-12-27T17:36:53.915Z,33415,-0.060302734,-0.11340332,0.007751465
1735321013921,2024-12-27T17:36:53.921Z,33421,-0.05999756,-0.11303711,0.009094238
1735321013961,2024-12-27T17:36:53.961Z,33461,-0.062561035,-0.110961914,0.009155273
1735321013968,2024-12-27T17:36:53.968Z,33468,-0.06060791,-0.111083984,0.010681152
1735321013975,2024-12-27T17:36:53.975Z,33475,-0.061645508,-0.11004639,0.013977051
1735321013982,2024-12-27T17:36:53.982Z,33482,-0.064941406,-0.10736084,0.012451172
1735321013988,2024-12-27T17:36:53.988Z,33488,-0.06335449,-0.108947754,0.0115356445
1735321014002,2024-12-27T17:36:54.002Z,33502,-0.06536865,-0.10913086,0.0095825195
1735321014009,2024-12-27T17:36:54.009Z,33509,-0.06756592,-0.109680176,0.00793457
1735321014015,2024-12-27T17:36:54.015Z,33515,-0.06750488,-0.11053467,0.0078125
1735321014021,2024-12-27T17:36:54.021Z,33521,-0.068237305,-0.11047363,0.010131836
1735321014027,2024-12-27T17:36:54.027Z,33527,-0.07232666,-0.10858154,0.010437012
1735321014045,2024-12-27T17:36:54.045Z,33545,-0.0736084,-0.107910156,0.00982666
1735321014050,2024-12-27T17:36:54.050Z,33550,-0.070129395,-0.10760498,0.009765625
1735321014056,2024-12-27T17:36:54.056Z,33556,-0.07196045,-0.1048584,0.0065307617
1735321014062,2024-12-27T17:36:54.062Z,33562,-0.07147217,-0.107543945,0.0030517578
1735321014089,2024-12-27T17:36:54.089Z,33589,-0.066589355,-0.11071777,0.0037841797
1735321014095,2024-12-27T17:36:54.095Z,33595,-0.072265625,-0.107788086,0.005065918
1735321014148,2024-12-27T17:36:54.148Z,33648,-0.07672119,-0.105407715,0.0064086914
1735321014160,2024-12-27T17:36:54.160Z,33660,-0.06964111,-0.10510254,0.007446289
1735321014171,2024-12-27T17:36:54.171Z,33671,-0.06732178,-0.103637695,0.010009766
1735321014184,2024-12-27T17:36:54.184Z,33684,-0.07159424,-0.101989746,0.010192871
1735321014194,2024-12-27T17:36:54.194Z,33694,-0.068237305,-0.1026001,0.010620117
1735321014202,2024-12-27T17:36:54.202Z,33702,-0.065979004,-0.10168457,0.012390137
1735321014210,2024-12-27T17:36:54.210Z,33710,-0.072509766,-0.10144043,0.011657715
1735321014232,2024-12-27T17:36:54.232Z,33732,-0.07501221,-0.103759766,0.0087890625
1735321014239,2024-12-27T17:36:54.239Z,33739,-0.07128906,-0.10510254,0.0087890625
1735321014246,2024-12-27T17:36:54.246Z,33746,-0.068603516,-0.103393555,0.010131836
1735321014253,2024-12-27T17:36:54.253Z,33753,-0.07067871,-0.10345459,0.010314941
1735321014259,2024-12-27T17:36:54.259Z,33759,-0.072143555,-0.104003906,0.012878418
1735321014270,2024-12-27T17:36:54.270Z,33770,-0.07550049,-0.10223389,0.010253906
1735321014277,2024-12-27T17:36:54.277Z,33777,-0.075805664,-0.103149414,0.0078125
1735321014283,2024-12-27T17:36:54.283Z,33783,-0.0758667,-0.105285645,0.00982666
1735321014290,2024-12-27T17:36:54.290Z,33790,-0.08203125,-0.105895996,0.0068359375
1735321014297,2024-12-27T17:36:54.297Z,33797,-0.08148193,-0.105407715,0.0064697266
1735321014304,2024-12-27T17:36:54.304Z,33804,-0.074035645,-0.10644531,0.0067749023
1735321014321,2024-12-27T17:36:54.321Z,33821,-0.07873535,-0.10620117,0.007446289
1735321014325,2024-12-27T17:36:54.325Z,33825,-0.08459473,-0.10522461,0.006958008
1735321014330,2024-12-27T17:36:54.330Z,33830,-0.07952881,-0.105651855,0.0043945312
1735321014334,2024-12-27T17:36:54.334Z,33834,-0.079589844,-0.10626221,0.005126953
1735321014339,2024-12-27T17:36:54.339Z,33839,-0.08544922,-0.1071167,0.005554199
1735321014360,2024-12-27T17:36:54.360Z,33860,-0.08337402,-0.10858154,0.0045166016
1735321014410,2024-12-27T17:36:54.410Z,33910,-0.08148193,-0.10870361,0.0063476562
1735321014416,2024-12-27T17:36:54.416Z,33916,-0.08508301,-0.105651855,0.008361816
1735321014423,2024-12-27T17:36:54.423Z,33923,-0.08532715,-0.10333252,0.008605957
1735321014429,2024-12-27T17:36:54.429Z,33929,-0.08190918,-0.10119629,0.009643555
1735321014435,2024-12-27T17:36:54.435Z,33935,-0.07965088,-0.10003662,0.006286621
1735321014451,2024-12-27T17:36:54.451Z,33951,-0.07879639,-0.10119629,0.006286621
1735321014458,2024-12-27T17:36:54.458Z,33958,-0.08117676,-0.101379395,0.0036621094
1735321014464,2024-12-27T17:36:54.464Z,33964,-0.07525635,-0.10253906,0.0015258789
1735321014596,2024-12-27T17:36:54.596Z,34096,-0.07159424,-0.101135254,0.00579834
1735321014726,2024-12-27T17:36:54.726Z,34226,-0.07739258,-0.09753418,0.007446289
1735321014739,2024-12-27T17:36:54.739Z,34239,-0.074279785,-0.09637451,0.006958008
1735321014753,2024-12-27T17:36:54.753Z,34253,-0.07110596,-0.098083496,0.0056152344
1735321014767,2024-12-27T17:36:54.767Z,34267,-0.07495117,-0.10064697,0.003540039
1735321014780,2024-12-27T17:36:54.780Z,34280,-0.07281494,-0.09857178,0.005493164
1735321014788,2024-12-27T17:36:54.788Z,34288,-0.06750488,-0.09869385,0.0049438477
1735321014796,2024-12-27T17:36:54.796Z,34296,-0.06726074,-0.10083008,0.0060424805
1735321014803,2024-12-27T17:36:54.803Z,34303,-0.072753906,-0.10168457,0.003112793
1735321014810,2024-12-27T17:36:54.810Z,34310,-0.07055664,-0.10266113,0.003540039
1735321014817,2024-12-27T17:36:54.817Z,34317,-0.06732178,-0.099853516,0.006286621
1735321014824,2024-12-27T17:36:54.824Z,34324,-0.055786133,-0.10876465,0.0026245117
1735321014830,2024-12-27T17:36:54.830Z,34330,-0.05480957,-0.111083984,0.008544922
1735321014833,2024-12-27T17:36:54.833Z,34333,-0.053100586,-0.111450195,0.0115356445
1735321014839,2024-12-27T17:36:54.839Z,34339,-0.055114746,-0.1138916,0.0079956055
1735321014845,2024-12-27T17:36:54.845Z,34345,-0.053955078,-0.11590576,0.006652832
1735321014850,2024-12-27T17:36:54.850Z,34350,-0.05645752,-0.1149292,0.008056641
1735321014856,2024-12-27T17:36:54.856Z,34356,-0.056762695,-0.11425781,0.010681152
1735321014861,2024-12-27T17:36:54.861Z,34361,-0.056152344,-0.113586426,0.0115356445
1735321014866,2024-12-27T17:36:54.866Z,34366,-0.059448242,-0.11315918,0.011108398
1735321014871,2024-12-27T17:36:54.871Z,34371,-0.056152344,-0.11291504,0.0115356445
1735321014876,2024-12-27T17:36:54.876Z,34376,-0.052124023,-0.113098145,0.012817383
1735321014882,2024-12-27T17:36:54.882Z,34382,-0.053771973,-0.11364746,0.008850098
