Timestamp (ms),ISO DateTime,Elapsed Time (ms),Acceleration X,Acceleration Y,Acceleration Z
1725721103117,2024-09-07T14:58:23.117Z,206234,-0.08972168,-0.9674072,-0.07336426
1725721103170,2024-09-07T14:58:23.170Z,206287,-0.09637451,-0.96258545,-0.07269287
1725721103203,2024-09-07T14:58:23.203Z,206320,-0.099243164,-0.96765137,-0.08282471
1725721103229,2024-09-07T14:58:23.229Z,206346,-0.103393555,-0.9916382,-0.077697754
1725721103253,2024-09-07T14:58:23.253Z,206370,-0.10681152,-0.9831543,-0.07574463
1725721103295,2024-09-07T14:58:23.295Z,206412,-0.10211182,-0.972229,-0.07897949
1725721103335,2024-09-07T14:58:23.335Z,206452,-0.10723877,-0.9735718,-0.07348633
1725721103397,2024-09-07T14:58:23.397Z,206514,-0.107910156,-0.9689331,-0.085632324
1725721103431,2024-09-07T14:58:23.431Z,206548,-0.12158203,-0.96746826,-0.07952881
1725721103476,2024-09-07T14:58:23.476Z,206593,-0.14428711,-0.9530029,-0.08660889
1725721103520,2024-09-07T14:58:23.520Z,206637,-0.16546631,-0.9033203,-0.07885742
1725721103569,2024-09-07T14:58:23.569Z,206686,-0.17633057,-0.8161621,-0.10992432
1725721103610,2024-09-07T14:58:23.610Z,206727,-0.17596436,-0.8353882,-0.13781738
1725721103636,2024-09-07T14:58:23.636Z,206753,-0.17834473,-0.7949219,-0.0769043
1725721103660,2024-09-07T14:58:23.660Z,206777,-0.15911865,-0.81048584,-0.2590332
1725721103698,2024-09-07T14:58:23.698Z,206815,-0.14904785,-0.83032227,-0.15270996
1725721103745,2024-09-07T14:58:23.745Z,206862,-0.21002197,-0.9002075,-0.31951904
1725721103789,2024-09-07T14:58:23.789Z,206906,-0.20263672,-0.9733887,-0.23095703
1725721103836,2024-09-07T14:58:23.836Z,206953,-0.20770264,-0.8458252,-0.24017334
1725721103882,2024-09-07T14:58:23.882Z,206999,-0.14849854,-0.80682373,-0.25097656
1725721103926,2024-09-07T14:58:23.926Z,207043,-0.18048096,-0.814209,-0.26379395
1725721103966,2024-09-07T14:58:23.966Z,207083,-0.24591064,-0.89849854,-0.35424805
1725721104016,2024-09-07T14:58:24.016Z,207133,-0.24578857,-0.8723755,-0.26904297
1725721104042,2024-09-07T14:58:24.042Z,207159,-0.21923828,-0.8225708,-0.32983398
1725721104064,2024-09-07T14:58:24.064Z,207181,-0.23114014,-0.84313965,-0.27404785
1725721104104,2024-09-07T14:58:24.104Z,207221,-0.23730469,-0.88427734,-0.28686523
1725721104152,2024-09-07T14:58:24.152Z,207269,-0.24829102,-0.94244385,-0.28424072
1725721104210,2024-09-07T14:58:24.210Z,207327,-0.29083252,-1.0182495,-0.29205322
1725721104242,2024-09-07T14:58:24.242Z,207359,-0.32562256,-1.1021729,-0.3145752
1725721104281,2024-09-07T14:58:24.281Z,207398,-0.336792,-1.0848999,-0.33618164
1725721104332,2024-09-07T14:58:24.332Z,207449,-0.2880249,-1.0250854,-0.29840088
1725721104373,2024-09-07T14:58:24.373Z,207490,-0.25073242,-0.9998169,-0.29516602
1725721104418,2024-09-07T14:58:24.418Z,207535,-0.24395752,-0.9666748,-0.24578857
1725721104469,2024-09-07T14:58:24.469Z,207586,-0.2658081,-0.9178467,-0.2510376
1725721104490,2024-09-07T14:58:24.490Z,207607,-0.3012085,-0.92077637,-0.30047607
1725721104515,2024-09-07T14:58:24.515Z,207632,-0.3149414,-0.9508667,-0.2987671
1725721104602,2024-09-07T14:58:24.602Z,207719,-0.2947998,-0.9678345,-0.31628418
1725721104622,2024-09-07T14:58:24.622Z,207739,-0.30059814,-1.0108032,-0.36450195
1725721104643,2024-09-07T14:58:24.643Z,207760,-0.31781006,-1.1352539,-0.3508911
1725721104686,2024-09-07T14:58:24.686Z,207803,-0.35986328,-1.2125854,-0.40673828
1725721104734,2024-09-07T14:58:24.734Z,207851,-0.355896,-1.2094727,-0.41497803
1725721104779,2024-09-07T14:58:24.779Z,207896,-0.34222412,-1.1588745,-0.3781128
1725721104825,2024-09-07T14:58:24.825Z,207942,-0.3293457,-1.0930176,-0.3815918
1725721104868,2024-09-07T14:58:24.868Z,207985,-0.31170654,-1.0440063,-0.35076904
1725721104940,2024-09-07T14:58:24.940Z,208057,-0.28851318,-1.0353394,-0.32244873
1725721104966,2024-09-07T14:58:24.966Z,208083,-0.26342773,-1.0462036,-0.32855225
1725721104988,2024-09-07T14:58:24.988Z,208105,-0.25238037,-1.0316772,-0.293396
1725721105007,2024-09-07T14:58:25.007Z,208124,-0.23443604,-1.0092163,-0.26049805
1725721105046,2024-09-07T14:58:25.046Z,208163,-0.19689941,-0.9631958,-0.26434326
1725721105094,2024-09-07T14:58:25.094Z,208211,-0.18658447,-0.93414307,-0.24536133
1725721105141,2024-09-07T14:58:25.141Z,208258,-0.20172119,-0.93688965,-0.2623291
1725721105189,2024-09-07T14:58:25.189Z,208306,-0.22320557,-0.9411621,-0.26275635
1725721105230,2024-09-07T14:58:25.230Z,208347,-0.2722168,-0.90411377,-0.26239014
1725721105272,2024-09-07T14:58:25.272Z,208389,-0.25836182,-0.8387451,-0.2579956
1725721105301,2024-09-07T14:58:25.301Z,208418,-0.24505615,-0.803833,-0.24517822
1725721105327,2024-09-07T14:58:25.327Z,208444,-0.23052979,-0.77874756,-0.22125244
1725721105361,2024-09-07T14:58:25.361Z,208478,-0.23236084,-0.80548096,-0.26275635
1725721105408,2024-09-07T14:58:25.408Z,208525,-0.21331787,-0.8433838,-0.22216797
1725721105473,2024-09-07T14:58:25.473Z,208590,-0.22766113,-0.85736084,-0.25604248
1725721105596,2024-09-07T14:58:25.596Z,208713,-0.20593262,-0.9147949,-0.27001953
1725721105623,2024-09-07T14:58:25.623Z,208740,-0.23864746,-0.956604,-0.26348877
1725721105652,2024-09-07T14:58:25.652Z,208769,-0.17132568,-0.93395996,-0.25030518
1725721105679,2024-09-07T14:58:25.679Z,208796,-0.1359253,-0.8624878,-0.2074585
1725721105705,2024-09-07T14:58:25.705Z,208822,-0.0793457,-0.835083,-0.17315674
1725721105722,2024-09-07T14:58:25.722Z,208839,-0.0770874,-0.8120117,-0.14300537
1725721105738,2024-09-07T14:58:25.738Z,208855,-0.07159424,-0.7793579,-0.14483643
1725721105765,2024-09-07T14:58:25.765Z,208882,-0.103149414,-0.8317871,-0.0925293
1725721105815,2024-09-07T14:58:25.815Z,208932,-0.10406494,-0.92126465,-0.06640625
1725721105857,2024-09-07T14:58:25.857Z,208974,-0.122802734,-0.97735596,-0.07476807
1725721105904,2024-09-07T14:58:25.904Z,209021,-0.08929443,-0.984375,-0.06567383
1725721105949,2024-09-07T14:58:25.949Z,209066,-0.089660645,-0.986084,-0.055908203
1725721105995,2024-09-07T14:58:25.995Z,209112,-0.055480957,-0.96069336,-0.05987549
1725721106038,2024-09-07T14:58:26.038Z,209155,-0.040527344,-0.90026855,-0.070007324
1725721106087,2024-09-07T14:58:26.087Z,209204,-0.05065918,-0.8852539,-0.079589844
1725721106131,2024-09-07T14:58:26.131Z,209248,-0.0892334,-0.9411011,-0.10620117
1725721106159,2024-09-07T14:58:26.159Z,209276,-0.11480713,-0.93359375,-0.076049805
1725721106185,2024-09-07T14:58:26.185Z,209302,-0.12335205,-0.8621826,-0.10247803
1725721106216,2024-09-07T14:58:26.216Z,209333,-0.122558594,-0.83966064,-0.085754395
1725721106261,2024-09-07T14:58:26.261Z,209378,-0.104003906,-0.82458496,-0.114868164
1725721106308,2024-09-07T14:58:26.308Z,209425,-0.0713501,-0.82702637,-0.15734863
1725721106357,2024-09-07T14:58:26.357Z,209474,-0.0871582,-0.82385254,-0.14190674
1725721106401,2024-09-07T14:58:26.401Z,209518,-0.060424805,-0.82159424,-0.18353271
1725721106445,2024-09-07T14:58:26.445Z,209562,-0.107421875,-0.8366089,-0.2355957
1725721106490,2024-09-07T14:58:26.490Z,209607,-0.13616943,-0.873291,-0.19274902
1725721106538,2024-09-07T14:58:26.538Z,209655,-0.21868896,-0.9460449,-0.3277588
1725721106564,2024-09-07T14:58:26.564Z,209681,-0.22991943,-1.0014648,-0.20892334
1725721106587,2024-09-07T14:58:26.587Z,209704,-0.16644287,-0.9232178,-0.21258545
1725721106623,2024-09-07T14:58:26.623Z,209740,-0.12835693,-0.92266846,-0.20587158
1725721106671,2024-09-07T14:58:26.671Z,209788,-0.14831543,-0.92626953,-0.19317627
1725721106716,2024-09-07T14:58:26.716Z,209833,-0.17608643,-0.9593506,-0.29779053
1725721106759,2024-09-07T14:58:26.759Z,209876,-0.20422363,-0.9770508,-0.2612915
1725721106808,2024-09-07T14:58:26.808Z,209925,-0.21453857,-1.0289307,-0.3373413
1725721106848,2024-09-07T14:58:26.848Z,209965,-0.27227783,-1.0343628,-0.25634766
1725721106895,2024-09-07T14:58:26.895Z,210012,-0.27001953,-0.9990845,-0.24633789
1725721106942,2024-09-07T14:58:26.942Z,210059,-0.2849121,-1.0457153,-0.29083252
1725721106972,2024-09-07T14:58:26.972Z,210089,-0.29858398,-1.0492554,-0.255188
1725721106994,2024-09-07T14:58:26.994Z,210111,-0.3241577,-1.0289307,-0.3300171
1725721107029,2024-09-07T14:58:27.029Z,210146,-0.3404541,-1.0507202,-0.30651855
1725721107072,2024-09-07T14:58:27.072Z,210189,-0.36328125,-1.0535889,-0.34570312
1725721107118,2024-09-07T14:58:27.118Z,210235,-0.38519287,-1.0958252,-0.39849854
1725721107165,2024-09-07T14:58:27.165Z,210282,-0.43322754,-1.1706543,-0.3591919
1725721107256,2024-09-07T14:58:27.256Z,210373,-0.42016602,-1.2177734,-0.42077637
1725721107282,2024-09-07T14:58:27.282Z,210399,-0.36798096,-1.1778564,-0.348938
1725721107313,2024-09-07T14:58:27.313Z,210430,-0.3314209,-1.1062622,-0.3250122
1725721107343,2024-09-07T14:58:27.343Z,210460,-0.31219482,-1.088562,-0.32409668
1725721107385,2024-09-07T14:58:27.385Z,210502,-0.2942505,-1.0651245,-0.31976318
1725721107407,2024-09-07T14:58:27.407Z,210524,-0.22698975,-1.0474243,-0.32617188
1725721107431,2024-09-07T14:58:27.431Z,210548,-0.17468262,-1.0371094,-0.29589844
1725721107475,2024-09-07T14:58:27.475Z,210592,-0.14349365,-0.99694824,-0.23736572
1725721107524,2024-09-07T14:58:27.524Z,210641,-0.1593628,-0.9569092,-0.21624756
1725721107569,2024-09-07T14:58:27.569Z,210686,-0.15429688,-0.9383545,-0.17736816
1725721107612,2024-09-07T14:58:27.612Z,210729,-0.15814209,-0.91485596,-0.16870117
1725721107675,2024-09-07T14:58:27.675Z,210792,-0.15301514,-0.9187012,-0.1459961
1725721107703,2024-09-07T14:58:27.703Z,210820,-0.1687622,-0.9102783,-0.11651611
1725721107748,2024-09-07T14:58:27.748Z,210865,-0.17810059,-0.9092407,-0.13232422
1725721107794,2024-09-07T14:58:27.794Z,210911,-0.18670654,-0.8932495,-0.18591309
1725721107821,2024-09-07T14:58:27.821Z,210938,-0.18774414,-0.89868164,-0.2208252
1725721107844,2024-09-07T14:58:27.844Z,210961,-0.16656494,-0.92077637,-0.27130127
1725721107883,2024-09-07T14:58:27.883Z,211000,-0.15002441,-0.8649292,-0.27087402
1725721107928,2024-09-07T14:58:27.928Z,211045,-0.09289551,-0.79797363,-0.21984863
1725721107977,2024-09-07T14:58:27.977Z,211094,-0.08807373,-0.73223877,-0.1517334
1725721108025,2024-09-07T14:58:28.025Z,211142,-0.107543945,-0.7015381,-0.14001465
1725721108064,2024-09-07T14:58:28.064Z,211181,-0.07507324,-0.7255249,-0.0647583
1725721108110,2024-09-07T14:58:28.110Z,211227,-0.12261963,-0.81829834,-0.06329346
1725721108156,2024-09-07T14:58:28.156Z,211273,-0.1459961,-0.9317627,-0.07305908
1725721108199,2024-09-07T14:58:28.199Z,211316,-0.14874268,-0.9949341,-0.07861328
1725721108224,2024-09-07T14:58:28.224Z,211341,-0.13116455,-0.9769287,-0.07562256
1725721108247,2024-09-07T14:58:28.247Z,211364,-0.08215332,-0.89105225,-0.074035645
1725721108288,2024-09-07T14:58:28.288Z,211405,-0.073791504,-0.81292725,-0.078063965
1725721108334,2024-09-07T14:58:28.334Z,211451,-0.050964355,-0.744812,-0.07421875
1725721108378,2024-09-07T14:58:28.378Z,211495,-0.07739258,-0.7538452,-0.11639404
1725721108428,2024-09-07T14:58:28.428Z,211545,-0.11376953,-0.7719116,-0.13891602
1725721108470,2024-09-07T14:58:28.470Z,211587,-0.117126465,-0.8225708,-0.14624023
1725721108514,2024-09-07T14:58:28.514Z,211631,-0.13806152,-0.8004761,-0.17529297
1725721108561,2024-09-07T14:58:28.561Z,211678,-0.14855957,-0.8724365,-0.20843506
1725721108606,2024-09-07T14:58:28.606Z,211723,-0.17053223,-0.9099121,-0.16973877
1725721108650,2024-09-07T14:58:28.650Z,211767,-0.19378662,-0.99053955,-0.20941162
1725721108678,2024-09-07T14:58:28.678Z,211795,-0.22351074,-0.95874023,-0.21264648
1725721108699,2024-09-07T14:58:28.699Z,211816,-0.20123291,-1.0068359,-0.25256348
1725721108738,2024-09-07T14:58:28.738Z,211855,-0.22875977,-0.93066406,-0.14562988
1725721108783,2024-09-07T14:58:28.783Z,211900,-0.2078247,-0.90997314,-0.29083252
1725721108877,2024-09-07T14:58:28.877Z,211994,-0.21789551,-0.9713745,-0.23168945
1725721108901,2024-09-07T14:58:28.901Z,212018,-0.2539673,-0.9354248,-0.2744751
1725721108927,2024-09-07T14:58:28.927Z,212044,-0.25756836,-0.98620605,-0.33294678
1725721108965,2024-09-07T14:58:28.965Z,212082,-0.2869873,-1.0245361,-0.30340576
1725721109012,2024-09-07T14:58:29.012Z,212129,-0.27539062,-1.019104,-0.37805176
1725721109057,2024-09-07T14:58:29.057Z,212174,-0.25091553,-0.9703369,-0.27703857
1725721109084,2024-09-07T14:58:29.084Z,212201,-0.22662354,-0.9456787,-0.28497314
1725721109147,2024-09-07T14:58:29.147Z,212264,-0.20513916,-0.99328613,-0.32202148
1725721109171,2024-09-07T14:58:29.171Z,212288,-0.24084473,-1.053772,-0.31707764
1725721109193,2024-09-07T14:58:29.193Z,212310,-0.27337646,-1.0372925,-0.2949829
1725721109233,2024-09-07T14:58:29.233Z,212350,-0.29107666,-1.0390625,-0.35559082
1725721109280,2024-09-07T14:58:29.280Z,212397,-0.3013916,-1.0723267,-0.31481934
1725721109325,2024-09-07T14:58:29.325Z,212442,-0.26574707,-1.0323486,-0.2584839
1725721109402,2024-09-07T14:58:29.402Z,212519,-0.22741699,-0.98394775,-0.21588135
1725721109432,2024-09-07T14:58:29.432Z,212549,-0.22845459,-1.0041504,-0.19433594
1725721109457,2024-09-07T14:58:29.457Z,212574,-0.25628662,-1.0698242,-0.24328613
1725721109479,2024-09-07T14:58:29.479Z,212596,-0.2915039,-1.0923462,-0.28186035
1725721109499,2024-09-07T14:58:29.499Z,212616,-0.3156128,-1.0772095,-0.3076172
1725721109549,2024-09-07T14:58:29.549Z,212666,-0.3147583,-1.0707397,-0.3149414
1725721109593,2024-09-07T14:58:29.593Z,212710,-0.30322266,-1.0265503,-0.2921753
1725721109640,2024-09-07T14:58:29.640Z,212757,-0.2868042,-0.9893799,-0.29077148
1725721109780,2024-09-07T14:58:29.780Z,212897,-0.2692871,-0.9711304,-0.2564087
1725721109821,2024-09-07T14:58:29.821Z,212938,-0.25,-0.95874023,-0.2597046
1725721109860,2024-09-07T14:58:29.860Z,212977,-0.23699951,-0.96136475,-0.27142334
1725721109888,2024-09-07T14:58:29.888Z,213005,-0.23822021,-0.97662354,-0.27386475
1725721109909,2024-09-07T14:58:29.909Z,213026,-0.2420044,-0.9812012,-0.28894043
1725721109928,2024-09-07T14:58:29.928Z,213045,-0.24066162,-0.9885254,-0.30645752
1725721109944,2024-09-07T14:58:29.944Z,213061,-0.24597168,-1.0275269,-0.33636475
1725721109960,2024-09-07T14:58:29.960Z,213077,-0.2543335,-1.0479736,-0.274292
1725721109995,2024-09-07T14:58:29.995Z,213112,-0.23474121,-1.0167236,-0.25543213
1725721110044,2024-09-07T14:58:30.044Z,213161,-0.19152832,-0.9885254,-0.25732422
1725721110093,2024-09-07T14:58:30.093Z,213210,-0.1953125,-0.96398926,-0.23895264
1725721110134,2024-09-07T14:58:30.134Z,213251,-0.19262695,-0.92059326,-0.25231934
1725721110180,2024-09-07T14:58:30.180Z,213297,-0.22888184,-0.91192627,-0.3015747
1725721110227,2024-09-07T14:58:30.227Z,213344,-0.2506714,-0.9290161,-0.26287842
1725721110270,2024-09-07T14:58:30.270Z,213387,-0.23693848,-0.869751,-0.20922852
1725721110372,2024-09-07T14:58:30.372Z,213489,-0.20733643,-0.81970215,-0.22137451
1725721110411,2024-09-07T14:58:30.411Z,213528,-0.20410156,-0.86065674,-0.20568848
1725721110440,2024-09-07T14:58:30.440Z,213557,-0.2487793,-0.8824463,-0.21746826
1725721110461,2024-09-07T14:58:30.461Z,213578,-0.2545166,-0.88360596,-0.23999023
1725721110479,2024-09-07T14:58:30.479Z,213596,-0.28649902,-0.9217529,-0.2524414
1725721110498,2024-09-07T14:58:30.498Z,213615,-0.27886963,-0.94610596,-0.21166992
1725721110535,2024-09-07T14:58:30.535Z,213652,-0.22845459,-0.8980713,-0.16290283
1725721110585,2024-09-07T14:58:30.585Z,213702,-0.17150879,-0.82611084,-0.09240723
1725721110627,2024-09-07T14:58:30.627Z,213744,-0.16772461,-0.859375,-0.17932129
1725721110674,2024-09-07T14:58:30.674Z,213791,-0.159729,-0.9996948,-0.061645508
1725721110718,2024-09-07T14:58:30.718Z,213835,-0.17504883,-1.0161743,-0.0793457
1725721110744,2024-09-07T14:58:30.744Z,213861,-0.08099365,-0.84716797,-0.032287598
1725721110765,2024-09-07T14:58:30.765Z,213882,-0.04522705,-0.70532227,0.025756836
1725721110806,2024-09-07T14:58:30.806Z,213923,-0.09887695,-0.7213135,-0.02355957
1725721110852,2024-09-07T14:58:30.852Z,213969,-0.087524414,-0.89208984,-0.05493164
1725721110900,2024-09-07T14:58:30.900Z,214017,-0.16235352,-1.0508423,-0.021850586
1725721110947,2024-09-07T14:58:30.947Z,214064,-0.11566162,-1.0343018,-0.052490234
1725721110989,2024-09-07T14:58:30.989Z,214106,-0.035217285,-0.9735718,0.013366699
1725721111031,2024-09-07T14:58:31.031Z,214148,-0.03100586,-0.9413452,0.03540039
1725721111080,2024-09-07T14:58:31.080Z,214197,-0.010253906,-0.93444824,0.034362793
1725721111122,2024-09-07T14:58:31.122Z,214239,-0.058776855,-0.958374,0.013793945
1725721111168,2024-09-07T14:58:31.168Z,214285,-0.107299805,-0.951355,-0.020996094
1725721111201,2024-09-07T14:58:31.201Z,214318,-0.13970947,-0.9309082,-0.050964355
1725721111222,2024-09-07T14:58:31.222Z,214339,-0.14916992,-0.8937378,-0.070495605
1725721111256,2024-09-07T14:58:31.256Z,214373,-0.105163574,-0.8253784,-0.07745361
1725721111303,2024-09-07T14:58:31.303Z,214420,-0.110961914,-0.7888794,-0.079956055
1725721111350,2024-09-07T14:58:31.350Z,214467,-0.103881836,-0.8045044,-0.10864258
1725721111393,2024-09-07T14:58:31.393Z,214510,-0.13708496,-0.8234863,-0.13116455
1725721111442,2024-09-07T14:58:31.442Z,214559,-0.2006836,-0.9144287,-0.23150635
1725721111484,2024-09-07T14:58:31.484Z,214601,-0.22625732,-0.99108887,-0.16906738
1725721111587,2024-09-07T14:58:31.587Z,214704,-0.24371338,-0.975708,-0.23510742
1725721111619,2024-09-07T14:58:31.619Z,214736,-0.18981934,-0.8890991,-0.1574707
1725721111654,2024-09-07T14:58:31.654Z,214771,-0.1895752,-0.8555908,-0.2163086
1725721111679,2024-09-07T14:58:31.679Z,214796,-0.20959473,-0.89733887,-0.21429443
1725721111699,2024-09-07T14:58:31.699Z,214816,-0.2805786,-0.9381714,-0.23986816
1725721111718,2024-09-07T14:58:31.718Z,214835,-0.32714844,-0.95111084,-0.2581787
1725721111749,2024-09-07T14:58:31.749Z,214866,-0.26733398,-0.9088745,-0.24224854
1725721111799,2024-09-07T14:58:31.799Z,214916,-0.2442627,-0.9055786,-0.28710938
1725721111843,2024-09-07T14:58:31.843Z,214960,-0.23217773,-0.92474365,-0.18499756
1725721111892,2024-09-07T14:58:31.892Z,215009,-0.22741699,-0.9081421,-0.23626709
1725721111942,2024-09-07T14:58:31.942Z,215059,-0.20648193,-0.9472046,-0.26281738
1725721111978,2024-09-07T14:58:31.978Z,215095,-0.19494629,-0.99383545,-0.24310303
1725721112055,2024-09-07T14:58:32.055Z,215172,-0.21673584,-1.0083618,-0.27056885
1725721112092,2024-09-07T14:58:32.092Z,215209,-0.23413086,-1.0340576,-0.22149658
1725721112133,2024-09-07T14:58:32.133Z,215250,-0.26916504,-1.0269775,-0.2312622
1725721112164,2024-09-07T14:58:32.164Z,215281,-0.26934814,-1.0311279,-0.23687744
1725721112189,2024-09-07T14:58:32.189Z,215306,-0.2623291,-1.043457,-0.19366455
1725721112211,2024-09-07T14:58:32.211Z,215328,-0.2658081,-1.0102539,-0.1505127
1725721112256,2024-09-07T14:58:32.256Z,215373,-0.2819214,-0.9694214,-0.17504883
1725721112289,2024-09-07T14:58:32.289Z,215406,-0.30480957,-1.0269775,-0.21923828
1725721112335,2024-09-07T14:58:32.335Z,215452,-0.3297119,-1.0888062,-0.21643066
1725721112383,2024-09-07T14:58:32.383Z,215500,-0.31304932,-1.1010742,-0.26135254
1725721112427,2024-09-07T14:58:32.427Z,215544,-0.28881836,-1.1063232,-0.23937988
1725721112453,2024-09-07T14:58:32.453Z,215570,-0.27392578,-1.1221313,-0.24633789
1725721112471,2024-09-07T14:58:32.471Z,215588,-0.258667,-1.1329346,-0.27764893
1725721112521,2024-09-07T14:58:32.521Z,215638,-0.27111816,-1.1409302,-0.31201172
1725721112567,2024-09-07T14:58:32.567Z,215684,-0.2902832,-1.1159058,-0.28253174
1725721112606,2024-09-07T14:58:32.606Z,215723,-0.28607178,-1.0378418,-0.27539062
1725721112661,2024-09-07T14:58:32.661Z,215778,-0.27246094,-0.9807739,-0.2626953
1725721112700,2024-09-07T14:58:32.700Z,215817,-0.2508545,-0.98443604,-0.24468994
1725721112745,2024-09-07T14:58:32.745Z,215862,-0.2524414,-0.99139404,-0.23931885
1725721112787,2024-09-07T14:58:32.787Z,215904,-0.2286377,-0.96990967,-0.22357178
1725721112837,2024-09-07T14:58:32.837Z,215954,-0.21002197,-0.93310547,-0.23461914
1725721112867,2024-09-07T14:58:32.867Z,215984,-0.20837402,-0.93859863,-0.23199463
1725721112888,2024-09-07T14:58:32.888Z,216005,-0.21783447,-0.9295654,-0.22741699
1725721112923,2024-09-07T14:58:32.923Z,216040,-0.22497559,-0.8944092,-0.19989014
1725721112969,2024-09-07T14:58:32.969Z,216086,-0.22039795,-0.88464355,-0.19091797
1725721113014,2024-09-07T14:58:33.014Z,216131,-0.20721436,-0.8991089,-0.17706299
1725721113056,2024-09-07T14:58:33.056Z,216173,-0.20843506,-0.892334,-0.19628906
1725721113106,2024-09-07T14:58:33.106Z,216223,-0.23199463,-0.88586426,-0.20233154
1725721113152,2024-09-07T14:58:33.152Z,216269,-0.2366333,-0.89453125,-0.23675537
1725721113197,2024-09-07T14:58:33.197Z,216314,-0.25543213,-0.9025879,-0.2730713
1725721113241,2024-09-07T14:58:33.241Z,216358,-0.2633667,-0.9147949,-0.25372314
1725721113269,2024-09-07T14:58:33.269Z,216386,-0.2623291,-0.9102783,-0.2664795
1725721113334,2024-09-07T14:58:33.334Z,216451,-0.27337646,-0.946167,-0.27581787
1725721113365,2024-09-07T14:58:33.365Z,216482,-0.26019287,-0.9484863,-0.21459961
1725721113385,2024-09-07T14:58:33.385Z,216502,-0.21679688,-0.90667725,-0.23565674
1725721113473,2024-09-07T14:58:33.473Z,216590,-0.1875,-0.9048462,-0.2218628
1725721113514,2024-09-07T14:58:33.514Z,216631,-0.23144531,-0.944397,-0.23309326
1725721113547,2024-09-07T14:58:33.547Z,216664,-0.23803711,-0.99035645,-0.23797607
1725721113569,2024-09-07T14:58:33.569Z,216686,-0.22363281,-1.0169067,-0.26019287
1725721113654,2024-09-07T14:58:33.654Z,216771,-0.22570801,-1.0004272,-0.22076416
1725721113685,2024-09-07T14:58:33.685Z,216802,-0.17901611,-0.8885498,-0.12585449
1725721113709,2024-09-07T14:58:33.709Z,216826,-0.1675415,-0.8339844,-0.20715332
1725721113728,2024-09-07T14:58:33.728Z,216845,-0.13415527,-0.87628174,-0.12561035
1725721113747,2024-09-07T14:58:33.747Z,216864,-0.13323975,-0.8678589,-0.09844971
1725721113775,2024-09-07T14:58:33.775Z,216892,-0.1060791,-0.87506104,-0.1184082
1725721113825,2024-09-07T14:58:33.825Z,216942,-0.12609863,-0.920166,-0.06549072
1725721113871,2024-09-07T14:58:33.871Z,216988,-0.1473999,-0.9576416,-0.08679199
1725721113916,2024-09-07T14:58:33.916Z,217033,-0.13891602,-0.9730835,-0.056518555
1725721113960,2024-09-07T14:58:33.960Z,217077,-0.1385498,-0.97436523,-0.0022583008
1725721114005,2024-09-07T14:58:34.005Z,217122,-0.11340332,-0.9128418,-0.028625488
1725721114056,2024-09-07T14:58:34.056Z,217173,-0.089904785,-0.8306885,-0.04260254
1725721114096,2024-09-07T14:58:34.096Z,217213,-0.08905029,-0.9008179,-0.011962891
1725721114129,2024-09-07T14:58:34.129Z,217246,-0.112976074,-1.0022583,-0.04345703
1725721114151,2024-09-07T14:58:34.151Z,217268,-0.08691406,-1.005188,-0.04144287
1725721114180,2024-09-07T14:58:34.180Z,217297,-0.059448242,-0.9645996,-0.012512207
1725721114231,2024-09-07T14:58:34.231Z,217348,-0.042236328,-0.93151855,-0.012084961
1725721114273,2024-09-07T14:58:34.273Z,217390,-0.061279297,-0.9439087,-0.019165039
1725721114322,2024-09-07T14:58:34.322Z,217439,-0.101501465,-0.9375,-0.036010742
1725721114367,2024-09-07T14:58:34.367Z,217484,-0.12194824,-0.8956909,-0.08270264
1725721114410,2024-09-07T14:58:34.410Z,217527,-0.13800049,-0.8757324,-0.101623535
1725721114460,2024-09-07T14:58:34.460Z,217577,-0.14715576,-0.8718262,-0.14202881
1725721114505,2024-09-07T14:58:34.505Z,217622,-0.12982178,-0.85650635,-0.14190674
1725721114540,2024-09-07T14:58:34.540Z,217657,-0.13439941,-0.8128052,-0.17126465
1725721114568,2024-09-07T14:58:34.568Z,217685,-0.13067627,-0.84051514,-0.18927002
1725721114596,2024-09-07T14:58:34.596Z,217713,-0.15386963,-0.8522949,-0.17584229
1725721114632,2024-09-07T14:58:34.632Z,217749,-0.19348145,-0.897522,-0.18640137
1725721114683,2024-09-07T14:58:34.683Z,217800,-0.21099854,-0.8887329,-0.14886475
1725721114784,2024-09-07T14:58:34.784Z,217901,-0.21228027,-0.8773804,-0.22235107
1725721114822,2024-09-07T14:58:34.822Z,217939,-0.22021484,-0.8977051,-0.15533447
1725721114903,2024-09-07T14:58:34.903Z,218020,-0.23498535,-0.9173584,-0.20117188
1725721114958,2024-09-07T14:58:34.958Z,218075,-0.24346924,-0.9821167,-0.26513672
1725721114977,2024-09-07T14:58:34.977Z,218094,-0.29760742,-1.0219727,-0.21087646
1725721115041,2024-09-07T14:58:35.041Z,218158,-0.22857666,-0.9735718,-0.18261719
1725721115061,2024-09-07T14:58:35.061Z,218178,-0.17456055,-0.9329834,-0.2033081
1725721115090,2024-09-07T14:58:35.090Z,218207,-0.16918945,-0.96661377,-0.19885254
1725721115107,2024-09-07T14:58:35.107Z,218224,-0.20666504,-1.0267944,-0.2376709
1725721115124,2024-09-07T14:58:35.124Z,218241,-0.24902344,-1.03656,-0.27142334
1725721115140,2024-09-07T14:58:35.140Z,218257,-0.25769043,-1.0183716,-0.31433105
1725721115176,2024-09-07T14:58:35.176Z,218293,-0.2741089,-0.9906006,-0.30847168
1725721115216,2024-09-07T14:58:35.216Z,218333,-0.25756836,-0.9581299,-0.2989502
1725721115268,2024-09-07T14:58:35.268Z,218385,-0.23712158,-0.9364624,-0.26397705
1725721115306,2024-09-07T14:58:35.306Z,218423,-0.23779297,-0.92492676,-0.25213623
1725721115351,2024-09-07T14:58:35.351Z,218468,-0.26641846,-0.928772,-0.25909424
1725721115370,2024-09-07T14:58:35.370Z,218487,-0.30944824,-0.9484863,-0.2886963
1725721115396,2024-09-07T14:58:35.396Z,218513,-0.33117676,-0.98809814,-0.28393555
1725721115446,2024-09-07T14:58:35.446Z,218563,-0.3466797,-0.98327637,-0.28729248
1725721115487,2024-09-07T14:58:35.487Z,218604,-0.3277588,-0.9546509,-0.2803955
1725721115588,2024-09-07T14:58:35.588Z,218705,-0.30322266,-0.958313,-0.22088623
1725721115619,2024-09-07T14:58:35.619Z,218736,-0.30358887,-0.98864746,-0.21105957
1725721115651,2024-09-07T14:58:35.651Z,218768,-0.28253174,-0.9992676,-0.29760742
1725721115675,2024-09-07T14:58:35.675Z,218792,-0.31463623,-1.0674438,-0.26098633
1725721115713,2024-09-07T14:58:35.713Z,218830,-0.34814453,-1.1148682,-0.30718994
1725721115759,2024-09-07T14:58:35.759Z,218876,-0.35266113,-1.1181641,-0.34240723
1725721115784,2024-09-07T14:58:35.784Z,218901,-0.340271,-1.1160278,-0.33795166
1725721115808,2024-09-07T14:58:35.808Z,218925,-0.31585693,-1.0664062,-0.30895996
1725721115846,2024-09-07T14:58:35.846Z,218963,-0.28204346,-1.0064087,-0.29577637
1725721115898,2024-09-07T14:58:35.898Z,219015,-0.26446533,-0.987854,-0.27111816
1725721115942,2024-09-07T14:58:35.942Z,219059,-0.26361084,-0.9489746,-0.2588501
1725721115981,2024-09-07T14:58:35.981Z,219098,-0.2574463,-0.92333984,-0.27374268
1725721116057,2024-09-07T14:58:36.057Z,219174,-0.28167725,-0.91674805,-0.2774048
1725721116087,2024-09-07T14:58:36.087Z,219204,-0.28131104,-0.92767334,-0.30334473
1725721116116,2024-09-07T14:58:36.116Z,219233,-0.2826538,-0.96295166,-0.3237915
1725721116160,2024-09-07T14:58:36.160Z,219277,-0.28009033,-0.95758057,-0.2927246
1725721116246,2024-09-07T14:58:36.246Z,219363,-0.25506592,-0.9108887,-0.2475586
1725721116276,2024-09-07T14:58:36.276Z,219393,-0.23919678,-0.88549805,-0.24328613
1725721116305,2024-09-07T14:58:36.305Z,219422,-0.24316406,-0.8842163,-0.24621582
1725721116326,2024-09-07T14:58:36.326Z,219443,-0.26690674,-0.9170532,-0.25323486
1725721116344,2024-09-07T14:58:36.344Z,219461,-0.27233887,-0.9425049,-0.23370361
1725721116389,2024-09-07T14:58:36.389Z,219506,-0.260437,-0.9435425,-0.23156738
1725721116432,2024-09-07T14:58:36.432Z,219549,-0.2645874,-0.9686279,-0.26470947
1725721116478,2024-09-07T14:58:36.478Z,219595,-0.27233887,-0.96728516,-0.22930908
1725721116526,2024-09-07T14:58:36.526Z,219643,-0.25561523,-0.9418335,-0.2730713
1725721116567,2024-09-07T14:58:36.567Z,219684,-0.24639893,-0.94348145,-0.2649536
1725721116664,2024-09-07T14:58:36.664Z,219781,-0.21594238,-0.9135742,-0.24053955
1725721116692,2024-09-07T14:58:36.692Z,219809,-0.14605713,-0.91955566,-0.25958252
1725721116717,2024-09-07T14:58:36.717Z,219834,-0.17749023,-0.9193115,-0.23980713
1725721116738,2024-09-07T14:58:36.738Z,219855,-0.20959473,-0.9008789,-0.22521973
1725721116757,2024-09-07T14:58:36.757Z,219874,-0.25524902,-0.87023926,-0.26501465
1725721116794,2024-09-07T14:58:36.794Z,219911,-0.25878906,-0.8851929,-0.25421143
1725721116839,2024-09-07T14:58:36.839Z,219956,-0.23815918,-0.89312744,-0.21850586
1725721116885,2024-09-07T14:58:36.885Z,220002,-0.2477417,-0.8890381,-0.24627686
1725721116928,2024-09-07T14:58:36.928Z,220045,-0.23480225,-0.8956299,-0.16992188
1725721116981,2024-09-07T14:58:36.981Z,220098,-0.24279785,-0.91589355,-0.21746826
1725721117077,2024-09-07T14:58:37.077Z,220194,-0.24523926,-0.95965576,-0.19873047
1725721117125,2024-09-07T14:58:37.125Z,220242,-0.23175049,-0.9315796,-0.16912842
1725721117152,2024-09-07T14:58:37.152Z,220269,-0.19940186,-0.90686035,-0.18322754
1725721117178,2024-09-07T14:58:37.178Z,220295,-0.17181396,-0.9170532,-0.120910645
1725721117206,2024-09-07T14:58:37.206Z,220323,-0.16082764,-0.94433594,-0.1381836
1725721117227,2024-09-07T14:58:37.227Z,220344,-0.15753174,-1.0050659,-0.11932373
1725721117244,2024-09-07T14:58:37.244Z,220361,-0.15802002,-1.013916,-0.07324219
1725721117293,2024-09-07T14:58:37.293Z,220410,-0.17120361,-0.9819946,-0.08441162
1725721117335,2024-09-07T14:58:37.335Z,220452,-0.140625,-0.9147949,-0.036010742
1725721117378,2024-09-07T14:58:37.378Z,220495,-0.10662842,-0.81433105,-0.027282715
1725721117425,2024-09-07T14:58:37.425Z,220542,-0.103393555,-0.76397705,-0.04650879
1725721117469,2024-09-07T14:58:37.469Z,220586,-0.089538574,-0.8685303,-0.043273926
1725721117496,2024-09-07T14:58:37.496Z,220613,-0.16418457,-1.0374756,-0.058166504
1725721117519,2024-09-07T14:58:37.519Z,220636,-0.16497803,-1.059082,-0.08679199
1725721117557,2024-09-07T14:58:37.557Z,220674,-0.111694336,-0.9449463,-0.07891846
1725721117603,2024-09-07T14:58:37.603Z,220720,-0.06896973,-0.88531494,-0.06939697
1725721117648,2024-09-07T14:58:37.648Z,220765,-0.054626465,-0.91241455,-0.051879883
1725721117697,2024-09-07T14:58:37.697Z,220814,-0.06628418,-0.996521,-0.09387207
1725721117744,2024-09-07T14:58:37.744Z,220861,-0.08148193,-1.0532837,-0.05657959
1725721117782,2024-09-07T14:58:37.782Z,220899,-0.07946777,-1.0125122,-0.044128418
1725721117831,2024-09-07T14:58:37.831Z,220948,-0.067993164,-0.92126465,-0.05633545
1725721117878,2024-09-07T14:58:37.878Z,220995,-0.06304932,-0.8868408,-0.046569824
1725721117907,2024-09-07T14:58:37.907Z,221024,-0.087402344,-0.8935547,-0.08215332
1725721117931,2024-09-07T14:58:37.931Z,221048,-0.11413574,-0.9361572,-0.10534668
1725721117959,2024-09-07T14:58:37.959Z,221076,-0.14666748,-0.977478,-0.085754395
1725721118009,2024-09-07T14:58:38.009Z,221126,-0.17401123,-0.9657593,-0.10595703
1725721118054,2024-09-07T14:58:38.054Z,221171,-0.15789795,-0.9298096,-0.070129395
1725721118104,2024-09-07T14:58:38.104Z,221221,-0.15515137,-0.88952637,-0.07421875
1725721118147,2024-09-07T14:58:38.147Z,221264,-0.15692139,-0.897522,-0.093688965
1725721118187,2024-09-07T14:58:38.187Z,221304,-0.18151855,-0.925354,-0.11053467
1725721118234,2024-09-07T14:58:38.234Z,221351,-0.20025635,-0.967041,-0.11755371
1725721151648,2024-09-07T14:59:11.648Z,254765,-0.11151123,-0.9692383,-0.13604736
1725721151687,2024-09-07T14:59:11.687Z,254804,-0.09674072,-0.9429321,-0.13275146
1725721151726,2024-09-07T14:59:11.726Z,254843,-0.08831787,-0.95526123,-0.12756348
1725721151767,2024-09-07T14:59:11.767Z,254884,-0.1138916,-1.005249,-0.11798096
1725721151800,2024-09-07T14:59:11.800Z,254917,-0.12017822,-1.0232544,-0.12530518
1725721151849,2024-09-07T14:59:11.849Z,254966,-0.12896729,-0.9821167,-0.11932373
1725721151891,2024-09-07T14:59:11.891Z,255008,-0.13134766,-0.91674805,-0.12005615
1725721151938,2024-09-07T14:59:11.938Z,255055,-0.1437378,-0.8973999,-0.15765381
1725721151986,2024-09-07T14:59:11.986Z,255103,-0.16143799,-0.92297363,-0.15588379
1725721152032,2024-09-07T14:59:12.032Z,255149,-0.1765747,-0.93011475,-0.16967773
1725721152073,2024-09-07T14:59:12.073Z,255190,-0.18231201,-0.9136963,-0.20635986
1725721152102,2024-09-07T14:59:12.102Z,255219,-0.16741943,-0.84381104,-0.1531372
1725721152127,2024-09-07T14:59:12.127Z,255244,-0.16351318,-0.84295654,-0.23712158
1725721152163,2024-09-07T14:59:12.163Z,255280,-0.1749878,-0.84246826,-0.11114502
1725721152206,2024-09-07T14:59:12.206Z,255323,-0.18035889,-0.8613281,-0.25561523
1725721152251,2024-09-07T14:59:12.251Z,255368,-0.1739502,-0.8536377,-0.17352295
1725721152300,2024-09-07T14:59:12.300Z,255417,-0.18566895,-0.90063477,-0.27374268
1725721152395,2024-09-07T14:59:12.395Z,255512,-0.16070557,-0.8933716,-0.17614746
1725721152427,2024-09-07T14:59:12.427Z,255544,-0.17828369,-0.8954468,-0.32183838
1725721152459,2024-09-07T14:59:12.459Z,255576,-0.1762085,-0.88916016,-0.19476318
1725721152490,2024-09-07T14:59:12.490Z,255607,-0.2175293,-0.9107666,-0.3104248
1725721152513,2024-09-07T14:59:12.513Z,255630,-0.25,-0.9495239,-0.30981445
1725721152539,2024-09-07T14:59:12.539Z,255656,-0.23034668,-0.8858032,-0.2597046
1725721152567,2024-09-07T14:59:12.567Z,255684,-0.20751953,-0.83551025,-0.31158447
1725721152616,2024-09-07T14:59:12.616Z,255733,-0.23565674,-0.8572998,-0.25671387
1725721152662,2024-09-07T14:59:12.662Z,255779,-0.26397705,-0.9077759,-0.272583
1725721152707,2024-09-07T14:59:12.707Z,255824,-0.28070068,-0.9368286,-0.29925537
1725721152744,2024-09-07T14:59:12.744Z,255861,-0.2949829,-0.9558716,-0.28375244
1725721152793,2024-09-07T14:59:12.793Z,255910,-0.28271484,-0.96435547,-0.25042725
1725721152855,2024-09-07T14:59:12.855Z,255972,-0.27038574,-0.97076416,-0.26556396
1725721152882,2024-09-07T14:59:12.882Z,255999,-0.24816895,-0.99316406,-0.31329346
1725721152909,2024-09-07T14:59:12.909Z,256026,-0.24603271,-0.99554443,-0.26342773
1725721152931,2024-09-07T14:59:12.931Z,256048,-0.20458984,-0.99316406,-0.2831421
1725721152971,2024-09-07T14:59:12.971Z,256088,-0.1932373,-1.0050049,-0.27563477
1725721153021,2024-09-07T14:59:13.021Z,256138,-0.1821289,-0.9793701,-0.28875732
1725721153062,2024-09-07T14:59:13.062Z,256179,-0.17980957,-0.94885254,-0.30993652
1725721153108,2024-09-07T14:59:13.108Z,256225,-0.17584229,-0.93463135,-0.26849365
1725721153153,2024-09-07T14:59:13.153Z,256270,-0.20275879,-0.94262695,-0.28131104
1725721153196,2024-09-07T14:59:13.196Z,256313,-0.20251465,-0.9567871,-0.22924805
1725721153304,2024-09-07T14:59:13.304Z,256421,-0.17901611,-0.9793701,-0.22912598
1725721153349,2024-09-07T14:59:13.349Z,256466,-0.17755127,-1.0089722,-0.1607666
1725721153384,2024-09-07T14:59:13.384Z,256501,-0.17626953,-1.065918,-0.19799805
1725721153411,2024-09-07T14:59:13.411Z,256528,-0.19250488,-1.09906,-0.18817139
1725721153435,2024-09-07T14:59:13.435Z,256552,-0.19396973,-1.144043,-0.18365479
1725721153459,2024-09-07T14:59:13.459Z,256576,-0.18359375,-1.1729126,-0.21099854
1725721153480,2024-09-07T14:59:13.480Z,256597,-0.17108154,-1.1569214,-0.1973877
1725721153511,2024-09-07T14:59:13.511Z,256628,-0.16412354,-1.1409302,-0.19158936
1725721153556,2024-09-07T14:59:13.556Z,256673,-0.14709473,-1.1219482,-0.1942749
1725721153602,2024-09-07T14:59:13.602Z,256719,-0.1531372,-1.072998,-0.22631836
1725721153647,2024-09-07T14:59:13.647Z,256764,-0.17510986,-1.0673828,-0.23474121
1725721153693,2024-09-07T14:59:13.693Z,256810,-0.1885376,-1.0747681,-0.1864624
1725721153736,2024-09-07T14:59:13.736Z,256853,-0.2131958,-1.0713501,-0.25335693
1725721153760,2024-09-07T14:59:13.760Z,256877,-0.18713379,-1.0465088,-0.19012451
1725721153786,2024-09-07T14:59:13.786Z,256903,-0.19543457,-1.0179443,-0.1918335
1725721153826,2024-09-07T14:59:13.826Z,256943,-0.18554688,-1.0136108,-0.19573975
1725721153922,2024-09-07T14:59:13.922Z,257039,-0.17779541,-1.0217896,-0.17004395
1725721153946,2024-09-07T14:59:13.946Z,257063,-0.16577148,-1.0319824,-0.17474365
1725721153971,2024-09-07T14:59:13.971Z,257088,-0.1850586,-1.0010376,-0.21716309
1725721154009,2024-09-07T14:59:14.009Z,257126,-0.17822266,-0.947876,-0.17547607
1725721154053,2024-09-07T14:59:14.053Z,257170,-0.18139648,-0.8859253,-0.20343018
1725721154100,2024-09-07T14:59:14.100Z,257217,-0.16442871,-0.87609863,-0.25665283
1725721154142,2024-09-07T14:59:14.142Z,257259,-0.1795044,-0.8560791,-0.19689941
1725721154171,2024-09-07T14:59:14.171Z,257288,-0.14263916,-0.83026123,-0.2423706
1725721154197,2024-09-07T14:59:14.197Z,257314,-0.119506836,-0.8356323,-0.24108887
1725721154230,2024-09-07T14:59:14.230Z,257347,-0.09466553,-0.85858154,-0.2598877
1725721154278,2024-09-07T14:59:14.278Z,257395,-0.07824707,-0.91619873,-0.27618408
1725721154323,2024-09-07T14:59:14.323Z,257440,-0.111816406,-0.953125,-0.24682617
1725721154369,2024-09-07T14:59:14.369Z,257486,-0.11022949,-0.9290161,-0.25439453
1725721154413,2024-09-07T14:59:14.413Z,257530,-0.120666504,-0.9154053,-0.24853516
1725721154459,2024-09-07T14:59:14.459Z,257576,-0.14312744,-0.90545654,-0.20611572
1725721154505,2024-09-07T14:59:14.505Z,257622,-0.1071167,-0.87939453,-0.20922852
1725721154552,2024-09-07T14:59:14.552Z,257669,-0.10656738,-0.87835693,-0.19433594
1725721154576,2024-09-07T14:59:14.576Z,257693,-0.10626221,-0.9413452,-0.16021729
1725721154599,2024-09-07T14:59:14.599Z,257716,-0.10992432,-0.9873047,-0.11657715
1725721154635,2024-09-07T14:59:14.635Z,257752,-0.1038208,-0.97491455,-0.11639404
1725721154681,2024-09-07T14:59:14.681Z,257798,-0.05871582,-0.9121704,-0.099731445
1725721154726,2024-09-07T14:59:14.726Z,257843,-0.059936523,-0.8915405,-0.09173584
1725721154774,2024-09-07T14:59:14.774Z,257891,-0.05645752,-0.857666,-0.13183594
1725721154819,2024-09-07T14:59:14.819Z,257936,-0.05871582,-0.8623657,-0.15106201
1725721154863,2024-09-07T14:59:14.863Z,257980,-0.0635376,-0.9384155,-0.12084961
1725721154908,2024-09-07T14:59:14.908Z,258025,-0.09051514,-0.9951172,-0.14105225
1725721154954,2024-09-07T14:59:14.954Z,258071,-0.034057617,-0.9925537,-0.16235352
1725721154999,2024-09-07T14:59:14.999Z,258116,-0.047607422,-0.9611206,-0.10998535
1725721155028,2024-09-07T14:59:15.028Z,258145,0.011474609,-0.9169922,-0.13623047
1725721155052,2024-09-07T14:59:15.052Z,258169,0.001953125,-0.9388428,-0.13726807
1725721155084,2024-09-07T14:59:15.084Z,258201,-0.018005371,-0.9991455,-0.112854004
1725721155131,2024-09-07T14:59:15.131Z,258248,-0.009094238,-1.0148926,-0.1282959
1725721155177,2024-09-07T14:59:15.177Z,258294,-0.010559082,-0.9987793,-0.122924805
1725721155222,2024-09-07T14:59:15.222Z,258339,-0.011108398,-0.96868896,-0.11193848
1725721155268,2024-09-07T14:59:15.268Z,258385,-0.023803711,-0.9512329,-0.13616943
1725721155315,2024-09-07T14:59:15.315Z,258432,-0.039245605,-0.9588623,-0.1373291
1725721155358,2024-09-07T14:59:15.358Z,258475,-0.057861328,-0.9760742,-0.14959717
1725721155404,2024-09-07T14:59:15.404Z,258521,-0.08343506,-0.963562,-0.16064453
1725721155435,2024-09-07T14:59:15.435Z,258552,-0.09161377,-0.9031372,-0.16827393
1725721155465,2024-09-07T14:59:15.465Z,258582,-0.09094238,-0.82244873,-0.18841553
1725721155491,2024-09-07T14:59:15.491Z,258608,-0.08679199,-0.8303833,-0.19018555
1725721155536,2024-09-07T14:59:15.536Z,258653,-0.13470459,-0.8983154,-0.21697998
1725721155581,2024-09-07T14:59:15.581Z,258698,-0.1685791,-0.94873047,-0.20513916
1725721155632,2024-09-07T14:59:15.632Z,258749,-0.16687012,-0.92700195,-0.23138428
1725721155673,2024-09-07T14:59:15.673Z,258790,-0.12994385,-0.89593506,-0.22686768
1725721155718,2024-09-07T14:59:15.718Z,258835,-0.14477539,-0.85931396,-0.23248291
1725721155764,2024-09-07T14:59:15.764Z,258881,-0.12609863,-0.86242676,-0.25610352
1725721155856,2024-09-07T14:59:15.856Z,258973,-0.17108154,-0.8590698,-0.26940918
1725721155886,2024-09-07T14:59:15.886Z,259003,-0.19451904,-0.89904785,-0.25012207
1725721155917,2024-09-07T14:59:15.917Z,259034,-0.21295166,-0.90625,-0.2515869
1725721155949,2024-09-07T14:59:15.949Z,259066,-0.22033691,-0.89520264,-0.28320312
1725721155979,2024-09-07T14:59:15.979Z,259096,-0.21154785,-0.89904785,-0.25878906
1725721156000,2024-09-07T14:59:16Z,259117,-0.22332764,-0.90734863,-0.2758789
1725721156031,2024-09-07T14:59:16.031Z,259148,-0.2218628,-0.90460205,-0.26513672
1725721156076,2024-09-07T14:59:16.076Z,259193,-0.21398926,-0.88513184,-0.27026367
1725721156123,2024-09-07T14:59:16.123Z,259240,-0.22796631,-0.9246216,-0.31896973
1725721156168,2024-09-07T14:59:16.168Z,259285,-0.24761963,-0.92419434,-0.22283936
1725721156213,2024-09-07T14:59:16.213Z,259330,-0.2390747,-0.9281006,-0.30133057
1725721156260,2024-09-07T14:59:16.260Z,259377,-0.25683594,-0.9242554,-0.28631592
1725721156286,2024-09-07T14:59:16.286Z,259403,-0.27111816,-0.9401245,-0.23876953
1725721156311,2024-09-07T14:59:16.311Z,259428,-0.28466797,-0.92407227,-0.22241211
1725721156348,2024-09-07T14:59:16.348Z,259465,-0.2607422,-0.92852783,-0.2432251
1725721156392,2024-09-07T14:59:16.392Z,259509,-0.2699585,-0.9790039,-0.19647217
1725721156438,2024-09-07T14:59:16.438Z,259555,-0.24151611,-1.0059814,-0.1930542
1725721156481,2024-09-07T14:59:16.481Z,259598,-0.21990967,-0.9890747,-0.17572021
1725721156527,2024-09-07T14:59:16.527Z,259644,-0.19537354,-0.97491455,-0.16296387
1725721156573,2024-09-07T14:59:16.573Z,259690,-0.2166748,-1.019104,-0.19281006
1725721156618,2024-09-07T14:59:16.618Z,259735,-0.2265625,-1.0378418,-0.1496582
1725721156665,2024-09-07T14:59:16.665Z,259782,-0.21801758,-1.0750732,-0.2682495
1725721156693,2024-09-07T14:59:16.693Z,259810,-0.23876953,-1.1405029,-0.17852783
1725721156718,2024-09-07T14:59:16.718Z,259835,-0.27160645,-1.1853027,-0.24041748
1725721156750,2024-09-07T14:59:16.750Z,259867,-0.27349854,-1.2177734,-0.38330078
1725721156796,2024-09-07T14:59:16.796Z,259913,-0.28845215,-1.1935425,-0.27697754
1725721156842,2024-09-07T14:59:16.842Z,259959,-0.30194092,-1.1370239,-0.31610107
1725721156891,2024-09-07T14:59:16.891Z,260008,-0.30914307,-1.0594482,-0.31036377
1725721156932,2024-09-07T14:59:16.932Z,260049,-0.321167,-0.9956665,-0.24902344
1725721156978,2024-09-07T14:59:16.978Z,260095,-0.305542,-0.95007324,-0.2512207
1725721157023,2024-09-07T14:59:17.023Z,260140,-0.303833,-0.93426514,-0.23706055
1725721157068,2024-09-07T14:59:17.068Z,260185,-0.26062012,-0.9747925,-0.23071289
1725721157100,2024-09-07T14:59:17.100Z,260217,-0.2522583,-0.99749756,-0.21118164
1725721157125,2024-09-07T14:59:17.125Z,260242,-0.21936035,-0.9953003,-0.19403076
1725721157155,2024-09-07T14:59:17.155Z,260272,-0.18908691,-0.99731445,-0.23504639
1725721157204,2024-09-07T14:59:17.204Z,260321,-0.20770264,-0.99560547,-0.23406982
1725721157296,2024-09-07T14:59:17.296Z,260413,-0.23388672,-0.99224854,-0.24505615
1725721157327,2024-09-07T14:59:17.327Z,260444,-0.22210693,-0.9751587,-0.28027344
1725721157359,2024-09-07T14:59:17.359Z,260476,-0.21618652,-0.961853,-0.25561523
1725721157391,2024-09-07T14:59:17.391Z,260508,-0.21417236,-0.94244385,-0.2581787
1725721157474,2024-09-07T14:59:17.474Z,260591,-0.1940918,-0.9142456,-0.2623291
1725721157496,2024-09-07T14:59:17.496Z,260613,-0.1821289,-0.89489746,-0.24285889
1725721157520,2024-09-07T14:59:17.520Z,260637,-0.1618042,-0.8876953,-0.23266602
1725721157543,2024-09-07T14:59:17.543Z,260660,-0.14660645,-0.8966675,-0.18676758
1725721157609,2024-09-07T14:59:17.609Z,260726,-0.11798096,-0.9016113,-0.19354248
1725721157631,2024-09-07T14:59:17.631Z,260748,-0.11187744,-0.8883667,-0.21588135
1725721157652,2024-09-07T14:59:17.652Z,260769,-0.12097168,-0.9151001,-0.21704102
1725721157699,2024-09-07T14:59:17.699Z,260816,-0.16326904,-0.9335327,-0.23266602
1725721157743,2024-09-07T14:59:17.743Z,260860,-0.1873169,-0.94036865,-0.23400879
1725721157789,2024-09-07T14:59:17.789Z,260906,-0.18231201,-0.8829346,-0.19573975
1725721157835,2024-09-07T14:59:17.835Z,260952,-0.16131592,-0.89660645,-0.23175049
1725721157878,2024-09-07T14:59:17.878Z,260995,-0.15252686,-0.8712158,-0.16223145
1725721157922,2024-09-07T14:59:17.922Z,261039,-0.12475586,-0.87402344,-0.18676758
1725721157950,2024-09-07T14:59:17.950Z,261067,-0.13336182,-0.9334717,-0.18890381
1725721157975,2024-09-07T14:59:17.975Z,261092,-0.14990234,-0.9268799,-0.10449219
1725721158017,2024-09-07T14:59:18.017Z,261134,-0.113586426,-0.8899536,-0.16937256
1725721158058,2024-09-07T14:59:18.058Z,261175,-0.09436035,-0.8742676,-0.13513184
1725721158103,2024-09-07T14:59:18.103Z,261220,-0.11114502,-0.88513184,-0.11895752
1725721158146,2024-09-07T14:59:18.146Z,261263,-0.09613037,-0.9135742,-0.16674805
1725721158194,2024-09-07T14:59:18.194Z,261311,-0.09820557,-0.94628906,-0.13781738
1725721158237,2024-09-07T14:59:18.237Z,261354,-0.078063965,-0.9584961,-0.14703369
1725721158286,2024-09-07T14:59:18.286Z,261403,-0.051940918,-0.97314453,-0.14257812
1725721158331,2024-09-07T14:59:18.331Z,261448,-0.069885254,-0.99591064,-0.11029053
1725721158361,2024-09-07T14:59:18.361Z,261478,-0.04748535,-0.97924805,-0.12445068
1725721158387,2024-09-07T14:59:18.387Z,261504,-0.049194336,-0.9671631,-0.10144043
1725721158417,2024-09-07T14:59:18.417Z,261534,-0.06726074,-0.96325684,-0.103027344
1725721158464,2024-09-07T14:59:18.464Z,261581,-0.082458496,-0.98046875,-0.12677002
1725721158506,2024-09-07T14:59:18.506Z,261623,-0.103881836,-1.0036011,-0.11907959
1725721158551,2024-09-07T14:59:18.551Z,261668,-0.105773926,-0.98114014,-0.111450195
1725721158601,2024-09-07T14:59:18.601Z,261718,-0.08666992,-0.9394531,-0.12164307
1725721158646,2024-09-07T14:59:18.646Z,261763,-0.09075928,-0.9298096,-0.11364746
1725721158737,2024-09-07T14:59:18.737Z,261854,-0.10644531,-0.960083,-0.13128662
1725721158764,2024-09-07T14:59:18.764Z,261881,-0.1237793,-1.0004883,-0.13171387
1725721158790,2024-09-07T14:59:18.790Z,261907,-0.1227417,-1.0023193,-0.13726807
1725721158819,2024-09-07T14:59:18.819Z,261936,-0.103271484,-0.94348145,-0.12384033
1725721158841,2024-09-07T14:59:18.841Z,261958,-0.10455322,-0.9188843,-0.1430664
1725721158867,2024-09-07T14:59:18.867Z,261984,-0.10455322,-0.91345215,-0.11730957
1725721158911,2024-09-07T14:59:18.911Z,262028,-0.1329956,-0.92126465,-0.15826416
1725721158957,2024-09-07T14:59:18.957Z,262074,-0.14355469,-0.91033936,-0.14282227
1725721159009,2024-09-07T14:59:19.009Z,262126,-0.14160156,-0.9067383,-0.19836426
1725721159047,2024-09-07T14:59:19.047Z,262164,-0.14038086,-0.90802,-0.16082764
1725721159093,2024-09-07T14:59:19.093Z,262210,-0.1408081,-0.8745117,-0.18408203
1725721159137,2024-09-07T14:59:19.137Z,262254,-0.1383667,-0.8623047,-0.20587158
1725721159187,2024-09-07T14:59:19.187Z,262304,-0.14099121,-0.8399048,-0.17218018
1725721159213,2024-09-07T14:59:19.213Z,262330,-0.15570068,-0.8642578,-0.23095703
1725721159237,2024-09-07T14:59:19.237Z,262354,-0.20703125,-0.89575195,-0.23413086
1725721159272,2024-09-07T14:59:19.272Z,262389,-0.20269775,-0.87994385,-0.2130127
1725721159321,2024-09-07T14:59:19.321Z,262438,-0.1821289,-0.79473877,-0.19915771
1725721159361,2024-09-07T14:59:19.361Z,262478,-0.16619873,-0.80352783,-0.20117188
1725721159408,2024-09-07T14:59:19.408Z,262525,-0.19006348,-0.8440552,-0.19140625
1725721159454,2024-09-07T14:59:19.454Z,262571,-0.26470947,-0.94873047,-0.28619385
1725721159497,2024-09-07T14:59:19.497Z,262614,-0.30249023,-0.9781494,-0.21118164
1725721159542,2024-09-07T14:59:19.542Z,262659,-0.26843262,-0.9437866,-0.28253174
1725721159590,2024-09-07T14:59:19.590Z,262707,-0.24853516,-0.94262695,-0.2508545
1725721159621,2024-09-07T14:59:19.621Z,262738,-0.23583984,-0.9597168,-0.33093262
1725721159646,2024-09-07T14:59:19.646Z,262763,-0.23260498,-0.9942627,-0.26812744
1725721159676,2024-09-07T14:59:19.676Z,262793,-0.22698975,-0.97094727,-0.30474854
1725721159720,2024-09-07T14:59:19.720Z,262837,-0.2043457,-0.99823,-0.29986572
1725721159767,2024-09-07T14:59:19.767Z,262884,-0.19873047,-0.98706055,-0.22369385
1725721159814,2024-09-07T14:59:19.814Z,262931,-0.16870117,-0.958313,-0.32452393
1725721159874,2024-09-07T14:59:19.874Z,262991,-0.19171143,-0.97076416,-0.24169922
1725721159920,2024-09-07T14:59:19.920Z,263037,-0.18609619,-0.9887085,-0.22399902
1725721159948,2024-09-07T14:59:19.948Z,263065,-0.18878174,-1.0126953,-0.2715454
1725721159991,2024-09-07T14:59:19.991Z,263108,-0.21704102,-1.0560303,-0.21704102
1725721160036,2024-09-07T14:59:20.036Z,263153,-0.24920654,-1.0442505,-0.22369385
1725721160061,2024-09-07T14:59:20.061Z,263178,-0.2557373,-1.0188599,-0.2333374
1725721160129,2024-09-07T14:59:20.129Z,263246,-0.23815918,-1.0023804,-0.21142578
1725721160154,2024-09-07T14:59:20.154Z,263271,-0.24890137,-1.0401611,-0.22320557
1725721160224,2024-09-07T14:59:20.224Z,263341,-0.27105713,-1.119751,-0.24066162
1725721160247,2024-09-07T14:59:20.247Z,263364,-0.28118896,-1.1635742,-0.2581787
1725721160272,2024-09-07T14:59:20.272Z,263389,-0.28271484,-1.1762085,-0.23168945
1725721160306,2024-09-07T14:59:20.306Z,263423,-0.28155518,-1.1646729,-0.25177002
1725721160353,2024-09-07T14:59:20.353Z,263470,-0.28356934,-1.1227417,-0.258667
1725721160398,2024-09-07T14:59:20.398Z,263515,-0.30078125,-1.0552979,-0.26306152
1725721160441,2024-09-07T14:59:20.441Z,263558,-0.29663086,-1.0100708,-0.2420044
1725721160468,2024-09-07T14:59:20.468Z,263585,-0.2805786,-0.9556885,-0.22705078
1725721160492,2024-09-07T14:59:20.492Z,263609,-0.26843262,-0.95843506,-0.29156494
1725721160533,2024-09-07T14:59:20.533Z,263650,-0.26513672,-0.9789429,-0.22998047
1725721160576,2024-09-07T14:59:20.576Z,263693,-0.23956299,-0.9813843,-0.26080322
1725721160625,2024-09-07T14:59:20.625Z,263742,-0.19451904,-0.98791504,-0.27722168
1725721160668,2024-09-07T14:59:20.668Z,263785,-0.18457031,-0.99890137,-0.2713623
1725721160713,2024-09-07T14:59:20.713Z,263830,-0.19360352,-0.99328613,-0.24908447
1725721160758,2024-09-07T14:59:20.758Z,263875,-0.17980957,-0.96307373,-0.26293945
1725721160804,2024-09-07T14:59:20.804Z,263921,-0.17858887,-0.93963623,-0.24957275
1725721160851,2024-09-07T14:59:20.851Z,263968,-0.15917969,-0.930603,-0.24804688
1725721160876,2024-09-07T14:59:20.876Z,263993,-0.17889404,-0.9291992,-0.26837158
1725721160901,2024-09-07T14:59:20.901Z,264018,-0.20184326,-0.9267578,-0.28894043
1725721160938,2024-09-07T14:59:20.938Z,264055,-0.16644287,-0.9146118,-0.26293945
1725721160989,2024-09-07T14:59:20.989Z,264106,-0.12567139,-0.86968994,-0.25024414
1725721161027,2024-09-07T14:59:21.027Z,264144,-0.075805664,-0.85443115,-0.23950195
1725721161072,2024-09-07T14:59:21.072Z,264189,-0.13830566,-0.86798096,-0.21795654
1725721161123,2024-09-07T14:59:21.123Z,264240,-0.16107178,-0.91119385,-0.2467041
1725721161161,2024-09-07T14:59:21.161Z,264278,-0.21209717,-0.9482422,-0.25683594
1725721161212,2024-09-07T14:59:21.212Z,264329,-0.17706299,-0.9250488,-0.24664307
1725721161255,2024-09-07T14:59:21.255Z,264372,-0.16705322,-0.8809204,-0.2364502
1725721161298,2024-09-07T14:59:21.298Z,264415,-0.17108154,-0.86950684,-0.19329834
1725721161329,2024-09-07T14:59:21.329Z,264446,-0.16925049,-0.88568115,-0.2602539
1725721161355,2024-09-07T14:59:21.355Z,264472,-0.14697266,-0.9006958,-0.23577881
1725721161386,2024-09-07T14:59:21.386Z,264503,-0.12213135,-0.9256592,-0.24066162
1725721161432,2024-09-07T14:59:21.432Z,264549,-0.11883545,-0.9104004,-0.21984863
1725721161476,2024-09-07T14:59:21.476Z,264593,-0.11175537,-0.8965454,-0.24060059
1725721161529,2024-09-07T14:59:21.529Z,264646,-0.13458252,-0.9076538,-0.21679688
1725721161569,2024-09-07T14:59:21.569Z,264686,-0.14202881,-0.93084717,-0.21795654
1725721161610,2024-09-07T14:59:21.610Z,264727,-0.14916992,-0.9454956,-0.17199707
1725721161661,2024-09-07T14:59:21.661Z,264778,-0.11242676,-0.91973877,-0.16314697
1725721161704,2024-09-07T14:59:21.704Z,264821,-0.08630371,-0.8796997,-0.15582275
1725721161729,2024-09-07T14:59:21.729Z,264846,-0.084350586,-0.8786011,-0.11669922
1725721161752,2024-09-07T14:59:21.752Z,264869,-0.08123779,-0.932251,-0.11279297
1725721161790,2024-09-07T14:59:21.790Z,264907,-0.11071777,-0.98254395,-0.12701416
1725721161838,2024-09-07T14:59:21.838Z,264955,-0.08898926,-0.99975586,-0.11553955
1725721161883,2024-09-07T14:59:21.883Z,265000,-0.11114502,-0.9755249,-0.1027832
1725721161928,2024-09-07T14:59:21.928Z,265045,-0.0713501,-0.95562744,-0.12573242
1725721161972,2024-09-07T14:59:21.972Z,265089,-0.089904785,-0.9577637,-0.13513184
1725721162018,2024-09-07T14:59:22.018Z,265135,-0.069885254,-0.98010254,-0.14807129
1725721162064,2024-09-07T14:59:22.064Z,265181,-0.08001709,-0.9840698,-0.13647461
1725721162111,2024-09-07T14:59:22.111Z,265228,-0.08331299,-0.96728516,-0.14233398
1725721162140,2024-09-07T14:59:22.140Z,265257,-0.07196045,-0.9663086,-0.14031982
1725721162176,2024-09-07T14:59:22.176Z,265293,-0.09716797,-0.97924805,-0.1317749
1725721162196,2024-09-07T14:59:22.196Z,265313,-0.09564209,-0.9564209,-0.13983154
1725721162243,2024-09-07T14:59:22.243Z,265360,-0.109802246,-0.92822266,-0.15765381
1725721162287,2024-09-07T14:59:22.287Z,265404,-0.113098145,-0.89404297,-0.15911865
1725721162334,2024-09-07T14:59:22.334Z,265451,-0.13470459,-0.8776245,-0.17883301
1725721162376,2024-09-07T14:59:22.376Z,265493,-0.14971924,-0.9100952,-0.19262695
1725721162424,2024-09-07T14:59:22.424Z,265541,-0.15673828,-0.90093994,-0.14227295
1725721162470,2024-09-07T14:59:22.470Z,265587,-0.15509033,-0.8465576,-0.23297119
1725721162512,2024-09-07T14:59:22.512Z,265629,-0.1408081,-0.8201294,-0.13458252
1725721162559,2024-09-07T14:59:22.559Z,265676,-0.14385986,-0.8411255,-0.16699219
1725721162587,2024-09-07T14:59:22.587Z,265704,-0.17034912,-0.89141846,-0.23303223
1725721162613,2024-09-07T14:59:22.613Z,265730,-0.18463135,-0.89349365,-0.1730957
1725721162645,2024-09-07T14:59:22.645Z,265762,-0.17980957,-0.894104,-0.24334717
1725721162695,2024-09-07T14:59:22.695Z,265812,-0.18737793,-0.8775635,-0.26104736
1725721162738,2024-09-07T14:59:22.738Z,265855,-0.18572998,-0.8937378,-0.28082275
1725721162841,2024-09-07T14:59:22.841Z,265958,-0.2064209,-0.93859863,-0.3027954
1725721162887,2024-09-07T14:59:22.887Z,266004,-0.2140503,-0.91729736,-0.27441406
1725721162917,2024-09-07T14:59:22.917Z,266034,-0.21508789,-0.94281006,-0.34106445
1725721162950,2024-09-07T14:59:22.950Z,266067,-0.21588135,-0.9595947,-0.25030518
1725721163008,2024-09-07T14:59:23.008Z,266125,-0.19824219,-0.9423218,-0.3059082
1725721163039,2024-09-07T14:59:23.039Z,266156,-0.18341064,-0.95422363,-0.28735352
1725721163064,2024-09-07T14:59:23.064Z,266181,-0.19134521,-0.9376221,-0.24127197
1725721163087,2024-09-07T14:59:23.087Z,266204,-0.19055176,-0.9215698,-0.29553223
1725721163111,2024-09-07T14:59:23.111Z,266228,-0.19195557,-0.9242554,-0.26391602
1725721163144,2024-09-07T14:59:23.144Z,266261,-0.21881104,-0.94177246,-0.29858398
1725721163187,2024-09-07T14:59:23.187Z,266304,-0.230896,-0.9493408,-0.24902344
1725721163233,2024-09-07T14:59:23.233Z,266350,-0.2374878,-0.9545288,-0.29943848
1725721163277,2024-09-07T14:59:23.277Z,266394,-0.23242188,-0.97369385,-0.27990723
1725721163325,2024-09-07T14:59:23.325Z,266442,-0.23376465,-0.9403076,-0.25335693
1725721163375,2024-09-07T14:59:23.375Z,266492,-0.24499512,-0.8937988,-0.27313232
1725721163403,2024-09-07T14:59:23.403Z,266520,-0.27044678,-0.90478516,-0.2562256
1725721163426,2024-09-07T14:59:23.426Z,266543,-0.26324463,-0.9484863,-0.28881836
1725721163502,2024-09-07T14:59:23.502Z,266619,-0.27679443,-0.97540283,-0.31219482
1725721163525,2024-09-07T14:59:23.525Z,266642,-0.2590332,-1.006897,-0.27453613
1725721163559,2024-09-07T14:59:23.559Z,266676,-0.24102783,-1.0534058,-0.27563477
1725721163591,2024-09-07T14:59:23.591Z,266708,-0.22296143,-1.0732422,-0.26434326
1725721163636,2024-09-07T14:59:23.636Z,266753,-0.19891357,-1.0773926,-0.2649536
1725721163682,2024-09-07T14:59:23.682Z,266799,-0.20654297,-1.0713501,-0.331604
1725721163726,2024-09-07T14:59:23.726Z,266843,-0.24621582,-1.0715332,-0.30010986
1725721163775,2024-09-07T14:59:23.775Z,266892,-0.2680664,-1.0914307,-0.3779297
1725721163816,2024-09-07T14:59:23.816Z,266933,-0.2642212,-1.076294,-0.34857178
1725721163848,2024-09-07T14:59:23.848Z,266965,-0.24163818,-1.0505371,-0.36102295
1725721163876,2024-09-07T14:59:23.876Z,266993,-0.24035645,-1.0143433,-0.3511963
1725721163911,2024-09-07T14:59:23.911Z,267028,-0.24481201,-0.9766846,-0.31829834
1725721163953,2024-09-07T14:59:23.953Z,267070,-0.22271729,-0.95635986,-0.30212402
1725721163998,2024-09-07T14:59:23.998Z,267115,-0.20800781,-0.9553833,-0.31976318
1725721164041,2024-09-07T14:59:24.041Z,267158,-0.2355957,-0.9667969,-0.30462646
1725721164087,2024-09-07T14:59:24.087Z,267204,-0.2489624,-0.9663696,-0.29730225
1725721164135,2024-09-07T14:59:24.135Z,267252,-0.2536621,-0.9743042,-0.30670166
1725721164181,2024-09-07T14:59:24.181Z,267298,-0.23242188,-0.98217773,-0.29101562
1725721164227,2024-09-07T14:59:24.227Z,267344,-0.22747803,-0.9904175,-0.2831421
1725721164261,2024-09-07T14:59:24.261Z,267378,-0.21575928,-0.99261475,-0.2420044
1725721164291,2024-09-07T14:59:24.291Z,267408,-0.18780518,-0.9780884,-0.21191406
1725721164321,2024-09-07T14:59:24.321Z,267438,-0.17364502,-0.9476929,-0.21984863
1725721164356,2024-09-07T14:59:24.356Z,267473,-0.16546631,-0.9212036,-0.20739746
1725721164402,2024-09-07T14:59:24.402Z,267519,-0.17730713,-0.91381836,-0.24816895
1725721164447,2024-09-07T14:59:24.447Z,267564,-0.21099854,-0.93634033,-0.25891113
1725721164538,2024-09-07T14:59:24.538Z,267655,-0.21838379,-0.9586792,-0.2720337
1725721164566,2024-09-07T14:59:24.566Z,267683,-0.20697021,-1.00354,-0.32312012
1725721164594,2024-09-07T14:59:24.594Z,267711,-0.18170166,-0.99920654,-0.27667236
1725721164627,2024-09-07T14:59:24.627Z,267744,-0.1329956,-0.9503174,-0.2677002
1725721164649,2024-09-07T14:59:24.649Z,267766,-0.10449219,-0.961853,-0.25177002
1725721164672,2024-09-07T14:59:24.672Z,267789,-0.14141846,-0.9492798,-0.18603516
1725721164718,2024-09-07T14:59:24.718Z,267835,-0.14807129,-0.93865967,-0.27368164
1725721164761,2024-09-07T14:59:24.761Z,267878,-0.16687012,-0.9680786,-0.22491455
1725721164809,2024-09-07T14:59:24.809Z,267926,-0.17419434,-0.916687,-0.22766113
1725721164852,2024-09-07T14:59:24.852Z,267969,-0.17541504,-0.8932495,-0.21276855
1725721164896,2024-09-07T14:59:24.896Z,268013,-0.2006836,-0.91064453,-0.19830322
1725721164945,2024-09-07T14:59:24.945Z,268062,-0.20568848,-0.91748047,-0.206604
1725721164991,2024-09-07T14:59:24.991Z,268108,-0.20495605,-0.8742676,-0.21124268
1725721165033,2024-09-07T14:59:25.033Z,268150,-0.16931152,-0.85058594,-0.21539307
1725721165080,2024-09-07T14:59:25.080Z,268197,-0.17376709,-0.8670654,-0.19262695
1725721165107,2024-09-07T14:59:25.107Z,268224,-0.16217041,-0.86938477,-0.18304443
1725721165131,2024-09-07T14:59:25.131Z,268248,-0.12261963,-0.89538574,-0.23022461
1725721165165,2024-09-07T14:59:25.165Z,268282,-0.11828613,-0.91674805,-0.15240479
1725721165215,2024-09-07T14:59:25.215Z,268332,-0.15014648,-0.920166,-0.15826416
1725721165258,2024-09-07T14:59:25.258Z,268375,-0.08917236,-0.87005615,-0.18457031
1725721165302,2024-09-07T14:59:25.302Z,268419,-0.07147217,-0.8378906,-0.1361084
1725721165348,2024-09-07T14:59:25.348Z,268465,-0.087524414,-0.84832764,-0.15026855
1725721165395,2024-09-07T14:59:25.395Z,268512,-0.083618164,-0.9420166,-0.19317627
1725721165436,2024-09-07T14:59:25.436Z,268553,-0.13183594,-1.036499,-0.16577148
1725721165487,2024-09-07T14:59:25.487Z,268604,-0.11035156,-1.0411987,-0.1850586
1725721165517,2024-09-07T14:59:25.517Z,268634,-0.08428955,-0.93115234,-0.13012695
1725721165544,2024-09-07T14:59:25.544Z,268661,-0.072143555,-0.88739014,-0.11242676
1725721165570,2024-09-07T14:59:25.570Z,268687,-0.07373047,-0.92370605,-0.100097656
1725721165617,2024-09-07T14:59:25.617Z,268734,-0.10498047,-0.9884033,-0.07489014
1725721165665,2024-09-07T14:59:25.665Z,268782,-0.15197754,-1.0026245,-0.0647583
1725721165708,2024-09-07T14:59:25.708Z,268825,-0.14996338,-0.9644165,-0.09240723
1725721165752,2024-09-07T14:59:25.752Z,268869,-0.17053223,-0.91552734,-0.103393555
1725721165800,2024-09-07T14:59:25.800Z,268917,-0.18304443,-0.887146,-0.0791626
1725721165843,2024-09-07T14:59:25.843Z,268960,-0.18566895,-0.897522,-0.12438965
1725721165892,2024-09-07T14:59:25.892Z,269009,-0.2020874,-0.90423584,-0.114746094
1725721165919,2024-09-07T14:59:25.919Z,269036,-0.19970703,-0.9213867,-0.13256836
1725721165943,2024-09-07T14:59:25.943Z,269060,-0.17926025,-0.8831787,-0.12615967
1725721165977,2024-09-07T14:59:25.977Z,269094,-0.15386963,-0.88079834,-0.19696045
1725721166022,2024-09-07T14:59:26.022Z,269139,-0.15930176,-0.90771484,-0.15258789
1725721166066,2024-09-07T14:59:26.066Z,269183,-0.15979004,-0.89404297,-0.18463135
1725721166114,2024-09-07T14:59:26.114Z,269231,-0.14898682,-0.90875244,-0.22937012
1725721166205,2024-09-07T14:59:26.205Z,269322,-0.15985107,-0.8951416,-0.1541748
1725721166231,2024-09-07T14:59:26.231Z,269348,-0.14569092,-0.88061523,-0.25061035
1725721166262,2024-09-07T14:59:26.262Z,269379,-0.1605835,-0.8638916,-0.23101807
1725721166291,2024-09-07T14:59:26.291Z,269408,-0.1821289,-0.897522,-0.30108643
1725721166336,2024-09-07T14:59:26.336Z,269453,-0.1887207,-0.9345703,-0.24023438
1725721166360,2024-09-07T14:59:26.360Z,269477,-0.17980957,-0.9088745,-0.29406738
1725721166395,2024-09-07T14:59:26.395Z,269512,-0.17706299,-0.9295654,-0.31329346
1725721166427,2024-09-07T14:59:26.427Z,269544,-0.19903564,-0.94555664,-0.2894287
1725721166472,2024-09-07T14:59:26.472Z,269589,-0.2164917,-0.95080566,-0.28399658
1725721166516,2024-09-07T14:59:26.516Z,269633,-0.16894531,-0.9137573,-0.28967285
1725721166562,2024-09-07T14:59:26.562Z,269679,-0.18829346,-0.91973877,-0.30773926
1725721166609,2024-09-07T14:59:26.609Z,269726,-0.19720459,-0.9584961,-0.27252197
1725721166654,2024-09-07T14:59:26.654Z,269771,-0.20721436,-0.92803955,-0.29180908
1725721166701,2024-09-07T14:59:26.701Z,269818,-0.22003174,-0.9067383,-0.24102783
1725721166747,2024-09-07T14:59:26.747Z,269864,-0.2211914,-0.90893555,-0.26367188
1725721166778,2024-09-07T14:59:26.778Z,269895,-0.23388672,-0.95092773,-0.27062988
1725721166802,2024-09-07T14:59:26.802Z,269919,-0.24047852,-0.9608154,-0.22094727
1725721166832,2024-09-07T14:59:26.832Z,269949,-0.22839355,-0.9829712,-0.28778076
1725721166876,2024-09-07T14:59:26.876Z,269993,-0.24029541,-1.024353,-0.23834229
1725721166923,2024-09-07T14:59:26.923Z,270040,-0.23919678,-1.03302,-0.24230957
1725721166972,2024-09-07T14:59:26.972Z,270089,-0.2399292,-1.0250854,-0.2849121
1725721167015,2024-09-07T14:59:27.015Z,270132,-0.24627686,-1.0617065,-0.25048828
1725721167059,2024-09-07T14:59:27.059Z,270176,-0.25335693,-1.0969849,-0.2635498
1725721167106,2024-09-07T14:59:27.106Z,270223,-0.23815918,-1.0864868,-0.2645874
1725721167164,2024-09-07T14:59:27.164Z,270281,-0.20507812,-1.0773315,-0.26031494
1725721167187,2024-09-07T14:59:27.187Z,270304,-0.19885254,-1.0601807,-0.24768066
1725721167209,2024-09-07T14:59:27.209Z,270326,-0.18237305,-1.0516357,-0.23809814
1725721167236,2024-09-07T14:59:27.236Z,270353,-0.19744873,-1.0551147,-0.22949219
1725721167329,2024-09-07T14:59:27.329Z,270446,-0.21734619,-1.0372925,-0.246521
1725721167353,2024-09-07T14:59:27.353Z,270470,-0.22167969,-0.99853516,-0.22210693
1725721167379,2024-09-07T14:59:27.379Z,270496,-0.2220459,-0.98876953,-0.23516846
1725721167417,2024-09-07T14:59:27.417Z,270534,-0.24938965,-0.99554443,-0.21142578
1725721167463,2024-09-07T14:59:27.463Z,270580,-0.2581787,-0.99365234,-0.19610596
1725721167506,2024-09-07T14:59:27.506Z,270623,-0.24279785,-0.96868896,-0.2074585
1725721167554,2024-09-07T14:59:27.554Z,270671,-0.23358154,-0.9622803,-0.20654297
1725721167602,2024-09-07T14:59:27.602Z,270719,-0.24334717,-0.98583984,-0.21380615
1725721167635,2024-09-07T14:59:27.635Z,270752,-0.2506714,-0.9841919,-0.2210083
1725721167659,2024-09-07T14:59:27.659Z,270776,-0.2597046,-0.9926758,-0.24945068
1725721167688,2024-09-07T14:59:27.688Z,270805,-0.27856445,-0.9836426,-0.22747803
1725721167732,2024-09-07T14:59:27.732Z,270849,-0.2631836,-0.9699707,-0.23999023
1725721167782,2024-09-07T14:59:27.782Z,270899,-0.23339844,-0.9772339,-0.25463867
1725721167824,2024-09-07T14:59:27.824Z,270941,-0.23181152,-0.9939575,-0.23675537
1725721167874,2024-09-07T14:59:27.874Z,270991,-0.22607422,-0.9960327,-0.23150635
1725721167914,2024-09-07T14:59:27.914Z,271031,-0.2286377,-0.9647217,-0.25030518
1725721167962,2024-09-07T14:59:27.962Z,271079,-0.24194336,-0.9326782,-0.24176025
1725721168052,2024-09-07T14:59:28.052Z,271169,-0.22662354,-0.9515381,-0.25177002
1725721168084,2024-09-07T14:59:28.084Z,271201,-0.24035645,-0.9857788,-0.277771
1725721168112,2024-09-07T14:59:28.112Z,271229,-0.24053955,-0.97302246,-0.2434082
1725721168136,2024-09-07T14:59:28.136Z,271253,-0.23181152,-0.92285156,-0.24932861
1725721168159,2024-09-07T14:59:28.159Z,271276,-0.2243042,-0.9081421,-0.25494385
1725721168182,2024-09-07T14:59:28.182Z,271299,-0.215271,-0.9182739,-0.23120117
1725721168227,2024-09-07T14:59:28.227Z,271344,-0.20178223,-0.90960693,-0.21960449
1725721168274,2024-09-07T14:59:28.274Z,271391,-0.20544434,-0.90753174,-0.24298096
1725721168322,2024-09-07T14:59:28.322Z,271439,-0.25616455,-0.9220581,-0.24206543
1725721168362,2024-09-07T14:59:28.362Z,271479,-0.2670288,-0.9248047,-0.20129395
1725721168408,2024-09-07T14:59:28.408Z,271525,-0.24475098,-0.9277344,-0.24908447
1725721168446,2024-09-07T14:59:28.446Z,271563,-0.22979736,-0.89697266,-0.17810059
1725721168469,2024-09-07T14:59:28.469Z,271586,-0.21014404,-0.90319824,-0.24047852
1725721168495,2024-09-07T14:59:28.495Z,271612,-0.20458984,-0.93829346,-0.16455078
1725721168540,2024-09-07T14:59:28.540Z,271657,-0.19238281,-0.92596436,-0.20605469
1725721168589,2024-09-07T14:59:28.589Z,271706,-0.12786865,-0.90509033,-0.18304443
1725721168632,2024-09-07T14:59:28.632Z,271749,-0.10040283,-0.8704834,-0.14251709
1725721168677,2024-09-07T14:59:28.677Z,271794,-0.10974121,-0.84680176,-0.17541504
1725721168721,2024-09-07T14:59:28.721Z,271838,-0.12335205,-0.9127197,-0.1661377
1725721168771,2024-09-07T14:59:28.771Z,271888,-0.18066406,-1.0009155,-0.13024902
1725721168812,2024-09-07T14:59:28.812Z,271929,-0.18383789,-1.0245361,-0.14276123
1725721168862,2024-09-07T14:59:28.862Z,271979,-0.12872314,-0.90979004,-0.0501709
1725721168889,2024-09-07T14:59:28.889Z,272006,-0.105651855,-0.7850952,-0.06817627
1725721168916,2024-09-07T14:59:28.916Z,272033,-0.08026123,-0.7654419,-0.07006836
1725721168945,2024-09-07T14:59:28.945Z,272062,-0.10601807,-0.91278076,-0.07244873
1725721168993,2024-09-07T14:59:28.993Z,272110,-0.13446045,-1.0789185,-0.059814453
1725721169037,2024-09-07T14:59:29.037Z,272154,-0.13122559,-1.0467529,-0.070373535
1725721169086,2024-09-07T14:59:29.086Z,272203,-0.06591797,-0.9338379,-0.09869385
1725721169130,2024-09-07T14:59:29.130Z,272247,-0.059753418,-0.9026489,-0.0791626
1725721169175,2024-09-07T14:59:29.175Z,272292,-0.048706055,-0.9538574,-0.08746338
1725721169216,2024-09-07T14:59:29.216Z,272333,-0.06500244,-1.0162354,-0.08013916
1725721169263,2024-09-07T14:59:29.263Z,272380,-0.07562256,-1.0262451,-0.08190918
1725721169296,2024-09-07T14:59:29.296Z,272413,-0.07861328,-0.9863281,-0.06085205
1725721169321,2024-09-07T14:59:29.321Z,272438,-0.068237305,-0.9650879,-0.06329346
1725721169353,2024-09-07T14:59:29.353Z,272470,-0.07562256,-0.97650146,-0.06713867
1725721169397,2024-09-07T14:59:29.397Z,272514,-0.08105469,-0.9935303,-0.062316895
1725721169445,2024-09-07T14:59:29.445Z,272562,-0.084106445,-0.99523926,-0.07507324
1725721169488,2024-09-07T14:59:29.488Z,272605,-0.09082031,-0.97210693,-0.089538574
1725721169530,2024-09-07T14:59:29.530Z,272647,-0.092163086,-0.9680176,-0.09039307
1725721169576,2024-09-07T14:59:29.576Z,272693,-0.101623535,-0.9918213,-0.08483887
1725721169671,2024-09-07T14:59:29.671Z,272788,-0.096069336,-0.9854126,-0.08013916
1725721169708,2024-09-07T14:59:29.708Z,272825,-0.08117676,-0.9688721,-0.07904053
1725721169738,2024-09-07T14:59:29.738Z,272855,-0.08453369,-0.96484375,-0.06591797
1725721200675,2024-09-07T15:00:00.675Z,303792,-0.13311768,-0.9541626,-0.16821289
1725721200721,2024-09-07T15:00:00.721Z,303838,-0.14556885,-0.95599365,-0.1786499
1725721200766,2024-09-07T15:00:00.766Z,303883,-0.1416626,-0.96643066,-0.17645264
1725721200804,2024-09-07T15:00:00.804Z,303921,-0.16156006,-0.9803467,-0.1628418
1725721200832,2024-09-07T15:00:00.832Z,303949,-0.15393066,-0.9619751,-0.16778564
1725721200861,2024-09-07T15:00:00.861Z,303978,-0.15362549,-0.9505615,-0.16271973
1725721200893,2024-09-07T15:00:00.893Z,304010,-0.15625,-0.9545288,-0.15686035
1725721200940,2024-09-07T15:00:00.940Z,304057,-0.16143799,-0.95648193,-0.16381836
1725721200986,2024-09-07T15:00:00.986Z,304103,-0.15649414,-0.97320557,-0.16784668
1725721201033,2024-09-07T15:00:01.033Z,304150,-0.16070557,-0.9848633,-0.16497803
1725721201077,2024-09-07T15:00:01.077Z,304194,-0.15698242,-0.97576904,-0.16668701
1725721201126,2024-09-07T15:00:01.126Z,304243,-0.14855957,-0.954834,-0.16577148
1725721201168,2024-09-07T15:00:01.168Z,304285,-0.1494751,-0.9580078,-0.1618042
1725721201214,2024-09-07T15:00:01.214Z,304331,-0.15454102,-0.98205566,-0.14990234
1725721201256,2024-09-07T15:00:01.256Z,304373,-0.159729,-0.99542236,-0.16577148
1725721201288,2024-09-07T15:00:01.288Z,304405,-0.14935303,-1.008667,-0.15283203
1725721201316,2024-09-07T15:00:01.316Z,304433,-0.14465332,-0.9755249,-0.13372803
1725721201346,2024-09-07T15:00:01.346Z,304463,-0.117492676,-0.9260254,-0.16009521
1725721201393,2024-09-07T15:00:01.393Z,304510,-0.10998535,-0.9215698,-0.14874268
1725721201440,2024-09-07T15:00:01.440Z,304557,-0.12731934,-0.92663574,-0.16210938
1725721201482,2024-09-07T15:00:01.482Z,304599,-0.12719727,-0.9260254,-0.17565918
1725721201525,2024-09-07T15:00:01.525Z,304642,-0.1416626,-0.9234009,-0.16400146
1725721201578,2024-09-07T15:00:01.578Z,304695,-0.15930176,-0.8892212,-0.19873047
1725721201613,2024-09-07T15:00:01.613Z,304730,-0.13079834,-0.8935547,-0.18548584
1725721201671,2024-09-07T15:00:01.671Z,304788,-0.18029785,-0.8890991,-0.1772461
1725721201705,2024-09-07T15:00:01.705Z,304822,-0.16644287,-0.86816406,-0.20336914
1725721201738,2024-09-07T15:00:01.738Z,304855,-0.1616211,-0.88623047,-0.19927979
1725721201770,2024-09-07T15:00:01.770Z,304887,-0.20648193,-0.8587036,-0.20367432
1725721201805,2024-09-07T15:00:01.805Z,304922,-0.18676758,-0.8668213,-0.29364014
1725721201888,2024-09-07T15:00:01.888Z,305005,-0.22937012,-0.8965454,-0.22833252
1725721201913,2024-09-07T15:00:01.913Z,305030,-0.24243164,-0.83691406,-0.31170654
1725721201940,2024-09-07T15:00:01.940Z,305057,-0.21801758,-0.8265381,-0.31176758
1725721201975,2024-09-07T15:00:01.975Z,305092,-0.25079346,-0.8098755,-0.31536865
1725721202023,2024-09-07T15:00:02.023Z,305140,-0.28601074,-0.9043579,-0.4050293
1725721202067,2024-09-07T15:00:02.067Z,305184,-0.34387207,-0.9223633,-0.25720215
1725721202101,2024-09-07T15:00:02.101Z,305218,-0.32592773,-0.92370605,-0.38641357
1725721202137,2024-09-07T15:00:02.137Z,305254,-0.31933594,-0.9336548,-0.38165283
1725721202165,2024-09-07T15:00:02.165Z,305282,-0.3059082,-0.9069214,-0.2614746
1725721202201,2024-09-07T15:00:02.201Z,305318,-0.2828369,-0.9142456,-0.3581543
1725721202245,2024-09-07T15:00:02.245Z,305362,-0.30871582,-0.95166016,-0.28918457
1725721202292,2024-09-07T15:00:02.292Z,305409,-0.31298828,-0.93951416,-0.31365967
1725721202336,2024-09-07T15:00:02.336Z,305453,-0.29785156,-0.9030762,-0.31298828
1725721202382,2024-09-07T15:00:02.382Z,305499,-0.2822876,-0.86639404,-0.26940918
1725721202427,2024-09-07T15:00:02.427Z,305544,-0.26641846,-0.85772705,-0.3078003
1725721202471,2024-09-07T15:00:02.471Z,305588,-0.2821045,-0.8613281,-0.24664307
1725721202516,2024-09-07T15:00:02.516Z,305633,-0.2783203,-0.88830566,-0.27838135
1725721202544,2024-09-07T15:00:02.544Z,305661,-0.27667236,-0.91674805,-0.30596924
1725721202572,2024-09-07T15:00:02.572Z,305689,-0.28515625,-0.9299927,-0.26245117
1725721202606,2024-09-07T15:00:02.606Z,305723,-0.27972412,-0.9197998,-0.288208
1725721202655,2024-09-07T15:00:02.655Z,305772,-0.27667236,-0.95080566,-0.27648926
1725721202698,2024-09-07T15:00:02.698Z,305815,-0.29577637,-0.98046875,-0.23297119
1725721202740,2024-09-07T15:00:02.740Z,305857,-0.26104736,-1.0137329,-0.25164795
1725721202786,2024-09-07T15:00:02.786Z,305903,-0.2456665,-1.0305176,-0.22894287
1725721202833,2024-09-07T15:00:02.833Z,305950,-0.22686768,-1.0540161,-0.2220459
1725721202876,2024-09-07T15:00:02.876Z,305993,-0.2411499,-1.109375,-0.26239014
1725721202922,2024-09-07T15:00:02.922Z,306039,-0.2692871,-1.1853027,-0.2694702
1725721202951,2024-09-07T15:00:02.951Z,306068,-0.28424072,-1.2330322,-0.28356934
1725721202979,2024-09-07T15:00:02.979Z,306096,-0.27227783,-1.2402954,-0.27886963
1725721203012,2024-09-07T15:00:03.012Z,306129,-0.23040771,-1.1897583,-0.23101807
1725721203057,2024-09-07T15:00:03.057Z,306174,-0.21044922,-1.0894775,-0.21942139
1725721203103,2024-09-07T15:00:03.103Z,306220,-0.1987915,-1.0400391,-0.25653076
1725721203146,2024-09-07T15:00:03.146Z,306263,-0.1998291,-1.0369873,-0.23754883
1725721203196,2024-09-07T15:00:03.196Z,306313,-0.20709229,-1.001831,-0.23443604
1725721203238,2024-09-07T15:00:03.238Z,306355,-0.17279053,-0.9680176,-0.24584961
1725721203282,2024-09-07T15:00:03.282Z,306399,-0.18127441,-0.954834,-0.24932861
1725721203326,2024-09-07T15:00:03.326Z,306443,-0.17803955,-0.95983887,-0.22283936
1725721203390,2024-09-07T15:00:03.390Z,306507,-0.17926025,-0.9562988,-0.24041748
1725721203436,2024-09-07T15:00:03.436Z,306553,-0.16149902,-0.95635986,-0.2501831
1725721203464,2024-09-07T15:00:03.464Z,306581,-0.14776611,-0.9622803,-0.22583008
1725721203523,2024-09-07T15:00:03.523Z,306640,-0.14953613,-0.9655762,-0.23461914
1725721203551,2024-09-07T15:00:03.551Z,306668,-0.16906738,-0.9562378,-0.2321167
1725721203578,2024-09-07T15:00:03.578Z,306695,-0.19458008,-0.92071533,-0.21722412
1725721203610,2024-09-07T15:00:03.610Z,306727,-0.18109131,-0.8821411,-0.25665283
1725721203642,2024-09-07T15:00:03.642Z,306759,-0.19207764,-0.87164307,-0.29943848
1725721203686,2024-09-07T15:00:03.686Z,306803,-0.20251465,-0.8812256,-0.26019287
1725721203731,2024-09-07T15:00:03.731Z,306848,-0.17663574,-0.87475586,-0.21710205
1725721203774,2024-09-07T15:00:03.774Z,306891,-0.15979004,-0.83807373,-0.21606445
1725721203803,2024-09-07T15:00:03.803Z,306920,-0.11657715,-0.8180542,-0.2033081
1725721203833,2024-09-07T15:00:03.833Z,306950,-0.13104248,-0.8720703,-0.20635986
1725721203869,2024-09-07T15:00:03.869Z,306986,-0.16436768,-0.93115234,-0.18603516
1725721203911,2024-09-07T15:00:03.911Z,307028,-0.18377686,-0.9807129,-0.22442627
1725721203956,2024-09-07T15:00:03.956Z,307073,-0.2008667,-1.0056763,-0.18719482
1725721204003,2024-09-07T15:00:04.003Z,307120,-0.19641113,-0.94573975,-0.18469238
1725721204045,2024-09-07T15:00:04.045Z,307162,-0.1716919,-0.9036865,-0.19921875
1725721204095,2024-09-07T15:00:04.095Z,307212,-0.16210938,-0.93395996,-0.09686279
1725721204138,2024-09-07T15:00:04.138Z,307255,-0.15008545,-0.9371338,-0.11279297
1725721204183,2024-09-07T15:00:04.183Z,307300,-0.08190918,-0.9127197,-0.08880615
1725721204212,2024-09-07T15:00:04.212Z,307329,-0.08502197,-0.8597412,-0.08746338
1725721204241,2024-09-07T15:00:04.241Z,307358,-0.052124023,-0.838501,-0.1303711
1725721204270,2024-09-07T15:00:04.270Z,307387,-0.077819824,-0.8805542,-0.12719727
1725721204315,2024-09-07T15:00:04.315Z,307432,-0.09466553,-0.96313477,-0.14367676
1725721204360,2024-09-07T15:00:04.360Z,307477,-0.09326172,-1.0136719,-0.16558838
1725721204407,2024-09-07T15:00:04.407Z,307524,-0.072143555,-0.9970703,-0.16101074
1725721204455,2024-09-07T15:00:04.455Z,307572,-0.04034424,-0.9639282,-0.15478516
1725721204495,2024-09-07T15:00:04.495Z,307612,-0.023864746,-0.95458984,-0.12506104
1725721204544,2024-09-07T15:00:04.544Z,307661,-0.027709961,-0.9550171,-0.1439209
1725721204586,2024-09-07T15:00:04.586Z,307703,-0.025146484,-0.9729614,-0.13537598
1725721204618,2024-09-07T15:00:04.618Z,307735,-0.040283203,-1.0065918,-0.1404419
1725721204646,2024-09-07T15:00:04.646Z,307763,-0.046142578,-0.99139404,-0.13763428
1725721204676,2024-09-07T15:00:04.676Z,307793,-0.04925537,-0.96954346,-0.1395874
1725721204723,2024-09-07T15:00:04.723Z,307840,-0.050842285,-0.9661865,-0.14776611
1725721204765,2024-09-07T15:00:04.765Z,307882,-0.05682373,-0.97076416,-0.13476562
1725721204812,2024-09-07T15:00:04.812Z,307929,-0.07196045,-0.9851074,-0.12664795
1725721204856,2024-09-07T15:00:04.856Z,307973,-0.064208984,-0.97650146,-0.13684082
1725721204904,2024-09-07T15:00:04.904Z,308021,-0.06011963,-0.97314453,-0.115356445
1725721204958,2024-09-07T15:00:04.958Z,308075,-0.062683105,-0.96972656,-0.11505127
1725721204990,2024-09-07T15:00:04.990Z,308107,-0.055480957,-0.9719238,-0.12286377
1725721205044,2024-09-07T15:00:05.044Z,308161,-0.064697266,-0.9864502,-0.109069824
1725721205085,2024-09-07T15:00:05.085Z,308202,-0.061645508,-0.9941406,-0.11541748
1725721205121,2024-09-07T15:00:05.121Z,308238,-0.06072998,-0.98095703,-0.117370605
1725721205146,2024-09-07T15:00:05.146Z,308263,-0.06866455,-0.95184326,-0.117004395
1725721205178,2024-09-07T15:00:05.178Z,308295,-0.09576416,-0.9059448,-0.13604736
1725721205227,2024-09-07T15:00:05.227Z,308344,-0.09222412,-0.89349365,-0.15057373
1725721205261,2024-09-07T15:00:05.261Z,308378,-0.13348389,-0.91064453,-0.13769531
1725721205307,2024-09-07T15:00:05.307Z,308424,-0.14050293,-0.89611816,-0.15478516
1725721205361,2024-09-07T15:00:05.361Z,308478,-0.117004395,-0.880188,-0.17633057
1725721205397,2024-09-07T15:00:05.397Z,308514,-0.11956787,-0.8984375,-0.15722656
1725721205446,2024-09-07T15:00:05.446Z,308563,-0.13226318,-0.9180908,-0.23602295
1725721205475,2024-09-07T15:00:05.475Z,308592,-0.12237549,-0.92077637,-0.16552734
1725721205504,2024-09-07T15:00:05.504Z,308621,-0.110961914,-0.82373047,-0.22741699
1725721205532,2024-09-07T15:00:05.532Z,308649,-0.09613037,-0.8312378,-0.27331543
1725721205578,2024-09-07T15:00:05.578Z,308695,-0.15539551,-0.86608887,-0.24389648
1725721205621,2024-09-07T15:00:05.621Z,308738,-0.17675781,-0.94659424,-0.3274536
1725721205667,2024-09-07T15:00:05.667Z,308784,-0.28100586,-1.00177,-0.33874512
1725721205714,2024-09-07T15:00:05.714Z,308831,-0.27093506,-1.0095215,-0.29833984
1725721205803,2024-09-07T15:00:05.803Z,308920,-0.21252441,-0.9146118,-0.2581787
1725721205833,2024-09-07T15:00:05.833Z,308950,-0.16699219,-0.86486816,-0.2677002
1725721205872,2024-09-07T15:00:05.872Z,308989,-0.15795898,-0.88183594,-0.1918335
1725721205982,2024-09-07T15:00:05.982Z,309099,-0.17614746,-0.90722656,-0.22650146
1725721206022,2024-09-07T15:00:06.022Z,309139,-0.18634033,-0.9640503,-0.2652588
1725721206052,2024-09-07T15:00:06.052Z,309169,-0.22845459,-0.97052,-0.18792725
1725721206077,2024-09-07T15:00:06.077Z,309194,-0.22155762,-0.9538574,-0.24536133
1725721206103,2024-09-07T15:00:06.103Z,309220,-0.20269775,-0.9351196,-0.18463135
1725721206127,2024-09-07T15:00:06.127Z,309244,-0.20922852,-0.9223633,-0.16137695
1725721206154,2024-09-07T15:00:06.154Z,309271,-0.19445801,-0.9560547,-0.25787354
1725721206183,2024-09-07T15:00:06.183Z,309300,-0.23937988,-0.9673462,-0.19134521
1725721206209,2024-09-07T15:00:06.209Z,309326,-0.22039795,-0.9562988,-0.2682495
1725721206254,2024-09-07T15:00:06.254Z,309371,-0.21160889,-0.95947266,-0.27685547
1725721206299,2024-09-07T15:00:06.299Z,309416,-0.24841309,-0.94818115,-0.20532227
1725721206334,2024-09-07T15:00:06.334Z,309451,-0.22698975,-0.94226074,-0.24963379
1725721206360,2024-09-07T15:00:06.360Z,309477,-0.23718262,-0.9677124,-0.25109863
1725721206388,2024-09-07T15:00:06.388Z,309505,-0.26086426,-1.0143433,-0.22363281
1725721206430,2024-09-07T15:00:06.430Z,309547,-0.25708008,-1.0300293,-0.25274658
1725721206480,2024-09-07T15:00:06.480Z,309597,-0.23675537,-1.0426025,-0.2692871
1725721206522,2024-09-07T15:00:06.522Z,309639,-0.23913574,-1.1002808,-0.25201416
1725721206566,2024-09-07T15:00:06.566Z,309683,-0.2475586,-1.1126709,-0.24932861
1725721206614,2024-09-07T15:00:06.614Z,309731,-0.23901367,-1.1038818,-0.26904297
1725721206659,2024-09-07T15:00:06.659Z,309776,-0.24645996,-1.1251831,-0.2697754
1725721206702,2024-09-07T15:00:06.702Z,309819,-0.26550293,-1.1363525,-0.27008057
1725721206734,2024-09-07T15:00:06.734Z,309851,-0.2553711,-1.1021729,-0.2617798
1725721206764,2024-09-07T15:00:06.764Z,309881,-0.2536621,-1.0587769,-0.26013184
1725721206789,2024-09-07T15:00:06.789Z,309906,-0.26257324,-1.0494385,-0.30828857
1725721206836,2024-09-07T15:00:06.836Z,309953,-0.29431152,-1.0317993,-0.24542236
1725721206883,2024-09-07T15:00:06.883Z,310000,-0.27941895,-1.0059814,-0.26965332
1725721206925,2024-09-07T15:00:06.925Z,310042,-0.24493408,-0.9771118,-0.2508545
1725721206970,2024-09-07T15:00:06.970Z,310087,-0.23370361,-0.9750366,-0.2626953
1725721207019,2024-09-07T15:00:07.019Z,310136,-0.24304199,-0.9650879,-0.23632812
1725721207063,2024-09-07T15:00:07.063Z,310180,-0.24273682,-0.94885254,-0.25177002
1725721207105,2024-09-07T15:00:07.105Z,310222,-0.23095703,-0.95721436,-0.26287842
1725721207134,2024-09-07T15:00:07.134Z,310251,-0.24371338,-0.9609375,-0.25500488
1725721207165,2024-09-07T15:00:07.165Z,310282,-0.22668457,-0.98223877,-0.2750244
1725721207289,2024-09-07T15:00:07.289Z,310406,-0.22845459,-0.9875488,-0.24279785
1725721207314,2024-09-07T15:00:07.314Z,310431,-0.21386719,-0.91864014,-0.17932129
1725721207337,2024-09-07T15:00:07.337Z,310454,-0.1642456,-0.88201904,-0.24169922
1725721207359,2024-09-07T15:00:07.359Z,310476,-0.19274902,-0.8729248,-0.19232178
1725721207384,2024-09-07T15:00:07.384Z,310501,-0.17608643,-0.88012695,-0.21313477
1725721207423,2024-09-07T15:00:07.423Z,310540,-0.20135498,-0.9156494,-0.25183105
1725721207469,2024-09-07T15:00:07.469Z,310586,-0.21582031,-0.9383545,-0.18847656
1725721207513,2024-09-07T15:00:07.513Z,310630,-0.18878174,-0.930603,-0.21691895
1725721207557,2024-09-07T15:00:07.557Z,310674,-0.17102051,-0.90167236,-0.21026611
1725721207584,2024-09-07T15:00:07.584Z,310701,-0.21331787,-0.9429321,-0.20080566
1725721207614,2024-09-07T15:00:07.614Z,310731,-0.22607422,-0.9656372,-0.15618896
1725721207649,2024-09-07T15:00:07.649Z,310766,-0.20471191,-0.9019165,-0.14453125
1725721207690,2024-09-07T15:00:07.690Z,310807,-0.13745117,-0.88201904,-0.16577148
1725721207737,2024-09-07T15:00:07.737Z,310854,-0.14398193,-0.9133301,-0.1038208
1725721207781,2024-09-07T15:00:07.781Z,310898,-0.10797119,-0.9633179,-0.17425537
1725721207846,2024-09-07T15:00:07.846Z,310963,-0.13500977,-0.9331665,-0.15350342
1725721207875,2024-09-07T15:00:07.875Z,310992,-0.09631348,-0.8764038,-0.13018799
1725721207916,2024-09-07T15:00:07.916Z,311033,-0.16021729,-0.7927246,-0.0859375
1725721207966,2024-09-07T15:00:07.966Z,311083,-0.16461182,-0.7636719,-0.116760254
1725721207999,2024-09-07T15:00:07.999Z,311116,-0.13183594,-0.81152344,-0.12640381
1725721208028,2024-09-07T15:00:08.028Z,311145,-0.18353271,-0.9812012,-0.109558105
1725721208064,2024-09-07T15:00:08.064Z,311181,-0.2029419,-1.0726318,-0.06518555
1725721208095,2024-09-07T15:00:08.095Z,311212,-0.1652832,-1.0059204,-0.10192871
1725721208141,2024-09-07T15:00:08.141Z,311258,-0.11505127,-0.94555664,-0.097473145
1725721208190,2024-09-07T15:00:08.190Z,311307,-0.09790039,-0.932312,-0.08666992
1725721208238,2024-09-07T15:00:08.238Z,311355,-0.090148926,-0.9553833,-0.12591553
1725721208276,2024-09-07T15:00:08.276Z,311393,-0.11682129,-0.9998779,-0.12030029
1725721208324,2024-09-07T15:00:08.324Z,311441,-0.13653564,-1.0092773,-0.13604736
1725721208368,2024-09-07T15:00:08.368Z,311485,-0.13226318,-0.98413086,-0.12609863
1725721208396,2024-09-07T15:00:08.396Z,311513,-0.12817383,-0.9451904,-0.095214844
1725721208423,2024-09-07T15:00:08.423Z,311540,-0.10809326,-0.9194336,-0.10467529
1725721208455,2024-09-07T15:00:08.455Z,311572,-0.109558105,-0.9453125,-0.092163086
1725721208500,2024-09-07T15:00:08.500Z,311617,-0.107788086,-0.9682007,-0.09838867
1725721208548,2024-09-07T15:00:08.548Z,311665,-0.09075928,-0.9972534,-0.083740234
1725721208590,2024-09-07T15:00:08.590Z,311707,-0.09661865,-1.0048828,-0.068847656
1725721208639,2024-09-07T15:00:08.639Z,311756,-0.0791626,-0.95129395,-0.09057617
1725721208688,2024-09-07T15:00:08.688Z,311805,-0.069885254,-0.9178467,-0.068359375
1725721208726,2024-09-07T15:00:08.726Z,311843,-0.08996582,-0.89904785,-0.052978516
1725721208772,2024-09-07T15:00:08.772Z,311889,-0.10223389,-0.8978882,-0.10681152
1725721208817,2024-09-07T15:00:08.817Z,311934,-0.15234375,-0.9095459,-0.08392334
1725721208848,2024-09-07T15:00:08.848Z,311965,-0.18463135,-0.90075684,-0.12756348
1725721208876,2024-09-07T15:00:08.876Z,311993,-0.20629883,-0.89953613,-0.13427734
1725721208906,2024-09-07T15:00:08.906Z,312023,-0.21826172,-0.90093994,-0.1517334
1725721208954,2024-09-07T15:00:08.954Z,312071,-0.21697998,-0.88134766,-0.15893555
1725721209002,2024-09-07T15:00:09.002Z,312119,-0.21606445,-0.9039917,-0.17028809
1725721209045,2024-09-07T15:00:09.045Z,312162,-0.24481201,-0.94836426,-0.17608643
1725721209087,2024-09-07T15:00:09.087Z,312204,-0.23486328,-0.93566895,-0.21490479
1725721209139,2024-09-07T15:00:09.139Z,312256,-0.2163086,-0.90545654,-0.2727661
1725721209180,2024-09-07T15:00:09.180Z,312297,-0.22229004,-0.90075684,-0.26794434
1725721209221,2024-09-07T15:00:09.221Z,312338,-0.2454834,-0.91674805,-0.32946777
1725721209258,2024-09-07T15:00:09.258Z,312375,-0.23144531,-0.9232788,-0.36035156
1725721209285,2024-09-07T15:00:09.285Z,312402,-0.23364258,-0.89245605,-0.3925171
1725721209312,2024-09-07T15:00:09.312Z,312429,-0.23291016,-0.8817749,-0.3675537
1725721209355,2024-09-07T15:00:09.355Z,312472,-0.2312622,-0.86608887,-0.38775635
1725721209402,2024-09-07T15:00:09.402Z,312519,-0.22131348,-0.8567505,-0.39068604
1725721209446,2024-09-07T15:00:09.446Z,312563,-0.1831665,-0.8331299,-0.36517334
1725721209540,2024-09-07T15:00:09.540Z,312657,-0.2033081,-0.86779785,-0.44000244
1725721209571,2024-09-07T15:00:09.571Z,312688,-0.23181152,-0.9290161,-0.37316895
1725721209599,2024-09-07T15:00:09.599Z,312716,-0.23590088,-0.92333984,-0.3814087
1725721209629,2024-09-07T15:00:09.629Z,312746,-0.21246338,-0.9071045,-0.4206543
1725721209656,2024-09-07T15:00:09.656Z,312773,-0.22015381,-0.9189453,-0.34625244
1725721209686,2024-09-07T15:00:09.686Z,312803,-0.16247559,-0.8864136,-0.35638428
1725721209715,2024-09-07T15:00:09.715Z,312832,-0.11553955,-0.9020996,-0.35302734
1725721209761,2024-09-07T15:00:09.761Z,312878,-0.14648438,-0.958313,-0.32641602
1725721209808,2024-09-07T15:00:09.808Z,312925,-0.15539551,-0.960022,-0.31500244
1725721209854,2024-09-07T15:00:09.854Z,312971,-0.15032959,-0.939209,-0.32800293
1725721209899,2024-09-07T15:00:09.899Z,313016,-0.17443848,-0.94525146,-0.33361816
1725721209940,2024-09-07T15:00:09.940Z,313057,-0.18139648,-0.9630127,-0.32037354
1725721209988,2024-09-07T15:00:09.988Z,313105,-0.16601562,-0.96295166,-0.31451416
1725721210031,2024-09-07T15:00:10.031Z,313148,-0.13665771,-0.993042,-0.2923584
1725721210076,2024-09-07T15:00:10.076Z,313193,-0.12512207,-1.013916,-0.23101807
1725721210106,2024-09-07T15:00:10.106Z,313223,-0.12994385,-1.0186157,-0.25457764
1725721210135,2024-09-07T15:00:10.135Z,313252,-0.13494873,-1.0419922,-0.2738037
1725721210167,2024-09-07T15:00:10.167Z,313284,-0.20715332,-1.0552368,-0.288208
1725721210210,2024-09-07T15:00:10.210Z,313327,-0.26055908,-1.0722656,-0.29510498
1725721210257,2024-09-07T15:00:10.257Z,313374,-0.26782227,-1.1063843,-0.2942505
1725721210302,2024-09-07T15:00:10.302Z,313419,-0.28405762,-1.104187,-0.32965088
1725721210345,2024-09-07T15:00:10.345Z,313462,-0.25756836,-1.100769,-0.36175537
1725721210392,2024-09-07T15:00:10.392Z,313509,-0.26391602,-1.112854,-0.3088379
1725721210437,2024-09-07T15:00:10.437Z,313554,-0.27313232,-1.0982666,-0.2689209
1725721210482,2024-09-07T15:00:10.482Z,313599,-0.25408936,-1.0559692,-0.28619385
1725721210511,2024-09-07T15:00:10.511Z,313628,-0.26379395,-1.0292969,-0.25524902
1725721210537,2024-09-07T15:00:10.537Z,313654,-0.26239014,-1.017334,-0.2816162
1725721210577,2024-09-07T15:00:10.577Z,313694,-0.2538452,-1.0006714,-0.25445557
1725721210616,2024-09-07T15:00:10.616Z,313733,-0.2078247,-0.9805298,-0.26202393
1725721210662,2024-09-07T15:00:10.662Z,313779,-0.17932129,-0.9567261,-0.26367188
1725721210707,2024-09-07T15:00:10.707Z,313824,-0.175354,-0.9750366,-0.27905273
1725721210751,2024-09-07T15:00:10.751Z,313868,-0.18450928,-0.9736328,-0.23071289
1725721210799,2024-09-07T15:00:10.799Z,313916,-0.14434814,-0.9291992,-0.31329346
1725721210843,2024-09-07T15:00:10.843Z,313960,-0.13458252,-0.9321289,-0.2529297
1725721210885,2024-09-07T15:00:10.885Z,314002,-0.13476562,-0.91259766,-0.20727539
1725721210916,2024-09-07T15:00:10.916Z,314033,-0.10443115,-0.8986206,-0.2538452
1725721210942,2024-09-07T15:00:10.942Z,314059,-0.12164307,-0.8866577,-0.20758057
1725721210975,2024-09-07T15:00:10.975Z,314092,-0.12573242,-0.91119385,-0.24908447
1725721211021,2024-09-07T15:00:11.021Z,314138,-0.15161133,-0.9193115,-0.21710205
1725721211070,2024-09-07T15:00:11.070Z,314187,-0.1741333,-0.94592285,-0.31549072
1725721211119,2024-09-07T15:00:11.119Z,314236,-0.2010498,-0.993103,-0.27056885
1725721211159,2024-09-07T15:00:11.159Z,314276,-0.19146729,-0.9470215,-0.19378662
1725721211203,2024-09-07T15:00:11.203Z,314320,-0.1505127,-0.8550415,-0.24438477
1725721211245,2024-09-07T15:00:11.245Z,314362,-0.11541748,-0.82958984,-0.1729126
1725721211295,2024-09-07T15:00:11.295Z,314412,-0.11175537,-0.88690186,-0.21081543
1725721211339,2024-09-07T15:00:11.339Z,314456,-0.123413086,-0.93640137,-0.22784424
1725721211370,2024-09-07T15:00:11.370Z,314487,-0.12072754,-0.9526367,-0.17041016
1725721211396,2024-09-07T15:00:11.396Z,314513,-0.11431885,-0.8613281,-0.17938232
1725721211426,2024-09-07T15:00:11.426Z,314543,-0.09631348,-0.8322754,-0.21765137
1725721211474,2024-09-07T15:00:11.474Z,314591,-0.13250732,-0.92681885,-0.1550293
1725721211516,2024-09-07T15:00:11.516Z,314633,-0.14801025,-0.9694214,-0.16571045
1725721211563,2024-09-07T15:00:11.563Z,314680,-0.08618164,-0.9238281,-0.14318848
1725721211608,2024-09-07T15:00:11.608Z,314725,-0.04638672,-0.8852539,-0.09515381
1725721211651,2024-09-07T15:00:11.651Z,314768,-0.06225586,-0.85961914,-0.10253906
1725721211698,2024-09-07T15:00:11.698Z,314815,-0.032836914,-0.8366699,-0.12896729
1725721211742,2024-09-07T15:00:11.742Z,314859,-0.061584473,-0.9584961,-0.11090088
1725721211772,2024-09-07T15:00:11.772Z,314889,-0.12017822,-1.071106,-0.1251831
1725721211799,2024-09-07T15:00:11.799Z,314916,-0.08544922,-1.0285645,-0.087890625
1725721211830,2024-09-07T15:00:11.830Z,314947,-0.061950684,-0.93078613,-0.09814453
1725721211876,2024-09-07T15:00:11.876Z,314993,-0.04437256,-0.8981323,-0.07312012
1725721211922,2024-09-07T15:00:11.922Z,315039,-0.0690918,-0.95318604,-0.07800293
1725721211969,2024-09-07T15:00:11.969Z,315086,-0.09020996,-1.0418701,-0.09106445
1725721212012,2024-09-07T15:00:12.012Z,315129,-0.101623535,-1.0420532,-0.099853516
1725721212055,2024-09-07T15:00:12.055Z,315172,-0.077941895,-0.98327637,-0.10559082
1725721212102,2024-09-07T15:00:12.102Z,315219,-0.07800293,-0.9244995,-0.08850098
1725721212151,2024-09-07T15:00:12.151Z,315268,-0.09008789,-0.9049072,-0.0993042
1725721212190,2024-09-07T15:00:12.190Z,315307,-0.1116333,-0.942688,-0.12335205
1725721212221,2024-09-07T15:00:12.221Z,315338,-0.14025879,-0.96710205,-0.13256836
1725721212253,2024-09-07T15:00:12.253Z,315370,-0.13739014,-0.94055176,-0.1272583
1725721212284,2024-09-07T15:00:12.284Z,315401,-0.12670898,-0.8734741,-0.121398926
1725721212326,2024-09-07T15:00:12.326Z,315443,-0.12561035,-0.8563843,-0.15759277
1725721212374,2024-09-07T15:00:12.374Z,315491,-0.11773682,-0.8828125,-0.12695312
1725721212417,2024-09-07T15:00:12.417Z,315534,-0.14105225,-0.9086914,-0.16558838
1725721212462,2024-09-07T15:00:12.462Z,315579,-0.13739014,-0.91400146,-0.18041992
1725721212512,2024-09-07T15:00:12.512Z,315629,-0.15319824,-0.9213257,-0.17718506
1725721212564,2024-09-07T15:00:12.564Z,315681,-0.16485596,-0.90405273,-0.19702148
1725721212613,2024-09-07T15:00:12.613Z,315730,-0.16064453,-0.9227295,-0.23986816
1725721212641,2024-09-07T15:00:12.641Z,315758,-0.18188477,-0.9168701,-0.17883301
1725721212671,2024-09-07T15:00:12.671Z,315788,-0.15240479,-0.91522217,-0.24969482
1725721212699,2024-09-07T15:00:12.699Z,315816,-0.15490723,-0.9199829,-0.2133789
1725721212735,2024-09-07T15:00:12.735Z,315852,-0.16143799,-0.8991089,-0.24871826
1725721212823,2024-09-07T15:00:12.823Z,315940,-0.16668701,-0.8880615,-0.25109863
1725721212850,2024-09-07T15:00:12.850Z,315967,-0.2084961,-0.9310303,-0.29907227
1725721212881,2024-09-07T15:00:12.881Z,315998,-0.25250244,-0.95635986,-0.28735352
1725721212910,2024-09-07T15:00:12.910Z,316027,-0.23120117,-0.93011475,-0.2880249
1725721213003,2024-09-07T15:00:13.003Z,316120,-0.17706299,-0.89276123,-0.2874756
1725721213026,2024-09-07T15:00:13.026Z,316143,-0.1427002,-0.8898926,-0.24047852
1725721213055,2024-09-07T15:00:13.055Z,316172,-0.1375122,-0.9371338,-0.26593018
1725721213082,2024-09-07T15:00:13.082Z,316199,-0.17669678,-0.9741211,-0.24310303
1725721213109,2024-09-07T15:00:13.109Z,316226,-0.20928955,-0.9682617,-0.27130127
1725721213138,2024-09-07T15:00:13.138Z,316255,-0.22436523,-0.95147705,-0.2880249
1725721213186,2024-09-07T15:00:13.186Z,316303,-0.2479248,-0.9381714,-0.30114746
1725721213225,2024-09-07T15:00:13.225Z,316342,-0.25952148,-0.914978,-0.31677246
1725721213272,2024-09-07T15:00:13.272Z,316389,-0.24963379,-0.90112305,-0.32232666
1725721213319,2024-09-07T15:00:13.319Z,316436,-0.25567627,-0.9442749,-0.3071289
1725721213367,2024-09-07T15:00:13.367Z,316484,-0.29797363,-0.9793091,-0.2732544
1725721213404,2024-09-07T15:00:13.404Z,316521,-0.26574707,-0.99902344,-0.2838745
1725721213438,2024-09-07T15:00:13.438Z,316555,-0.2489624,-1.0022583,-0.24920654
1725721213463,2024-09-07T15:00:13.463Z,316580,-0.25323486,-1.0108032,-0.26257324
1725721213497,2024-09-07T15:00:13.497Z,316614,-0.28234863,-1.02594,-0.24731445
1725721213541,2024-09-07T15:00:13.541Z,316658,-0.29162598,-1.0101318,-0.2616577
1725721213587,2024-09-07T15:00:13.587Z,316704,-0.27423096,-1.0101318,-0.2597046
1725721213631,2024-09-07T15:00:13.631Z,316748,-0.2769165,-1.0337524,-0.24865723
1725721213680,2024-09-07T15:00:13.680Z,316797,-0.26861572,-1.0682983,-0.27087402
1725721213721,2024-09-07T15:00:13.721Z,316838,-0.28692627,-1.1158447,-0.26715088
1725721213768,2024-09-07T15:00:13.768Z,316885,-0.2878418,-1.1444092,-0.27075195
1725721213813,2024-09-07T15:00:13.813Z,316930,-0.2935791,-1.114624,-0.2581787
1725721213862,2024-09-07T15:00:13.862Z,316979,-0.2854004,-1.0511475,-0.2506714
1725721213894,2024-09-07T15:00:13.894Z,317011,-0.27838135,-0.9824219,-0.22369385
1725721213932,2024-09-07T15:00:13.932Z,317049,-0.28198242,-0.92889404,-0.23754883
1725721213959,2024-09-07T15:00:13.959Z,317076,-0.2705078,-0.92456055,-0.23614502
1725721213991,2024-09-07T15:00:13.991Z,317108,-0.28375244,-0.9260864,-0.23260498
1725721214034,2024-09-07T15:00:14.034Z,317151,-0.2682495,-0.9547119,-0.26293945
1725721214085,2024-09-07T15:00:14.085Z,317202,-0.26654053,-0.9855957,-0.25585938
1725721214127,2024-09-07T15:00:14.127Z,317244,-0.27172852,-0.99823,-0.26141357
1725721214171,2024-09-07T15:00:14.171Z,317288,-0.25213623,-0.982605,-0.23278809
1725721214216,2024-09-07T15:00:14.216Z,317333,-0.21759033,-0.9644165,-0.24139404
1725721214263,2024-09-07T15:00:14.263Z,317380,-0.21185303,-0.9572754,-0.23571777
1725721214295,2024-09-07T15:00:14.295Z,317412,-0.23510742,-0.9588623,-0.26306152
1725721214321,2024-09-07T15:00:14.321Z,317438,-0.24603271,-0.9490967,-0.2810669
1725721214350,2024-09-07T15:00:14.350Z,317467,-0.25170898,-0.9126587,-0.2597046
1725721214491,2024-09-07T15:00:14.491Z,317608,-0.21820068,-0.90423584,-0.26446533
1725721214520,2024-09-07T15:00:14.520Z,317637,-0.2288208,-0.92907715,-0.2857666
1725721214553,2024-09-07T15:00:14.553Z,317670,-0.26733398,-0.9335327,-0.2355957
1725721214584,2024-09-07T15:00:14.584Z,317701,-0.27600098,-0.9024048,-0.27197266
1725721214618,2024-09-07T15:00:14.618Z,317735,-0.28076172,-0.9293213,-0.26464844
1725721214646,2024-09-07T15:00:14.646Z,317763,-0.3092041,-0.93273926,-0.25219727
1725721214672,2024-09-07T15:00:14.672Z,317789,-0.28027344,-0.90008545,-0.2750244
1725721214696,2024-09-07T15:00:14.696Z,317813,-0.25665283,-0.86712646,-0.2131958
1725721214726,2024-09-07T15:00:14.726Z,317843,-0.23370361,-0.8440552,-0.2052002
1725721214757,2024-09-07T15:00:14.757Z,317874,-0.21929932,-0.8552246,-0.17755127
1725721214801,2024-09-07T15:00:14.801Z,317918,-0.22375488,-0.8973999,-0.2076416
1725721214846,2024-09-07T15:00:14.846Z,317963,-0.22003174,-0.93621826,-0.21380615
1725721214895,2024-09-07T15:00:14.895Z,318012,-0.22766113,-0.9371948,-0.17718506
1725721214936,2024-09-07T15:00:14.936Z,318053,-0.2163086,-0.9171753,-0.2000122
1725721214986,2024-09-07T15:00:14.986Z,318103,-0.20916748,-0.9277954,-0.13665771
1725721215025,2024-09-07T15:00:15.025Z,318142,-0.21435547,-0.9071655,-0.14221191
1725721215071,2024-09-07T15:00:15.071Z,318188,-0.17749023,-0.91296387,-0.17541504
1725721215139,2024-09-07T15:00:15.139Z,318256,-0.18536377,-0.9625244,-0.098083496
1725721215175,2024-09-07T15:00:15.175Z,318292,-0.16186523,-0.9659424,-0.11352539
1725721215201,2024-09-07T15:00:15.201Z,318318,-0.11816406,-0.9684448,-0.13452148
1725721215230,2024-09-07T15:00:15.230Z,318347,-0.08898926,-1.0032959,-0.1126709
1725721215256,2024-09-07T15:00:15.256Z,318373,-0.06604004,-0.9928589,-0.076293945
1725721215297,2024-09-07T15:00:15.297Z,318414,-0.06085205,-0.82177734,-0.12158203
1725721215344,2024-09-07T15:00:15.344Z,318461,-0.056518555,-0.7011719,-0.12445068
1725721215388,2024-09-07T15:00:15.388Z,318505,-0.0692749,-0.8200073,-0.1239624
1725721215438,2024-09-07T15:00:15.438Z,318555,-0.13134766,-1.0504761,-0.120788574
1725721215477,2024-09-07T15:00:15.477Z,318594,-0.13537598,-1.1126099,-0.12359619
1725721215522,2024-09-07T15:00:15.522Z,318639,-0.09893799,-1.0155029,-0.10284424
1725721215552,2024-09-07T15:00:15.552Z,318669,-0.044921875,-0.91186523,-0.08679199
1725721215619,2024-09-07T15:00:15.619Z,318736,-0.017578125,-0.8772583,-0.08746338
1725721215665,2024-09-07T15:00:15.665Z,318782,-0.027954102,-0.9517822,-0.07525635
1725721215697,2024-09-07T15:00:15.697Z,318814,-0.06060791,-1.0593262,-0.107055664
1725721215730,2024-09-07T15:00:15.730Z,318847,-0.08306885,-1.0804443,-0.097595215
1725721215771,2024-09-07T15:00:15.771Z,318888,-0.08093262,-0.9831543,-0.08917236
1725721215795,2024-09-07T15:00:15.795Z,318912,-0.068603516,-0.90979004,-0.09729004
1725721215835,2024-09-07T15:00:15.835Z,318952,-0.07489014,-0.90838623,-0.085998535
1725721215884,2024-09-07T15:00:15.884Z,319001,-0.09588623,-0.91796875,-0.09698486
1725721215930,2024-09-07T15:00:15.930Z,319047,-0.099975586,-0.93725586,-0.11279297
1725721215957,2024-09-07T15:00:15.957Z,319074,-0.1184082,-0.9291992,-0.09875488
1725721215984,2024-09-07T15:00:15.984Z,319101,-0.10534668,-0.8880005,-0.11328125
1725721216016,2024-09-07T15:00:16.016Z,319133,-0.11462402,-0.868103,-0.09564209
1725721216064,2024-09-07T15:00:16.064Z,319181,-0.14135742,-0.8876343,-0.1486206
1725721216106,2024-09-07T15:00:16.106Z,319223,-0.15435791,-0.9180298,-0.11437988
1725721216152,2024-09-07T15:00:16.152Z,319269,-0.16992188,-0.9208374,-0.1975708
1725721216241,2024-09-07T15:00:16.241Z,319358,-0.18469238,-0.9156494,-0.1486206
1725721216267,2024-09-07T15:00:16.267Z,319384,-0.16235352,-0.8583374,-0.14221191
1725721216291,2024-09-07T15:00:16.291Z,319408,-0.17279053,-0.89538574,-0.25048828
1725721216329,2024-09-07T15:00:16.329Z,319446,-0.20965576,-0.9176636,-0.12927246
1725721216378,2024-09-07T15:00:16.378Z,319495,-0.16729736,-0.892395,-0.22680664
1725721216405,2024-09-07T15:00:16.405Z,319522,-0.1940918,-0.9118042,-0.25360107
1725721216433,2024-09-07T15:00:16.433Z,319550,-0.21002197,-0.9378052,-0.17285156
1725721216469,2024-09-07T15:00:16.469Z,319586,-0.18499756,-0.9258423,-0.29711914
1725721216514,2024-09-07T15:00:16.514Z,319631,-0.19158936,-0.9571533,-0.27850342
1725721216558,2024-09-07T15:00:16.558Z,319675,-0.24700928,-0.9467163,-0.26672363
1725721216605,2024-09-07T15:00:16.605Z,319722,-0.26263428,-0.9451294,-0.2758789
1725721216647,2024-09-07T15:00:16.647Z,319764,-0.2678833,-0.9291382,-0.30950928
1725721216694,2024-09-07T15:00:16.694Z,319811,-0.25964355,-0.92785645,-0.2952881
1725721216740,2024-09-07T15:00:16.740Z,319857,-0.246521,-0.8989258,-0.27001953
1725721216782,2024-09-07T15:00:16.782Z,319899,-0.21899414,-0.8838501,-0.2892456
1725721216812,2024-09-07T15:00:16.812Z,319929,-0.23962402,-0.89941406,-0.234375
1725721216841,2024-09-07T15:00:16.841Z,319958,-0.25164795,-0.95391846,-0.2682495
1725721216873,2024-09-07T15:00:16.873Z,319990,-0.2678833,-0.97875977,-0.2713623
1725721216918,2024-09-07T15:00:16.918Z,320035,-0.25,-1.0065308,-0.2800293
1725721216963,2024-09-07T15:00:16.963Z,320080,-0.26190186,-0.9939575,-0.29327393
1725721217008,2024-09-07T15:00:17.008Z,320125,-0.24298096,-0.97052,-0.2512207
1725721217052,2024-09-07T15:00:17.052Z,320169,-0.23168945,-0.9685669,-0.2598877
1725721217097,2024-09-07T15:00:17.097Z,320214,-0.24298096,-0.9761963,-0.27789307
1725721217141,2024-09-07T15:00:17.141Z,320258,-0.27807617,-0.9789429,-0.22790527
1725721217187,2024-09-07T15:00:17.187Z,320304,-0.29418945,-0.95892334,-0.26287842
1725721217217,2024-09-07T15:00:17.217Z,320334,-0.30474854,-0.953125,-0.26416016
1725721217243,2024-09-07T15:00:17.243Z,320360,-0.29840088,-0.9736328,-0.24401855
1725721217276,2024-09-07T15:00:17.276Z,320393,-0.30645752,-1.0169678,-0.29193115
1725721217323,2024-09-07T15:00:17.323Z,320440,-0.30975342,-1.0780029,-0.28466797
1725721217366,2024-09-07T15:00:17.366Z,320483,-0.31176758,-1.1083374,-0.303833
1725721217411,2024-09-07T15:00:17.411Z,320528,-0.30786133,-1.1137085,-0.28656006
1725721217457,2024-09-07T15:00:17.457Z,320574,-0.3024292,-1.0942993,-0.26818848
1725721217502,2024-09-07T15:00:17.502Z,320619,-0.28601074,-1.0548096,-0.24908447
1725721217546,2024-09-07T15:00:17.546Z,320663,-0.27166748,-1.0214844,-0.26153564
1725721217591,2024-09-07T15:00:17.591Z,320708,-0.28503418,-1.0064697,-0.26501465
1725721217621,2024-09-07T15:00:17.621Z,320738,-0.31573486,-1.0088501,-0.25805664
1725721217648,2024-09-07T15:00:17.648Z,320765,-0.29638672,-0.98773193,-0.26190186
1725721217680,2024-09-07T15:00:17.680Z,320797,-0.27459717,-0.9540405,-0.24945068
1725721217725,2024-09-07T15:00:17.725Z,320842,-0.2475586,-0.9578247,-0.21514893
1725721217777,2024-09-07T15:00:17.777Z,320894,-0.24926758,-0.98236084,-0.23248291
1725721217816,2024-09-07T15:00:17.816Z,320933,-0.26330566,-0.97436523,-0.18701172
1725721217861,2024-09-07T15:00:17.861Z,320978,-0.22802734,-0.95666504,-0.18804932
1725721217907,2024-09-07T15:00:17.907Z,321024,-0.21386719,-0.95892334,-0.21270752
1725721217955,2024-09-07T15:00:17.955Z,321072,-0.24804688,-0.97821045,-0.19750977
1725721217995,2024-09-07T15:00:17.995Z,321112,-0.27288818,-0.98272705,-0.2185669
1725721218090,2024-09-07T15:00:18.090Z,321207,-0.2609253,-0.9789429,-0.24572754
1725721218128,2024-09-07T15:00:18.128Z,321245,-0.2654419,-0.97424316,-0.22271729
1725721218169,2024-09-07T15:00:18.169Z,321286,-0.23034668,-0.93096924,-0.19366455
1725721218196,2024-09-07T15:00:18.196Z,321313,-0.21289062,-0.92645264,-0.2592163
1725721218223,2024-09-07T15:00:18.223Z,321340,-0.25170898,-0.95874023,-0.19335938
1725721218253,2024-09-07T15:00:18.253Z,321370,-0.23596191,-0.920166,-0.1862793
1725721218280,2024-09-07T15:00:18.280Z,321397,-0.21984863,-0.89953613,-0.25134277
1725721218310,2024-09-07T15:00:18.310Z,321427,-0.22113037,-0.89819336,-0.1930542
1725721218355,2024-09-07T15:00:18.355Z,321472,-0.2078247,-0.8855591,-0.21575928
1725721218400,2024-09-07T15:00:18.400Z,321517,-0.18762207,-0.9038696,-0.21038818
1725721218448,2024-09-07T15:00:18.448Z,321565,-0.20391846,-0.8880005,-0.15637207
1725721218476,2024-09-07T15:00:18.476Z,321593,-0.19293213,-0.87072754,-0.23706055
1725721218537,2024-09-07T15:00:18.537Z,321654,-0.2210083,-0.92388916,-0.22094727
1725721218582,2024-09-07T15:00:18.582Z,321699,-0.24365234,-0.9338379,-0.20355225
1725721218609,2024-09-07T15:00:18.609Z,321726,-0.19958496,-0.86346436,-0.19445801
1725721218637,2024-09-07T15:00:18.637Z,321754,-0.19195557,-0.90167236,-0.23187256
1725721218678,2024-09-07T15:00:18.678Z,321795,-0.21087646,-0.95843506,-0.14294434
1725721218713,2024-09-07T15:00:18.713Z,321830,-0.18066406,-0.95196533,-0.18963623
1725721218762,2024-09-07T15:00:18.762Z,321879,-0.17645264,-0.9633789,-0.1640625
1725721218810,2024-09-07T15:00:18.810Z,321927,-0.17077637,-0.95111084,-0.08392334
1725721218852,2024-09-07T15:00:18.852Z,321969,-0.14331055,-0.8999634,-0.119018555
1725721218880,2024-09-07T15:00:18.880Z,321997,-0.14642334,-0.92211914,-0.07305908
1725721218908,2024-09-07T15:00:18.908Z,322025,-0.13189697,-0.9331665,-0.053771973
1725721218940,2024-09-07T15:00:18.940Z,322057,-0.12005615,-0.92492676,-0.08099365
1725721218987,2024-09-07T15:00:18.987Z,322104,-0.104003906,-0.9258423,-0.005554199
1725721219035,2024-09-07T15:00:19.035Z,322152,-0.12261963,-0.8774414,-0.072509766
1725721219079,2024-09-07T15:00:19.079Z,322196,-0.067993164,-0.8867798,-0.07183838
1725721219122,2024-09-07T15:00:19.122Z,322239,-0.15332031,-0.94488525,-0.07354736
1725721219166,2024-09-07T15:00:19.166Z,322283,-0.114868164,-1.003418,-0.089782715
1725721219211,2024-09-07T15:00:19.211Z,322328,-0.14868164,-1.00531,-0.07824707
1725721219259,2024-09-07T15:00:19.259Z,322376,-0.08392334,-0.95684814,-0.06756592
1725721219303,2024-09-07T15:00:19.303Z,322420,-0.092163086,-0.9274292,-0.059570312
1725721219336,2024-09-07T15:00:19.336Z,322453,-0.048828125,-0.9616699,-0.07885742
1725721219361,2024-09-07T15:00:19.361Z,322478,-0.07989502,-1.0238037,-0.057861328
1725721219394,2024-09-07T15:00:19.394Z,322511,-0.07897949,-1.0309448,-0.07299805
1725721219436,2024-09-07T15:00:19.436Z,322553,-0.07098389,-0.99279785,-0.05529785
1725721219481,2024-09-07T15:00:19.481Z,322598,-0.07800293,-0.95288086,-0.0637207
1725721219526,2024-09-07T15:00:19.526Z,322643,-0.082214355,-0.9592285,-0.072265625
1725721219574,2024-09-07T15:00:19.574Z,322691,-0.09631348,-1.0001221,-0.07879639
1725721219615,2024-09-07T15:00:19.615Z,322732,-0.0982666,-1.0038452,-0.061340332
1725721219659,2024-09-07T15:00:19.659Z,322776,-0.08581543,-0.9786377,-0.072387695
1725721219708,2024-09-07T15:00:19.708Z,322825,-0.08581543,-0.96917725,-0.059448242
1725721219743,2024-09-07T15:00:19.743Z,322860,-0.09411621,-0.96936035,-0.06774902
1725721219773,2024-09-07T15:00:19.773Z,322890,-0.08917236,-0.98516846,-0.07147217
1725721219800,2024-09-07T15:00:19.800Z,322917,-0.101989746,-0.9981079,-0.061828613
1725721330512,2024-09-07T15:02:10.512Z,433629,0.42108154,-0.84924316,0.24871826
1725721330548,2024-09-07T15:02:10.548Z,433665,0.41931152,-0.84954834,0.24359131
1725721330578,2024-09-07T15:02:10.578Z,433695,0.4243164,-0.8540039,0.2501831
1725721330609,2024-09-07T15:02:10.609Z,433726,0.4317627,-0.8512573,0.23547363
1725721330640,2024-09-07T15:02:10.640Z,433757,0.40924072,-0.84350586,0.23040771
1725721330673,2024-09-07T15:02:10.673Z,433790,0.44421387,-0.8579712,0.26330566
1725721330719,2024-09-07T15:02:10.719Z,433836,0.3899536,-0.8409424,0.19659424
1725721330769,2024-09-07T15:02:10.769Z,433886,0.35058594,-0.855896,0.23577881
1725721330810,2024-09-07T15:02:10.810Z,433927,0.35479736,-0.79382324,0.24005127
1725721330858,2024-09-07T15:02:10.858Z,433975,0.29919434,-0.76727295,0.1552124
1725721330904,2024-09-07T15:02:10.904Z,434021,0.3383789,-0.8034668,0.2276001
1725721330952,2024-09-07T15:02:10.952Z,434069,0.3215332,-0.7538452,0.1585083
1725721330997,2024-09-07T15:02:10.997Z,434114,0.35528564,-0.810791,0.16375732
1725721331028,2024-09-07T15:02:11.028Z,434145,0.42321777,-0.90075684,0.2290039
1725721331056,2024-09-07T15:02:11.056Z,434173,0.36987305,-0.77160645,0.1907959
1725721331088,2024-09-07T15:02:11.088Z,434205,0.3873291,-0.84039307,0.24279785
1725721331127,2024-09-07T15:02:11.127Z,434244,0.33447266,-0.77734375,0.23077393
1725721331170,2024-09-07T15:02:11.170Z,434287,0.33233643,-0.8483887,0.30895996
1725721331220,2024-09-07T15:02:11.220Z,434337,0.31262207,-0.8206787,0.2687378
1725721331262,2024-09-07T15:02:11.262Z,434379,0.237854,-0.82159424,0.15551758
1725721331305,2024-09-07T15:02:11.305Z,434422,0.28131104,-0.86639404,0.16467285
1725721331357,2024-09-07T15:02:11.357Z,434474,0.26696777,-0.91278076,0.15197754
1725721331397,2024-09-07T15:02:11.397Z,434514,0.2654419,-0.892395,0.14910889
1725721331431,2024-09-07T15:02:11.431Z,434548,0.29907227,-0.8921509,0.13549805
1725721331472,2024-09-07T15:02:11.472Z,434589,0.3008423,-0.87701416,0.15692139
1725721331505,2024-09-07T15:02:11.505Z,434622,0.23883057,-0.9761963,0.14654541
1725721331533,2024-09-07T15:02:11.533Z,434650,0.2763672,-0.9442749,0.19177246
1725721331579,2024-09-07T15:02:11.579Z,434696,0.2833252,-0.9136963,0.1473999
1725721331623,2024-09-07T15:02:11.623Z,434740,0.26660156,-0.8980713,0.10235596
1725721331668,2024-09-07T15:02:11.668Z,434785,0.28601074,-0.90093994,0.10498047
1725721331715,2024-09-07T15:02:11.715Z,434832,0.25360107,-0.9522705,0.091430664
1725721331756,2024-09-07T15:02:11.756Z,434873,0.2298584,-0.94537354,0.1126709
1725721331802,2024-09-07T15:02:11.802Z,434919,0.2861328,-0.9065552,0.15197754
1725721331833,2024-09-07T15:02:11.833Z,434950,0.2833252,-0.9099121,0.16497803
1725721331862,2024-09-07T15:02:11.862Z,434979,0.28070068,-1.0354004,0.19592285
1725721331895,2024-09-07T15:02:11.895Z,435012,0.32110596,-0.9473877,0.18719482
1725721331936,2024-09-07T15:02:11.936Z,435053,0.31201172,-0.8970337,0.18914795
1725721331990,2024-09-07T15:02:11.990Z,435107,0.30963135,-0.94799805,0.20812988
1725721332024,2024-09-07T15:02:12.024Z,435141,0.24316406,-0.95202637,0.08453369
1725721332071,2024-09-07T15:02:12.071Z,435188,0.30230713,-0.93463135,0.097229004
1725721332140,2024-09-07T15:02:12.140Z,435257,0.35510254,-0.8876953,0.07373047
1725721332175,2024-09-07T15:02:12.175Z,435292,0.26324463,-0.9901123,0.0014038086
1725721332209,2024-09-07T15:02:12.209Z,435326,0.25982666,-1.0343628,0.12640381
1725721332237,2024-09-07T15:02:12.237Z,435354,0.38336182,-0.9172363,0.24029541
1725721332266,2024-09-07T15:02:12.266Z,435383,0.4192505,-0.90374756,0.25079346
1725721332298,2024-09-07T15:02:12.298Z,435415,0.42999268,-0.94506836,0.21459961
1725721332339,2024-09-07T15:02:12.339Z,435456,0.47631836,-0.8482666,0.1975708
1725721332390,2024-09-07T15:02:12.390Z,435507,0.48529053,-0.8998413,0.24468994
1725721332431,2024-09-07T15:02:12.431Z,435548,0.37109375,-0.8821411,0.14678955
1725721332479,2024-09-07T15:02:12.479Z,435596,0.42980957,-0.91955566,0.097839355
1725721332526,2024-09-07T15:02:12.526Z,435643,0.5349121,-0.85913086,0.20727539
1725721332567,2024-09-07T15:02:12.567Z,435684,0.5281372,-0.89227295,0.21282959
1725721332615,2024-09-07T15:02:12.615Z,435732,0.5297241,-0.93774414,0.21905518
1725721332656,2024-09-07T15:02:12.656Z,435773,0.4928589,-0.84887695,0.23071289
1725721332689,2024-09-07T15:02:12.689Z,435806,0.5368042,-0.9623413,0.21002197
1725721332720,2024-09-07T15:02:12.720Z,435837,0.5569458,-0.90374756,0.2074585
1725721332751,2024-09-07T15:02:12.751Z,435868,0.51348877,-0.89227295,0.22302246
1725721332789,2024-09-07T15:02:12.789Z,435906,0.5161743,-0.83599854,0.25256348
1725721332840,2024-09-07T15:02:12.840Z,435957,0.44812012,-0.94555664,0.29388428
1725721332881,2024-09-07T15:02:12.881Z,435998,0.5199585,-0.9024048,0.34643555
1725721332928,2024-09-07T15:02:12.928Z,436045,0.52905273,-0.87127686,0.21875
1725721332971,2024-09-07T15:02:12.971Z,436088,0.5028076,-0.99835205,0.21038818
1725721333015,2024-09-07T15:02:13.015Z,436132,0.48553467,-0.8123169,0.15460205
1725721333063,2024-09-07T15:02:13.063Z,436180,0.42156982,-0.96936035,0.20153809
1725721333095,2024-09-07T15:02:13.095Z,436212,0.425354,-0.97735596,0.19256592
1725721333128,2024-09-07T15:02:13.128Z,436245,0.37176514,-0.86242676,0.3395996
1725721333159,2024-09-07T15:02:13.159Z,436276,0.48046875,-0.9534912,0.25756836
1725721333194,2024-09-07T15:02:13.194Z,436311,0.3649292,-0.77453613,0.26428223
1725721333242,2024-09-07T15:02:13.242Z,436359,0.30462646,-1.1260376,0.20819092
1725721333289,2024-09-07T15:02:13.289Z,436406,0.35021973,-0.6915283,0.2366333
1725721333332,2024-09-07T15:02:13.332Z,436449,0.1751709,-1.0050659,0.2322998
1725721333377,2024-09-07T15:02:13.377Z,436494,0.3460083,-0.8722534,0.2855835
1725721333428,2024-09-07T15:02:13.428Z,436545,0.24432373,-0.9385376,0.08996582
1725721333465,2024-09-07T15:02:13.465Z,436582,0.3093872,-0.7873535,0.18151855
1725721333506,2024-09-07T15:02:13.506Z,436623,0.237854,-0.92840576,0.1663208
1725721333539,2024-09-07T15:02:13.539Z,436656,0.28790283,-0.7593384,0.1329956
1725721333570,2024-09-07T15:02:13.570Z,436687,0.24468994,-0.9661255,0.16009521
1725721333603,2024-09-07T15:02:13.603Z,436720,0.29785156,-0.84002686,0.16564941
1725721333646,2024-09-07T15:02:13.646Z,436763,0.24255371,-1.0239868,0.115356445
1725721333690,2024-09-07T15:02:13.690Z,436807,0.24243164,-0.8227539,0.097351074
1725721333737,2024-09-07T15:02:13.737Z,436854,0.25952148,-0.9868164,0.18341064
1725721333785,2024-09-07T15:02:13.785Z,436902,0.21398926,-0.9089966,0.12164307
1725721333826,2024-09-07T15:02:13.826Z,436943,0.30291748,-0.94226074,0.26171875
1725721333874,2024-09-07T15:02:13.874Z,436991,0.2649536,-0.836853,0.22808838
1725721333916,2024-09-07T15:02:13.916Z,437033,0.24407959,-0.84851074,0.25183105
1725721333947,2024-09-07T15:02:13.947Z,437064,0.20477295,-1.0479736,0.20532227
1725721333977,2024-09-07T15:02:13.977Z,437094,0.20758057,-0.88757324,0.17840576
1725721334019,2024-09-07T15:02:14.019Z,437136,0.2345581,-1.0092773,0.21868896
1725721334056,2024-09-07T15:02:14.056Z,437173,0.33770752,-0.7548828,0.25982666
1725721334096,2024-09-07T15:02:14.096Z,437213,0.29504395,-0.7788086,0.1798706
1725721334142,2024-09-07T15:02:14.142Z,437259,0.28930664,-1.0405273,0.20019531
1725721334185,2024-09-07T15:02:14.185Z,437302,0.19897461,-0.9692993,0.0949707
1725721334231,2024-09-07T15:02:14.231Z,437348,0.2467041,-1.0155029,0.13140869
1725721334280,2024-09-07T15:02:14.280Z,437397,0.30444336,-0.80682373,0.18945312
1725721334323,2024-09-07T15:02:14.323Z,437440,0.32073975,-0.89630127,0.19299316
1725721334356,2024-09-07T15:02:14.356Z,437473,0.34246826,-0.86224365,0.2053833
1725721334384,2024-09-07T15:02:14.384Z,437501,0.31982422,-0.93774414,0.23339844
1725721334417,2024-09-07T15:02:14.417Z,437534,0.3071289,-0.9013672,0.22662354
1725721334455,2024-09-07T15:02:14.455Z,437572,0.3272705,-0.87054443,0.20581055
1725721334504,2024-09-07T15:02:14.504Z,437621,0.3036499,-0.8796387,0.23822021
1725721334546,2024-09-07T15:02:14.546Z,437663,0.31884766,-0.9282837,0.26940918
1725721334593,2024-09-07T15:02:14.593Z,437710,0.29803467,-0.85931396,0.19390869
1725721334636,2024-09-07T15:02:14.636Z,437753,0.29437256,-0.86694336,0.16900635
1725721334682,2024-09-07T15:02:14.682Z,437799,0.3007202,-0.8276367,0.16986084
1725721334726,2024-09-07T15:02:14.726Z,437843,0.3001709,-0.82196045,0.1930542
1725721334761,2024-09-07T15:02:14.761Z,437878,0.32299805,-0.85876465,0.24627686
1725721334793,2024-09-07T15:02:14.793Z,437910,0.3065796,-0.83044434,0.22808838
1725721334827,2024-09-07T15:02:14.827Z,437944,0.37487793,-0.9379883,0.3071289
1725721334860,2024-09-07T15:02:14.860Z,437977,0.36401367,-0.819458,0.2741089
1725721334907,2024-09-07T15:02:14.907Z,438024,0.39105225,-0.8857422,0.32824707
1725721334950,2024-09-07T15:02:14.950Z,438067,0.40429688,-0.8572998,0.33532715
1725721334995,2024-09-07T15:02:14.995Z,438112,0.36431885,-0.8430176,0.2625122
1725721335044,2024-09-07T15:02:15.044Z,438161,0.37280273,-0.87927246,0.3102417
1725721335091,2024-09-07T15:02:15.091Z,438208,0.4029541,-0.85076904,0.31378174
1725721335130,2024-09-07T15:02:15.130Z,438247,0.3859253,-0.82696533,0.26098633
1725721335177,2024-09-07T15:02:15.177Z,438294,0.354187,-0.815979,0.2506714
1725721335210,2024-09-07T15:02:15.210Z,438327,0.41070557,-0.8475342,0.2962036
1725721335242,2024-09-07T15:02:15.242Z,438359,0.40216064,-0.81677246,0.22375488
1725721335274,2024-09-07T15:02:15.274Z,438391,0.38555908,-0.7890625,0.22155762
1725721335313,2024-09-07T15:02:15.313Z,438430,0.38909912,-0.81451416,0.24554443
1725721335357,2024-09-07T15:02:15.357Z,438474,0.37805176,-0.80682373,0.22540283
1725721335403,2024-09-07T15:02:15.403Z,438520,0.3922119,-0.810791,0.27313232
1725721335449,2024-09-07T15:02:15.449Z,438566,0.37750244,-0.80078125,0.27850342
1725721335491,2024-09-07T15:02:15.491Z,438608,0.38482666,-0.81207275,0.32965088
1725721335534,2024-09-07T15:02:15.534Z,438651,0.40234375,-0.8409424,0.3178711
1725721335579,2024-09-07T15:02:15.579Z,438696,0.39471436,-0.8206177,0.31536865
1725721335610,2024-09-07T15:02:15.610Z,438727,0.40631104,-0.85058594,0.3262329
1725721335639,2024-09-07T15:02:15.639Z,438756,0.4072876,-0.8123169,0.28393555
1725721335672,2024-09-07T15:02:15.672Z,438789,0.39709473,-0.8331299,0.27893066
1725721335719,2024-09-07T15:02:15.719Z,438836,0.39764404,-0.8591919,0.26159668
1725721335761,2024-09-07T15:02:15.761Z,438878,0.35388184,-0.79766846,0.21166992
1725721335809,2024-09-07T15:02:15.809Z,438926,0.3241577,-0.7573242,0.20721436
1725721335851,2024-09-07T15:02:15.851Z,438968,0.33898926,-0.81469727,0.23474121
1725721335898,2024-09-07T15:02:15.898Z,439015,0.3540039,-0.79577637,0.25402832
1725721335945,2024-09-07T15:02:15.945Z,439062,0.31903076,-0.7697754,0.18676758
1725721335985,2024-09-07T15:02:15.985Z,439102,0.3517456,-0.7732544,0.18743896
1725721336015,2024-09-07T15:02:16.015Z,439132,0.3649292,-0.7963867,0.21557617
1725721336045,2024-09-07T15:02:16.045Z,439162,0.34118652,-0.79974365,0.23901367
1725721336083,2024-09-07T15:02:16.083Z,439200,0.3511963,-0.82458496,0.22747803
1725721336125,2024-09-07T15:02:16.125Z,439242,0.33374023,-0.78967285,0.262146
1725721336166,2024-09-07T15:02:16.166Z,439283,0.25927734,-0.7752075,0.2746582
1725721336211,2024-09-07T15:02:16.211Z,439328,0.27423096,-0.8637085,0.2503662
1725721336259,2024-09-07T15:02:16.259Z,439376,0.28405762,-0.83258057,0.22277832
1725721336301,2024-09-07T15:02:16.301Z,439418,0.28393555,-0.82366943,0.1673584
1725721336347,2024-09-07T15:02:16.347Z,439464,0.28430176,-0.9180908,0.20806885
1725721336392,2024-09-07T15:02:16.392Z,439509,0.25073242,-0.94873047,0.20343018
1725721336435,2024-09-07T15:02:16.435Z,439552,0.30255127,-0.84350586,0.20135498
1725721336466,2024-09-07T15:02:16.466Z,439583,0.30621338,-0.9005127,0.1907959
1725721336499,2024-09-07T15:02:16.499Z,439616,0.3050537,-0.9800415,0.1984253
1725721336532,2024-09-07T15:02:16.532Z,439649,0.2616577,-0.8973999,0.13983154
1725721336579,2024-09-07T15:02:16.579Z,439696,0.26330566,-0.8930054,0.15948486
1725721336615,2024-09-07T15:02:16.615Z,439732,0.24420166,-0.88934326,0.093688965
1725721336660,2024-09-07T15:02:16.660Z,439777,0.2678833,-0.86309814,0.027954102
1725721336709,2024-09-07T15:02:16.709Z,439826,0.23309326,-0.98809814,0.053833008
1725721336750,2024-09-07T15:02:16.750Z,439867,0.27539062,-0.9602661,0.12310791
1725721336804,2024-09-07T15:02:16.804Z,439921,0.30688477,-0.9723511,0.18670654
1725721336841,2024-09-07T15:02:16.841Z,439958,0.3503418,-0.9850464,0.21221924
1725721336873,2024-09-07T15:02:16.873Z,439990,0.38635254,-0.9421387,0.17999268
1725721336903,2024-09-07T15:02:16.903Z,440020,0.36053467,-1.0377808,0.1473999
1725721336933,2024-09-07T15:02:16.933Z,440050,0.3826294,-0.96551514,0.15301514
1725721336974,2024-09-07T15:02:16.974Z,440091,0.42736816,-1.0235596,0.13824463
1725721337020,2024-09-07T15:02:17.020Z,440137,0.38378906,-0.9360962,0.10992432
1725721337066,2024-09-07T15:02:17.066Z,440183,0.49102783,-0.8811035,0.11608887
1725721337113,2024-09-07T15:02:17.113Z,440230,0.4946289,-0.88409424,0.15344238
1725721337157,2024-09-07T15:02:17.157Z,440274,0.4954834,-1.0374146,0.07141113
1725721337200,2024-09-07T15:02:17.200Z,440317,0.46051025,-0.9842529,0.14245605
1725721337252,2024-09-07T15:02:17.252Z,440369,0.51660156,-1.0557861,0.22283936
1725721337283,2024-09-07T15:02:17.283Z,440400,0.44726562,-0.9265747,0.18011475
1725721337314,2024-09-07T15:02:17.314Z,440431,0.46636963,-0.9804077,0.1998291
1725721337346,2024-09-07T15:02:17.346Z,440463,0.45373535,-0.84576416,0.14752197
1725721337381,2024-09-07T15:02:17.381Z,440498,0.45758057,-0.8945923,0.23205566
1725721337426,2024-09-07T15:02:17.426Z,440543,0.40161133,-0.9328003,0.16540527
1725721337470,2024-09-07T15:02:17.470Z,440587,0.44354248,-0.9238281,0.2600708
1725721337516,2024-09-07T15:02:17.516Z,440633,0.44555664,-0.9382324,0.24633789
1725721337563,2024-09-07T15:02:17.563Z,440680,0.4494629,-0.9011841,0.20404053
1725721337610,2024-09-07T15:02:17.610Z,440727,0.47857666,-0.916687,0.2374878
1725721337652,2024-09-07T15:02:17.652Z,440769,0.4800415,-0.963562,0.1875
1725721337696,2024-09-07T15:02:17.696Z,440813,0.37475586,-0.9401245,0.18029785
1725721337728,2024-09-07T15:02:17.728Z,440845,0.40722656,-0.9850464,0.24060059
1725721337756,2024-09-07T15:02:17.756Z,440873,0.33789062,-0.802063,0.15228271
1725721337793,2024-09-07T15:02:17.793Z,440910,0.37036133,-0.9708252,0.1763916
1725721337829,2024-09-07T15:02:17.829Z,440946,0.30981445,-0.9168701,0.16589355
1725721337874,2024-09-07T15:02:17.874Z,440991,0.35858154,-0.9286499,0.19012451
1725721337921,2024-09-07T15:02:17.921Z,441038,0.21539307,-0.9487915,0.12017822
1725721337967,2024-09-07T15:02:17.967Z,441084,0.3484497,-0.82440186,0.24249268
1725721338009,2024-09-07T15:02:18.009Z,441126,0.2902832,-0.9031372,0.18914795
1725721338056,2024-09-07T15:02:18.056Z,441173,0.19366455,-0.8939209,0.14422607
1725721338104,2024-09-07T15:02:18.104Z,441221,0.2781372,-0.99902344,0.2786255
1725721338141,2024-09-07T15:02:18.141Z,441258,0.27801514,-0.82995605,0.19659424
1725721338185,2024-09-07T15:02:18.185Z,441302,0.26263428,-0.9564209,0.26489258
1725721338219,2024-09-07T15:02:18.219Z,441336,0.28424072,-0.8633423,0.19207764
1725721338252,2024-09-07T15:02:18.252Z,441369,0.15136719,-0.97436523,0.13677979
1725721338285,2024-09-07T15:02:18.285Z,441402,0.25604248,-0.87786865,0.22271729
1725721338325,2024-09-07T15:02:18.325Z,441442,0.22143555,-0.81469727,0.16802979
1725721338369,2024-09-07T15:02:18.369Z,441486,0.27630615,-1.0305786,0.23358154
