Timestamp (ms),ISO DateTime,Elapsed Time (ms),Acceleration X,Acceleration Y,Acceleration Z
1725697209301,2024-09-07T08:20:09.301Z,130994,-0.20477295,-1.0455322,-0.07763672
1725697209342,2024-09-07T08:20:09.342Z,131035,-0.21362305,-0.9953613,-0.09436035
1725697209387,2024-09-07T08:20:09.387Z,131080,-0.17333984,-0.9472656,-0.1083374
1725697209431,2024-09-07T08:20:09.431Z,131124,-0.19940186,-0.93499756,-0.08343506
1725697209440,2024-09-07T08:20:09.440Z,131133,-0.20129395,-0.9450073,-0.15472412
1725697209477,2024-09-07T08:20:09.477Z,131170,-0.19006348,-0.9837036,-0.1026001
1725697209520,2024-09-07T08:20:09.520Z,131213,-0.22387695,-1.0019531,-0.046936035
1725697209570,2024-09-07T08:20:09.570Z,131263,-0.15246582,-0.9849243,-0.081726074
1725697209619,2024-09-07T08:20:09.619Z,131312,-0.20672607,-0.9428711,-0.020202637
1725697209662,2024-09-07T08:20:09.662Z,131355,-0.15496826,-0.9194336,-0.06890869
1725697209710,2024-09-07T08:20:09.710Z,131403,-0.17584229,-0.9383545,-0.059326172
1725697209753,2024-09-07T08:20:09.753Z,131446,-0.1560669,-0.98773193,-0.055603027
1725697209798,2024-09-07T08:20:09.798Z,131491,-0.15490723,-0.989624,-0.038635254
1725697209842,2024-09-07T08:20:09.842Z,131535,-0.14489746,-0.96728516,-0.055480957
1725697209888,2024-09-07T08:20:09.888Z,131581,-0.13140869,-0.9545288,-0.058654785
1725697209906,2024-09-07T08:20:09.906Z,131599,-0.16973877,-0.94281006,-0.06958008
1725697209931,2024-09-07T08:20:09.931Z,131624,-0.18847656,-0.91204834,-0.11035156
1725697209977,2024-09-07T08:20:09.977Z,131670,-0.21490479,-0.8795166,-0.09307861
1725697210070,2024-09-07T08:20:10.070Z,131763,-0.22076416,-0.8597412,-0.1550293
1725697210092,2024-09-07T08:20:10.092Z,131785,-0.23822021,-0.89849854,-0.1315918
1725697210114,2024-09-07T08:20:10.114Z,131807,-0.2520752,-0.89123535,-0.17956543
1725697210157,2024-09-07T08:20:10.157Z,131850,-0.25109863,-0.9328613,-0.17993164
1725697210201,2024-09-07T08:20:10.201Z,131894,-0.24224854,-0.8991699,-0.11468506
1725697210246,2024-09-07T08:20:10.246Z,131939,-0.25531006,-0.86816406,-0.22039795
1725697210293,2024-09-07T08:20:10.293Z,131986,-0.22851562,-0.85809326,-0.1671753
1725697210312,2024-09-07T08:20:10.312Z,132005,-0.24310303,-0.86846924,-0.16149902
1725697210335,2024-09-07T08:20:10.335Z,132028,-0.2277832,-0.87542725,-0.19702148
1725697210380,2024-09-07T08:20:10.380Z,132073,-0.22296143,-0.89038086,-0.18743896
1725697210427,2024-09-07T08:20:10.427Z,132120,-0.21014404,-0.9463501,-0.22625732
1725697210471,2024-09-07T08:20:10.471Z,132164,-0.2454834,-0.94573975,-0.17700195
1725697210517,2024-09-07T08:20:10.517Z,132210,-0.21179199,-0.9243164,-0.27215576
1725697210562,2024-09-07T08:20:10.562Z,132255,-0.15472412,-0.9024658,-0.20428467
1725697210608,2024-09-07T08:20:10.608Z,132301,-0.17126465,-0.9257202,-0.20593262
1725697210654,2024-09-07T08:20:10.654Z,132347,-0.13452148,-0.9071655,-0.12335205
1725697210699,2024-09-07T08:20:10.699Z,132392,-0.11968994,-0.9226074,-0.23400879
1725697210721,2024-09-07T08:20:10.721Z,132414,-0.16369629,-0.95428467,-0.16516113
1725697210741,2024-09-07T08:20:10.741Z,132434,-0.14727783,-0.9928589,-0.14508057
1725697210786,2024-09-07T08:20:10.786Z,132479,-0.15039062,-1.0022583,-0.1663208
1725697210834,2024-09-07T08:20:10.834Z,132527,-0.19232178,-0.9935303,-0.1739502
1725697210882,2024-09-07T08:20:10.882Z,132575,-0.22595215,-0.9714966,-0.15472412
1725697210922,2024-09-07T08:20:10.922Z,132615,-0.23260498,-0.9939575,-0.20495605
1725697210968,2024-09-07T08:20:10.968Z,132661,-0.17730713,-0.99749756,-0.22131348
1725697211012,2024-09-07T08:20:11.012Z,132705,-0.1609497,-0.97406006,-0.19433594
1725697211056,2024-09-07T08:20:11.056Z,132749,-0.13580322,-0.996521,-0.099121094
1725697211103,2024-09-07T08:20:11.103Z,132796,-0.12957764,-1.0185547,-0.1427002
1725697211148,2024-09-07T08:20:11.148Z,132841,-0.1583252,-1.0429688,-0.16967773
1725697211167,2024-09-07T08:20:11.167Z,132860,-0.2333374,-1.0246582,-0.2446289
1725697211191,2024-09-07T08:20:11.191Z,132884,-0.25427246,-0.9436035,-0.22918701
1725697211238,2024-09-07T08:20:11.238Z,132931,-0.28063965,-0.95977783,-0.38433838
1725697211283,2024-09-07T08:20:11.283Z,132976,-0.32299805,-0.9777832,-0.22833252
1725697211328,2024-09-07T08:20:11.328Z,133021,-0.331604,-1.0170898,-0.22375488
1725697211374,2024-09-07T08:20:11.374Z,133067,-0.2630005,-1.0617676,-0.2055664
1725697211418,2024-09-07T08:20:11.418Z,133111,-0.21502686,-1.0111084,-0.089538574
1725697211462,2024-09-07T08:20:11.462Z,133155,-0.10583496,-0.97387695,-0.100097656
1725697211507,2024-09-07T08:20:11.507Z,133200,-0.09082031,-0.92333984,-0.09161377
1725697211553,2024-09-07T08:20:11.553Z,133246,-0.037109375,-0.8997803,-0.04260254
1725697211575,2024-09-07T08:20:11.575Z,133268,-0.09741211,-0.92108154,-0.088378906
1725697211595,2024-09-07T08:20:11.595Z,133288,-0.09350586,-0.9636841,-0.053649902
1725697211642,2024-09-07T08:20:11.642Z,133335,-0.15905762,-1.0111084,-0.17370605
1725697211689,2024-09-07T08:20:11.689Z,133382,-0.18365479,-1.0523071,-0.1375122
1725697211731,2024-09-07T08:20:11.731Z,133424,-0.22137451,-1.0582275,-0.2133789
1725697211776,2024-09-07T08:20:11.776Z,133469,-0.19720459,-1.0268555,-0.21270752
1725697211821,2024-09-07T08:20:11.821Z,133514,-0.20776367,-1.0149536,-0.21783447
1725697211865,2024-09-07T08:20:11.865Z,133558,-0.20281982,-1.0010376,-0.14135742
1725697211914,2024-09-07T08:20:11.914Z,133607,-0.17559814,-1.005188,-0.16003418
1725697211958,2024-09-07T08:20:11.958Z,133651,-0.16851807,-1.0179443,-0.17272949
1725697211982,2024-09-07T08:20:11.982Z,133675,-0.12994385,-1.1005859,-0.20941162
1725697212006,2024-09-07T08:20:12.006Z,133699,-0.16668701,-1.2475586,-0.14801025
1725697212047,2024-09-07T08:20:12.047Z,133740,-0.1895752,-1.3008423,-0.16906738
1725697212092,2024-09-07T08:20:12.092Z,133785,-0.18670654,-1.2454224,-0.18292236
1725697212141,2024-09-07T08:20:12.141Z,133834,-0.15100098,-1.1150513,-0.22772217
1725697212182,2024-09-07T08:20:12.182Z,133875,-0.111083984,-0.9689331,-0.31243896
1725697212228,2024-09-07T08:20:12.228Z,133921,-0.107666016,-0.8748779,-0.1749878
1725697212276,2024-09-07T08:20:12.276Z,133969,-0.1828003,-0.9211426,-0.22644043
1725697212319,2024-09-07T08:20:12.319Z,134012,-0.21258545,-1.0079346,-0.21014404
1725697212365,2024-09-07T08:20:12.365Z,134058,-0.16308594,-1.0266724,-0.21484375
1725697212407,2024-09-07T08:20:12.407Z,134100,-0.20471191,-1.0323486,-0.25805664
1725697212431,2024-09-07T08:20:12.431Z,134124,-0.16418457,-0.9957886,-0.29406738
1725697212451,2024-09-07T08:20:12.451Z,134144,-0.15307617,-0.982605,-0.2614746
1725697212500,2024-09-07T08:20:12.500Z,134193,-0.16784668,-0.9713135,-0.2987671
1725697212591,2024-09-07T08:20:12.591Z,134284,-0.12976074,-0.947876,-0.13977051
1725697212616,2024-09-07T08:20:12.616Z,134309,-0.20355225,-0.98809814,-0.18530273
1725697212638,2024-09-07T08:20:12.638Z,134331,-0.19543457,-1.0132446,-0.31280518
1725697212676,2024-09-07T08:20:12.676Z,134369,-0.11767578,-0.98205566,-0.3060913
1725697212721,2024-09-07T08:20:12.721Z,134414,-0.1340332,-0.96624756,-0.29455566
1725697212766,2024-09-07T08:20:12.766Z,134459,-0.099365234,-0.9199829,-0.25683594
1725697212813,2024-09-07T08:20:12.813Z,134506,-0.11022949,-0.91119385,-0.23773193
1725697212836,2024-09-07T08:20:12.836Z,134529,-0.10046387,-0.92419434,-0.1885376
1725697212859,2024-09-07T08:20:12.859Z,134552,-0.08569336,-0.9263916,-0.21643066
1725697212904,2024-09-07T08:20:12.904Z,134597,-0.13659668,-0.89575195,-0.17993164
1725697212959,2024-09-07T08:20:12.959Z,134652,-0.13574219,-0.87438965,-0.17999268
1725697212995,2024-09-07T08:20:12.995Z,134688,-0.2232666,-0.8734131,-0.18426514
1725697213034,2024-09-07T08:20:13.034Z,134727,-0.18890381,-0.8539429,-0.1940918
1725697213085,2024-09-07T08:20:13.085Z,134778,-0.20446777,-0.81463623,-0.15307617
1725697213132,2024-09-07T08:20:13.132Z,134825,-0.2581787,-0.7906494,-0.10595703
1725697213173,2024-09-07T08:20:13.173Z,134866,-0.21618652,-0.8032837,-0.16430664
1725697213216,2024-09-07T08:20:13.216Z,134909,-0.27178955,-0.8183594,-0.14422607
1725697213235,2024-09-07T08:20:13.235Z,134928,-0.25457764,-0.8376465,-0.1338501
1725697213258,2024-09-07T08:20:13.258Z,134951,-0.26293945,-0.88616943,-0.15270996
1725697213307,2024-09-07T08:20:13.307Z,135000,-0.27868652,-0.93414307,-0.07635498
1725697213350,2024-09-07T08:20:13.350Z,135043,-0.2555542,-0.93640137,-0.12420654
1725697213399,2024-09-07T08:20:13.399Z,135092,-0.27770996,-0.9015503,-0.11505127
1725697213445,2024-09-07T08:20:13.445Z,135138,-0.17785645,-0.88494873,-0.07745361
1725697213489,2024-09-07T08:20:13.489Z,135182,-0.32995605,-0.91522217,-0.08905029
1725697213532,2024-09-07T08:20:13.532Z,135225,-0.22808838,-0.93310547,-0.109558105
1725697213577,2024-09-07T08:20:13.577Z,135270,-0.3121338,-0.93963623,-0.08703613
1725697213622,2024-09-07T08:20:13.622Z,135315,-0.29840088,-0.9081421,-0.13415527
1725697213668,2024-09-07T08:20:13.668Z,135361,-0.26904297,-0.8892822,-0.14221191
1725697213688,2024-09-07T08:20:13.688Z,135381,-0.32873535,-0.90148926,-0.1529541
1725697213711,2024-09-07T08:20:13.711Z,135404,-0.26184082,-0.91973877,-0.23406982
1725697213754,2024-09-07T08:20:13.754Z,135447,-0.32226562,-0.9466553,-0.20977783
1725697213800,2024-09-07T08:20:13.800Z,135493,-0.29266357,-0.8973999,-0.2644043
1725697213847,2024-09-07T08:20:13.847Z,135540,-0.2774048,-0.86431885,-0.25585938
1725697213893,2024-09-07T08:20:13.893Z,135586,-0.24914551,-0.8411865,-0.24859619
1725697213938,2024-09-07T08:20:13.938Z,135631,-0.24438477,-0.85406494,-0.25909424
1725697213984,2024-09-07T08:20:13.984Z,135677,-0.25585938,-0.8787842,-0.25604248
1725697214027,2024-09-07T08:20:14.027Z,135720,-0.21325684,-0.89178467,-0.2866211
1725697214072,2024-09-07T08:20:14.072Z,135765,-0.20953369,-0.8746948,-0.2645874
1725697214091,2024-09-07T08:20:14.091Z,135784,-0.2084961,-0.85321045,-0.2052002
1725697214112,2024-09-07T08:20:14.112Z,135805,-0.22705078,-0.8717041,-0.27886963
1725697214160,2024-09-07T08:20:14.160Z,135853,-0.20837402,-0.8547363,-0.22149658
1725697214206,2024-09-07T08:20:14.206Z,135899,-0.22113037,-0.8684082,-0.25286865
1725697214253,2024-09-07T08:20:14.253Z,135946,-0.24420166,-0.883667,-0.20043945
1725697214297,2024-09-07T08:20:14.297Z,135990,-0.2276001,-0.94366455,-0.23742676
1725697214344,2024-09-07T08:20:14.344Z,136037,-0.24902344,-0.9819336,-0.18670654
1725697214387,2024-09-07T08:20:14.387Z,136080,-0.21636963,-0.9645996,-0.19445801
1725697214431,2024-09-07T08:20:14.431Z,136124,-0.15966797,-0.9451294,-0.184021
1725697214478,2024-09-07T08:20:14.478Z,136171,-0.119384766,-0.8944702,-0.20812988
1725697214498,2024-09-07T08:20:14.498Z,136191,-0.0949707,-0.8960571,-0.23779297
1725697214518,2024-09-07T08:20:14.518Z,136211,-0.09729004,-0.9338989,-0.16992188
1725697214565,2024-09-07T08:20:14.565Z,136258,-0.14953613,-0.96728516,-0.14556885
1725697214616,2024-09-07T08:20:14.616Z,136309,-0.16656494,-0.95288086,-0.2331543
1725697214705,2024-09-07T08:20:14.705Z,136398,-0.10620117,-1.0184937,-0.21057129
1725697214729,2024-09-07T08:20:14.729Z,136422,-0.13427734,-1.0228882,-0.14068604
1725697214748,2024-09-07T08:20:14.748Z,136441,-0.066711426,-1.0421143,-0.21350098
1725697214795,2024-09-07T08:20:14.795Z,136488,-0.055603027,-1.0452881,0.0028686523
1725697214835,2024-09-07T08:20:14.835Z,136528,-0.085632324,-1.0198975,-0.1027832
1725697214881,2024-09-07T08:20:14.881Z,136574,-0.08123779,-0.9934082,-0.058288574
1725697214901,2024-09-07T08:20:14.901Z,136594,-0.122680664,-0.98187256,-0.10266113
1725697214933,2024-09-07T08:20:14.933Z,136626,-0.14361572,-1.00354,-0.13726807
1725697214969,2024-09-07T08:20:14.969Z,136662,-0.16827393,-1.0499878,-0.11907959
1725697215014,2024-09-07T08:20:15.014Z,136707,-0.16516113,-1.0788574,-0.035949707
1725697215063,2024-09-07T08:20:15.063Z,136756,-0.16168213,-1.1072998,-0.026916504
1725697215108,2024-09-07T08:20:15.108Z,136801,-0.15820312,-1.0664673,-0.07672119
1725697215155,2024-09-07T08:20:15.155Z,136848,-0.13800049,-1.0122681,-0.060791016
1725697215197,2024-09-07T08:20:15.197Z,136890,-0.16894531,-0.9501953,-0.10601807
1725697215241,2024-09-07T08:20:15.241Z,136934,-0.16564941,-0.94573975,-0.12701416
1725697215288,2024-09-07T08:20:15.288Z,136981,-0.17126465,-0.9572754,-0.1194458
1725697215334,2024-09-07T08:20:15.334Z,137027,-0.14434814,-0.9753418,-0.11401367
1725697215357,2024-09-07T08:20:15.357Z,137050,-0.15557861,-0.9902344,-0.117248535
1725697215372,2024-09-07T08:20:15.372Z,137065,-0.1449585,-0.9990845,-0.0524292
1725697215419,2024-09-07T08:20:15.419Z,137112,-0.12542725,-1.0150757,-0.09680176
1725697215469,2024-09-07T08:20:15.469Z,137162,-0.10864258,-0.989563,-0.06677246
1725697215513,2024-09-07T08:20:15.513Z,137206,-0.092163086,-0.96203613,-0.0925293
1725697215562,2024-09-07T08:20:15.562Z,137255,-0.091308594,-0.95062256,-0.117614746
1725697215604,2024-09-07T08:20:15.604Z,137297,-0.09075928,-0.96502686,-0.11804199
1725697215649,2024-09-07T08:20:15.649Z,137342,-0.11602783,-1.0090332,-0.10998535
1725697215692,2024-09-07T08:20:15.692Z,137385,-0.12976074,-1.0414429,-0.113342285
1725697215738,2024-09-07T08:20:15.738Z,137431,-0.13909912,-1.0426636,-0.09283447
1725697215759,2024-09-07T08:20:15.759Z,137452,-0.14312744,-1.0297852,-0.11633301
1725697215781,2024-09-07T08:20:15.781Z,137474,-0.13989258,-1.0361328,-0.15740967
1725697215825,2024-09-07T08:20:15.825Z,137518,-0.14556885,-1.053894,-0.15594482
1725697215874,2024-09-07T08:20:15.874Z,137567,-0.14971924,-1.0581665,-0.12915039
1725697215919,2024-09-07T08:20:15.919Z,137612,-0.16827393,-1.0597534,-0.11395264
1725697215964,2024-09-07T08:20:15.964Z,137657,-0.17492676,-1.0827637,-0.09222412
1725697216008,2024-09-07T08:20:16.008Z,137701,-0.17730713,-1.1333618,-0.16552734
1725697216051,2024-09-07T08:20:16.051Z,137744,-0.17279053,-1.1311035,-0.13201904
1725697216096,2024-09-07T08:20:16.096Z,137789,-0.1541748,-1.0755005,-0.17053223
1725697216142,2024-09-07T08:20:16.142Z,137835,-0.14379883,-1.0153809,-0.16082764
1725697216162,2024-09-07T08:20:16.162Z,137855,-0.15673828,-0.98583984,-0.103759766
1725697216183,2024-09-07T08:20:16.183Z,137876,-0.17694092,-0.9744873,-0.15002441
1725697216231,2024-09-07T08:20:16.231Z,137924,-0.16534424,-0.9898071,-0.18200684
1725697216278,2024-09-07T08:20:16.278Z,137971,-0.21057129,-0.9994507,-0.19378662
1725697216323,2024-09-07T08:20:16.323Z,138016,-0.18084717,-1.0057983,-0.1159668
1725697216370,2024-09-07T08:20:16.370Z,138063,-0.22192383,-1.0310669,-0.18908691
1725697216413,2024-09-07T08:20:16.413Z,138106,-0.19873047,-1.0149536,-0.22497559
1725697216462,2024-09-07T08:20:16.462Z,138155,-0.18536377,-0.9703369,-0.20111084
1725697216549,2024-09-07T08:20:16.549Z,138242,-0.21514893,-0.9649048,-0.18237305
1725697216570,2024-09-07T08:20:16.570Z,138263,-0.18756104,-1.0025024,-0.13848877
1725697216640,2024-09-07T08:20:16.640Z,138333,-0.22155762,-0.9918213,-0.15124512
1725697216658,2024-09-07T08:20:16.658Z,138351,-0.1907959,-1.0123291,-0.15582275
1725697216675,2024-09-07T08:20:16.675Z,138368,-0.20178223,-0.9857178,-0.14105225
1725697216692,2024-09-07T08:20:16.692Z,138385,-0.15332031,-0.9645386,-0.23278809
1725697216721,2024-09-07T08:20:16.721Z,138414,-0.13171387,-0.9491577,-0.2637329
1725697216770,2024-09-07T08:20:16.770Z,138463,-0.16552734,-0.9446411,-0.16430664
1725697216821,2024-09-07T08:20:16.821Z,138514,-0.13427734,-0.9764404,-0.24267578
1725697216864,2024-09-07T08:20:16.864Z,138557,-0.17419434,-0.9733887,-0.2230835
1725697216909,2024-09-07T08:20:16.909Z,138602,-0.1628418,-0.9567871,-0.2682495
1725697216955,2024-09-07T08:20:16.955Z,138648,-0.18157959,-0.920105,-0.34344482
1725697216998,2024-09-07T08:20:16.998Z,138691,-0.15008545,-0.9110718,-0.1651001
1725697217025,2024-09-07T08:20:17.025Z,138718,-0.22229004,-0.93395996,-0.19915771
1725697217040,2024-09-07T08:20:17.040Z,138733,-0.13769531,-0.8878174,-0.2374878
1725697217096,2024-09-07T08:20:17.096Z,138789,-0.105529785,-0.85650635,-0.20666504
1725697217133,2024-09-07T08:20:17.133Z,138826,-0.10290527,-0.8242798,-0.14642334
1725697217177,2024-09-07T08:20:17.177Z,138870,-0.097595215,-0.82806396,-0.18530273
1725697217224,2024-09-07T08:20:17.224Z,138917,-0.10998535,-0.85809326,-0.14440918
1725697217269,2024-09-07T08:20:17.269Z,138962,-0.1395874,-0.8614502,-0.15515137
1725697217312,2024-09-07T08:20:17.312Z,139005,-0.12506104,-0.9172363,-0.17407227
1725697217356,2024-09-07T08:20:17.356Z,139049,-0.2290039,-0.91833496,-0.17541504
1725697217402,2024-09-07T08:20:17.402Z,139095,-0.2064209,-0.8609009,-0.14770508
1725697217420,2024-09-07T08:20:17.420Z,139113,-0.2397461,-0.8309326,-0.16448975
1725697217443,2024-09-07T08:20:17.443Z,139136,-0.27026367,-0.8375244,-0.13134766
1725697217491,2024-09-07T08:20:17.491Z,139184,-0.20703125,-0.93408203,-0.13415527
1725697217582,2024-09-07T08:20:17.582Z,139275,-0.29333496,-1.024353,-0.09942627
1725697217603,2024-09-07T08:20:17.603Z,139296,-0.19256592,-1.0015869,-0.095703125
1725697217626,2024-09-07T08:20:17.626Z,139319,-0.17224121,-0.9390869,-0.07910156
1725697217671,2024-09-07T08:20:17.671Z,139364,-0.19830322,-0.8751831,-0.11053467
1725697217773,2024-09-07T08:20:17.773Z,139466,-0.159729,-0.8800049,-0.14379883
1725697217793,2024-09-07T08:20:17.793Z,139486,-0.24438477,-0.95892334,-0.15441895
1725697217851,2024-09-07T08:20:17.851Z,139544,-0.24768066,-1.0,-0.13952637
1725697217869,2024-09-07T08:20:17.869Z,139562,-0.27679443,-0.9580078,-0.16125488
1725697217886,2024-09-07T08:20:17.886Z,139579,-0.23724365,-0.9088135,-0.25183105
1725697217899,2024-09-07T08:20:17.899Z,139592,-0.2562256,-0.9069824,-0.17492676
1725697217937,2024-09-07T08:20:17.937Z,139630,-0.23706055,-0.9126587,-0.19909668
1725697217988,2024-09-07T08:20:17.988Z,139681,-0.23168945,-0.88482666,-0.18457031
1725697218035,2024-09-07T08:20:18.035Z,139728,-0.21130371,-0.86047363,-0.20379639
1725697218079,2024-09-07T08:20:18.079Z,139772,-0.2119751,-0.9069214,-0.20959473
1725697218125,2024-09-07T08:20:18.125Z,139818,-0.24169922,-0.90130615,-0.22528076
1725697218172,2024-09-07T08:20:18.172Z,139865,-0.21221924,-0.90063477,-0.2843628
1725697218215,2024-09-07T08:20:18.215Z,139908,-0.24536133,-0.8901367,-0.2255249
1725697218257,2024-09-07T08:20:18.257Z,139950,-0.24053955,-0.9003296,-0.25567627
1725697218281,2024-09-07T08:20:18.281Z,139974,-0.27105713,-0.9259033,-0.2576294
1725697218305,2024-09-07T08:20:18.305Z,139998,-0.28295898,-0.9414673,-0.25134277
1725697218346,2024-09-07T08:20:18.346Z,140039,-0.28796387,-0.9365845,-0.24060059
1725697218392,2024-09-07T08:20:18.392Z,140085,-0.2980957,-0.9269409,-0.20166016
1725697218437,2024-09-07T08:20:18.437Z,140130,-0.29858398,-0.91711426,-0.21881104
1725697218485,2024-09-07T08:20:18.485Z,140178,-0.26086426,-0.89471436,-0.24133301
1725697218529,2024-09-07T08:20:18.529Z,140222,-0.2781372,-0.8779907,-0.2578125
1725697218578,2024-09-07T08:20:18.578Z,140271,-0.21160889,-0.8743286,-0.21417236
1725697218615,2024-09-07T08:20:18.615Z,140308,-0.23425293,-0.88775635,-0.2536621
1725697218665,2024-09-07T08:20:18.665Z,140358,-0.17810059,-0.88427734,-0.2723999
1725697218687,2024-09-07T08:20:18.687Z,140380,-0.14447021,-0.8757324,-0.24108887
1725697218705,2024-09-07T08:20:18.705Z,140398,-0.16864014,-0.9176636,-0.26031494
1725697218748,2024-09-07T08:20:18.748Z,140441,-0.12854004,-0.967041,-0.26635742
1725697218798,2024-09-07T08:20:18.798Z,140491,-0.19360352,-1.0029297,-0.19616699
1725697218845,2024-09-07T08:20:18.845Z,140538,-0.1930542,-1.0505981,-0.26623535
1725697218887,2024-09-07T08:20:18.887Z,140580,-0.25012207,-1.013794,-0.23651123
1725697218936,2024-09-07T08:20:18.936Z,140629,-0.22076416,-0.9503784,-0.27264404
1725697218980,2024-09-07T08:20:18.980Z,140673,-0.21398926,-0.9423218,-0.22491455
1725697219027,2024-09-07T08:20:19.027Z,140720,-0.21728516,-0.9290161,-0.2220459
1725697219065,2024-09-07T08:20:19.065Z,140758,-0.20379639,-0.9204712,-0.19934082
1725697219112,2024-09-07T08:20:19.112Z,140805,-0.16149902,-0.8987427,-0.23669434
1725697219140,2024-09-07T08:20:19.140Z,140833,-0.13995361,-0.8887329,-0.2703247
1725697219154,2024-09-07T08:20:19.154Z,140847,-0.16845703,-0.91986084,-0.29431152
1725697219199,2024-09-07T08:20:19.199Z,140892,-0.18334961,-0.9553833,-0.18109131
1725697219249,2024-09-07T08:20:19.249Z,140942,-0.21020508,-0.95721436,-0.1295166
1725697219297,2024-09-07T08:20:19.297Z,140990,-0.17895508,-0.9594116,-0.17321777
1725697219338,2024-09-07T08:20:19.338Z,141031,-0.18591309,-0.9580078,-0.1906128
1725697219384,2024-09-07T08:20:19.384Z,141077,-0.24224854,-0.9594116,-0.24133301
1725697219428,2024-09-07T08:20:19.428Z,141121,-0.22259521,-0.9690552,-0.2140503
1725697219475,2024-09-07T08:20:19.475Z,141168,-0.24377441,-0.9807739,-0.21099854
1725697219517,2024-09-07T08:20:19.517Z,141210,-0.22436523,-0.94189453,-0.18475342
1725697219540,2024-09-07T08:20:19.540Z,141233,-0.26483154,-0.949646,-0.21380615
1725697219562,2024-09-07T08:20:19.562Z,141255,-0.3032837,-0.9364624,-0.21282959
1725697219608,2024-09-07T08:20:19.608Z,141301,-0.29248047,-0.9094238,-0.2781372
1725697219651,2024-09-07T08:20:19.651Z,141344,-0.31848145,-0.9159546,-0.26361084
1725697219699,2024-09-07T08:20:19.699Z,141392,-0.30688477,-0.9545288,-0.24633789
1725697219743,2024-09-07T08:20:19.743Z,141436,-0.32061768,-1.0078125,-0.18560791
1725697219786,2024-09-07T08:20:19.786Z,141479,-0.28222656,-1.0542603,-0.17608643
1725697219833,2024-09-07T08:20:19.833Z,141526,-0.21594238,-1.0614014,-0.15686035
1725697219883,2024-09-07T08:20:19.883Z,141576,-0.14953613,-1.02771,-0.14416504
1725697219928,2024-09-07T08:20:19.928Z,141621,-0.11035156,-0.9845581,-0.0513916
1725697219954,2024-09-07T08:20:19.954Z,141647,-0.16052246,-0.9672241,-0.06951904
1725697219976,2024-09-07T08:20:19.976Z,141669,-0.14984131,-0.9605713,-0.12438965
1725697220010,2024-09-07T08:20:20.010Z,141703,-0.18676758,-0.96850586,-0.14385986
1725697220059,2024-09-07T08:20:20.059Z,141752,-0.2121582,-0.989624,-0.11260986
1725697220102,2024-09-07T08:20:20.102Z,141795,-0.2277832,-0.99053955,-0.14031982
1725697220149,2024-09-07T08:20:20.149Z,141842,-0.19146729,-0.9880371,-0.15234375
1725697220194,2024-09-07T08:20:20.194Z,141887,-0.19970703,-0.9767456,-0.14355469
1725697220236,2024-09-07T08:20:20.236Z,141929,-0.17468262,-0.9772949,-0.15447998
1725697220285,2024-09-07T08:20:20.285Z,141978,-0.1673584,-0.9683838,-0.113708496
1725697220329,2024-09-07T08:20:20.329Z,142022,-0.16882324,-0.96325684,-0.1550293
1725697220373,2024-09-07T08:20:20.373Z,142066,-0.1531372,-0.95965576,-0.15093994
1725697220395,2024-09-07T08:20:20.395Z,142088,-0.15026855,-0.96087646,-0.14630127
1725697220417,2024-09-07T08:20:20.417Z,142110,-0.17773438,-0.9777832,-0.16119385
1725697220460,2024-09-07T08:20:20.460Z,142153,-0.17126465,-0.9923096,-0.13964844
1725697220508,2024-09-07T08:20:20.508Z,142201,-0.19018555,-1.0046387,-0.1831665
1725697220553,2024-09-07T08:20:20.553Z,142246,-0.18383789,-1.0062256,-0.1482544
1725697220601,2024-09-07T08:20:20.601Z,142294,-0.1875,-1.0008545,-0.12615967
1725697220644,2024-09-07T08:20:20.644Z,142337,-0.16680908,-1.0141602,-0.12335205
1725697220689,2024-09-07T08:20:20.689Z,142382,-0.17016602,-1.0368042,-0.14782715
1725697220734,2024-09-07T08:20:20.734Z,142427,-0.15625,-1.1257935,-0.18444824
1725697220780,2024-09-07T08:20:20.780Z,142473,-0.1930542,-1.2221069,-0.22277832
1725697220807,2024-09-07T08:20:20.807Z,142500,-0.20666504,-1.2376709,-0.2590332
1725697220829,2024-09-07T08:20:20.829Z,142522,-0.22601318,-1.1694336,-0.19976807
1725697220865,2024-09-07T08:20:20.865Z,142558,-0.19458008,-1.0882568,-0.19891357
1725697220913,2024-09-07T08:20:20.913Z,142606,-0.20910645,-1.0237427,-0.21832275
1725697220959,2024-09-07T08:20:20.959Z,142652,-0.1887207,-0.9842529,-0.1696167
1725697221007,2024-09-07T08:20:21.007Z,142700,-0.19378662,-0.94940186,-0.2142334
1725697221049,2024-09-07T08:20:21.049Z,142742,-0.19293213,-0.94036865,-0.19018555
1725697221093,2024-09-07T08:20:21.093Z,142786,-0.1451416,-0.94799805,-0.20819092
1725697221137,2024-09-07T08:20:21.137Z,142830,-0.22259521,-0.9593506,-0.14868164
1725697221183,2024-09-07T08:20:21.183Z,142876,-0.2084961,-0.9828491,-0.22131348
1725697221201,2024-09-07T08:20:21.201Z,142894,-0.15338135,-0.9801636,-0.22509766
1725697221225,2024-09-07T08:20:21.225Z,142918,-0.21514893,-0.9771118,-0.23248291
1725697221274,2024-09-07T08:20:21.274Z,142967,-0.16571045,-0.96435547,-0.33007812
1725697221319,2024-09-07T08:20:21.319Z,143012,-0.2055664,-0.93688965,-0.2578125
1725697221362,2024-09-07T08:20:21.362Z,143055,-0.21099854,-0.947876,-0.26654053
1725697221407,2024-09-07T08:20:21.407Z,143100,-0.2119751,-0.94799805,-0.23669434
1725697221453,2024-09-07T08:20:21.453Z,143146,-0.22241211,-0.96899414,-0.23547363
1725697221495,2024-09-07T08:20:21.495Z,143188,-0.20495605,-0.9576416,-0.31811523
1725697221542,2024-09-07T08:20:21.542Z,143235,-0.2130127,-0.9196167,-0.19036865
1725697221587,2024-09-07T08:20:21.587Z,143280,-0.2043457,-0.9121704,-0.23919678
1725697221633,2024-09-07T08:20:21.633Z,143326,-0.120910645,-0.8980713,-0.36712646
1725697221658,2024-09-07T08:20:21.658Z,143351,-0.13800049,-0.85754395,-0.16033936
1725697221679,2024-09-07T08:20:21.679Z,143372,-0.12915039,-0.82562256,-0.11505127
1725697221721,2024-09-07T08:20:21.721Z,143414,-0.09661865,-0.8150635,-0.22399902
1725697221769,2024-09-07T08:20:21.769Z,143462,-0.14678955,-0.83740234,-0.12579346
1725697221816,2024-09-07T08:20:21.816Z,143509,-0.11090088,-0.8900757,-0.17114258
1725697221857,2024-09-07T08:20:21.857Z,143550,-0.14282227,-0.98565674,-0.13562012
1725697221904,2024-09-07T08:20:21.904Z,143597,-0.19348145,-0.9941406,-0.051696777
1725697221950,2024-09-07T08:20:21.950Z,143643,-0.16467285,-0.90875244,-0.10632324
1725697221996,2024-09-07T08:20:21.996Z,143689,-0.12774658,-0.8008423,-0.14788818
1725697222042,2024-09-07T08:20:22.042Z,143735,-0.18017578,-0.7784424,-0.092041016
1725697222069,2024-09-07T08:20:22.069Z,143762,-0.21813965,-0.7919922,-0.14996338
1725697222139,2024-09-07T08:20:22.139Z,143832,-0.19989014,-0.88861084,-0.14801025
1725697222163,2024-09-07T08:20:22.163Z,143856,-0.36553955,-1.0592651,-0.07232666
1725697222185,2024-09-07T08:20:22.185Z,143878,-0.33563232,-1.0412598,-0.05822754
1725697222216,2024-09-07T08:20:22.216Z,143909,-0.2208252,-0.8892212,-0.11035156
1725697222260,2024-09-07T08:20:22.260Z,143953,-0.25891113,-0.81591797,-0.119018555
1725697222308,2024-09-07T08:20:22.308Z,144001,-0.21374512,-0.86621094,-0.097717285
1725697222356,2024-09-07T08:20:22.356Z,144049,-0.28411865,-0.9574585,-0.05206299
1725697222397,2024-09-07T08:20:22.397Z,144090,-0.24713135,-1.0122681,-0.111206055
1725697222444,2024-09-07T08:20:22.444Z,144137,-0.33605957,-0.99816895,-0.094177246
1725697222467,2024-09-07T08:20:22.467Z,144160,-0.24822998,-0.9472046,-0.16589355
1725697222483,2024-09-07T08:20:22.483Z,144176,-0.3083496,-0.93115234,-0.105285645
1725697222529,2024-09-07T08:20:22.529Z,144222,-0.2423706,-0.92089844,-0.19897461
1725697222573,2024-09-07T08:20:22.573Z,144266,-0.24157715,-0.89123535,-0.11218262
1725697222624,2024-09-07T08:20:22.624Z,144317,-0.2423706,-0.88653564,-0.12982178
1725697222676,2024-09-07T08:20:22.676Z,144369,-0.2322998,-0.9319458,-0.16571045
1725697222711,2024-09-07T08:20:22.711Z,144404,-0.2678833,-0.9663696,-0.11999512
1725697222772,2024-09-07T08:20:22.772Z,144465,-0.23187256,-0.95184326,-0.15979004
1725697222805,2024-09-07T08:20:22.805Z,144498,-0.23803711,-0.9296875,-0.13568115
1725697222850,2024-09-07T08:20:22.850Z,144543,-0.21514893,-0.9225464,-0.13134766
1725697222891,2024-09-07T08:20:22.891Z,144584,-0.21264648,-0.9075928,-0.124938965
1725697222907,2024-09-07T08:20:22.907Z,144600,-0.19128418,-0.9012451,-0.13470459
1725697222931,2024-09-07T08:20:22.931Z,144624,-0.19232178,-0.9213867,-0.10992432
1725697222982,2024-09-07T08:20:22.982Z,144675,-0.18103027,-0.95440674,-0.14343262
1725697223026,2024-09-07T08:20:23.026Z,144719,-0.2000122,-0.95825195,-0.14086914
1725697223071,2024-09-07T08:20:23.071Z,144764,-0.16143799,-0.9523926,-0.18359375
1725697223118,2024-09-07T08:20:23.118Z,144811,-0.14648438,-0.9480591,-0.25360107
1725697223167,2024-09-07T08:20:23.167Z,144860,-0.19238281,-0.97052,-0.18988037
1725697223210,2024-09-07T08:20:23.210Z,144903,-0.21972656,-0.9557495,-0.19787598
1725697223255,2024-09-07T08:20:23.255Z,144948,-0.19897461,-0.8912964,-0.22485352
1725697223311,2024-09-07T08:20:23.311Z,145004,-0.18554688,-0.8709717,-0.21783447
1725697223332,2024-09-07T08:20:23.332Z,145025,-0.23217773,-0.8823242,-0.17993164
1725697223354,2024-09-07T08:20:23.354Z,145047,-0.25531006,-0.94525146,-0.24957275
1725697223394,2024-09-07T08:20:23.394Z,145087,-0.24230957,-0.9673462,-0.2593994
1725697223432,2024-09-07T08:20:23.432Z,145125,-0.23510742,-0.97558594,-0.24707031
1725697223478,2024-09-07T08:20:23.478Z,145171,-0.23052979,-0.951355,-0.20672607
1725697223523,2024-09-07T08:20:23.523Z,145216,-0.21179199,-0.93322754,-0.24066162
1725697223568,2024-09-07T08:20:23.568Z,145261,-0.19146729,-0.9213257,-0.22814941
1725697223616,2024-09-07T08:20:23.616Z,145309,-0.17907715,-0.91967773,-0.2232666
1725697223671,2024-09-07T08:20:23.671Z,145364,-0.17858887,-0.88653564,-0.18103027
1725697223704,2024-09-07T08:20:23.704Z,145397,-0.14312744,-0.9081421,-0.2432251
1725697223721,2024-09-07T08:20:23.721Z,145414,-0.16705322,-0.9173584,-0.1741333
1725697223743,2024-09-07T08:20:23.743Z,145436,-0.15808105,-0.9456177,-0.19683838
1725697223792,2024-09-07T08:20:23.792Z,145485,-0.17584229,-0.9491577,-0.059509277
1725697223837,2024-09-07T08:20:23.837Z,145530,-0.2019043,-0.9766846,-0.16204834
1725697223885,2024-09-07T08:20:23.885Z,145578,-0.18579102,-0.9674072,-0.16845703
1725697223927,2024-09-07T08:20:23.927Z,145620,-0.19696045,-0.97406006,-0.19647217
1725697223974,2024-09-07T08:20:23.974Z,145667,-0.22918701,-0.9765625,-0.20996094
1725697224016,2024-09-07T08:20:24.016Z,145709,-0.2508545,-0.9881592,-0.13311768
1725697224060,2024-09-07T08:20:24.060Z,145753,-0.27874756,-0.97351074,-0.1361084
1725697224109,2024-09-07T08:20:24.109Z,145802,-0.26379395,-0.9390259,-0.14648438
1725697224150,2024-09-07T08:20:24.150Z,145843,-0.25708008,-0.9508667,-0.21685791
1725697224169,2024-09-07T08:20:24.169Z,145862,-0.25836182,-0.9237671,-0.22167969
1725697224194,2024-09-07T08:20:24.194Z,145887,-0.2263794,-0.9378662,-0.19683838
1725697224241,2024-09-07T08:20:24.241Z,145934,-0.1774292,-1.0006714,-0.2664795
1725697224286,2024-09-07T08:20:24.286Z,145979,-0.21929932,-0.9979248,-0.06213379
1725697224332,2024-09-07T08:20:24.332Z,146025,-0.22827148,-1.0945435,-0.1217041
1725697224377,2024-09-07T08:20:24.377Z,146070,-0.21374512,-1.05896,-0.048217773
1725697224420,2024-09-07T08:20:24.420Z,146113,-0.19641113,-0.99053955,-0.12609863
1725697224468,2024-09-07T08:20:24.468Z,146161,-0.17236328,-0.94140625,-0.11669922
1725697224512,2024-09-07T08:20:24.512Z,146205,-0.1472168,-0.92041016,-0.09564209
1725697224557,2024-09-07T08:20:24.557Z,146250,-0.15838623,-0.9328003,-0.13134766
1725697224574,2024-09-07T08:20:24.574Z,146267,-0.13415527,-0.9415283,-0.08746338
1725697224601,2024-09-07T08:20:24.601Z,146294,-0.16760254,-0.9544678,-0.13641357
1725697224645,2024-09-07T08:20:24.645Z,146338,-0.14459229,-0.9651489,-0.033813477
1725697224694,2024-09-07T08:20:24.694Z,146387,-0.16082764,-0.99261475,-0.121398926
1725697224740,2024-09-07T08:20:24.740Z,146433,-0.15710449,-0.9923096,-0.07348633
1725697224786,2024-09-07T08:20:24.786Z,146479,-0.1716919,-0.98217773,-0.13104248
1725697224830,2024-09-07T08:20:24.830Z,146523,-0.16546631,-0.987854,-0.1359253
1725697224873,2024-09-07T08:20:24.873Z,146566,-0.15692139,-1.0137329,-0.1270752
1725697224917,2024-09-07T08:20:24.917Z,146610,-0.15716553,-1.0097046,-0.09765625
1725697224962,2024-09-07T08:20:24.962Z,146655,-0.15075684,-1.013916,-0.04119873
1725697224983,2024-09-07T08:20:24.983Z,146676,-0.14178467,-1.0036011,-0.079589844
1725697225007,2024-09-07T08:20:25.007Z,146700,-0.105529785,-0.99102783,-0.086364746
1725697225053,2024-09-07T08:20:25.053Z,146746,-0.11126709,-1.0039062,-0.109191895
1725697225098,2024-09-07T08:20:25.098Z,146791,-0.101379395,-1.0081787,-0.09576416
1725697225149,2024-09-07T08:20:25.149Z,146842,-0.12628174,-1.0031738,-0.044555664
1725697225189,2024-09-07T08:20:25.189Z,146882,-0.10772705,-1.0091553,-0.034240723
1725697225231,2024-09-07T08:20:25.231Z,146924,-0.11425781,-1.0109863,-0.047729492
1725697225325,2024-09-07T08:20:25.325Z,147018,-0.119140625,-1.0131226,-0.073913574
1725697225344,2024-09-07T08:20:25.344Z,147037,-0.11065674,-1.0040283,-0.057617188
1725697225367,2024-09-07T08:20:25.367Z,147060,-0.14099121,-0.99609375,-0.04333496
1725697225409,2024-09-07T08:20:25.409Z,147102,-0.12768555,-0.9867554,-0.03277588
1725697225431,2024-09-07T08:20:25.431Z,147124,-0.13879395,-0.9953003,-0.051696777
1725697225457,2024-09-07T08:20:25.457Z,147150,-0.12945557,-1.0629272,-0.06573486
1725697225502,2024-09-07T08:20:25.502Z,147195,-0.18713379,-1.2213135,-0.056274414
1725697225548,2024-09-07T08:20:25.548Z,147241,-0.21203613,-1.314148,-0.0670166
1725697225593,2024-09-07T08:20:25.593Z,147286,-0.24963379,-1.2911377,-0.1453247
1725697225639,2024-09-07T08:20:25.639Z,147332,-0.25183105,-1.1731567,-0.14471436
1725697225683,2024-09-07T08:20:25.683Z,147376,-0.19268799,-1.0523682,-0.17053223
1725697225729,2024-09-07T08:20:25.729Z,147422,-0.15917969,-0.9720459,-0.12805176
1725697225775,2024-09-07T08:20:25.775Z,147468,-0.17767334,-0.91278076,-0.1005249
1725697225820,2024-09-07T08:20:25.820Z,147513,-0.09442139,-0.91381836,-0.17755127
1725697225843,2024-09-07T08:20:25.843Z,147536,-0.09240723,-0.9255371,-0.16271973
1725697225863,2024-09-07T08:20:25.863Z,147556,-0.10827637,-0.9541626,-0.15161133
1725697225908,2024-09-07T08:20:25.908Z,147601,-0.19354248,-0.97216797,-0.20690918
1725697225952,2024-09-07T08:20:25.952Z,147645,-0.14349365,-0.96484375,-0.12835693
1725697226001,2024-09-07T08:20:26.001Z,147694,-0.09991455,-0.9227295,-0.24725342
1725697226046,2024-09-07T08:20:26.046Z,147739,-0.11999512,-0.9000244,-0.26226807
1725697226087,2024-09-07T08:20:26.087Z,147780,-0.14251709,-0.92437744,-0.09918213
1725697226178,2024-09-07T08:20:26.178Z,147871,-0.15887451,-0.975647,-0.27008057
1725697226202,2024-09-07T08:20:26.202Z,147895,-0.16290283,-0.9403076,-0.26409912
1725697226222,2024-09-07T08:20:26.222Z,147915,-0.13256836,-0.93463135,-0.24572754
1725697226235,2024-09-07T08:20:26.235Z,147928,-0.15838623,-0.949646,-0.2055664
1725697226266,2024-09-07T08:20:26.266Z,147959,-0.14202881,-0.96881104,-0.26708984
1725697226310,2024-09-07T08:20:26.310Z,148003,-0.101379395,-0.95373535,-0.23565674
1725697226360,2024-09-07T08:20:26.360Z,148053,-0.10229492,-0.9437256,-0.27581787
1725697226402,2024-09-07T08:20:26.402Z,148095,-0.07952881,-0.9425049,-0.24963379
1725697226449,2024-09-07T08:20:26.449Z,148142,-0.17279053,-0.9711914,-0.24255371
1725697226493,2024-09-07T08:20:26.493Z,148186,-0.14245605,-0.9706421,-0.24865723
1725697226537,2024-09-07T08:20:26.537Z,148230,-0.17022705,-0.94537354,-0.23718262
1725697226581,2024-09-07T08:20:26.581Z,148274,-0.20391846,-0.94488525,-0.28033447
1725697226628,2024-09-07T08:20:26.628Z,148321,-0.2055664,-0.9555054,-0.20147705
1725697226720,2024-09-07T08:20:26.720Z,148413,-0.21820068,-0.9711914,-0.2387085
1725697226742,2024-09-07T08:20:26.742Z,148435,-0.20996094,-0.9489746,-0.1951294
1725697226761,2024-09-07T08:20:26.761Z,148454,-0.14984131,-0.8898926,-0.24365234
1725697226775,2024-09-07T08:20:26.775Z,148468,-0.087402344,-0.8553467,-0.24578857
1725697226821,2024-09-07T08:20:26.821Z,148514,-0.16326904,-0.84942627,-0.1270752
1725697226851,2024-09-07T08:20:26.851Z,148544,-0.13531494,-0.845459,-0.17260742
1725697226897,2024-09-07T08:20:26.897Z,148590,-0.11187744,-0.8880005,-0.21783447
1725697226945,2024-09-07T08:20:26.945Z,148638,-0.2625122,-0.958313,-0.18377686
1725697226988,2024-09-07T08:20:26.988Z,148681,-0.14013672,-1.0289917,-0.2366333
1725697227080,2024-09-07T08:20:27.080Z,148773,-0.24584961,-1.0355835,-0.091308594
1725697227103,2024-09-07T08:20:27.103Z,148796,-0.1864624,-0.88165283,-0.18139648
1725697227124,2024-09-07T08:20:27.124Z,148817,-0.113708496,-0.772522,-0.30212402
1725697227137,2024-09-07T08:20:27.137Z,148830,-0.12884521,-0.74676514,-0.072631836
1725697227162,2024-09-07T08:20:27.162Z,148855,-0.17358398,-0.78460693,-0.14196777
1725697227214,2024-09-07T08:20:27.214Z,148907,-0.18493652,-0.9083252,-0.17736816
1725697227258,2024-09-07T08:20:27.258Z,148951,-0.30773926,-1.0552368,-0.14251709
1725697227305,2024-09-07T08:20:27.305Z,148998,-0.2559204,-1.0497437,-0.18310547
1725697227348,2024-09-07T08:20:27.348Z,149041,-0.34942627,-0.98461914,-0.122802734
1725697227392,2024-09-07T08:20:27.392Z,149085,-0.29266357,-0.8648071,-0.19018555
1725697227438,2024-09-07T08:20:27.438Z,149131,-0.26257324,-0.87420654,-0.13189697
1725697227485,2024-09-07T08:20:27.485Z,149178,-0.3085327,-0.8907471,-0.17840576
1725697227511,2024-09-07T08:20:27.511Z,149204,-0.28515625,-0.9433594,-0.15985107
1725697227530,2024-09-07T08:20:27.530Z,149223,-0.37243652,-0.9614258,-0.16143799
1725697227569,2024-09-07T08:20:27.569Z,149262,-0.29016113,-0.96118164,-0.15783691
1725697227620,2024-09-07T08:20:27.620Z,149313,-0.29956055,-0.9135132,-0.16864014
1725697227663,2024-09-07T08:20:27.663Z,149356,-0.20062256,-0.9254761,-0.14251709
1725697227709,2024-09-07T08:20:27.709Z,149402,-0.3361206,-0.95251465,-0.1508789
1725697227754,2024-09-07T08:20:27.754Z,149447,-0.19714355,-0.9454346,-0.18060303
1725697227799,2024-09-07T08:20:27.799Z,149492,-0.23895264,-0.979187,-0.14715576
1725697227843,2024-09-07T08:20:27.843Z,149536,-0.28503418,-0.9595337,-0.15777588
1725697227890,2024-09-07T08:20:27.890Z,149583,-0.17730713,-0.9394531,-0.17645264
1725697227934,2024-09-07T08:20:27.934Z,149627,-0.3157959,-0.92004395,-0.11993408
1725697227955,2024-09-07T08:20:27.955Z,149648,-0.19012451,-0.95318604,-0.22167969
1725697227974,2024-09-07T08:20:27.974Z,149667,-0.2682495,-0.9902344,-0.15008545
1725697228023,2024-09-07T08:20:28.023Z,149716,-0.22277832,-0.9614868,-0.22045898
1725697228067,2024-09-07T08:20:28.067Z,149760,-0.2119751,-0.95721436,-0.18414307
1725697228113,2024-09-07T08:20:28.113Z,149806,-0.28216553,-0.9209595,-0.15405273
1725697228157,2024-09-07T08:20:28.157Z,149850,-0.15374756,-0.92211914,-0.20397949
1725697228201,2024-09-07T08:20:28.201Z,149894,-0.2979126,-0.9295654,-0.16192627
1725697228245,2024-09-07T08:20:28.245Z,149938,-0.17596436,-0.95654297,-0.19390869
1725697228291,2024-09-07T08:20:28.291Z,149984,-0.30407715,-0.98327637,-0.18286133
1725697228335,2024-09-07T08:20:28.335Z,150028,-0.22009277,-0.95373535,-0.21331787
1725697228351,2024-09-07T08:20:28.351Z,150044,-0.2581787,-0.9156494,-0.15472412
1725697228381,2024-09-07T08:20:28.381Z,150074,-0.25500488,-0.8868408,-0.2111206
1725697228427,2024-09-07T08:20:28.427Z,150120,-0.21807861,-0.89727783,-0.20318604
1725697228473,2024-09-07T08:20:28.473Z,150166,-0.28149414,-0.9319458,-0.20129395
1725697228516,2024-09-07T08:20:28.516Z,150209,-0.2321167,-0.9537964,-0.20495605
1725697228563,2024-09-07T08:20:28.563Z,150256,-0.26934814,-0.9780884,-0.18151855
1725697228608,2024-09-07T08:20:28.608Z,150301,-0.23150635,-0.9564209,-0.19702148
1725697228654,2024-09-07T08:20:28.654Z,150347,-0.23425293,-0.9286499,-0.22290039
1725697228697,2024-09-07T08:20:28.697Z,150390,-0.24603271,-0.89953613,-0.21917725
1725697228742,2024-09-07T08:20:28.742Z,150435,-0.24377441,-0.87609863,-0.18377686
1725697228801,2024-09-07T08:20:28.801Z,150494,-0.22033691,-0.89227295,-0.20794678
1725697228820,2024-09-07T08:20:28.820Z,150513,-0.24676514,-0.9170532,-0.23510742
1725697228833,2024-09-07T08:20:28.833Z,150526,-0.23150635,-0.9237671,-0.25445557
1725697228873,2024-09-07T08:20:28.873Z,150566,-0.21990967,-0.96325684,-0.2866211
1725697228920,2024-09-07T08:20:28.920Z,150613,-0.24359131,-0.9594116,-0.296875
1725697228971,2024-09-07T08:20:28.971Z,150664,-0.1854248,-0.8867798,-0.28778076
1725697229012,2024-09-07T08:20:29.012Z,150705,-0.18377686,-0.8634033,-0.23486328
1725697229056,2024-09-07T08:20:29.056Z,150749,-0.21923828,-0.8878174,-0.23321533
1725697229103,2024-09-07T08:20:29.103Z,150796,-0.21118164,-0.89630127,-0.2623291
1725697229149,2024-09-07T08:20:29.149Z,150842,-0.20153809,-0.90411377,-0.2703247
1725697229190,2024-09-07T08:20:29.190Z,150883,-0.19335938,-0.8965454,-0.25854492
1725697229204,2024-09-07T08:20:29.204Z,150897,-0.15600586,-0.93566895,-0.3086548
1725697229237,2024-09-07T08:20:29.237Z,150930,-0.20471191,-0.95025635,-0.25616455
1725697229284,2024-09-07T08:20:29.284Z,150977,-0.15289307,-0.9544678,-0.33117676
1725697229334,2024-09-07T08:20:29.334Z,151027,-0.18493652,-0.9277344,-0.2623291
1725697229370,2024-09-07T08:20:29.370Z,151063,-0.14575195,-0.92193604,-0.28967285
1725697229417,2024-09-07T08:20:29.417Z,151110,-0.13354492,-0.8895874,-0.2701416
1725697229462,2024-09-07T08:20:29.462Z,151155,-0.13775635,-0.907959,-0.29229736
1725697229506,2024-09-07T08:20:29.506Z,151199,-0.14422607,-0.91070557,-0.22058105
1725697229554,2024-09-07T08:20:29.554Z,151247,-0.152771,-0.8935547,-0.26934814
1725697229642,2024-09-07T08:20:29.642Z,151335,-0.12713623,-0.8779907,-0.19396973
1725697229663,2024-09-07T08:20:29.663Z,151356,-0.18927002,-0.9310303,-0.26293945
1725697229680,2024-09-07T08:20:29.680Z,151373,-0.22235107,-0.99694824,-0.34375
1725697229692,2024-09-07T08:20:29.692Z,151385,-0.24694824,-1.0092163,-0.26379395
1725697229730,2024-09-07T08:20:29.730Z,151423,-0.2581787,-1.0178223,-0.24414062
1725697229778,2024-09-07T08:20:29.778Z,151471,-0.21844482,-0.9949951,-0.2345581
1725697229824,2024-09-07T08:20:29.824Z,151517,-0.14099121,-0.9395752,-0.2522583
1725697229869,2024-09-07T08:20:29.869Z,151562,-0.15612793,-0.9078369,-0.2952881
1725697229913,2024-09-07T08:20:29.913Z,151606,-0.12432861,-0.869751,-0.21490479
1725697229958,2024-09-07T08:20:29.958Z,151651,-0.22332764,-0.86279297,-0.27423096
1725697230002,2024-09-07T08:20:30.002Z,151695,-0.20129395,-0.86694336,-0.21398926
1725697230020,2024-09-07T08:20:30.020Z,151713,-0.25109863,-0.862854,-0.25360107
1725697230043,2024-09-07T08:20:30.043Z,151736,-0.23254395,-0.885376,-0.26617432
1725697230091,2024-09-07T08:20:30.091Z,151784,-0.23175049,-0.9141846,-0.28564453
1725697230138,2024-09-07T08:20:30.138Z,151831,-0.23254395,-0.9465332,-0.2177124
1725697230180,2024-09-07T08:20:30.180Z,151873,-0.19140625,-0.9785156,-0.1932373
1725697230225,2024-09-07T08:20:30.225Z,151918,-0.18365479,-0.98968506,-0.14367676
1725697230274,2024-09-07T08:20:30.274Z,151967,-0.19213867,-1.0093384,-0.13952637
1725697230315,2024-09-07T08:20:30.315Z,152008,-0.15698242,-1.0089111,-0.17651367
1725697230364,2024-09-07T08:20:30.364Z,152057,-0.184021,-0.9935303,-0.1739502
1725697230408,2024-09-07T08:20:30.408Z,152101,-0.18054199,-0.9968872,-0.20239258
1725697230453,2024-09-07T08:20:30.453Z,152146,-0.1895752,-0.98791504,-0.11566162
1725697230477,2024-09-07T08:20:30.477Z,152170,-0.2401123,-1.0313721,-0.23492432
1725697230498,2024-09-07T08:20:30.498Z,152191,-0.27856445,-1.010437,-0.2678833
1725697230541,2024-09-07T08:20:30.541Z,152234,-0.253479,-0.9737549,-0.31903076
1725697230589,2024-09-07T08:20:30.589Z,152282,-0.30603027,-0.9703369,-0.2611084
1725697230635,2024-09-07T08:20:30.635Z,152328,-0.30773926,-0.9984741,-0.26037598
1725697230677,2024-09-07T08:20:30.677Z,152370,-0.26763916,-1.0159912,-0.17260742
1725697230726,2024-09-07T08:20:30.726Z,152419,-0.25836182,-1.0041504,-0.18566895
1725697230767,2024-09-07T08:20:30.767Z,152460,-0.18249512,-0.99121094,-0.16607666
1725697230812,2024-09-07T08:20:30.812Z,152505,-0.13378906,-0.94781494,-0.10992432
1725697230857,2024-09-07T08:20:30.857Z,152550,-0.14923096,-0.9255371,-0.13745117
1725697230877,2024-09-07T08:20:30.877Z,152570,-0.15545654,-0.9039917,-0.085632324
1725697230902,2024-09-07T08:20:30.902Z,152595,-0.19055176,-0.9026489,-0.17108154
1725697230946,2024-09-07T08:20:30.946Z,152639,-0.21600342,-0.9205322,-0.10839844
1725697230992,2024-09-07T08:20:30.992Z,152685,-0.22851562,-0.9561157,-0.16802979
1725697231042,2024-09-07T08:20:31.042Z,152735,-0.23834229,-0.9904785,-0.122802734
1725697231082,2024-09-07T08:20:31.082Z,152775,-0.24987793,-1.0132446,-0.13519287
1725697231131,2024-09-07T08:20:31.131Z,152824,-0.22741699,-1.0289917,-0.08642578
1725697231174,2024-09-07T08:20:31.174Z,152867,-0.17443848,-1.0467529,-0.06555176
1725697231220,2024-09-07T08:20:31.220Z,152913,-0.16931152,-1.0289307,-0.026916504
1725697231265,2024-09-07T08:20:31.265Z,152958,-0.15264893,-1.0074463,-0.016845703
1725697231287,2024-09-07T08:20:31.287Z,152980,-0.14770508,-0.9863281,-0.015563965
1725697231311,2024-09-07T08:20:31.311Z,153004,-0.13598633,-0.98168945,-0.041259766
1725697231351,2024-09-07T08:20:31.351Z,153044,-0.1472168,-0.9771118,-0.03643799
1725697231398,2024-09-07T08:20:31.398Z,153091,-0.14807129,-0.97906494,-0.05505371
1725697231442,2024-09-07T08:20:31.442Z,153135,-0.16491699,-0.9611206,-0.05078125
1725697231489,2024-09-07T08:20:31.489Z,153182,-0.15814209,-0.96539307,-0.06756592
1725697231537,2024-09-07T08:20:31.537Z,153230,-0.17163086,-0.97766113,-0.057739258
1725697231584,2024-09-07T08:20:31.584Z,153277,-0.18157959,-0.98913574,-0.03314209
1725697231623,2024-09-07T08:20:31.623Z,153316,-0.20129395,-0.987854,-0.037109375
1725697231672,2024-09-07T08:20:31.672Z,153365,-0.2133789,-0.9719238,-0.09954834
1725697231696,2024-09-07T08:20:31.696Z,153389,-0.17144775,-0.9616699,-0.07507324
1725697231715,2024-09-07T08:20:31.715Z,153408,-0.2197876,-0.9633179,-0.081726074
1725697231754,2024-09-07T08:20:31.754Z,153447,-0.2312622,-1.0682373,-0.093322754
1725697231802,2024-09-07T08:20:31.802Z,153495,-0.2531128,-1.1855469,-0.0925293
1725697231846,2024-09-07T08:20:31.846Z,153539,-0.31262207,-1.2412109,-0.115478516
1725697231892,2024-09-07T08:20:31.892Z,153585,-0.27148438,-1.2418213,-0.14538574
1725697231939,2024-09-07T08:20:31.939Z,153632,-0.2593994,-1.1630859,-0.13739014
1725697231980,2024-09-07T08:20:31.980Z,153673,-0.2703247,-1.0657959,-0.18579102
1725697232031,2024-09-07T08:20:32.031Z,153724,-0.22180176,-1.0116577,-0.1038208
1725697232075,2024-09-07T08:20:32.075Z,153768,-0.23303223,-0.9699707,-0.1930542
1725697232118,2024-09-07T08:20:32.118Z,153811,-0.20062256,-0.96221924,-0.076660156
1725697232141,2024-09-07T08:20:32.141Z,153834,-0.23699951,-0.9213257,-0.17572021
1725697232161,2024-09-07T08:20:32.161Z,153854,-0.20471191,-0.91973877,-0.20037842
1725697232206,2024-09-07T08:20:32.206Z,153899,-0.19537354,-0.9257202,-0.21594238
1725697232256,2024-09-07T08:20:32.256Z,153949,-0.1706543,-0.9608154,-0.1315918
1725697232298,2024-09-07T08:20:32.298Z,153991,-0.2532959,-0.9837036,-0.21435547
1725697232341,2024-09-07T08:20:32.341Z,154034,-0.22283936,-0.9849243,-0.10321045
1725697232386,2024-09-07T08:20:32.386Z,154079,-0.19665527,-0.9334717,-0.27142334
1725697232431,2024-09-07T08:20:32.431Z,154124,-0.19940186,-0.9066162,-0.18267822
1725697232477,2024-09-07T08:20:32.477Z,154170,-0.21746826,-0.92755127,-0.18499756
1725697232521,2024-09-07T08:20:32.521Z,154214,-0.23492432,-0.9093628,-0.26287842
1725697232541,2024-09-07T08:20:32.541Z,154234,-0.23474121,-0.923645,-0.1696167
1725697232564,2024-09-07T08:20:32.564Z,154257,-0.3270874,-0.9060669,-0.28356934
1725697232611,2024-09-07T08:20:32.611Z,154304,-0.19506836,-0.8845215,-0.21447754
1725697232660,2024-09-07T08:20:32.660Z,154353,-0.21142578,-0.92840576,-0.30511475
1725697232705,2024-09-07T08:20:32.705Z,154398,-0.26861572,-0.92333984,-0.28295898
1725697232748,2024-09-07T08:20:32.748Z,154441,-0.16906738,-0.9594116,-0.23492432
1725697232796,2024-09-07T08:20:32.796Z,154489,-0.24499512,-0.94641113,-0.2321167
1725697232837,2024-09-07T08:20:32.837Z,154530,-0.17913818,-0.9336548,-0.1975708
1725697232880,2024-09-07T08:20:32.880Z,154573,-0.20092773,-0.92626953,-0.24853516
1725697232926,2024-09-07T08:20:32.926Z,154619,-0.15753174,-0.9123535,-0.30426025
1725697232944,2024-09-07T08:20:32.944Z,154637,-0.22784424,-0.88378906,-0.21795654
1725697232970,2024-09-07T08:20:32.970Z,154663,-0.14526367,-0.8418579,-0.20751953
1725697233017,2024-09-07T08:20:33.017Z,154710,-0.1953125,-0.8417969,-0.09088135
1725697233061,2024-09-07T08:20:33.061Z,154754,-0.23248291,-0.87213135,-0.1026001
1725697233109,2024-09-07T08:20:33.109Z,154802,-0.20251465,-0.854187,-0.14849854
1725697233150,2024-09-07T08:20:33.150Z,154843,-0.1696167,-0.81243896,-0.14678955
1725697233199,2024-09-07T08:20:33.199Z,154892,-0.20593262,-0.7797241,-0.17053223
1725697233244,2024-09-07T08:20:33.244Z,154937,-0.20715332,-0.8788452,-0.07965088
1725697233287,2024-09-07T08:20:33.287Z,154980,-0.26367188,-0.9381714,-0.05480957
1725697233331,2024-09-07T08:20:33.331Z,155024,-0.2600708,-1.032898,-0.087524414
1725697233377,2024-09-07T08:20:33.377Z,155070,-0.24822998,-1.0280151,-0.08795166
1725697233397,2024-09-07T08:20:33.397Z,155090,-0.25561523,-0.93829346,-0.12207031
1725697233513,2024-09-07T08:20:33.513Z,155206,-0.1809082,-0.87249756,-0.15075684
1725697233532,2024-09-07T08:20:33.532Z,155225,-0.2713623,-0.89282227,-0.06719971
1725697233553,2024-09-07T08:20:33.553Z,155246,-0.21704102,-0.94329834,-0.18927002
1725697233566,2024-09-07T08:20:33.566Z,155259,-0.23852539,-1.0049438,-0.12835693
1725697233603,2024-09-07T08:20:33.603Z,155296,-0.2642212,-0.989563,-0.15124512
1725697233647,2024-09-07T08:20:33.647Z,155340,-0.15722656,-0.96875,-0.17504883
1725697233690,2024-09-07T08:20:33.690Z,155383,-0.24127197,-0.9591675,-0.094177246
1725697233735,2024-09-07T08:20:33.735Z,155428,-0.11633301,-0.96136475,-0.13311768
1725697233781,2024-09-07T08:20:33.781Z,155474,-0.17315674,-0.96661377,-0.1003418
1725697233798,2024-09-07T08:20:33.798Z,155491,-0.1184082,-0.9544678,-0.08685303
1725697233826,2024-09-07T08:20:33.826Z,155519,-0.1428833,-0.9543457,-0.057922363
1725697233872,2024-09-07T08:20:33.872Z,155565,-0.13305664,-0.97680664,-0.09753418
1725697233917,2024-09-07T08:20:33.917Z,155610,-0.15136719,-1.0118408,-0.12561035
1725697233961,2024-09-07T08:20:33.961Z,155654,-0.15637207,-1.0151978,-0.09277344
1725697234007,2024-09-07T08:20:34.007Z,155700,-0.14758301,-1.0045166,-0.14465332
1725697234052,2024-09-07T08:20:34.052Z,155745,-0.18939209,-0.97283936,-0.09899902
1725697234097,2024-09-07T08:20:34.097Z,155790,-0.15686035,-0.9329834,-0.16796875
1725697234137,2024-09-07T08:20:34.137Z,155830,-0.2243042,-0.9593506,-0.11254883
1725697234181,2024-09-07T08:20:34.181Z,155874,-0.19598389,-0.96069336,-0.18035889
1725697234187,2024-09-07T08:20:34.187Z,155880,-0.22399902,-0.97369385,-0.10534668
1725697234225,2024-09-07T08:20:34.225Z,155918,-0.23358154,-0.94226074,-0.16265869
1725697234272,2024-09-07T08:20:34.272Z,155965,-0.20513916,-0.92578125,-0.17669678
