Timestamp (ms),ISO DateTime,Elapsed Time (ms),Acceleration X,Acceleration Y,Acceleration Z
1725815738971,2024-09-08T17:15:38.971Z,164695,-0.19067383,-0.9723511,-0.092041016
1725815738995,2024-09-08T17:15:38.995Z,164719,-0.19824219,-0.97821045,-0.08758545
1725815739037,2024-09-08T17:15:39.037Z,164761,-0.19085693,-0.9650879,-0.0713501
1725815739081,2024-09-08T17:15:39.081Z,164805,-0.1928711,-0.96014404,-0.07739258
1725815739127,2024-09-08T17:15:39.127Z,164851,-0.19189453,-0.9694214,-0.08929443
1725815739171,2024-09-08T17:15:39.171Z,164895,-0.1977539,-0.98602295,-0.060791016
1725815739219,2024-09-08T17:15:39.219Z,164943,-0.20428467,-0.9824219,-0.08569336
1725815739269,2024-09-08T17:15:39.269Z,164993,-0.21282959,-0.9735718,-0.085998535
1725815739366,2024-09-08T17:15:39.366Z,165090,-0.22216797,-0.9636841,-0.07873535
1725815739386,2024-09-08T17:15:39.386Z,165110,-0.23614502,-0.9532471,-0.08770752
1725815739405,2024-09-08T17:15:39.405Z,165129,-0.25775146,-0.9508667,-0.08428955
1725815739420,2024-09-08T17:15:39.420Z,165144,-0.2798462,-0.9413452,-0.09106445
1725815739443,2024-09-08T17:15:39.443Z,165167,-0.277771,-0.92401123,-0.07714844
1725815739501,2024-09-08T17:15:39.501Z,165225,-0.28027344,-0.9293823,-0.086120605
1725815739631,2024-09-08T17:15:39.631Z,165355,-0.28277588,-0.9616699,-0.0725708
1725815739685,2024-09-08T17:15:39.685Z,165409,-0.28393555,-0.94958496,-0.0715332
1725815739703,2024-09-08T17:15:39.703Z,165427,-0.27600098,-0.925354,-0.071777344
1725815739716,2024-09-08T17:15:39.716Z,165440,-0.26293945,-0.94073486,-0.05596924
1725815739729,2024-09-08T17:15:39.729Z,165453,-0.2625122,-0.9171753,-0.08093262
1725815739765,2024-09-08T17:15:39.765Z,165489,-0.23071289,-0.88116455,-0.10803223
1725815739775,2024-09-08T17:15:39.775Z,165499,-0.23504639,-0.86383057,-0.10406494
1725815739803,2024-09-08T17:15:39.803Z,165527,-0.22686768,-0.8580322,-0.16833496
1725815739851,2024-09-08T17:15:39.851Z,165575,-0.22851562,-0.8880005,-0.16516113
1725815739900,2024-09-08T17:15:39.900Z,165624,-0.2662964,-0.93133545,-0.20031738
1725815739943,2024-09-08T17:15:39.943Z,165667,-0.25994873,-0.93603516,-0.19903564
1725815739988,2024-09-08T17:15:39.988Z,165712,-0.22357178,-0.888916,-0.21765137
1725815740045,2024-09-08T17:15:40.045Z,165769,-0.20056152,-0.87335205,-0.19281006
1725815740075,2024-09-08T17:15:40.075Z,165799,-0.19146729,-0.8800659,-0.20343018
1725815740124,2024-09-08T17:15:40.124Z,165848,-0.21386719,-0.8965454,-0.17687988
1725815740169,2024-09-08T17:15:40.169Z,165893,-0.25946045,-0.9121704,-0.19293213
1725815740189,2024-09-08T17:15:40.189Z,165913,-0.31445312,-0.94018555,-0.16821289
1725815740210,2024-09-08T17:15:40.210Z,165934,-0.3463745,-0.94677734,-0.19244385
1725815740260,2024-09-08T17:15:40.260Z,165984,-0.36566162,-0.96209717,-0.20367432
1725815740303,2024-09-08T17:15:40.303Z,166027,-0.3753662,-0.9746094,-0.15899658
1725815740350,2024-09-08T17:15:40.350Z,166074,-0.3696289,-0.94537354,-0.22790527
1725815740393,2024-09-08T17:15:40.393Z,166117,-0.37927246,-0.9036865,-0.29589844
1725815740437,2024-09-08T17:15:40.437Z,166161,-0.35791016,-0.88165283,-0.32781982
1725815740483,2024-09-08T17:15:40.483Z,166207,-0.3706665,-0.8677368,-0.35339355
1725815740527,2024-09-08T17:15:40.527Z,166251,-0.41314697,-0.8789673,-0.31573486
1725815740571,2024-09-08T17:15:40.571Z,166295,-0.42504883,-0.8623657,-0.46148682
1725815740588,2024-09-08T17:15:40.588Z,166312,-0.40338135,-0.83947754,-0.40441895
1725815740613,2024-09-08T17:15:40.613Z,166337,-0.40686035,-0.82684326,-0.4293213
1725815740706,2024-09-08T17:15:40.706Z,166430,-0.41137695,-0.8534546,-0.39953613
1725815740718,2024-09-08T17:15:40.718Z,166442,-0.40759277,-0.8341675,-0.4031372
1725815740752,2024-09-08T17:15:40.752Z,166476,-0.4105835,-0.8433838,-0.3665161
1725815740797,2024-09-08T17:15:40.797Z,166521,-0.42651367,-0.8475952,-0.33825684
1725815740887,2024-09-08T17:15:40.887Z,166611,-0.41027832,-0.8363037,-0.27557373
1725815740906,2024-09-08T17:15:40.906Z,166630,-0.41906738,-0.8423462,-0.2979126
1725815740930,2024-09-08T17:15:40.930Z,166654,-0.4003296,-0.8463745,-0.20562744
1725815741021,2024-09-08T17:15:41.021Z,166745,-0.37805176,-0.881958,-0.18615723
1725815741039,2024-09-08T17:15:41.039Z,166763,-0.36016846,-0.9008179,-0.20550537
1725815741055,2024-09-08T17:15:41.055Z,166779,-0.33917236,-0.9169922,-0.16674805
1725815741067,2024-09-08T17:15:41.067Z,166791,-0.3225708,-0.94958496,-0.21740723
1725815741111,2024-09-08T17:15:41.111Z,166835,-0.30688477,-0.94311523,-0.14459229
1725815741156,2024-09-08T17:15:41.156Z,166880,-0.2763672,-0.93151855,-0.19342041
1725815741204,2024-09-08T17:15:41.204Z,166928,-0.28570557,-0.9304199,-0.14984131
1725815741250,2024-09-08T17:15:41.250Z,166974,-0.2793579,-0.94384766,-0.099731445
1725815741292,2024-09-08T17:15:41.292Z,167016,-0.27471924,-0.99035645,-0.14178467
1725815741338,2024-09-08T17:15:41.338Z,167062,-0.27252197,-1.0386963,-0.11376953
1725815741428,2024-09-08T17:15:41.428Z,167152,-0.2498169,-1.0471191,-0.111572266
1725815741445,2024-09-08T17:15:41.445Z,167169,-0.23675537,-1.0618896,-0.10076904
1725815741463,2024-09-08T17:15:41.463Z,167187,-0.19274902,-1.0813599,-0.09124756
1725815741476,2024-09-08T17:15:41.476Z,167200,-0.18664551,-1.0769653,-0.093688965
1725815741515,2024-09-08T17:15:41.515Z,167239,-0.17565918,-1.0574341,-0.101379395
1725815741563,2024-09-08T17:15:41.563Z,167287,-0.16638184,-1.055481,-0.095214844
1725815741608,2024-09-08T17:15:41.608Z,167332,-0.17163086,-1.0957642,-0.13378906
1725815741655,2024-09-08T17:15:41.655Z,167379,-0.16967773,-1.1708984,-0.13323975
1725815741697,2024-09-08T17:15:41.697Z,167421,-0.1665039,-1.2242432,-0.16210938
1725815741743,2024-09-08T17:15:41.743Z,167467,-0.16296387,-1.2233887,-0.14556885
1725815741790,2024-09-08T17:15:41.790Z,167514,-0.16601562,-1.1670532,-0.14770508
1725815741835,2024-09-08T17:15:41.835Z,167559,-0.16485596,-1.1237183,-0.13757324
1725815741856,2024-09-08T17:15:41.856Z,167580,-0.18218994,-1.0986328,-0.13653564
1725815741876,2024-09-08T17:15:41.876Z,167600,-0.17236328,-1.0930786,-0.13781738
1725815741932,2024-09-08T17:15:41.932Z,167656,-0.18878174,-1.0910034,-0.10296631
1725815741985,2024-09-08T17:15:41.985Z,167709,-0.19946289,-1.0675049,-0.123168945
1725815742012,2024-09-08T17:15:42.012Z,167736,-0.21807861,-1.0424805,-0.1352539
1725815742060,2024-09-08T17:15:42.060Z,167784,-0.2522583,-1.0128784,-0.17102051
1725815742161,2024-09-08T17:15:42.161Z,167885,-0.2734375,-1.0037231,-0.15252686
1725815742182,2024-09-08T17:15:42.182Z,167906,-0.28167725,-0.9499512,-0.18707275
1725815742202,2024-09-08T17:15:42.202Z,167926,-0.2850952,-0.8985596,-0.16381836
1725815742238,2024-09-08T17:15:42.238Z,167962,-0.2930298,-0.8409424,-0.15734863
1725815742283,2024-09-08T17:15:42.283Z,168007,-0.29986572,-0.8036499,-0.20166016
1725815742301,2024-09-08T17:15:42.301Z,168025,-0.35131836,-0.7842407,-0.15063477
1725815742327,2024-09-08T17:15:42.327Z,168051,-0.3670044,-0.80078125,-0.15240479
1725815742418,2024-09-08T17:15:42.418Z,168142,-0.3834839,-0.8173218,-0.14715576
1725815742437,2024-09-08T17:15:42.437Z,168161,-0.35791016,-0.8039551,-0.12957764
1725815742508,2024-09-08T17:15:42.508Z,168232,-0.3250122,-0.7817993,-0.09698486
1725815742555,2024-09-08T17:15:42.555Z,168279,-0.27856445,-0.7860718,-0.08154297
1725815742575,2024-09-08T17:15:42.575Z,168299,-0.26617432,-0.7967529,-0.03289795
1725815742596,2024-09-08T17:15:42.596Z,168320,-0.25109863,-0.7929077,-0.06304932
1725815742641,2024-09-08T17:15:42.641Z,168365,-0.24230957,-0.8535156,-0.026550293
1725815742690,2024-09-08T17:15:42.690Z,168414,-0.27856445,-0.9290161,-0.024597168
1725815742708,2024-09-08T17:15:42.708Z,168432,-0.29760742,-0.93341064,-0.04510498
1725815742730,2024-09-08T17:15:42.730Z,168454,-0.26055908,-0.9016113,-0.029174805
1725815742777,2024-09-08T17:15:42.777Z,168501,-0.24700928,-0.87335205,0.0015258789
1725815742824,2024-09-08T17:15:42.824Z,168548,-0.23486328,-0.87945557,-0.005004883
1725815742868,2024-09-08T17:15:42.868Z,168592,-0.21380615,-0.9352417,-0.009033203
1725815742913,2024-09-08T17:15:42.913Z,168637,-0.19580078,-1.0031128,0.026794434
1725815742968,2024-09-08T17:15:42.968Z,168692,-0.21313477,-1.0269165,0.018371582
1725815743050,2024-09-08T17:15:43.050Z,168774,-0.18145752,-1.0015869,0.01953125
1725815743067,2024-09-08T17:15:43.067Z,168791,-0.18170166,-0.9500122,-0.013183594
1725815743092,2024-09-08T17:15:43.092Z,168816,-0.17303467,-0.9071655,-0.052612305
1725815743107,2024-09-08T17:15:43.107Z,168831,-0.18518066,-0.9406128,-0.09387207
1725815743134,2024-09-08T17:15:43.134Z,168858,-0.21020508,-0.99731445,-0.07550049
1725815743183,2024-09-08T17:15:43.183Z,168907,-0.2111206,-0.9506836,-0.17547607
1725815743227,2024-09-08T17:15:43.227Z,168951,-0.21435547,-0.8959961,-0.10797119
1725815743282,2024-09-08T17:15:43.282Z,169006,-0.1942749,-0.8243408,-0.16680908
1725815743317,2024-09-08T17:15:43.317Z,169041,-0.17327881,-0.815979,-0.13220215
1725815743361,2024-09-08T17:15:43.361Z,169085,-0.18823242,-0.8133545,-0.13287354
1725815743408,2024-09-08T17:15:43.408Z,169132,-0.17285156,-0.8526001,-0.13964844
1725815743454,2024-09-08T17:15:43.454Z,169178,-0.21807861,-0.9034424,-0.13537598
1725815743497,2024-09-08T17:15:43.497Z,169221,-0.21551514,-0.93688965,-0.07922363
1725815743541,2024-09-08T17:15:43.541Z,169265,-0.23242188,-0.8947754,-0.12347412
1725815743558,2024-09-08T17:15:43.558Z,169282,-0.2319336,-0.904541,-0.10809326
1725815743587,2024-09-08T17:15:43.587Z,169311,-0.23046875,-0.9003906,-0.06829834
1725815743676,2024-09-08T17:15:43.676Z,169400,-0.24401855,-0.88305664,-0.11517334
1725815743696,2024-09-08T17:15:43.696Z,169420,-0.24664307,-0.8869629,-0.06939697
1725815743721,2024-09-08T17:15:43.721Z,169445,-0.2748413,-0.91693115,-0.0848999
1725815743767,2024-09-08T17:15:43.767Z,169491,-0.28735352,-0.9590454,-0.103515625
1725815743810,2024-09-08T17:15:43.810Z,169534,-0.30596924,-0.9833374,-0.10620117
1725815743860,2024-09-08T17:15:43.860Z,169584,-0.27825928,-0.98254395,-0.105773926
1725815743903,2024-09-08T17:15:43.903Z,169627,-0.2592163,-0.97369385,-0.12438965
1725815743946,2024-09-08T17:15:43.946Z,169670,-0.23059082,-0.95617676,-0.062927246
1725815743965,2024-09-08T17:15:43.965Z,169689,-0.2312622,-0.9284668,-0.113586426
1725815743990,2024-09-08T17:15:43.990Z,169714,-0.21307373,-0.9696045,-0.10736084
1725815744036,2024-09-08T17:15:44.036Z,169760,-0.23034668,-1.0095825,-0.1159668
1725815744082,2024-09-08T17:15:44.082Z,169806,-0.25738525,-1.0262451,-0.14361572
1725815744127,2024-09-08T17:15:44.127Z,169851,-0.24273682,-1.0397339,-0.1671753
1725815744173,2024-09-08T17:15:44.173Z,169897,-0.25878906,-1.0376587,-0.13555908
1725815744261,2024-09-08T17:15:44.261Z,169985,-0.24414062,-1.0218506,-0.16107178
1725815744279,2024-09-08T17:15:44.279Z,170003,-0.26348877,-1.0298462,-0.14404297
1725815744305,2024-09-08T17:15:44.305Z,170029,-0.2536621,-1.0167236,-0.1873169
1725815744352,2024-09-08T17:15:44.352Z,170076,-0.2617798,-1.0270386,-0.14569092
1725815744368,2024-09-08T17:15:44.368Z,170092,-0.2800293,-0.9984741,-0.16186523
1725815744395,2024-09-08T17:15:44.395Z,170119,-0.27044678,-0.9907837,-0.15966797
1725815744443,2024-09-08T17:15:44.443Z,170167,-0.27124023,-0.99090576,-0.1675415
1725815744487,2024-09-08T17:15:44.487Z,170211,-0.25634766,-0.99102783,-0.16949463
1725815744532,2024-09-08T17:15:44.532Z,170256,-0.24157715,-1.0084839,-0.15942383
1725815744578,2024-09-08T17:15:44.578Z,170302,-0.21881104,-1.0376587,-0.1381836
1725815744623,2024-09-08T17:15:44.623Z,170347,-0.17181396,-1.0488281,-0.12738037
1725815744670,2024-09-08T17:15:44.670Z,170394,-0.16107178,-1.0549316,-0.095458984
1725815744715,2024-09-08T17:15:44.715Z,170439,-0.13598633,-1.0469971,-0.10864258
1725815744758,2024-09-08T17:15:44.758Z,170482,-0.10369873,-1.0662231,-0.091308594
1725815744804,2024-09-08T17:15:44.804Z,170528,-0.09515381,-1.097168,-0.09423828
1725815744824,2024-09-08T17:15:44.824Z,170548,-0.09686279,-1.1500244,-0.09338379
1725815744845,2024-09-08T17:15:44.845Z,170569,-0.08203125,-1.2104492,-0.121032715
1725815744891,2024-09-08T17:15:44.891Z,170615,-0.04425049,-1.2359619,-0.1359253
1725815744938,2024-09-08T17:15:44.938Z,170662,-0.014831543,-1.2255249,-0.089538574
1725815744983,2024-09-08T17:15:44.983Z,170707,0.0076904297,-1.1832275,-0.06689453
1725815745031,2024-09-08T17:15:45.031Z,170755,-0.0036010742,-1.1620483,-0.06317139
1725815745073,2024-09-08T17:15:45.073Z,170797,-0.008544922,-1.137085,-0.06011963
1725815745119,2024-09-08T17:15:45.119Z,170843,-0.01184082,-1.0982666,-0.0021362305
1725815745163,2024-09-08T17:15:45.163Z,170887,-0.063964844,-1.0793457,-0.028198242
1725815745208,2024-09-08T17:15:45.208Z,170932,-0.08288574,-1.0580444,-0.038085938
1725815745227,2024-09-08T17:15:45.227Z,170951,-0.12597656,-1.046814,-0.019042969
1725815745251,2024-09-08T17:15:45.251Z,170975,-0.15802002,-1.0077515,-0.05706787
1725815745345,2024-09-08T17:15:45.345Z,171069,-0.17407227,-0.95861816,-0.020568848
1725815745363,2024-09-08T17:15:45.363Z,171087,-0.17645264,-0.91729736,-0.0126953125
1725815745433,2024-09-08T17:15:45.433Z,171157,-0.1954956,-0.89819336,-0.024414062
1725815745524,2024-09-08T17:15:45.524Z,171248,-0.21838379,-0.88500977,-0.029968262
1725815745542,2024-09-08T17:15:45.542Z,171266,-0.21917725,-0.86053467,-0.025634766
1725815745561,2024-09-08T17:15:45.561Z,171285,-0.24865723,-0.7814331,-0.06842041
1725815745579,2024-09-08T17:15:45.579Z,171303,-0.24151611,-0.75994873,-0.05041504
1725815745612,2024-09-08T17:15:45.612Z,171336,-0.31207275,-0.7686157,-0.075927734
1725815745627,2024-09-08T17:15:45.627Z,171351,-0.30737305,-0.8097534,-0.08972168
1725815745652,2024-09-08T17:15:45.652Z,171376,-0.36437988,-0.8399048,-0.09613037
1725815745702,2024-09-08T17:15:45.702Z,171426,-0.3059082,-0.8100586,-0.07092285
1725815745745,2024-09-08T17:15:45.745Z,171469,-0.2824707,-0.7318115,-0.07159424
1725815745793,2024-09-08T17:15:45.793Z,171517,-0.246521,-0.7411499,-0.078308105
1725815745837,2024-09-08T17:15:45.837Z,171561,-0.27960205,-0.87005615,-0.074157715
1725815745884,2024-09-08T17:15:45.884Z,171608,-0.25628662,-0.9760742,-0.06036377
1725815745929,2024-09-08T17:15:45.929Z,171653,-0.25219727,-1.0306396,-0.059936523
1725815745973,2024-09-08T17:15:45.973Z,171697,-0.22241211,-0.9840088,-0.07421875
1725815746019,2024-09-08T17:15:46.019Z,171743,-0.17980957,-0.90448,-0.07232666
1725815746065,2024-09-08T17:15:46.065Z,171789,-0.20214844,-0.90496826,-0.064697266
1725815746086,2024-09-08T17:15:46.086Z,171810,-0.215271,-0.9394531,-0.15618896
1725815746110,2024-09-08T17:15:46.110Z,171834,-0.22589111,-1.0197754,-0.08947754
1725815746151,2024-09-08T17:15:46.151Z,171875,-0.25439453,-1.0170898,-0.13647461
1725815746198,2024-09-08T17:15:46.198Z,171922,-0.22576904,-0.9291382,-0.117370605
1725815746243,2024-09-08T17:15:46.243Z,171967,-0.20379639,-0.87298584,-0.11621094
1725815746287,2024-09-08T17:15:46.287Z,172011,-0.21185303,-0.8631592,-0.11706543
1725815746336,2024-09-08T17:15:46.336Z,172060,-0.23498535,-0.8300171,-0.1260376
1725815746378,2024-09-08T17:15:46.378Z,172102,-0.21936035,-0.8296509,-0.13586426
1725815746421,2024-09-08T17:15:46.421Z,172145,-0.26019287,-0.8657837,-0.12182617
1725815746468,2024-09-08T17:15:46.468Z,172192,-0.24456787,-0.86987305,-0.16168213
1725815746488,2024-09-08T17:15:46.488Z,172212,-0.20288086,-0.9025879,-0.110961914
1725815746513,2024-09-08T17:15:46.513Z,172237,-0.18933105,-0.92077637,-0.14752197
1725815746557,2024-09-08T17:15:46.557Z,172281,-0.14776611,-0.9187622,-0.10046387
1725815746604,2024-09-08T17:15:46.604Z,172328,-0.14416504,-0.9175415,-0.08734131
1725815746654,2024-09-08T17:15:46.654Z,172378,-0.17260742,-0.91833496,-0.084350586
1725815746698,2024-09-08T17:15:46.698Z,172422,-0.16333008,-0.9310913,-0.07861328
1725815746737,2024-09-08T17:15:46.737Z,172461,-0.19348145,-0.97772217,-0.08721924
1725815746828,2024-09-08T17:15:46.828Z,172552,-0.20892334,-1.0144653,-0.091430664
1725815746847,2024-09-08T17:15:46.847Z,172571,-0.17486572,-1.0012207,-0.08459473
1725815746872,2024-09-08T17:15:46.872Z,172596,-0.1675415,-0.9525757,-0.10083008
1725815746889,2024-09-08T17:15:46.889Z,172613,-0.15930176,-0.91412354,-0.100097656
1725815746912,2024-09-08T17:15:46.912Z,172636,-0.16308594,-0.9156494,-0.13549805
1725815746962,2024-09-08T17:15:46.962Z,172686,-0.18170166,-0.93426514,-0.12524414
1725815747008,2024-09-08T17:15:47.008Z,172732,-0.18536377,-0.9395752,-0.15057373
1725815747051,2024-09-08T17:15:47.051Z,172775,-0.20288086,-0.9525757,-0.15710449
1725815747098,2024-09-08T17:15:47.098Z,172822,-0.19793701,-0.987854,-0.15075684
1725815747142,2024-09-08T17:15:47.142Z,172866,-0.22814941,-0.98791504,-0.18762207
1725815747187,2024-09-08T17:15:47.187Z,172911,-0.26135254,-1.000061,-0.1795044
1725815747234,2024-09-08T17:15:47.234Z,172958,-0.2678833,-1.0036011,-0.24304199
1725815747279,2024-09-08T17:15:47.279Z,173003,-0.30914307,-1.0612793,-0.16571045
1725815747325,2024-09-08T17:15:47.325Z,173049,-0.30969238,-1.0695801,-0.15802002
1725815747350,2024-09-08T17:15:47.350Z,173074,-0.3416748,-1.0675659,-0.097473145
1725815747372,2024-09-08T17:15:47.372Z,173096,-0.32110596,-1.0275269,-0.11022949
1725815747413,2024-09-08T17:15:47.413Z,173137,-0.31378174,-0.9767456,-0.07330322
1725815747456,2024-09-08T17:15:47.456Z,173180,-0.29858398,-0.9624634,-0.038391113
1725815747501,2024-09-08T17:15:47.501Z,173225,-0.29241943,-0.9472046,-0.019897461
1725815747547,2024-09-08T17:15:47.547Z,173271,-0.29296875,-0.9663696,-0.016235352
1725815747594,2024-09-08T17:15:47.594Z,173318,-0.28216553,-0.97766113,-0.04034424
1725815747636,2024-09-08T17:15:47.636Z,173360,-0.23956299,-0.98272705,-0.018249512
1725815747684,2024-09-08T17:15:47.684Z,173408,-0.19592285,-0.98480225,-0.04321289
1725815747728,2024-09-08T17:15:47.728Z,173452,-0.17480469,-1.0263062,-0.017028809
1725815747746,2024-09-08T17:15:47.746Z,173470,-0.14538574,-1.0602417,-0.04724121
1725815747781,2024-09-08T17:15:47.781Z,173505,-0.12023926,-1.0882568,-0.028747559
1725815747818,2024-09-08T17:15:47.818Z,173542,-0.095336914,-1.0769653,-0.054382324
1725815747910,2024-09-08T17:15:47.910Z,173634,-0.050048828,-1.104248,-0.06512451
1725815747931,2024-09-08T17:15:47.931Z,173655,-0.034484863,-1.1798706,-0.070739746
1725815747952,2024-09-08T17:15:47.952Z,173676,-0.013000488,-1.2400513,-0.08148193
1725815747998,2024-09-08T17:15:47.998Z,173722,0.014709473,-1.25177,-0.06939697
1725815748043,2024-09-08T17:15:48.043Z,173767,0.010375977,-1.251648,-0.061767578
1725815748087,2024-09-08T17:15:48.087Z,173811,0.015930176,-1.2496948,-0.047912598
1725815748135,2024-09-08T17:15:48.135Z,173859,0.009094238,-1.2182007,-0.06854248
1725815748156,2024-09-08T17:15:48.156Z,173880,-0.035339355,-1.1956787,-0.06561279
1725815748179,2024-09-08T17:15:48.179Z,173903,-0.07531738,-1.166687,-0.097229004
1725815748222,2024-09-08T17:15:48.222Z,173946,-0.074035645,-1.1210938,-0.08691406
1725815748268,2024-09-08T17:15:48.268Z,173992,-0.111694336,-1.0658569,-0.120788574
1725815748404,2024-09-08T17:15:48.404Z,174128,-0.111206055,-1.0203857,-0.08746338
1725815748428,2024-09-08T17:15:48.428Z,174152,-0.128479,-0.96447754,-0.033325195
1725815748452,2024-09-08T17:15:48.452Z,174176,-0.13421631,-0.876709,-0.08026123
1725815748492,2024-09-08T17:15:48.492Z,174216,-0.11975098,-0.81152344,-0.053649902
1725815748508,2024-09-08T17:15:48.508Z,174232,-0.16168213,-0.7734375,-0.032165527
1725815748537,2024-09-08T17:15:48.537Z,174261,-0.19116211,-0.79174805,-0.08154297
1725815748582,2024-09-08T17:15:48.582Z,174306,-0.23834229,-0.8436279,-0.07470703
1725815748599,2024-09-08T17:15:48.599Z,174323,-0.2532959,-0.84747314,-0.123413086
1725815748627,2024-09-08T17:15:48.627Z,174351,-0.28729248,-0.8463745,-0.107177734
1725815748671,2024-09-08T17:15:48.671Z,174395,-0.27978516,-0.81811523,-0.11956787
1725815748719,2024-09-08T17:15:48.719Z,174443,-0.29901123,-0.8092041,-0.1428833
1725815748763,2024-09-08T17:15:48.763Z,174487,-0.3109131,-0.8147583,-0.099121094
1725815748808,2024-09-08T17:15:48.808Z,174532,-0.3227539,-0.8086548,-0.13366699
1725815748849,2024-09-08T17:15:48.849Z,174573,-0.32458496,-0.79455566,-0.08642578
1725815748896,2024-09-08T17:15:48.896Z,174620,-0.33740234,-0.8004761,-0.11462402
1725815748941,2024-09-08T17:15:48.941Z,174665,-0.33709717,-0.84143066,-0.10015869
1725815749033,2024-09-08T17:15:49.033Z,174757,-0.3317871,-0.9157715,-0.049926758
1725815749052,2024-09-08T17:15:49.052Z,174776,-0.32684326,-0.9361572,-0.049804688
1725815749072,2024-09-08T17:15:49.072Z,174796,-0.30529785,-0.91778564,-0.06951904
1725815749092,2024-09-08T17:15:49.092Z,174816,-0.28240967,-0.9042969,0.014099121
1725815749121,2024-09-08T17:15:49.121Z,174845,-0.25561523,-0.8988037,-0.11798096
1725815749167,2024-09-08T17:15:49.167Z,174891,-0.26837158,-0.97039795,-0.07714844
1725815749214,2024-09-08T17:15:49.214Z,174938,-0.25982666,-0.99798584,-0.087646484
1725815749259,2024-09-08T17:15:49.259Z,174983,-0.22137451,-0.96502686,-0.13214111
1725815749312,2024-09-08T17:15:49.312Z,175036,-0.20794678,-0.93829346,-0.072387695
1725815749346,2024-09-08T17:15:49.346Z,175070,-0.20483398,-0.8925171,-0.11810303
1725815749395,2024-09-08T17:15:49.395Z,175119,-0.19006348,-0.89123535,-0.08001709
1725815749412,2024-09-08T17:15:49.412Z,175136,-0.20611572,-0.87353516,-0.103027344
1725815749436,2024-09-08T17:15:49.436Z,175160,-0.2055664,-0.87524414,-0.07043457
1725815749480,2024-09-08T17:15:49.480Z,175204,-0.20593262,-0.840271,-0.10675049
1725815749527,2024-09-08T17:15:49.527Z,175251,-0.20227051,-0.8642578,-0.11352539
1725815749618,2024-09-08T17:15:49.618Z,175342,-0.21252441,-0.91259766,-0.12371826
1725815749640,2024-09-08T17:15:49.640Z,175364,-0.20617676,-0.94415283,-0.11529541
1725815749661,2024-09-08T17:15:49.661Z,175385,-0.19897461,-0.9242554,-0.119262695
1725815749705,2024-09-08T17:15:49.705Z,175429,-0.22979736,-0.91015625,-0.1453247
1725815749797,2024-09-08T17:15:49.797Z,175521,-0.22790527,-0.9342041,-0.11669922
1725815749815,2024-09-08T17:15:49.815Z,175539,-0.25909424,-0.93688965,-0.15008545
1725815749834,2024-09-08T17:15:49.834Z,175558,-0.2652588,-0.9463501,-0.11743164
1725815749845,2024-09-08T17:15:49.845Z,175569,-0.2946167,-0.98413086,-0.14447021
1725815749899,2024-09-08T17:15:49.899Z,175623,-0.29022217,-0.99224854,-0.10064697
1725815749929,2024-09-08T17:15:49.929Z,175653,-0.28808594,-0.9561157,-0.14459229
1725815749975,2024-09-08T17:15:49.975Z,175699,-0.27825928,-0.9491577,-0.11395264
1725815750023,2024-09-08T17:15:50.023Z,175747,-0.28320312,-0.9544678,-0.124694824
1725815750114,2024-09-08T17:15:50.114Z,175838,-0.27355957,-0.96466064,-0.13330078
1725815750134,2024-09-08T17:15:50.134Z,175858,-0.28588867,-0.9713745,-0.122802734
1725815750156,2024-09-08T17:15:50.156Z,175880,-0.26776123,-0.9489136,-0.13677979
1725815750202,2024-09-08T17:15:50.202Z,175926,-0.26287842,-0.9560547,-0.13470459
1725815750246,2024-09-08T17:15:50.246Z,175970,-0.2713623,-0.98443604,-0.13635254
1725815750264,2024-09-08T17:15:50.264Z,175988,-0.26898193,-0.9956665,-0.12854004
1725815750291,2024-09-08T17:15:50.291Z,176015,-0.25274658,-0.9924927,-0.109558105
1725815750335,2024-09-08T17:15:50.335Z,176059,-0.2526245,-1.005249,-0.12432861
1725815750384,2024-09-08T17:15:50.384Z,176108,-0.2341919,-0.9699707,-0.09515381
1725815750426,2024-09-08T17:15:50.426Z,176150,-0.2208252,-0.94073486,-0.11407471
1725815750472,2024-09-08T17:15:50.472Z,176196,-0.22216797,-0.9137573,-0.07550049
1725815750518,2024-09-08T17:15:50.518Z,176242,-0.20825195,-0.90179443,-0.0881958
1725815750561,2024-09-08T17:15:50.561Z,176285,-0.2185669,-0.89971924,-0.08093262
1725815750607,2024-09-08T17:15:50.607Z,176331,-0.23522949,-0.9161377,-0.076660156
1725815750653,2024-09-08T17:15:50.653Z,176377,-0.24487305,-0.95703125,-0.0725708
1725815750671,2024-09-08T17:15:50.671Z,176395,-0.26489258,-1.0026855,-0.084228516
1725815750743,2024-09-08T17:15:50.743Z,176467,-0.29406738,-1.0214844,-0.06036377
1725815750757,2024-09-08T17:15:50.757Z,176481,-0.2668457,-1.005249,-0.06958008
1725815750788,2024-09-08T17:15:50.788Z,176512,-0.2672119,-1.0236206,-0.049438477
1725815750831,2024-09-08T17:15:50.831Z,176555,-0.2368164,-1.0548096,-0.05987549
1725815750921,2024-09-08T17:15:50.921Z,176645,-0.21313477,-1.0429688,-0.03161621
1725815750939,2024-09-08T17:15:50.939Z,176663,-0.17596436,-1.0090942,-0.024169922
1725815750967,2024-09-08T17:15:50.967Z,176691,-0.16192627,-0.94244385,8.544922E-4
1725815751019,2024-09-08T17:15:51.019Z,176743,-0.15301514,-0.9302368,-0.012023926
1725815751105,2024-09-08T17:15:51.105Z,176829,-0.12750244,-0.96325684,-0.029724121
1725815751123,2024-09-08T17:15:51.123Z,176847,-0.12200928,-1.0256348,-0.07055664
1725815751141,2024-09-08T17:15:51.141Z,176865,-0.09625244,-1.1039429,-0.11828613
1725815751158,2024-09-08T17:15:51.158Z,176882,-0.08880615,-1.1619263,-0.11450195
1725815751193,2024-09-08T17:15:51.193Z,176917,-0.0769043,-1.1622314,-0.11236572
1725815751236,2024-09-08T17:15:51.236Z,176960,-0.06335449,-1.1278687,-0.13946533
1725815751283,2024-09-08T17:15:51.283Z,177007,-0.047973633,-1.0756226,-0.082336426
1725815751328,2024-09-08T17:15:51.328Z,177052,-0.030700684,-0.994812,-0.09552002
1725815751417,2024-09-08T17:15:51.417Z,177141,-0.012512207,-0.96606445,-0.06951904
1725815751434,2024-09-08T17:15:51.434Z,177158,-0.014892578,-1.0020142,-0.0657959
1725815751460,2024-09-08T17:15:51.460Z,177184,6.713867E-4,-1.1628418,-0.118896484
1725815751509,2024-09-08T17:15:51.509Z,177233,-0.014831543,-1.2940674,-0.093444824
1725815751527,2024-09-08T17:15:51.527Z,177251,-0.036621094,-1.2873535,-0.089782715
1725815751551,2024-09-08T17:15:51.551Z,177275,-0.038269043,-1.2490234,-0.080322266
1725815751596,2024-09-08T17:15:51.596Z,177320,-0.08203125,-1.194458,-0.08416748
1725815751641,2024-09-08T17:15:51.641Z,177365,-0.05847168,-1.1764526,-0.08630371
1725815751733,2024-09-08T17:15:51.733Z,177457,-0.12689209,-1.1599731,-0.10656738
1725815751751,2024-09-08T17:15:51.751Z,177475,-0.10070801,-1.1133423,-0.10321045
1725815751791,2024-09-08T17:15:51.791Z,177515,-0.09448242,-1.072815,-0.10650635
1725815751913,2024-09-08T17:15:51.913Z,177637,-0.10900879,-0.9985962,-0.09466553
1725815751935,2024-09-08T17:15:51.935Z,177659,-0.13909912,-0.9298096,-0.09240723
1725815751956,2024-09-08T17:15:51.956Z,177680,-0.17700195,-0.873291,-0.0513916
1725815751974,2024-09-08T17:15:51.974Z,177698,-0.18688965,-0.80895996,-0.09814453
1725815751990,2024-09-08T17:15:51.990Z,177714,-0.23376465,-0.7728882,-0.09716797
1725815752000,2024-09-08T17:15:52Z,177724,-0.25097656,-0.8031616,-0.0769043
1725815752093,2024-09-08T17:15:52.093Z,177817,-0.26324463,-0.8126831,-0.15185547
1725815752112,2024-09-08T17:15:52.112Z,177836,-0.31329346,-0.82598877,-0.20007324
1725815752180,2024-09-08T17:15:52.180Z,177904,-0.32678223,-0.8391113,-0.1550293
1725815752195,2024-09-08T17:15:52.195Z,177919,-0.36224365,-0.8081665,-0.2241211
1725815752227,2024-09-08T17:15:52.227Z,177951,-0.33428955,-0.75390625,-0.20056152
1725815752272,2024-09-08T17:15:52.272Z,177996,-0.3411255,-0.7379761,-0.15197754
1725815752316,2024-09-08T17:15:52.316Z,178040,-0.34881592,-0.7351074,-0.20465088
1725815752334,2024-09-08T17:15:52.334Z,178058,-0.36773682,-0.79241943,-0.09686279
1725815752360,2024-09-08T17:15:52.360Z,178084,-0.36468506,-0.8007202,-0.14941406
1725815752407,2024-09-08T17:15:52.407Z,178131,-0.35980225,-0.80914307,-0.17687988
1725815752450,2024-09-08T17:15:52.450Z,178174,-0.35272217,-0.8834839,-0.17181396
1725815752497,2024-09-08T17:15:52.497Z,178221,-0.34313965,-0.93933105,-0.15362549
1725815752550,2024-09-08T17:15:52.550Z,178274,-0.31311035,-0.94055176,-0.18554688
1725815752587,2024-09-08T17:15:52.587Z,178311,-0.27130127,-0.95648193,-0.15130615
1725815752632,2024-09-08T17:15:52.632Z,178356,-0.26019287,-0.95147705,-0.15441895
1725815752678,2024-09-08T17:15:52.678Z,178402,-0.24230957,-0.9257202,-0.13256836
1725815752722,2024-09-08T17:15:52.722Z,178446,-0.22491455,-0.9125366,-0.12756348
1725815752767,2024-09-08T17:15:52.767Z,178491,-0.24957275,-0.954895,-0.1194458
1725815752785,2024-09-08T17:15:52.785Z,178509,-0.26635742,-0.9916992,-0.15130615
1725815752811,2024-09-08T17:15:52.811Z,178535,-0.24713135,-0.9758301,-0.123413086
1725815752857,2024-09-08T17:15:52.857Z,178581,-0.22406006,-0.92388916,-0.14526367
1725815752945,2024-09-08T17:15:52.945Z,178669,-0.22167969,-0.8905029,-0.15679932
1725815753086,2024-09-08T17:15:53.086Z,178810,-0.22174072,-0.90686035,-0.13763428
1725815753110,2024-09-08T17:15:53.110Z,178834,-0.25512695,-0.934021,-0.16064453
1725815753183,2024-09-08T17:15:53.183Z,178907,-0.2612915,-0.93066406,-0.16888428
1725815753206,2024-09-08T17:15:53.206Z,178930,-0.25408936,-0.91412354,-0.16009521
1725815753220,2024-09-08T17:15:53.220Z,178944,-0.25531006,-0.9168091,-0.1508789
1725815753231,2024-09-08T17:15:53.231Z,178955,-0.21868896,-0.92510986,-0.14703369
1725815753238,2024-09-08T17:15:53.238Z,178962,-0.23522949,-0.92144775,-0.15405273
1725815753245,2024-09-08T17:15:53.245Z,178969,-0.22454834,-0.9116211,-0.13024902
1725815753257,2024-09-08T17:15:53.257Z,178981,-0.24578857,-0.9017334,-0.13409424
1725815753304,2024-09-08T17:15:53.304Z,179028,-0.2689209,-0.89416504,-0.1473999
1725815753351,2024-09-08T17:15:53.351Z,179075,-0.258667,-0.8918457,-0.123535156
1725815753442,2024-09-08T17:15:53.442Z,179166,-0.27075195,-0.902771,-0.12927246
1725815753457,2024-09-08T17:15:53.457Z,179181,-0.2524414,-0.904541,-0.13604736
1725815753486,2024-09-08T17:15:53.486Z,179210,-0.2177124,-0.95880127,-0.14007568
1725815753532,2024-09-08T17:15:53.532Z,179256,-0.20269775,-0.98114014,-0.14898682
1725815753576,2024-09-08T17:15:53.576Z,179300,-0.16870117,-0.9447632,-0.14111328
1725815753594,2024-09-08T17:15:53.594Z,179318,-0.18414307,-0.9005127,-0.12866211
1725815753621,2024-09-08T17:15:53.621Z,179345,-0.18218994,-0.90045166,-0.14782715
1725815753670,2024-09-08T17:15:53.670Z,179394,-0.21252441,-0.9024658,-0.1461792
1725815753712,2024-09-08T17:15:53.712Z,179436,-0.22686768,-0.8970337,-0.17474365
1725815753757,2024-09-08T17:15:53.757Z,179481,-0.23266602,-0.9558716,-0.14337158
1725815753802,2024-09-08T17:15:53.802Z,179526,-0.22515869,-0.9752197,-0.16778564
1725815753845,2024-09-08T17:15:53.845Z,179569,-0.22241211,-0.9699707,-0.15008545
1725815753892,2024-09-08T17:15:53.892Z,179616,-0.21624756,-0.9945679,-0.15838623
1725815753937,2024-09-08T17:15:53.937Z,179661,-0.22570801,-0.99316406,-0.13330078
1725815753983,2024-09-08T17:15:53.983Z,179707,-0.21881104,-0.9638672,-0.17004395
1725815754033,2024-09-08T17:15:54.033Z,179757,-0.2397461,-0.99401855,-0.1404419
1725815754052,2024-09-08T17:15:54.052Z,179776,-0.24212646,-1.0001221,-0.14282227
1725815754072,2024-09-08T17:15:54.072Z,179796,-0.23809814,-0.9980469,-0.16113281
1725815754116,2024-09-08T17:15:54.116Z,179840,-0.21929932,-0.989563,-0.11199951
1725815754161,2024-09-08T17:15:54.161Z,179885,-0.20111084,-0.9805298,-0.13500977
1725815754209,2024-09-08T17:15:54.209Z,179933,-0.19415283,-1.020935,-0.08343506
1725815754251,2024-09-08T17:15:54.251Z,179975,-0.17053223,-1.017334,-0.097717285
1725815754298,2024-09-08T17:15:54.298Z,180022,-0.14593506,-1.0070801,-0.06555176
1725815754342,2024-09-08T17:15:54.342Z,180066,-0.13806152,-0.97821045,-0.059753418
1725815754388,2024-09-08T17:15:54.388Z,180112,-0.12542725,-0.94866943,-0.034423828
1725815754432,2024-09-08T17:15:54.432Z,180156,-0.121032715,-0.93536377,0.01727295
1725815754449,2024-09-08T17:15:54.449Z,180173,-0.09411621,-0.9248657,9.1552734E-4
1725815754477,2024-09-08T17:15:54.477Z,180201,-0.07159424,-0.9797363,-0.0036621094
1725815754522,2024-09-08T17:15:54.522Z,180246,-0.039916992,-1.0233765,0.006591797
1725815754567,2024-09-08T17:15:54.567Z,180291,-0.022827148,-1.0401001,0.019348145
1725815754613,2024-09-08T17:15:54.613Z,180337,0.018737793,-1.0303345,0.029541016
1725815754657,2024-09-08T17:15:54.657Z,180381,0.031311035,-1.0080566,0.054016113
1725815754704,2024-09-08T17:15:54.704Z,180428,0.039978027,-0.9567261,0.09075928
1725815754747,2024-09-08T17:15:54.747Z,180471,0.059570312,-0.9376221,0.060668945
1725815754794,2024-09-08T17:15:54.794Z,180518,0.09851074,-0.99487305,0.07336426
1725815754836,2024-09-08T17:15:54.836Z,180560,0.122924805,-1.0334473,0.05834961
1725815754853,2024-09-08T17:15:54.853Z,180577,0.17913818,-1.0657959,0.027893066
1725815754887,2024-09-08T17:15:54.887Z,180611,0.21038818,-1.0863647,0.05065918
1725815754935,2024-09-08T17:15:54.935Z,180659,0.27856445,-1.0512695,0.08319092
1725815754972,2024-09-08T17:15:54.972Z,180696,0.3251953,-0.98779297,0.0725708
1725815755016,2024-09-08T17:15:55.016Z,180740,0.35168457,-0.96813965,0.09667969
1725815755062,2024-09-08T17:15:55.062Z,180786,0.33624268,-0.9688721,0.10028076
1725815755111,2024-09-08T17:15:55.111Z,180835,0.3140869,-0.970459,0.09680176
1725815755149,2024-09-08T17:15:55.149Z,180873,0.26049805,-0.97869873,0.07739258
1725815755196,2024-09-08T17:15:55.196Z,180920,0.23779297,-1.0205078,0.050354004
1725815755242,2024-09-08T17:15:55.242Z,180966,0.22393799,-1.1033325,0.012939453
1725815755293,2024-09-08T17:15:55.293Z,181017,0.22766113,-1.171936,3.6621094E-4
1725815755311,2024-09-08T17:15:55.311Z,181035,0.23651123,-1.2025146,0.011291504
1725815755332,2024-09-08T17:15:55.332Z,181056,0.2163086,-1.2119751,0.005126953
1725815755378,2024-09-08T17:15:55.378Z,181102,0.2211914,-1.2145386,0.0056762695
1725815755422,2024-09-08T17:15:55.422Z,181146,0.16638184,-1.199707,-0.0071411133
1725815755468,2024-09-08T17:15:55.468Z,181192,0.16601562,-1.1466675,-0.010131836
1725815755514,2024-09-08T17:15:55.514Z,181238,0.09301758,-1.1348877,-0.032409668
1725815755558,2024-09-08T17:15:55.558Z,181282,0.08001709,-1.072998,-0.04522705
1725815755604,2024-09-08T17:15:55.604Z,181328,0.05908203,-1.0268555,-0.026611328
1725815755648,2024-09-08T17:15:55.648Z,181372,0.021606445,-0.9902954,-0.06768799
1725815755738,2024-09-08T17:15:55.738Z,181462,0.018310547,-0.9885864,-0.016113281
1725815755756,2024-09-08T17:15:55.756Z,181480,-0.018676758,-0.97210693,-0.011962891
1725815755773,2024-09-08T17:15:55.773Z,181497,-0.017456055,-0.94555664,-0.023010254
1725815755790,2024-09-08T17:15:55.790Z,181514,-0.019470215,-0.89801025,0.007019043
1725815755827,2024-09-08T17:15:55.827Z,181551,-0.04925537,-0.85827637,0.006652832
1725815755871,2024-09-08T17:15:55.871Z,181595,-0.05078125,-0.81658936,-0.014709473
1725815755917,2024-09-08T17:15:55.917Z,181641,-0.07550049,-0.8152466,0.030639648
1725815755966,2024-09-08T17:15:55.966Z,181690,-0.095581055,-0.76049805,-0.018615723
1725815756005,2024-09-08T17:15:56.005Z,181729,-0.12249756,-0.7748413,-0.02142334
1725815756053,2024-09-08T17:15:56.053Z,181777,-0.17077637,-0.8286133,0.0021972656
1725815756097,2024-09-08T17:15:56.097Z,181821,-0.18267822,-0.8555298,-0.074645996
1725815756118,2024-09-08T17:15:56.118Z,181842,-0.25079346,-0.8778076,-0.048339844
1725815756148,2024-09-08T17:15:56.148Z,181872,-0.22650146,-0.9036255,-0.05102539
1725815756187,2024-09-08T17:15:56.187Z,181911,-0.25897217,-0.89160156,-0.061035156
1725815756233,2024-09-08T17:15:56.233Z,181957,-0.22772217,-0.8778076,-0.07043457
1725815756277,2024-09-08T17:15:56.277Z,182001,-0.24963379,-0.8319702,-0.0345459
1725815756323,2024-09-08T17:15:56.323Z,182047,-0.2637329,-0.83135986,-0.11437988
1725815756412,2024-09-08T17:15:56.412Z,182136,-0.29101562,-0.93170166,-0.09967041
1725815756544,2024-09-08T17:15:56.544Z,182268,-0.30633545,-1.0009766,-0.12097168
1725815756554,2024-09-08T17:15:56.554Z,182278,-0.30578613,-0.9530029,-0.18310547
1725815756565,2024-09-08T17:15:56.565Z,182289,-0.2531128,-0.916687,-0.15838623
1725815756574,2024-09-08T17:15:56.574Z,182298,-0.23669434,-0.9121094,-0.15808105
1725815756584,2024-09-08T17:15:56.584Z,182308,-0.22259521,-0.94195557,-0.19018555
1725815756723,2024-09-08T17:15:56.723Z,182447,-0.23626709,-0.98321533,-0.16485596
1725815756733,2024-09-08T17:15:56.733Z,182457,-0.22467041,-1.0066528,-0.18139648
1725815756744,2024-09-08T17:15:56.744Z,182468,-0.22393799,-0.9691162,-0.17486572
1725815756755,2024-09-08T17:15:56.755Z,182479,-0.19885254,-0.9347534,-0.16729736
1725815887267,2024-09-08T17:18:07.267Z,312991,-0.23620605,-0.9627075,-0.13543701
1725815887357,2024-09-08T17:18:07.357Z,313081,-0.23388672,-0.9767456,-0.13061523
1725815887378,2024-09-08T17:18:07.378Z,313102,-0.22583008,-0.9649658,-0.1182251
1725815887447,2024-09-08T17:18:07.447Z,313171,-0.21643066,-0.95306396,-0.11694336
1725815887468,2024-09-08T17:18:07.468Z,313192,-0.21478271,-0.95532227,-0.09979248
1725815887488,2024-09-08T17:18:07.488Z,313212,-0.21356201,-0.95788574,-0.10839844
1725815887505,2024-09-08T17:18:07.505Z,313229,-0.20812988,-0.96990967,-0.08618164
1725815887536,2024-09-08T17:18:07.536Z,313260,-0.21166992,-0.9752197,-0.0791626
1725815887582,2024-09-08T17:18:07.582Z,313306,-0.2053833,-0.956604,-0.09484863
1725815887628,2024-09-08T17:18:07.628Z,313352,-0.20300293,-0.9477539,-0.078430176
1725815887677,2024-09-08T17:18:07.677Z,313401,-0.2144165,-0.93573,-0.10473633
1725815887720,2024-09-08T17:18:07.720Z,313444,-0.2218628,-0.92211914,-0.13623047
1725815887764,2024-09-08T17:18:07.764Z,313488,-0.21728516,-0.9206543,-0.13989258
1725815887811,2024-09-08T17:18:07.811Z,313535,-0.22216797,-0.9282837,-0.1665039
1725815887856,2024-09-08T17:18:07.856Z,313580,-0.23083496,-0.9592285,-0.1663208
1725815887899,2024-09-08T17:18:07.899Z,313623,-0.21923828,-0.94421387,-0.15612793
1725815887922,2024-09-08T17:18:07.922Z,313646,-0.22167969,-0.90875244,-0.17913818
1725815887942,2024-09-08T17:18:07.942Z,313666,-0.20751953,-0.8786621,-0.17474365
1725815887989,2024-09-08T17:18:07.989Z,313713,-0.2086792,-0.8703613,-0.1906128
1725815888036,2024-09-08T17:18:08.036Z,313760,-0.2322998,-0.8521118,-0.20220947
1725815888080,2024-09-08T17:18:08.080Z,313804,-0.21679688,-0.8568115,-0.1821289
1725815888125,2024-09-08T17:18:08.125Z,313849,-0.2475586,-0.8574829,-0.22930908
1725815888188,2024-09-08T17:18:08.188Z,313912,-0.2420044,-0.8787842,-0.19696045
1725815888214,2024-09-08T17:18:08.214Z,313938,-0.26257324,-0.9349365,-0.17297363
1725815888257,2024-09-08T17:18:08.257Z,313981,-0.2421875,-0.92230225,-0.23077393
1725815888302,2024-09-08T17:18:08.302Z,314026,-0.22741699,-0.9194336,-0.1887207
1725815888319,2024-09-08T17:18:08.319Z,314043,-0.21624756,-0.89801025,-0.19000244
1725815888347,2024-09-08T17:18:08.347Z,314071,-0.1965332,-0.8973999,-0.12451172
1725815888438,2024-09-08T17:18:08.438Z,314162,-0.19049072,-0.93847656,-0.1484375
1725815888454,2024-09-08T17:18:08.454Z,314178,-0.18579102,-0.9538574,-0.09185791
1725815888483,2024-09-08T17:18:08.483Z,314207,-0.16503906,-0.99121094,-0.05328369
1725815888531,2024-09-08T17:18:08.531Z,314255,-0.22259521,-0.9890747,-0.06951904
1725815888575,2024-09-08T17:18:08.575Z,314299,-0.2107544,-0.9682617,-0.083862305
1725815888620,2024-09-08T17:18:08.620Z,314344,-0.23071289,-0.9871216,-0.103271484
1725815888664,2024-09-08T17:18:08.664Z,314388,-0.2536621,-1.0292358,-0.059387207
1725815888711,2024-09-08T17:18:08.711Z,314435,-0.27349854,-1.0596313,-0.09863281
1725815888738,2024-09-08T17:18:08.738Z,314462,-0.27783203,-1.0256348,-0.15344238
1725815888759,2024-09-08T17:18:08.759Z,314483,-0.2991333,-1.0180664,-0.098083496
1725815888796,2024-09-08T17:18:08.796Z,314520,-0.29467773,-1.0022583,-0.15814209
1725815888847,2024-09-08T17:18:08.847Z,314571,-0.30633545,-1.0010376,-0.14996338
1725815888891,2024-09-08T17:18:08.891Z,314615,-0.33935547,-0.9751587,-0.15795898
1725815888934,2024-09-08T17:18:08.934Z,314658,-0.3256836,-0.93292236,-0.1899414
1725815889026,2024-09-08T17:18:09.026Z,314750,-0.34539795,-0.91296387,-0.24951172
1725815889053,2024-09-08T17:18:09.053Z,314777,-0.34576416,-0.9098511,-0.23181152
1725815889078,2024-09-08T17:18:09.078Z,314802,-0.366333,-0.88757324,-0.25854492
1725815889111,2024-09-08T17:18:09.111Z,314835,-0.3517456,-0.8791504,-0.2836914
1725815889174,2024-09-08T17:18:09.174Z,314898,-0.3623047,-0.859375,-0.19921875
1725815889199,2024-09-08T17:18:09.199Z,314923,-0.3322754,-0.8283081,-0.3008423
1725815889215,2024-09-08T17:18:09.215Z,314939,-0.33093262,-0.8647461,-0.22479248
1725815889246,2024-09-08T17:18:09.246Z,314970,-0.32452393,-0.9081421,-0.27209473
1725815889292,2024-09-08T17:18:09.292Z,315016,-0.30670166,-0.9540405,-0.18756104
1725815889338,2024-09-08T17:18:09.338Z,315062,-0.3050537,-0.9939575,-0.19555664
1725815889386,2024-09-08T17:18:09.386Z,315110,-0.2553711,-1.0045776,-0.1427002
1725815889431,2024-09-08T17:18:09.431Z,315155,-0.24810791,-1.0239868,-0.14074707
1725815889475,2024-09-08T17:18:09.475Z,315199,-0.23382568,-0.99890137,-0.14813232
1725815889521,2024-09-08T17:18:09.521Z,315245,-0.23583984,-0.9980469,-0.1607666
1725815889611,2024-09-08T17:18:09.611Z,315335,-0.19726562,-0.9848633,-0.11981201
1725815889638,2024-09-08T17:18:09.638Z,315362,-0.20166016,-0.9904785,-0.1459961
1725815889658,2024-09-08T17:18:09.658Z,315382,-0.18231201,-1.0249023,-0.1359253
1725815889675,2024-09-08T17:18:09.675Z,315399,-0.1583252,-1.0679321,-0.14038086
1725815889696,2024-09-08T17:18:09.696Z,315420,-0.13696289,-1.1046753,-0.13305664
1725815889742,2024-09-08T17:18:09.742Z,315466,-0.11834717,-1.1169434,-0.122680664
1725815889787,2024-09-08T17:18:09.787Z,315511,-0.1138916,-1.1150513,-0.115234375
1725815889833,2024-09-08T17:18:09.833Z,315557,-0.107666016,-1.1142578,-0.052246094
1725815889879,2024-09-08T17:18:09.879Z,315603,-0.13873291,-1.105957,-0.0881958
1725815889924,2024-09-08T17:18:09.924Z,315648,-0.16204834,-1.0853271,-0.0592041
1725815889971,2024-09-08T17:18:09.971Z,315695,-0.18780518,-1.0908813,-0.10614014
1725815889994,2024-09-08T17:18:09.994Z,315718,-0.2388916,-1.104248,-0.12097168
1725815890012,2024-09-08T17:18:10.012Z,315736,-0.25305176,-1.1071167,-0.13208008
1725815890058,2024-09-08T17:18:10.058Z,315782,-0.26879883,-1.1121216,-0.124816895
1725815890106,2024-09-08T17:18:10.106Z,315830,-0.25567627,-1.0891724,-0.14355469
1725815890197,2024-09-08T17:18:10.197Z,315921,-0.25811768,-1.0701904,-0.13238525
1725815890227,2024-09-08T17:18:10.227Z,315951,-0.24023438,-1.0565796,-0.15875244
1725815890255,2024-09-08T17:18:10.255Z,315979,-0.22662354,-1.0484619,-0.10217285
1725815890292,2024-09-08T17:18:10.292Z,316016,-0.20288086,-1.0526733,-0.06262207
1725815890326,2024-09-08T17:18:10.326Z,316050,-0.17840576,-1.0236206,-7.324219E-4
1725815890422,2024-09-08T17:18:10.422Z,316146,-0.16326904,-0.9904785,-0.047912598
1725815890449,2024-09-08T17:18:10.449Z,316173,-0.14794922,-0.9663086,-0.022277832
1725815890472,2024-09-08T17:18:10.472Z,316196,-0.1237793,-0.9255371,-0.036376953
1725815890488,2024-09-08T17:18:10.488Z,316212,-0.123291016,-0.92144775,-0.019104004
1725815890506,2024-09-08T17:18:10.506Z,316230,-0.12475586,-0.9033203,-0.014160156
1725815890551,2024-09-08T17:18:10.551Z,316275,-0.14068604,-0.92315674,-0.06768799
1725815890598,2024-09-08T17:18:10.598Z,316322,-0.16638184,-0.9746704,-0.09503174
1725815890645,2024-09-08T17:18:10.645Z,316369,-0.17871094,-1.0488281,-0.11016846
1725815890704,2024-09-08T17:18:10.704Z,316428,-0.24926758,-1.0441895,-0.11578369
1725815890732,2024-09-08T17:18:10.732Z,316456,-0.21795654,-1.0006714,-0.085754395
1725815890781,2024-09-08T17:18:10.781Z,316505,-0.2133789,-0.8560791,-0.05883789
1725815890823,2024-09-08T17:18:10.823Z,316547,-0.19732666,-0.66033936,-0.06524658
1725815890847,2024-09-08T17:18:10.847Z,316571,-0.19213867,-0.56036377,-0.034179688
1725815890913,2024-09-08T17:18:10.913Z,316637,-0.21936035,-0.5488281,0.0017089844
1725815890928,2024-09-08T17:18:10.928Z,316652,-0.26605225,-0.6321411,-0.09777832
1725815890958,2024-09-08T17:18:10.958Z,316682,-0.2781372,-0.84716797,-0.055908203
1725815891003,2024-09-08T17:18:11.003Z,316727,-0.32409668,-0.97314453,-0.09741211
1725815891050,2024-09-08T17:18:11.050Z,316774,-0.32507324,-1.003479,-0.0814209
1725815891094,2024-09-08T17:18:11.094Z,316818,-0.30493164,-0.97216797,-0.06915283
1725815891139,2024-09-08T17:18:11.139Z,316863,-0.2767334,-0.9495239,-0.06713867
1725815891199,2024-09-08T17:18:11.199Z,316923,-0.27191162,-0.958374,-0.07867432
1725815891230,2024-09-08T17:18:11.230Z,316954,-0.2579956,-0.9805298,-0.066833496
1725815891251,2024-09-08T17:18:11.251Z,316975,-0.25030518,-1.0009766,-0.07836914
1725815891272,2024-09-08T17:18:11.272Z,316996,-0.24072266,-0.97613525,-0.10449219
1725815891315,2024-09-08T17:18:11.315Z,317039,-0.24243164,-0.97436523,-0.07171631
1725815891380,2024-09-08T17:18:11.380Z,317104,-0.24597168,-0.973938,-0.061157227
1725815891408,2024-09-08T17:18:11.408Z,317132,-0.26812744,-0.9445801,-0.11376953
1725815891455,2024-09-08T17:18:11.455Z,317179,-0.24597168,-0.9232788,-0.08917236
1725815891591,2024-09-08T17:18:11.591Z,317315,-0.28167725,-0.9492798,-0.08758545
1725815891626,2024-09-08T17:18:11.626Z,317350,-0.29040527,-1.001831,-0.10223389
1725815891655,2024-09-08T17:18:11.655Z,317379,-0.2822876,-0.9664917,-0.11633301
1725815891674,2024-09-08T17:18:11.674Z,317398,-0.24291992,-0.8927002,-0.13641357
1725815891690,2024-09-08T17:18:11.690Z,317414,-0.2526245,-0.888916,-0.067993164
1725815891728,2024-09-08T17:18:11.728Z,317452,-0.23962402,-0.9336548,-0.12164307
1725815891744,2024-09-08T17:18:11.744Z,317468,-0.2489624,-0.98791504,-0.09295654
1725815891768,2024-09-08T17:18:11.768Z,317492,-0.27191162,-1.0178223,-0.047790527
1725815891813,2024-09-08T17:18:11.813Z,317537,-0.24902344,-0.97021484,-0.060668945
1725815891857,2024-09-08T17:18:11.857Z,317581,-0.24816895,-0.93914795,-0.07684326
1725815891949,2024-09-08T17:18:11.949Z,317673,-0.24481201,-0.93969727,-0.024108887
1725815891965,2024-09-08T17:18:11.965Z,317689,-0.25030518,-0.9434204,-0.081970215
1725815891992,2024-09-08T17:18:11.992Z,317716,-0.2555542,-0.9277344,-0.07171631
1725815892038,2024-09-08T17:18:12.038Z,317762,-0.2689209,-0.92822266,-0.035095215
1725815892084,2024-09-08T17:18:12.084Z,317808,-0.27459717,-0.9020996,-0.077819824
1725815892107,2024-09-08T17:18:12.107Z,317831,-0.2720337,-0.88397217,-0.076293945
1725815892127,2024-09-08T17:18:12.127Z,317851,-0.26348877,-0.8666992,-0.04663086
1725815892220,2024-09-08T17:18:12.220Z,317944,-0.24658203,-0.8241577,-0.09448242
1725815892247,2024-09-08T17:18:12.247Z,317971,-0.1887207,-0.8482666,-0.07696533
1725815892266,2024-09-08T17:18:12.266Z,317990,-0.20458984,-0.91967773,-0.036865234
1725815892307,2024-09-08T17:18:12.307Z,318031,-0.1928711,-0.944397,-0.0914917
1725815892357,2024-09-08T17:18:12.357Z,318081,-0.17980957,-0.9741211,-0.058654785
1725815892403,2024-09-08T17:18:12.403Z,318127,-0.16845703,-0.9951172,-0.070739746
1725815892490,2024-09-08T17:18:12.490Z,318214,-0.18005371,-0.9700928,-0.10687256
1725815892519,2024-09-08T17:18:12.519Z,318243,-0.16430664,-0.96276855,-0.03466797
1725815892543,2024-09-08T17:18:12.543Z,318267,-0.17218018,-0.98358154,-0.112976074
1725815892577,2024-09-08T17:18:12.577Z,318301,-0.17437744,-1.0015259,-0.12194824
1725815892591,2024-09-08T17:18:12.591Z,318315,-0.18328857,-1.0080566,-0.081848145
1725815892622,2024-09-08T17:18:12.622Z,318346,-0.16888428,-0.9727173,-0.12548828
1725815892731,2024-09-08T17:18:12.731Z,318455,-0.17126465,-0.9642334,-0.12963867
1725815892754,2024-09-08T17:18:12.754Z,318478,-0.16772461,-0.95440674,-0.13482666
1725815892771,2024-09-08T17:18:12.771Z,318495,-0.17980957,-0.9534912,-0.17449951
1725815892801,2024-09-08T17:18:12.801Z,318525,-0.19976807,-0.9641113,-0.15032959
1725815892849,2024-09-08T17:18:12.849Z,318573,-0.20983887,-0.9710083,-0.18225098
1725815892941,2024-09-08T17:18:12.941Z,318665,-0.22631836,-0.97076416,-0.14630127
1725815892968,2024-09-08T17:18:12.968Z,318692,-0.20617676,-0.9508667,-0.15484619
1725815892986,2024-09-08T17:18:12.986Z,318710,-0.23602295,-0.94555664,-0.17132568
1725815893004,2024-09-08T17:18:13.004Z,318728,-0.22180176,-0.9343262,-0.13690186
1725815893027,2024-09-08T17:18:13.027Z,318751,-0.25787354,-0.93756104,-0.15264893
1725815893071,2024-09-08T17:18:13.071Z,318795,-0.24737549,-0.9328003,-0.13867188
1725815893119,2024-09-08T17:18:13.119Z,318843,-0.274292,-0.9586792,-0.17352295
1725815893164,2024-09-08T17:18:13.164Z,318888,-0.2850952,-0.9918823,-0.16351318
1725815893209,2024-09-08T17:18:13.209Z,318933,-0.3106079,-0.9812012,-0.1430664
1725815893255,2024-09-08T17:18:13.255Z,318979,-0.30194092,-0.97766113,-0.1574707
1725815893346,2024-09-08T17:18:13.346Z,319070,-0.29412842,-0.97979736,-0.1326294
1725815893377,2024-09-08T17:18:13.377Z,319101,-0.28277588,-0.99346924,-0.17211914
1725815893402,2024-09-08T17:18:13.402Z,319126,-0.29455566,-0.9647217,-0.06097412
1725815893432,2024-09-08T17:18:13.432Z,319156,-0.26885986,-0.94189453,-0.10241699
1725815893447,2024-09-08T17:18:13.447Z,319171,-0.27514648,-0.902771,-0.0970459
1725815893475,2024-09-08T17:18:13.475Z,319199,-0.25933838,-0.88830566,-0.095458984
1725815893522,2024-09-08T17:18:13.522Z,319246,-0.2788086,-0.89312744,-0.10430908
1725815893570,2024-09-08T17:18:13.570Z,319294,-0.2962036,-0.92248535,-0.055786133
1725815893616,2024-09-08T17:18:13.616Z,319340,-0.291687,-0.97387695,-0.08843994
1725815893660,2024-09-08T17:18:13.660Z,319384,-0.28674316,-1.0238037,-0.044006348
1725815893718,2024-09-08T17:18:13.718Z,319442,-0.28771973,-1.0309448,-0.042663574
1725815893749,2024-09-08T17:18:13.749Z,319473,-0.27435303,-1.0245361,-0.009155273
1725815893775,2024-09-08T17:18:13.775Z,319499,-0.25793457,-1.0177002,-0.03881836
1725815893791,2024-09-08T17:18:13.791Z,319515,-0.23828125,-1.0249023,-0.026062012
1725815893837,2024-09-08T17:18:13.837Z,319561,-0.2374878,-1.0220337,-0.01574707
1725815893887,2024-09-08T17:18:13.887Z,319611,-0.22125244,-1.0344238,-0.020019531
1725815893931,2024-09-08T17:18:13.931Z,319655,-0.22210693,-1.0270386,-0.032714844
1725815893975,2024-09-08T17:18:13.975Z,319699,-0.20172119,-1.0270996,-0.055908203
1725815894020,2024-09-08T17:18:14.020Z,319744,-0.20318604,-1.0247803,-0.03668213
1725815894063,2024-09-08T17:18:14.063Z,319787,-0.19396973,-1.0108032,-0.05834961
1725815894109,2024-09-08T17:18:14.109Z,319833,-0.19567871,-1.0119629,-0.033996582
1725815894155,2024-09-08T17:18:14.155Z,319879,-0.1763916,-0.99920654,-0.0435791
1725815894215,2024-09-08T17:18:14.215Z,319939,-0.16729736,-0.97650146,-0.02178955
1725815894242,2024-09-08T17:18:14.242Z,319966,-0.15441895,-0.9764404,-0.026184082
1725815894337,2024-09-08T17:18:14.337Z,320061,-0.13916016,-1.0006714,0.015197754
1725815894364,2024-09-08T17:18:14.364Z,320088,-0.12652588,-1.0227051,0.0043945312
1725815894384,2024-09-08T17:18:14.384Z,320108,-0.10772705,-1.0906982,0.019714355
1725815894518,2024-09-08T17:18:14.518Z,320242,-0.10534668,-1.1566772,5.493164E-4
1725815894547,2024-09-08T17:18:14.547Z,320271,-0.10131836,-1.2026367,0.009277344
1725815894572,2024-09-08T17:18:14.572Z,320296,-0.1194458,-1.2185059,0.006225586
1725815894590,2024-09-08T17:18:14.590Z,320314,-0.13171387,-1.190979,-0.0020141602
1725815894607,2024-09-08T17:18:14.607Z,320331,-0.14007568,-1.1577148,0.002380371
1725815894622,2024-09-08T17:18:14.622Z,320346,-0.16809082,-1.1271973,-0.0099487305
1725815894635,2024-09-08T17:18:14.635Z,320359,-0.19036865,-1.0983887,-0.01727295
1725815894653,2024-09-08T17:18:14.653Z,320377,-0.18609619,-1.0632324,-0.01965332
1725815894739,2024-09-08T17:18:14.739Z,320463,-0.18670654,-1.0235596,-0.06774902
1725815894752,2024-09-08T17:18:14.752Z,320476,-0.18988037,-1.0199585,-0.052856445
1725815894782,2024-09-08T17:18:14.782Z,320506,-0.17102051,-1.00531,-0.07171631
1725815894827,2024-09-08T17:18:14.827Z,320551,-0.19573975,-0.9940796,-0.095214844
1725815894872,2024-09-08T17:18:14.872Z,320596,-0.18322754,-0.9996338,-0.09222412
1725815894918,2024-09-08T17:18:14.918Z,320642,-0.20898438,-0.98028564,-0.11340332
1725815894964,2024-09-08T17:18:14.964Z,320688,-0.20379639,-0.9558716,-0.11248779
1725815895011,2024-09-08T17:18:15.011Z,320735,-0.24383545,-0.93652344,-0.11206055
1725815895037,2024-09-08T17:18:15.037Z,320761,-0.25726318,-0.90148926,-0.111816406
1725815895059,2024-09-08T17:18:15.059Z,320783,-0.28564453,-0.8574219,-0.14807129
1725815895102,2024-09-08T17:18:15.102Z,320826,-0.33996582,-0.8129883,-0.1408081
1725815895147,2024-09-08T17:18:15.147Z,320871,-0.37780762,-0.7487793,-0.16973877
1725815895190,2024-09-08T17:18:15.190Z,320914,-0.3788452,-0.7088623,-0.16137695
1725815895236,2024-09-08T17:18:15.236Z,320960,-0.43347168,-0.75531006,-0.1272583
1725815895281,2024-09-08T17:18:15.281Z,321005,-0.43762207,-0.80041504,-0.15655518
1725815895371,2024-09-08T17:18:15.371Z,321095,-0.36065674,-0.80596924,-0.06774902
1725815895415,2024-09-08T17:18:15.415Z,321139,-0.331604,-0.80877686,-0.07128906
1725815895439,2024-09-08T17:18:15.439Z,321163,-0.30529785,-0.7731323,-0.11834717
1725815895458,2024-09-08T17:18:15.458Z,321182,-0.27398682,-0.80389404,0.013122559
1725815895473,2024-09-08T17:18:15.473Z,321197,-0.29205322,-0.8115845,-0.022277832
1725815895502,2024-09-08T17:18:15.502Z,321226,-0.2935791,-0.8748169,-0.11846924
1725815895548,2024-09-08T17:18:15.548Z,321272,-0.3256836,-1.0018921,0.01586914
1725815895592,2024-09-08T17:18:15.592Z,321316,-0.33081055,-0.9848633,-0.085998535
1725815895639,2024-09-08T17:18:15.639Z,321363,-0.31756592,-0.96221924,-0.08972168
1725815895684,2024-09-08T17:18:15.684Z,321408,-0.29632568,-0.9373169,-0.016723633
1725815895729,2024-09-08T17:18:15.729Z,321453,-0.2744751,-0.87597656,-0.09466553
1725815895773,2024-09-08T17:18:15.773Z,321497,-0.2647705,-0.90283203,-0.025268555
1725815895820,2024-09-08T17:18:15.820Z,321544,-0.2869873,-0.9399414,-0.03161621
1725815895864,2024-09-08T17:18:15.864Z,321588,-0.2939453,-0.96551514,-0.046813965
1725815895890,2024-09-08T17:18:15.890Z,321614,-0.272583,-0.98205566,-0.04815674
1725815895911,2024-09-08T17:18:15.911Z,321635,-0.30810547,-1.0084839,-0.009277344
1725815895951,2024-09-08T17:18:15.951Z,321675,-0.28240967,-0.977478,-0.0635376
1725815896048,2024-09-08T17:18:16.048Z,321772,-0.2786255,-0.9498291,-0.05859375
1725815896074,2024-09-08T17:18:16.074Z,321798,-0.2581787,-0.9299927,-0.045959473
1725815896135,2024-09-08T17:18:16.135Z,321859,-0.23828125,-0.91516113,-0.052368164
1725815896162,2024-09-08T17:18:16.162Z,321886,-0.25054932,-0.9645996,-0.033447266
1725815896186,2024-09-08T17:18:16.186Z,321910,-0.24334717,-0.98376465,-0.058410645
1725815896224,2024-09-08T17:18:16.224Z,321948,-0.2593994,-0.98553467,-0.045166016
1725815896270,2024-09-08T17:18:16.270Z,321994,-0.2647705,-0.95843506,-0.090026855
1725815896294,2024-09-08T17:18:16.294Z,322018,-0.24249268,-0.93865967,-0.04498291
1725815896312,2024-09-08T17:18:16.312Z,322036,-0.2518921,-0.9066162,-0.069885254
1725815896357,2024-09-08T17:18:16.357Z,322081,-0.22747803,-0.8953247,-0.12432861
1725815896405,2024-09-08T17:18:16.405Z,322129,-0.23059082,-0.94018555,-0.032043457
1725815896451,2024-09-08T17:18:16.451Z,322175,-0.23376465,-0.9454956,-0.111450195
1725815896495,2024-09-08T17:18:16.495Z,322219,-0.21484375,-0.93927,-0.13275146
1725815896539,2024-09-08T17:18:16.539Z,322263,-0.20825195,-1.0140991,-0.04925537
1725815896584,2024-09-08T17:18:16.584Z,322308,-0.21612549,-0.97906494,-0.092041016
1725815896630,2024-09-08T17:18:16.630Z,322354,-0.19226074,-0.8868408,-0.11029053
1725815896718,2024-09-08T17:18:16.718Z,322442,-0.20721436,-0.8903198,-0.084472656
1725815896763,2024-09-08T17:18:16.763Z,322487,-0.22406006,-0.92822266,-0.091552734
1725815896789,2024-09-08T17:18:16.789Z,322513,-0.23809814,-0.9486084,-0.11730957
1725815896808,2024-09-08T17:18:16.808Z,322532,-0.24377441,-0.9501953,-0.12487793
1725815896827,2024-09-08T17:18:16.827Z,322551,-0.22058105,-0.96307373,-0.10571289
1725815896897,2024-09-08T17:18:16.897Z,322621,-0.21105957,-0.9556885,-0.1026001
1725815896911,2024-09-08T17:18:16.911Z,322635,-0.19348145,-0.96850586,-0.06298828
1725815896942,2024-09-08T17:18:16.942Z,322666,-0.16674805,-0.9219971,-0.0758667
1725815896988,2024-09-08T17:18:16.988Z,322712,-0.15301514,-0.9135742,-0.113464355
1725815897037,2024-09-08T17:18:17.037Z,322761,-0.16156006,-0.95129395,-0.09503174
1725815897079,2024-09-08T17:18:17.079Z,322803,-0.16638184,-0.9688721,-0.10845947
1725815897125,2024-09-08T17:18:17.125Z,322849,-0.17260742,-0.95092773,-0.10998535
1725815897147,2024-09-08T17:18:17.147Z,322871,-0.16479492,-0.9493408,-0.121398926
1725815897167,2024-09-08T17:18:17.167Z,322891,-0.19189453,-0.9738159,-0.12652588
1725815897212,2024-09-08T17:18:17.212Z,322936,-0.20257568,-0.99420166,-0.16143799
1725815897258,2024-09-08T17:18:17.258Z,322982,-0.19799805,-0.97143555,-0.12365723
1725815897303,2024-09-08T17:18:17.303Z,323027,-0.19561768,-0.9483032,-0.10809326
1725815897349,2024-09-08T17:18:17.349Z,323073,-0.20056152,-0.9481201,-0.13024902
1725815897396,2024-09-08T17:18:17.396Z,323120,-0.20385742,-0.95666504,-0.13311768
1725815897440,2024-09-08T17:18:17.440Z,323164,-0.21490479,-0.94641113,-0.17889404
1725815897483,2024-09-08T17:18:17.483Z,323207,-0.23181152,-0.9503174,-0.13568115
1725815897531,2024-09-08T17:18:17.531Z,323255,-0.22174072,-0.94348145,-0.1560669
1725815897559,2024-09-08T17:18:17.559Z,323283,-0.25268555,-0.94970703,-0.11352539
1725815897581,2024-09-08T17:18:17.581Z,323305,-0.2175293,-0.9476929,-0.1494751
1725815897616,2024-09-08T17:18:17.616Z,323340,-0.23931885,-0.95910645,-0.11413574
1725815897665,2024-09-08T17:18:17.665Z,323389,-0.21765137,-0.9527588,-0.140625
1725815897710,2024-09-08T17:18:17.710Z,323434,-0.2253418,-0.9573364,-0.113464355
1725815897755,2024-09-08T17:18:17.755Z,323479,-0.20501709,-0.95025635,-0.14050293
1725815897799,2024-09-08T17:18:17.799Z,323523,-0.22271729,-0.9450073,-0.17260742
1725815897844,2024-09-08T17:18:17.844Z,323568,-0.21038818,-0.9584961,-0.17541504
1725815897889,2024-09-08T17:18:17.889Z,323613,-0.24926758,-0.97265625,-0.13964844
1725815897935,2024-09-08T17:18:17.935Z,323659,-0.22845459,-0.9526367,-0.16949463
1725815898025,2024-09-08T17:18:18.025Z,323749,-0.23248291,-0.9655762,-0.1251831
1725815898052,2024-09-08T17:18:18.052Z,323776,-0.21533203,-0.9725952,-0.14654541
1725815898076,2024-09-08T17:18:18.076Z,323800,-0.21520996,-0.9890137,-0.08660889
1725815898094,2024-09-08T17:18:18.094Z,323818,-0.17889404,-0.9901123,-0.11993408
1725815898112,2024-09-08T17:18:18.112Z,323836,-0.1630249,-1.0126953,-0.05859375
1725815898159,2024-09-08T17:18:18.159Z,323883,-0.15179443,-1.0272827,-0.05731201
1725815898204,2024-09-08T17:18:18.204Z,323928,-0.14025879,-1.0316162,-0.056884766
1725815898252,2024-09-08T17:18:18.252Z,323976,-0.13684082,-1.001831,-0.030090332
1725815898298,2024-09-08T17:18:18.298Z,324022,-0.14245605,-0.97943115,-0.07476807
1725815898339,2024-09-08T17:18:18.339Z,324063,-0.13317871,-0.99938965,-0.06365967
1725815898385,2024-09-08T17:18:18.385Z,324109,-0.13623047,-1.0079346,-0.08276367
1725815898411,2024-09-08T17:18:18.411Z,324135,-0.13275146,-1.005188,-0.04486084
1725815898436,2024-09-08T17:18:18.436Z,324160,-0.12823486,-1.0063477,-0.068115234
1725815898569,2024-09-08T17:18:18.569Z,324293,-0.113586426,-1.0269165,-0.040405273
1725815898598,2024-09-08T17:18:18.598Z,324322,-0.08898926,-1.0601196,-0.059692383
1725815898625,2024-09-08T17:18:18.625Z,324349,-0.10144043,-1.0480347,-0.037353516
1725815898645,2024-09-08T17:18:18.645Z,324369,-0.07727051,-1.0254517,-0.022033691
1725815898791,2024-09-08T17:18:18.791Z,324515,-0.065979004,-1.0133667,-0.032714844
1725815898818,2024-09-08T17:18:18.818Z,324542,-0.06097412,-1.0177612,-0.010192871
1725815898844,2024-09-08T17:18:18.844Z,324568,-0.039978027,-1.0108032,-0.007385254
1725815898862,2024-09-08T17:18:18.862Z,324586,-0.034423828,-1.0012817,0.020202637
1725815898879,2024-09-08T17:18:18.879Z,324603,-0.029785156,-0.9880371,0.027709961
1725815898893,2024-09-08T17:18:18.893Z,324617,0.0057373047,-0.9805908,0.031311035
1725815898906,2024-09-08T17:18:18.906Z,324630,0.014892578,-0.9746704,0.027893066
1725815898920,2024-09-08T17:18:18.920Z,324644,0.030639648,-1.0129395,0.09020996
1725815898966,2024-09-08T17:18:18.966Z,324690,0.045410156,-1.0528564,0.10211182
1725815899013,2024-09-08T17:18:19.013Z,324737,0.04901123,-1.0915527,0.11456299
1725815899059,2024-09-08T17:18:19.059Z,324783,0.061767578,-1.1141357,0.13464355
1725815899104,2024-09-08T17:18:19.104Z,324828,0.05065918,-1.1209717,0.13519287
1725815899150,2024-09-08T17:18:19.150Z,324874,0.030578613,-1.1359253,0.13214111
1725815899194,2024-09-08T17:18:19.194Z,324918,0.028259277,-1.1547241,0.10827637
1725815899219,2024-09-08T17:18:19.219Z,324943,-0.020507812,-1.1829224,0.10797119
1725815899237,2024-09-08T17:18:19.237Z,324961,-0.039855957,-1.1862183,0.0914917
1725815899287,2024-09-08T17:18:19.287Z,325011,-0.05505371,-1.1525879,0.056396484
1725815899331,2024-09-08T17:18:19.331Z,325055,-0.0947876,-1.1108398,0.055358887
1725815899374,2024-09-08T17:18:19.374Z,325098,-0.09210205,-1.0993652,0.0107421875
1725815899420,2024-09-08T17:18:19.420Z,325144,-0.115600586,-1.0753784,-0.024902344
1725815899464,2024-09-08T17:18:19.464Z,325188,-0.13757324,-1.0419922,-0.07562256
1725815899521,2024-09-08T17:18:19.521Z,325245,-0.12963867,-1.0455933,-0.029907227
1725815899552,2024-09-08T17:18:19.552Z,325276,-0.11505127,-1.001648,-0.06384277
1725815899599,2024-09-08T17:18:19.599Z,325323,-0.09643555,-0.961853,-0.08526611
1725815899644,2024-09-08T17:18:19.644Z,325368,-0.10180664,-0.9576416,-0.024597168
1725815899668,2024-09-08T17:18:19.668Z,325392,-0.10394287,-0.9180298,-0.09326172
1725815899687,2024-09-08T17:18:19.687Z,325411,-0.15362549,-0.9161377,-0.095336914
1725815899733,2024-09-08T17:18:19.733Z,325457,-0.1697998,-0.9694214,-0.137146
1725815899779,2024-09-08T17:18:19.779Z,325503,-0.22644043,-0.9221802,-0.09423828
1725815899824,2024-09-08T17:18:19.824Z,325548,-0.21142578,-0.83203125,-0.101501465
1725815899871,2024-09-08T17:18:19.871Z,325595,-0.23376465,-0.7223511,-0.10479736
1725815899914,2024-09-08T17:18:19.914Z,325638,-0.21862793,-0.67230225,-0.07110596
1725815899959,2024-09-08T17:18:19.959Z,325683,-0.260437,-0.6791992,-0.12335205
1725815900049,2024-09-08T17:18:20.049Z,325773,-0.26159668,-0.72766113,-0.15185547
1725815900078,2024-09-08T17:18:20.078Z,325802,-0.35308838,-0.84088135,-0.035583496
1725815900102,2024-09-08T17:18:20.102Z,325826,-0.3782959,-0.89971924,-0.16821289
1725815900117,2024-09-08T17:18:20.117Z,325841,-0.3725586,-0.93255615,-0.093933105
1725815900137,2024-09-08T17:18:20.137Z,325861,-0.34423828,-0.89959717,-0.12713623
1725815900184,2024-09-08T17:18:20.184Z,325908,-0.34472656,-0.8551636,-0.16168213
1725815900229,2024-09-08T17:18:20.229Z,325953,-0.30969238,-0.83929443,-0.08276367
1725815900274,2024-09-08T17:18:20.274Z,325998,-0.30413818,-0.85479736,-0.08898926
1725815900319,2024-09-08T17:18:20.319Z,326043,-0.31170654,-0.89068604,-0.13214111
1725815900364,2024-09-08T17:18:20.364Z,326088,-0.29766846,-1.0039062,-0.011413574
1725815900409,2024-09-08T17:18:20.409Z,326133,-0.3527832,-0.99823,-0.10455322
1725815900455,2024-09-08T17:18:20.455Z,326179,-0.28198242,-0.9800415,-0.055786133
1725815900479,2024-09-08T17:18:20.479Z,326203,-0.29736328,-0.95617676,-0.016113281
1725815900505,2024-09-08T17:18:20.505Z,326229,-0.28076172,-0.90808105,-0.0770874
1725815900544,2024-09-08T17:18:20.544Z,326268,-0.2649536,-0.9211426,-0.019348145
1725815900589,2024-09-08T17:18:20.589Z,326313,-0.2600708,-0.94970703,-0.07067871
1725815900634,2024-09-08T17:18:20.634Z,326358,-0.24761963,-0.9802246,-0.049194336
1725815900686,2024-09-08T17:18:20.686Z,326410,-0.22302246,-1.0013428,-0.03753662
1725815900724,2024-09-08T17:18:20.724Z,326448,-0.21575928,-0.9794922,-0.060180664
1725815900770,2024-09-08T17:18:20.770Z,326494,-0.21325684,-0.97021484,-0.05432129
1725815900815,2024-09-08T17:18:20.815Z,326539,-0.21466064,-0.9628296,-0.057495117
1725815900860,2024-09-08T17:18:20.860Z,326584,-0.21191406,-0.96746826,-0.064819336
1725815900903,2024-09-08T17:18:20.903Z,326627,-0.22161865,-0.961792,-0.08605957
1725815900928,2024-09-08T17:18:20.928Z,326652,-0.22070312,-0.95739746,-0.113586426
1725815900951,2024-09-08T17:18:20.951Z,326675,-0.21136475,-0.97631836,-0.080444336
1725815900994,2024-09-08T17:18:20.994Z,326718,-0.22583008,-0.9747925,-0.1126709
1725815901039,2024-09-08T17:18:21.039Z,326763,-0.20788574,-0.97076416,-0.11352539
1725815901084,2024-09-08T17:18:21.084Z,326808,-0.21252441,-0.95996094,-0.101379395
1725815901130,2024-09-08T17:18:21.130Z,326854,-0.2078247,-0.9440918,-0.10650635
1725815901174,2024-09-08T17:18:21.174Z,326898,-0.2078247,-0.9315796,-0.10784912
1725815901221,2024-09-08T17:18:21.221Z,326945,-0.20959473,-0.930603,-0.09094238
1725815901266,2024-09-08T17:18:21.266Z,326990,-0.22363281,-0.93969727,-0.09802246
1725815901311,2024-09-08T17:18:21.311Z,327035,-0.2111206,-0.9423828,-0.11407471
1725815901336,2024-09-08T17:18:21.336Z,327060,-0.22943115,-0.95233154,-0.07513428
1725815901353,2024-09-08T17:18:21.353Z,327077,-0.21240234,-0.9413452,-0.08874512
1725815901397,2024-09-08T17:18:21.397Z,327121,-0.20819092,-0.91516113,-0.09576416
1725815901492,2024-09-08T17:18:21.492Z,327216,-0.19921875,-0.9211426,-0.091308594
1725815901518,2024-09-08T17:18:21.518Z,327242,-0.19049072,-0.9293823,-0.1126709
1725815901541,2024-09-08T17:18:21.541Z,327265,-0.18304443,-0.9571533,-0.13238525
1725815901579,2024-09-08T17:18:21.579Z,327303,-0.1739502,-0.9770508,-0.10491943
1725815901625,2024-09-08T17:18:21.625Z,327349,-0.14489746,-0.9766846,-0.1427002
1725815901670,2024-09-08T17:18:21.670Z,327394,-0.14929199,-0.9949951,-0.11401367
1725815901728,2024-09-08T17:18:21.728Z,327452,-0.12890625,-0.9805298,-0.14672852
1725815901753,2024-09-08T17:18:21.753Z,327477,-0.12084961,-0.96032715,-0.14605713
1725815901767,2024-09-08T17:18:21.767Z,327491,-0.12817383,-0.9440918,-0.13183594
1725815901802,2024-09-08T17:18:21.802Z,327526,-0.120910645,-0.93322754,-0.15655518
1725815901849,2024-09-08T17:18:21.849Z,327573,-0.14245605,-0.9470825,-0.14910889
1725815901894,2024-09-08T17:18:21.894Z,327618,-0.1307373,-0.9660034,-0.16461182
1725815901940,2024-09-08T17:18:21.940Z,327664,-0.13464355,-0.973999,-0.15979004
1725815901994,2024-09-08T17:18:21.994Z,327718,-0.1194458,-0.9793091,-0.15991211
1725815902028,2024-09-08T17:18:22.028Z,327752,-0.11022949,-0.95318604,-0.2156372
1725815902077,2024-09-08T17:18:22.077Z,327801,-0.087524414,-0.94348145,-0.16296387
1725815902118,2024-09-08T17:18:22.118Z,327842,-0.0927124,-0.95166016,-0.22381592
1725815902209,2024-09-08T17:18:22.209Z,327933,-0.09979248,-0.9857788,-0.14892578
1725815902235,2024-09-08T17:18:22.235Z,327959,-0.096191406,-0.9764404,-0.17962646
1725815902258,2024-09-08T17:18:22.258Z,327982,-0.09448242,-0.96691895,-0.15411377
1725815902274,2024-09-08T17:18:22.274Z,327998,-0.08850098,-0.9651489,-0.15948486
1725815902345,2024-09-08T17:18:22.345Z,328069,-0.08300781,-0.9623413,-0.1239624
1725815902372,2024-09-08T17:18:22.372Z,328096,-0.07562256,-0.93304443,-0.13232422
1725815902434,2024-09-08T17:18:22.434Z,328158,-0.06738281,-0.9342041,-0.10119629
1725815902454,2024-09-08T17:18:22.454Z,328178,-0.072387695,-0.95526123,-0.07757568
1725815902524,2024-09-08T17:18:22.524Z,328248,-0.0836792,-0.9720459,-0.09527588
1725815902570,2024-09-08T17:18:22.570Z,328294,-0.08544922,-1.0007935,-0.055358887
1725815902593,2024-09-08T17:18:22.593Z,328317,-0.08532715,-0.9659424,-0.14770508
1725815902609,2024-09-08T17:18:22.609Z,328333,-0.07702637,-0.92858887,-0.08917236
1725815902658,2024-09-08T17:18:22.658Z,328382,-0.084228516,-0.9075928,-0.087524414
1725815902673,2024-09-08T17:18:22.673Z,328397,-0.08441162,-0.9165039,-0.084228516
1725815902702,2024-09-08T17:18:22.702Z,328426,-0.105163574,-0.9430542,-0.10015869
1725815902749,2024-09-08T17:18:22.749Z,328473,-0.121276855,-0.99731445,-0.069885254
1725815902883,2024-09-08T17:18:22.883Z,328607,-0.14776611,-1.0374756,-0.08392334
1725815902909,2024-09-08T17:18:22.909Z,328633,-0.15716553,-1.0783081,-0.062072754
1725815902930,2024-09-08T17:18:22.930Z,328654,-0.15002441,-1.092041,-0.09869385
1725815902946,2024-09-08T17:18:22.946Z,328670,-0.15008545,-1.0557251,-0.085876465
1725815902972,2024-09-08T17:18:22.972Z,328696,-0.13775635,-1.015625,-0.053955078
1725815902985,2024-09-08T17:18:22.985Z,328709,-0.13165283,-0.9807739,-0.08557129
1725815903016,2024-09-08T17:18:23.016Z,328740,-0.103759766,-0.9458008,-0.06793213
1725815903110,2024-09-08T17:18:23.110Z,328834,-0.06842041,-0.9446411,-0.07861328
1725815903172,2024-09-08T17:18:23.172Z,328896,-0.06201172,-0.9817505,-0.06890869
1725815903194,2024-09-08T17:18:23.194Z,328918,-0.03656006,-1.0280151,-0.0026245117
1725815903210,2024-09-08T17:18:23.210Z,328934,-0.022033691,-1.0674438,0.01953125
1725815903241,2024-09-08T17:18:23.241Z,328965,0.023925781,-1.0532227,0.014038086
1725815903288,2024-09-08T17:18:23.288Z,329012,0.047180176,-1.0235596,0.013671875
1725815903338,2024-09-08T17:18:23.338Z,329062,0.0814209,-0.9909668,0.036499023
1725815903378,2024-09-08T17:18:23.378Z,329102,0.1105957,-0.9738159,0.073791504
1725815903426,2024-09-08T17:18:23.426Z,329150,0.1687622,-0.95532227,0.07702637
1725815903450,2024-09-08T17:18:23.450Z,329174,0.20458984,-0.93914795,0.056396484
1725815903471,2024-09-08T17:18:23.471Z,329195,0.22503662,-0.9355469,0.09301758
1725815903511,2024-09-08T17:18:23.511Z,329235,0.21130371,-0.932312,0.064453125
1725815903559,2024-09-08T17:18:23.559Z,329283,0.20129395,-0.9359741,0.081970215
1725815903606,2024-09-08T17:18:23.606Z,329330,0.15655518,-0.947876,0.07324219
1725815903649,2024-09-08T17:18:23.649Z,329373,0.152771,-0.9729004,0.045410156
1725815903695,2024-09-08T17:18:23.695Z,329419,0.13189697,-1.0274658,0.019226074
1725815903739,2024-09-08T17:18:23.739Z,329463,0.14630127,-1.0593262,0.043945312
1725815903784,2024-09-08T17:18:23.784Z,329508,0.16479492,-1.0557861,0.053344727
1725815903829,2024-09-08T17:18:23.829Z,329553,0.19244385,-1.0444946,0.043823242
1725815903851,2024-09-08T17:18:23.851Z,329575,0.20904541,-1.0331421,0.052368164
1725815903872,2024-09-08T17:18:23.872Z,329596,0.20544434,-0.9885254,0.0791626
1725815903919,2024-09-08T17:18:23.919Z,329643,0.17633057,-0.94384766,0.061523438
1725815904011,2024-09-08T17:18:24.011Z,329735,0.1642456,-0.93408203,0.07092285
1725815904037,2024-09-08T17:18:24.037Z,329761,0.14569092,-0.9741821,0.05883789
1725815904062,2024-09-08T17:18:24.062Z,329786,0.144104,-1.0339355,0.04736328
1725815904096,2024-09-08T17:18:24.096Z,329820,0.13397217,-1.0628662,0.030700684
1725815904144,2024-09-08T17:18:24.144Z,329868,0.14611816,-1.0698242,0.046020508
1725815904193,2024-09-08T17:18:24.193Z,329917,0.15325928,-1.0835571,0.032592773
1725815904235,2024-09-08T17:18:24.235Z,329959,0.15698242,-1.1279297,0.038513184
1725815904258,2024-09-08T17:18:24.258Z,329982,0.15435791,-1.147583,0.028564453
1725815904278,2024-09-08T17:18:24.278Z,330002,0.15264893,-1.1383667,0.04650879
1725815904324,2024-09-08T17:18:24.324Z,330048,0.12359619,-1.1254883,0.053100586
1725815904368,2024-09-08T17:18:24.368Z,330092,0.10986328,-1.116394,0.0680542
1725815904414,2024-09-08T17:18:24.414Z,330138,0.07800293,-1.0891724,0.038146973
1725815904460,2024-09-08T17:18:24.460Z,330184,0.05517578,-1.0906372,0.10772705
1725815904503,2024-09-08T17:18:24.503Z,330227,0.0029296875,-1.0648804,0.08325195
1725815904550,2024-09-08T17:18:24.550Z,330274,-6.1035156E-5,-1.0431519,0.061828613
1725815904596,2024-09-08T17:18:24.596Z,330320,-0.0234375,-1.0143433,0.07910156
1725815904639,2024-09-08T17:18:24.639Z,330363,-0.04296875,-0.9765625,0.038269043
1725815904684,2024-09-08T17:18:24.684Z,330408,-0.039916992,-0.97332764,0.06976318
1725815904710,2024-09-08T17:18:24.710Z,330434,-0.0770874,-0.9717407,0.05053711
1725815904731,2024-09-08T17:18:24.731Z,330455,-0.039794922,-0.984375,0.05847168
1725815904773,2024-09-08T17:18:24.773Z,330497,-0.07739258,-0.9561157,0.03302002
1725815904819,2024-09-08T17:18:24.819Z,330543,-0.046020508,-0.9390259,0.04650879
1725815904864,2024-09-08T17:18:24.864Z,330588,-0.083618164,-0.9901123,0.08068848
1725815904908,2024-09-08T17:18:24.908Z,330632,-0.09161377,-0.95843506,0.012145996
1725815904954,2024-09-08T17:18:24.954Z,330678,-0.05432129,-0.9133911,0.075927734
1725815904999,2024-09-08T17:18:24.999Z,330723,-0.09753418,-0.8773804,0.012634277
1725815905044,2024-09-08T17:18:25.044Z,330768,-0.07293701,-0.838501,0.034729004
1725815905089,2024-09-08T17:18:25.089Z,330813,-0.11541748,-0.8064575,-0.018676758
1725815905113,2024-09-08T17:18:25.113Z,330837,-0.13928223,-0.84484863,0.009521484
1725815905136,2024-09-08T17:18:25.136Z,330860,-0.2210083,-0.8451538,-0.0036621094
1725815905178,2024-09-08T17:18:25.178Z,330902,-0.20355225,-0.8529663,-0.1350708
1725815905222,2024-09-08T17:18:25.222Z,330946,-0.3317871,-0.90057373,-0.059570312
1725815905269,2024-09-08T17:18:25.269Z,330993,-0.28167725,-0.8988037,-0.17150879
1725815905314,2024-09-08T17:18:25.314Z,331038,-0.33392334,-0.9238281,-0.08062744
1725815905360,2024-09-08T17:18:25.360Z,331084,-0.30194092,-0.9265137,-0.14361572
1725815905405,2024-09-08T17:18:25.405Z,331129,-0.29315186,-0.90911865,-0.20135498
1725815905449,2024-09-08T17:18:25.449Z,331173,-0.27978516,-0.8583374,-0.13214111
1725815905495,2024-09-08T17:18:25.495Z,331219,-0.28863525,-0.82263184,-0.18829346
1725815905519,2024-09-08T17:18:25.519Z,331243,-0.26831055,-0.86328125,-0.17004395
1725815905543,2024-09-08T17:18:25.543Z,331267,-0.2816162,-0.9168091,-0.2107544
1725815905630,2024-09-08T17:18:25.630Z,331354,-0.30163574,-0.97613525,-0.23352051
1725815905688,2024-09-08T17:18:25.688Z,331412,-0.2913208,-0.99176025,-0.25390625
1725815905713,2024-09-08T17:18:25.713Z,331437,-0.27172852,-0.9448242,-0.24005127
1725815905732,2024-09-08T17:18:25.732Z,331456,-0.24517822,-0.92492676,-0.18786621
1725815905761,2024-09-08T17:18:25.761Z,331485,-0.23547363,-0.9043579,-0.2861328
1725815905853,2024-09-08T17:18:25.853Z,331577,-0.25531006,-0.92633057,-0.17559814
1725815905876,2024-09-08T17:18:25.876Z,331600,-0.22729492,-0.9071045,-0.2649536
1725815905898,2024-09-08T17:18:25.898Z,331622,-0.23236084,-0.95581055,-0.17352295
1725815905946,2024-09-08T17:18:25.946Z,331670,-0.27801514,-0.97869873,-0.24407959
1725815905967,2024-09-08T17:18:25.967Z,331691,-0.23651123,-0.9810791,-0.21875
1725815905986,2024-09-08T17:18:25.986Z,331710,-0.24041748,-0.94158936,-0.19335938
1725815906033,2024-09-08T17:18:26.033Z,331757,-0.22338867,-0.90875244,-0.17736816
1725815906078,2024-09-08T17:18:26.078Z,331802,-0.23925781,-0.90625,-0.17993164
1725815906124,2024-09-08T17:18:26.124Z,331848,-0.24389648,-0.9633179,-0.13946533
1725815906169,2024-09-08T17:18:26.169Z,331893,-0.27087402,-0.99420166,-0.15386963
1725815906221,2024-09-08T17:18:26.221Z,331945,-0.25286865,-0.98913574,-0.13293457
1725815906258,2024-09-08T17:18:26.258Z,331982,-0.26586914,-0.9655762,-0.11419678
1725815906305,2024-09-08T17:18:26.305Z,332029,-0.26135254,-0.9251709,-0.10058594
1725815906350,2024-09-08T17:18:26.350Z,332074,-0.24383545,-0.90618896,-0.08483887
1725815906380,2024-09-08T17:18:26.380Z,332104,-0.2541504,-0.92492676,-0.0814209
1725815906406,2024-09-08T17:18:26.406Z,332130,-0.2619629,-0.9489136,-0.09643555
1725815906451,2024-09-08T17:18:26.451Z,332175,-0.26031494,-0.96313477,-0.08404541
1725815906484,2024-09-08T17:18:26.484Z,332208,-0.24725342,-0.95184326,-0.09844971
1725815906529,2024-09-08T17:18:26.529Z,332253,-0.24267578,-0.9301758,-0.11853027
1725815906574,2024-09-08T17:18:26.574Z,332298,-0.22277832,-0.95654297,-0.09411621
1725815906619,2024-09-08T17:18:26.619Z,332343,-0.22973633,-0.94647217,-0.12774658
1725815906664,2024-09-08T17:18:26.664Z,332388,-0.18487549,-0.9445801,-0.12231445
1725815906710,2024-09-08T17:18:26.710Z,332434,-0.19586182,-0.98547363,-0.08856201
1725815906768,2024-09-08T17:18:26.768Z,332492,-0.16564941,-0.973938,-0.12097168
1725815906791,2024-09-08T17:18:26.791Z,332515,-0.14575195,-0.949646,-0.061645508
1725815906808,2024-09-08T17:18:26.808Z,332532,-0.11578369,-0.9013672,-0.08355713
1725815906840,2024-09-08T17:18:26.840Z,332564,-0.10479736,-0.9014282,-0.07330322
1725815906899,2024-09-08T17:18:26.899Z,332623,-0.10913086,-0.9433594,-0.06237793
1725815906934,2024-09-08T17:18:26.934Z,332658,-0.123291016,-0.9692993,-0.09857178
1725815906979,2024-09-08T17:18:26.979Z,332703,-0.14001465,-1.0014648,-0.06628418
1725815907024,2024-09-08T17:18:27.024Z,332748,-0.13580322,-0.9790039,-0.08892822
1725815907069,2024-09-08T17:18:27.069Z,332793,-0.12988281,-0.9487915,-0.07446289
1725815907115,2024-09-08T17:18:27.115Z,332839,-0.12634277,-0.93640137,-0.08465576
1725815907159,2024-09-08T17:18:27.159Z,332883,-0.12322998,-0.97869873,-0.070739746
1725815907203,2024-09-08T17:18:27.203Z,332927,-0.13586426,-1.0236816,-0.052368164
1725815907225,2024-09-08T17:18:27.225Z,332949,-0.10394287,-1.0178223,-0.07366943
1725815907293,2024-09-08T17:18:27.293Z,333017,-0.105529785,-1.0009155,-0.064086914
1725815907316,2024-09-08T17:18:27.316Z,333040,-0.08703613,-0.9873047,-0.06378174
1725815907387,2024-09-08T17:18:27.387Z,333111,-0.09033203,-0.98638916,-0.040649414
1725815907410,2024-09-08T17:18:27.410Z,333134,-0.10321045,-0.99102783,-0.061279297
1725815907429,2024-09-08T17:18:27.429Z,333153,-0.09863281,-0.97283936,-0.059326172
1725815907520,2024-09-08T17:18:27.520Z,333244,-0.1237793,-0.9614258,-0.039489746
1725815907543,2024-09-08T17:18:27.543Z,333267,-0.12567139,-0.9727783,-0.035583496
1725815907567,2024-09-08T17:18:27.567Z,333291,-0.13787842,-0.95233154,-0.04345703
1725815907609,2024-09-08T17:18:27.609Z,333333,-0.12988281,-0.95111084,-0.03717041
1725815907633,2024-09-08T17:18:27.633Z,333357,-0.14294434,-0.95703125,-0.06359863
1725815907651,2024-09-08T17:18:27.651Z,333375,-0.14440918,-0.97613525,-0.039123535
1725815907699,2024-09-08T17:18:27.699Z,333423,-0.12237549,-0.9744873,-0.0423584
1725815907745,2024-09-08T17:18:27.745Z,333469,-0.13348389,-0.95513916,0.0044555664
1725815907790,2024-09-08T17:18:27.790Z,333514,-0.11578369,-0.94451904,0.010314941
1725815907839,2024-09-08T17:18:27.839Z,333563,-0.11816406,-0.9390259,0.012817383
1725815907878,2024-09-08T17:18:27.878Z,333602,-0.10760498,-0.96954346,0.003540039
1725815907927,2024-09-08T17:18:27.927Z,333651,-0.115112305,-1.0253906,0.031799316
1725815907972,2024-09-08T17:18:27.972Z,333696,-0.0904541,-1.022644,0.016906738
1725815908015,2024-09-08T17:18:28.015Z,333739,-0.07733154,-1.038208,0.04449463
1725815908042,2024-09-08T17:18:28.042Z,333766,-0.06463623,-1.0158081,0.07318115
1725815908067,2024-09-08T17:18:28.067Z,333791,-0.048828125,-0.9466553,0.0357666
1725815908105,2024-09-08T17:18:28.105Z,333829,-0.02557373,-0.901001,0.055603027
1725815908151,2024-09-08T17:18:28.151Z,333875,-0.04156494,-0.9188843,0.023376465
1725815908194,2024-09-08T17:18:28.194Z,333918,-0.051879883,-0.98565674,0.047912598
1725815908239,2024-09-08T17:18:28.239Z,333963,-0.051940918,-1.0343628,0.06262207
1725815908284,2024-09-08T17:18:28.284Z,334008,-0.040039062,-1.0473022,0.045166016
1725815908331,2024-09-08T17:18:28.331Z,334055,-0.022277832,-1.0263062,0.030700684
1725815908375,2024-09-08T17:18:28.375Z,334099,-0.012145996,-0.9954834,0.056396484
1725815908420,2024-09-08T17:18:28.420Z,334144,-0.02142334,-0.9499512,0.039794922
1725815908464,2024-09-08T17:18:28.464Z,334188,-0.012023926,-0.9412842,0.01928711
1725815908489,2024-09-08T17:18:28.489Z,334213,-0.0032348633,-0.95910645,0.011230469
1725815908555,2024-09-08T17:18:28.555Z,334279,-0.03363037,-0.9985962,0.0357666
1725815908578,2024-09-08T17:18:28.578Z,334302,-0.017822266,-1.0027466,0.03717041
1725815908602,2024-09-08T17:18:28.602Z,334326,-0.014282227,-0.98443604,0.05126953
1725815908654,2024-09-08T17:18:28.654Z,334378,1.2207031E-4,-0.9857178,0.02746582
1725815908689,2024-09-08T17:18:28.689Z,334413,0.016845703,-1.013794,0.041137695
1725815908733,2024-09-08T17:18:28.733Z,334457,0.047424316,-1.0267334,0.020874023
1725815908778,2024-09-08T17:18:28.778Z,334502,0.05340576,-1.0262451,0.062683105
1725815908823,2024-09-08T17:18:28.823Z,334547,0.08441162,-1.00354,0.06213379
1725815908870,2024-09-08T17:18:28.870Z,334594,0.08441162,-0.9992676,0.07702637
1725815908893,2024-09-08T17:18:28.893Z,334617,0.10748291,-1.0072632,0.063964844
1725815908914,2024-09-08T17:18:28.914Z,334638,0.107299805,-1.0224609,0.07556152
1725815909004,2024-09-08T17:18:29.004Z,334728,0.084472656,-1.022644,0.06921387
1725815909026,2024-09-08T17:18:29.026Z,334750,0.068603516,-1.0145264,0.08105469
1725815909048,2024-09-08T17:18:29.048Z,334772,0.06762695,-0.9909668,0.066589355
1725815909094,2024-09-08T17:18:29.094Z,334818,0.02960205,-0.97320557,0.062438965
1725815909141,2024-09-08T17:18:29.141Z,334865,0.024047852,-1.0042725,0.033935547
1725815909185,2024-09-08T17:18:29.185Z,334909,0.00579834,-1.0443726,0.04034424
1725815909234,2024-09-08T17:18:29.234Z,334958,7.324219E-4,-1.0626221,0.034057617
1725815909276,2024-09-08T17:18:29.276Z,335000,-0.020935059,-1.0684204,0.03125
1725815909299,2024-09-08T17:18:29.299Z,335023,-0.0072021484,-1.0428467,0.021911621
1725815909322,2024-09-08T17:18:29.322Z,335046,-0.010437012,-1.0151367,0.03515625
1725815909365,2024-09-08T17:18:29.365Z,335089,-0.013305664,-0.9609375,0.034484863
1725815909409,2024-09-08T17:18:29.409Z,335133,-0.021606445,-0.9333496,0.056152344
1725815909455,2024-09-08T17:18:29.455Z,335179,-0.053955078,-0.9291382,0.079956055
1725815909503,2024-09-08T17:18:29.503Z,335227,-0.070129395,-0.9505615,0.060913086
1725815909544,2024-09-08T17:18:29.544Z,335268,-0.08300781,-0.9918823,0.038024902
1725815909591,2024-09-08T17:18:29.591Z,335315,-0.10559082,-1.0253296,0.018249512
1725815909635,2024-09-08T17:18:29.635Z,335359,-0.11254883,-1.0750732,0.034240723
1725815909679,2024-09-08T17:18:29.679Z,335403,-0.11810303,-1.0772705,0.02368164
1725815909724,2024-09-08T17:18:29.724Z,335448,-0.0770874,-1.0587158,0.040405273
1725815909748,2024-09-08T17:18:29.748Z,335472,-0.056152344,-1.0264282,0.023864746
1725815909778,2024-09-08T17:18:29.778Z,335502,-0.0368042,-1.0150146,0.03387451
1725815909813,2024-09-08T17:18:29.813Z,335537,-0.043762207,-1.015686,0.044677734
1725815909859,2024-09-08T17:18:29.859Z,335583,-0.04864502,-1.0437622,0.05444336
1725815909905,2024-09-08T17:18:29.905Z,335629,-0.072387695,-1.0675659,0.03894043
1725815909950,2024-09-08T17:18:29.950Z,335674,-0.08502197,-1.0502319,0.014343262
1725815909994,2024-09-08T17:18:29.994Z,335718,-0.081848145,-1.0515137,0.012634277
1725815910039,2024-09-08T17:18:30.039Z,335763,-0.109802246,-1.0657349,0.007080078
1725815910088,2024-09-08T17:18:30.088Z,335812,-0.10845947,-1.0788574,4.272461E-4
1725815910132,2024-09-08T17:18:30.132Z,335856,-0.11248779,-1.0994873,0.0010375977
1725815910156,2024-09-08T17:18:30.156Z,335880,-0.09851074,-1.0900879,-0.019470215
1725815910176,2024-09-08T17:18:30.176Z,335900,-0.08880615,-1.0838013,-0.00970459
1725815910221,2024-09-08T17:18:30.221Z,335945,-0.092163086,-1.0462646,-0.042663574
1725815910264,2024-09-08T17:18:30.264Z,335988,-0.08538818,-1.0084839,-0.05419922
1725815910308,2024-09-08T17:18:30.308Z,336032,-0.115112305,-1.00177,-0.064086914
1725815910355,2024-09-08T17:18:30.355Z,336079,-0.100097656,-1.0054932,-0.06201172
1725815910409,2024-09-08T17:18:30.409Z,336133,-0.1270752,-1.0276489,-0.042541504
1725815910442,2024-09-08T17:18:30.442Z,336166,-0.107543945,-1.0239868,-0.071777344
1725815910490,2024-09-08T17:18:30.490Z,336214,-0.12060547,-1.0421753,-0.05810547
1725815910534,2024-09-08T17:18:30.534Z,336258,-0.117248535,-1.0126953,-0.061279297
1725815910559,2024-09-08T17:18:30.559Z,336283,-0.09484863,-0.9768677,-0.08618164
1725815910583,2024-09-08T17:18:30.583Z,336307,-0.100097656,-0.95684814,-0.09118652
1725815910623,2024-09-08T17:18:30.623Z,336347,-0.12109375,-0.91290283,-0.087402344
1725815910668,2024-09-08T17:18:30.668Z,336392,-0.11260986,-0.8671875,-0.09686279
1725815910714,2024-09-08T17:18:30.714Z,336438,-0.13098145,-0.82702637,-0.10498047
1725815910760,2024-09-08T17:18:30.760Z,336484,-0.12451172,-0.8591919,-0.117614746
1725815910803,2024-09-08T17:18:30.803Z,336527,-0.15203857,-0.9067383,-0.14569092
1725815910849,2024-09-08T17:18:30.849Z,336573,-0.13427734,-0.9451294,-0.11993408
1725815910894,2024-09-08T17:18:30.894Z,336618,-0.13922119,-0.914978,-0.12530518
1725815910939,2024-09-08T17:18:30.939Z,336663,-0.14434814,-0.86712646,-0.07977295
1725815910984,2024-09-08T17:18:30.984Z,336708,-0.10864258,-0.8372803,-0.13024902
1725815911008,2024-09-08T17:18:31.008Z,336732,-0.1583252,-0.84039307,-0.06707764
1725815911030,2024-09-08T17:18:31.030Z,336754,-0.15264893,-0.81726074,-0.08355713
1725815911073,2024-09-08T17:18:31.073Z,336797,-0.17346191,-0.8543091,-0.076171875
1725815911119,2024-09-08T17:18:31.119Z,336843,-0.22106934,-0.9229126,-0.082214355
1725815911162,2024-09-08T17:18:31.162Z,336886,-0.25286865,-0.9812012,-0.14385986
1725815911208,2024-09-08T17:18:31.208Z,336932,-0.28442383,-1.0216675,-0.1716919
1725815911253,2024-09-08T17:18:31.253Z,336977,-0.26135254,-1.0097656,-0.17718506
1725815911298,2024-09-08T17:18:31.298Z,337022,-0.24414062,-0.876709,-0.16033936
1725815911344,2024-09-08T17:18:31.344Z,337068,-0.21697998,-0.7797241,-0.1427002
1725815911389,2024-09-08T17:18:31.389Z,337113,-0.23083496,-0.82995605,-0.19464111
1725815911410,2024-09-08T17:18:31.410Z,337134,-0.26446533,-0.96032715,-0.16833496
1725815911434,2024-09-08T17:18:31.434Z,337158,-0.43029785,-0.96435547,-0.2769165
1725815911526,2024-09-08T17:18:31.526Z,337250,-0.3371582,-1.0218506,-0.23254395
1725815911548,2024-09-08T17:18:31.548Z,337272,-0.22784424,-0.97576904,-0.171875
1725815911569,2024-09-08T17:18:31.569Z,337293,-0.22021484,-0.9352417,-0.15362549
1725815911660,2024-09-08T17:18:31.660Z,337384,-0.20532227,-0.9385376,-0.16937256
1725815911678,2024-09-08T17:18:31.678Z,337402,-0.19885254,-0.9577637,-0.16564941
1725815911701,2024-09-08T17:18:31.701Z,337425,-0.19274902,-0.9541626,-0.1564331
1725815911796,2024-09-08T17:18:31.796Z,337520,-0.17907715,-0.934021,-0.17120361
1725815911808,2024-09-08T17:18:31.808Z,337532,-0.20159912,-0.96362305,-0.1651001
1725815911818,2024-09-08T17:18:31.818Z,337542,-0.20898438,-1.0001221,-0.18151855
