Timestamp (ms),ISO DateTime,Elapsed Time (ms),Acceleration X,Acceleration Y,Acceleration Z
1735321374368,2024-12-27T17:42:54.368Z,146419,-0.062072754,-0.10498047,0.012145996
1735321374385,2024-12-27T17:42:54.385Z,146436,-0.06451416,-0.105895996,0.013183594
1735321374399,2024-12-27T17:42:54.399Z,146450,-0.06829834,-0.10534668,0.014831543
1735321374414,2024-12-27T17:42:54.414Z,146465,-0.06726074,-0.105163574,0.014709473
1735321374428,2024-12-27T17:42:54.428Z,146479,-0.06555176,-0.10595703,0.014892578
1735321374441,2024-12-27T17:42:54.441Z,146492,-0.065979004,-0.10662842,0.012939453
1735321374452,2024-12-27T17:42:54.452Z,146503,-0.064331055,-0.10760498,0.009643555
1735321374464,2024-12-27T17:42:54.464Z,146515,-0.061340332,-0.109375,0.010437012
1735321374474,2024-12-27T17:42:54.474Z,146525,-0.06311035,-0.108947754,0.012451172
1735321374494,2024-12-27T17:42:54.494Z,146545,-0.06689453,-0.10760498,0.013671875
1735321374590,2024-12-27T17:42:54.590Z,146641,-0.06628418,-0.1083374,0.01373291
1735321374602,2024-12-27T17:42:54.602Z,146653,-0.06677246,-0.107055664,0.015563965
1735321374616,2024-12-27T17:42:54.616Z,146667,-0.06738281,-0.10522461,0.016235352
1735321374630,2024-12-27T17:42:54.630Z,146681,-0.06719971,-0.10626221,0.0138549805
1735321374642,2024-12-27T17:42:54.642Z,146693,-0.06713867,-0.10827637,0.013427734
1735321374654,2024-12-27T17:42:54.654Z,146705,-0.0680542,-0.109802246,0.012207031
1735321374666,2024-12-27T17:42:54.666Z,146717,-0.068115234,-0.11102295,0.008728027
1735321374677,2024-12-27T17:42:54.677Z,146728,-0.061584473,-0.11077881,0.008300781
1735321374687,2024-12-27T17:42:54.687Z,146738,-0.062072754,-0.10870361,0.011962891
1735321374696,2024-12-27T17:42:54.696Z,146747,-0.06945801,-0.10644531,0.015014648
1735321374705,2024-12-27T17:42:54.705Z,146756,-0.0690918,-0.10583496,0.013916016
1735321374720,2024-12-27T17:42:54.720Z,146771,-0.06744385,-0.11755371,0.010314941
1735321374728,2024-12-27T17:42:54.728Z,146779,-0.06964111,-0.11425781,0.0119018555
1735321374738,2024-12-27T17:42:54.738Z,146789,-0.07055664,-0.113098145,0.01361084
1735321374745,2024-12-27T17:42:54.745Z,146796,-0.07324219,-0.11138916,0.016113281
1735321374753,2024-12-27T17:42:54.753Z,146804,-0.074157715,-0.10992432,0.014831543
1735321374766,2024-12-27T17:42:54.766Z,146817,-0.0715332,-0.10974121,0.015686035
1735321374810,2024-12-27T17:42:54.810Z,146861,-0.07244873,-0.10821533,0.0154418945
1735321374821,2024-12-27T17:42:54.821Z,146872,-0.0736084,-0.10644531,0.012207031
1735321374830,2024-12-27T17:42:54.830Z,146881,-0.070495605,-0.10614014,0.006164551
1735321374839,2024-12-27T17:42:54.839Z,146890,-0.064208984,-0.10821533,0.0053710938
1735321374849,2024-12-27T17:42:54.849Z,146900,-0.06536865,-0.107421875,0.008239746
1735321374858,2024-12-27T17:42:54.858Z,146909,-0.06878662,-0.10455322,0.01159668
1735321374863,2024-12-27T17:42:54.863Z,146914,-0.0625,-0.10498047,0.0107421875
1735321374870,2024-12-27T17:42:54.870Z,146921,-0.06286621,-0.10430908,0.012390137
1735321374879,2024-12-27T17:42:54.879Z,146930,-0.06518555,-0.10412598,0.010803223
1735321374886,2024-12-27T17:42:54.886Z,146937,-0.061767578,-0.10546875,0.009155273
1735321374894,2024-12-27T17:42:54.894Z,146945,-0.059387207,-0.10662842,0.012390137
1735321374902,2024-12-27T17:42:54.902Z,146953,-0.06500244,-0.10803223,0.013671875
1735321374906,2024-12-27T17:42:54.906Z,146957,-0.078063965,-0.11602783,0.013916016
1735321374915,2024-12-27T17:42:54.915Z,146966,-0.078063965,-0.11682129,0.010314941
1735321374923,2024-12-27T17:42:54.923Z,146974,-0.07537842,-0.12011719,0.0072021484
1735321374934,2024-12-27T17:42:54.934Z,146985,-0.07733154,-0.12121582,0.0076293945
1735321374942,2024-12-27T17:42:54.942Z,146993,-0.081604004,-0.120666504,0.009887695
1735321374951,2024-12-27T17:42:54.951Z,147002,-0.085876465,-0.121398926,0.011230469
1735321374995,2024-12-27T17:42:54.995Z,147046,-0.08605957,-0.123535156,0.014709473
1735321375004,2024-12-27T17:42:55.004Z,147055,-0.08807373,-0.12408447,0.016296387
1735321375013,2024-12-27T17:42:55.013Z,147064,-0.08880615,-0.12414551,0.012207031
1735321375021,2024-12-27T17:42:55.021Z,147072,-0.079711914,-0.12799072,0.0079956055
1735321375029,2024-12-27T17:42:55.029Z,147080,-0.0793457,-0.1305542,0.008300781
1735321375038,2024-12-27T17:42:55.038Z,147089,-0.08618164,-0.13104248,0.00579834
1735321375047,2024-12-27T17:42:55.047Z,147098,-0.08477783,-0.13214111,0.0045166016
1735321375081,2024-12-27T17:42:55.081Z,147132,-0.08581543,-0.12963867,0.009399414
1735321375088,2024-12-27T17:42:55.088Z,147139,-0.08996582,-0.12609863,0.011169434
1735321375130,2024-12-27T17:42:55.130Z,147181,-0.089904785,-0.12243652,0.0134887695
1735321375140,2024-12-27T17:42:55.140Z,147191,-0.086364746,-0.12194824,0.012451172
1735321375156,2024-12-27T17:42:55.156Z,147207,-0.07940674,-0.12182617,0.0045776367
1735321375176,2024-12-27T17:42:55.176Z,147227,-0.074645996,-0.12597656,0.0017089844
1735321375196,2024-12-27T17:42:55.196Z,147247,-0.07904053,-0.12438965,0.010681152
1735321375221,2024-12-27T17:42:55.221Z,147272,-0.088134766,-0.114746094,0.009521484
1735321375239,2024-12-27T17:42:55.239Z,147290,-0.08258057,-0.113464355,0.0065307617
1735321375255,2024-12-27T17:42:55.255Z,147306,-0.07531738,-0.11621094,0.009094238
1735321375265,2024-12-27T17:42:55.265Z,147316,-0.079833984,-0.11401367,0.012634277
1735321375273,2024-12-27T17:42:55.273Z,147324,-0.08544922,-0.1116333,0.011291504
1735321375277,2024-12-27T17:42:55.277Z,147328,-0.073791504,-0.11480713,0.006652832
1735321375285,2024-12-27T17:42:55.285Z,147336,-0.07824707,-0.11260986,0.0064697266
1735321375288,2024-12-27T17:42:55.288Z,147339,-0.078125,-0.10992432,0.008117676
1735321375296,2024-12-27T17:42:55.296Z,147347,-0.08679199,-0.10821533,0.0060424805
1735321375304,2024-12-27T17:42:55.304Z,147355,-0.084228516,-0.10662842,0.0059814453
1735321375312,2024-12-27T17:42:55.312Z,147363,-0.07879639,-0.10449219,0.0067749023
1735321375321,2024-12-27T17:42:55.321Z,147372,-0.0758667,-0.10491943,3.6621094E-4
1735321375330,2024-12-27T17:42:55.330Z,147381,-0.074645996,-0.10845947,0.003112793
1735321375334,2024-12-27T17:42:55.334Z,147385,-0.07727051,-0.10473633,0.009887695
1735321375343,2024-12-27T17:42:55.343Z,147394,-0.07092285,-0.10455322,0.0064086914
1735321375353,2024-12-27T17:42:55.353Z,147404,-0.07006836,-0.103027344,0.0037841797
1735321375363,2024-12-27T17:42:55.363Z,147414,-0.066345215,-0.10412598,0.0045776367
1735321375372,2024-12-27T17:42:55.372Z,147423,-0.065979004,-0.103271484,0.015014648
1735321375380,2024-12-27T17:42:55.380Z,147431,-0.06964111,-0.097961426,0.020874023
1735321375389,2024-12-27T17:42:55.389Z,147440,-0.06439209,-0.09698486,0.013183594
1735321375396,2024-12-27T17:42:55.396Z,147447,-0.061767578,-0.10058594,0.008056641
1735321375404,2024-12-27T17:42:55.404Z,147455,-0.07043457,-0.101745605,-0.0024414062
1735321375412,2024-12-27T17:42:55.412Z,147463,-0.062805176,-0.1026001,-0.004272461
1735321375439,2024-12-27T17:42:55.439Z,147490,-0.0569458,-0.10418701,-8.544922E-4
1735321375447,2024-12-27T17:42:55.447Z,147498,-0.06378174,-0.10357666,0.003540039
1735321375454,2024-12-27T17:42:55.454Z,147505,-0.06652832,-0.096069336,0.014282227
1735321375462,2024-12-27T17:42:55.462Z,147513,-0.058044434,-0.087768555,0.020324707
1735321375470,2024-12-27T17:42:55.470Z,147521,-0.04949951,-0.08648682,0.013244629
1735321375479,2024-12-27T17:42:55.479Z,147530,-0.054382324,-0.086364746,0.005065918
1735321375488,2024-12-27T17:42:55.488Z,147539,-0.061279297,-0.08630371,-0.006164551
1735321375496,2024-12-27T17:42:55.496Z,147547,-0.05670166,-0.099487305,-0.010803223
1735321375504,2024-12-27T17:42:55.504Z,147555,-0.052124023,-0.100097656,9.1552734E-4
1735321375512,2024-12-27T17:42:55.512Z,147563,-0.05718994,-0.08856201,0.0063476562
1735321375520,2024-12-27T17:42:55.520Z,147571,-0.05102539,-0.08416748,0.009521484
1735321375575,2024-12-27T17:42:55.575Z,147626,-0.046875,-0.080322266,0.0032958984
1735321375582,2024-12-27T17:42:55.582Z,147633,-0.04119873,-0.0869751,0.0013427734
1735321375589,2024-12-27T17:42:55.589Z,147640,-0.053100586,-0.08734131,-1.2207031E-4
1735321375598,2024-12-27T17:42:55.598Z,147649,-0.05230713,-0.08929443,-0.002746582
1735321375605,2024-12-27T17:42:55.605Z,147656,-0.04260254,-0.093322754,1.2207031E-4
1735321375614,2024-12-27T17:42:55.614Z,147665,-0.0513916,-0.08782959,0.0060424805
1735321375622,2024-12-27T17:42:55.622Z,147673,-0.05645752,-0.08392334,0.008117676
1735321375629,2024-12-27T17:42:55.629Z,147680,-0.04949951,-0.08459473,0.009033203
1735321375637,2024-12-27T17:42:55.637Z,147688,-0.040405273,-0.09075928,0.0024414062
1735321375714,2024-12-27T17:42:55.714Z,147765,-0.038024902,-0.09802246,1.8310547E-4
1735321375722,2024-12-27T17:42:55.722Z,147773,-0.053771973,-0.10131836,-0.0012817383
1735321375729,2024-12-27T17:42:55.729Z,147780,-0.057373047,-0.103515625,-0.0028076172
1735321375733,2024-12-27T17:42:55.733Z,147784,-0.042114258,-0.1015625,-0.0064086914
1735321375742,2024-12-27T17:42:55.742Z,147793,-0.041809082,-0.10473633,0.0028686523
1735321375749,2024-12-27T17:42:55.749Z,147800,-0.05078125,-0.09954834,0.0051879883
1735321375758,2024-12-27T17:42:55.758Z,147809,-0.050842285,-0.099853516,0.0026855469
1735321375765,2024-12-27T17:42:55.765Z,147816,-0.049560547,-0.100097656,-0.0025634766
1735321375772,2024-12-27T17:42:55.772Z,147823,-0.0501709,-0.10168457,-0.0072021484
1735321375779,2024-12-27T17:42:55.779Z,147830,-0.051696777,-0.103759766,-8.544922E-4
1735321375787,2024-12-27T17:42:55.787Z,147838,-0.050964355,-0.1048584,-0.0021972656
1735321375845,2024-12-27T17:42:55.845Z,147896,-0.047424316,-0.105895996,0.0
1735321375848,2024-12-27T17:42:55.848Z,147899,-0.029907227,-0.11230469,-0.009460449
1735321375856,2024-12-27T17:42:55.856Z,147907,-0.045654297,-0.10662842,-0.0065307617
1735321375863,2024-12-27T17:42:55.863Z,147914,-0.040527344,-0.11035156,-0.00390625
1735321375871,2024-12-27T17:42:55.871Z,147922,-0.040405273,-0.10168457,-0.001953125
1735321375878,2024-12-27T17:42:55.878Z,147929,-0.04852295,-0.099853516,-0.0087890625
1735321375892,2024-12-27T17:42:55.892Z,147943,-0.034423828,-0.11199951,-0.005065918
1735321375900,2024-12-27T17:42:55.900Z,147951,-0.037719727,-0.11053467,-0.003479004
1735321375909,2024-12-27T17:42:55.909Z,147960,-0.046936035,-0.111206055,-0.012878418
1735321375917,2024-12-27T17:42:55.917Z,147968,-0.037963867,-0.117248535,-0.008361816
1735321375927,2024-12-27T17:42:55.927Z,147978,-0.04144287,-0.11395264,-0.008666992
1735321375936,2024-12-27T17:42:55.936Z,147987,-0.03955078,-0.11584473,-0.0073242188
1735321375944,2024-12-27T17:42:55.944Z,147995,-0.032409668,-0.11602783,-0.0036621094
1735321375953,2024-12-27T17:42:55.953Z,148004,-0.03466797,-0.11791992,-0.008728027
1735321375960,2024-12-27T17:42:55.960Z,148011,-0.044677734,-0.11651611,-0.012817383
1735321375969,2024-12-27T17:42:55.969Z,148020,-0.035095215,-0.11407471,-0.010986328
1735321375978,2024-12-27T17:42:55.978Z,148029,-0.031555176,-0.11126709,-0.010070801
1735321375985,2024-12-27T17:42:55.985Z,148036,-0.031555176,-0.11395264,-0.007873535
1735321375992,2024-12-27T17:42:55.992Z,148043,-0.02923584,-0.117126465,-0.0025024414
1735321375999,2024-12-27T17:42:55.999Z,148050,-0.026855469,-0.11395264,0.001159668
1735321376007,2024-12-27T17:42:56.007Z,148058,-0.03173828,-0.11022949,-4.272461E-4
1735321376016,2024-12-27T17:42:56.016Z,148067,-0.03869629,-0.10821533,-0.007080078
1735321376024,2024-12-27T17:42:56.024Z,148075,-0.026062012,-0.10992432,-0.00579834
1735321376031,2024-12-27T17:42:56.031Z,148082,-0.02178955,-0.11340332,-0.006225586
1735321376039,2024-12-27T17:42:56.039Z,148090,-0.032104492,-0.11004639,-0.010375977
1735321376048,2024-12-27T17:42:56.048Z,148099,-0.026062012,-0.10772705,-0.004211426
1735321376056,2024-12-27T17:42:56.056Z,148107,-0.023254395,-0.1081543,-4.8828125E-4
1735321376064,2024-12-27T17:42:56.064Z,148115,-0.036315918,-0.10687256,-0.0031738281
1735321376074,2024-12-27T17:42:56.074Z,148125,-0.032287598,-0.107666016,-0.0043945312
1735321376082,2024-12-27T17:42:56.082Z,148133,-0.028259277,-0.10864258,-0.003540039
1735321376089,2024-12-27T17:42:56.089Z,148140,-0.027282715,-0.111694336,-0.0010375977
1735321376096,2024-12-27T17:42:56.096Z,148147,-0.02142334,-0.11218262,-0.0032958984
1735321376103,2024-12-27T17:42:56.103Z,148154,-0.024963379,-0.11016846,-0.007385254
1735321376111,2024-12-27T17:42:56.111Z,148162,-0.03161621,-0.11315918,-0.006164551
1735321376168,2024-12-27T17:42:56.168Z,148219,-0.028320312,-0.118896484,-0.0026855469
1735321376176,2024-12-27T17:42:56.176Z,148227,-0.032287598,-0.11767578,0.009033203
1735321376184,2024-12-27T17:42:56.184Z,148235,-0.059509277,-0.11450195,0.008056641
1735321376193,2024-12-27T17:42:56.193Z,148244,-0.03112793,-0.12628174,-0.0031738281
1735321376201,2024-12-27T17:42:56.201Z,148252,-0.033996582,-0.120788574,0.0024414062
1735321376210,2024-12-27T17:42:56.210Z,148261,-0.034973145,-0.12011719,-0.002319336
1735321376220,2024-12-27T17:42:56.220Z,148271,-0.022460938,-0.120788574,-0.0016479492
1735321376229,2024-12-27T17:42:56.229Z,148280,-0.02557373,-0.12133789,-0.001159668
1735321376237,2024-12-27T17:42:56.237Z,148288,-0.030456543,-0.11871338,-9.765625E-4
1735321376247,2024-12-27T17:42:56.247Z,148298,-0.03100586,-0.11456299,-5.493164E-4
1735321376256,2024-12-27T17:42:56.256Z,148307,-0.027770996,-0.113342285,-0.0025634766
1735321376263,2024-12-27T17:42:56.263Z,148314,-0.019592285,-0.117004395,-0.0018310547
1735321376274,2024-12-27T17:42:56.274Z,148325,-0.01928711,-0.12158203,9.765625E-4
1735321376283,2024-12-27T17:42:56.283Z,148334,-0.028808594,-0.119384766,7.9345703E-4
1735321376295,2024-12-27T17:42:56.295Z,148346,-0.030639648,-0.116882324,6.713867E-4
1735321376303,2024-12-27T17:42:56.303Z,148354,-0.030639648,-0.11767578,-9.765625E-4
1735321376310,2024-12-27T17:42:56.310Z,148361,-0.028198242,-0.12036133,0.0021362305
1735321376318,2024-12-27T17:42:56.318Z,148369,-0.025512695,-0.11834717,0.0024414062
1735321376328,2024-12-27T17:42:56.328Z,148379,-0.02368164,-0.11566162,0.0020751953
1735321376337,2024-12-27T17:42:56.337Z,148388,-0.01965332,-0.115356445,0.0020141602
1735321376345,2024-12-27T17:42:56.345Z,148396,-0.029052734,-0.11450195,-0.0033569336
1735321376354,2024-12-27T17:42:56.354Z,148405,-0.026733398,-0.11767578,-0.0044555664
1735321376364,2024-12-27T17:42:56.364Z,148415,-0.017456055,-0.12030029,-0.0028686523
1735321376372,2024-12-27T17:42:56.372Z,148423,-0.031066895,-0.119018555,-0.0033569336
1735321376385,2024-12-27T17:42:56.385Z,148436,-0.031066895,-0.119384766,0.0032958984
1735321376393,2024-12-27T17:42:56.393Z,148444,-0.02545166,-0.11651611,0.0076293945
1735321376401,2024-12-27T17:42:56.401Z,148452,-0.03186035,-0.1116333,0.004760742
1735321376410,2024-12-27T17:42:56.410Z,148461,-0.027160645,-0.11126709,0.00390625
1735321376419,2024-12-27T17:42:56.419Z,148470,-0.022949219,-0.11395264,0.003479004
1735321376428,2024-12-27T17:42:56.428Z,148479,-0.029968262,-0.115356445,-6.713867E-4
1735321376441,2024-12-27T17:42:56.441Z,148492,-0.026977539,-0.11553955,-0.0013427734
1735321376449,2024-12-27T17:42:56.449Z,148500,-0.022888184,-0.11138916,0.0
1735321376458,2024-12-27T17:42:56.458Z,148509,-0.028076172,-0.10687256,0.004699707
1735321376466,2024-12-27T17:42:56.466Z,148517,-0.031066895,-0.1038208,0.006164551
1735321376474,2024-12-27T17:42:56.474Z,148525,-0.028930664,-0.10229492,0.0072021484
1735321376481,2024-12-27T17:42:56.481Z,148532,-0.030395508,-0.103759766,0.004760742
1735321376489,2024-12-27T17:42:56.489Z,148540,-0.032836914,-0.107788086,4.272461E-4
1735321376499,2024-12-27T17:42:56.499Z,148550,-0.0289917,-0.109375,-5.493164E-4
1735321376507,2024-12-27T17:42:56.507Z,148558,-0.024902344,-0.10632324,0.0020751953
1735321376516,2024-12-27T17:42:56.516Z,148567,-0.025024414,-0.10650635,0.007507324
1735321376523,2024-12-27T17:42:56.523Z,148574,-0.037231445,-0.10089111,0.0064086914
1735321376530,2024-12-27T17:42:56.530Z,148581,-0.045959473,-0.095581055,7.324219E-4
1735321376537,2024-12-27T17:42:56.537Z,148588,-0.024597168,-0.11224365,0.0014648438
1735321376546,2024-12-27T17:42:56.546Z,148597,-0.021057129,-0.11987305,0.004638672
1735321376554,2024-12-27T17:42:56.554Z,148605,-0.037902832,-0.111816406,0.0076293945
1735321376564,2024-12-27T17:42:56.564Z,148615,-0.037353516,-0.10784912,0.0060424805
1735321376573,2024-12-27T17:42:56.573Z,148624,-0.035217285,-0.1060791,0.0045776367
1735321376581,2024-12-27T17:42:56.581Z,148632,-0.04425049,-0.105651855,-0.0020751953
1735321376589,2024-12-27T17:42:56.589Z,148640,-0.03149414,-0.11694336,-6.713867E-4
1735321376610,2024-12-27T17:42:56.610Z,148661,-0.028442383,-0.12060547,0.0029296875
1735321376619,2024-12-27T17:42:56.619Z,148670,-0.04095459,-0.117248535,0.0024414062
1735321376627,2024-12-27T17:42:56.627Z,148678,-0.035339355,-0.11853027,0.0032348633
1735321376636,2024-12-27T17:42:56.636Z,148687,-0.040527344,-0.11254883,0.0061035156
1735321376654,2024-12-27T17:42:56.654Z,148705,-0.04675293,-0.10888672,0.00390625
1735321376662,2024-12-27T17:42:56.662Z,148713,-0.03112793,-0.117126465,0.0016479492
1735321376671,2024-12-27T17:42:56.671Z,148722,-0.0413208,-0.11584473,-0.001953125
1735321376679,2024-12-27T17:42:56.679Z,148730,-0.04510498,-0.12390137,-0.0014648438
1735321376687,2024-12-27T17:42:56.687Z,148738,-0.039733887,-0.11895752,0.005493164
1735321376700,2024-12-27T17:42:56.700Z,148751,-0.041870117,-0.10888672,0.0068969727
1735321376709,2024-12-27T17:42:56.709Z,148760,-0.04156494,-0.10687256,1.8310547E-4
1735321376717,2024-12-27T17:42:56.717Z,148768,-0.051940918,-0.101379395,-0.0067749023
1735321376725,2024-12-27T17:42:56.725Z,148776,-0.041137695,-0.11456299,-0.0032348633
1735321376744,2024-12-27T17:42:56.744Z,148795,-0.03302002,-0.12225342,0.0056762695
1735321376753,2024-12-27T17:42:56.753Z,148804,-0.057922363,-0.10998535,0.0026855469
1735321376760,2024-12-27T17:42:56.760Z,148811,-0.057006836,-0.11053467,0.0029296875
1735321376768,2024-12-27T17:42:56.768Z,148819,-0.04168701,-0.10559082,0.006286621
1735321376776,2024-12-27T17:42:56.776Z,148827,-0.049194336,-0.099487305,-0.0048217773
1735321376789,2024-12-27T17:42:56.789Z,148840,-0.04107666,-0.11273193,-0.0016479492
1735321376798,2024-12-27T17:42:56.798Z,148849,-0.041137695,-0.11077881,0.0071411133
1735321376805,2024-12-27T17:42:56.805Z,148856,-0.055664062,-0.1081543,0.0015869141
1735321376812,2024-12-27T17:42:56.812Z,148863,-0.055236816,-0.109558105,-0.0051879883
1735321376835,2024-12-27T17:42:56.835Z,148886,-0.049560547,-0.107299805,0.0065307617
1735321376843,2024-12-27T17:42:56.843Z,148894,-0.059020996,-0.10290527,0.004333496
1735321376850,2024-12-27T17:42:56.850Z,148901,-0.06347656,-0.10144043,-0.0026855469
1735321376858,2024-12-27T17:42:56.858Z,148909,-0.050842285,-0.10467529,-0.0036010742
1735321376868,2024-12-27T17:42:56.868Z,148919,-0.04937744,-0.1081543,-0.0018920898
1735321376879,2024-12-27T17:42:56.879Z,148930,-0.05432129,-0.10839844,-0.0013427734
1735321376885,2024-12-27T17:42:56.885Z,148936,-0.06378174,-0.105041504,-0.0045776367
1735321376893,2024-12-27T17:42:56.893Z,148944,-0.058410645,-0.10461426,-0.0018310547
1735321376901,2024-12-27T17:42:56.901Z,148952,-0.061523438,-0.097961426,-0.0036010742
1735321376927,2024-12-27T17:42:56.927Z,148978,-0.062194824,-0.103759766,-1.8310547E-4
1735321376935,2024-12-27T17:42:56.935Z,148986,-0.057434082,-0.106933594,0.005554199
1735321376943,2024-12-27T17:42:56.943Z,148994,-0.05883789,-0.10095215,0.0016479492
1735321376949,2024-12-27T17:42:56.949Z,149000,-0.059265137,-0.10040283,-0.0071411133
1735321376971,2024-12-27T17:42:56.971Z,149022,-0.055603027,-0.10559082,-0.006286621
1735321376977,2024-12-27T17:42:56.977Z,149028,-0.0635376,-0.10699463,-0.0014648438
1735321376984,2024-12-27T17:42:56.984Z,149035,-0.07159424,-0.097961426,-2.4414062E-4
1735321376992,2024-12-27T17:42:56.992Z,149043,-0.062561035,-0.097229004,0.0010986328
1735321377001,2024-12-27T17:42:57.001Z,149052,-0.061279297,-0.098083496,6.1035156E-4
1735321377014,2024-12-27T17:42:57.014Z,149065,-0.06719971,-0.09552002,-0.004333496
1735321377023,2024-12-27T17:42:57.023Z,149074,-0.064086914,-0.09857178,-0.010681152
1735321377031,2024-12-27T17:42:57.031Z,149082,-0.05987549,-0.10559082,-0.011779785
1735321377038,2024-12-27T17:42:57.038Z,149089,-0.068481445,-0.10498047,-0.0057373047
1735321377059,2024-12-27T17:42:57.059Z,149110,-0.074523926,-0.10253906,-0.003112793
1735321377068,2024-12-27T17:42:57.068Z,149119,-0.07434082,-0.10211182,0.001953125
1735321377076,2024-12-27T17:42:57.076Z,149127,-0.08178711,-0.09637451,0.0020141602
1735321377083,2024-12-27T17:42:57.083Z,149134,-0.078430176,-0.09844971,-3.6621094E-4
1735321377110,2024-12-27T17:42:57.110Z,149161,-0.06896973,-0.09991455,-0.0030517578
1735321377117,2024-12-27T17:42:57.117Z,149168,-0.06402588,-0.1026001,-0.012512207
1735321377123,2024-12-27T17:42:57.123Z,149174,-0.061767578,-0.109191895,-0.013305664
1735321377130,2024-12-27T17:42:57.130Z,149181,-0.070251465,-0.10491943,-0.006958008
1735321377137,2024-12-27T17:42:57.137Z,149188,-0.07757568,-0.097229004,9.1552734E-4
1735321377149,2024-12-27T17:42:57.149Z,149200,-0.076416016,-0.094055176,0.0053100586
1735321377157,2024-12-27T17:42:57.157Z,149208,-0.07873535,-0.09387207,0.005004883
1735321377164,2024-12-27T17:42:57.164Z,149215,-0.07873535,-0.096191406,0.0041503906
1735321377172,2024-12-27T17:42:57.172Z,149223,-0.07446289,-0.096069336,0.0025634766
1735321377180,2024-12-27T17:42:57.180Z,149231,-0.06744385,-0.101135254,-0.0014648438
1735321377193,2024-12-27T17:42:57.193Z,149244,-0.06933594,-0.10168457,-0.007385254
1735321377201,2024-12-27T17:42:57.201Z,149252,-0.07312012,-0.099487305,-0.0033569336
1735321377245,2024-12-27T17:42:57.245Z,149296,-0.07080078,-0.09863281,0.0034179688
1735321377253,2024-12-27T17:42:57.253Z,149304,-0.073913574,-0.093444824,0.0064697266
1735321377261,2024-12-27T17:42:57.261Z,149312,-0.07611084,-0.091552734,0.006164551
1735321377269,2024-12-27T17:42:57.269Z,149320,-0.08111572,-0.09289551,-0.0018920898
1735321377277,2024-12-27T17:42:57.277Z,149328,-0.0657959,-0.1003418,-0.004333496
1735321377285,2024-12-27T17:42:57.285Z,149336,-0.06359863,-0.09991455,-0.002746582
1735321377292,2024-12-27T17:42:57.292Z,149343,-0.077697754,-0.097229004,-0.0036010742
1735321377298,2024-12-27T17:42:57.298Z,149349,-0.07196045,-0.10180664,-6.1035156E-4
1735321377305,2024-12-27T17:42:57.305Z,149356,-0.07385254,-0.096191406,0.007019043
1735321377311,2024-12-27T17:42:57.311Z,149362,-0.08642578,-0.091552734,0.007446289
1735321377317,2024-12-27T17:42:57.317Z,149368,-0.076538086,-0.09838867,0.0016479492
1735321377331,2024-12-27T17:42:57.331Z,149382,-0.070007324,-0.10205078,-7.324219E-4
1735321377377,2024-12-27T17:42:57.377Z,149428,-0.07208252,-0.10205078,1.8310547E-4
1735321377384,2024-12-27T17:42:57.384Z,149435,-0.068725586,-0.101257324,0.0016479492
1735321377392,2024-12-27T17:42:57.392Z,149443,-0.07348633,-0.103759766,0.0017700195
1735321377398,2024-12-27T17:42:57.398Z,149449,-0.07208252,-0.10736084,0.0024414062
1735321377405,2024-12-27T17:42:57.405Z,149456,-0.072265625,-0.10681152,0.003479004
1735321377419,2024-12-27T17:42:57.419Z,149470,-0.08026123,-0.10546875,0.010009766
1735321377427,2024-12-27T17:42:57.427Z,149478,-0.08514404,-0.101989746,0.008178711
1735321377433,2024-12-27T17:42:57.433Z,149484,-0.072753906,-0.10559082,0.0029296875
1735321377440,2024-12-27T17:42:57.440Z,149491,-0.072753906,-0.11029053,0.0022583008
1735321377448,2024-12-27T17:42:57.448Z,149499,-0.079833984,-0.10974121,0.0015258789
1735321377467,2024-12-27T17:42:57.467Z,149518,-0.062194824,-0.11126709,-0.006652832
1735321377474,2024-12-27T17:42:57.474Z,149525,-0.06274414,-0.11407471,-0.0015869141
1735321377481,2024-12-27T17:42:57.481Z,149532,-0.08465576,-0.10699463,0.0026245117
1735321377487,2024-12-27T17:42:57.487Z,149538,-0.08190918,-0.10406494,0.00390625
1735321377493,2024-12-27T17:42:57.493Z,149544,-0.07324219,-0.103881836,0.0079956055
1735321377508,2024-12-27T17:42:57.508Z,149559,-0.07757568,-0.103515625,0.00390625
1735321377516,2024-12-27T17:42:57.516Z,149567,-0.0715332,-0.10455322,-4.272461E-4
1735321377523,2024-12-27T17:42:57.523Z,149574,-0.068725586,-0.10461426,-0.0073242188
1735321377530,2024-12-27T17:42:57.530Z,149581,-0.0713501,-0.109313965,-0.009277344
1735321377537,2024-12-27T17:42:57.537Z,149588,-0.06781006,-0.107421875,-0.0043945312
1735321377543,2024-12-27T17:42:57.543Z,149594,-0.075805664,-0.09967041,3.6621094E-4
1735321377559,2024-12-27T17:42:57.559Z,149610,-0.076293945,-0.10015869,0.0037841797
1735321377566,2024-12-27T17:42:57.566Z,149617,-0.07525635,-0.10040283,4.272461E-4
1735321377573,2024-12-27T17:42:57.573Z,149624,-0.07476807,-0.10144043,-2.4414062E-4
1735321377580,2024-12-27T17:42:57.580Z,149631,-0.07122803,-0.10430908,-0.004211426
1735321377588,2024-12-27T17:42:57.588Z,149639,-0.068725586,-0.105529785,-0.010131836
1735321377598,2024-12-27T17:42:57.598Z,149649,-0.06665039,-0.10803223,-0.008056641
1735321377605,2024-12-27T17:42:57.605Z,149656,-0.07373047,-0.10455322,-2.4414062E-4
1735321377696,2024-12-27T17:42:57.696Z,149747,-0.076660156,-0.1026001,6.713867E-4
1735321377702,2024-12-27T17:42:57.702Z,149753,-0.06689453,-0.1060791,-7.9345703E-4
1735321377708,2024-12-27T17:42:57.708Z,149759,-0.068115234,-0.105651855,0.002319336
1735321377714,2024-12-27T17:42:57.714Z,149765,-0.07165527,-0.105773926,0.0018310547
1735321377722,2024-12-27T17:42:57.722Z,149773,-0.06732178,-0.10882568,-0.0034179688
1735321377735,2024-12-27T17:42:57.735Z,149786,-0.06530762,-0.109436035,-0.007385254
1735321377742,2024-12-27T17:42:57.742Z,149793,-0.06317139,-0.111083984,-0.005493164
1735321377750,2024-12-27T17:42:57.750Z,149801,-0.06842041,-0.107788086,0.0010986328
1735321377761,2024-12-27T17:42:57.761Z,149812,-0.06762695,-0.10961914,7.324219E-4
1735321377774,2024-12-27T17:42:57.774Z,149825,-0.06109619,-0.11279297,-0.0010986328
1735321377782,2024-12-27T17:42:57.782Z,149833,-0.06591797,-0.10882568,6.1035156E-5
1735321377789,2024-12-27T17:42:57.789Z,149840,-0.06384277,-0.1104126,-4.8828125E-4
1735321377797,2024-12-27T17:42:57.797Z,149848,-0.06463623,-0.11242676,-0.002319336
1735321377831,2024-12-27T17:42:57.831Z,149882,-0.06945801,-0.111206055,-0.0018310547
1735321377838,2024-12-27T17:42:57.838Z,149889,-0.06732178,-0.11065674,-0.0012817383
1735321377845,2024-12-27T17:42:57.845Z,149896,-0.06085205,-0.11077881,0.0018920898
1735321377869,2024-12-27T17:42:57.869Z,149920,-0.06585693,-0.10858154,0.0036621094
1735321377875,2024-12-27T17:42:57.875Z,149926,-0.0657959,-0.10913086,0.0015258789
1735321377882,2024-12-27T17:42:57.882Z,149933,-0.06842041,-0.10748291,6.713867E-4
1735321377888,2024-12-27T17:42:57.888Z,149939,-0.06933594,-0.10809326,3.6621094E-4
1735321377962,2024-12-27T17:42:57.962Z,150013,-0.062927246,-0.11126709,-0.0040283203
1735321377970,2024-12-27T17:42:57.970Z,150021,-0.061645508,-0.11444092,-0.004272461
1735321377978,2024-12-27T17:42:57.978Z,150029,-0.06555176,-0.110839844,2.4414062E-4
1735321377987,2024-12-27T17:42:57.987Z,150038,-0.06628418,-0.10900879,0.0031738281
1735321377996,2024-12-27T17:42:57.996Z,150047,-0.06097412,-0.11035156,0.0036621094
1735321378005,2024-12-27T17:42:58.005Z,150056,-0.05407715,-0.11035156,0.004211426
1735321378056,2024-12-27T17:42:58.056Z,150107,-0.058166504,-0.11035156,0.0028076172
1735321378065,2024-12-27T17:42:58.065Z,150116,-0.0592041,-0.10986328,0.0022583008
1735321378070,2024-12-27T17:42:58.070Z,150121,-0.053710938,-0.11053467,0.0038452148
1735321378079,2024-12-27T17:42:58.079Z,150130,-0.051940918,-0.10870361,0.0040893555
1735321378088,2024-12-27T17:42:58.088Z,150139,-0.051818848,-0.107788086,0.009033203
1735321378096,2024-12-27T17:42:58.096Z,150147,-0.052856445,-0.1081543,0.009521484
1735321378104,2024-12-27T17:42:58.104Z,150155,-0.059326172,-0.10180664,0.010498047
1735321378112,2024-12-27T17:42:58.112Z,150163,-0.056762695,-0.10650635,0.009216309
1735321378119,2024-12-27T17:42:58.119Z,150170,-0.05291748,-0.1104126,0.0064697266
1735321378126,2024-12-27T17:42:58.126Z,150177,-0.059814453,-0.11553955,0.0018310547
1735321378133,2024-12-27T17:42:58.133Z,150184,-0.066467285,-0.11657715,0.0017089844
1735321378141,2024-12-27T17:42:58.141Z,150192,-0.062316895,-0.11553955,0.0032958984
1735321378144,2024-12-27T17:42:58.144Z,150195,-0.060058594,-0.11651611,0.012207031
1735321378150,2024-12-27T17:42:58.150Z,150201,-0.06237793,-0.11431885,0.014587402
1735321378157,2024-12-27T17:42:58.157Z,150208,-0.0625,-0.11633301,0.008850098
1735321378164,2024-12-27T17:42:58.164Z,150215,-0.059020996,-0.119018555,0.0068969727
1735321378171,2024-12-27T17:42:58.171Z,150222,-0.0592041,-0.11907959,0.007751465
1735321378184,2024-12-27T17:42:58.184Z,150235,-0.05834961,-0.11871338,0.011413574
1735321378235,2024-12-27T17:42:58.235Z,150286,-0.059448242,-0.11773682,0.011962891
1735321378244,2024-12-27T17:42:58.244Z,150295,-0.06262207,-0.11895752,0.008178711
1735321378253,2024-12-27T17:42:58.253Z,150304,-0.059020996,-0.12005615,0.0087890625
1735321378262,2024-12-27T17:42:58.262Z,150313,-0.060424805,-0.11767578,0.01171875
1735321378270,2024-12-27T17:42:58.270Z,150321,-0.06964111,-0.117614746,0.009094238
1735321378278,2024-12-27T17:42:58.278Z,150329,-0.062683105,-0.11987305,0.008972168
1735321378285,2024-12-27T17:42:58.285Z,150336,-0.053955078,-0.120666504,0.008422852
1735321378292,2024-12-27T17:42:58.292Z,150343,-0.054260254,-0.1217041,0.008178711
1735321378298,2024-12-27T17:42:58.298Z,150349,-0.057128906,-0.12109375,0.009033203
1735321378305,2024-12-27T17:42:58.305Z,150356,-0.060424805,-0.119628906,0.009765625
1735321378312,2024-12-27T17:42:58.312Z,150363,-0.06286621,-0.12036133,0.008361816
1735321378323,2024-12-27T17:42:58.323Z,150374,-0.05529785,-0.11633301,0.008178711
1735321378365,2024-12-27T17:42:58.365Z,150416,-0.053649902,-0.11291504,0.0095825195
1735321378372,2024-12-27T17:42:58.372Z,150423,-0.05078125,-0.11517334,0.009216309
1735321378379,2024-12-27T17:42:58.379Z,150430,-0.053771973,-0.11553955,0.008483887
1735321378386,2024-12-27T17:42:58.386Z,150437,-0.053833008,-0.11462402,0.009521484
1735321378394,2024-12-27T17:42:58.394Z,150445,-0.04827881,-0.11517334,0.010620117
1735321378409,2024-12-27T17:42:58.409Z,150460,-0.051818848,-0.11553955,0.008850098
1735321378459,2024-12-27T17:42:58.459Z,150510,-0.050720215,-0.115478516,0.0076904297
1735321378468,2024-12-27T17:42:58.468Z,150519,-0.04260254,-0.11669922,0.010803223
1735321378476,2024-12-27T17:42:58.476Z,150527,-0.04498291,-0.117614746,0.012207031
1735321378484,2024-12-27T17:42:58.484Z,150535,-0.04827881,-0.11828613,0.011962891
1735321378496,2024-12-27T17:42:58.496Z,150547,-0.041809082,-0.11859131,0.014770508
1735321378504,2024-12-27T17:42:58.504Z,150555,-0.04260254,-0.119018555,0.013671875
1735321378507,2024-12-27T17:42:58.507Z,150558,-0.046020508,-0.12164307,0.012512207
1735321378514,2024-12-27T17:42:58.514Z,150565,-0.04638672,-0.120788574,0.014221191
1735321378521,2024-12-27T17:42:58.521Z,150572,-0.049865723,-0.12017822,0.013671875
1735321378528,2024-12-27T17:42:58.528Z,150579,-0.046203613,-0.11895752,0.0146484375
1735321378534,2024-12-27T17:42:58.534Z,150585,-0.039489746,-0.11798096,0.016296387
1735321378543,2024-12-27T17:42:58.543Z,150594,-0.03881836,-0.11834717,0.016235352
1735321378546,2024-12-27T17:42:58.546Z,150597,-0.043823242,-0.120666504,0.012634277
1735321378552,2024-12-27T17:42:58.552Z,150603,-0.038391113,-0.119140625,0.014831543
1735321378560,2024-12-27T17:42:58.560Z,150611,-0.038269043,-0.11828613,0.018310547
1735321378566,2024-12-27T17:42:58.566Z,150617,-0.04058838,-0.116882324,0.022277832
1735321378577,2024-12-27T17:42:58.577Z,150628,-0.042053223,-0.11505127,0.024353027
1735321378636,2024-12-27T17:42:58.636Z,150687,-0.04168701,-0.115356445,0.02368164
1735321378644,2024-12-27T17:42:58.644Z,150695,-0.042297363,-0.11621094,0.022216797
1735321378686,2024-12-27T17:42:58.686Z,150737,-0.04486084,-0.11907959,0.019348145
1735321378693,2024-12-27T17:42:58.693Z,150744,-0.041137695,-0.12194824,0.01928711
1735321378700,2024-12-27T17:42:58.700Z,150751,-0.038330078,-0.12231445,0.020690918
1735321378707,2024-12-27T17:42:58.707Z,150758,-0.0423584,-0.12158203,0.022766113
1735321378716,2024-12-27T17:42:58.716Z,150767,-0.044433594,-0.122802734,0.026123047
1735321378732,2024-12-27T17:42:58.732Z,150783,-0.04486084,-0.12133789,0.028015137
1735321378741,2024-12-27T17:42:58.741Z,150792,-0.04486084,-0.11895752,0.02734375
1735321378748,2024-12-27T17:42:58.748Z,150799,-0.04309082,-0.12005615,0.025268555
1735321378755,2024-12-27T17:42:58.755Z,150806,-0.043701172,-0.12182617,0.023254395
1735321378764,2024-12-27T17:42:58.764Z,150815,-0.04498291,-0.12335205,0.018615723
1735321378769,2024-12-27T17:42:58.769Z,150820,-0.045837402,-0.122558594,0.02130127
1735321378776,2024-12-27T17:42:58.776Z,150827,-0.047424316,-0.12145996,0.019470215
1735321378779,2024-12-27T17:42:58.779Z,150830,-0.047607422,-0.12097168,0.022460938
1735321378786,2024-12-27T17:42:58.786Z,150837,-0.049926758,-0.12261963,0.019714355
1735321378793,2024-12-27T17:42:58.793Z,150844,-0.055480957,-0.12591553,0.014770508
1735321378799,2024-12-27T17:42:58.799Z,150850,-0.052246094,-0.12835693,0.014465332
1735321378805,2024-12-27T17:42:58.805Z,150856,-0.052856445,-0.12908936,0.015808105
1735321378865,2024-12-27T17:42:58.865Z,150916,-0.05718994,-0.13098145,0.015625
1735321378871,2024-12-27T17:42:58.871Z,150922,-0.05493164,-0.13537598,0.017150879
1735321378877,2024-12-27T17:42:58.877Z,150928,-0.058654785,-0.1359253,0.021728516
1735321378882,2024-12-27T17:42:58.882Z,150933,-0.06652832,-0.1328125,0.022338867
1735321378888,2024-12-27T17:42:58.888Z,150939,-0.06573486,-0.13537598,0.018981934
1735321378905,2024-12-27T17:42:58.905Z,150956,-0.06048584,-0.13989258,0.017578125
1735321378913,2024-12-27T17:42:58.913Z,150964,-0.062316895,-0.13916016,0.016113281
1735321378951,2024-12-27T17:42:58.951Z,151002,-0.062805176,-0.13739014,0.015808105
1735321378959,2024-12-27T17:42:58.959Z,151010,-0.059020996,-0.13574219,0.017822266
1735321378966,2024-12-27T17:42:58.966Z,151017,-0.06109619,-0.13317871,0.019958496
1735321378974,2024-12-27T17:42:58.974Z,151025,-0.06414795,-0.13195801,0.017700195
1735321378981,2024-12-27T17:42:58.981Z,151032,-0.06414795,-0.13690186,0.016906738
1735321378988,2024-12-27T17:42:58.988Z,151039,-0.06274414,-0.1359253,0.017944336
1735321379043,2024-12-27T17:42:59.043Z,151094,-0.05895996,-0.13446045,0.014953613
1735321379052,2024-12-27T17:42:59.052Z,151103,-0.05505371,-0.13653564,0.016052246
1735321379061,2024-12-27T17:42:59.061Z,151112,-0.05987549,-0.13293457,0.019836426
1735321379069,2024-12-27T17:42:59.069Z,151120,-0.058410645,-0.13049316,0.017333984
1735321379079,2024-12-27T17:42:59.079Z,151130,-0.0524292,-0.13220215,0.017028809
1735321379087,2024-12-27T17:42:59.087Z,151138,-0.053466797,-0.13201904,0.016723633
1735321379092,2024-12-27T17:42:59.092Z,151143,-0.055419922,-0.12884521,0.015808105
1735321379100,2024-12-27T17:42:59.100Z,151151,-0.05633545,-0.12567139,0.017028809
1735321379108,2024-12-27T17:42:59.108Z,151159,-0.053833008,-0.12408447,0.017822266
1735321379116,2024-12-27T17:42:59.116Z,151167,-0.053588867,-0.12261963,0.020874023
1735321379122,2024-12-27T17:42:59.122Z,151173,-0.058898926,-0.12176514,0.019958496
1735321379129,2024-12-27T17:42:59.129Z,151180,-0.06011963,-0.12188721,0.021972656
1735321379221,2024-12-27T17:42:59.221Z,151272,-0.058654785,-0.12689209,0.016601562
1735321379229,2024-12-27T17:42:59.229Z,151280,-0.059936523,-0.1237793,0.016723633
1735321379266,2024-12-27T17:42:59.266Z,151317,-0.05291748,-0.1237793,0.02166748
1735321379274,2024-12-27T17:42:59.274Z,151325,-0.058410645,-0.1217041,0.022888184
1735321379283,2024-12-27T17:42:59.283Z,151334,-0.056884766,-0.1204834,0.021362305
1735321379291,2024-12-27T17:42:59.291Z,151342,-0.060546875,-0.12133789,0.018371582
1735321379300,2024-12-27T17:42:59.300Z,151351,-0.054992676,-0.12133789,0.016723633
1735321379309,2024-12-27T17:42:59.309Z,151360,-0.047058105,-0.12384033,0.013671875
1735321379317,2024-12-27T17:42:59.317Z,151368,-0.049987793,-0.122924805,0.0178833
1735321379325,2024-12-27T17:42:59.325Z,151376,-0.053527832,-0.118896484,0.018676758
1735321379332,2024-12-27T17:42:59.332Z,151383,-0.051330566,-0.11639404,0.017944336
1735321379339,2024-12-27T17:42:59.339Z,151390,-0.048828125,-0.11657715,0.020446777
1735321379342,2024-12-27T17:42:59.342Z,151393,-0.0446167,-0.11328125,0.021972656
1735321379349,2024-12-27T17:42:59.349Z,151400,-0.04498291,-0.1116333,0.028259277
1735321379357,2024-12-27T17:42:59.357Z,151408,-0.037902832,-0.117248535,0.016235352
1735321379363,2024-12-27T17:42:59.363Z,151414,-0.04864502,-0.113098145,0.019897461
1735321379371,2024-12-27T17:42:59.371Z,151422,-0.04522705,-0.109191895,0.024963379
1735321379378,2024-12-27T17:42:59.378Z,151429,-0.042297363,-0.107299805,0.026733398
1735321379384,2024-12-27T17:42:59.384Z,151435,-0.047668457,-0.10797119,0.013671875
1735321379399,2024-12-27T17:42:59.399Z,151450,-0.046081543,-0.111450195,0.006591797
1735321379408,2024-12-27T17:42:59.408Z,151459,-0.03894043,-0.10827637,0.01550293
1735321379416,2024-12-27T17:42:59.416Z,151467,-0.041625977,-0.1038208,0.009521484
1735321379429,2024-12-27T17:42:59.429Z,151480,-0.04156494,-0.103271484,0.0067749023
1735321379444,2024-12-27T17:42:59.444Z,151495,-0.03503418,-0.105651855,0.010009766
1735321379450,2024-12-27T17:42:59.450Z,151501,-0.035949707,-0.10571289,0.015075684
1735321379456,2024-12-27T17:42:59.456Z,151507,-0.04119873,-0.10107422,0.012512207
1735321379462,2024-12-27T17:42:59.462Z,151513,-0.04321289,-0.1027832,0.0048217773
1735321379468,2024-12-27T17:42:59.468Z,151519,-0.05255127,-0.10107422,0.0014648438
1735321379473,2024-12-27T17:42:59.473Z,151524,-0.044921875,-0.10083008,-6.1035156E-4
1735321379496,2024-12-27T17:42:59.496Z,151547,-0.03149414,-0.10394287,-7.9345703E-4
1735321379502,2024-12-27T17:42:59.502Z,151553,-0.039733887,-0.10333252,-3.6621094E-4
1735321379509,2024-12-27T17:42:59.509Z,151560,-0.042663574,-0.101867676,-0.001953125
1735321379515,2024-12-27T17:42:59.515Z,151566,-0.037963867,-0.100097656,0.0061035156
1735321379522,2024-12-27T17:42:59.522Z,151573,-0.044006348,-0.099853516,0.009277344
1735321379534,2024-12-27T17:42:59.534Z,151585,-0.056640625,-0.09820557,0.0045166016
1735321379541,2024-12-27T17:42:59.541Z,151592,-0.051818848,-0.09942627,-0.0071411133
1735321379547,2024-12-27T17:42:59.547Z,151598,-0.028869629,-0.106933594,-0.013183594
1735321379553,2024-12-27T17:42:59.553Z,151604,-0.028015137,-0.10467529,0.0012817383
1735321379558,2024-12-27T17:42:59.558Z,151609,-0.051818848,-0.09106445,-4.8828125E-4
1735321379564,2024-12-27T17:42:59.564Z,151615,-0.052001953,-0.08630371,-0.0018310547
1735321379582,2024-12-27T17:42:59.582Z,151633,-0.03930664,-0.08703613,-0.0014038086
1735321379588,2024-12-27T17:42:59.588Z,151639,-0.03765869,-0.09136963,-0.006286621
1735321379594,2024-12-27T17:42:59.594Z,151645,-0.042053223,-0.093566895,-0.0057373047
1735321379600,2024-12-27T17:42:59.600Z,151651,-0.03692627,-0.09448242,-0.0028686523
1735321379606,2024-12-27T17:42:59.606Z,151657,-0.032043457,-0.097473145,-0.001159668
1735321379624,2024-12-27T17:42:59.624Z,151675,-0.04248047,-0.09637451,-0.0029296875
1735321379631,2024-12-27T17:42:59.631Z,151682,-0.047180176,-0.09515381,-0.006958008
1735321379637,2024-12-27T17:42:59.637Z,151688,-0.04815674,-0.099121094,-0.006713867
1735321379652,2024-12-27T17:42:59.652Z,151703,-0.04559326,-0.10394287,-0.0025634766
1735321379671,2024-12-27T17:42:59.671Z,151722,-0.04248047,-0.10681152,-1.8310547E-4
1735321379687,2024-12-27T17:42:59.687Z,151738,-0.038269043,-0.11016846,-0.0025024414
1735321379701,2024-12-27T17:42:59.701Z,151752,-0.024353027,-0.11218262,-0.0020751953
1735321379708,2024-12-27T17:42:59.708Z,151759,-0.036865234,-0.10748291,-0.0021972656
1735321379716,2024-12-27T17:42:59.716Z,151767,-0.046447754,-0.10821533,-0.0037841797
1735321379723,2024-12-27T17:42:59.723Z,151774,-0.04345703,-0.10797119,-0.0014648438
1735321379730,2024-12-27T17:42:59.730Z,151781,-0.03540039,-0.11352539,-0.006958008
1735321379737,2024-12-27T17:42:59.737Z,151788,-0.024169922,-0.12164307,-0.010681152
1735321379744,2024-12-27T17:42:59.744Z,151795,-0.026977539,-0.12030029,-4.272461E-4
1735321379759,2024-12-27T17:42:59.759Z,151810,-0.039916992,-0.11260986,0.0016479492
1735321379766,2024-12-27T17:42:59.766Z,151817,-0.028747559,-0.113464355,-3.6621094E-4
1735321379773,2024-12-27T17:42:59.773Z,151824,-0.030456543,-0.109375,0.0018310547
1735321379780,2024-12-27T17:42:59.780Z,151831,-0.04058838,-0.10858154,0.0010986328
1735321379786,2024-12-27T17:42:59.786Z,151837,-0.030639648,-0.11608887,-0.0076293945
1735321379804,2024-12-27T17:42:59.804Z,151855,-0.02368164,-0.11730957,-0.0056762695
1735321379850,2024-12-27T17:42:59.850Z,151901,-0.023071289,-0.11407471,-0.0032958984
1735321379857,2024-12-27T17:42:59.857Z,151908,-0.026428223,-0.110839844,0.0012207031
1735321379864,2024-12-27T17:42:59.864Z,151915,-0.031677246,-0.10638428,-1.2207031E-4
1735321379871,2024-12-27T17:42:59.871Z,151922,-0.02130127,-0.11065674,-0.002319336
1735321379880,2024-12-27T17:42:59.880Z,151931,-0.02508545,-0.112854004,0.004699707
1735321379888,2024-12-27T17:42:59.888Z,151939,-0.0357666,-0.11224365,0.0028686523
1735321379897,2024-12-27T17:42:59.897Z,151948,-0.028625488,-0.11187744,8.544922E-4
1735321379946,2024-12-27T17:42:59.946Z,151997,-0.017333984,-0.10797119,-3.6621094E-4
1735321379953,2024-12-27T17:42:59.953Z,152004,-0.022277832,-0.10522461,-0.0065307617
1735321379961,2024-12-27T17:42:59.961Z,152012,-0.024780273,-0.10229492,-0.003479004
1735321379969,2024-12-27T17:42:59.969Z,152020,-0.026184082,-0.10040283,3.6621094E-4
1735321379976,2024-12-27T17:42:59.976Z,152027,-0.030334473,-0.10058594,0.0025634766
1735321379984,2024-12-27T17:42:59.984Z,152035,-0.018920898,-0.10650635,0.008361816
1735321379992,2024-12-27T17:42:59.992Z,152043,-0.025878906,-0.10284424,0.00390625
1735321379999,2024-12-27T17:42:59.999Z,152050,-0.025756836,-0.10101318,-0.0014038086
1735321380006,2024-12-27T17:43:00.006Z,152057,-0.024902344,-0.10095215,-0.005432129
1735321380013,2024-12-27T17:43:00.013Z,152064,-0.02508545,-0.10241699,-0.005004883
1735321380018,2024-12-27T17:43:00.018Z,152069,-0.007873535,-0.109558105,4.272461E-4
1735321380032,2024-12-27T17:43:00.032Z,152083,-0.012451172,-0.11254883,0.0020141602
1735321380038,2024-12-27T17:43:00.038Z,152089,-0.02355957,-0.11138916,6.1035156E-5
1735321380046,2024-12-27T17:43:00.046Z,152097,-0.024047852,-0.11260986,-0.001159668
1735321380058,2024-12-27T17:43:00.058Z,152109,-0.023498535,-0.115722656,-0.0024414062
1735321380065,2024-12-27T17:43:00.065Z,152116,-0.024475098,-0.11730957,-0.003112793
1735321380074,2024-12-27T17:43:00.074Z,152125,-0.028137207,-0.123413086,-0.0041503906
1735321380081,2024-12-27T17:43:00.081Z,152132,-0.02734375,-0.12963867,-0.0032958984
1735321380086,2024-12-27T17:43:00.086Z,152137,-0.030334473,-0.12854004,0.001953125
1735321380093,2024-12-27T17:43:00.093Z,152144,-0.030456543,-0.12512207,0.00579834
1735321380099,2024-12-27T17:43:00.099Z,152150,-0.027770996,-0.12158203,0.0048828125
1735321380104,2024-12-27T17:43:00.104Z,152155,-0.027282715,-0.11981201,0.003540039
1735321380121,2024-12-27T17:43:00.121Z,152172,-0.029541016,-0.121276855,-1.8310547E-4
1735321380128,2024-12-27T17:43:00.128Z,152179,-0.025634766,-0.12561035,-0.008117676
1735321380134,2024-12-27T17:43:00.134Z,152185,-0.020507812,-0.12542725,-0.008117676
1735321380140,2024-12-27T17:43:00.140Z,152191,-0.015686035,-0.12487793,-7.324219E-4
1735321380146,2024-12-27T17:43:00.146Z,152197,-0.024230957,-0.11791992,0.0015869141
1735321380163,2024-12-27T17:43:00.163Z,152214,-0.02960205,-0.11212158,0.0028686523
1735321380169,2024-12-27T17:43:00.169Z,152220,-0.02355957,-0.11291504,0.0064697266
1735321380176,2024-12-27T17:43:00.176Z,152227,-0.018188477,-0.11895752,0.008666992
1735321380183,2024-12-27T17:43:00.183Z,152234,-0.022216797,-0.115234375,-0.003967285
1735321380208,2024-12-27T17:43:00.208Z,152259,-0.018066406,-0.113464355,-0.0053100586
1735321380215,2024-12-27T17:43:00.215Z,152266,-0.018127441,-0.111694336,-0.0032958984
1735321380222,2024-12-27T17:43:00.222Z,152273,-0.030273438,-0.107421875,-0.0048828125
1735321380228,2024-12-27T17:43:00.228Z,152279,-0.019165039,-0.109191895,0.0015258789
1735321380234,2024-12-27T17:43:00.234Z,152285,-0.01965332,-0.11395264,0.001953125
1735321380256,2024-12-27T17:43:00.256Z,152307,-0.025634766,-0.11785889,0.005859375
1735321380263,2024-12-27T17:43:00.263Z,152314,-0.024414062,-0.11657715,0.005126953
1735321380269,2024-12-27T17:43:00.269Z,152320,-0.0234375,-0.11834717,0.0
1735321380277,2024-12-27T17:43:00.277Z,152328,-0.026611328,-0.11682129,-0.002319336
1735321380298,2024-12-27T17:43:00.298Z,152349,-0.028686523,-0.11730957,-0.0056152344
1735321380304,2024-12-27T17:43:00.304Z,152355,-0.0178833,-0.12200928,-0.004272461
1735321380312,2024-12-27T17:43:00.312Z,152363,-0.018127441,-0.12365723,-5.493164E-4
1735321380319,2024-12-27T17:43:00.319Z,152370,-0.025146484,-0.12219238,0.0012817383
1735321380325,2024-12-27T17:43:00.325Z,152376,-0.024169922,-0.123046875,0.003112793
1735321380343,2024-12-27T17:43:00.343Z,152394,-0.02709961,-0.12084961,0.0021972656
1735321380351,2024-12-27T17:43:00.351Z,152402,-0.031066895,-0.11804199,-0.0012817383
1735321380358,2024-12-27T17:43:00.358Z,152409,-0.028686523,-0.11816406,-0.0013427734
1735321380365,2024-12-27T17:43:00.365Z,152416,-0.026367188,-0.12011719,-0.0010986328
1735321380389,2024-12-27T17:43:00.389Z,152440,-0.024658203,-0.12188721,5.493164E-4
1735321380395,2024-12-27T17:43:00.395Z,152446,-0.02508545,-0.12145996,0.0036010742
1735321380402,2024-12-27T17:43:00.402Z,152453,-0.024230957,-0.119018555,0.007446289
1735321380409,2024-12-27T17:43:00.409Z,152460,-0.024353027,-0.11431885,0.0056152344
1735321380416,2024-12-27T17:43:00.416Z,152467,-0.02319336,-0.11328125,0.0014038086
1735321380433,2024-12-27T17:43:00.433Z,152484,-0.024230957,-0.11413574,-0.0021362305
1735321380440,2024-12-27T17:43:00.440Z,152491,-0.028198242,-0.11383057,-0.0015258789
1735321380447,2024-12-27T17:43:00.447Z,152498,-0.01953125,-0.11566162,0.0020141602
1735321380454,2024-12-27T17:43:00.454Z,152505,-0.020202637,-0.11248779,-6.1035156E-5
1735321380478,2024-12-27T17:43:00.478Z,152529,-0.021118164,-0.111450195,0.0017089844
1735321380483,2024-12-27T17:43:00.483Z,152534,-0.019104004,-0.10998535,0.00579834
1735321380491,2024-12-27T17:43:00.491Z,152542,-0.02746582,-0.10522461,0.0026245117
1735321380498,2024-12-27T17:43:00.498Z,152549,-0.027282715,-0.105041504,3.0517578E-4
1735321380526,2024-12-27T17:43:00.526Z,152577,-0.020690918,-0.10675049,-3.0517578E-4
1735321380534,2024-12-27T17:43:00.534Z,152585,-0.025817871,-0.10522461,-0.003112793
1735321380542,2024-12-27T17:43:00.542Z,152593,-0.02935791,-0.11077881,-0.0032348633
1735321380550,2024-12-27T17:43:00.550Z,152601,-0.018798828,-0.117492676,0.0037231445
1735321380557,2024-12-27T17:43:00.557Z,152608,-0.02532959,-0.10900879,0.00579834
1735321380568,2024-12-27T17:43:00.568Z,152619,-0.02923584,-0.10266113,0.0015258789
1735321380575,2024-12-27T17:43:00.575Z,152626,-0.022949219,-0.103393555,-0.0033569336
1735321380582,2024-12-27T17:43:00.582Z,152633,-0.031799316,-0.105163574,-0.008544922
1735321380589,2024-12-27T17:43:00.589Z,152640,-0.0234375,-0.11785889,-0.009460449
1735321380614,2024-12-27T17:43:00.614Z,152665,-0.016296387,-0.12506104,-0.0021362305
1735321380620,2024-12-27T17:43:00.620Z,152671,-0.038330078,-0.11566162,0.0029296875
1735321380627,2024-12-27T17:43:00.627Z,152678,-0.04095459,-0.10888672,0.0012207031
1735321380634,2024-12-27T17:43:00.634Z,152685,-0.03277588,-0.10668945,-0.0032958984
1735321380641,2024-12-27T17:43:00.641Z,152692,-0.030395508,-0.111816406,-0.00579834
1735321380659,2024-12-27T17:43:00.659Z,152710,-0.019104004,-0.12207031,-0.0018310547
1735321380666,2024-12-27T17:43:00.666Z,152717,-0.034423828,-0.11621094,-0.0044555664
1735321380672,2024-12-27T17:43:00.672Z,152723,-0.04333496,-0.11444092,-0.007751465
1735321380678,2024-12-27T17:43:00.678Z,152729,-0.039855957,-0.11279297,-0.0065307617
1735321380705,2024-12-27T17:43:00.705Z,152756,-0.025878906,-0.1182251,-0.004272461
1735321380713,2024-12-27T17:43:00.713Z,152764,-0.034973145,-0.1126709,0.0014038086
1735321380726,2024-12-27T17:43:00.726Z,152777,-0.046875,-0.10595703,-8.544922E-4
1735321380734,2024-12-27T17:43:00.734Z,152785,-0.029296875,-0.10986328,-0.0020751953
1735321380740,2024-12-27T17:43:00.740Z,152791,-0.030761719,-0.10681152,-0.0065307617
1735321380748,2024-12-27T17:43:00.748Z,152799,-0.045288086,-0.1038208,-0.013793945
1735321380753,2024-12-27T17:43:00.753Z,152804,-0.028198242,-0.117248535,-0.006164551
1735321380760,2024-12-27T17:43:00.760Z,152811,-0.0368042,-0.114868164,0.003540039
1735321380767,2024-12-27T17:43:00.767Z,152818,-0.05871582,-0.10180664,-0.004211426
1735321380794,2024-12-27T17:43:00.794Z,152845,-0.04156494,-0.10687256,-0.0024414062
1735321380799,2024-12-27T17:43:00.799Z,152850,-0.03503418,-0.105285645,-4.272461E-4
1735321380805,2024-12-27T17:43:00.805Z,152856,-0.046691895,-0.10107422,-0.01171875
1735321380811,2024-12-27T17:43:00.811Z,152862,-0.03778076,-0.10748291,-0.013793945
1735321380840,2024-12-27T17:43:00.840Z,152891,-0.030639648,-0.112854004,-0.0073242188
1735321380890,2024-12-27T17:43:00.890Z,152941,-0.043701172,-0.10748291,-0.0040893555
1735321380898,2024-12-27T17:43:00.898Z,152949,-0.04876709,-0.105529785,-0.006164551
1735321380906,2024-12-27T17:43:00.906Z,152957,-0.050842285,-0.10644531,-0.004211426
1735321380914,2024-12-27T17:43:00.914Z,152965,-0.058044434,-0.1060791,-0.0012817383
1735321380922,2024-12-27T17:43:00.922Z,152973,-0.04547119,-0.10998535,-0.003967285
1735321380931,2024-12-27T17:43:00.931Z,152982,-0.036132812,-0.11138916,-0.004638672
1735321380939,2024-12-27T17:43:00.939Z,152990,-0.0435791,-0.10827637,-0.007019043
1735321380946,2024-12-27T17:43:00.946Z,152997,-0.05114746,-0.105895996,-0.010131836
1735321380953,2024-12-27T17:43:00.953Z,153004,-0.051940918,-0.105773926,-0.009399414
1735321380960,2024-12-27T17:43:00.960Z,153011,-0.05895996,-0.10424805,-0.008850098
1735321380967,2024-12-27T17:43:00.967Z,153018,-0.054870605,-0.10675049,-0.011962891
1735321380978,2024-12-27T17:43:00.978Z,153029,-0.04638672,-0.111328125,-0.010864258
1735321380985,2024-12-27T17:43:00.985Z,153036,-0.04321289,-0.11218262,-0.008300781
1735321380991,2024-12-27T17:43:00.991Z,153042,-0.052978516,-0.1083374,-0.007446289
1735321380998,2024-12-27T17:43:00.998Z,153049,-0.06750488,-0.10522461,-0.008911133
1735321381004,2024-12-27T17:43:01.004Z,153055,-0.05908203,-0.110839844,-0.012268066
1735321381018,2024-12-27T17:43:01.018Z,153069,-0.052978516,-0.11126709,-0.008239746
1735321381025,2024-12-27T17:43:01.025Z,153076,-0.06604004,-0.10699463,-0.008605957
1735321381031,2024-12-27T17:43:01.031Z,153082,-0.0635376,-0.10888672,-0.012329102
1735321381037,2024-12-27T17:43:01.037Z,153088,-0.04699707,-0.107421875,-0.010864258
1735321381043,2024-12-27T17:43:01.043Z,153094,-0.060668945,-0.10144043,-0.009521484
1735321381049,2024-12-27T17:43:01.049Z,153100,-0.06689453,-0.105895996,-0.011169434
1735321381067,2024-12-27T17:43:01.067Z,153118,-0.05029297,-0.11090088,-0.0037231445
1735321381072,2024-12-27T17:43:01.072Z,153123,-0.064819336,-0.10430908,-0.003540039
1735321381079,2024-12-27T17:43:01.079Z,153130,-0.074157715,-0.105407715,-0.009765625
1735321381085,2024-12-27T17:43:01.085Z,153136,-0.060546875,-0.105651855,-0.010437012
1735321381111,2024-12-27T17:43:01.111Z,153162,-0.06011963,-0.10345459,-0.013305664
1735321381117,2024-12-27T17:43:01.117Z,153168,-0.06262207,-0.10668945,-0.010864258
1735321381122,2024-12-27T17:43:01.122Z,153173,-0.06341553,-0.10772705,-0.009033203
1735321381129,2024-12-27T17:43:01.129Z,153180,-0.06072998,-0.107788086,-0.008972168
1735321381154,2024-12-27T17:43:01.154Z,153205,-0.063964844,-0.10620117,-0.0036621094
1735321381161,2024-12-27T17:43:01.161Z,153212,-0.07122803,-0.10498047,-0.0010986328
1735321381167,2024-12-27T17:43:01.167Z,153218,-0.06945801,-0.10308838,-0.008422852
1735321381173,2024-12-27T17:43:01.173Z,153224,-0.05847168,-0.10888672,-0.012634277
1735321381179,2024-12-27T17:43:01.179Z,153230,-0.061584473,-0.109313965,-0.010070801
1735321381199,2024-12-27T17:43:01.199Z,153250,-0.0690918,-0.10852051,-0.010925293
1735321381245,2024-12-27T17:43:01.245Z,153296,-0.06225586,-0.11151123,-0.0037841797
1735321381253,2024-12-27T17:43:01.253Z,153304,-0.066833496,-0.10913086,-1.8310547E-4
1735321381259,2024-12-27T17:43:01.259Z,153310,-0.07470703,-0.1060791,-0.0031738281
1735321381266,2024-12-27T17:43:01.266Z,153317,-0.06628418,-0.10736084,-0.0076904297
1735321381273,2024-12-27T17:43:01.273Z,153324,-0.06427002,-0.109375,-0.0107421875
1735321381280,2024-12-27T17:43:01.280Z,153331,-0.0692749,-0.11248779,-0.009155273
1735321381293,2024-12-27T17:43:01.293Z,153344,-0.06628418,-0.11260986,-0.0024414062
1735321381301,2024-12-27T17:43:01.301Z,153352,-0.072509766,-0.1081543,0.0018310547
1735321381307,2024-12-27T17:43:01.307Z,153358,-0.070739746,-0.109436035,3.0517578E-4
1735321381314,2024-12-27T17:43:01.314Z,153365,-0.064208984,-0.10595703,2.4414062E-4
1735321381320,2024-12-27T17:43:01.320Z,153371,-0.06958008,-0.10308838,-0.0022583008
1735321381333,2024-12-27T17:43:01.333Z,153384,-0.061950684,-0.10858154,-0.0061035156
1735321381338,2024-12-27T17:43:01.338Z,153389,-0.064941406,-0.107910156,-0.005065918
1735321381345,2024-12-27T17:43:01.345Z,153396,-0.07055664,-0.10571289,-0.003112793
1735321381351,2024-12-27T17:43:01.351Z,153402,-0.07196045,-0.10534668,-0.0010375977
1735321381357,2024-12-27T17:43:01.357Z,153408,-0.06878662,-0.107177734,0.0016479492
1735321381364,2024-12-27T17:43:01.364Z,153415,-0.07092285,-0.10772705,-9.765625E-4
1735321381384,2024-12-27T17:43:01.384Z,153435,-0.0703125,-0.11010742,-0.0063476562
1735321381391,2024-12-27T17:43:01.391Z,153442,-0.064086914,-0.11279297,-0.011169434
1735321381398,2024-12-27T17:43:01.398Z,153449,-0.06500244,-0.111816406,-0.012084961
1735321381428,2024-12-27T17:43:01.428Z,153479,-0.07165527,-0.11022949,-0.009460449
1735321381434,2024-12-27T17:43:01.434Z,153485,-0.0692749,-0.10949707,-0.0063476562
1735321381440,2024-12-27T17:43:01.440Z,153491,-0.0690918,-0.1083374,-0.0044555664
1735321381446,2024-12-27T17:43:01.446Z,153497,-0.07458496,-0.10644531,-7.9345703E-4
1735321381452,2024-12-27T17:43:01.452Z,153503,-0.07373047,-0.106933594,-4.272461E-4
1735321381468,2024-12-27T17:43:01.468Z,153519,-0.070617676,-0.10638428,-0.0037841797
1735321381475,2024-12-27T17:43:01.475Z,153526,-0.06451416,-0.109680176,-0.00982666
1735321381481,2024-12-27T17:43:01.481Z,153532,-0.057739258,-0.11437988,-0.010192871
1735321381487,2024-12-27T17:43:01.487Z,153538,-0.06768799,-0.11090088,-0.005554199
1735321381493,2024-12-27T17:43:01.493Z,153544,-0.07086182,-0.10668945,-0.003540039
1735321381515,2024-12-27T17:43:01.515Z,153566,-0.06738281,-0.103759766,-6.1035156E-5
1735321381522,2024-12-27T17:43:01.522Z,153573,-0.06616211,-0.104003906,9.765625E-4
1735321381529,2024-12-27T17:43:01.529Z,153580,-0.07281494,-0.10235596,-0.0017700195
1735321381536,2024-12-27T17:43:01.536Z,153587,-0.072387695,-0.10455322,-2.4414062E-4
1735321381605,2024-12-27T17:43:01.605Z,153656,-0.061950684,-0.10797119,-0.0033569336
1735321381612,2024-12-27T17:43:01.612Z,153663,-0.06036377,-0.11065674,-0.010925293
1735321381618,2024-12-27T17:43:01.618Z,153669,-0.05859375,-0.11004639,-0.008056641
1735321381625,2024-12-27T17:43:01.625Z,153676,-0.07287598,-0.101623535,1.2207031E-4
1735321381631,2024-12-27T17:43:01.631Z,153682,-0.072631836,-0.10095215,3.6621094E-4
1735321381638,2024-12-27T17:43:01.638Z,153689,-0.062072754,-0.10223389,-0.0024414062
1735321381653,2024-12-27T17:43:01.653Z,153704,-0.06530762,-0.10205078,-0.0043945312
1735321381660,2024-12-27T17:43:01.660Z,153711,-0.061035156,-0.10650635,-0.008605957
1735321381667,2024-12-27T17:43:01.667Z,153718,-0.057800293,-0.10784912,-0.010803223
1735321381672,2024-12-27T17:43:01.672Z,153723,-0.06524658,-0.10406494,-0.0056762695
1735321381679,2024-12-27T17:43:01.679Z,153730,-0.07409668,-0.10028076,0.001159668
1735321381695,2024-12-27T17:43:01.695Z,153746,-0.07458496,-0.10046387,-0.0017700195
1735321381701,2024-12-27T17:43:01.701Z,153752,-0.06866455,-0.10449219,-0.0041503906
1735321381706,2024-12-27T17:43:01.706Z,153757,-0.07086182,-0.10461426,-0.0012817383
1735321381713,2024-12-27T17:43:01.713Z,153764,-0.07354736,-0.10284424,-4.8828125E-4
1735321381718,2024-12-27T17:43:01.718Z,153769,-0.06567383,-0.10467529,-0.0015869141
1735321381723,2024-12-27T17:43:01.723Z,153774,-0.061035156,-0.107299805,-4.272461E-4
1735321381740,2024-12-27T17:43:01.740Z,153791,-0.06744385,-0.105163574,-0.0010986328
1735321381746,2024-12-27T17:43:01.746Z,153797,-0.06542969,-0.10510254,0.0015258789
1735321381752,2024-12-27T17:43:01.752Z,153803,-0.0692749,-0.10296631,0.0048217773
1735321381757,2024-12-27T17:43:01.757Z,153808,-0.07324219,-0.101867676,0.009033203
1735321381764,2024-12-27T17:43:01.764Z,153815,-0.064575195,-0.10369873,0.008361816
1735321381829,2024-12-27T17:43:01.829Z,153880,-0.058166504,-0.10650635,0.0031738281
1735321381835,2024-12-27T17:43:01.835Z,153886,-0.06719971,-0.105651855,0.0022583008
1735321381841,2024-12-27T17:43:01.841Z,153892,-0.07122803,-0.10723877,0.0025024414
1735321381846,2024-12-27T17:43:01.846Z,153897,-0.059814453,-0.11004639,0.0014648438
1735321381852,2024-12-27T17:43:01.852Z,153903,-0.06298828,-0.11126709,0.001953125
1735321381857,2024-12-27T17:43:01.857Z,153908,-0.07305908,-0.11016846,0.005432129
1735321381877,2024-12-27T17:43:01.877Z,153928,-0.07562256,-0.107543945,0.010620117
1735321381884,2024-12-27T17:43:01.884Z,153935,-0.07495117,-0.10491943,0.0115356445
1735321381889,2024-12-27T17:43:01.889Z,153940,-0.07421875,-0.107666016,0.00982666
1735321381903,2024-12-27T17:43:01.903Z,153954,-0.07495117,-0.10925293,0.0076293945
1735321381908,2024-12-27T17:43:01.908Z,153959,-0.06866455,-0.11053467,0.0059814453
1735321381918,2024-12-27T17:43:01.918Z,153969,-0.0670166,-0.11077881,0.005004883
1735321381924,2024-12-27T17:43:01.924Z,153975,-0.06591797,-0.10925293,0.007446289
1735321381930,2024-12-27T17:43:01.930Z,153981,-0.07122803,-0.10668945,0.008483887
1735321381936,2024-12-27T17:43:01.936Z,153987,-0.06768799,-0.1071167,0.010498047
1735321381942,2024-12-27T17:43:01.942Z,153993,-0.064697266,-0.10601807,0.010986328
1735321381948,2024-12-27T17:43:01.948Z,153999,-0.07080078,-0.10601807,0.011474609
1735321381967,2024-12-27T17:43:01.967Z,154018,-0.07098389,-0.10430908,0.0134887695
1735321381973,2024-12-27T17:43:01.973Z,154024,-0.06744385,-0.105773926,0.009277344
1735321381979,2024-12-27T17:43:01.979Z,154030,-0.066833496,-0.10845947,0.008605957
1735321381985,2024-12-27T17:43:01.985Z,154036,-0.07696533,-0.107421875,0.012207031
1735321381991,2024-12-27T17:43:01.991Z,154042,-0.07647705,-0.10534668,0.014221191
1735321382010,2024-12-27T17:43:02.010Z,154061,-0.0748291,-0.10272217,0.013671875
1735321382016,2024-12-27T17:43:02.016Z,154067,-0.07366943,-0.105285645,0.012207031
1735321382022,2024-12-27T17:43:02.022Z,154073,-0.072021484,-0.1083374,0.010437012
1735321382028,2024-12-27T17:43:02.028Z,154079,-0.076049805,-0.10522461,0.013000488
1735321382033,2024-12-27T17:43:02.033Z,154084,-0.07373047,-0.10168457,0.014831543
1735321382100,2024-12-27T17:43:02.100Z,154151,-0.07006836,-0.101989746,0.012390137
1735321382106,2024-12-27T17:43:02.106Z,154157,-0.06738281,-0.105407715,0.01159668
1735321382112,2024-12-27T17:43:02.112Z,154163,-0.06304932,-0.10809326,0.012390137
1735321382118,2024-12-27T17:43:02.118Z,154169,-0.062927246,-0.11029053,0.010498047
1735321382123,2024-12-27T17:43:02.123Z,154174,-0.06329346,-0.109680176,0.011657715
1735321382130,2024-12-27T17:43:02.130Z,154181,-0.07104492,-0.10626221,0.01550293
1735321382147,2024-12-27T17:43:02.147Z,154198,-0.07208252,-0.10845947,0.01361084
1735321382189,2024-12-27T17:43:02.189Z,154240,-0.06500244,-0.106933594,0.012512207
1735321382197,2024-12-27T17:43:02.197Z,154248,-0.068237305,-0.10961914,0.012878418
1735321382204,2024-12-27T17:43:02.204Z,154255,-0.06549072,-0.111694336,0.015014648
1735321382282,2024-12-27T17:43:02.282Z,154333,-0.06762695,-0.109680176,0.016601562
1735321382511,2024-12-27T17:43:02.511Z,154562,-0.07104492,-0.11206055,0.016418457
1735321382526,2024-12-27T17:43:02.526Z,154577,-0.07421875,-0.11419678,0.011962891
1735321382543,2024-12-27T17:43:02.543Z,154594,-0.07409668,-0.111328125,0.013916016
1735321382558,2024-12-27T17:43:02.558Z,154609,-0.076293945,-0.10876465,0.016174316
1735321382571,2024-12-27T17:43:02.571Z,154622,-0.07312012,-0.110839844,0.012939453
1735321382586,2024-12-27T17:43:02.586Z,154637,-0.06311035,-0.112976074,0.012329102
1735321382604,2024-12-27T17:43:02.604Z,154655,-0.06451416,-0.11505127,0.012390137
1735321382618,2024-12-27T17:43:02.618Z,154669,-0.06964111,-0.11431885,0.012817383
1735321382626,2024-12-27T17:43:02.626Z,154677,-0.07366943,-0.11193848,0.012268066
1735321382635,2024-12-27T17:43:02.635Z,154686,-0.068603516,-0.11517334,0.009765625
1735321382646,2024-12-27T17:43:02.646Z,154697,-0.06817627,-0.11627197,0.010253906
1735321382650,2024-12-27T17:43:02.650Z,154701,-0.06549072,-0.105773926,0.016601562
1735321382657,2024-12-27T17:43:02.657Z,154708,-0.060058594,-0.11212158,0.020141602
1735321382664,2024-12-27T17:43:02.664Z,154715,-0.05847168,-0.11071777,0.022338867
1735321382687,2024-12-27T17:43:02.687Z,154738,-0.058044434,-0.108947754,0.021972656
1735321382693,2024-12-27T17:43:02.693Z,154744,-0.058898926,-0.10845947,0.021972656
1735321382700,2024-12-27T17:43:02.700Z,154751,-0.058654785,-0.107666016,0.023986816
1735321382706,2024-12-27T17:43:02.706Z,154757,-0.061401367,-0.108947754,0.023742676
1735321382709,2024-12-27T17:43:02.709Z,154760,-0.06317139,-0.10638428,0.022338867
1735321382716,2024-12-27T17:43:02.716Z,154767,-0.06085205,-0.10644531,0.022766113
1735321382732,2024-12-27T17:43:02.732Z,154783,-0.05444336,-0.108947754,0.02545166
1735321382738,2024-12-27T17:43:02.738Z,154789,-0.05908203,-0.109558105,0.024719238
1735321382777,2024-12-27T17:43:02.777Z,154828,-0.05871582,-0.11138916,0.021118164
1735321382784,2024-12-27T17:43:02.784Z,154835,-0.055725098,-0.11102295,0.02166748
1735321382790,2024-12-27T17:43:02.790Z,154841,-0.057556152,-0.10974121,0.022216797
1735321382797,2024-12-27T17:43:02.797Z,154848,-0.05871582,-0.11254883,0.018981934
1735321382801,2024-12-27T17:43:02.801Z,154852,-0.057800293,-0.111816406,0.024963379
1735321382807,2024-12-27T17:43:02.807Z,154858,-0.06274414,-0.11053467,0.026184082
1735321382822,2024-12-27T17:43:02.822Z,154873,-0.06555176,-0.11090088,0.02557373
1735321382828,2024-12-27T17:43:02.828Z,154879,-0.061035156,-0.113098145,0.021911621
1735321382834,2024-12-27T17:43:02.834Z,154885,-0.0579834,-0.115112305,0.018615723
1735321382840,2024-12-27T17:43:02.840Z,154891,-0.060424805,-0.11505127,0.020446777
1735321382846,2024-12-27T17:43:02.846Z,154897,-0.06414795,-0.11578369,0.019897461
1735321382958,2024-12-27T17:43:02.958Z,155009,-0.063964844,-0.11468506,0.020874023
1735321382966,2024-12-27T17:43:02.966Z,155017,-0.06213379,-0.11529541,0.02368164
1735321382981,2024-12-27T17:43:02.981Z,155032,-0.06335449,-0.1159668,0.019714355
1735321382994,2024-12-27T17:43:02.994Z,155045,-0.06097412,-0.11846924,0.01940918
1735321383006,2024-12-27T17:43:03.006Z,155057,-0.06384277,-0.121032715,0.017333984
1735321383015,2024-12-27T17:43:03.015Z,155066,-0.06707764,-0.12054443,0.016906738
1735321383023,2024-12-27T17:43:03.023Z,155074,-0.06616211,-0.118652344,0.018249512
1735321383031,2024-12-27T17:43:03.031Z,155082,-0.06567383,-0.118652344,0.01965332
1735321383039,2024-12-27T17:43:03.039Z,155090,-0.06774902,-0.11816406,0.022033691
1735321383047,2024-12-27T17:43:03.047Z,155098,-0.07244873,-0.117004395,0.024291992
1735321383054,2024-12-27T17:43:03.054Z,155105,-0.06903076,-0.11816406,0.02368164
1735321383060,2024-12-27T17:43:03.060Z,155111,-0.066589355,-0.11993408,0.020996094
1735321383066,2024-12-27T17:43:03.066Z,155117,-0.067871094,-0.117004395,0.019836426
1735321383072,2024-12-27T17:43:03.072Z,155123,-0.062194824,-0.11798096,0.020080566
1735321383078,2024-12-27T17:43:03.078Z,155129,-0.06738281,-0.11694336,0.020263672
1735321383084,2024-12-27T17:43:03.084Z,155135,-0.06378174,-0.117248535,0.018859863
1735321383090,2024-12-27T17:43:03.090Z,155141,-0.060424805,-0.116882324,0.021240234
1735321383134,2024-12-27T17:43:03.134Z,155185,-0.06677246,-0.11456299,0.024719238
1735321383139,2024-12-27T17:43:03.139Z,155190,-0.06829834,-0.11242676,0.02545166
1735321383145,2024-12-27T17:43:03.145Z,155196,-0.06488037,-0.114746094,0.020996094
1735321383151,2024-12-27T17:43:03.151Z,155202,-0.05731201,-0.11999512,0.016906738
1735321383157,2024-12-27T17:43:03.157Z,155208,-0.05847168,-0.11993408,0.016479492
1735321383163,2024-12-27T17:43:03.163Z,155214,-0.06695557,-0.11602783,0.018432617
1735321383230,2024-12-27T17:43:03.230Z,155281,-0.062194824,-0.11663818,0.018310547
1735321383317,2024-12-27T17:43:03.317Z,155368,-0.062683105,-0.117248535,0.02154541
1735321383331,2024-12-27T17:43:03.331Z,155382,-0.070007324,-0.11480713,0.02532959
1735321383345,2024-12-27T17:43:03.345Z,155396,-0.06951904,-0.11193848,0.026550293
1735321383359,2024-12-27T17:43:03.359Z,155410,-0.06414795,-0.11315918,0.023010254
1735321383374,2024-12-27T17:43:03.374Z,155425,-0.059265137,-0.11804199,0.015136719
1735321383381,2024-12-27T17:43:03.381Z,155432,-0.059570312,-0.12097168,0.013427734
1735321383407,2024-12-27T17:43:03.407Z,155458,-0.05871582,-0.119018555,0.01776123
1735321383416,2024-12-27T17:43:03.416Z,155467,-0.06762695,-0.11352539,0.022155762
1735321383425,2024-12-27T17:43:03.425Z,155476,-0.06628418,-0.11431885,0.02142334
1735321383433,2024-12-27T17:43:03.433Z,155484,-0.061340332,-0.11480713,0.022460938
1735321383440,2024-12-27T17:43:03.440Z,155491,-0.06732178,-0.112976074,0.024963379
1735321383444,2024-12-27T17:43:03.444Z,155495,-0.058654785,-0.11871338,0.016296387
1735321383452,2024-12-27T17:43:03.452Z,155503,-0.06640625,-0.11242676,0.016357422
1735321383456,2024-12-27T17:43:03.456Z,155507,-0.067871094,-0.111450195,0.016540527
1735321383462,2024-12-27T17:43:03.462Z,155513,-0.064941406,-0.111083984,0.016296387
1735321383468,2024-12-27T17:43:03.468Z,155519,-0.059631348,-0.11260986,0.015197754
1735321383474,2024-12-27T17:43:03.474Z,155525,-0.061828613,-0.11352539,0.011474609
1735321383480,2024-12-27T17:43:03.480Z,155531,-0.06121826,-0.11517334,0.008239746
1735321383493,2024-12-27T17:43:03.493Z,155544,-0.057495117,-0.11444092,0.010375977
1735321383496,2024-12-27T17:43:03.496Z,155547,-0.05596924,-0.11151123,0.018859863
1735321383502,2024-12-27T17:43:03.502Z,155553,-0.057922363,-0.11328125,0.015991211
1735321383544,2024-12-27T17:43:03.544Z,155595,-0.06011963,-0.114746094,0.014282227
1735321383550,2024-12-27T17:43:03.550Z,155601,-0.061157227,-0.115234375,0.008544922
1735321383557,2024-12-27T17:43:03.557Z,155608,-0.05633545,-0.11621094,0.0076293945
1735321383563,2024-12-27T17:43:03.563Z,155614,-0.05126953,-0.11450195,0.008544922
1735321383570,2024-12-27T17:43:03.570Z,155621,-0.05102539,-0.11456299,0.010253906
1735321383586,2024-12-27T17:43:03.586Z,155637,-0.05529785,-0.11260986,0.01586914
1735321383592,2024-12-27T17:43:03.592Z,155643,-0.059509277,-0.10852051,0.014526367
1735321383600,2024-12-27T17:43:03.600Z,155651,-0.05847168,-0.10998535,0.013549805
1735321383606,2024-12-27T17:43:03.606Z,155657,-0.05810547,-0.11419678,0.009338379
1735321383611,2024-12-27T17:43:03.611Z,155662,-0.055114746,-0.11584473,0.007446289
1735321383628,2024-12-27T17:43:03.628Z,155679,-0.047180176,-0.1159668,0.005432129
1735321383634,2024-12-27T17:43:03.634Z,155685,-0.045776367,-0.114990234,0.008972168
1735321383639,2024-12-27T17:43:03.639Z,155690,-0.05218506,-0.1126709,0.013000488
1735321383645,2024-12-27T17:43:03.645Z,155696,-0.05883789,-0.109069824,0.014892578
1735321383651,2024-12-27T17:43:03.651Z,155702,-0.055908203,-0.10626221,0.015380859
1735321383656,2024-12-27T17:43:03.656Z,155707,-0.055847168,-0.10455322,0.010375977
1735321383676,2024-12-27T17:43:03.676Z,155727,-0.053100586,-0.1083374,0.0037841797
1735321383683,2024-12-27T17:43:03.683Z,155734,-0.042236328,-0.11199951,0.004272461
1735321383689,2024-12-27T17:43:03.689Z,155740,-0.042907715,-0.11065674,0.005432129
1735321383694,2024-12-27T17:43:03.694Z,155745,-0.051757812,-0.109375,0.0068969727
1735321383700,2024-12-27T17:43:03.700Z,155751,-0.0513916,-0.109191895,0.010986328
1735321383765,2024-12-27T17:43:03.765Z,155816,-0.053222656,-0.10656738,0.013793945
1735321383772,2024-12-27T17:43:03.772Z,155823,-0.05657959,-0.105285645,0.010009766
1735321383777,2024-12-27T17:43:03.777Z,155828,-0.056030273,-0.10668945,0.005004883
1735321383783,2024-12-27T17:43:03.783Z,155834,-0.04626465,-0.11254883,0.0016479492
1735321383788,2024-12-27T17:43:03.788Z,155839,-0.04748535,-0.11584473,0.0020751953
1735321383809,2024-12-27T17:43:03.809Z,155860,-0.054382324,-0.11431885,0.003540039
1735321383817,2024-12-27T17:43:03.817Z,155868,-0.054382324,-0.111450195,0.008361816
1735321383823,2024-12-27T17:43:03.823Z,155874,-0.057250977,-0.10668945,0.01184082
1735321383829,2024-12-27T17:43:03.829Z,155880,-0.057739258,-0.10510254,0.0060424805
1735321383836,2024-12-27T17:43:03.836Z,155887,-0.051696777,-0.1060791,0.0017700195
1735321383842,2024-12-27T17:43:03.842Z,155893,-0.047729492,-0.11187744,-8.544922E-4
1735321383900,2024-12-27T17:43:03.900Z,155951,-0.053710938,-0.11035156,-7.9345703E-4
1735321383903,2024-12-27T17:43:03.903Z,155954,-0.051452637,-0.10632324,9.765625E-4
1735321383911,2024-12-27T17:43:03.911Z,155962,-0.049804688,-0.10437012,0.0015258789
1735321383917,2024-12-27T17:43:03.917Z,155968,-0.051513672,-0.101501465,0.0037231445
1735321383922,2024-12-27T17:43:03.922Z,155973,-0.05114746,-0.10168457,0.004760742
1735321383929,2024-12-27T17:43:03.929Z,155980,-0.0501709,-0.10229492,0.0045166016
1735321383990,2024-12-27T17:43:03.990Z,156041,-0.045776367,-0.10394287,0.0029296875
1735321383998,2024-12-27T17:43:03.998Z,156049,-0.04272461,-0.10888672,-0.001159668
1735321384004,2024-12-27T17:43:04.004Z,156055,-0.052001953,-0.105407715,0.0036621094
1735321384010,2024-12-27T17:43:04.010Z,156061,-0.05810547,-0.09765625,0.006713867
1735321384018,2024-12-27T17:43:04.018Z,156069,-0.046691895,-0.09942627,0.0065307617
1735321384025,2024-12-27T17:43:04.025Z,156076,-0.039001465,-0.10180664,0.0048217773
1735321384083,2024-12-27T17:43:04.083Z,156134,-0.05090332,-0.10406494,-0.0015258789
1735321384089,2024-12-27T17:43:04.089Z,156140,-0.046447754,-0.10864258,0.0032958984
1735321384095,2024-12-27T17:43:04.095Z,156146,-0.050048828,-0.109558105,0.0064086914
1735321384100,2024-12-27T17:43:04.100Z,156151,-0.045837402,-0.109558105,0.008056641
1735321384107,2024-12-27T17:43:04.107Z,156158,-0.040222168,-0.105895996,0.002319336
1735321384124,2024-12-27T17:43:04.124Z,156175,-0.034606934,-0.1105957,-9.765625E-4
1735321384127,2024-12-27T17:43:04.127Z,156178,-0.03778076,-0.10870361,0.0037231445
1735321384133,2024-12-27T17:43:04.133Z,156184,-0.029174805,-0.11340332,0.0012207031
1735321384140,2024-12-27T17:43:04.140Z,156191,-0.032592773,-0.112976074,0.002746582
1735321384145,2024-12-27T17:43:04.145Z,156196,-0.042236328,-0.10638428,0.005432129
1735321384152,2024-12-27T17:43:04.152Z,156203,-0.04748535,-0.10748291,0.0015258789
1735321384169,2024-12-27T17:43:04.169Z,156220,-0.04437256,-0.11090088,-0.0012207031
1735321384172,2024-12-27T17:43:04.172Z,156223,-0.016296387,-0.11791992,-0.0017089844
1735321384178,2024-12-27T17:43:04.178Z,156229,-0.028686523,-0.113342285,0.006164551
1735321384184,2024-12-27T17:43:04.184Z,156235,-0.038269043,-0.11291504,0.008178711
1735321384190,2024-12-27T17:43:04.190Z,156241,-0.035461426,-0.11444092,0.0078125
1735321384196,2024-12-27T17:43:04.196Z,156247,-0.036865234,-0.115600586,0.005126953
1735321384214,2024-12-27T17:43:04.214Z,156265,-0.03668213,-0.11663818,-0.0037231445
1735321384220,2024-12-27T17:43:04.220Z,156271,-0.03289795,-0.114990234,-0.00579834
1735321384225,2024-12-27T17:43:04.225Z,156276,-0.018432617,-0.11706543,-0.004272461
1735321384231,2024-12-27T17:43:04.231Z,156282,-0.02557373,-0.11224365,0.0038452148
1735321384237,2024-12-27T17:43:04.237Z,156288,-0.03161621,-0.11199951,0.006164551
1735321384242,2024-12-27T17:43:04.242Z,156293,-0.031982422,-0.11010742,0.00793457
1735321384261,2024-12-27T17:43:04.261Z,156312,-0.031433105,-0.10595703,0.007446289
1735321384267,2024-12-27T17:43:04.267Z,156318,-0.029907227,-0.1071167,0.0013427734
1735321384273,2024-12-27T17:43:04.273Z,156324,-0.028259277,-0.11010742,-0.002380371
1735321384279,2024-12-27T17:43:04.279Z,156330,-0.024902344,-0.10736084,-0.003112793
1735321384285,2024-12-27T17:43:04.285Z,156336,-0.016723633,-0.1083374,1.8310547E-4
1735321384303,2024-12-27T17:43:04.303Z,156354,-0.020202637,-0.10797119,0.0036010742
1735321384308,2024-12-27T17:43:04.308Z,156359,-0.029907227,-0.10235596,0.008483887
1735321384314,2024-12-27T17:43:04.314Z,156365,-0.032226562,-0.1015625,0.012023926
1735321384320,2024-12-27T17:43:04.320Z,156371,-0.027526855,-0.105041504,0.008972168
1735321384325,2024-12-27T17:43:04.325Z,156376,-0.027954102,-0.107055664,0.0061035156
1735321384330,2024-12-27T17:43:04.330Z,156381,-0.03137207,-0.107543945,0.003540039
1735321384351,2024-12-27T17:43:04.351Z,156402,-0.022399902,-0.107543945,0.0028686523
1735321384394,2024-12-27T17:43:04.394Z,156445,-0.022766113,-0.1048584,0.0040283203
1735321384403,2024-12-27T17:43:04.403Z,156454,-0.022155762,-0.1027832,0.006225586
1735321384409,2024-12-27T17:43:04.409Z,156460,-0.03100586,-0.10028076,0.0060424805
1735321384415,2024-12-27T17:43:04.415Z,156466,-0.030151367,-0.10821533,0.005432129
1735321384421,2024-12-27T17:43:04.421Z,156472,-0.014892578,-0.115112305,0.0037231445
1735321384427,2024-12-27T17:43:04.427Z,156478,-0.013671875,-0.11639404,0.0044555664
1735321384442,2024-12-27T17:43:04.442Z,156493,-0.024353027,-0.114746094,0.0018920898
1735321384450,2024-12-27T17:43:04.450Z,156501,-0.03515625,-0.1126709,0.0040283203
1735321384457,2024-12-27T17:43:04.457Z,156508,-0.03363037,-0.11151123,0.0021972656
1735321384463,2024-12-27T17:43:04.463Z,156514,-0.017333984,-0.12237549,0.006958008
1735321384470,2024-12-27T17:43:04.470Z,156521,-0.0289917,-0.12451172,0.008544922
1735321384485,2024-12-27T17:43:04.485Z,156536,-0.030517578,-0.121398926,0.008666992
1735321384491,2024-12-27T17:43:04.491Z,156542,-0.020507812,-0.12072754,0.005554199
1735321384498,2024-12-27T17:43:04.498Z,156549,-0.031311035,-0.12243652,0.0017700195
1735321384504,2024-12-27T17:43:04.504Z,156555,-0.030822754,-0.121276855,0.002746582
1735321384510,2024-12-27T17:43:04.510Z,156561,-0.019592285,-0.121032715,0.0064697266
1735321384516,2024-12-27T17:43:04.516Z,156567,-0.017822266,-0.12658691,0.008178711
1735321384531,2024-12-27T17:43:04.531Z,156582,-0.029724121,-0.12438965,0.0057373047
1735321384538,2024-12-27T17:43:04.538Z,156589,-0.026367188,-0.12084961,0.00579834
1735321384544,2024-12-27T17:43:04.544Z,156595,-0.023254395,-0.119628906,0.004760742
1735321384549,2024-12-27T17:43:04.549Z,156600,-0.026000977,-0.11584473,0.0018310547
1735321384555,2024-12-27T17:43:04.555Z,156606,-0.025024414,-0.11328125,0.002380371
1735321384573,2024-12-27T17:43:04.573Z,156624,-0.018554688,-0.119140625,0.003112793
1735321384578,2024-12-27T17:43:04.578Z,156629,-0.019592285,-0.11663818,0.004699707
1735321384584,2024-12-27T17:43:04.584Z,156635,-0.022583008,-0.11553955,0.0057373047
1735321384590,2024-12-27T17:43:04.590Z,156641,-0.026245117,-0.115356445,0.0067749023
1735321384619,2024-12-27T17:43:04.619Z,156670,-0.02709961,-0.115234375,0.006958008
1735321384625,2024-12-27T17:43:04.625Z,156676,-0.025634766,-0.115478516,0.005493164
1735321384630,2024-12-27T17:43:04.630Z,156681,-0.021911621,-0.115112305,0.006652832
1735321384637,2024-12-27T17:43:04.637Z,156688,-0.026672363,-0.11090088,0.0010375977
1735321384643,2024-12-27T17:43:04.643Z,156694,-0.022827148,-0.11376953,0.0014038086
1735321384666,2024-12-27T17:43:04.666Z,156717,-0.020019531,-0.11975098,0.0018310547
1735321384675,2024-12-27T17:43:04.675Z,156726,-0.026550293,-0.11682129,0.0018310547
1735321384682,2024-12-27T17:43:04.682Z,156733,-0.028137207,-0.11621094,0.0032348633
1735321384689,2024-12-27T17:43:04.689Z,156740,-0.022644043,-0.12036133,0.0068969727
1735321384707,2024-12-27T17:43:04.707Z,156758,-0.028137207,-0.12188721,0.010864258
1735321384714,2024-12-27T17:43:04.714Z,156765,-0.034057617,-0.12042236,0.006591797
1735321384721,2024-12-27T17:43:04.721Z,156772,-0.031982422,-0.11968994,0.0010375977
1735321384728,2024-12-27T17:43:04.728Z,156779,-0.027404785,-0.12298584,7.324219E-4
1735321384733,2024-12-27T17:43:04.733Z,156784,-0.023742676,-0.12213135,3.0517578E-4
1735321384754,2024-12-27T17:43:04.754Z,156805,-0.026123047,-0.121276855,0.0018310547
1735321384759,2024-12-27T17:43:04.759Z,156810,-0.026245117,-0.12487793,0.005859375
1735321384766,2024-12-27T17:43:04.766Z,156817,-0.031799316,-0.12243652,0.008483887
1735321384772,2024-12-27T17:43:04.772Z,156823,-0.036010742,-0.120788574,0.00793457
1735321384800,2024-12-27T17:43:04.800Z,156851,-0.03363037,-0.12054443,0.0053710938
1735321384806,2024-12-27T17:43:04.806Z,156857,-0.028442383,-0.12042236,0.0048217773
1735321384812,2024-12-27T17:43:04.812Z,156863,-0.057800293,-0.109802246,-0.005493164
1735321384819,2024-12-27T17:43:04.819Z,156870,-0.026428223,-0.11639404,6.713867E-4
1735321384826,2024-12-27T17:43:04.826Z,156877,-0.012390137,-0.119018555,0.0018310547
1735321384843,2024-12-27T17:43:04.843Z,156894,-0.03125,-0.12231445,0.0032348633
1735321384850,2024-12-27T17:43:04.850Z,156901,-0.039855957,-0.11450195,0.008361816
1735321384856,2024-12-27T17:43:04.856Z,156907,-0.027160645,-0.11395264,0.009521484
1735321384862,2024-12-27T17:43:04.862Z,156913,-0.023864746,-0.11462402,0.008972168
1735321384889,2024-12-27T17:43:04.889Z,156940,-0.030944824,-0.1126709,0.003540039
1735321384895,2024-12-27T17:43:04.895Z,156946,-0.025634766,-0.11291504,0.0013427734
1735321384902,2024-12-27T17:43:04.902Z,156953,-0.021118164,-0.1161499,0.0021972656
1735321384909,2024-12-27T17:43:04.909Z,156960,-0.026123047,-0.11682129,0.002380371
1735321384938,2024-12-27T17:43:04.938Z,156989,-0.03137207,-0.11279297,0.0037841797
1735321384944,2024-12-27T17:43:04.944Z,156995,-0.03491211,-0.108947754,0.005859375
1735321384951,2024-12-27T17:43:04.951Z,157002,-0.032104492,-0.107666016,0.0061035156
1735321384959,2024-12-27T17:43:04.959Z,157010,-0.033569336,-0.107543945,0.004272461
1735321384966,2024-12-27T17:43:04.966Z,157017,-0.027282715,-0.10864258,0.0057373047
1735321384978,2024-12-27T17:43:04.978Z,157029,-0.020507812,-0.10992432,0.006652832
1735321384985,2024-12-27T17:43:04.985Z,157036,-0.029418945,-0.109313965,0.0034179688
1735321384991,2024-12-27T17:43:04.991Z,157042,-0.031311035,-0.10784912,0.0029907227
1735321384997,2024-12-27T17:43:04.997Z,157048,-0.030700684,-0.10723877,0.0037841797
1735321385024,2024-12-27T17:43:05.024Z,157075,-0.036621094,-0.10656738,0.0017089844
1735321385031,2024-12-27T17:43:05.031Z,157082,-0.030639648,-0.111328125,0.0028686523
1735321385039,2024-12-27T17:43:05.039Z,157090,-0.030944824,-0.11291504,0.0020751953
1735321385045,2024-12-27T17:43:05.045Z,157096,-0.03765869,-0.110839844,0.0028686523
1735321385052,2024-12-27T17:43:05.052Z,157103,-0.032043457,-0.111450195,0.0051879883
1735321385068,2024-12-27T17:43:05.068Z,157119,-0.028686523,-0.113586426,0.004638672
1735321385074,2024-12-27T17:43:05.074Z,157125,-0.040161133,-0.11260986,0.0033569336
1735321385080,2024-12-27T17:43:05.080Z,157131,-0.041748047,-0.11480713,0.0028076172
1735321385086,2024-12-27T17:43:05.086Z,157137,-0.03137207,-0.11999512,0.0029907227
1735321385114,2024-12-27T17:43:05.114Z,157165,-0.034606934,-0.11932373,0.0059814453
1735321385121,2024-12-27T17:43:05.121Z,157172,-0.041748047,-0.11431885,0.005432129
1735321385126,2024-12-27T17:43:05.126Z,157177,-0.03326416,-0.114990234,0.004638672
1735321385132,2024-12-27T17:43:05.132Z,157183,-0.035949707,-0.11462402,0.0015869141
1735321385139,2024-12-27T17:43:05.139Z,157190,-0.04168701,-0.11883545,7.324219E-4
1735321385158,2024-12-27T17:43:05.158Z,157209,-0.039367676,-0.11968994,0.0037231445
1735321385163,2024-12-27T17:43:05.163Z,157214,-0.04559326,-0.11254883,0.0032958984
1735321385170,2024-12-27T17:43:05.170Z,157221,-0.040527344,-0.11450195,0.0015258789
1735321385176,2024-12-27T17:43:05.176Z,157227,-0.032714844,-0.115112305,0.0049438477
1735321385203,2024-12-27T17:43:05.203Z,157254,-0.043884277,-0.10882568,0.004211426
1735321385209,2024-12-27T17:43:05.209Z,157260,-0.041625977,-0.111816406,0.003112793
1735321385215,2024-12-27T17:43:05.215Z,157266,-0.036071777,-0.1138916,0.005004883
1735321385221,2024-12-27T17:43:05.221Z,157272,-0.04901123,-0.10748291,0.0020141602
1735321385248,2024-12-27T17:43:05.248Z,157299,-0.042907715,-0.11065674,3.6621094E-4
1735321385255,2024-12-27T17:43:05.255Z,157306,-0.039001465,-0.109558105,7.324219E-4
1735321385262,2024-12-27T17:43:05.262Z,157313,-0.042907715,-0.10876465,7.324219E-4
1735321385269,2024-12-27T17:43:05.269Z,157320,-0.041748047,-0.1104126,0.004638672
1735321385275,2024-12-27T17:43:05.275Z,157326,-0.043151855,-0.10632324,0.006713867
1735321385293,2024-12-27T17:43:05.293Z,157344,-0.04449463,-0.10656738,0.0037841797
1735321385300,2024-12-27T17:43:05.300Z,157351,-0.044921875,-0.10974121,9.1552734E-4
1735321385308,2024-12-27T17:43:05.308Z,157359,-0.046569824,-0.11364746,6.1035156E-4
1735321385316,2024-12-27T17:43:05.316Z,157367,-0.04748535,-0.113708496,0.0036010742
1735321385342,2024-12-27T17:43:05.342Z,157393,-0.049316406,-0.11151123,0.002380371
1735321385357,2024-12-27T17:43:05.357Z,157408,-0.047424316,-0.1105957,-3.6621094E-4
1735321385370,2024-12-27T17:43:05.370Z,157421,-0.046325684,-0.10913086,0.0010986328
1735321385381,2024-12-27T17:43:05.381Z,157432,-0.053833008,-0.109069824,-2.4414062E-4
1735321385392,2024-12-27T17:43:05.392Z,157443,-0.045959473,-0.1161499,0.0024414062
1735321385400,2024-12-27T17:43:05.400Z,157451,-0.048217773,-0.11102295,0.007080078
1735321385406,2024-12-27T17:43:05.406Z,157457,-0.055541992,-0.109558105,0.0043945312
1735321385412,2024-12-27T17:43:05.412Z,157463,-0.055725098,-0.109069824,2.4414062E-4
1735321385417,2024-12-27T17:43:05.417Z,157468,-0.050048828,-0.10845947,-9.765625E-4
1735321385428,2024-12-27T17:43:05.428Z,157479,-0.054382324,-0.109558105,-0.003540039
1735321385434,2024-12-27T17:43:05.434Z,157485,-0.051208496,-0.111816406,-7.324219E-4
1735321385440,2024-12-27T17:43:05.440Z,157491,-0.050842285,-0.11071777,0.003967285
1735321385445,2024-12-27T17:43:05.445Z,157496,-0.057006836,-0.111694336,0.0056152344
1735321385451,2024-12-27T17:43:05.451Z,157502,-0.062072754,-0.11010742,0.007385254
1735321385473,2024-12-27T17:43:05.473Z,157524,-0.062316895,-0.10321045,0.0068359375
1735321385479,2024-12-27T17:43:05.479Z,157530,-0.059265137,-0.1026001,4.272461E-4
1735321385485,2024-12-27T17:43:05.485Z,157536,-0.05316162,-0.10681152,-0.0037231445
1735321385491,2024-12-27T17:43:05.491Z,157542,-0.051330566,-0.11010742,-0.0015869141
1735321385522,2024-12-27T17:43:05.522Z,157573,-0.057250977,-0.10723877,5.493164E-4
1735321385534,2024-12-27T17:43:05.534Z,157585,-0.05908203,-0.10522461,3.6621094E-4
1735321385546,2024-12-27T17:43:05.546Z,157597,-0.052856445,-0.10595703,0.0034179688
1735321385558,2024-12-27T17:43:05.558Z,157609,-0.055603027,-0.103881836,0.008728027
1735321385568,2024-12-27T17:43:05.568Z,157619,-0.06866455,-0.10144043,0.0078125
1735321385575,2024-12-27T17:43:05.575Z,157626,-0.071777344,-0.10028076,0.004760742
1735321385581,2024-12-27T17:43:05.581Z,157632,-0.060180664,-0.10180664,0.0017700195
1735321385589,2024-12-27T17:43:05.589Z,157640,-0.04675293,-0.10723877,-0.0012207031
1735321385596,2024-12-27T17:43:05.596Z,157647,-0.049316406,-0.10864258,0.0025024414
1735321385608,2024-12-27T17:43:05.608Z,157659,-0.06567383,-0.10290527,0.0016479492
1735321385614,2024-12-27T17:43:05.614Z,157665,-0.06500244,-0.10003662,9.1552734E-4
1735321385620,2024-12-27T17:43:05.620Z,157671,-0.06201172,-0.09814453,0.005126953
1735321385627,2024-12-27T17:43:05.627Z,157678,-0.063964844,-0.09692383,0.006164551
1735321385652,2024-12-27T17:43:05.652Z,157703,-0.05987549,-0.099853516,0.0076904297
1735321385658,2024-12-27T17:43:05.658Z,157709,-0.05987549,-0.101745605,0.0036010742
1735321385665,2024-12-27T17:43:05.665Z,157716,-0.06109619,-0.10308838,-0.002746582
1735321385671,2024-12-27T17:43:05.671Z,157722,-0.058776855,-0.101867676,1.2207031E-4
1735321385677,2024-12-27T17:43:05.677Z,157728,-0.06060791,-0.101501465,0.0021362305
1735321385747,2024-12-27T17:43:05.747Z,157798,-0.06677246,-0.101501465,0.0048217773
1735321385762,2024-12-27T17:43:05.762Z,157813,-0.06939697,-0.099853516,0.008300781
1735321385774,2024-12-27T17:43:05.774Z,157825,-0.07043457,-0.10070801,0.007507324
1735321385787,2024-12-27T17:43:05.787Z,157838,-0.0657959,-0.103393555,0.005554199
1735321385797,2024-12-27T17:43:05.797Z,157848,-0.060424805,-0.105041504,0.0032348633
1735321385805,2024-12-27T17:43:05.805Z,157856,-0.06329346,-0.1060791,0.0
1735321385813,2024-12-27T17:43:05.813Z,157864,-0.06939697,-0.10284424,0.0016479492
1735321385822,2024-12-27T17:43:05.822Z,157873,-0.07397461,-0.10107422,0.0052490234
1735321385831,2024-12-27T17:43:05.831Z,157882,-0.06793213,-0.10534668,0.009460449
1735321385841,2024-12-27T17:43:05.841Z,157892,-0.06744385,-0.1038208,0.012084961
1735321385851,2024-12-27T17:43:05.851Z,157902,-0.0715332,-0.10192871,0.009399414
1735321385858,2024-12-27T17:43:05.858Z,157909,-0.072631836,-0.10168457,0.007019043
1735321385865,2024-12-27T17:43:05.865Z,157916,-0.07006836,-0.10357666,0.006286621
1735321385882,2024-12-27T17:43:05.882Z,157933,-0.0692749,-0.10675049,0.0017089844
1735321385888,2024-12-27T17:43:05.888Z,157939,-0.070251465,-0.108947754,0.0022583008
1735321385894,2024-12-27T17:43:05.894Z,157945,-0.06707764,-0.107543945,0.0057373047
1735321385900,2024-12-27T17:43:05.900Z,157951,-0.07147217,-0.10437012,0.00970459
1735321385907,2024-12-27T17:43:05.907Z,157958,-0.07800293,-0.10211182,0.012023926
1735321385925,2024-12-27T17:43:05.925Z,157976,-0.07836914,-0.10083008,0.012939453
1735321385930,2024-12-27T17:43:05.930Z,157981,-0.08258057,-0.099365234,0.012084961
1735321385936,2024-12-27T17:43:05.936Z,157987,-0.077941895,-0.103027344,0.0036010742
1735321385943,2024-12-27T17:43:05.943Z,157994,-0.067993164,-0.109558105,0.001159668
1735321385950,2024-12-27T17:43:05.950Z,158001,-0.06713867,-0.110961914,0.0033569336
1735321385957,2024-12-27T17:43:05.957Z,158008,-0.07470703,-0.10638428,0.007446289
1735321385974,2024-12-27T17:43:05.974Z,158025,-0.08166504,-0.101623535,0.014770508
1735321385980,2024-12-27T17:43:05.980Z,158031,-0.090026855,-0.09661865,0.01763916
1735321385986,2024-12-27T17:43:05.986Z,158037,-0.08679199,-0.09710693,0.013000488
1735321385992,2024-12-27T17:43:05.992Z,158043,-0.06732178,-0.10333252,0.010192871
1735321385998,2024-12-27T17:43:05.998Z,158049,-0.06439209,-0.10394287,0.0079956055
1735321386013,2024-12-27T17:43:06.013Z,158064,-0.07409668,-0.10266113,0.008422852
1735321386018,2024-12-27T17:43:06.018Z,158069,-0.07952881,-0.097839355,0.013183594
1735321386024,2024-12-27T17:43:06.024Z,158075,-0.08496094,-0.09301758,0.012023926
1735321386030,2024-12-27T17:43:06.030Z,158081,-0.084472656,-0.09429932,0.010253906
1735321386035,2024-12-27T17:43:06.035Z,158086,-0.076171875,-0.09698486,0.0115356445
1735321386041,2024-12-27T17:43:06.041Z,158092,-0.07165527,-0.097351074,0.012145996
1735321386062,2024-12-27T17:43:06.062Z,158113,-0.07696533,-0.095581055,0.012512207
1735321386068,2024-12-27T17:43:06.068Z,158119,-0.079589844,-0.09448242,0.011230469
1735321386074,2024-12-27T17:43:06.074Z,158125,-0.08331299,-0.09240723,0.008728027
1735321386079,2024-12-27T17:43:06.079Z,158130,-0.079833984,-0.097595215,0.0064086914
1735321386085,2024-12-27T17:43:06.085Z,158136,-0.078430176,-0.09887695,0.009277344
1735321386103,2024-12-27T17:43:06.103Z,158154,-0.0859375,-0.09350586,0.010131836
1735321386110,2024-12-27T17:43:06.110Z,158161,-0.08306885,-0.09259033,0.009216309
1735321386114,2024-12-27T17:43:06.114Z,158165,-0.08087158,-0.09173584,0.010864258
1735321386120,2024-12-27T17:43:06.120Z,158171,-0.086364746,-0.09039307,0.011047363
1735321386148,2024-12-27T17:43:06.148Z,158199,-0.08654785,-0.0914917,0.013305664
1735321386195,2024-12-27T17:43:06.195Z,158246,-0.08605957,-0.09326172,0.010009766
1735321386243,2024-12-27T17:43:06.243Z,158294,-0.080200195,-0.09692383,0.004638672
1735321386250,2024-12-27T17:43:06.250Z,158301,-0.078430176,-0.097229004,0.0059814453
1735321386256,2024-12-27T17:43:06.256Z,158307,-0.08392334,-0.09423828,0.010925293
1735321386263,2024-12-27T17:43:06.263Z,158314,-0.0836792,-0.09265137,0.012207031
1735321386271,2024-12-27T17:43:06.271Z,158322,-0.08178711,-0.09429932,0.012817383
1735321386285,2024-12-27T17:43:06.285Z,158336,-0.091430664,-0.091796875,0.014282227
1735321386292,2024-12-27T17:43:06.292Z,158343,-0.09637451,-0.09082031,0.015319824
1735321386330,2024-12-27T17:43:06.330Z,158381,-0.07897949,-0.096069336,0.008239746
1735321386339,2024-12-27T17:43:06.339Z,158390,-0.076293945,-0.09655762,0.0057373047
1735321386346,2024-12-27T17:43:06.346Z,158397,-0.08795166,-0.097961426,0.0064697266
1735321386354,2024-12-27T17:43:06.354Z,158405,-0.0859375,-0.097717285,0.010620117
1735321386358,2024-12-27T17:43:06.358Z,158409,-0.09454346,-0.09313965,0.012817383
1735321386377,2024-12-27T17:43:06.377Z,158428,-0.088256836,-0.09326172,0.012329102
1735321386423,2024-12-27T17:43:06.423Z,158474,-0.08770752,-0.09106445,0.011779785
1735321386431,2024-12-27T17:43:06.431Z,158482,-0.095458984,-0.09033203,0.010253906
1735321386439,2024-12-27T17:43:06.439Z,158490,-0.082092285,-0.09240723,0.0057373047
1735321386446,2024-12-27T17:43:06.446Z,158497,-0.077697754,-0.09423828,0.0048217773
1735321386454,2024-12-27T17:43:06.454Z,158505,-0.08685303,-0.09411621,0.0078125
1735321386464,2024-12-27T17:43:06.464Z,158515,-0.089782715,-0.091918945,0.010559082
1735321386468,2024-12-27T17:43:06.468Z,158519,-0.08691406,-0.09185791,0.0076293945
1735321386476,2024-12-27T17:43:06.476Z,158527,-0.08959961,-0.08917236,0.008728027
1735321386483,2024-12-27T17:43:06.483Z,158534,-0.09674072,-0.09124756,0.009460449
1735321386490,2024-12-27T17:43:06.490Z,158541,-0.09197998,-0.091796875,0.008850098
1735321386497,2024-12-27T17:43:06.497Z,158548,-0.08935547,-0.09094238,0.009094238
1735321386508,2024-12-27T17:43:06.508Z,158559,-0.08935547,-0.090270996,0.010253906
1735321386511,2024-12-27T17:43:06.511Z,158562,-0.08502197,-0.090270996,0.009216309
1735321386517,2024-12-27T17:43:06.517Z,158568,-0.08666992,-0.09082031,0.012451172
1735321386524,2024-12-27T17:43:06.524Z,158575,-0.09399414,-0.08514404,0.0146484375
1735321386530,2024-12-27T17:43:06.530Z,158581,-0.09075928,-0.0848999,0.012207031
1735321386535,2024-12-27T17:43:06.535Z,158586,-0.082092285,-0.09082031,0.008972168
1735321386554,2024-12-27T17:43:06.554Z,158605,-0.08453369,-0.089782715,0.009399414
1735321386560,2024-12-27T17:43:06.560Z,158611,-0.085754395,-0.09008789,0.0064697266
1735321386565,2024-12-27T17:43:06.565Z,158616,-0.08557129,-0.090026855,0.006958008
1735321386571,2024-12-27T17:43:06.571Z,158622,-0.08746338,-0.08502197,0.011047363
1735321386577,2024-12-27T17:43:06.577Z,158628,-0.096191406,-0.08050537,0.015014648
1735321386599,2024-12-27T17:43:06.599Z,158650,-0.097473145,-0.08483887,0.0126953125
1735321386605,2024-12-27T17:43:06.605Z,158656,-0.09466553,-0.0892334,0.011108398
1735321386610,2024-12-27T17:43:06.610Z,158661,-0.09790039,-0.08959961,0.010253906
1735321386615,2024-12-27T17:43:06.615Z,158666,-0.08325195,-0.09240723,0.0079956055
1735321386621,2024-12-27T17:43:06.621Z,158672,-0.082336426,-0.091918945,0.010253906
1735321386627,2024-12-27T17:43:06.627Z,158678,-0.08959961,-0.088256836,0.012634277
1735321386646,2024-12-27T17:43:06.646Z,158697,-0.09307861,-0.08514404,0.0134887695
1735321386652,2024-12-27T17:43:06.652Z,158703,-0.083862305,-0.08856201,0.013671875
1735321386659,2024-12-27T17:43:06.659Z,158710,-0.08874512,-0.08807373,0.017700195
1735321386664,2024-12-27T17:43:06.664Z,158715,-0.09851074,-0.08581543,0.018432617
1735321386670,2024-12-27T17:43:06.670Z,158721,-0.09063721,-0.085510254,0.01727295
1735321386688,2024-12-27T17:43:06.688Z,158739,-0.07867432,-0.08660889,0.017028809
1735321386695,2024-12-27T17:43:06.695Z,158746,-0.08843994,-0.08703613,0.014770508
1735321386700,2024-12-27T17:43:06.700Z,158751,-0.089416504,-0.090270996,0.010925293
1735321386706,2024-12-27T17:43:06.706Z,158757,-0.081970215,-0.091552734,0.011779785
1735321386713,2024-12-27T17:43:06.713Z,158764,-0.08465576,-0.08886719,0.012939453
1735321386719,2024-12-27T17:43:06.719Z,158770,-0.094055176,-0.08459473,0.0178833
1735321386737,2024-12-27T17:43:06.737Z,158788,-0.091552734,-0.08514404,0.017822266
1735321386743,2024-12-27T17:43:06.743Z,158794,-0.088134766,-0.08721924,0.017089844
1735321386753,2024-12-27T17:43:06.753Z,158804,-0.08996582,-0.09094238,0.015563965
1735321386760,2024-12-27T17:43:06.760Z,158811,-0.08135986,-0.09301758,0.011230469
1735321386777,2024-12-27T17:43:06.777Z,158828,-0.08294678,-0.094177246,0.0115356445
1735321386782,2024-12-27T17:43:06.782Z,158833,-0.08831787,-0.09295654,0.014526367
1735321386787,2024-12-27T17:43:06.787Z,158838,-0.08502197,-0.0914917,0.014221191
1735321386794,2024-12-27T17:43:06.794Z,158845,-0.08947754,-0.088378906,0.015258789
1735321386827,2024-12-27T17:43:06.827Z,158878,-0.087524414,-0.08856201,0.01727295
1735321386838,2024-12-27T17:43:06.838Z,158889,-0.081970215,-0.09124756,0.016296387
1735321386848,2024-12-27T17:43:06.848Z,158899,-0.08630371,-0.09448242,0.015075684
1735321386860,2024-12-27T17:43:06.860Z,158911,-0.08660889,-0.09680176,0.014953613
1735321386871,2024-12-27T17:43:06.871Z,158922,-0.083496094,-0.09338379,0.015930176
1735321386880,2024-12-27T17:43:06.880Z,158931,-0.086120605,-0.09234619,0.013916016
1735321386887,2024-12-27T17:43:06.887Z,158938,-0.080078125,-0.0960083,0.012573242
1735321386894,2024-12-27T17:43:06.894Z,158945,-0.0803833,-0.097595215,0.0134887695
1735321386901,2024-12-27T17:43:06.901Z,158952,-0.08380127,-0.09667969,0.0154418945
1735321386963,2024-12-27T17:43:06.963Z,159014,-0.08227539,-0.09637451,0.016662598
1735321386974,2024-12-27T17:43:06.974Z,159025,-0.08709717,-0.09661865,0.016967773
1735321386985,2024-12-27T17:43:06.985Z,159036,-0.08996582,-0.097717285,0.014526367
1735321386996,2024-12-27T17:43:06.996Z,159047,-0.077819824,-0.10083008,0.010986328
1735321387004,2024-12-27T17:43:07.004Z,159055,-0.07989502,-0.09954834,0.010803223
1735321387012,2024-12-27T17:43:07.012Z,159063,-0.08215332,-0.0993042,0.013305664
1735321387050,2024-12-27T17:43:07.050Z,159101,-0.07885742,-0.101257324,0.012573242
1735321387059,2024-12-27T17:43:07.059Z,159110,-0.07598877,-0.101623535,0.013183594
1735321387067,2024-12-27T17:43:07.067Z,159118,-0.07623291,-0.099731445,0.016418457
1735321387075,2024-12-27T17:43:07.075Z,159126,-0.08050537,-0.099365234,0.013793945
1735321387084,2024-12-27T17:43:07.084Z,159135,-0.07733154,-0.10101318,0.011657715
1735321387098,2024-12-27T17:43:07.098Z,159149,-0.07696533,-0.09881592,0.013671875
1735321387141,2024-12-27T17:43:07.141Z,159192,-0.07385254,-0.10040283,0.010803223
1735321387149,2024-12-27T17:43:07.149Z,159200,-0.068847656,-0.10412598,0.00982666
1735321387156,2024-12-27T17:43:07.156Z,159207,-0.068725586,-0.10614014,0.0095825195
1735321387164,2024-12-27T17:43:07.164Z,159215,-0.055908203,-0.113708496,0.010559082
1735321387170,2024-12-27T17:43:07.170Z,159221,-0.05041504,-0.119506836,0.011230469
1735321387189,2024-12-27T17:43:07.189Z,159240,-0.07928467,-0.09320068,0.0146484375
1735321387193,2024-12-27T17:43:07.193Z,159244,-0.07891846,-0.09710693,0.014099121
1735321387201,2024-12-27T17:43:07.201Z,159252,-0.06665039,-0.10101318,0.012634277
1735321387209,2024-12-27T17:43:07.209Z,159260,-0.06768799,-0.10095215,0.007507324
1735321387215,2024-12-27T17:43:07.215Z,159266,-0.06903076,-0.10217285,0.0072021484
1735321387222,2024-12-27T17:43:07.222Z,159273,-0.062194824,-0.103515625,0.007446289
1735321387231,2024-12-27T17:43:07.231Z,159282,-0.059326172,-0.105407715,0.008056641
1735321387238,2024-12-27T17:43:07.238Z,159289,-0.0690918,-0.1038208,0.011962891
1735321387244,2024-12-27T17:43:07.244Z,159295,-0.06390381,-0.10412598,0.010070801
1735321387249,2024-12-27T17:43:07.249Z,159300,-0.06262207,-0.1083374,0.005493164
1735321387255,2024-12-27T17:43:07.255Z,159306,-0.06188965,-0.11151123,0.003540039
1735321387273,2024-12-27T17:43:07.273Z,159324,-0.060302734,-0.111816406,0.0068969727
1735321387278,2024-12-27T17:43:07.278Z,159329,-0.061767578,-0.109680176,0.011962891
1735321387283,2024-12-27T17:43:07.283Z,159334,-0.06341553,-0.10803223,0.012329102
1735321387289,2024-12-27T17:43:07.289Z,159340,-0.06762695,-0.1083374,0.008361816
1735321387294,2024-12-27T17:43:07.294Z,159345,-0.06774902,-0.109069824,0.006286621
1735321387299,2024-12-27T17:43:07.299Z,159350,-0.06060791,-0.110839844,0.008483887
1735321387322,2024-12-27T17:43:07.322Z,159373,-0.066467285,-0.11102295,0.009216309
1735321387328,2024-12-27T17:43:07.328Z,159379,-0.0670166,-0.11126709,0.0079956055
1735321387369,2024-12-27T17:43:07.369Z,159420,-0.059448242,-0.11315918,0.007873535
1735321387377,2024-12-27T17:43:07.377Z,159428,-0.059509277,-0.11639404,0.00793457
1735321387383,2024-12-27T17:43:07.383Z,159434,-0.06689453,-0.11706543,0.010803223
1735321387390,2024-12-27T17:43:07.390Z,159441,-0.072143555,-0.11480713,0.010192871
1735321387397,2024-12-27T17:43:07.397Z,159448,-0.06939697,-0.114990234,0.010803223
1735321387402,2024-12-27T17:43:07.402Z,159453,-0.06512451,-0.1182251,0.008728027
1735321387455,2024-12-27T17:43:07.455Z,159506,-0.070495605,-0.119628906,0.0087890625
1735321387463,2024-12-27T17:43:07.463Z,159514,-0.07696533,-0.118896484,0.007751465
1735321387470,2024-12-27T17:43:07.470Z,159521,-0.072021484,-0.11828613,0.008422852
1735321387477,2024-12-27T17:43:07.477Z,159528,-0.066833496,-0.11651611,0.007019043
1735321387485,2024-12-27T17:43:07.485Z,159536,-0.06829834,-0.11639404,0.005126953
1735321387495,2024-12-27T17:43:07.495Z,159546,-0.06695557,-0.11541748,0.0071411133
1735321387600,2024-12-27T17:43:07.600Z,159651,-0.064697266,-0.11303711,0.009460449
1735321387613,2024-12-27T17:43:07.613Z,159664,-0.06707764,-0.111328125,0.008666992
1735321387624,2024-12-27T17:43:07.624Z,159675,-0.0725708,-0.10900879,0.005004883
1735321387632,2024-12-27T17:43:07.632Z,159683,-0.07104492,-0.107299805,0.003479004
1735321387641,2024-12-27T17:43:07.641Z,159692,-0.06286621,-0.106933594,0.0012207031
1735321387649,2024-12-27T17:43:07.649Z,159700,-0.061645508,-0.108947754,0.001159668
1735321387653,2024-12-27T17:43:07.653Z,159704,-0.0635376,-0.10858154,0.0064086914
1735321387682,2024-12-27T17:43:07.682Z,159733,-0.062438965,-0.1071167,0.0075683594
1735321387781,2024-12-27T17:43:07.781Z,159832,-0.06225586,-0.10748291,0.005493164
1735321387794,2024-12-27T17:43:07.794Z,159845,-0.06640625,-0.1081543,0.0029296875
1735321387806,2024-12-27T17:43:07.806Z,159857,-0.062561035,-0.108947754,0.0028686523
1735321387816,2024-12-27T17:43:07.816Z,159867,-0.057434082,-0.10992432,0.0028686523
1735321387821,2024-12-27T17:43:07.821Z,159872,-0.0692749,-0.109558105,0.009033203
1735321387830,2024-12-27T17:43:07.830Z,159881,-0.06945801,-0.11187744,0.0076904297
1735321387838,2024-12-27T17:43:07.838Z,159889,-0.066345215,-0.1105957,0.010986328
1735321387845,2024-12-27T17:43:07.845Z,159896,-0.058166504,-0.11071777,0.012084961
1735321387852,2024-12-27T17:43:07.852Z,159903,-0.05847168,-0.11236572,0.010925293
1735321387860,2024-12-27T17:43:07.860Z,159911,-0.06561279,-0.11291504,0.011474609
1735321387866,2024-12-27T17:43:07.866Z,159917,-0.06970215,-0.11352539,0.01184082
1735321387869,2024-12-27T17:43:07.869Z,159920,-0.070495605,-0.1184082,0.011657715
1735321387875,2024-12-27T17:43:07.875Z,159926,-0.0836792,-0.12030029,0.013549805
1735321387880,2024-12-27T17:43:07.880Z,159931,-0.07159424,-0.12017822,0.014953613
1735321387886,2024-12-27T17:43:07.886Z,159937,-0.06939697,-0.12030029,0.014526367
1735321387891,2024-12-27T17:43:07.891Z,159942,-0.072509766,-0.12054443,0.016052246
1735321387895,2024-12-27T17:43:07.895Z,159946,-0.07110596,-0.119506836,0.018798828
1735321387902,2024-12-27T17:43:07.902Z,159953,-0.070007324,-0.11798096,0.017944336
1735321387909,2024-12-27T17:43:07.909Z,159960,-0.07489014,-0.1171875,0.018371582
1735321387915,2024-12-27T17:43:07.915Z,159966,-0.07531738,-0.11834717,0.01727295
1735321387920,2024-12-27T17:43:07.920Z,159971,-0.06921387,-0.12011719,0.0138549805
1735321387925,2024-12-27T17:43:07.925Z,159976,-0.0657959,-0.118896484,0.0134887695
1735321387930,2024-12-27T17:43:07.930Z,159981,-0.064697266,-0.11834717,0.0146484375
1735321387950,2024-12-27T17:43:07.950Z,160001,-0.06781006,-0.11785889,0.017211914
1735321387954,2024-12-27T17:43:07.954Z,160005,-0.07305908,-0.11456299,0.019592285
1735321387960,2024-12-27T17:43:07.960Z,160011,-0.07171631,-0.11199951,0.01763916
1735321387965,2024-12-27T17:43:07.965Z,160016,-0.06591797,-0.11437988,0.013122559
1735321387995,2024-12-27T17:43:07.995Z,160046,-0.07055664,-0.11633301,0.011169434
1735321388085,2024-12-27T17:43:08.085Z,160136,-0.06951904,-0.11566162,0.009033203
1735321388133,2024-12-27T17:43:08.133Z,160184,-0.06463623,-0.1149292,0.007446289
1735321388175,2024-12-27T17:43:08.175Z,160226,-0.06707764,-0.112976074,0.011169434
1735321388182,2024-12-27T17:43:08.182Z,160233,-0.06945801,-0.111083984,0.015136719
1735321388190,2024-12-27T17:43:08.190Z,160241,-0.06964111,-0.11022949,0.01727295
1735321388197,2024-12-27T17:43:08.197Z,160248,-0.06982422,-0.111328125,0.015991211
1735321388203,2024-12-27T17:43:08.203Z,160254,-0.07098389,-0.11328125,0.012756348
1735321388211,2024-12-27T17:43:08.211Z,160262,-0.06616211,-0.115478516,0.007507324
1735321388315,2024-12-27T17:43:08.315Z,160366,-0.06011963,-0.11859131,0.0095825195
1735321388412,2024-12-27T17:43:08.412Z,160463,-0.068115234,-0.1149292,0.015930176
1735321388426,2024-12-27T17:43:08.426Z,160477,-0.07366943,-0.10986328,0.017700195
1735321388439,2024-12-27T17:43:08.439Z,160490,-0.06829834,-0.11193848,0.015808105
1735321388445,2024-12-27T17:43:08.445Z,160496,-0.06555176,-0.119384766,0.012817383
1735321388451,2024-12-27T17:43:08.451Z,160502,-0.06201172,-0.11468506,0.012268066
1735321388462,2024-12-27T17:43:08.462Z,160513,-0.05987549,-0.113342285,0.013366699
1735321388466,2024-12-27T17:43:08.466Z,160517,-0.059448242,-0.11517334,0.009338379
1735321388470,2024-12-27T17:43:08.470Z,160521,-0.05456543,-0.11364746,0.009338379
1735321388478,2024-12-27T17:43:08.478Z,160529,-0.05718994,-0.11254883,0.008728027
1735321388486,2024-12-27T17:43:08.486Z,160537,-0.0569458,-0.11138916,0.011962891
1735321388494,2024-12-27T17:43:08.494Z,160545,-0.05987549,-0.1081543,0.0138549805
1735321388501,2024-12-27T17:43:08.501Z,160552,-0.061706543,-0.10571289,0.014953613
1735321388507,2024-12-27T17:43:08.507Z,160558,-0.052124023,-0.1083374,0.009399414
1735321388513,2024-12-27T17:43:08.513Z,160564,-0.059448242,-0.10662842,0.0064697266
1735321388519,2024-12-27T17:43:08.519Z,160570,-0.054626465,-0.10882568,4.8828125E-4
1735321388532,2024-12-27T17:43:08.532Z,160583,-0.054382324,-0.11236572,0.005859375
1735321388544,2024-12-27T17:43:08.544Z,160595,-0.05456543,-0.111694336,0.011352539
1735321388555,2024-12-27T17:43:08.555Z,160606,-0.055664062,-0.11077881,0.00982666
1735321388565,2024-12-27T17:43:08.565Z,160616,-0.044433594,-0.11364746,0.009216309
1735321388570,2024-12-27T17:43:08.570Z,160621,-0.043395996,-0.11413574,0.008239746
1735321388577,2024-12-27T17:43:08.577Z,160628,-0.053588867,-0.113098145,0.0067749023
1735321388584,2024-12-27T17:43:08.584Z,160635,-0.06060791,-0.111816406,0.0034179688
1735321388590,2024-12-27T17:43:08.590Z,160641,-0.057128906,-0.111328125,0.006225586
1735321388596,2024-12-27T17:43:08.596Z,160647,-0.046081543,-0.11175537,0.008850098
1735321388602,2024-12-27T17:43:08.602Z,160653,-0.05090332,-0.10675049,0.0075683594
1735321388609,2024-12-27T17:43:08.609Z,160660,-0.059936523,-0.105163574,0.008911133
1735321388615,2024-12-27T17:43:08.615Z,160666,-0.04522705,-0.110961914,0.007751465
1735321388621,2024-12-27T17:43:08.621Z,160672,-0.048217773,-0.1104126,0.005493164
1735321388630,2024-12-27T17:43:08.630Z,160681,-0.05657959,-0.10986328,0.0014648438
1735321388636,2024-12-27T17:43:08.636Z,160687,-0.057617188,-0.109558105,0.0048217773
1735321388642,2024-12-27T17:43:08.642Z,160693,-0.052978516,-0.109069824,0.009460449
1735321388647,2024-12-27T17:43:08.647Z,160698,-0.05267334,-0.10559082,0.010131836
1735321388651,2024-12-27T17:43:08.651Z,160702,-0.049072266,-0.10681152,0.00579834
1735321388656,2024-12-27T17:43:08.656Z,160707,-0.045898438,-0.10668945,0.010803223
1735321388670,2024-12-27T17:43:08.670Z,160721,-0.049865723,-0.10479736,0.007080078
1735321388676,2024-12-27T17:43:08.676Z,160727,-0.05065918,-0.105407715,0.0043945312
1735321388681,2024-12-27T17:43:08.681Z,160732,-0.051818848,-0.105041504,0.0059814453
1735321388685,2024-12-27T17:43:08.685Z,160736,-0.05621338,-0.103881836,0.0067749023
1735321388692,2024-12-27T17:43:08.692Z,160743,-0.052368164,-0.101623535,0.007873535
1735321388713,2024-12-27T17:43:08.713Z,160764,-0.04309082,-0.10308838,0.006652832
1735321388718,2024-12-27T17:43:08.718Z,160769,-0.044006348,-0.1038208,0.004760742
1735321388724,2024-12-27T17:43:08.724Z,160775,-0.05041504,-0.10021973,0.006164551
1735321388730,2024-12-27T17:43:08.730Z,160781,-0.048950195,-0.10083008,0.0033569336
1735321388761,2024-12-27T17:43:08.761Z,160812,-0.047302246,-0.10321045,0.004272461
1735321388767,2024-12-27T17:43:08.767Z,160818,-0.045654297,-0.104003906,0.006591797
1735321388773,2024-12-27T17:43:08.773Z,160824,-0.043273926,-0.10559082,0.0040893555
1735321388779,2024-12-27T17:43:08.779Z,160830,-0.04046631,-0.10687256,0.0049438477
1735321388784,2024-12-27T17:43:08.784Z,160835,-0.045654297,-0.10357666,0.00793457
1735321388804,2024-12-27T17:43:08.804Z,160855,-0.051513672,-0.10089111,0.0064086914
1735321388810,2024-12-27T17:43:08.810Z,160861,-0.047607422,-0.1048584,0.0029296875
1735321388815,2024-12-27T17:43:08.815Z,160866,-0.048339844,-0.10687256,0.0045166016
1735321388820,2024-12-27T17:43:08.820Z,160871,-0.04699707,-0.10998535,0.003112793
1735321388826,2024-12-27T17:43:08.826Z,160877,-0.041748047,-0.113464355,-0.0024414062
1735321388848,2024-12-27T17:43:08.848Z,160899,-0.03845215,-0.1149292,-9.1552734E-4
1735321388894,2024-12-27T17:43:08.894Z,160945,-0.044311523,-0.11315918,0.001159668
1735321388901,2024-12-27T17:43:08.901Z,160952,-0.04626465,-0.11151123,0.0040893555
1735321388908,2024-12-27T17:43:08.908Z,160959,-0.04333496,-0.11248779,0.004760742
1735321388914,2024-12-27T17:43:08.914Z,160965,-0.047912598,-0.111083984,0.0037231445
1735321388921,2024-12-27T17:43:08.921Z,160972,-0.045959473,-0.1105957,0.0010986328
1735321388928,2024-12-27T17:43:08.928Z,160979,-0.033996582,-0.11291504,-0.0016479492
1735321388941,2024-12-27T17:43:08.941Z,160992,-0.038879395,-0.10876465,-6.1035156E-4
1735321388947,2024-12-27T17:43:08.947Z,160998,-0.041992188,-0.10913086,-0.0028076172
1735321388984,2024-12-27T17:43:08.984Z,161035,-0.042053223,-0.11022949,0.0
1735321388991,2024-12-27T17:43:08.991Z,161042,-0.04284668,-0.11126709,0.0036621094
1735321388998,2024-12-27T17:43:08.998Z,161049,-0.041137695,-0.11151123,0.0044555664
1735321389004,2024-12-27T17:43:09.004Z,161055,-0.037719727,-0.109069824,9.1552734E-4
1735321389011,2024-12-27T17:43:09.011Z,161062,-0.024963379,-0.111694336,-0.004638672
1735321389018,2024-12-27T17:43:09.018Z,161069,-0.028808594,-0.110839844,-0.0016479492
1735321389032,2024-12-27T17:43:09.032Z,161083,-0.042297363,-0.109069824,-0.0020141602
1735321389038,2024-12-27T17:43:09.038Z,161089,-0.039978027,-0.10913086,-0.004333496
1735321389044,2024-12-27T17:43:09.044Z,161095,-0.03552246,-0.110839844,-7.324219E-4
1735321389050,2024-12-27T17:43:09.050Z,161101,-0.032226562,-0.11193848,-0.0032958984
1735321389056,2024-12-27T17:43:09.056Z,161107,-0.03491211,-0.10913086,-0.0015258789
1735321389074,2024-12-27T17:43:09.074Z,161125,-0.040161133,-0.10803223,0.0016479492
1735321389081,2024-12-27T17:43:09.081Z,161132,-0.032043457,-0.113098145,9.1552734E-4
1735321389086,2024-12-27T17:43:09.086Z,161137,-0.029907227,-0.11444092,-0.0025024414
1735321389092,2024-12-27T17:43:09.092Z,161143,-0.03387451,-0.113586426,-0.0079956055
1735321389097,2024-12-27T17:43:09.097Z,161148,-0.03527832,-0.114868164,-0.005432129
1735321389103,2024-12-27T17:43:09.103Z,161154,-0.038085938,-0.11303711,-7.324219E-4
1735321389120,2024-12-27T17:43:09.120Z,161171,-0.034423828,-0.11462402,-6.1035156E-4
1735321389126,2024-12-27T17:43:09.126Z,161177,-0.036254883,-0.1126709,6.1035156E-4
1735321389131,2024-12-27T17:43:09.131Z,161182,-0.032409668,-0.11425781,0.0010375977
1735321389136,2024-12-27T17:43:09.136Z,161187,-0.029296875,-0.114868164,9.1552734E-4
1735321389141,2024-12-27T17:43:09.141Z,161192,-0.031066895,-0.11407471,-0.005065918
1735321389163,2024-12-27T17:43:09.163Z,161214,-0.03186035,-0.11376953,-0.004760742
1735321389168,2024-12-27T17:43:09.168Z,161219,-0.037109375,-0.11138916,-0.003540039
1735321389173,2024-12-27T17:43:09.173Z,161224,-0.034240723,-0.109313965,-0.0048217773
1735321389179,2024-12-27T17:43:09.179Z,161230,-0.025878906,-0.10797119,-0.0013427734
1735321389211,2024-12-27T17:43:09.211Z,161262,-0.023742676,-0.10858154,7.324219E-4
1735321389217,2024-12-27T17:43:09.217Z,161268,-0.020263672,-0.11114502,0.0
1735321389222,2024-12-27T17:43:09.222Z,161273,-0.025512695,-0.107543945,5.493164E-4
1735321389228,2024-12-27T17:43:09.228Z,161279,-0.036071777,-0.10443115,0.0
1735321389238,2024-12-27T17:43:09.238Z,161289,-0.038391113,-0.105163574,-0.0022583008
1735321389255,2024-12-27T17:43:09.255Z,161306,-0.03314209,-0.10211182,-0.0025634766
1735321389261,2024-12-27T17:43:09.261Z,161312,-0.021484375,-0.105041504,-0.0026245117
1735321389266,2024-12-27T17:43:09.266Z,161317,-0.023132324,-0.1060791,-0.003479004
1735321389271,2024-12-27T17:43:09.271Z,161322,-0.03100586,-0.10510254,-0.0037841797
1735321389299,2024-12-27T17:43:09.299Z,161350,-0.026672363,-0.107910156,-0.003967285
1735321389305,2024-12-27T17:43:09.305Z,161356,-0.023071289,-0.11175537,4.272461E-4
1735321389312,2024-12-27T17:43:09.312Z,161363,-0.033081055,-0.11303711,0.0010375977
1735321389318,2024-12-27T17:43:09.318Z,161369,-0.03491211,-0.11456299,-3.6621094E-4
1735321389344,2024-12-27T17:43:09.344Z,161395,-0.027648926,-0.11431885,-0.0017089844
1735321389350,2024-12-27T17:43:09.350Z,161401,-0.018188477,-0.11621094,-0.005554199
1735321389356,2024-12-27T17:43:09.356Z,161407,-0.022216797,-0.11395264,-0.009277344
1735321389362,2024-12-27T17:43:09.362Z,161413,-0.024902344,-0.117004395,-0.008300781
1735321389368,2024-12-27T17:43:09.368Z,161419,-0.026306152,-0.12322998,-0.0064697266
1735321389389,2024-12-27T17:43:09.389Z,161440,-0.035705566,-0.12207031,-0.003479004
1735321389395,2024-12-27T17:43:09.395Z,161446,-0.03326416,-0.121154785,-0.0021362305
1735321389401,2024-12-27T17:43:09.401Z,161452,-0.01928711,-0.12335205,-0.0020141602
1735321389407,2024-12-27T17:43:09.407Z,161458,-0.024230957,-0.12176514,-0.001953125
1735321389434,2024-12-27T17:43:09.434Z,161485,-0.028747559,-0.12322998,-9.1552734E-4
1735321389440,2024-12-27T17:43:09.440Z,161491,-0.028320312,-0.12335205,-0.0013427734
1735321389447,2024-12-27T17:43:09.447Z,161498,-0.022705078,-0.12225342,-0.0037841797
1735321389453,2024-12-27T17:43:09.453Z,161504,-0.025268555,-0.1182251,-0.010253906
1735321389460,2024-12-27T17:43:09.460Z,161511,-0.026611328,-0.11730957,-0.011779785
1735321389480,2024-12-27T17:43:09.480Z,161531,-0.022399902,-0.1182251,-0.005493164
1735321389485,2024-12-27T17:43:09.485Z,161536,-0.02734375,-0.11401367,-0.0036010742
1735321389490,2024-12-27T17:43:09.490Z,161541,-0.025756836,-0.115356445,-4.272461E-4
1735321389496,2024-12-27T17:43:09.496Z,161547,-0.022583008,-0.11608887,0.001159668
1735321389528,2024-12-27T17:43:09.528Z,161579,-0.021057129,-0.11590576,-0.0029907227
1735321389533,2024-12-27T17:43:09.533Z,161584,-0.0211792,-0.11669922,-0.0048217773
1735321389539,2024-12-27T17:43:09.539Z,161590,-0.025634766,-0.11798096,-0.006225586
1735321389546,2024-12-27T17:43:09.546Z,161597,-0.027832031,-0.11456299,-0.008422852
1735321389558,2024-12-27T17:43:09.558Z,161609,-0.022094727,-0.11431885,-0.007873535
1735321389570,2024-12-27T17:43:09.570Z,161621,-0.022399902,-0.1159668,-0.0053710938
1735321389580,2024-12-27T17:43:09.580Z,161631,-0.025024414,-0.11773682,-0.0037231445
1735321389590,2024-12-27T17:43:09.590Z,161641,-0.023376465,-0.12133789,-0.0038452148
1735321389599,2024-12-27T17:43:09.599Z,161650,-0.028808594,-0.120666504,-0.0053100586
1735321389614,2024-12-27T17:43:09.614Z,161665,-0.029846191,-0.120788574,-0.004760742
1735321389621,2024-12-27T17:43:09.621Z,161672,-0.020080566,-0.12347412,-0.0018920898
1735321389628,2024-12-27T17:43:09.628Z,161679,-0.029785156,-0.11798096,-0.0025634766
1735321389635,2024-12-27T17:43:09.635Z,161686,-0.03112793,-0.11816406,-0.004333496
1735321389660,2024-12-27T17:43:09.660Z,161711,-0.022094727,-0.1217041,-0.0032958984
1735321389666,2024-12-27T17:43:09.666Z,161717,-0.021972656,-0.122680664,-0.0043945312
1735321389672,2024-12-27T17:43:09.672Z,161723,-0.024108887,-0.11975098,-0.0061035156
1735321389679,2024-12-27T17:43:09.679Z,161730,-0.020507812,-0.119506836,-0.0053710938
1735321389686,2024-12-27T17:43:09.686Z,161737,-0.02532959,-0.12036133,-0.0014648438
1735321389703,2024-12-27T17:43:09.703Z,161754,-0.0335083,-0.11657715,-1.8310547E-4
1735321389709,2024-12-27T17:43:09.709Z,161760,-0.028869629,-0.11621094,0.0
1735321389715,2024-12-27T17:43:09.715Z,161766,-0.019897461,-0.11871338,-0.0010375977
1735321389721,2024-12-27T17:43:09.721Z,161772,-0.025512695,-0.11651611,-0.0026245117
1735321389749,2024-12-27T17:43:09.749Z,161800,-0.02935791,-0.112976074,-7.9345703E-4
1735321389755,2024-12-27T17:43:09.755Z,161806,-0.01776123,-0.115600586,6.1035156E-4
1735321389761,2024-12-27T17:43:09.761Z,161812,-0.02154541,-0.11651611,7.324219E-4
1735321389767,2024-12-27T17:43:09.767Z,161818,-0.029968262,-0.114746094,-7.9345703E-4
1735321389773,2024-12-27T17:43:09.773Z,161824,-0.02709961,-0.11505127,4.272461E-4
1735321389794,2024-12-27T17:43:09.794Z,161845,-0.027709961,-0.11279297,-0.0013427734
1735321389799,2024-12-27T17:43:09.799Z,161850,-0.019897461,-0.11468506,-0.004272461
1735321389805,2024-12-27T17:43:09.805Z,161856,-0.015380859,-0.11633301,-7.324219E-4
1735321389811,2024-12-27T17:43:09.811Z,161862,-0.027038574,-0.113708496,3.0517578E-4
1735321389838,2024-12-27T17:43:09.838Z,161889,-0.03277588,-0.11328125,-0.0012207031
1735321389844,2024-12-27T17:43:09.844Z,161895,-0.026245117,-0.11645508,-0.0012207031
1735321389850,2024-12-27T17:43:09.850Z,161901,-0.029174805,-0.11730957,-0.0033569336
1735321389856,2024-12-27T17:43:09.856Z,161907,-0.026611328,-0.11993408,-0.0018920898
1735321389862,2024-12-27T17:43:09.862Z,161913,-0.024291992,-0.11907959,8.544922E-4
1735321389883,2024-12-27T17:43:09.883Z,161934,-0.031311035,-0.11663818,0.0017089844
1735321389888,2024-12-27T17:43:09.888Z,161939,-0.033203125,-0.11907959,0.001159668
1735321389894,2024-12-27T17:43:09.894Z,161945,-0.026367188,-0.12322998,1.8310547E-4
1735321389901,2024-12-27T17:43:09.901Z,161952,-0.027526855,-0.11993408,0.0
1735321389928,2024-12-27T17:43:09.928Z,161979,-0.029724121,-0.11791992,-0.0020141602
1735321389939,2024-12-27T17:43:09.939Z,161990,-0.031311035,-0.11627197,-0.0043945312
1735321389945,2024-12-27T17:43:09.945Z,161996,-0.03125,-0.11395264,-0.0040283203
1735321389950,2024-12-27T17:43:09.950Z,162001,-0.027832031,-0.11602783,-0.003967285
1735321389972,2024-12-27T17:43:09.972Z,162023,-0.027038574,-0.11755371,-0.001159668
1735321389978,2024-12-27T17:43:09.978Z,162029,-0.029907227,-0.11553955,-0.0013427734
1735321389983,2024-12-27T17:43:09.983Z,162034,-0.034057617,-0.11328125,-0.0045776367
1735321389988,2024-12-27T17:43:09.988Z,162039,-0.03668213,-0.11273193,-0.0013427734
1735321389993,2024-12-27T17:43:09.993Z,162044,-0.032592773,-0.11242676,-5.493164E-4
1735321390018,2024-12-27T17:43:10.018Z,162069,-0.030029297,-0.11138916,-1.8310547E-4
1735321390023,2024-12-27T17:43:10.023Z,162074,-0.035888672,-0.10870361,-0.0028076172
1735321390029,2024-12-27T17:43:10.029Z,162080,-0.03540039,-0.110839844,-0.005554199
1735321390035,2024-12-27T17:43:10.035Z,162086,-0.03265381,-0.11224365,-0.006225586
1735321390064,2024-12-27T17:43:10.064Z,162115,-0.039001465,-0.109558105,-0.007080078
1735321390070,2024-12-27T17:43:10.070Z,162121,-0.03845215,-0.1104126,-0.005126953
1735321390076,2024-12-27T17:43:10.076Z,162127,-0.028259277,-0.11383057,0.0010986328
1735321390082,2024-12-27T17:43:10.082Z,162133,-0.037231445,-0.109558105,2.4414062E-4
1735321390088,2024-12-27T17:43:10.088Z,162139,-0.036621094,-0.11218262,-0.0025634766
1735321390108,2024-12-27T17:43:10.108Z,162159,-0.030700684,-0.114746094,-0.004333496
1735321390114,2024-12-27T17:43:10.114Z,162165,-0.04095459,-0.11260986,-0.008850098
1735321390120,2024-12-27T17:43:10.120Z,162171,-0.04034424,-0.117126465,-0.008544922
1735321390125,2024-12-27T17:43:10.125Z,162176,-0.039489746,-0.11462402,-0.0018920898
1735321390153,2024-12-27T17:43:10.153Z,162204,-0.04547119,-0.109436035,-0.0017700195
1735321390159,2024-12-27T17:43:10.159Z,162210,-0.04248047,-0.11077881,-0.003967285
1735321390165,2024-12-27T17:43:10.165Z,162216,-0.036254883,-0.109802246,-0.003112793
1735321390171,2024-12-27T17:43:10.171Z,162222,-0.036743164,-0.11199951,-0.005859375
1735321390177,2024-12-27T17:43:10.177Z,162228,-0.044555664,-0.11407471,-0.006652832
1735321390198,2024-12-27T17:43:10.198Z,162249,-0.043884277,-0.11505127,-0.0087890625
1735321390203,2024-12-27T17:43:10.203Z,162254,-0.03753662,-0.11816406,-0.0076293945
1735321390208,2024-12-27T17:43:10.208Z,162259,-0.0423584,-0.11553955,-0.003479004
1735321390214,2024-12-27T17:43:10.214Z,162265,-0.044189453,-0.11425781,-0.0020751953
1735321390244,2024-12-27T17:43:10.244Z,162295,-0.045715332,-0.11077881,-6.1035156E-5
1735321390250,2024-12-27T17:43:10.250Z,162301,-0.046447754,-0.11199951,-0.0033569336
1735321390256,2024-12-27T17:43:10.256Z,162307,-0.045166016,-0.11578369,-0.005004883
1735321390261,2024-12-27T17:43:10.261Z,162312,-0.042907715,-0.11480713,-0.004760742
1735321390289,2024-12-27T17:43:10.289Z,162340,-0.04425049,-0.11566162,-0.008666992
1735321390296,2024-12-27T17:43:10.296Z,162347,-0.04815674,-0.11395264,-0.010925293
1735321390302,2024-12-27T17:43:10.302Z,162353,-0.042419434,-0.113708496,-0.0053710938
1735321390310,2024-12-27T17:43:10.310Z,162361,-0.04333496,-0.11224365,-6.1035156E-4
1735321390317,2024-12-27T17:43:10.317Z,162368,-0.045532227,-0.11236572,4.272461E-4
1735321390333,2024-12-27T17:43:10.333Z,162384,-0.041259766,-0.11279297,0.0026855469
1735321390338,2024-12-27T17:43:10.338Z,162389,-0.047668457,-0.110839844,-0.0018310547
1735321390344,2024-12-27T17:43:10.344Z,162395,-0.053771973,-0.10949707,-0.009277344
1735321390350,2024-12-27T17:43:10.350Z,162401,-0.04248047,-0.11230469,-0.010009766
1735321390379,2024-12-27T17:43:10.379Z,162430,-0.042419434,-0.113098145,-0.0044555664
1735321390385,2024-12-27T17:43:10.385Z,162436,-0.053771973,-0.10888672,-0.0014038086
1735321390390,2024-12-27T17:43:10.390Z,162441,-0.046142578,-0.10821533,0.0
1735321390396,2024-12-27T17:43:10.396Z,162447,-0.03778076,-0.106933594,4.8828125E-4
1735321390424,2024-12-27T17:43:10.424Z,162475,-0.043029785,-0.10870361,-0.0010986328
1735321390430,2024-12-27T17:43:10.430Z,162481,-0.05065918,-0.10925293,-0.0029296875
1735321390472,2024-12-27T17:43:10.472Z,162523,-0.05090332,-0.107055664,-0.005554199
1735321390515,2024-12-27T17:43:10.515Z,162566,-0.04522705,-0.10559082,-0.004638672
1735321390522,2024-12-27T17:43:10.522Z,162573,-0.043518066,-0.105529785,-0.0065307617
1735321390529,2024-12-27T17:43:10.529Z,162580,-0.041870117,-0.11126709,-0.0043945312
1735321390536,2024-12-27T17:43:10.536Z,162587,-0.04650879,-0.111206055,0.0032348633
1735321390543,2024-12-27T17:43:10.543Z,162594,-0.051696777,-0.10687256,0.0018920898
1735321390550,2024-12-27T17:43:10.550Z,162601,-0.045715332,-0.10852051,0.0014038086
1735321390563,2024-12-27T17:43:10.563Z,162614,-0.045959473,-0.10852051,0.0015869141
1735321390571,2024-12-27T17:43:10.571Z,162622,-0.051940918,-0.10986328,-0.002746582
1735321390579,2024-12-27T17:43:10.579Z,162630,-0.046936035,-0.11248779,-0.0034179688
1735321390586,2024-12-27T17:43:10.586Z,162637,-0.04650879,-0.11126709,-0.002746582
1735321390593,2024-12-27T17:43:10.593Z,162644,-0.051757812,-0.10748291,-0.003540039
1735321390604,2024-12-27T17:43:10.604Z,162655,-0.049194336,-0.10620117,-0.00390625
1735321390611,2024-12-27T17:43:10.611Z,162662,-0.043762207,-0.11077881,-3.6621094E-4
1735321390620,2024-12-27T17:43:10.620Z,162671,-0.046813965,-0.111450195,0.0028686523
1735321390626,2024-12-27T17:43:10.626Z,162677,-0.047729492,-0.11071777,0.0037231445
1735321390637,2024-12-27T17:43:10.637Z,162688,-0.04699707,-0.11077881,0.0048217773
1735321390648,2024-12-27T17:43:10.648Z,162699,-0.054992676,-0.10687256,0.0017700195
