Timestamp (ms),ISO DateTime,Elapsed Time (ms),Acceleration X,Acceleration Y,Acceleration Z
1734713287409,2024-12-20T16:48:07.409Z,64884,-0.03717041,-0.11212158,-0.028808594
1734713287427,2024-12-20T16:48:07.427Z,64902,-0.028686523,-0.11273193,-0.032836914
1734713287440,2024-12-20T16:48:07.440Z,64915,-0.02935791,-0.11376953,-0.024841309
1734713287455,2024-12-20T16:48:07.455Z,64930,-0.03857422,-0.11798096,-0.02166748
1734713287469,2024-12-20T16:48:07.469Z,64944,-0.039367676,-0.121520996,-0.011962891
1734713287481,2024-12-20T16:48:07.481Z,64956,-0.04034424,-0.12207031,-0.0053710938
1734713287494,2024-12-20T16:48:07.494Z,64969,-0.033325195,-0.1227417,-0.0078125
1734713287506,2024-12-20T16:48:07.506Z,64981,-0.034362793,-0.11633301,-0.028442383
1734713287515,2024-12-20T16:48:07.515Z,64990,-0.0256958,-0.11431885,-0.033691406
1734713287538,2024-12-20T16:48:07.538Z,65013,-0.033691406,-0.115234375,-0.026245117
1734713287547,2024-12-20T16:48:07.547Z,65022,-0.038208008,-0.11975098,-0.031188965
1734713287555,2024-12-20T16:48:07.555Z,65030,-0.039245605,-0.11663818,-0.016418457
1734713287563,2024-12-20T16:48:07.563Z,65038,-0.044128418,-0.12731934,-0.004638672
1734713287579,2024-12-20T16:48:07.579Z,65054,-0.044921875,-0.12579346,-0.007080078
1734713287587,2024-12-20T16:48:07.587Z,65062,-0.037841797,-0.11828613,-0.020141602
1734713287594,2024-12-20T16:48:07.594Z,65069,-0.032409668,-0.114990234,-0.035888672
1734713287603,2024-12-20T16:48:07.603Z,65078,-0.022644043,-0.11407471,-0.038513184
1734713287612,2024-12-20T16:48:07.612Z,65087,-0.033935547,-0.11212158,-0.027648926
1734713287620,2024-12-20T16:48:07.620Z,65095,-0.03778076,-0.12011719,-0.027160645
1734713287629,2024-12-20T16:48:07.629Z,65104,-0.04034424,-0.1161499,-0.014343262
1734713287637,2024-12-20T16:48:07.637Z,65112,-0.04309082,-0.12188721,-0.013671875
1734713287646,2024-12-20T16:48:07.646Z,65121,-0.039855957,-0.11730957,-0.020324707
1734713287656,2024-12-20T16:48:07.656Z,65131,-0.03265381,-0.11230469,-0.02734375
1734713287665,2024-12-20T16:48:07.665Z,65140,-0.032409668,-0.1105957,-0.03515625
1734713287674,2024-12-20T16:48:07.674Z,65149,-0.031555176,-0.10992432,-0.035888672
1734713287684,2024-12-20T16:48:07.684Z,65159,-0.028442383,-0.112854004,-0.026000977
1734713287692,2024-12-20T16:48:07.692Z,65167,-0.03955078,-0.11352539,-0.016784668
1734713287699,2024-12-20T16:48:07.699Z,65174,-0.040283203,-0.11743164,-0.008911133
1734713287707,2024-12-20T16:48:07.707Z,65182,-0.040893555,-0.11621094,-0.010803223
1734713287716,2024-12-20T16:48:07.716Z,65191,-0.035888672,-0.11273193,-0.01751709
1734713287726,2024-12-20T16:48:07.726Z,65201,-0.032714844,-0.11029053,-0.026794434
1734713287734,2024-12-20T16:48:07.734Z,65209,-0.0234375,-0.11010742,-0.032470703
1734713287743,2024-12-20T16:48:07.743Z,65218,-0.027526855,-0.10772705,-0.028259277
1734713287752,2024-12-20T16:48:07.752Z,65227,-0.031433105,-0.11340332,-0.028381348
1734713287763,2024-12-20T16:48:07.763Z,65238,-0.033691406,-0.113220215,-0.019714355
1734713287772,2024-12-20T16:48:07.772Z,65247,-0.034179688,-0.11743164,-0.009887695
1734713287781,2024-12-20T16:48:07.781Z,65256,-0.03845215,-0.11871338,-0.011657715
1734713287790,2024-12-20T16:48:07.790Z,65265,-0.03326416,-0.11779785,-0.01965332
1734713287803,2024-12-20T16:48:07.803Z,65278,-0.026245117,-0.11462402,-0.029052734
1734713287819,2024-12-20T16:48:07.819Z,65294,-0.034973145,-0.109558105,-0.04095459
1734713287899,2024-12-20T16:48:07.899Z,65374,-0.031555176,-0.115478516,-0.031921387
1734713287908,2024-12-20T16:48:07.908Z,65383,-0.038330078,-0.12164307,-0.018859863
1734713287918,2024-12-20T16:48:07.918Z,65393,-0.05090332,-0.12542725,-0.010131836
1734713287927,2024-12-20T16:48:07.927Z,65402,-0.04840088,-0.12261963,-0.017028809
1734713287936,2024-12-20T16:48:07.936Z,65411,-0.038635254,-0.1217041,-0.016540527
1734713287946,2024-12-20T16:48:07.946Z,65421,-0.037475586,-0.122558594,-0.023803711
1734713287953,2024-12-20T16:48:07.953Z,65428,-0.027954102,-0.12030029,-0.03845215
1734713287963,2024-12-20T16:48:07.963Z,65438,-0.030822754,-0.11328125,-0.03515625
1734713287972,2024-12-20T16:48:07.972Z,65447,-0.03668213,-0.12310791,-0.030151367
1734713287985,2024-12-20T16:48:07.985Z,65460,-0.036499023,-0.12420654,-0.021057129
1734713287993,2024-12-20T16:48:07.993Z,65468,-0.041625977,-0.12402344,-0.015075684
1734713287997,2024-12-20T16:48:07.997Z,65472,-0.0335083,-0.11859131,-0.030456543
1734713288006,2024-12-20T16:48:08.006Z,65481,-0.030029297,-0.11444092,-0.03173828
1734713288015,2024-12-20T16:48:08.015Z,65490,-0.040649414,-0.11126709,-0.029418945
1734713288025,2024-12-20T16:48:08.025Z,65500,-0.032043457,-0.1227417,-0.0234375
1734713288035,2024-12-20T16:48:08.035Z,65510,-0.030334473,-0.1149292,-0.021484375
1734713288045,2024-12-20T16:48:08.045Z,65520,-0.03942871,-0.11828613,-0.011169434
1734713288053,2024-12-20T16:48:08.053Z,65528,-0.04260254,-0.12194824,-0.007751465
1734713288062,2024-12-20T16:48:08.062Z,65537,-0.036315918,-0.11798096,-0.01159668
1734713288072,2024-12-20T16:48:08.072Z,65547,-0.034057617,-0.11376953,-0.018920898
1734713288081,2024-12-20T16:48:08.081Z,65556,-0.030395508,-0.111450195,-0.029052734
1734713288090,2024-12-20T16:48:08.090Z,65565,-0.028198242,-0.107543945,-0.031921387
1734713288099,2024-12-20T16:48:08.099Z,65574,-0.031982422,-0.110839844,-0.020080566
1734713288108,2024-12-20T16:48:08.108Z,65583,-0.035339355,-0.11730957,-0.014953613
1734713288116,2024-12-20T16:48:08.116Z,65591,-0.030944824,-0.113586426,-0.012023926
1734713288126,2024-12-20T16:48:08.126Z,65601,-0.0357666,-0.11407471,-0.012573242
1734713288139,2024-12-20T16:48:08.139Z,65614,-0.029418945,-0.114990234,-0.019042969
1734713288148,2024-12-20T16:48:08.148Z,65623,-0.034179688,-0.10888672,-0.022949219
1734713288165,2024-12-20T16:48:08.165Z,65640,-0.03387451,-0.11254883,-0.028564453
1734713288209,2024-12-20T16:48:08.209Z,65684,-0.027648926,-0.11456299,-0.028076172
1734713288217,2024-12-20T16:48:08.217Z,65692,-0.029418945,-0.11590576,-0.019104004
1734713288226,2024-12-20T16:48:08.226Z,65701,-0.041931152,-0.12072754,-0.0048217773
1734713288234,2024-12-20T16:48:08.234Z,65709,-0.039733887,-0.12646484,-0.0048828125
1734713288243,2024-12-20T16:48:08.243Z,65718,-0.036132812,-0.119262695,-0.013000488
1734713288250,2024-12-20T16:48:08.250Z,65725,-0.042053223,-0.11627197,-0.020446777
1734713288300,2024-12-20T16:48:08.300Z,65775,-0.03729248,-0.118652344,-0.024658203
1734713288309,2024-12-20T16:48:08.309Z,65784,-0.028381348,-0.11828613,-0.03173828
1734713288316,2024-12-20T16:48:08.316Z,65791,-0.032470703,-0.11859131,-0.024047852
1734713288325,2024-12-20T16:48:08.325Z,65800,-0.0390625,-0.12866211,-0.013183594
1734713288335,2024-12-20T16:48:08.335Z,65810,-0.039245605,-0.12896729,-0.0087890625
1734713288342,2024-12-20T16:48:08.342Z,65817,-0.043273926,-0.12591553,-0.00982666
1734713288346,2024-12-20T16:48:08.346Z,65821,-0.039733887,-0.121520996,-0.023742676
1734713288355,2024-12-20T16:48:08.355Z,65830,-0.037719727,-0.13110352,-0.04083252
1734713288363,2024-12-20T16:48:08.363Z,65838,-0.03643799,-0.12756348,-0.033813477
1734713288371,2024-12-20T16:48:08.371Z,65846,-0.051757812,-0.13421631,-0.027404785
1734713288379,2024-12-20T16:48:08.379Z,65854,-0.051757812,-0.14141846,-0.022033691
1734713288389,2024-12-20T16:48:08.389Z,65864,-0.053222656,-0.1416626,-0.0119018555
1734713288397,2024-12-20T16:48:08.397Z,65872,-0.03955078,-0.14025879,-0.037841797
1734713288406,2024-12-20T16:48:08.406Z,65881,-0.043640137,-0.14508057,-0.028076172
1734713288414,2024-12-20T16:48:08.414Z,65889,-0.047607422,-0.14526367,-0.025756836
1734713288422,2024-12-20T16:48:08.422Z,65897,-0.057128906,-0.14257812,-0.017028809
1734713288430,2024-12-20T16:48:08.430Z,65905,-0.06011963,-0.14025879,-0.02355957
1734713288440,2024-12-20T16:48:08.440Z,65915,-0.052612305,-0.14050293,-0.020507812
1734713288448,2024-12-20T16:48:08.448Z,65923,-0.034179688,-0.1416626,-0.039978027
1734713288456,2024-12-20T16:48:08.456Z,65931,-0.033081055,-0.12689209,-0.059570312
1734713288465,2024-12-20T16:48:08.465Z,65940,-0.024230957,-0.12896729,-0.05090332
1734713288474,2024-12-20T16:48:08.474Z,65949,-0.042907715,-0.13220215,-0.026123047
1734713288483,2024-12-20T16:48:08.483Z,65958,-0.053894043,-0.13452148,-0.028076172
1734713288491,2024-12-20T16:48:08.491Z,65966,-0.041015625,-0.12921143,-0.01928711
1734713288499,2024-12-20T16:48:08.499Z,65974,-0.049987793,-0.13128662,-0.004333496
1734713288508,2024-12-20T16:48:08.508Z,65983,-0.035461426,-0.13690186,-0.03289795
1734713288518,2024-12-20T16:48:08.518Z,65993,-0.0078125,-0.12451172,-0.031188965
1734713288527,2024-12-20T16:48:08.527Z,66002,-0.04309082,-0.118896484,-0.03668213
1734713288536,2024-12-20T16:48:08.536Z,66011,-0.048828125,-0.124694824,-0.03289795
1734713288547,2024-12-20T16:48:08.547Z,66022,-0.03515625,-0.12335205,-0.029785156
1734713288557,2024-12-20T16:48:08.557Z,66032,-0.03527832,-0.119140625,-0.023742676
1734713288565,2024-12-20T16:48:08.565Z,66040,-0.052001953,-0.12030029,-0.008728027
1734713288573,2024-12-20T16:48:08.573Z,66048,-0.03692627,-0.12384033,-0.022644043
1734713288613,2024-12-20T16:48:08.613Z,66088,-0.007507324,-0.12390137,-0.031188965
1734713288659,2024-12-20T16:48:08.659Z,66134,-0.037719727,-0.109558105,-0.041381836
1734713288666,2024-12-20T16:48:08.666Z,66141,-0.043395996,-0.11395264,-0.051086426
1734713288674,2024-12-20T16:48:08.674Z,66149,-0.004760742,-0.12036133,-0.046813965
1734713288683,2024-12-20T16:48:08.683Z,66158,-0.03930664,-0.103637695,-0.026733398
1734713288691,2024-12-20T16:48:08.691Z,66166,-0.059326172,-0.11578369,-0.014404297
1734713288699,2024-12-20T16:48:08.699Z,66174,-0.05731201,-0.115478516,0.0134887695
1734713288707,2024-12-20T16:48:08.707Z,66182,-0.04345703,-0.12854004,-6.713867E-4
1734713288714,2024-12-20T16:48:08.714Z,66189,-0.02532959,-0.11730957,-0.03942871
1734713288721,2024-12-20T16:48:08.721Z,66196,-0.014282227,-0.11047363,-0.026916504
1734713288729,2024-12-20T16:48:08.729Z,66204,-0.029174805,-0.11853027,-0.05493164
1734713288737,2024-12-20T16:48:08.737Z,66212,-0.016601562,-0.113220215,-0.04724121
1734713288749,2024-12-20T16:48:08.749Z,66224,-0.04724121,-0.10888672,-0.015136719
1734713288752,2024-12-20T16:48:08.752Z,66227,-0.035705566,-0.12384033,-0.012756348
1734713288759,2024-12-20T16:48:08.759Z,66234,-0.010620117,-0.12524414,-0.042053223
1734713288768,2024-12-20T16:48:08.768Z,66243,-0.034118652,-0.11071777,-0.047729492
1734713288776,2024-12-20T16:48:08.776Z,66251,-0.05609131,-0.111816406,-0.05895996
1734713288783,2024-12-20T16:48:08.783Z,66258,-0.04058838,-0.124572754,-0.021850586
1734713288793,2024-12-20T16:48:08.793Z,66268,-0.070251465,-0.11755371,-0.0099487305
1734713288800,2024-12-20T16:48:08.800Z,66275,-0.054504395,-0.12445068,-0.0078125
1734713288808,2024-12-20T16:48:08.808Z,66283,-0.06317139,-0.11584473,-0.02355957
1734713288816,2024-12-20T16:48:08.816Z,66291,-0.023742676,-0.122924805,-0.06365967
1734713288824,2024-12-20T16:48:08.824Z,66299,0.0025024414,-0.12109375,-0.03564453
1734713288832,2024-12-20T16:48:08.832Z,66307,-0.0637207,-0.11053467,-0.03387451
1734713288844,2024-12-20T16:48:08.844Z,66319,-0.05090332,-0.12414551,-0.040527344
1734713288852,2024-12-20T16:48:08.852Z,66327,-0.05847168,-0.11053467,-0.019897461
1734713288860,2024-12-20T16:48:08.860Z,66335,-0.07849121,-0.12030029,0.0068359375
1734713288868,2024-12-20T16:48:08.868Z,66343,-0.066345215,-0.12145996,-0.02746582
1734713288936,2024-12-20T16:48:08.936Z,66411,-0.002319336,-0.12084961,-0.03765869
1734713288945,2024-12-20T16:48:08.945Z,66420,-0.012512207,-0.12164307,-0.030151367
1734713288957,2024-12-20T16:48:08.957Z,66432,-0.04510498,-0.10699463,-0.054992676
1734713288975,2024-12-20T16:48:08.975Z,66450,-0.046813965,-0.11090088,-0.051086426
1734713288983,2024-12-20T16:48:08.983Z,66458,-0.039916992,-0.11450195,-0.038146973
1734713288992,2024-12-20T16:48:08.992Z,66467,-0.04675293,-0.11102295,-0.031433105
1734713289065,2024-12-20T16:48:09.065Z,66540,-0.07458496,-0.11279297,-0.007873535
1734713289074,2024-12-20T16:48:09.074Z,66549,-0.07409668,-0.11773682,-0.016174316
1734713289082,2024-12-20T16:48:09.082Z,66557,-0.027832031,-0.11975098,-0.033447266
1734713289092,2024-12-20T16:48:09.092Z,66567,-0.036193848,-0.11065674,-0.032714844
1734713289101,2024-12-20T16:48:09.101Z,66576,-0.06121826,-0.10266113,-0.047607422
1734713289109,2024-12-20T16:48:09.109Z,66584,-0.033447266,-0.10882568,-0.047790527
1734713289117,2024-12-20T16:48:09.117Z,66592,-0.050964355,-0.097961426,-0.029052734
1734713289124,2024-12-20T16:48:09.124Z,66599,-0.06304932,-0.107910156,-0.03289795
1734713289131,2024-12-20T16:48:09.131Z,66606,-0.042053223,-0.11224365,0.0015258789
1734713289139,2024-12-20T16:48:09.139Z,66614,-0.044189453,-0.11328125,-0.0010375977
1734713289148,2024-12-20T16:48:09.148Z,66623,-0.040771484,-0.11010742,-0.038330078
1734713289340,2024-12-20T16:48:09.340Z,66815,-0.037109375,-0.09906006,-0.028869629
1734713289345,2024-12-20T16:48:09.345Z,66820,-0.02319336,-0.10461426,-0.025878906
1734713289354,2024-12-20T16:48:09.354Z,66829,-0.0524292,-0.10217285,-0.030090332
1734713289363,2024-12-20T16:48:09.363Z,66838,-0.061767578,-0.09124756,-0.037841797
1734713289372,2024-12-20T16:48:09.372Z,66847,-0.0446167,-0.091552734,-0.03643799
1734713289382,2024-12-20T16:48:09.382Z,66857,-0.046569824,-0.101257324,-0.0289917
1734713289391,2024-12-20T16:48:09.391Z,66866,-0.03161621,-0.107788086,-0.0234375
1734713289401,2024-12-20T16:48:09.401Z,66876,-0.01574707,-0.11462402,-0.04272461
1734713289410,2024-12-20T16:48:09.410Z,66885,-0.018554688,-0.093322754,-0.044921875
1734713289419,2024-12-20T16:48:09.419Z,66894,-0.052612305,-0.08392334,-0.038269043
1734713289428,2024-12-20T16:48:09.428Z,66903,-0.035461426,-0.10668945,-0.03942871
1734713289435,2024-12-20T16:48:09.435Z,66910,-0.058776855,-0.10144043,-0.019958496
1734713289442,2024-12-20T16:48:09.442Z,66917,-0.041503906,-0.0982666,-0.03955078
1734713289450,2024-12-20T16:48:09.450Z,66925,-0.03302002,-0.091308594,-0.036254883
1734713289457,2024-12-20T16:48:09.457Z,66932,-0.05206299,-0.085754395,-0.035888672
1734713289464,2024-12-20T16:48:09.464Z,66939,-0.028320312,-0.10290527,-0.021606445
1734713289472,2024-12-20T16:48:09.472Z,66947,-0.041748047,-0.109191895,-0.0053100586
1734713289514,2024-12-20T16:48:09.514Z,66989,-0.052490234,-0.10888672,-0.024780273
1734713289524,2024-12-20T16:48:09.524Z,66999,-0.03894043,-0.10656738,-0.036865234
1734713289534,2024-12-20T16:48:09.534Z,67009,-0.06237793,-0.097595215,-0.04333496
1734713289546,2024-12-20T16:48:09.546Z,67021,-0.06549072,-0.10406494,-0.03289795
1734713289557,2024-12-20T16:48:09.557Z,67032,-0.036987305,-0.115234375,-0.024719238
1734713289570,2024-12-20T16:48:09.570Z,67045,-0.024414062,-0.11315918,-0.04144287
1734713289578,2024-12-20T16:48:09.578Z,67053,0.013183594,-0.12854004,-0.04901123
1734713289586,2024-12-20T16:48:09.586Z,67061,-0.020446777,-0.12036133,-0.040771484
1734713289594,2024-12-20T16:48:09.594Z,67069,-0.054260254,-0.11401367,-0.03668213
1734713289602,2024-12-20T16:48:09.602Z,67077,-0.06274414,-0.11755371,-0.025939941
1734713289611,2024-12-20T16:48:09.611Z,67086,-0.06109619,-0.12731934,-0.0234375
1734713289619,2024-12-20T16:48:09.619Z,67094,-0.057434082,-0.11798096,-0.015319824
1734713289623,2024-12-20T16:48:09.623Z,67098,-0.022033691,-0.11682129,-0.016906738
1734713289632,2024-12-20T16:48:09.632Z,67107,-0.021972656,-0.11090088,-0.03765869
1734713289640,2024-12-20T16:48:09.640Z,67115,-0.009399414,-0.11566162,-0.062072754
1734713289653,2024-12-20T16:48:09.653Z,67128,-0.005859375,-0.11053467,-0.034362793
1734713289661,2024-12-20T16:48:09.661Z,67136,-0.048706055,-0.11035156,-0.028137207
1734713289672,2024-12-20T16:48:09.672Z,67147,-0.044189453,-0.10473633,-0.033203125
1734713289680,2024-12-20T16:48:09.680Z,67155,-0.04309082,-0.09320068,-0.024414062
1734713289688,2024-12-20T16:48:09.688Z,67163,-0.047424316,-0.105529785,-0.003540039
1734713289696,2024-12-20T16:48:09.696Z,67171,-0.030273438,-0.10913086,-0.022460938
1734713289703,2024-12-20T16:48:09.703Z,67178,-0.013183594,-0.093566895,-0.0423584
1734713289740,2024-12-20T16:48:09.740Z,67215,-0.009460449,-0.095581055,-0.05316162
1734713289748,2024-12-20T16:48:09.748Z,67223,-0.0025634766,-0.10821533,-0.03778076
1734713289756,2024-12-20T16:48:09.756Z,67231,-0.039794922,-0.09387207,-0.043395996
1734713289766,2024-12-20T16:48:09.766Z,67241,-0.03540039,-0.097473145,-0.029418945
1734713289830,2024-12-20T16:48:09.830Z,67305,-0.03704834,-0.11254883,-0.0072631836
1734713289839,2024-12-20T16:48:09.839Z,67314,-0.058044434,-0.11364746,-0.01373291
1734713289846,2024-12-20T16:48:09.846Z,67321,-0.034240723,-0.1104126,-0.024780273
1734713289854,2024-12-20T16:48:09.854Z,67329,-0.02166748,-0.11407471,-0.029907227
1734713289862,2024-12-20T16:48:09.862Z,67337,-0.028747559,-0.109191895,-0.057617188
1734713289870,2024-12-20T16:48:09.870Z,67345,-0.021362305,-0.10247803,-0.072631836
1734713289878,2024-12-20T16:48:09.878Z,67353,-0.021728516,-0.11541748,-0.039916992
1734713289885,2024-12-20T16:48:09.885Z,67360,-0.0413208,-0.12689209,-0.011047363
1734713289893,2024-12-20T16:48:09.893Z,67368,-0.044433594,-0.12542725,-0.019897461
1734713289901,2024-12-20T16:48:09.901Z,67376,-0.037109375,-0.124938965,-0.0256958
1734713289909,2024-12-20T16:48:09.909Z,67384,-0.038513184,-0.12225342,-0.040283203
1734713289919,2024-12-20T16:48:09.919Z,67394,-0.035705566,-0.11828613,-0.049987793
1734713289923,2024-12-20T16:48:09.923Z,67398,-0.028808594,-0.11553955,-0.02758789
1734713289931,2024-12-20T16:48:09.931Z,67406,-0.053466797,-0.113342285,-0.018188477
1734713289947,2024-12-20T16:48:09.947Z,67422,-0.029541016,-0.11987305,-0.004699707
1734713289962,2024-12-20T16:48:09.962Z,67437,-0.03100586,-0.11584473,-0.020935059
1734713289971,2024-12-20T16:48:09.971Z,67446,-0.03930664,-0.09991455,-0.048950195
1734713290009,2024-12-20T16:48:10.009Z,67484,-0.010864258,-0.10687256,-0.04699707
1734713290016,2024-12-20T16:48:10.016Z,67491,-0.018188477,-0.10784912,-0.05480957
1734713290024,2024-12-20T16:48:10.024Z,67499,-0.014160156,-0.10882568,-0.04663086
1734713290031,2024-12-20T16:48:10.031Z,67506,-0.014404297,-0.11553955,-0.034179688
1734713290038,2024-12-20T16:48:10.038Z,67513,-0.036071777,-0.11816406,-0.020202637
1734713290058,2024-12-20T16:48:10.058Z,67533,-0.058776855,-0.11206055,-0.014709473
1734713290067,2024-12-20T16:48:10.067Z,67542,-0.050598145,-0.11273193,-0.030517578
1734713290073,2024-12-20T16:48:10.073Z,67548,-0.033203125,-0.11035156,-0.03491211
1734713290080,2024-12-20T16:48:10.080Z,67555,-0.042114258,-0.10223389,-0.05419922
1734713290088,2024-12-20T16:48:10.088Z,67563,-0.018371582,-0.114746094,-0.04510498
1734713290146,2024-12-20T16:48:10.146Z,67621,-0.0119018555,-0.121398926,-0.034362793
1734713290155,2024-12-20T16:48:10.155Z,67630,-0.030090332,-0.11871338,-0.027770996
1734713290159,2024-12-20T16:48:10.159Z,67634,-0.04425049,-0.11633301,-0.022827148
1734713290168,2024-12-20T16:48:10.168Z,67643,-0.059143066,-0.11517334,-0.027893066
1734713290175,2024-12-20T16:48:10.175Z,67650,-0.056396484,-0.11218262,-0.03137207
1734713290183,2024-12-20T16:48:10.183Z,67658,-0.04748535,-0.10949707,-0.037231445
1734713290190,2024-12-20T16:48:10.190Z,67665,-0.02911377,-0.12133789,-0.05505371
1734713290234,2024-12-20T16:48:10.234Z,67709,-0.01739502,-0.103515625,-0.045166016
1734713290242,2024-12-20T16:48:10.242Z,67717,-0.038757324,-0.107543945,-0.04107666
1734713290250,2024-12-20T16:48:10.250Z,67725,-0.048095703,-0.11254883,-0.030151367
1734713290257,2024-12-20T16:48:10.257Z,67732,-0.04626465,-0.10803223,-0.028869629
1734713290266,2024-12-20T16:48:10.266Z,67741,-0.047851562,-0.105773926,-0.03375244
1734713290273,2024-12-20T16:48:10.273Z,67748,-0.049743652,-0.10412598,-0.027038574
1734713290284,2024-12-20T16:48:10.284Z,67759,-0.039733887,-0.10601807,-0.03161621
1734713290293,2024-12-20T16:48:10.293Z,67768,-0.040100098,-0.09887695,-0.033813477
1734713290301,2024-12-20T16:48:10.301Z,67776,-0.041809082,-0.09655762,-0.04309082
1734713290308,2024-12-20T16:48:10.308Z,67783,-0.041259766,-0.09552002,-0.049682617
1734713290316,2024-12-20T16:48:10.316Z,67791,-0.026367188,-0.10491943,-0.030944824
1734713290327,2024-12-20T16:48:10.327Z,67802,-0.0368042,-0.10845947,-0.028503418
1734713290334,2024-12-20T16:48:10.334Z,67809,-0.04284668,-0.105529785,-0.019042969
1734713290417,2024-12-20T16:48:10.417Z,67892,-0.047424316,-0.09423828,-0.03967285
1734713290427,2024-12-20T16:48:10.427Z,67902,-0.05316162,-0.08258057,-0.066833496
1734713290436,2024-12-20T16:48:10.436Z,67911,-0.015563965,-0.10235596,-0.032165527
1734713290445,2024-12-20T16:48:10.445Z,67920,-0.02142334,-0.11376953,-0.021118164
1734713290455,2024-12-20T16:48:10.455Z,67930,-0.034729004,-0.1026001,-0.022094727
1734713290464,2024-12-20T16:48:10.464Z,67939,-0.036010742,-0.09564209,-0.013305664
1734713290472,2024-12-20T16:48:10.472Z,67947,-0.042297363,-0.09716797,-0.018920898
1734713290479,2024-12-20T16:48:10.479Z,67954,-0.053100586,-0.1027832,-0.051635742
1734713290487,2024-12-20T16:48:10.487Z,67962,-0.032409668,-0.09246826,-0.030212402
1734713290493,2024-12-20T16:48:10.493Z,67968,-0.034179688,-0.10180664,-0.021484375
1734713290501,2024-12-20T16:48:10.501Z,67976,-0.027404785,-0.11450195,-0.030944824
1734713290505,2024-12-20T16:48:10.505Z,67980,-0.039245605,-0.089904785,-0.03942871
1734713290509,2024-12-20T16:48:10.509Z,67984,-0.042175293,-0.09350586,-0.046447754
1734713290517,2024-12-20T16:48:10.517Z,67992,-0.027526855,-0.090148926,-0.03918457
1734713290527,2024-12-20T16:48:10.527Z,68002,-0.025634766,-0.10852051,-0.043518066
1734713290534,2024-12-20T16:48:10.534Z,68009,-0.027770996,-0.1038208,-0.020446777
1734713290541,2024-12-20T16:48:10.541Z,68016,-0.03289795,-0.113220215,-0.0037841797
1734713290551,2024-12-20T16:48:10.551Z,68026,-0.04296875,-0.117614746,-0.019104004
1734713290558,2024-12-20T16:48:10.558Z,68033,-0.039001465,-0.09887695,-0.022521973
1734713290564,2024-12-20T16:48:10.564Z,68039,-0.03778076,-0.103393555,-0.033081055
1734713290571,2024-12-20T16:48:10.571Z,68046,-0.025146484,-0.1116333,-0.05670166
1734713290579,2024-12-20T16:48:10.579Z,68054,0.0037231445,-0.097839355,-0.04724121
1734713290593,2024-12-20T16:48:10.593Z,68068,-0.019226074,-0.11010742,-0.02746582
1734713290601,2024-12-20T16:48:10.601Z,68076,-0.043395996,-0.109375,-0.016845703
1734713290610,2024-12-20T16:48:10.610Z,68085,-0.029663086,-0.11138916,-0.010498047
1734713290644,2024-12-20T16:48:10.644Z,68119,-0.043029785,-0.107177734,-0.02319336
1734713290650,2024-12-20T16:48:10.650Z,68125,-0.043518066,-0.10083008,-0.016784668
1734713290656,2024-12-20T16:48:10.656Z,68131,-0.024780273,-0.113220215,-0.03503418
1734713290663,2024-12-20T16:48:10.663Z,68138,-0.013122559,-0.10644531,-0.039001465
1734713290670,2024-12-20T16:48:10.670Z,68145,-0.020690918,-0.10003662,-0.03125
1734713290729,2024-12-20T16:48:10.729Z,68204,-0.023803711,-0.111694336,-0.032287598
1734713290736,2024-12-20T16:48:10.736Z,68211,-0.03375244,-0.10772705,-0.02520752
1734713290744,2024-12-20T16:48:10.744Z,68219,-0.037963867,-0.10614014,-0.014709473
1734713290752,2024-12-20T16:48:10.752Z,68227,-0.033813477,-0.11883545,-0.007507324
1734713290760,2024-12-20T16:48:10.760Z,68235,-0.027709961,-0.12695312,-0.013916016
1734713290768,2024-12-20T16:48:10.768Z,68243,-0.031799316,-0.11218262,-0.036132812
1734713290778,2024-12-20T16:48:10.778Z,68253,-0.023864746,-0.11425781,-0.056640625
1734713290785,2024-12-20T16:48:10.785Z,68260,-0.017150879,-0.1184082,-0.032836914
1734713290792,2024-12-20T16:48:10.792Z,68267,-0.043762207,-0.11608887,-0.014770508
1734713290799,2024-12-20T16:48:10.799Z,68274,-0.0501709,-0.12683105,-0.0028686523
1734713290806,2024-12-20T16:48:10.806Z,68281,-0.052734375,-0.119628906,-0.014587402
1734713290864,2024-12-20T16:48:10.864Z,68339,-0.033203125,-0.11694336,-0.026611328
1734713290868,2024-12-20T16:48:10.868Z,68343,-0.03643799,-0.11364746,-0.04333496
1734713290876,2024-12-20T16:48:10.876Z,68351,-0.03149414,-0.11254883,-0.051086426
1734713290883,2024-12-20T16:48:10.883Z,68358,-0.024047852,-0.11303711,-0.050048828
1734713290892,2024-12-20T16:48:10.892Z,68367,-0.056762695,-0.10803223,-0.04260254
1734713290901,2024-12-20T16:48:10.901Z,68376,-0.045043945,-0.12695312,-3.0517578E-4
1734713290909,2024-12-20T16:48:10.909Z,68384,-0.014770508,-0.13879395,-0.03491211
1734713290916,2024-12-20T16:48:10.916Z,68391,-0.012207031,-0.10925293,-0.05102539
1734713290923,2024-12-20T16:48:10.923Z,68398,-0.020812988,-0.11450195,-0.031188965
1734713290930,2024-12-20T16:48:10.930Z,68405,-0.06500244,-0.10992432,-0.057006836
1734713290937,2024-12-20T16:48:10.937Z,68412,-0.06524658,-0.10015869,-0.040771484
1734713290944,2024-12-20T16:48:10.944Z,68419,-0.055236816,-0.12225342,-0.0059814453
1734713290956,2024-12-20T16:48:10.956Z,68431,-0.044555664,-0.109680176,-0.058044434
1734713290962,2024-12-20T16:48:10.962Z,68437,-0.031982422,-0.10192871,-0.030822754
1734713290998,2024-12-20T16:48:10.998Z,68473,-0.036621094,-0.11633301,-0.031555176
1734713291004,2024-12-20T16:48:11.004Z,68479,-0.04498291,-0.11016846,-0.03552246
1734713291012,2024-12-20T16:48:11.012Z,68487,-0.02557373,-0.10021973,-0.028625488
1734713291019,2024-12-20T16:48:11.019Z,68494,-0.03161621,-0.113708496,-0.035339355
1734713291027,2024-12-20T16:48:11.027Z,68502,-0.03125,-0.1071167,-0.048339844
1734713291034,2024-12-20T16:48:11.034Z,68509,-0.0099487305,-0.11633301,-0.019042969
1734713291048,2024-12-20T16:48:11.048Z,68523,-0.038146973,-0.12060547,-0.029174805
1734713291055,2024-12-20T16:48:11.055Z,68530,-0.04296875,-0.10852051,-0.03765869
1734713291064,2024-12-20T16:48:11.064Z,68539,-0.04840088,-0.11248779,-0.022888184
1734713291070,2024-12-20T16:48:11.070Z,68545,-0.06121826,-0.121520996,-0.026306152
1734713291077,2024-12-20T16:48:11.077Z,68552,-0.034362793,-0.11419678,-0.020751953
1734713291087,2024-12-20T16:48:11.087Z,68562,-0.024414062,-0.117370605,-0.019897461
1734713291094,2024-12-20T16:48:11.094Z,68569,-0.020263672,-0.12670898,-0.027160645
1734713291101,2024-12-20T16:48:11.101Z,68576,-0.020568848,-0.11273193,-0.04840088
1734713291108,2024-12-20T16:48:11.108Z,68583,-0.040222168,-0.11706543,-0.03869629
1734713291117,2024-12-20T16:48:11.117Z,68592,-0.053466797,-0.12390137,-0.038330078
1734713291125,2024-12-20T16:48:11.125Z,68600,-0.040527344,-0.12298584,-0.024353027
1734713291140,2024-12-20T16:48:11.140Z,68615,-0.052734375,-0.12628174,-0.023803711
1734713291149,2024-12-20T16:48:11.149Z,68624,-0.035461426,-0.13104248,-0.016357422
1734713291157,2024-12-20T16:48:11.157Z,68632,-0.03881836,-0.125,-0.032470703
1734713291165,2024-12-20T16:48:11.165Z,68640,-0.018066406,-0.13024902,-0.036254883
1734713291171,2024-12-20T16:48:11.171Z,68646,-0.032226562,-0.12902832,-0.030700684
1734713291179,2024-12-20T16:48:11.179Z,68654,-0.059143066,-0.118652344,-0.05279541
1734713291186,2024-12-20T16:48:11.186Z,68661,-0.04748535,-0.12036133,-0.046813965
1734713291195,2024-12-20T16:48:11.195Z,68670,-0.036010742,-0.12731934,-0.03479004
1734713291202,2024-12-20T16:48:11.202Z,68677,-0.049926758,-0.1260376,-0.017456055
1734713291210,2024-12-20T16:48:11.210Z,68685,-0.029724121,-0.13659668,-0.009155273
1734713291218,2024-12-20T16:48:11.218Z,68693,-0.010192871,-0.13879395,-0.039489746
1734713291230,2024-12-20T16:48:11.230Z,68705,-0.009399414,-0.13067627,-0.042541504
1734713291238,2024-12-20T16:48:11.238Z,68713,-0.05621338,-0.11010742,-0.042663574
1734713291245,2024-12-20T16:48:11.245Z,68720,-0.045776367,-0.1237793,-0.045288086
1734713291252,2024-12-20T16:48:11.252Z,68727,-0.040283203,-0.121276855,-0.03942871
1734713291273,2024-12-20T16:48:11.273Z,68748,-0.05456543,-0.1149292,-0.017822266
1734713291281,2024-12-20T16:48:11.281Z,68756,-0.02557373,-0.13696289,-0.014770508
1734713291287,2024-12-20T16:48:11.287Z,68762,-0.018737793,-0.12841797,-0.015136719
1734713291295,2024-12-20T16:48:11.295Z,68770,-0.011352539,-0.13171387,-0.00970459
1734713291301,2024-12-20T16:48:11.301Z,68776,-0.033569336,-0.12695312,-0.039245605
1734713291314,2024-12-20T16:48:11.314Z,68789,-0.06500244,-0.107055664,-0.046936035
1734713291323,2024-12-20T16:48:11.323Z,68798,-0.04559326,-0.1217041,-0.037231445
1734713291330,2024-12-20T16:48:11.330Z,68805,-0.01965332,-0.12756348,-0.038146973
1734713291337,2024-12-20T16:48:11.337Z,68812,-0.017211914,-0.122924805,-0.02319336
1734713291345,2024-12-20T16:48:11.345Z,68820,-0.008666992,-0.13452148,-0.018432617
1734713291359,2024-12-20T16:48:11.359Z,68834,-0.015930176,-0.12701416,-0.018371582
1734713291366,2024-12-20T16:48:11.366Z,68841,-0.03302002,-0.119384766,-0.015808105
1734713291373,2024-12-20T16:48:11.373Z,68848,-0.07354736,-0.114746094,-0.029907227
1734713291381,2024-12-20T16:48:11.381Z,68856,-0.020080566,-0.12597656,-0.033691406
1734713291388,2024-12-20T16:48:11.388Z,68863,-0.014282227,-0.12365723,-0.037597656
1734713291402,2024-12-20T16:48:11.402Z,68877,-0.021362305,-0.12359619,-0.04626465
1734713291410,2024-12-20T16:48:11.410Z,68885,0.004760742,-0.13604736,-0.032043457
1734713291417,2024-12-20T16:48:11.417Z,68892,-0.02557373,-0.12927246,0.0045166016
1734713291423,2024-12-20T16:48:11.423Z,68898,-0.06213379,-0.12145996,-0.010986328
1734713291449,2024-12-20T16:48:11.449Z,68924,-0.03326416,-0.120910645,-0.026245117
1734713291496,2024-12-20T16:48:11.496Z,68971,-0.045959473,-0.12005615,-0.026611328
1734713291506,2024-12-20T16:48:11.506Z,68981,-0.030883789,-0.12451172,-0.0524292
1734713291515,2024-12-20T16:48:11.515Z,68990,4.8828125E-4,-0.12841797,-0.056274414
1734713291524,2024-12-20T16:48:11.524Z,68999,-0.018127441,-0.13140869,-0.014343262
1734713291533,2024-12-20T16:48:11.533Z,69008,-0.038879395,-0.13873291,-0.0032348633
1734713291541,2024-12-20T16:48:11.541Z,69016,-0.02532959,-0.12878418,-0.006713867
1734713291635,2024-12-20T16:48:11.635Z,69110,-0.037963867,-0.12487793,-0.023376465
1734713291643,2024-12-20T16:48:11.643Z,69118,-0.057617188,-0.114990234,-0.021911621
1734713291650,2024-12-20T16:48:11.650Z,69125,-0.026245117,-0.12628174,-0.043884277
1734713291657,2024-12-20T16:48:11.657Z,69132,-0.023132324,-0.12805176,-0.038391113
1734713291666,2024-12-20T16:48:11.666Z,69141,-0.03930664,-0.12567139,-0.024291992
1734713291678,2024-12-20T16:48:11.678Z,69153,-0.025268555,-0.13391113,-0.021484375
1734713291687,2024-12-20T16:48:11.687Z,69162,-0.021606445,-0.13079834,-0.0126953125
1734713291696,2024-12-20T16:48:11.696Z,69171,-0.027526855,-0.1251831,-0.011474609
1734713291705,2024-12-20T16:48:11.705Z,69180,-0.033081055,-0.11975098,-0.020507812
1734713291713,2024-12-20T16:48:11.713Z,69188,-0.045410156,-0.11206055,-0.026733398
1734713291722,2024-12-20T16:48:11.722Z,69197,-0.032592773,-0.11968994,-0.026184082
1734713291729,2024-12-20T16:48:11.729Z,69204,-0.030578613,-0.118896484,-0.013366699
1734713291737,2024-12-20T16:48:11.737Z,69212,-0.043884277,-0.10656738,-0.020263672
1734713291744,2024-12-20T16:48:11.744Z,69219,-0.051208496,-0.109436035,-0.023803711
1734713291750,2024-12-20T16:48:11.750Z,69225,-0.020507812,-0.11883545,-0.034179688
1734713291756,2024-12-20T16:48:11.756Z,69231,-0.009216309,-0.114990234,-0.029174805
1734713291766,2024-12-20T16:48:11.766Z,69241,-0.022216797,-0.121032715,-0.01953125
1734713291772,2024-12-20T16:48:11.772Z,69247,-0.020263672,-0.12310791,-0.016174316
1734713291779,2024-12-20T16:48:11.779Z,69254,-0.038391113,-0.11151123,0.0063476562
1734713291785,2024-12-20T16:48:11.785Z,69260,-0.03918457,-0.12121582,-0.0040283203
1734713291791,2024-12-20T16:48:11.791Z,69266,-0.054748535,-0.112854004,-0.02130127
1734713291807,2024-12-20T16:48:11.807Z,69282,-0.027526855,-0.12054443,-0.010986328
1734713291813,2024-12-20T16:48:11.813Z,69288,-0.02935791,-0.12561035,-0.020935059
1734713291820,2024-12-20T16:48:11.820Z,69295,-0.020080566,-0.12927246,-0.040039062
1734713291827,2024-12-20T16:48:11.827Z,69302,-0.015625,-0.13909912,-0.01184082
1734713291834,2024-12-20T16:48:11.834Z,69309,-0.041381836,-0.13500977,-0.0063476562
1734713291840,2024-12-20T16:48:11.840Z,69315,-0.03894043,-0.13879395,-0.009216309
1734713291860,2024-12-20T16:48:11.860Z,69335,-0.07183838,-0.13366699,0.007385254
1734713291867,2024-12-20T16:48:11.867Z,69342,-0.051696777,-0.14782715,0.001159668
1734713291873,2024-12-20T16:48:11.873Z,69348,-0.061828613,-0.14642334,-0.021118164
1734713291880,2024-12-20T16:48:11.880Z,69355,-0.041748047,-0.15686035,-0.028259277
1734713291888,2024-12-20T16:48:11.888Z,69363,-0.037597656,-0.16418457,-0.024902344
1734713291898,2024-12-20T16:48:11.898Z,69373,-0.038024902,-0.16711426,-0.02154541
1734713291905,2024-12-20T16:48:11.905Z,69380,-0.057739258,-0.15924072,-0.010437012
1734713291944,2024-12-20T16:48:11.944Z,69419,-0.06652832,-0.15789795,-0.0037841797
1734713291990,2024-12-20T16:48:11.990Z,69465,-0.06427002,-0.15618896,-0.009338379
1734713291999,2024-12-20T16:48:11.999Z,69474,-0.05328369,-0.15734863,-0.018005371
1734713292008,2024-12-20T16:48:12.008Z,69483,-0.086242676,-0.14642334,-0.034973145
1734713292018,2024-12-20T16:48:12.018Z,69493,-0.04083252,-0.15765381,-0.047424316
1734713292029,2024-12-20T16:48:12.029Z,69504,-0.031799316,-0.15887451,-0.026733398
1734713292038,2024-12-20T16:48:12.038Z,69513,-0.053955078,-0.14916992,-0.024230957
1734713292046,2024-12-20T16:48:12.046Z,69521,-0.043762207,-0.15344238,-0.013000488
1734713292053,2024-12-20T16:48:12.053Z,69528,-0.05529785,-0.13909912,-0.022338867
1734713292061,2024-12-20T16:48:12.061Z,69536,-0.08026123,-0.12939453,-0.012817383
1734713292068,2024-12-20T16:48:12.068Z,69543,-0.07171631,-0.12554932,-0.03967285
1734713292075,2024-12-20T16:48:12.075Z,69550,-0.015686035,-0.13977051,-0.05596924
1734713292083,2024-12-20T16:48:12.083Z,69558,-0.03479004,-0.13415527,-0.031188965
1734713292089,2024-12-20T16:48:12.089Z,69564,-0.04058838,-0.12963867,-0.02960205
1734713292096,2024-12-20T16:48:12.096Z,69571,-0.025756836,-0.1362915,-0.0037841797
1734713292102,2024-12-20T16:48:12.102Z,69577,-0.057556152,-0.12573242,-5.493164E-4
1734713292109,2024-12-20T16:48:12.109Z,69584,-0.050354004,-0.13110352,-0.012512207
1734713292116,2024-12-20T16:48:12.116Z,69591,-0.050231934,-0.12121582,-0.01739502
1734713292127,2024-12-20T16:48:12.127Z,69602,-0.04333496,-0.120788574,-0.04083252
1734713292133,2024-12-20T16:48:12.133Z,69608,-0.016784668,-0.1260376,-0.06427002
1734713292138,2024-12-20T16:48:12.138Z,69613,-0.024291992,-0.12475586,-0.022766113
1734713292144,2024-12-20T16:48:12.144Z,69619,-0.047058105,-0.12072754,-0.026672363
1734713292151,2024-12-20T16:48:12.151Z,69626,-0.048706055,-0.11804199,-0.02154541
1734713292168,2024-12-20T16:48:12.168Z,69643,-0.058166504,-0.1159668,0.0138549805
1734713292173,2024-12-20T16:48:12.173Z,69648,-0.07495117,-0.12286377,0.0052490234
1734713292179,2024-12-20T16:48:12.179Z,69654,-0.042053223,-0.12414551,-0.04083252
1734713292186,2024-12-20T16:48:12.186Z,69661,-0.005004883,-0.12017822,-0.05291748
1734713292192,2024-12-20T16:48:12.192Z,69667,-0.004760742,-0.115478516,-0.057373047
1734713292199,2024-12-20T16:48:12.199Z,69674,-0.05908203,-0.10534668,-0.051574707
1734713292217,2024-12-20T16:48:12.217Z,69692,-0.07366943,-0.10559082,-0.042541504
1734713292222,2024-12-20T16:48:12.222Z,69697,-0.07159424,-0.10961914,-0.006713867
1734713292229,2024-12-20T16:48:12.229Z,69704,-0.061401367,-0.12310791,-6.713867E-4
1734713292235,2024-12-20T16:48:12.235Z,69710,-0.04083252,-0.12213135,-0.022277832
1734713292241,2024-12-20T16:48:12.241Z,69716,-0.027770996,-0.12213135,-0.03668213
1734713292259,2024-12-20T16:48:12.259Z,69734,7.9345703E-4,-0.12384033,-0.059509277
1734713292266,2024-12-20T16:48:12.266Z,69741,-0.025878906,-0.111572266,-0.030639648
1734713292272,2024-12-20T16:48:12.272Z,69747,-0.07183838,-0.109558105,-0.034729004
1734713292278,2024-12-20T16:48:12.278Z,69753,-0.0368042,-0.1217041,-0.014099121
1734713292285,2024-12-20T16:48:12.285Z,69760,-0.045959473,-0.11468506,-0.0056762695
1734713292303,2024-12-20T16:48:12.303Z,69778,-0.04260254,-0.12097168,-0.010559082
1734713292310,2024-12-20T16:48:12.310Z,69785,-0.037719727,-0.117126465,-0.039367676
1734713292317,2024-12-20T16:48:12.317Z,69792,-0.005126953,-0.11621094,-0.039611816
1734713292323,2024-12-20T16:48:12.323Z,69798,-0.036499023,-0.10882568,-0.034362793
1734713292330,2024-12-20T16:48:12.330Z,69805,-0.045532227,-0.1159668,-0.03479004
1734713292347,2024-12-20T16:48:12.347Z,69822,-0.04309082,-0.11608887,-0.023742676
1734713292353,2024-12-20T16:48:12.353Z,69828,-0.04559326,-0.11456299,-0.017700195
1734713292359,2024-12-20T16:48:12.359Z,69834,-0.046447754,-0.11956787,-0.013305664
1734713292366,2024-12-20T16:48:12.366Z,69841,-0.053100586,-0.11651611,-0.012023926
1734713292396,2024-12-20T16:48:12.396Z,69871,-0.0368042,-0.12438965,-0.032043457
1734713292402,2024-12-20T16:48:12.402Z,69877,-0.020080566,-0.11968994,-0.036132812
1734713292409,2024-12-20T16:48:12.409Z,69884,-0.07086182,-0.097351074,-0.03894043
1734713292416,2024-12-20T16:48:12.416Z,69891,-0.045776367,-0.1194458,-0.034301758
1734713292438,2024-12-20T16:48:12.438Z,69913,-0.042236328,-0.11242676,-0.026489258
1734713292445,2024-12-20T16:48:12.445Z,69920,-0.058288574,-0.103759766,-0.025268555
1734713292451,2024-12-20T16:48:12.451Z,69926,-0.04638672,-0.11328125,-0.024963379
1734713292457,2024-12-20T16:48:12.457Z,69932,-0.024536133,-0.11785889,-0.014892578
1734713292464,2024-12-20T16:48:12.464Z,69939,-0.03869629,-0.11401367,-0.015136719
1734713292484,2024-12-20T16:48:12.484Z,69959,-0.04248047,-0.11657715,-0.022888184
1734713292491,2024-12-20T16:48:12.491Z,69966,-0.056884766,-0.10168457,-0.0234375
1734713292499,2024-12-20T16:48:12.499Z,69974,-0.05529785,-0.103027344,-0.02142334
1734713292510,2024-12-20T16:48:12.510Z,69985,-0.058410645,-0.095947266,-0.028015137
1734713292621,2024-12-20T16:48:12.621Z,70096,-0.02331543,-0.09576416,-0.03161621
1734713292629,2024-12-20T16:48:12.629Z,70104,-0.006591797,-0.10760498,-0.03656006
1734713292637,2024-12-20T16:48:12.637Z,70112,-0.01751709,-0.10241699,-0.033996582
1734713292646,2024-12-20T16:48:12.646Z,70121,-0.010009766,-0.09197998,-0.015563965
1734713292654,2024-12-20T16:48:12.654Z,70129,-0.03656006,-0.09423828,-1.2207031E-4
1734713292663,2024-12-20T16:48:12.663Z,70138,-0.055480957,-0.09295654,-0.021911621
1734713292713,2024-12-20T16:48:12.713Z,70188,-0.053955078,-0.07647705,-0.007751465
1734713292721,2024-12-20T16:48:12.721Z,70196,-0.05895996,-0.0848999,-0.016052246
1734713292730,2024-12-20T16:48:12.730Z,70205,-0.0413208,-0.08618164,-0.008178711
1734713292740,2024-12-20T16:48:12.740Z,70215,-0.017089844,-0.07952881,-0.015014648
1734713292758,2024-12-20T16:48:12.758Z,70233,0.008300781,-0.10101318,-0.041809082
1734713292766,2024-12-20T16:48:12.766Z,70241,-0.00970459,-0.08428955,-0.032409668
1734713292772,2024-12-20T16:48:12.772Z,70247,-0.043823242,-0.092041016,-0.02508545
1734713292779,2024-12-20T16:48:12.779Z,70254,-0.07562256,-0.08404541,-0.011047363
1734713292787,2024-12-20T16:48:12.787Z,70262,-0.050476074,-0.10876465,-3.0517578E-4
1734713292793,2024-12-20T16:48:12.793Z,70268,-0.049560547,-0.095336914,0.006652832
1734713292801,2024-12-20T16:48:12.801Z,70276,-0.0524292,-0.090270996,0.010009766
1734713292807,2024-12-20T16:48:12.807Z,70282,-0.037963867,-0.1048584,-0.03253174
1734713292813,2024-12-20T16:48:12.813Z,70288,-0.07092285,-0.099731445,7.324219E-4
1734713292820,2024-12-20T16:48:12.820Z,70295,-0.07293701,-0.10583496,-0.0021362305
1734713292828,2024-12-20T16:48:12.828Z,70303,-0.036376953,-0.0993042,-0.00793457
1734713292843,2024-12-20T16:48:12.843Z,70318,-0.03930664,-0.09906006,-0.031921387
1734713292846,2024-12-20T16:48:12.846Z,70321,0.0048217773,-0.11004639,-0.049621582
1734713292853,2024-12-20T16:48:12.853Z,70328,6.1035156E-4,-0.10003662,-0.028808594
1734713292860,2024-12-20T16:48:12.860Z,70335,-0.03338623,-0.10876465,-0.026672363
1734713292867,2024-12-20T16:48:12.867Z,70342,-0.029968262,-0.103515625,-0.028686523
1734713292872,2024-12-20T16:48:12.872Z,70347,-0.051940918,-0.097351074,-0.014099121
1734713292887,2024-12-20T16:48:12.887Z,70362,-0.06530762,-0.11193848,-0.011230469
1734713292893,2024-12-20T16:48:12.893Z,70368,-0.04699707,-0.10229492,-0.015136719
1734713292900,2024-12-20T16:48:12.900Z,70375,-0.037475586,-0.10644531,-0.0256958
1734713292906,2024-12-20T16:48:12.906Z,70381,-0.009216309,-0.1126709,-0.0335083
1734713292914,2024-12-20T16:48:12.914Z,70389,-0.018432617,-0.1027832,-0.03503418
1734713293027,2024-12-20T16:48:13.027Z,70502,-0.028076172,-0.10687256,-0.029785156
1734713293032,2024-12-20T16:48:13.032Z,70507,-0.043273926,-0.10333252,-0.037719727
1734713293038,2024-12-20T16:48:13.038Z,70513,-0.048034668,-0.10852051,0.0016479492
1734713293044,2024-12-20T16:48:13.044Z,70519,-0.05633545,-0.123291016,-0.0076293945
1734713293051,2024-12-20T16:48:13.051Z,70526,-0.047668457,-0.11004639,-0.008544922
1734713293069,2024-12-20T16:48:13.069Z,70544,-0.03741455,-0.111572266,-0.011779785
1734713293077,2024-12-20T16:48:13.077Z,70552,-0.033081055,-0.11785889,-0.039978027
1734713293085,2024-12-20T16:48:13.085Z,70560,-0.019348145,-0.103759766,-0.030822754
1734713293116,2024-12-20T16:48:13.116Z,70591,-0.028076172,-0.1126709,-0.029052734
1734713293123,2024-12-20T16:48:13.123Z,70598,-0.053466797,-0.11395264,-0.03656006
1734713293132,2024-12-20T16:48:13.132Z,70607,-0.039733887,-0.11505127,-0.017028809
1734713293140,2024-12-20T16:48:13.140Z,70615,-0.030822754,-0.10949707,-0.028015137
1734713293148,2024-12-20T16:48:13.148Z,70623,-0.043884277,-0.12030029,-0.025024414
1734713293158,2024-12-20T16:48:13.158Z,70633,-0.039855957,-0.11907959,-0.020507812
1734713293166,2024-12-20T16:48:13.166Z,70641,-0.04650879,-0.11248779,-0.0126953125
1734713293172,2024-12-20T16:48:13.172Z,70647,-0.047790527,-0.11663818,-0.014160156
1734713293179,2024-12-20T16:48:13.179Z,70654,-0.0423584,-0.10864258,-0.025146484
1734713293185,2024-12-20T16:48:13.185Z,70660,-0.04473877,-0.09851074,-0.031982422
1734713293191,2024-12-20T16:48:13.191Z,70666,-0.030212402,-0.109558105,-0.0335083
1734713293205,2024-12-20T16:48:13.205Z,70680,-0.03564453,-0.10595703,-0.024719238
1734713293212,2024-12-20T16:48:13.212Z,70687,-0.036499023,-0.11602783,-0.017456055
1734713293219,2024-12-20T16:48:13.219Z,70694,-0.03100586,-0.11895752,-0.016418457
1734713293225,2024-12-20T16:48:13.225Z,70700,-0.03289795,-0.115234375,-0.015136719
1734713293231,2024-12-20T16:48:13.231Z,70706,-0.039245605,-0.11340332,-0.020874023
1734713293248,2024-12-20T16:48:13.248Z,70723,-0.041015625,-0.10803223,-0.033691406
1734713293256,2024-12-20T16:48:13.256Z,70731,-0.033325195,-0.10845947,-0.021362305
1734713293262,2024-12-20T16:48:13.262Z,70737,-0.047729492,-0.11279297,-0.019104004
1734713293269,2024-12-20T16:48:13.269Z,70744,-0.037475586,-0.11682129,-0.02532959
1734713293276,2024-12-20T16:48:13.276Z,70751,-0.0256958,-0.11254883,-0.030883789
1734713293283,2024-12-20T16:48:13.283Z,70758,-0.03466797,-0.11303711,-0.035339355
1734713293299,2024-12-20T16:48:13.299Z,70774,-0.030456543,-0.12243652,-0.022460938
1734713293305,2024-12-20T16:48:13.305Z,70780,-0.037109375,-0.11669922,-0.013977051
1734713293311,2024-12-20T16:48:13.311Z,70786,-0.049072266,-0.11639404,-0.019836426
1734713293322,2024-12-20T16:48:13.322Z,70797,-0.03656006,-0.11834717,-0.023986816
1734713293336,2024-12-20T16:48:13.336Z,70811,-0.035095215,-0.11608887,-0.018798828
1734713293342,2024-12-20T16:48:13.342Z,70817,-0.03704834,-0.119018555,-0.0335083
1734713293349,2024-12-20T16:48:13.349Z,70824,-0.027648926,-0.11425781,-0.037841797
1734713293355,2024-12-20T16:48:13.355Z,70830,-0.026062012,-0.117248535,-0.036254883
1734713293362,2024-12-20T16:48:13.362Z,70837,-0.026977539,-0.123046875,-0.027832031
1734713293368,2024-12-20T16:48:13.368Z,70843,-0.032226562,-0.1194458,-0.020324707
1734713293373,2024-12-20T16:48:13.373Z,70848,-0.04437256,-0.11682129,-0.018066406
1734713293385,2024-12-20T16:48:13.385Z,70860,-0.04748535,-0.117126465,-0.023620605
1734713293391,2024-12-20T16:48:13.391Z,70866,-0.04534912,-0.111206055,-0.03338623
1734713293396,2024-12-20T16:48:13.396Z,70871,-0.033813477,-0.11743164,-0.029785156
1734713293402,2024-12-20T16:48:13.402Z,70877,-0.020812988,-0.12207031,-0.03125
1734713293407,2024-12-20T16:48:13.407Z,70882,-0.02947998,-0.11254883,-0.038635254
1734713293428,2024-12-20T16:48:13.428Z,70903,-0.032409668,-0.11151123,-0.031188965
1734713293434,2024-12-20T16:48:13.434Z,70909,-0.04425049,-0.11505127,-0.029846191
1734713293440,2024-12-20T16:48:13.440Z,70915,-0.04437256,-0.11407471,-0.025024414
1734713293446,2024-12-20T16:48:13.446Z,70921,-0.037353516,-0.11706543,-0.016967773
1734713293472,2024-12-20T16:48:13.472Z,70947,-0.040039062,-0.119506836,-0.036987305
1734713293479,2024-12-20T16:48:13.479Z,70954,-0.033447266,-0.11090088,-0.03778076
1734713293487,2024-12-20T16:48:13.487Z,70962,-0.033996582,-0.11236572,-0.02368164
1734713293494,2024-12-20T16:48:13.494Z,70969,-0.039367676,-0.114990234,-0.022827148
1734713293500,2024-12-20T16:48:13.500Z,70975,-0.046081543,-0.10687256,-0.032043457
1734713293517,2024-12-20T16:48:13.517Z,70992,-0.042663574,-0.109558105,-0.028625488
1734713293524,2024-12-20T16:48:13.524Z,70999,-0.040100098,-0.11608887,-0.026306152
1734713293531,2024-12-20T16:48:13.531Z,71006,-0.034423828,-0.11480713,-0.02368164
1734713293538,2024-12-20T16:48:13.538Z,71013,-0.036254883,-0.11480713,-0.031799316
1734713293563,2024-12-20T16:48:13.563Z,71038,-0.033996582,-0.11212158,-0.02532959
1734713293570,2024-12-20T16:48:13.570Z,71045,-0.04547119,-0.10998535,-0.026245117
1734713293576,2024-12-20T16:48:13.576Z,71051,-0.053649902,-0.10479736,-0.035583496
1734713293583,2024-12-20T16:48:13.583Z,71058,-0.04296875,-0.10998535,-0.019470215
1734713293590,2024-12-20T16:48:13.590Z,71065,-0.042175293,-0.115356445,-0.017089844
1734713293612,2024-12-20T16:48:13.612Z,71087,-0.039001465,-0.11395264,-0.026611328
1734713293619,2024-12-20T16:48:13.619Z,71094,-0.024963379,-0.10986328,-0.036376953
1734713293625,2024-12-20T16:48:13.625Z,71100,-0.03375244,-0.10699463,-0.030822754
1734713293632,2024-12-20T16:48:13.632Z,71107,-0.04449463,-0.11102295,-0.030456543
1734713293653,2024-12-20T16:48:13.653Z,71128,-0.045898438,-0.10595703,-0.031433105
1734713293659,2024-12-20T16:48:13.659Z,71134,-0.04650879,-0.105895996,-0.025634766
1734713293667,2024-12-20T16:48:13.667Z,71142,-0.041992188,-0.11456299,-0.022521973
1734713293674,2024-12-20T16:48:13.674Z,71149,-0.042053223,-0.10760498,-0.028381348
1734713293699,2024-12-20T16:48:13.699Z,71174,-0.03302002,-0.11126709,-0.029541016
1734713293706,2024-12-20T16:48:13.706Z,71181,-0.026428223,-0.11541748,-0.028564453
1734713293713,2024-12-20T16:48:13.713Z,71188,-0.04559326,-0.10601807,-0.031311035
1734713293720,2024-12-20T16:48:13.720Z,71195,-0.045715332,-0.10632324,-0.020324707
1734713293727,2024-12-20T16:48:13.727Z,71202,-0.048461914,-0.10809326,-0.02960205
1734713293744,2024-12-20T16:48:13.744Z,71219,-0.044555664,-0.10595703,-0.019592285
1734713293751,2024-12-20T16:48:13.751Z,71226,-0.042236328,-0.10992432,-0.022644043
1734713293757,2024-12-20T16:48:13.757Z,71232,-0.034484863,-0.10656738,-0.025390625
1734713293764,2024-12-20T16:48:13.764Z,71239,-0.029846191,-0.10748291,-0.023498535
1734713293834,2024-12-20T16:48:13.834Z,71309,-0.041809082,-0.10583496,-0.033996582
1734713293840,2024-12-20T16:48:13.840Z,71315,-0.038146973,-0.1060791,-0.023498535
1734713293879,2024-12-20T16:48:13.879Z,71354,-0.037109375,-0.11517334,-0.011291504
1734713293886,2024-12-20T16:48:13.886Z,71361,-0.048706055,-0.11468506,-0.01965332
1734713293894,2024-12-20T16:48:13.894Z,71369,-0.05126953,-0.10180664,-0.033996582
1734713293901,2024-12-20T16:48:13.901Z,71376,-0.032226562,-0.10888672,-0.024841309
1734713293908,2024-12-20T16:48:13.908Z,71383,-0.03375244,-0.11419678,-0.032348633
1734713293915,2024-12-20T16:48:13.915Z,71390,-0.030029297,-0.111206055,-0.027832031
1734713293928,2024-12-20T16:48:13.928Z,71403,-0.036865234,-0.10858154,-0.01159668
1734713293973,2024-12-20T16:48:13.973Z,71448,-0.04156494,-0.110839844,-0.015319824
1734713293981,2024-12-20T16:48:13.981Z,71456,-0.043640137,-0.09942627,-0.024719238
1734713293989,2024-12-20T16:48:13.989Z,71464,-0.057617188,-0.08917236,-0.047058105
1734713293998,2024-12-20T16:48:13.998Z,71473,-0.024047852,-0.10925293,-0.032104492
1734713294008,2024-12-20T16:48:14.008Z,71483,-0.018066406,-0.11590576,-0.011169434
1734713294018,2024-12-20T16:48:14.018Z,71493,-0.036499023,-0.1105957,-0.012939453
1734713294027,2024-12-20T16:48:14.027Z,71502,-0.036499023,-0.10131836,-0.016113281
1734713294037,2024-12-20T16:48:14.037Z,71512,-0.043701172,-0.09100342,-0.023498535
1734713294046,2024-12-20T16:48:14.046Z,71521,-0.05041504,-0.09765625,-0.051513672
1734713294054,2024-12-20T16:48:14.054Z,71529,-0.033325195,-0.09692383,-0.025878906
1734713294066,2024-12-20T16:48:14.066Z,71541,-0.03173828,-0.111694336,-0.013916016
1734713294071,2024-12-20T16:48:14.071Z,71546,-0.03302002,-0.10430908,-0.026245117
1734713294077,2024-12-20T16:48:14.077Z,71552,-0.05279541,-0.11138916,-0.042663574
1734713294083,2024-12-20T16:48:14.083Z,71558,-0.03656006,-0.10241699,-0.023071289
1734713294091,2024-12-20T16:48:14.091Z,71566,-0.051513672,-0.10443115,-0.0012817383
1734713294096,2024-12-20T16:48:14.096Z,71571,-0.051513672,-0.11853027,-0.02722168
1734713294102,2024-12-20T16:48:14.102Z,71577,-0.031311035,-0.099243164,-0.033203125
1734713294107,2024-12-20T16:48:14.107Z,71582,-0.03149414,-0.103027344,-0.025817871
1734713294113,2024-12-20T16:48:14.113Z,71588,-0.039855957,-0.112854004,-0.018249512
1734713294120,2024-12-20T16:48:14.120Z,71595,-0.03894043,-0.10241699,-0.027893066
1734713294125,2024-12-20T16:48:14.125Z,71600,-0.044677734,-0.09442139,-0.04083252
1734713294130,2024-12-20T16:48:14.130Z,71605,-0.05029297,-0.08929443,-0.034057617
1734713294152,2024-12-20T16:48:14.152Z,71627,-0.04156494,-0.09918213,-0.031555176
1734713294157,2024-12-20T16:48:14.157Z,71632,-0.017822266,-0.11444092,-0.033813477
1734713294164,2024-12-20T16:48:14.164Z,71639,-0.011779785,-0.10986328,-0.014465332
1734713294170,2024-12-20T16:48:14.170Z,71645,-0.04827881,-0.096069336,-0.012207031
1734713294176,2024-12-20T16:48:14.176Z,71651,-0.04260254,-0.10681152,-0.022644043
1734713294194,2024-12-20T16:48:14.194Z,71669,-0.049316406,-0.09124756,-0.045776367
1734713294201,2024-12-20T16:48:14.201Z,71676,-0.060424805,-0.089782715,-0.043151855
1734713294208,2024-12-20T16:48:14.208Z,71683,-0.040649414,-0.10760498,-0.018981934
1734713294239,2024-12-20T16:48:14.239Z,71714,-0.030334473,-0.114990234,-0.010009766
1734713294245,2024-12-20T16:48:14.245Z,71720,-0.040405273,-0.11444092,-0.013916016
1734713294252,2024-12-20T16:48:14.252Z,71727,-0.01928711,-0.10699463,-0.03289795
1734713294258,2024-12-20T16:48:14.258Z,71733,-0.03918457,-0.09503174,-0.0368042
1734713294264,2024-12-20T16:48:14.264Z,71739,-0.061828613,-0.09307861,-0.038330078
1734713294271,2024-12-20T16:48:14.271Z,71746,-0.03656006,-0.10992432,-0.027404785
1734713294288,2024-12-20T16:48:14.288Z,71763,-0.044677734,-0.11193848,-0.019714355
1734713294294,2024-12-20T16:48:14.294Z,71769,-0.051574707,-0.10369873,-0.022094727
1734713294300,2024-12-20T16:48:14.300Z,71775,-0.04425049,-0.110839844,-0.019958496
1734713294307,2024-12-20T16:48:14.307Z,71782,-0.054870605,-0.10974121,-0.02746582
1734713294312,2024-12-20T16:48:14.312Z,71787,-0.039367676,-0.109375,-0.005859375
1734713294328,2024-12-20T16:48:14.328Z,71803,-0.039978027,-0.11633301,-0.015014648
1734713294335,2024-12-20T16:48:14.335Z,71810,-0.059387207,-0.10144043,-0.03564453
1734713294341,2024-12-20T16:48:14.341Z,71816,-0.041992188,-0.09472656,-0.034606934
1734713294347,2024-12-20T16:48:14.347Z,71822,-0.039916992,-0.105651855,-0.040222168
1734713294353,2024-12-20T16:48:14.353Z,71828,-0.04333496,-0.11010742,-0.031799316
1734713294377,2024-12-20T16:48:14.377Z,71852,-0.042236328,-0.114746094,-0.005859375
1734713294383,2024-12-20T16:48:14.383Z,71858,-0.049560547,-0.11224365,-0.013061523
1734713294389,2024-12-20T16:48:14.389Z,71864,-0.046691895,-0.10797119,-0.010131836
1734713294395,2024-12-20T16:48:14.395Z,71870,-0.057617188,-0.10986328,-0.034118652
1734713294401,2024-12-20T16:48:14.401Z,71876,-0.053344727,-0.105041504,-0.0335083
1734713294419,2024-12-20T16:48:14.419Z,71894,-0.033447266,-0.12011719,-0.021240234
1734713294424,2024-12-20T16:48:14.424Z,71899,-0.04876709,-0.11694336,-0.028686523
1734713294430,2024-12-20T16:48:14.430Z,71905,-0.028808594,-0.117248535,-0.02734375
1734713294436,2024-12-20T16:48:14.436Z,71911,-0.040771484,-0.11608887,-0.027648926
1734713294442,2024-12-20T16:48:14.442Z,71917,-0.070251465,-0.103393555,-0.021057129
1734713294463,2024-12-20T16:48:14.463Z,71938,-0.046203613,-0.12719727,-0.0040283203
1734713294469,2024-12-20T16:48:14.469Z,71944,-0.050598145,-0.123046875,-0.020629883
1734713294475,2024-12-20T16:48:14.475Z,71950,-0.04119873,-0.10534668,-0.033569336
1734713294481,2024-12-20T16:48:14.481Z,71956,-0.031677246,-0.11456299,-0.05340576
1734713294556,2024-12-20T16:48:14.556Z,72031,-0.033691406,-0.11706543,-0.046142578
1734713294562,2024-12-20T16:48:14.562Z,72037,-0.031066895,-0.12133789,-0.0178833
1734713294567,2024-12-20T16:48:14.567Z,72042,-0.061584473,-0.12683105,0.0053100586
1734713294572,2024-12-20T16:48:14.572Z,72047,-0.083862305,-0.11810303,-0.0037231445
1734713294579,2024-12-20T16:48:14.579Z,72054,-0.065979004,-0.11053467,-0.013977051
1734713294586,2024-12-20T16:48:14.586Z,72061,-0.04748535,-0.111450195,-0.033813477
1734713294603,2024-12-20T16:48:14.603Z,72078,-0.039794922,-0.11004639,-0.0501709
1734713294610,2024-12-20T16:48:14.610Z,72085,-0.035827637,-0.1149292,-0.04095459
1734713294619,2024-12-20T16:48:14.619Z,72094,-0.011108398,-0.13061523,-0.032592773
1734713294625,2024-12-20T16:48:14.625Z,72100,-0.03942871,-0.1204834,-0.0033569336
1734713294632,2024-12-20T16:48:14.632Z,72107,-0.056396484,-0.12335205,-0.008361816
1734713294642,2024-12-20T16:48:14.642Z,72117,-0.05053711,-0.11785889,-0.02960205
1734713294648,2024-12-20T16:48:14.648Z,72123,-0.057006836,-0.09857178,-0.016967773
1734713294655,2024-12-20T16:48:14.655Z,72130,-0.04522705,-0.12145996,-0.02130127
1734713294661,2024-12-20T16:48:14.661Z,72136,-0.03161621,-0.11804199,-0.046203613
1734713294667,2024-12-20T16:48:14.667Z,72142,-1.8310547E-4,-0.11657715,-0.0335083
1734713294674,2024-12-20T16:48:14.674Z,72149,-0.033081055,-0.12475586,-0.019714355
1734713294691,2024-12-20T16:48:14.691Z,72166,-0.062683105,-0.118896484,-0.022460938
1734713294697,2024-12-20T16:48:14.697Z,72172,-0.054016113,-0.11834717,0.009887695
1734713294704,2024-12-20T16:48:14.704Z,72179,-0.061157227,-0.12719727,-0.0045166016
1734713294710,2024-12-20T16:48:14.710Z,72185,-0.05645752,-0.1182251,-0.040100098
1734713294722,2024-12-20T16:48:14.722Z,72197,-0.037597656,-0.10900879,-0.032836914
1734713294733,2024-12-20T16:48:14.733Z,72208,-0.02178955,-0.12677002,-0.04510498
1734713294738,2024-12-20T16:48:14.738Z,72213,-0.019470215,-0.12615967,-0.038269043
1734713294744,2024-12-20T16:48:14.744Z,72219,-0.054626465,-0.11743164,-0.034484863
1734713294750,2024-12-20T16:48:14.750Z,72225,-0.051757812,-0.13409424,-0.014770508
1734713294756,2024-12-20T16:48:14.756Z,72231,-0.06201172,-0.12915039,-0.021972656
1734713294777,2024-12-20T16:48:14.777Z,72252,-0.07281494,-0.1204834,-0.015808105
1734713294783,2024-12-20T16:48:14.783Z,72258,-0.055480957,-0.13128662,-0.020141602
1734713294791,2024-12-20T16:48:14.791Z,72266,-0.04699707,-0.12322998,-0.04345703
1734713294796,2024-12-20T16:48:14.796Z,72271,-0.010498047,-0.13153076,-0.048583984
1734713294824,2024-12-20T16:48:14.824Z,72299,-0.040649414,-0.11730957,-0.03503418
1734713294830,2024-12-20T16:48:14.830Z,72305,-0.061279297,-0.12652588,-0.035583496
1734713294837,2024-12-20T16:48:14.837Z,72312,-0.057922363,-0.124938965,-0.027832031
1734713294843,2024-12-20T16:48:14.843Z,72318,-0.079833984,-0.11315918,-0.024291992
1734713294850,2024-12-20T16:48:14.850Z,72325,-0.09112549,-0.11730957,-0.03564453
1734713294868,2024-12-20T16:48:14.868Z,72343,-0.060668945,-0.12347412,-0.01977539
1734713294874,2024-12-20T16:48:14.874Z,72349,-0.028930664,-0.13433838,-0.021362305
1734713294880,2024-12-20T16:48:14.880Z,72355,-0.03375244,-0.12524414,-0.03729248
1734713294886,2024-12-20T16:48:14.886Z,72361,-0.033447266,-0.12145996,-0.03363037
1734713294915,2024-12-20T16:48:14.915Z,72390,-0.047912598,-0.121154785,-0.023132324
1734713294964,2024-12-20T16:48:14.964Z,72439,-0.053588867,-0.12158203,-0.015380859
1734713294972,2024-12-20T16:48:14.972Z,72447,-0.047729492,-0.121520996,-0.015136719
1734713294979,2024-12-20T16:48:14.979Z,72454,-0.053710938,-0.11627197,-0.015686035
1734713294987,2024-12-20T16:48:14.987Z,72462,-0.05029297,-0.12054443,-0.026184082
1734713294994,2024-12-20T16:48:14.994Z,72469,-0.028808594,-0.1237793,-0.028503418
1734713295003,2024-12-20T16:48:15.003Z,72478,-0.040405273,-0.115478516,-0.020202637
1734713295011,2024-12-20T16:48:15.011Z,72486,-0.05267334,-0.123291016,-0.023010254
1734713295018,2024-12-20T16:48:15.018Z,72493,-0.04071045,-0.12420654,-0.026855469
1734713295025,2024-12-20T16:48:15.025Z,72500,-0.045837402,-0.11645508,-0.0048828125
1734713295031,2024-12-20T16:48:15.031Z,72506,-0.06201172,-0.12731934,-0.008300781
1734713295038,2024-12-20T16:48:15.038Z,72513,-0.03729248,-0.12927246,-0.009887695
1734713295054,2024-12-20T16:48:15.054Z,72529,-0.040893555,-0.11639404,-0.014831543
1734713295060,2024-12-20T16:48:15.060Z,72535,-0.06085205,-0.115478516,-0.032104492
1734713295066,2024-12-20T16:48:15.066Z,72541,-0.04168701,-0.12030029,-0.034973145
1734713295072,2024-12-20T16:48:15.072Z,72547,-0.045166016,-0.113220215,-0.020996094
1734713295078,2024-12-20T16:48:15.078Z,72553,-0.049743652,-0.12237549,-0.014953613
1734713295094,2024-12-20T16:48:15.094Z,72569,-0.051574707,-0.12322998,-0.0072631836
1734713295100,2024-12-20T16:48:15.100Z,72575,-0.04626465,-0.119628906,-0.0051879883
1734713295108,2024-12-20T16:48:15.108Z,72583,-0.044433594,-0.11828613,-0.008239746
1734713295114,2024-12-20T16:48:15.114Z,72589,-0.041625977,-0.113342285,-0.029663086
1734713295120,2024-12-20T16:48:15.120Z,72595,-0.034973145,-0.108947754,-0.042541504
1734713295138,2024-12-20T16:48:15.138Z,72613,-0.030761719,-0.1184082,-0.027038574
1734713295143,2024-12-20T16:48:15.143Z,72618,-0.05859375,-0.11383057,-0.0032348633
1734713295149,2024-12-20T16:48:15.149Z,72624,-0.050720215,-0.11785889,0.002380371
1734713295155,2024-12-20T16:48:15.155Z,72630,-0.052001953,-0.11853027,0.014160156
1734713295160,2024-12-20T16:48:15.160Z,72635,-0.057922363,-0.11779785,-3.6621094E-4
1734713295183,2024-12-20T16:48:15.183Z,72658,-0.056396484,-0.10736084,-0.015686035
1734713295189,2024-12-20T16:48:15.189Z,72664,-0.038085938,-0.113342285,-0.028869629
1734713295195,2024-12-20T16:48:15.195Z,72670,-0.048095703,-0.11242676,-0.021484375
1734713295201,2024-12-20T16:48:15.201Z,72676,-0.048828125,-0.11828613,-0.019165039
1734713295229,2024-12-20T16:48:15.229Z,72704,-0.050964355,-0.11981201,-0.0078125
1734713295237,2024-12-20T16:48:15.237Z,72712,-0.051635742,-0.12200928,0.0010986328
1734713295243,2024-12-20T16:48:15.243Z,72718,-0.049987793,-0.1272583,0.0010986328
1734713295249,2024-12-20T16:48:15.249Z,72724,-0.049316406,-0.12512207,-0.007080078
1734713295256,2024-12-20T16:48:15.256Z,72731,-0.037963867,-0.13122559,-0.031433105
1734713295367,2024-12-20T16:48:15.367Z,72842,-0.072509766,-0.10913086,-0.03277588
1734713295374,2024-12-20T16:48:15.374Z,72849,-0.06036377,-0.12902832,-0.016723633
1734713295381,2024-12-20T16:48:15.381Z,72856,-0.05456543,-0.1463623,-0.019104004
1734713295389,2024-12-20T16:48:15.389Z,72864,-0.07714844,-0.13598633,0.00390625
1734713295395,2024-12-20T16:48:15.395Z,72870,-0.06964111,-0.15209961,0.011413574
1734713295402,2024-12-20T16:48:15.402Z,72877,-0.05444336,-0.15167236,6.713867E-4
1734713295413,2024-12-20T16:48:15.413Z,72888,-0.061401367,-0.15026855,-0.023254395
1734713295420,2024-12-20T16:48:15.420Z,72895,-0.053833008,-0.14465332,-0.050476074
1734713295426,2024-12-20T16:48:15.426Z,72901,-0.054260254,-0.152771,-0.023925781
1734713295432,2024-12-20T16:48:15.432Z,72907,-0.06994629,-0.1638794,-0.01763916
1734713295438,2024-12-20T16:48:15.438Z,72913,-0.06768799,-0.15820312,-0.011108398
1734713295453,2024-12-20T16:48:15.453Z,72928,-0.068237305,-0.1564331,-0.0021972656
1734713295459,2024-12-20T16:48:15.459Z,72934,-0.04638672,-0.14746094,-0.022460938
1734713295465,2024-12-20T16:48:15.465Z,72940,-0.051879883,-0.14758301,-0.023925781
1734713295472,2024-12-20T16:48:15.472Z,72947,-0.06463623,-0.13684082,-0.032043457
1734713295480,2024-12-20T16:48:15.480Z,72955,-0.047790527,-0.14147949,-0.016601562
1734713295488,2024-12-20T16:48:15.488Z,72963,-0.07470703,-0.13616943,-0.0063476562
1734713295503,2024-12-20T16:48:15.503Z,72978,-0.051818848,-0.13604736,-0.004760742
1734713295511,2024-12-20T16:48:15.511Z,72986,-0.036987305,-0.13354492,-0.00970459
1734713295522,2024-12-20T16:48:15.522Z,72997,-0.045288086,-0.13092041,-0.010681152
1734713295528,2024-12-20T16:48:15.528Z,73003,-0.027160645,-0.13476562,-0.018859863
1734713295534,2024-12-20T16:48:15.534Z,73009,-0.034423828,-0.11932373,-0.021911621
1734713295542,2024-12-20T16:48:15.542Z,73017,-0.05871582,-0.11291504,-0.016845703
1734713295548,2024-12-20T16:48:15.548Z,73023,-0.05218506,-0.119628906,-0.026306152
1734713295554,2024-12-20T16:48:15.554Z,73029,-0.023132324,-0.12133789,-0.00592041
1734713295560,2024-12-20T16:48:15.560Z,73035,-0.037841797,-0.12072754,0.0040283203
1734713295565,2024-12-20T16:48:15.565Z,73040,-0.03741455,-0.12463379,-0.0031738281
1734713295570,2024-12-20T16:48:15.570Z,73045,-0.009094238,-0.12628174,-0.006591797
1734713295590,2024-12-20T16:48:15.590Z,73065,-0.032470703,-0.12017822,-0.0065307617
1734713295595,2024-12-20T16:48:15.595Z,73070,-0.0368042,-0.12042236,-0.0154418945
1734713295602,2024-12-20T16:48:15.602Z,73077,-0.051513672,-0.11010742,-0.016418457
1734713295608,2024-12-20T16:48:15.608Z,73083,-0.07354736,-0.11077881,-0.013061523
1734713295613,2024-12-20T16:48:15.613Z,73088,-0.024169922,-0.12908936,-1.2207031E-4
1734713295680,2024-12-20T16:48:15.680Z,73155,-0.029296875,-0.1227417,-0.013671875
1734713295686,2024-12-20T16:48:15.686Z,73161,-0.006713867,-0.12536621,-0.018798828
1734713295692,2024-12-20T16:48:15.692Z,73167,-0.014099121,-0.12646484,-0.01159668
1734713295699,2024-12-20T16:48:15.699Z,73174,-0.055847168,-0.115722656,-0.016174316
1734713295706,2024-12-20T16:48:15.706Z,73181,-0.04864502,-0.12036133,-0.023010254
1734713295713,2024-12-20T16:48:15.713Z,73188,-0.05871582,-0.11633301,-0.009277344
1734713295727,2024-12-20T16:48:15.727Z,73202,-0.059265137,-0.12164307,-0.009094238
1734713295734,2024-12-20T16:48:15.734Z,73209,-0.02734375,-0.12463379,-0.026550293
1734713295740,2024-12-20T16:48:15.740Z,73215,-0.023010254,-0.12438965,-0.01373291
1734713295755,2024-12-20T16:48:15.755Z,73230,-0.049621582,-0.12182617,0.0020141602
1734713295772,2024-12-20T16:48:15.772Z,73247,-0.030578613,-0.12670898,-0.028869629
1734713295785,2024-12-20T16:48:15.785Z,73260,-0.037231445,-0.113586426,-0.031066895
1734713295797,2024-12-20T16:48:15.797Z,73272,-0.05041504,-0.119628906,-0.03100586
1734713295811,2024-12-20T16:48:15.811Z,73286,-0.04663086,-0.12335205,-0.026672363
1734713295824,2024-12-20T16:48:15.824Z,73299,-0.03527832,-0.122924805,-0.023986816
1734713295837,2024-12-20T16:48:15.837Z,73312,-0.034362793,-0.123413086,-0.015686035
1734713295849,2024-12-20T16:48:15.849Z,73324,-0.0513916,-0.11657715,-0.008605957
1734713295862,2024-12-20T16:48:15.862Z,73337,-0.044311523,-0.12384033,-0.012512207
1734713295872,2024-12-20T16:48:15.872Z,73347,-0.036193848,-0.12011719,-0.011657715
1734713295879,2024-12-20T16:48:15.879Z,73354,-0.04626465,-0.11462402,-0.02746582
1734713295887,2024-12-20T16:48:15.887Z,73362,-0.03503418,-0.115722656,-0.03112793
1734713295894,2024-12-20T16:48:15.894Z,73369,-0.02130127,-0.11834717,-0.035949707
1734713295901,2024-12-20T16:48:15.901Z,73376,-0.036987305,-0.11224365,-0.018615723
1734713295908,2024-12-20T16:48:15.908Z,73383,-0.051635742,-0.110839844,-0.007385254
1734713295915,2024-12-20T16:48:15.915Z,73390,-0.04473877,-0.11621094,-6.1035156E-5
1734713295921,2024-12-20T16:48:15.921Z,73396,-0.060791016,-0.1161499,0.0079956055
1734713295927,2024-12-20T16:48:15.927Z,73402,-0.05633545,-0.119506836,-0.0068969727
1734713295933,2024-12-20T16:48:15.933Z,73408,-0.035827637,-0.11029053,-0.01953125
1734713295939,2024-12-20T16:48:15.939Z,73414,-0.041503906,-0.11004639,-0.011291504
1734713295945,2024-12-20T16:48:15.945Z,73420,-0.04083252,-0.109191895,-0.0211792
1734713295951,2024-12-20T16:48:15.951Z,73426,-0.026916504,-0.105285645,-0.017089844
1734713295957,2024-12-20T16:48:15.957Z,73432,-0.045166016,-0.10650635,-0.014160156
1734713295962,2024-12-20T16:48:15.962Z,73437,-0.045410156,-0.10083008,-0.014709473
1734713295968,2024-12-20T16:48:15.968Z,73443,-0.03778076,-0.10925293,-0.018432617
1734713295974,2024-12-20T16:48:15.974Z,73449,-0.041748047,-0.103027344,-0.03265381
1734713295993,2024-12-20T16:48:15.993Z,73468,-0.035888672,-0.10028076,-0.018798828
1734713295998,2024-12-20T16:48:15.998Z,73473,-0.04425049,-0.109375,-0.017944336
1734713296004,2024-12-20T16:48:16.004Z,73479,-0.03161621,-0.11029053,0.009033203
1734713296010,2024-12-20T16:48:16.010Z,73485,-0.057617188,-0.11291504,0.0017700195
1734713296016,2024-12-20T16:48:16.016Z,73491,-0.05328369,-0.10473633,-0.013183594
1734713296038,2024-12-20T16:48:16.038Z,73513,-0.026306152,-0.10406494,-0.016113281
1734713296044,2024-12-20T16:48:16.044Z,73519,-0.036987305,-0.10064697,-0.024536133
1734713296088,2024-12-20T16:48:16.088Z,73563,-0.05102539,-0.093444824,-0.027648926
1734713296095,2024-12-20T16:48:16.095Z,73570,-0.01159668,-0.1083374,-0.04107666
1734713296101,2024-12-20T16:48:16.101Z,73576,-0.008605957,-0.10522461,-0.02319336
1734713296108,2024-12-20T16:48:16.108Z,73583,-0.045654297,-0.103027344,-0.0078125
1734713296116,2024-12-20T16:48:16.116Z,73591,-0.05493164,-0.10772705,-0.0032348633
1734713296133,2024-12-20T16:48:16.133Z,73608,-0.05218506,-0.09838867,0.0045776367
1734713296140,2024-12-20T16:48:16.140Z,73615,-0.05432129,-0.09979248,-0.018188477
1734713296147,2024-12-20T16:48:16.147Z,73622,-0.03540039,-0.09118652,-0.027893066
1734713296154,2024-12-20T16:48:16.154Z,73629,-0.038330078,-0.08782959,-0.023498535
1734713296160,2024-12-20T16:48:16.160Z,73635,-0.02960205,-0.099609375,-0.036621094
1734713296174,2024-12-20T16:48:16.174Z,73649,-0.0079956055,-0.10235596,-0.03289795
1734713296180,2024-12-20T16:48:16.180Z,73655,-0.025634766,-0.10394287,-0.010131836
1734713296186,2024-12-20T16:48:16.186Z,73661,-0.049987793,-0.10021973,-0.011413574
1734713296193,2024-12-20T16:48:16.193Z,73668,-0.04168701,-0.100097656,-0.016479492
1734713296199,2024-12-20T16:48:16.199Z,73674,-0.044311523,-0.093688965,-0.023498535
1734713296206,2024-12-20T16:48:16.206Z,73681,-0.059936523,-0.091552734,-0.020324707
1734713296224,2024-12-20T16:48:16.224Z,73699,-0.0569458,-0.09637451,-0.026123047
1734713296230,2024-12-20T16:48:16.230Z,73705,-0.02935791,-0.09716797,-0.030273438
1734713296236,2024-12-20T16:48:16.236Z,73711,-0.022399902,-0.10070801,-0.018920898
1734713296241,2024-12-20T16:48:16.241Z,73716,-0.008972168,-0.1295166,-0.0154418945
1734713296263,2024-12-20T16:48:16.263Z,73738,-0.03466797,-0.099487305,-0.01776123
1734713296269,2024-12-20T16:48:16.269Z,73744,-0.051086426,-0.10430908,-0.028198242
1734713296275,2024-12-20T16:48:16.275Z,73750,-0.044006348,-0.117248535,-0.030761719
1734713296281,2024-12-20T16:48:16.281Z,73756,-0.059387207,-0.103027344,-0.018737793
1734713296307,2024-12-20T16:48:16.307Z,73782,-0.050720215,-0.12182617,-0.012329102
1734713296313,2024-12-20T16:48:16.313Z,73788,-0.055480957,-0.1161499,-0.03265381
1734713296319,2024-12-20T16:48:16.319Z,73794,-0.018371582,-0.11376953,-0.024536133
1734713296325,2024-12-20T16:48:16.325Z,73800,-0.020385742,-0.1182251,-0.016540527
1734713296331,2024-12-20T16:48:16.331Z,73806,-0.038513184,-0.11566162,-0.010437012
1734713296353,2024-12-20T16:48:16.353Z,73828,-0.04248047,-0.11077881,-0.031555176
1734713296360,2024-12-20T16:48:16.360Z,73835,-0.025878906,-0.10211182,-0.03656006
1734713296365,2024-12-20T16:48:16.365Z,73840,-0.039367676,-0.10095215,-0.036254883
1734713296372,2024-12-20T16:48:16.372Z,73847,-0.055664062,-0.098083496,-0.04248047
1734713296398,2024-12-20T16:48:16.398Z,73873,-0.036254883,-0.10015869,-0.022399902
1734713296405,2024-12-20T16:48:16.405Z,73880,-0.015380859,-0.11065674,-0.026245117
1734713296444,2024-12-20T16:48:16.444Z,73919,-0.024108887,-0.1026001,-0.032714844
1734713296451,2024-12-20T16:48:16.451Z,73926,-0.026428223,-0.093322754,-0.044799805
1734713296459,2024-12-20T16:48:16.459Z,73934,-0.020446777,-0.0982666,-0.039733887
1734713296465,2024-12-20T16:48:16.465Z,73940,-0.034423828,-0.09301758,-0.038757324
1734713296472,2024-12-20T16:48:16.472Z,73947,-0.027404785,-0.10076904,-0.03778076
1734713296479,2024-12-20T16:48:16.479Z,73954,-0.052978516,-0.09814453,-0.007873535
1734713296491,2024-12-20T16:48:16.491Z,73966,-0.055114746,-0.10687256,-0.024658203
1734713296497,2024-12-20T16:48:16.497Z,73972,-0.020019531,-0.113342285,-0.03753662
1734713296502,2024-12-20T16:48:16.502Z,73977,-0.030822754,-0.103515625,-0.03503418
1734713296508,2024-12-20T16:48:16.508Z,73983,-0.03643799,-0.11529541,-0.03314209
1734713296513,2024-12-20T16:48:16.513Z,73988,-0.036254883,-0.10687256,-0.044128418
1734713296534,2024-12-20T16:48:16.534Z,74009,-0.046813965,-0.09716797,-0.051818848
1734713296542,2024-12-20T16:48:16.542Z,74017,-0.026550293,-0.117492676,-0.034362793
1734713296548,2024-12-20T16:48:16.548Z,74023,-0.022216797,-0.11773682,-0.0345459
1734713296554,2024-12-20T16:48:16.554Z,74029,-0.05505371,-0.10418701,-0.016479492
1734713296561,2024-12-20T16:48:16.561Z,74036,-0.031982422,-0.12640381,-0.024658203
1734713296577,2024-12-20T16:48:16.577Z,74052,-0.031188965,-0.11804199,-0.02734375
1734713296583,2024-12-20T16:48:16.583Z,74058,-0.058166504,-0.11566162,-0.026977539
1734713296589,2024-12-20T16:48:16.589Z,74064,-0.05303955,-0.117004395,-0.03375244
1734713296594,2024-12-20T16:48:16.594Z,74069,-0.046447754,-0.10864258,-0.049072266
1734713296624,2024-12-20T16:48:16.624Z,74099,-0.036315918,-0.112854004,-0.033203125
1734713296630,2024-12-20T16:48:16.630Z,74105,-0.030639648,-0.11706543,-0.03479004
1734713296637,2024-12-20T16:48:16.637Z,74112,-0.025146484,-0.1105957,-0.03515625
1734713296643,2024-12-20T16:48:16.643Z,74118,-0.022094727,-0.115722656,-0.017028809
1734713296649,2024-12-20T16:48:16.649Z,74124,-0.04937744,-0.11999512,-0.023376465
1734713296669,2024-12-20T16:48:16.669Z,74144,-0.058532715,-0.10412598,-0.03277588
1734713296675,2024-12-20T16:48:16.675Z,74150,-0.05328369,-0.099975586,-0.039978027
1734713296680,2024-12-20T16:48:16.680Z,74155,-0.039794922,-0.11065674,-0.027648926
1734713296687,2024-12-20T16:48:16.687Z,74162,-0.038208008,-0.11151123,-0.03466797
1734713296713,2024-12-20T16:48:16.713Z,74188,-0.028564453,-0.10736084,-0.032714844
1734713296719,2024-12-20T16:48:16.719Z,74194,-0.024963379,-0.115234375,-0.026977539
1734713296725,2024-12-20T16:48:16.725Z,74200,-0.040893555,-0.117248535,-0.020629883
1734713296731,2024-12-20T16:48:16.731Z,74206,-0.054748535,-0.10748291,-0.034301758
1734713296737,2024-12-20T16:48:16.737Z,74212,-0.04156494,-0.11022949,-0.028625488
1734713296804,2024-12-20T16:48:16.804Z,74279,-0.049987793,-0.11352539,-0.027282715
1734713296811,2024-12-20T16:48:16.811Z,74286,-0.05230713,-0.10852051,-0.025939941
1734713296817,2024-12-20T16:48:16.817Z,74292,-0.034729004,-0.112854004,-0.034423828
1734713296822,2024-12-20T16:48:16.822Z,74297,-0.03253174,-0.11230469,-0.03656006
1734713296828,2024-12-20T16:48:16.828Z,74303,-0.04425049,-0.115600586,-0.028320312
1734713296833,2024-12-20T16:48:16.833Z,74308,-0.04498291,-0.111206055,-0.033935547
1734713296854,2024-12-20T16:48:16.854Z,74329,-0.03918457,-0.1083374,-0.024658203
1734713296864,2024-12-20T16:48:16.864Z,74339,-0.03955078,-0.11987305,-0.024963379
1734713296870,2024-12-20T16:48:16.870Z,74345,-0.0446167,-0.11224365,-0.027832031
1734713296876,2024-12-20T16:48:16.876Z,74351,-0.039001465,-0.11273193,-0.028320312
1734713296882,2024-12-20T16:48:16.882Z,74357,-0.04864502,-0.11578369,-0.033569336
1734713296893,2024-12-20T16:48:16.893Z,74368,-0.04711914,-0.1105957,-0.026550293
1734713296899,2024-12-20T16:48:16.899Z,74374,-0.05053711,-0.11016846,-0.029968262
1734713296906,2024-12-20T16:48:16.906Z,74381,-0.047058105,-0.10473633,-0.0335083
1734713296912,2024-12-20T16:48:16.912Z,74387,-0.032958984,-0.10913086,-0.020324707
1734713296917,2024-12-20T16:48:16.917Z,74392,-0.036865234,-0.11431885,-0.026428223
1734713296924,2024-12-20T16:48:16.924Z,74399,-0.03515625,-0.10723877,-0.034118652
1734713296945,2024-12-20T16:48:16.945Z,74420,-0.031799316,-0.112854004,-0.035705566
1734713296952,2024-12-20T16:48:16.952Z,74427,-0.04449463,-0.11627197,-0.030334473
1734713296958,2024-12-20T16:48:16.958Z,74433,-0.043945312,-0.11468506,-0.027404785
1734713296964,2024-12-20T16:48:16.964Z,74439,-0.05218506,-0.11401367,-0.012084961
1734713296969,2024-12-20T16:48:16.969Z,74444,-0.06488037,-0.11376953,-0.028930664
1734713296982,2024-12-20T16:48:16.982Z,74457,-0.042236328,-0.11590576,-0.024902344
1734713296987,2024-12-20T16:48:16.987Z,74462,-0.039855957,-0.12200928,-0.020935059
1734713296993,2024-12-20T16:48:16.993Z,74468,-0.038208008,-0.12042236,-0.03326416
1734713296998,2024-12-20T16:48:16.998Z,74473,-0.036254883,-0.115112305,-0.03253174
1734713297028,2024-12-20T16:48:17.028Z,74503,-0.04296875,-0.11218262,-0.034301758
1734713297034,2024-12-20T16:48:17.034Z,74509,-0.04309082,-0.11291504,-0.02960205
1734713297039,2024-12-20T16:48:17.039Z,74514,-0.045898438,-0.11584473,-0.018920898
1734713297045,2024-12-20T16:48:17.045Z,74520,-0.051574707,-0.10949707,-0.031982422
1734713297050,2024-12-20T16:48:17.050Z,74525,-0.03692627,-0.11004639,-0.0211792
1734713297073,2024-12-20T16:48:17.073Z,74548,-0.037475586,-0.11352539,-0.02734375
1734713297078,2024-12-20T16:48:17.078Z,74553,-0.03277588,-0.10845947,-0.026672363
1734713297085,2024-12-20T16:48:17.085Z,74560,-0.032165527,-0.11065674,-0.020385742
1734713297091,2024-12-20T16:48:17.091Z,74566,-0.04888916,-0.1105957,-0.028869629
1734713297118,2024-12-20T16:48:17.118Z,74593,-0.045532227,-0.10394287,-0.0289917
1734713297124,2024-12-20T16:48:17.124Z,74599,-0.04425049,-0.107421875,-0.024902344
1734713297131,2024-12-20T16:48:17.131Z,74606,-0.04296875,-0.11035156,-0.028625488
1734713297137,2024-12-20T16:48:17.137Z,74612,-0.039733887,-0.103637695,-0.030761719
1734713297143,2024-12-20T16:48:17.143Z,74618,-0.027770996,-0.117248535,-0.021606445
1734713297163,2024-12-20T16:48:17.163Z,74638,-0.03387451,-0.118896484,-0.025390625
1734713297169,2024-12-20T16:48:17.169Z,74644,-0.045959473,-0.11206055,-0.03375244
1734713297176,2024-12-20T16:48:17.176Z,74651,-0.043273926,-0.11602783,-0.026794434
1734713297211,2024-12-20T16:48:17.211Z,74686,-0.06011963,-0.11212158,-0.025817871
1734713297217,2024-12-20T16:48:17.217Z,74692,-0.05078125,-0.11798096,-0.02709961
1734713297224,2024-12-20T16:48:17.224Z,74699,-0.042114258,-0.11657715,-0.029846191
1734713297230,2024-12-20T16:48:17.230Z,74705,-0.050048828,-0.11444092,-0.030517578
1734713297237,2024-12-20T16:48:17.237Z,74712,-0.03277588,-0.124938965,-0.024719238
1734713297244,2024-12-20T16:48:17.244Z,74719,-0.040283203,-0.11505127,-0.030090332
1734713297305,2024-12-20T16:48:17.305Z,74780,-0.049743652,-0.107788086,-0.032165527
1734713297316,2024-12-20T16:48:17.316Z,74791,-0.044677734,-0.11303711,-0.024658203
1734713297327,2024-12-20T16:48:17.327Z,74802,-0.049804688,-0.11151123,-0.029663086
1734713297336,2024-12-20T16:48:17.336Z,74811,-0.049316406,-0.109802246,-0.029418945
1734713297344,2024-12-20T16:48:17.344Z,74819,-0.045654297,-0.1138916,-0.02520752
1734713297352,2024-12-20T16:48:17.352Z,74827,-0.046142578,-0.111694336,-0.029296875
1734713297359,2024-12-20T16:48:17.359Z,74834,-0.04638672,-0.10797119,-0.028137207
1734713297366,2024-12-20T16:48:17.366Z,74841,-0.04888916,-0.10510254,-0.022644043
1734713297373,2024-12-20T16:48:17.373Z,74848,-0.046875,-0.10223389,-0.024780273
1734713297379,2024-12-20T16:48:17.379Z,74854,-0.046691895,-0.10644531,-0.029052734
1734713297385,2024-12-20T16:48:17.385Z,74860,-0.04925537,-0.107421875,-0.02520752
1734713297392,2024-12-20T16:48:17.392Z,74867,-0.050231934,-0.10644531,-0.029174805
1734713297397,2024-12-20T16:48:17.397Z,74872,-0.049560547,-0.101379395,-0.03289795
1734713297402,2024-12-20T16:48:17.402Z,74877,-0.044189453,-0.101867676,-0.024963379
1734713297408,2024-12-20T16:48:17.408Z,74883,-0.05432129,-0.09899902,-0.03692627
1734713297413,2024-12-20T16:48:17.413Z,74888,-0.042175293,-0.1015625,-0.0234375
1734713297433,2024-12-20T16:48:17.433Z,74908,-0.046691895,-0.107299805,-0.024841309
1734713297439,2024-12-20T16:48:17.439Z,74914,-0.05206299,-0.11212158,-0.028320312
1734713297445,2024-12-20T16:48:17.445Z,74920,-0.049926758,-0.105773926,-0.031799316
1734713297529,2024-12-20T16:48:17.529Z,75004,-0.047851562,-0.10491943,-0.028381348
1734713297536,2024-12-20T16:48:17.536Z,75011,-0.047668457,-0.10662842,-0.03338623
1734713297541,2024-12-20T16:48:17.541Z,75016,-0.05078125,-0.1048584,-0.028076172
1734713297547,2024-12-20T16:48:17.547Z,75022,-0.052124023,-0.10858154,-0.028625488
1734713297554,2024-12-20T16:48:17.554Z,75029,-0.046691895,-0.11248779,-0.022033691
1734713297573,2024-12-20T16:48:17.573Z,75048,-0.054504395,-0.107055664,-0.026733398
1734713297581,2024-12-20T16:48:17.581Z,75056,-0.059143066,-0.10797119,-0.030090332
1734713297589,2024-12-20T16:48:17.589Z,75064,-0.05102539,-0.10986328,-0.032043457
1734713297596,2024-12-20T16:48:17.596Z,75071,-0.046447754,-0.10467529,-0.035888672
1734713297603,2024-12-20T16:48:17.603Z,75078,-0.0435791,-0.10614014,-0.032714844
1734713297614,2024-12-20T16:48:17.614Z,75089,-0.04638672,-0.111083984,-0.026062012
1734713297621,2024-12-20T16:48:17.621Z,75096,-0.05230713,-0.10638428,-0.028869629
1734713297627,2024-12-20T16:48:17.627Z,75102,-0.0491333,-0.10443115,-0.026855469
1734713297633,2024-12-20T16:48:17.633Z,75108,-0.055358887,-0.10510254,-0.024780273
1734713297640,2024-12-20T16:48:17.640Z,75115,-0.051757812,-0.10369873,-0.023803711
1734713297646,2024-12-20T16:48:17.646Z,75121,-0.05517578,-0.094177246,-0.043640137
1734713297657,2024-12-20T16:48:17.657Z,75132,-0.039916992,-0.099731445,-0.020935059
1734713297663,2024-12-20T16:48:17.663Z,75138,-0.03704834,-0.11004639,-0.0095825195
1734713297668,2024-12-20T16:48:17.668Z,75143,-0.046569824,-0.1060791,-0.024230957
1734713297675,2024-12-20T16:48:17.675Z,75150,-0.049194336,-0.0904541,-0.034484863
1734713297681,2024-12-20T16:48:17.681Z,75156,-0.042114258,-0.09399414,-0.021362305
1734713297691,2024-12-20T16:48:17.691Z,75166,-0.04675293,-0.101989746,-0.030029297
1734713297753,2024-12-20T16:48:17.753Z,75228,-0.039123535,-0.10064697,-0.03314209
1734713297760,2024-12-20T16:48:17.760Z,75235,-0.032043457,-0.09094238,-0.017333984
1734713297768,2024-12-20T16:48:17.768Z,75243,-0.041625977,-0.103027344,-0.018676758
1734713297774,2024-12-20T16:48:17.774Z,75249,-0.04156494,-0.10394287,-0.018188477
1734713297796,2024-12-20T16:48:17.796Z,75271,-0.041870117,-0.091674805,-0.023498535
1734713297803,2024-12-20T16:48:17.803Z,75278,-0.045654297,-0.099975586,-0.023986816
1734713297810,2024-12-20T16:48:17.810Z,75285,-0.041870117,-0.10687256,-0.02142334
1734713297816,2024-12-20T16:48:17.816Z,75291,-0.035095215,-0.099853516,-0.012145996
1734713297841,2024-12-20T16:48:17.841Z,75316,-0.022521973,-0.115600586,-0.011657715
1734713297847,2024-12-20T16:48:17.847Z,75322,-0.037902832,-0.10510254,-0.029785156
1734713297853,2024-12-20T16:48:17.853Z,75328,-0.044128418,-0.091918945,-0.04083252
1734713297975,2024-12-20T16:48:17.975Z,75450,-0.03656006,-0.1048584,-0.022766113
1734713297984,2024-12-20T16:48:17.984Z,75459,-0.04321289,-0.11437988,-0.020141602
1734713297991,2024-12-20T16:48:17.991Z,75466,-0.04296875,-0.10748291,-0.010925293
1734713297999,2024-12-20T16:48:17.999Z,75474,-0.041931152,-0.10473633,-0.005554199
1734713298006,2024-12-20T16:48:18.006Z,75481,-0.018005371,-0.11212158,-0.024169922
1734713298013,2024-12-20T16:48:18.013Z,75488,-0.029785156,-0.09954834,-0.026977539
1734713298022,2024-12-20T16:48:18.022Z,75497,-0.03778076,-0.1015625,-0.03503418
1734713298029,2024-12-20T16:48:18.029Z,75504,-0.03857422,-0.10369873,-0.01965332
1734713298035,2024-12-20T16:48:18.035Z,75510,-0.044128418,-0.10882568,-0.010192871
1734713298041,2024-12-20T16:48:18.041Z,75516,-0.03479004,-0.111816406,0.0014038086
1734713298047,2024-12-20T16:48:18.047Z,75522,-0.027770996,-0.11602783,-0.013671875
1734713298065,2024-12-20T16:48:18.065Z,75540,-0.01739502,-0.108947754,-0.015319824
1734713298069,2024-12-20T16:48:18.069Z,75544,-0.039611816,-0.10406494,-0.033081055
1734713298077,2024-12-20T16:48:18.077Z,75552,-0.050720215,-0.10784912,-0.008178711
1734713298085,2024-12-20T16:48:18.085Z,75560,-0.0335083,-0.12286377,-0.018737793
1734713298092,2024-12-20T16:48:18.092Z,75567,-0.026672363,-0.105895996,-0.014099121
1734713298098,2024-12-20T16:48:18.098Z,75573,-0.042419434,-0.105529785,-0.020874023
1734713298156,2024-12-20T16:48:18.156Z,75631,-0.022521973,-0.12042236,-0.024414062
1734713298162,2024-12-20T16:48:18.162Z,75637,-0.03881836,-0.09954834,-0.021972656
1734713298169,2024-12-20T16:48:18.169Z,75644,-0.025939941,-0.1149292,-0.01739502
1734713298175,2024-12-20T16:48:18.175Z,75650,-0.043273926,-0.10595703,-0.022888184
1734713298182,2024-12-20T16:48:18.182Z,75657,-0.040161133,-0.103027344,-0.019958496
1734713298188,2024-12-20T16:48:18.188Z,75663,-0.054016113,-0.10821533,-0.027526855
1734713298201,2024-12-20T16:48:18.201Z,75676,-0.04827881,-0.11029053,-0.011047363
1734713298210,2024-12-20T16:48:18.210Z,75685,-0.02355957,-0.12322998,-0.01763916
1734713298215,2024-12-20T16:48:18.215Z,75690,-0.008178711,-0.11456299,-0.024291992
1734713298221,2024-12-20T16:48:18.221Z,75696,-0.04321289,-0.099121094,-0.024841309
1734713298227,2024-12-20T16:48:18.227Z,75702,-0.049194336,-0.11151123,-0.03277588
1734713298243,2024-12-20T16:48:18.243Z,75718,-0.057556152,-0.1081543,-0.036865234
1734713298246,2024-12-20T16:48:18.246Z,75721,-0.05218506,-0.124572754,-0.012939453
1734713298251,2024-12-20T16:48:18.251Z,75726,-0.045715332,-0.11437988,-0.012390137
1734713298260,2024-12-20T16:48:18.260Z,75735,-0.040893555,-0.11682129,-0.0067749023
1734713298274,2024-12-20T16:48:18.274Z,75749,-0.042236328,-0.12194824,-0.030639648
1734713298289,2024-12-20T16:48:18.289Z,75764,-0.032104492,-0.113586426,-0.035827637
1734713298303,2024-12-20T16:48:18.303Z,75778,-0.044067383,-0.12054443,-0.022155762
1734713298316,2024-12-20T16:48:18.316Z,75791,-0.06463623,-0.1194458,-0.022644043
1734713298327,2024-12-20T16:48:18.327Z,75802,-0.041381836,-0.12963867,-0.011230469
1734713298334,2024-12-20T16:48:18.334Z,75809,-0.059692383,-0.12567139,-0.022827148
1734713298342,2024-12-20T16:48:18.342Z,75817,-0.04534912,-0.11804199,-0.018005371
1734713298348,2024-12-20T16:48:18.348Z,75823,-0.03265381,-0.13574219,-0.0032958984
1734713298355,2024-12-20T16:48:18.355Z,75830,-0.046020508,-0.13208008,-0.024108887
1734713298361,2024-12-20T16:48:18.361Z,75836,-0.033203125,-0.11663818,-0.033447266
1734713298367,2024-12-20T16:48:18.367Z,75842,-0.040527344,-0.1194458,-0.037353516
1734713298373,2024-12-20T16:48:18.373Z,75848,-0.053955078,-0.11907959,-0.04083252
1734713298381,2024-12-20T16:48:18.381Z,75856,-0.044555664,-0.12463379,-0.012451172
1734713298386,2024-12-20T16:48:18.386Z,75861,-0.041503906,-0.1383667,-0.0087890625
1734713298392,2024-12-20T16:48:18.392Z,75867,-0.03765869,-0.12414551,-0.023376465
1734713298398,2024-12-20T16:48:18.398Z,75873,-0.016052246,-0.12506104,-0.018005371
1734713298403,2024-12-20T16:48:18.403Z,75878,-0.03466797,-0.13128662,-0.018920898
1734713298425,2024-12-20T16:48:18.425Z,75900,-0.056518555,-0.11834717,-0.033935547
1734713298431,2024-12-20T16:48:18.431Z,75906,-0.051452637,-0.11828613,-0.020019531
1734713298437,2024-12-20T16:48:18.437Z,75912,-0.052734375,-0.13098145,-0.015319824
1734713298443,2024-12-20T16:48:18.443Z,75918,-0.044555664,-0.12634277,-0.016845703
1734713298448,2024-12-20T16:48:18.448Z,75923,-0.028137207,-0.12939453,-0.012817383
1734713298453,2024-12-20T16:48:18.453Z,75928,-0.040039062,-0.13330078,-0.0087890625
1734713298471,2024-12-20T16:48:18.471Z,75946,-0.031677246,-0.13000488,-0.02709961
1734713298479,2024-12-20T16:48:18.479Z,75954,-0.030883789,-0.12261963,-0.02166748
1734713298484,2024-12-20T16:48:18.484Z,75959,-0.04522705,-0.11791992,-0.026062012
1734713298490,2024-12-20T16:48:18.490Z,75965,-0.046936035,-0.11773682,-0.029907227
1734713298496,2024-12-20T16:48:18.496Z,75971,-0.056396484,-0.12017822,-0.0072021484
1734713298513,2024-12-20T16:48:18.513Z,75988,-0.059020996,-0.13330078,0.009155273
1734713298519,2024-12-20T16:48:18.519Z,75994,-0.02722168,-0.13427734,-0.0234375
1734713298526,2024-12-20T16:48:18.526Z,76001,-0.014770508,-0.12597656,-0.0071411133
1734713298531,2024-12-20T16:48:18.531Z,76006,-0.04864502,-0.12200928,-0.012084961
1734713298560,2024-12-20T16:48:18.560Z,76035,-0.034179688,-0.125,-0.042236328
1734713298566,2024-12-20T16:48:18.566Z,76041,-0.0335083,-0.11480713,-0.02142334
1734713298575,2024-12-20T16:48:18.575Z,76050,-0.064086914,-0.12371826,-0.017028809
1734713298587,2024-12-20T16:48:18.587Z,76062,-0.051208496,-0.12963867,-0.009521484
1734713298600,2024-12-20T16:48:18.600Z,76075,-0.04486084,-0.123046875,0.0013427734
1734713298657,2024-12-20T16:48:18.657Z,76132,-0.03503418,-0.12322998,-0.018066406
1734713298671,2024-12-20T16:48:18.671Z,76146,-0.034240723,-0.11651611,-0.012084961
1734713298682,2024-12-20T16:48:18.682Z,76157,-0.0413208,-0.11602783,-0.026245117
1734713298694,2024-12-20T16:48:18.694Z,76169,-0.040100098,-0.108947754,-0.027648926
1734713298707,2024-12-20T16:48:18.707Z,76182,-0.049072266,-0.11395264,-0.020874023
1734713298719,2024-12-20T16:48:18.719Z,76194,-0.053649902,-0.12506104,-0.011779785
1734713298732,2024-12-20T16:48:18.732Z,76207,-0.04107666,-0.12121582,-0.018493652
1734713298744,2024-12-20T16:48:18.744Z,76219,-0.043029785,-0.118896484,-0.007080078
1734713298753,2024-12-20T16:48:18.753Z,76228,-0.04071045,-0.1270752,-0.0099487305
1734713298760,2024-12-20T16:48:18.760Z,76235,-0.022033691,-0.12652588,-0.01965332
1734713298767,2024-12-20T16:48:18.767Z,76242,-0.028503418,-0.11798096,-0.030090332
1734713298774,2024-12-20T16:48:18.774Z,76249,-0.055114746,-0.11743164,-0.024841309
1734713298781,2024-12-20T16:48:18.781Z,76256,-0.049865723,-0.13305664,-0.010925293
1734713298787,2024-12-20T16:48:18.787Z,76262,-0.043395996,-0.12841797,-0.01159668
1734713298793,2024-12-20T16:48:18.793Z,76268,-0.044128418,-0.12536621,-0.002380371
1734713298799,2024-12-20T16:48:18.799Z,76274,-0.027709961,-0.14031982,-0.006652832
1734713298805,2024-12-20T16:48:18.805Z,76280,-0.01940918,-0.13092041,-0.018493652
1734713298811,2024-12-20T16:48:18.811Z,76286,-0.03894043,-0.117126465,-0.020080566
1734713298816,2024-12-20T16:48:18.816Z,76291,-0.02923584,-0.12719727,-0.02947998
1734713298821,2024-12-20T16:48:18.821Z,76296,-0.03363037,-0.119018555,-0.018005371
1734713298830,2024-12-20T16:48:18.830Z,76305,-0.048217773,-0.12475586,-0.004760742
1734713298835,2024-12-20T16:48:18.835Z,76310,-0.038879395,-0.1274414,8.544922E-4
1734713298840,2024-12-20T16:48:18.840Z,76315,-0.028503418,-0.12640381,0.0029907227
1734713298847,2024-12-20T16:48:18.847Z,76322,-0.034973145,-0.12536621,-0.008972168
1734713298853,2024-12-20T16:48:18.853Z,76328,-0.019836426,-0.11993408,-0.02557373
1734713298875,2024-12-20T16:48:18.875Z,76350,-0.023071289,-0.109375,-0.035583496
1734713298881,2024-12-20T16:48:18.881Z,76356,-0.032104492,-0.119140625,-0.0234375
1734713298886,2024-12-20T16:48:18.886Z,76361,-0.03515625,-0.12878418,-0.018249512
1734713298892,2024-12-20T16:48:18.892Z,76367,-0.047912598,-0.12426758,0.0014038086
1734713298922,2024-12-20T16:48:18.922Z,76397,-0.04949951,-0.13287354,0.0037841797
1734713298928,2024-12-20T16:48:18.928Z,76403,-0.03149414,-0.13427734,-0.0021362305
1734713298935,2024-12-20T16:48:18.935Z,76410,-0.027954102,-0.12738037,-0.01940918
1734713298941,2024-12-20T16:48:18.941Z,76416,-0.026062012,-0.121398926,-0.027160645
1734713298947,2024-12-20T16:48:18.947Z,76422,-0.03314209,-0.123291016,-0.03894043
1734713298963,2024-12-20T16:48:18.963Z,76438,-0.04034424,-0.12426758,-0.024658203
1734713299014,2024-12-20T16:48:19.014Z,76489,-0.05255127,-0.13110352,-0.021728516
1734713299062,2024-12-20T16:48:19.062Z,76537,-0.047729492,-0.14031982,-5.493164E-4
1734713299070,2024-12-20T16:48:19.070Z,76545,-0.046875,-0.14294434,0.0014648438
1734713299079,2024-12-20T16:48:19.079Z,76554,-0.041503906,-0.1449585,-0.010803223
1734713299088,2024-12-20T16:48:19.088Z,76563,-0.03955078,-0.13793945,-0.030578613
1734713299095,2024-12-20T16:48:19.095Z,76570,-0.04522705,-0.13201904,-0.02911377
1734713299103,2024-12-20T16:48:19.103Z,76578,-0.04852295,-0.13800049,-0.027038574
1734713299110,2024-12-20T16:48:19.110Z,76585,-0.05480957,-0.14227295,-0.014343262
1734713299116,2024-12-20T16:48:19.116Z,76591,-0.06188965,-0.14849854,-0.009460449
1734713299122,2024-12-20T16:48:19.122Z,76597,-0.06829834,-0.14544678,0.0044555664
1734713299128,2024-12-20T16:48:19.128Z,76603,-0.054016113,-0.15209961,-0.016052246
1734713299134,2024-12-20T16:48:19.134Z,76609,-0.03326416,-0.14257812,-0.026977539
1734713299146,2024-12-20T16:48:19.146Z,76621,-0.04534912,-0.14678955,-0.022888184
1734713299194,2024-12-20T16:48:19.194Z,76669,-0.06048584,-0.14434814,-0.0099487305
1734713299200,2024-12-20T16:48:19.200Z,76675,-0.07849121,-0.13848877,-0.01574707
1734713299207,2024-12-20T16:48:19.207Z,76682,-0.06719971,-0.13586426,-0.018371582
1734713299215,2024-12-20T16:48:19.215Z,76690,-0.053527832,-0.1348877,-0.034301758
1734713299222,2024-12-20T16:48:19.222Z,76697,-0.049072266,-0.13348389,-0.028259277
1734713299233,2024-12-20T16:48:19.233Z,76708,-0.055419922,-0.13006592,-0.021118164
1734713299240,2024-12-20T16:48:19.240Z,76715,-0.043640137,-0.13708496,-0.020629883
1734713299251,2024-12-20T16:48:19.251Z,76726,-0.04486084,-0.13305664,-0.012817383
1734713299271,2024-12-20T16:48:19.271Z,76746,-0.055725098,-0.13067627,-0.010131836
1734713299284,2024-12-20T16:48:19.284Z,76759,-0.06982422,-0.13092041,0.0056152344
1734713299294,2024-12-20T16:48:19.294Z,76769,-0.05303955,-0.13336182,-0.012084961
1734713299304,2024-12-20T16:48:19.304Z,76779,-0.030578613,-0.13031006,-0.023864746
1734713299324,2024-12-20T16:48:19.324Z,76799,-0.028320312,-0.12939453,-0.009643555
1734713299334,2024-12-20T16:48:19.334Z,76809,-0.051208496,-0.12158203,-0.010131836
1734713299344,2024-12-20T16:48:19.344Z,76819,-0.046875,-0.12585449,-0.013244629
1734713299418,2024-12-20T16:48:19.418Z,76893,-0.051513672,-0.1194458,-0.0073242188
1734713299431,2024-12-20T16:48:19.431Z,76906,-0.068481445,-0.11517334,-0.014343262
1734713299444,2024-12-20T16:48:19.444Z,76919,-0.0345459,-0.1239624,-0.01776123
1734713299452,2024-12-20T16:48:19.452Z,76927,-0.007080078,-0.1260376,-0.015319824
1734713299461,2024-12-20T16:48:19.461Z,76936,-0.04321289,-0.109069824,-0.023010254
1734713299470,2024-12-20T16:48:19.470Z,76945,-0.041381836,-0.1182251,-0.024902344
1734713299477,2024-12-20T16:48:19.477Z,76952,-0.037963867,-0.12164307,-0.0065307617
1734713299483,2024-12-20T16:48:19.483Z,76958,-0.056152344,-0.117248535,-0.010803223
1734713299490,2024-12-20T16:48:19.490Z,76965,-0.06298828,-0.117126465,-0.014831543
1734713299493,2024-12-20T16:48:19.493Z,76968,-0.06915283,-0.111206055,-0.022888184
1734713299499,2024-12-20T16:48:19.499Z,76974,-0.048217773,-0.107910156,-0.047302246
1734713299506,2024-12-20T16:48:19.506Z,76981,-0.021911621,-0.107910156,-0.047851562
1734713299552,2024-12-20T16:48:19.552Z,77027,-0.025390625,-0.113342285,-0.040161133
1734713299558,2024-12-20T16:48:19.558Z,77033,-0.036865234,-0.105529785,-0.03527832
1734713299564,2024-12-20T16:48:19.564Z,77039,-0.055664062,-0.114868164,-0.016967773
1734713299570,2024-12-20T16:48:19.570Z,77045,-0.049194336,-0.11383057,-0.0146484375
1734713299576,2024-12-20T16:48:19.576Z,77051,-0.038085938,-0.1083374,-0.009277344
1734713299579,2024-12-20T16:48:19.579Z,77054,-0.055786133,-0.11114502,-0.018005371
1734713299643,2024-12-20T16:48:19.643Z,77118,-0.0602417,-0.111206055,-0.018859863
1734713299650,2024-12-20T16:48:19.650Z,77125,-0.03289795,-0.12023926,-0.026611328
1734713299657,2024-12-20T16:48:19.657Z,77132,-0.04498291,-0.11212158,-0.030944824
1734713299664,2024-12-20T16:48:19.664Z,77139,-0.055541992,-0.11187744,-0.017150879
1734713299671,2024-12-20T16:48:19.671Z,77146,-0.050842285,-0.11279297,-0.018554688
1734713299684,2024-12-20T16:48:19.684Z,77159,-0.050048828,-0.11077881,-0.014038086
1734713299687,2024-12-20T16:48:19.687Z,77162,-0.058898926,-0.11584473,-0.017333984
1734713299776,2024-12-20T16:48:19.776Z,77251,-0.04699707,-0.111328125,-0.03125
1734713299783,2024-12-20T16:48:19.783Z,77258,-0.03527832,-0.1060791,-0.042419434
1734713299790,2024-12-20T16:48:19.790Z,77265,-0.03845215,-0.10974121,-0.030639648
1734713299796,2024-12-20T16:48:19.796Z,77271,-0.056396484,-0.11077881,-0.022644043
1734713299804,2024-12-20T16:48:19.804Z,77279,-0.049072266,-0.113464355,-0.0115356445
1734713299810,2024-12-20T16:48:19.810Z,77285,-0.035461426,-0.11090088,-0.020629883
1734713299833,2024-12-20T16:48:19.833Z,77308,-0.043273926,-0.10864258,-0.016845703
1734713299840,2024-12-20T16:48:19.840Z,77315,-0.044189453,-0.10888672,-0.018371582
1734713299848,2024-12-20T16:48:19.848Z,77323,-0.032714844,-0.11016846,-0.011962891
1734713299854,2024-12-20T16:48:19.854Z,77329,-0.038146973,-0.107299805,-0.0053100586
1734713299860,2024-12-20T16:48:19.860Z,77335,-0.036010742,-0.109313965,-0.0048828125
1734713299867,2024-12-20T16:48:19.867Z,77342,-0.03729248,-0.107421875,-0.013305664
1734713299870,2024-12-20T16:48:19.870Z,77345,-0.070129395,-0.10974121,-0.011047363
1734713299875,2024-12-20T16:48:19.875Z,77350,-0.043823242,-0.11218262,-0.025024414
1734713299881,2024-12-20T16:48:19.881Z,77356,0.0017089844,-0.119140625,-0.026062012
1734713299887,2024-12-20T16:48:19.887Z,77362,-0.032958984,-0.1149292,-0.018798828
1734713299892,2024-12-20T16:48:19.892Z,77367,-0.041625977,-0.12365723,-0.0014648438
1734713299910,2024-12-20T16:48:19.910Z,77385,-0.034301758,-0.12182617,-0.014587402
1734713299915,2024-12-20T16:48:19.915Z,77390,-0.0211792,-0.11425781,-0.015319824
1734713299920,2024-12-20T16:48:19.920Z,77395,-0.042297363,-0.11206055,-0.017944336
1734713299925,2024-12-20T16:48:19.925Z,77400,-0.03552246,-0.105285645,-0.02923584
1734713299930,2024-12-20T16:48:19.930Z,77405,-0.0040893555,-0.11248779,-0.016601562
1734713299952,2024-12-20T16:48:19.952Z,77427,-0.024719238,-0.11773682,-0.022399902
1734713299957,2024-12-20T16:48:19.957Z,77432,-0.025817871,-0.113464355,-0.013244629
1734713299963,2024-12-20T16:48:19.963Z,77438,-0.02911377,-0.1161499,-0.028259277
1734713299969,2024-12-20T16:48:19.969Z,77444,-0.026123047,-0.109680176,-0.013916016
1734713299975,2024-12-20T16:48:19.975Z,77450,-0.024414062,-0.11853027,-0.004211426
1734713299981,2024-12-20T16:48:19.981Z,77456,-0.037475586,-0.11871338,-0.020263672
1734713300001,2024-12-20T16:48:20.001Z,77476,-0.030334473,-0.10992432,-0.01361084
1734713300005,2024-12-20T16:48:20.005Z,77480,-0.031188965,-0.12036133,-0.023864746
1734713300011,2024-12-20T16:48:20.011Z,77486,-0.030517578,-0.11804199,-0.016784668
1734713300017,2024-12-20T16:48:20.017Z,77492,-0.026977539,-0.1184082,-0.010986328
1734713300022,2024-12-20T16:48:20.022Z,77497,-0.025756836,-0.12213135,-0.012573242
1734713300088,2024-12-20T16:48:20.088Z,77563,-0.027832031,-0.1159668,-0.00390625
1734713300095,2024-12-20T16:48:20.095Z,77570,-0.03741455,-0.10217285,-0.008178711
1734713300237,2024-12-20T16:48:20.237Z,77712,-0.02758789,-0.107421875,-0.020690918
1734713300250,2024-12-20T16:48:20.250Z,77725,-0.02166748,-0.11273193,-0.034973145
1734713300267,2024-12-20T16:48:20.267Z,77742,-0.023498535,-0.10870361,-0.00982666
1734713300279,2024-12-20T16:48:20.279Z,77754,-0.03717041,-0.11303711,-0.013916016
1734713300288,2024-12-20T16:48:20.288Z,77763,-0.030761719,-0.105529785,-0.034729004
1734713300295,2024-12-20T16:48:20.295Z,77770,-0.008911133,-0.10534668,-0.015808105
1734713300301,2024-12-20T16:48:20.301Z,77776,-0.042053223,-0.104003906,-0.03125
1734713300308,2024-12-20T16:48:20.308Z,77783,-0.03326416,-0.10217285,-0.024414062
1734713300314,2024-12-20T16:48:20.314Z,77789,-0.037475586,-0.11254883,-0.018249512
1734713300320,2024-12-20T16:48:20.320Z,77795,-0.030944824,-0.1227417,-0.020080566
1734713300326,2024-12-20T16:48:20.326Z,77801,-0.030090332,-0.10870361,-0.017700195
1734713300332,2024-12-20T16:48:20.332Z,77807,-0.043945312,-0.10491943,-0.024536133
1734713300337,2024-12-20T16:48:20.337Z,77812,-0.04168701,-0.107299805,-0.036315918
1734713300342,2024-12-20T16:48:20.342Z,77817,-0.03491211,-0.10095215,-0.035461426
1734713300348,2024-12-20T16:48:20.348Z,77823,-0.018371582,-0.111328125,-0.026306152
1734713300352,2024-12-20T16:48:20.352Z,77827,-0.012145996,-0.12438965,-0.01751709
1734713300360,2024-12-20T16:48:20.360Z,77835,-0.032958984,-0.10668945,-0.019348145
1734713300365,2024-12-20T16:48:20.365Z,77840,-0.034973145,-0.108947754,-0.014282227
1734713300370,2024-12-20T16:48:20.370Z,77845,-0.048583984,-0.109680176,-0.016296387
1734713300375,2024-12-20T16:48:20.375Z,77850,-0.042663574,-0.1003418,-0.02178955
1734713300381,2024-12-20T16:48:20.381Z,77856,-0.031433105,-0.103393555,-0.019958496
1734713300402,2024-12-20T16:48:20.402Z,77877,-0.0368042,-0.10223389,-0.03515625
1734713300407,2024-12-20T16:48:20.407Z,77882,-0.0036010742,-0.10644531,-0.030395508
1734713300412,2024-12-20T16:48:20.412Z,77887,-0.0064697266,-0.11798096,-0.010986328
1734713300417,2024-12-20T16:48:20.417Z,77892,-0.03503418,-0.12084961,-0.0067749023
1734713300421,2024-12-20T16:48:20.421Z,77896,-0.04144287,-0.11004639,-0.01373291
1734713300426,2024-12-20T16:48:20.426Z,77901,-0.047668457,-0.10443115,-0.014892578
1734713300450,2024-12-20T16:48:20.450Z,77925,-0.04663086,-0.1138916,-0.015991211
1734713300455,2024-12-20T16:48:20.455Z,77930,-0.036499023,-0.11425781,-0.01727295
1734713300460,2024-12-20T16:48:20.460Z,77935,-0.031677246,-0.1038208,-0.030456543
1734713300466,2024-12-20T16:48:20.466Z,77941,-0.011657715,-0.11364746,-0.02368164
1734713300471,2024-12-20T16:48:20.471Z,77946,-0.020629883,-0.11804199,-0.02166748
1734713300493,2024-12-20T16:48:20.493Z,77968,-0.026855469,-0.11798096,-0.0061035156
1734713300499,2024-12-20T16:48:20.499Z,77974,-0.058288574,-0.1126709,-0.0068969727
1734713300543,2024-12-20T16:48:20.543Z,78018,-0.037841797,-0.119628906,-0.01550293
1734713300549,2024-12-20T16:48:20.549Z,78024,-0.032470703,-0.115478516,-0.01965332
1734713300555,2024-12-20T16:48:20.555Z,78030,-0.041748047,-0.11804199,-0.024230957
1734713300561,2024-12-20T16:48:20.561Z,78036,-0.012451172,-0.12872314,-0.02166748
1734713300568,2024-12-20T16:48:20.568Z,78043,-0.016723633,-0.115600586,-0.032043457
1734713300583,2024-12-20T16:48:20.583Z,78058,-0.032287598,-0.11541748,-0.021606445
1734713300589,2024-12-20T16:48:20.589Z,78064,-0.032226562,-0.12652588,-0.021606445
1734713300597,2024-12-20T16:48:20.597Z,78072,-0.038513184,-0.11456299,-0.013061523
1734713300603,2024-12-20T16:48:20.603Z,78078,-0.04486084,-0.11639404,-0.013427734
1734713300608,2024-12-20T16:48:20.608Z,78083,-0.03881836,-0.11407471,-0.02331543
1734713300614,2024-12-20T16:48:20.614Z,78089,-0.023376465,-0.11431885,-0.020446777
1734713300633,2024-12-20T16:48:20.633Z,78108,-0.025390625,-0.11395264,-0.018493652
1734713300639,2024-12-20T16:48:20.639Z,78114,-0.018798828,-0.11505127,-0.025512695
1734713300644,2024-12-20T16:48:20.644Z,78119,-0.023010254,-0.113342285,-0.017211914
1734713300651,2024-12-20T16:48:20.651Z,78126,-0.040222168,-0.10687256,-0.017211914
1734713300656,2024-12-20T16:48:20.656Z,78131,-0.03100586,-0.11328125,-0.02130127
1734713300673,2024-12-20T16:48:20.673Z,78148,-0.026367188,-0.11383057,-0.009643555
1734713300679,2024-12-20T16:48:20.679Z,78154,-0.041809082,-0.10839844,-0.016967773
1734713300685,2024-12-20T16:48:20.685Z,78160,-0.02935791,-0.11206055,-0.019104004
1734713300691,2024-12-20T16:48:20.691Z,78166,-0.02947998,-0.11419678,-0.008239746
1734713300697,2024-12-20T16:48:20.697Z,78172,-0.032165527,-0.12030029,-0.009521484
1734713300703,2024-12-20T16:48:20.703Z,78178,-0.026855469,-0.12359619,-0.007751465
1734713300720,2024-12-20T16:48:20.720Z,78195,-0.043762207,-0.119262695,-0.018615723
1734713300725,2024-12-20T16:48:20.725Z,78200,-0.043762207,-0.120666504,-0.009155273
1734713300731,2024-12-20T16:48:20.731Z,78206,-0.038208008,-0.12133789,-0.01977539
1734713300736,2024-12-20T16:48:20.736Z,78211,-0.032348633,-0.1159668,-0.022583008
1734713300764,2024-12-20T16:48:20.764Z,78239,-0.026977539,-0.119628906,-0.036376953
1734713300769,2024-12-20T16:48:20.769Z,78244,-0.025146484,-0.1184082,-0.023010254
1734713300775,2024-12-20T16:48:20.775Z,78250,-0.019958496,-0.13061523,-0.010009766
1734713300780,2024-12-20T16:48:20.780Z,78255,-0.029174805,-0.13208008,-0.0060424805
1734713300807,2024-12-20T16:48:20.807Z,78282,-0.04449463,-0.12335205,-0.0068359375
1734713300814,2024-12-20T16:48:20.814Z,78289,-0.043151855,-0.1251831,-0.010620117
1734713300820,2024-12-20T16:48:20.820Z,78295,-0.043640137,-0.12011719,-0.016723633
1734713300825,2024-12-20T16:48:20.825Z,78300,-0.043518066,-0.11126709,-0.024291992
1734713300831,2024-12-20T16:48:20.831Z,78306,-0.031799316,-0.114868164,-0.019165039
1734713300899,2024-12-20T16:48:20.899Z,78374,-0.026733398,-0.11773682,-0.020935059
1734713300905,2024-12-20T16:48:20.905Z,78380,-0.020202637,-0.12176514,-0.010437012
1734713300911,2024-12-20T16:48:20.911Z,78386,-0.0289917,-0.11993408,-0.0119018555
1734713300917,2024-12-20T16:48:20.917Z,78392,-0.037841797,-0.112976074,-0.01171875
1734713300948,2024-12-20T16:48:20.948Z,78423,-0.043701172,-0.109069824,-0.019226074
1734713300956,2024-12-20T16:48:20.956Z,78431,-0.038330078,-0.11328125,-0.016906738
1734713300970,2024-12-20T16:48:20.970Z,78445,-0.037902832,-0.112976074,-0.016540527
1734713300977,2024-12-20T16:48:20.977Z,78452,-0.038208008,-0.10998535,-0.0256958
1734713300983,2024-12-20T16:48:20.983Z,78458,-0.028015137,-0.11224365,-0.022705078
1734713300989,2024-12-20T16:48:20.989Z,78464,-0.0289917,-0.115722656,-0.0211792
1734713300995,2024-12-20T16:48:20.995Z,78470,-0.02331543,-0.12243652,-0.016113281
1734713301000,2024-12-20T16:48:21Z,78475,-0.031066895,-0.11755371,-0.01751709
1734713301006,2024-12-20T16:48:21.006Z,78481,-0.04949951,-0.11102295,-0.019348145
1734713301011,2024-12-20T16:48:21.011Z,78486,-0.04119873,-0.1217041,-0.024536133
1734713301016,2024-12-20T16:48:21.016Z,78491,-0.036132812,-0.12298584,-0.010253906
1734713301036,2024-12-20T16:48:21.036Z,78511,-0.0435791,-0.12231445,-0.017944336
1734713301041,2024-12-20T16:48:21.041Z,78516,-0.034240723,-0.11981201,-0.024291992
1734713301047,2024-12-20T16:48:21.047Z,78522,-0.030517578,-0.117370605,-0.023498535
1734713301052,2024-12-20T16:48:21.052Z,78527,-0.035461426,-0.11755371,-0.027526855
1734713301057,2024-12-20T16:48:21.057Z,78532,-0.029968262,-0.12005615,-0.023010254
1734713301078,2024-12-20T16:48:21.078Z,78553,-0.03741455,-0.117004395,-0.023254395
1734713301084,2024-12-20T16:48:21.084Z,78559,-0.04156494,-0.12011719,-0.020141602
1734713301089,2024-12-20T16:48:21.089Z,78564,-0.03161621,-0.12432861,-0.012329102
1734713301095,2024-12-20T16:48:21.095Z,78570,-0.036315918,-0.118652344,-0.013549805
1734713301101,2024-12-20T16:48:21.101Z,78576,-0.029907227,-0.11669922,-0.014160156
1734713301106,2024-12-20T16:48:21.106Z,78581,-0.040649414,-0.10992432,-0.026245117
1734713301125,2024-12-20T16:48:21.125Z,78600,-0.03881836,-0.10449219,-0.03125
1734713301131,2024-12-20T16:48:21.131Z,78606,-0.023864746,-0.11651611,-0.01739502
1734713301138,2024-12-20T16:48:21.138Z,78613,-0.03479004,-0.11755371,-0.016174316
1734713301144,2024-12-20T16:48:21.144Z,78619,-0.036193848,-0.11175537,-0.01751709
1734713301150,2024-12-20T16:48:21.150Z,78625,-0.037475586,-0.11254883,-0.020507812
1734713301167,2024-12-20T16:48:21.167Z,78642,-0.03656006,-0.11407471,-0.020141602
1734713301172,2024-12-20T16:48:21.172Z,78647,-0.03564453,-0.111206055,-0.018066406
1734713301271,2024-12-20T16:48:21.271Z,78746,-0.036987305,-0.11425781,-0.025512695
1734713301288,2024-12-20T16:48:21.288Z,78763,-0.03186035,-0.117492676,-0.024841309
1734713301306,2024-12-20T16:48:21.306Z,78781,-0.036987305,-0.1159668,-0.021362305
1734713301319,2024-12-20T16:48:21.319Z,78794,-0.037109375,-0.12054443,-0.015258789
1734713301332,2024-12-20T16:48:21.332Z,78807,-0.038085938,-0.121032715,-0.016784668
1734713301343,2024-12-20T16:48:21.343Z,78818,-0.041381836,-0.117492676,-0.012207031
1734713301355,2024-12-20T16:48:21.355Z,78830,-0.042785645,-0.12023926,-0.01586914
1734713301363,2024-12-20T16:48:21.363Z,78838,-0.04638672,-0.11517334,-0.026367188
1734713301370,2024-12-20T16:48:21.370Z,78845,-0.038513184,-0.11608887,-0.026000977
1734713301376,2024-12-20T16:48:21.376Z,78851,-0.033569336,-0.11883545,-0.026428223
1734713301384,2024-12-20T16:48:21.384Z,78859,-0.03692627,-0.11376953,-0.025939941
1734713301387,2024-12-20T16:48:21.387Z,78862,-0.038757324,-0.11193848,-0.026306152
1734713301393,2024-12-20T16:48:21.393Z,78868,-0.038146973,-0.11462402,-0.021484375
1734713301400,2024-12-20T16:48:21.400Z,78875,-0.043823242,-0.11071777,-0.020141602
1734713301405,2024-12-20T16:48:21.405Z,78880,-0.04284668,-0.11071777,-0.021850586
1734713301410,2024-12-20T16:48:21.410Z,78885,-0.04034424,-0.1126709,-0.01776123
1734713301415,2024-12-20T16:48:21.415Z,78890,-0.042785645,-0.1105957,-0.023132324
1734713301421,2024-12-20T16:48:21.421Z,78896,-0.040100098,-0.105651855,-0.024719238
1734713301425,2024-12-20T16:48:21.425Z,78900,-0.037963867,-0.103149414,-0.0256958
1734713301431,2024-12-20T16:48:21.431Z,78906,-0.04333496,-0.10333252,-0.026245117
1734713301483,2024-12-20T16:48:21.483Z,78958,-0.043273926,-0.099853516,-0.030883789
1734713301489,2024-12-20T16:48:21.489Z,78964,-0.03564453,-0.10345459,-0.030822754
1734713301494,2024-12-20T16:48:21.494Z,78969,-0.03503418,-0.11077881,-0.02355957
1734713301502,2024-12-20T16:48:21.502Z,78977,-0.034851074,-0.11199951,-0.016601562
1734713301510,2024-12-20T16:48:21.510Z,78985,-0.039794922,-0.107910156,-0.018615723
1734713301517,2024-12-20T16:48:21.517Z,78992,-0.04925537,-0.103271484,-0.02508545
1734713301532,2024-12-20T16:48:21.532Z,79007,-0.05731201,-0.09490967,-0.03479004
1734713301539,2024-12-20T16:48:21.539Z,79014,-0.050048828,-0.09790039,-0.043945312
1734713301545,2024-12-20T16:48:21.545Z,79020,-0.02911377,-0.11242676,-0.027954102
1734713301551,2024-12-20T16:48:21.551Z,79026,-0.028137207,-0.12060547,-0.020568848
1734713301557,2024-12-20T16:48:21.557Z,79032,-0.03515625,-0.11291504,-0.020874023
1734713301619,2024-12-20T16:48:21.619Z,79094,-0.043823242,-0.10668945,-0.019897461
1734713301623,2024-12-20T16:48:21.623Z,79098,-0.050109863,-0.107666016,-0.03845215
1734713301628,2024-12-20T16:48:21.628Z,79103,-0.04449463,-0.10449219,-0.026550293
1734713301635,2024-12-20T16:48:21.635Z,79110,-0.03967285,-0.1104126,-0.022827148
1734713301641,2024-12-20T16:48:21.641Z,79116,-0.031921387,-0.11340332,-0.026733398
1734713301646,2024-12-20T16:48:21.646Z,79121,-0.031066895,-0.09863281,-0.024414062
1734713301664,2024-12-20T16:48:21.664Z,79139,-0.04119873,-0.09411621,-0.041259766
1734713301671,2024-12-20T16:48:21.671Z,79146,-0.036010742,-0.10192871,-0.032836914
1734713301679,2024-12-20T16:48:21.679Z,79154,-0.03387451,-0.10253906,-0.015686035
1734713301686,2024-12-20T16:48:21.686Z,79161,-0.036132812,-0.107666016,-0.017333984
1734713301693,2024-12-20T16:48:21.693Z,79168,-0.0423584,-0.099975586,-0.019897461
1734713301701,2024-12-20T16:48:21.701Z,79176,-0.030212402,-0.09851074,-0.02319336
1734713301709,2024-12-20T16:48:21.709Z,79184,-0.021728516,-0.0993042,-0.018920898
1734713301716,2024-12-20T16:48:21.716Z,79191,-0.028686523,-0.11248779,-0.015991211
1734713301723,2024-12-20T16:48:21.723Z,79198,-0.041381836,-0.1003418,-0.023864746
1734713301730,2024-12-20T16:48:21.730Z,79205,-0.02935791,-0.09436035,-0.020874023
1734713301736,2024-12-20T16:48:21.736Z,79211,-0.02722168,-0.100097656,-0.017089844
1734713301742,2024-12-20T16:48:21.742Z,79217,-0.037719727,-0.101135254,-0.041625977
1734713301756,2024-12-20T16:48:21.756Z,79231,-0.022766113,-0.097473145,-0.028747559
1734713301760,2024-12-20T16:48:21.760Z,79235,-0.020690918,-0.09942627,-0.014404297
1734713301765,2024-12-20T16:48:21.765Z,79240,-0.035339355,-0.10601807,-0.024169922
1734713301849,2024-12-20T16:48:21.849Z,79324,-0.041870117,-0.08758545,-0.02746582
1734713301860,2024-12-20T16:48:21.860Z,79335,-0.029663086,-0.091430664,-0.024841309
1734713301871,2024-12-20T16:48:21.871Z,79346,-0.03137207,-0.10217285,-0.02166748
1734713301889,2024-12-20T16:48:21.889Z,79364,-0.020568848,-0.107543945,-0.017211914
1734713301900,2024-12-20T16:48:21.900Z,79375,-0.021240234,-0.10650635,-0.014282227
1734713301909,2024-12-20T16:48:21.909Z,79384,-0.029541016,-0.10461426,-0.030334473
1734713301915,2024-12-20T16:48:21.915Z,79390,-0.03161621,-0.09674072,-0.029724121
1734713301922,2024-12-20T16:48:21.922Z,79397,-0.049194336,-0.09295654,-0.041259766
1734713301928,2024-12-20T16:48:21.928Z,79403,-0.030090332,-0.10058594,-0.020996094
1734713302036,2024-12-20T16:48:22.036Z,79511,-0.020141602,-0.11236572,-0.0021362305
1734713302049,2024-12-20T16:48:22.049Z,79524,-0.033935547,-0.11602783,-0.015686035
1734713302062,2024-12-20T16:48:22.062Z,79537,-0.04650879,-0.110961914,-0.039123535
1734713302074,2024-12-20T16:48:22.074Z,79549,-0.026123047,-0.10772705,-0.031982422
1734713302085,2024-12-20T16:48:22.085Z,79560,-0.022216797,-0.11981201,-0.03149414
1734713302093,2024-12-20T16:48:22.093Z,79568,-0.045043945,-0.11480713,-0.032287598
1734713302097,2024-12-20T16:48:22.097Z,79572,-0.04852295,-0.1260376,-0.0087890625
1734713302105,2024-12-20T16:48:22.105Z,79580,-0.055358887,-0.12207031,-0.012268066
1734713302113,2024-12-20T16:48:22.113Z,79588,-0.03869629,-0.12359619,-0.016967773
1734713302121,2024-12-20T16:48:22.121Z,79596,-0.045532227,-0.11828613,-0.03363037
1734713302128,2024-12-20T16:48:22.128Z,79603,-0.049072266,-0.10876465,-0.028137207
1734713302134,2024-12-20T16:48:22.134Z,79609,-0.04144287,-0.11029053,-0.041809082
1734713302138,2024-12-20T16:48:22.138Z,79613,-0.027648926,-0.118652344,-0.03326416
1734713302144,2024-12-20T16:48:22.144Z,79619,-0.021118164,-0.11566162,-0.040161133
1734713302150,2024-12-20T16:48:22.150Z,79625,-0.020690918,-0.117614746,-0.01159668
1734713302156,2024-12-20T16:48:22.156Z,79631,-0.049194336,-0.12371826,-0.016052246
1734713302162,2024-12-20T16:48:22.162Z,79637,-0.03942871,-0.11682129,-0.029968262
1734713302167,2024-12-20T16:48:22.167Z,79642,-0.024047852,-0.118652344,-0.018310547
1734713302173,2024-12-20T16:48:22.173Z,79648,-0.062438965,-0.117492676,-0.028747559
1734713302177,2024-12-20T16:48:22.177Z,79652,-0.056518555,-0.12780762,-0.024169922
1734713302182,2024-12-20T16:48:22.182Z,79657,-0.03857422,-0.12298584,-0.023620605
1734713302187,2024-12-20T16:48:22.187Z,79662,-0.029541016,-0.1194458,-0.035217285
1734713302195,2024-12-20T16:48:22.195Z,79670,-0.032714844,-0.1182251,-0.027770996
1734713302206,2024-12-20T16:48:22.206Z,79681,-0.0335083,-0.11987305,-0.027709961
1734713302210,2024-12-20T16:48:22.210Z,79685,-0.04296875,-0.122680664,-0.018310547
1734713302216,2024-12-20T16:48:22.216Z,79691,-0.06317139,-0.12109375,-0.029968262
1734713302221,2024-12-20T16:48:22.221Z,79696,-0.047973633,-0.12310791,-0.029052734
1734713302226,2024-12-20T16:48:22.226Z,79701,-0.042297363,-0.122558594,-0.039733887
1734713302249,2024-12-20T16:48:22.249Z,79724,-0.03778076,-0.11846924,-0.038208008
1734713302255,2024-12-20T16:48:22.255Z,79730,-0.036132812,-0.12365723,-0.040100098
1734713302260,2024-12-20T16:48:22.260Z,79735,-0.037353516,-0.122558594,-0.023132324
1734713302265,2024-12-20T16:48:22.265Z,79740,-0.044921875,-0.1237793,-0.01776123
1734713302270,2024-12-20T16:48:22.270Z,79745,-0.04901123,-0.1274414,-0.02154541
1734713302275,2024-12-20T16:48:22.275Z,79750,-0.048095703,-0.124938965,-0.026794434
1734713302296,2024-12-20T16:48:22.296Z,79771,-0.04925537,-0.12286377,-0.034240723
1734713302302,2024-12-20T16:48:22.302Z,79777,-0.03540039,-0.12792969,-0.04748535
1734713302308,2024-12-20T16:48:22.308Z,79783,-0.025390625,-0.1303711,-0.018127441
1734713302313,2024-12-20T16:48:22.313Z,79788,-0.050354004,-0.13391113,-0.0068969727
1734713302319,2024-12-20T16:48:22.319Z,79794,-0.040222168,-0.14398193,-0.0064697266
1734713302384,2024-12-20T16:48:22.384Z,79859,-0.050354004,-0.13061523,-0.017578125
1734713302390,2024-12-20T16:48:22.390Z,79865,-0.054992676,-0.12701416,-0.028320312
1734713302395,2024-12-20T16:48:22.395Z,79870,-0.043945312,-0.13153076,-0.035583496
1734713302401,2024-12-20T16:48:22.401Z,79876,-0.0357666,-0.12908936,-0.031799316
1734713302432,2024-12-20T16:48:22.432Z,79907,-0.036010742,-0.1305542,-0.03363037
1734713302439,2024-12-20T16:48:22.439Z,79914,-0.033569336,-0.13702393,-0.02319336
1734713302446,2024-12-20T16:48:22.446Z,79921,-0.05041504,-0.13372803,-4.8828125E-4
1734713302453,2024-12-20T16:48:22.453Z,79928,-0.05444336,-0.13421631,-0.005065918
1734713302460,2024-12-20T16:48:22.460Z,79935,-0.050109863,-0.12713623,-0.014953613
1734713302472,2024-12-20T16:48:22.472Z,79947,-0.04736328,-0.11871338,-0.030273438
1734713302478,2024-12-20T16:48:22.478Z,79953,-0.045654297,-0.12060547,-0.038513184
1734713302484,2024-12-20T16:48:22.484Z,79959,-0.042236328,-0.12194824,-0.024353027
1734713302490,2024-12-20T16:48:22.490Z,79965,-0.03137207,-0.12664795,-0.021850586
1734713302495,2024-12-20T16:48:22.495Z,79970,-0.039794922,-0.121032715,-0.008850098
1734713302500,2024-12-20T16:48:22.500Z,79975,-0.0413208,-0.12768555,0.0015869141
1734713302521,2024-12-20T16:48:22.521Z,79996,-0.051696777,-0.121276855,-0.014099121
1734713302527,2024-12-20T16:48:22.527Z,80002,-0.04724121,-0.115478516,-0.023925781
1734713302532,2024-12-20T16:48:22.532Z,80007,-0.04248047,-0.11767578,-0.021850586
1734713302540,2024-12-20T16:48:22.540Z,80015,-0.036621094,-0.1239624,-0.027893066
1734713302545,2024-12-20T16:48:22.545Z,80020,-0.03314209,-0.116882324,-0.029418945
1734713302563,2024-12-20T16:48:22.563Z,80038,-0.026245117,-0.12420654,-0.015197754
1734713302570,2024-12-20T16:48:22.570Z,80045,-0.051818848,-0.12585449,-0.0034179688
1734713302575,2024-12-20T16:48:22.575Z,80050,-0.055236816,-0.12243652,-0.003112793
1734713302580,2024-12-20T16:48:22.580Z,80055,-0.050231934,-0.12615967,-0.004211426
1734713302585,2024-12-20T16:48:22.585Z,80060,-0.059631348,-0.11633301,-0.02154541
1734713302590,2024-12-20T16:48:22.590Z,80065,-0.013916016,-0.12286377,-0.030700684
1734713302610,2024-12-20T16:48:22.610Z,80085,-0.02557373,-0.115722656,-0.027282715
1734713302657,2024-12-20T16:48:22.657Z,80132,-0.03387451,-0.12188721,-0.019104004
1734713302664,2024-12-20T16:48:22.664Z,80139,-0.03552246,-0.12200928,-0.011291504
1734713302671,2024-12-20T16:48:22.671Z,80146,-0.043151855,-0.11883545,-0.003540039
1734713302677,2024-12-20T16:48:22.677Z,80152,-0.04748535,-0.123046875,-0.0034179688
1734713302684,2024-12-20T16:48:22.684Z,80159,-0.04650879,-0.12017822,-0.010498047
1734713302744,2024-12-20T16:48:22.744Z,80219,-0.038146973,-0.119018555,-0.020629883
1734713302751,2024-12-20T16:48:22.751Z,80226,-0.02734375,-0.1194458,-0.027893066
1734713302758,2024-12-20T16:48:22.758Z,80233,-0.024536133,-0.11987305,-0.018981934
1734713302764,2024-12-20T16:48:22.764Z,80239,-0.028503418,-0.12365723,-0.01940918
1734713302771,2024-12-20T16:48:22.771Z,80246,-0.035705566,-0.12371826,-0.0026245117
1734713302778,2024-12-20T16:48:22.778Z,80253,-0.04119873,-0.124816895,0.0024414062
1734713302791,2024-12-20T16:48:22.791Z,80266,-0.04046631,-0.12298584,-0.002319336
1734713302796,2024-12-20T16:48:22.796Z,80271,-0.04107666,-0.11883545,-0.012451172
1734713302802,2024-12-20T16:48:22.802Z,80277,-0.029907227,-0.11987305,-0.020568848
1734713302808,2024-12-20T16:48:22.808Z,80283,-0.01940918,-0.117004395,-0.024597168
1734713302813,2024-12-20T16:48:22.813Z,80288,-0.016967773,-0.11968994,-0.01953125
1734713302837,2024-12-20T16:48:22.837Z,80312,-0.03643799,-0.11834717,-0.00579834
1734713302843,2024-12-20T16:48:22.843Z,80318,-0.030395508,-0.123046875,0.0061035156
1734713302849,2024-12-20T16:48:22.849Z,80324,-0.04510498,-0.12060547,-0.0033569336
1734713302855,2024-12-20T16:48:22.855Z,80330,-0.022949219,-0.117126465,-0.014526367
1734713302860,2024-12-20T16:48:22.860Z,80335,-0.017822266,-0.11602783,-0.016967773
1734713302866,2024-12-20T16:48:22.866Z,80341,-0.024841309,-0.12042236,-0.026550293
1734713302880,2024-12-20T16:48:22.880Z,80355,-0.016052246,-0.12158203,-0.024353027
1734713302886,2024-12-20T16:48:22.886Z,80361,-0.024414062,-0.12097168,-0.009887695
1734713302892,2024-12-20T16:48:22.892Z,80367,-0.04663086,-0.123413086,-9.1552734E-4
1734713302896,2024-12-20T16:48:22.896Z,80371,-0.023132324,-0.1305542,-0.0041503906
1734713302902,2024-12-20T16:48:22.902Z,80377,-0.017700195,-0.12420654,-0.011108398
1734713302923,2024-12-20T16:48:22.923Z,80398,-0.027709961,-0.124938965,-0.014343262
1734713302928,2024-12-20T16:48:22.928Z,80403,-0.020385742,-0.1295166,-0.023132324
1734713302933,2024-12-20T16:48:22.933Z,80408,-0.03302002,-0.12164307,-0.016174316
1734713302939,2024-12-20T16:48:22.939Z,80414,-0.03186035,-0.13269043,-0.014038086
1734713302944,2024-12-20T16:48:22.944Z,80419,-0.024291992,-0.1338501,-0.008972168
1734713302950,2024-12-20T16:48:22.950Z,80425,-0.04559326,-0.1281128,-0.0036010742
1734713302971,2024-12-20T16:48:22.971Z,80446,-0.030395508,-0.1383667,-0.009094238
1734713303018,2024-12-20T16:48:23.018Z,80493,-0.021850586,-0.13598633,-0.009094238
1734713303059,2024-12-20T16:48:23.059Z,80534,-0.024658203,-0.1373291,-0.021850586
1734713303067,2024-12-20T16:48:23.067Z,80542,-0.03527832,-0.1315918,-0.03552246
1734713303075,2024-12-20T16:48:23.075Z,80550,-0.02331543,-0.1416626,-0.02355957
1734713303081,2024-12-20T16:48:23.081Z,80556,-0.036254883,-0.14587402,-0.010620117
1734713303088,2024-12-20T16:48:23.088Z,80563,-0.045715332,-0.1427002,-0.0049438477
1734713303095,2024-12-20T16:48:23.095Z,80570,-0.049743652,-0.14874268,0.0051879883
1734713303107,2024-12-20T16:48:23.107Z,80582,-0.047607422,-0.15032959,5.493164E-4
1734713303150,2024-12-20T16:48:23.150Z,80625,-0.043945312,-0.14898682,-0.008483887
1734713303157,2024-12-20T16:48:23.157Z,80632,-0.032348633,-0.14727783,-0.040161133
1734713303165,2024-12-20T16:48:23.165Z,80640,-0.030151367,-0.14324951,-0.035949707
1734713303171,2024-12-20T16:48:23.171Z,80646,-0.050964355,-0.14733887,-0.02319336
1734713303177,2024-12-20T16:48:23.177Z,80652,-0.04876709,-0.15075684,4.8828125E-4
1734713303183,2024-12-20T16:48:23.183Z,80658,-0.05633545,-0.15112305,-7.9345703E-4
1734713303197,2024-12-20T16:48:23.197Z,80672,-0.04296875,-0.14611816,-0.010192871
1734713303204,2024-12-20T16:48:23.204Z,80679,-0.04473877,-0.1416626,-0.016784668
1734713303210,2024-12-20T16:48:23.210Z,80685,-0.059448242,-0.13421631,-0.032958984
1734713303216,2024-12-20T16:48:23.216Z,80691,-0.027832031,-0.14227295,-0.039794922
1734713303221,2024-12-20T16:48:23.221Z,80696,-0.04486084,-0.140625,-0.019958496
1734713303238,2024-12-20T16:48:23.238Z,80713,-0.0592041,-0.13848877,-0.009399414
1734713303241,2024-12-20T16:48:23.241Z,80716,-0.045410156,-0.13446045,0.002380371
1734713303251,2024-12-20T16:48:23.251Z,80726,-0.04260254,-0.13250732,-0.016052246
1734713303257,2024-12-20T16:48:23.257Z,80732,-0.022399902,-0.12664795,-0.02923584
1734713303262,2024-12-20T16:48:23.262Z,80737,-0.032409668,-0.11779785,-0.038635254
1734713303267,2024-12-20T16:48:23.267Z,80742,-0.044006348,-0.119018555,-0.023742676
1734713303329,2024-12-20T16:48:23.329Z,80804,-0.030456543,-0.13098145,-0.013183594
1734713303335,2024-12-20T16:48:23.335Z,80810,-0.035339355,-0.120910645,-0.008178711
1734713303341,2024-12-20T16:48:23.341Z,80816,-0.05456543,-0.115478516,-0.005493164
1734713303347,2024-12-20T16:48:23.347Z,80822,-0.04119873,-0.121520996,-5.493164E-4
1734713303353,2024-12-20T16:48:23.353Z,80828,-0.01739502,-0.121032715,-0.030334473
1734713303359,2024-12-20T16:48:23.359Z,80834,-0.017456055,-0.11065674,-0.036865234
1734713303376,2024-12-20T16:48:23.376Z,80851,-0.025268555,-0.11456299,-0.036621094
1734713303384,2024-12-20T16:48:23.384Z,80859,-0.030517578,-0.11816406,-0.019897461
1734713303397,2024-12-20T16:48:23.397Z,80872,-0.039367676,-0.11682129,-7.324219E-4
1734713303420,2024-12-20T16:48:23.420Z,80895,-0.049743652,-0.12158203,0.008728027
1734713303472,2024-12-20T16:48:23.472Z,80947,-0.06036377,-0.12164307,0.012268066
1734713303511,2024-12-20T16:48:23.511Z,80986,-0.018066406,-0.12506104,-0.026062012
1734713303516,2024-12-20T16:48:23.516Z,80991,-0.02508545,-0.11407471,-0.033813477
1734713303527,2024-12-20T16:48:23.527Z,81002,-0.040039062,-0.115478516,-0.022460938
1734713303538,2024-12-20T16:48:23.538Z,81013,-0.038085938,-0.12237549,-0.008911133
1734713303547,2024-12-20T16:48:23.547Z,81022,-0.041870117,-0.120910645,-0.009643555
1734713303556,2024-12-20T16:48:23.556Z,81031,-0.03289795,-0.11682129,-0.006225586
1734713303564,2024-12-20T16:48:23.564Z,81039,-0.042175293,-0.11846924,-0.0028686523
