Timestamp (ms),ISO DateTime,Elapsed Time (ms),Acceleration X,Acceleration Y,Acceleration Z
1725697020526,2024-09-07T08:17:00.526Z,147337,-0.17541504,-0.9034424,-0.17614746
1725697020569,2024-09-07T08:17:00.569Z,147380,-0.23077393,-0.90667725,-0.18048096
1725697020612,2024-09-07T08:17:00.612Z,147423,-0.2052002,-0.8730469,-0.23413086
1725697020657,2024-09-07T08:17:00.657Z,147468,-0.23492432,-0.84814453,-0.22546387
1725697020701,2024-09-07T08:17:00.701Z,147512,-0.2518921,-0.86517334,-0.24072266
1725697020708,2024-09-07T08:17:00.708Z,147519,-0.26324463,-0.8679199,-0.25872803
1725697020746,2024-09-07T08:17:00.746Z,147557,-0.26531982,-0.89837646,-0.27215576
1725697020796,2024-09-07T08:17:00.796Z,147607,-0.29193115,-0.8873291,-0.24182129
1725697020841,2024-09-07T08:17:00.841Z,147652,-0.29571533,-0.87939453,-0.2593994
1725697020886,2024-09-07T08:17:00.886Z,147697,-0.2623291,-0.8312378,-0.27563477
1725697020934,2024-09-07T08:17:00.934Z,147745,-0.2501831,-0.8147583,-0.27288818
1725697020978,2024-09-07T08:17:00.978Z,147789,-0.23925781,-0.84832764,-0.26501465
1725697021023,2024-09-07T08:17:01.023Z,147834,-0.28741455,-0.89367676,-0.22766113
1725697021069,2024-09-07T08:17:01.069Z,147880,-0.2680664,-0.88775635,-0.29956055
1725697021111,2024-09-07T08:17:01.111Z,147922,-0.22833252,-0.8616333,-0.26898193
1725697021158,2024-09-07T08:17:01.158Z,147969,-0.22045898,-0.880188,-0.25042725
1725697021179,2024-09-07T08:17:01.179Z,147990,-0.25,-0.928833,-0.27282715
1725697021201,2024-09-07T08:17:01.201Z,148012,-0.19677734,-0.92907715,-0.33496094
1725697021247,2024-09-07T08:17:01.247Z,148058,-0.21411133,-0.91815186,-0.32409668
1725697021291,2024-09-07T08:17:01.291Z,148102,-0.19616699,-0.9234619,-0.36047363
1725697021338,2024-09-07T08:17:01.338Z,148149,-0.18371582,-0.91296387,-0.3203125
1725697021383,2024-09-07T08:17:01.383Z,148194,-0.11694336,-0.9298706,-0.38458252
1725697021429,2024-09-07T08:17:01.429Z,148240,-0.1373291,-0.91973877,-0.32128906
1725697021474,2024-09-07T08:17:01.474Z,148285,-0.123413086,-0.97088623,-0.30181885
1725697021519,2024-09-07T08:17:01.519Z,148330,-0.15460205,-1.010315,-0.23632812
1725697021568,2024-09-07T08:17:01.568Z,148379,-0.07128906,-1.0188599,-0.22467041
1725697021587,2024-09-07T08:17:01.587Z,148398,-0.07043457,-1.0090332,-0.21453857
1725697021604,2024-09-07T08:17:01.604Z,148415,-0.12994385,-1.0133667,-0.20440674
1725697021647,2024-09-07T08:17:01.647Z,148458,-0.122924805,-0.99938965,-0.29016113
1725697021693,2024-09-07T08:17:01.693Z,148504,-0.17126465,-0.95806885,-0.33361816
1725697021762,2024-09-07T08:17:01.762Z,148573,-0.18395996,-0.8987427,-0.38012695
1725697021784,2024-09-07T08:17:01.784Z,148595,-0.28149414,-0.88494873,-0.3468628
1725697021831,2024-09-07T08:17:01.831Z,148642,-0.2545166,-0.8635254,-0.36834717
1725697021875,2024-09-07T08:17:01.875Z,148686,-0.3121338,-0.9463501,-0.39788818
1725697021923,2024-09-07T08:17:01.923Z,148734,-0.3078003,-0.9477539,-0.369812
1725697021967,2024-09-07T08:17:01.967Z,148778,-0.31585693,-0.9147949,-0.39349365
1725697021988,2024-09-07T08:17:01.988Z,148799,-0.28637695,-0.9182739,-0.38085938
1725697022009,2024-09-07T08:17:02.009Z,148820,-0.2709961,-0.93066406,-0.40863037
1725697022054,2024-09-07T08:17:02.054Z,148865,-0.2341919,-0.95892334,-0.35235596
1725697022100,2024-09-07T08:17:02.100Z,148911,-0.21600342,-0.95788574,-0.32574463
1725697022147,2024-09-07T08:17:02.147Z,148958,-0.13354492,-0.91308594,-0.2177124
1725697022190,2024-09-07T08:17:02.190Z,149001,-0.15649414,-0.90356445,-0.25842285
1725697022234,2024-09-07T08:17:02.234Z,149045,-0.07086182,-0.9112549,-0.2508545
1725697022279,2024-09-07T08:17:02.279Z,149090,-0.13018799,-0.9041748,-0.32757568
1725697022331,2024-09-07T08:17:02.331Z,149142,-0.109436035,-0.9260864,-0.3248291
1725697022372,2024-09-07T08:17:02.372Z,149183,-0.12866211,-0.96398926,-0.30194092
1725697022415,2024-09-07T08:17:02.415Z,149226,-0.14849854,-0.98565674,-0.24157715
1725697022434,2024-09-07T08:17:02.434Z,149245,-0.17633057,-1.0071411,-0.28875732
1725697022459,2024-09-07T08:17:02.459Z,149270,-0.2055664,-1.0001221,-0.27722168
1725697022503,2024-09-07T08:17:02.503Z,149314,-0.18554688,-0.98724365,-0.3361206
1725697022553,2024-09-07T08:17:02.553Z,149364,-0.1975708,-0.9796753,-0.30181885
1725697022596,2024-09-07T08:17:02.596Z,149407,-0.1963501,-0.9750366,-0.25054932
1725697022641,2024-09-07T08:17:02.641Z,149452,-0.18084717,-0.9425659,-0.1772461
1725697022685,2024-09-07T08:17:02.685Z,149496,-0.1696167,-0.94647217,-0.1237793
1725697022732,2024-09-07T08:17:02.732Z,149543,-0.16918945,-0.9780884,-0.14178467
1725697022831,2024-09-07T08:17:02.831Z,149642,-0.17358398,-1.005188,-0.1586914
1725697022856,2024-09-07T08:17:02.856Z,149667,-0.17132568,-1.0296631,-0.2043457
1725697022871,2024-09-07T08:17:02.871Z,149682,-0.17492676,-1.0280762,-0.19085693
1725697022885,2024-09-07T08:17:02.885Z,149696,-0.16357422,-1.0036621,-0.17858887
1725697022906,2024-09-07T08:17:02.906Z,149717,-0.16864014,-0.97875977,-0.19586182
1725697022954,2024-09-07T08:17:02.954Z,149765,-0.16809082,-0.95861816,-0.1607666
1725697023002,2024-09-07T08:17:03.002Z,149813,-0.18463135,-0.973938,-0.23590088
1725697023045,2024-09-07T08:17:03.045Z,149856,-0.22802734,-1.03656,-0.2989502
1725697023092,2024-09-07T08:17:03.092Z,149903,-0.25543213,-1.0968018,-0.3204956
1725697023139,2024-09-07T08:17:03.139Z,149950,-0.30236816,-1.1188965,-0.3128662
1725697023182,2024-09-07T08:17:03.182Z,149993,-0.27020264,-1.0996094,-0.32855225
1725697023231,2024-09-07T08:17:03.231Z,150042,-0.27929688,-1.0513306,-0.26135254
1725697023255,2024-09-07T08:17:03.255Z,150066,-0.24639893,-1.0007324,-0.28326416
1725697023317,2024-09-07T08:17:03.317Z,150128,-0.20483398,-0.9586792,-0.2993164
1725697023337,2024-09-07T08:17:03.337Z,150148,-0.123291016,-0.91986084,-0.20812988
1725697023359,2024-09-07T08:17:03.359Z,150170,-0.18927002,-0.9352417,-0.25299072
1725697023402,2024-09-07T08:17:03.402Z,150213,-0.12390137,-0.9622803,-0.20324707
1725697023449,2024-09-07T08:17:03.449Z,150260,-0.14758301,-0.9803467,-0.26849365
1725697023500,2024-09-07T08:17:03.500Z,150311,-0.09307861,-0.9838257,-0.2949829
1725697023543,2024-09-07T08:17:03.543Z,150354,-0.11621094,-1.0202637,-0.34368896
1725697023588,2024-09-07T08:17:03.588Z,150399,-0.115234375,-0.98638916,-0.20019531
1725697023632,2024-09-07T08:17:03.632Z,150443,-0.1439209,-0.9834595,-0.29730225
1725697023678,2024-09-07T08:17:03.678Z,150489,-0.014404297,-0.96746826,-0.21362305
1725697023698,2024-09-07T08:17:03.698Z,150509,-0.084228516,-0.9639282,-0.31054688
1725697023717,2024-09-07T08:17:03.717Z,150528,-0.079711914,-0.9819336,-0.21655273
1725697023766,2024-09-07T08:17:03.766Z,150577,-0.0848999,-1.0280151,-0.26715088
1725697023811,2024-09-07T08:17:03.811Z,150622,-0.09954834,-1.0199585,-0.31848145
1725697023855,2024-09-07T08:17:03.855Z,150666,-0.09320068,-0.99432373,-0.3413086
1725697023901,2024-09-07T08:17:03.901Z,150712,-0.07330322,-0.94958496,-0.3027954
1725697023948,2024-09-07T08:17:03.948Z,150759,-0.12426758,-0.9169922,-0.347229
1725697023991,2024-09-07T08:17:03.991Z,150802,-0.06390381,-0.913147,-0.19378662
1725697024036,2024-09-07T08:17:04.036Z,150847,-0.17126465,-0.9694824,-0.26086426
1725697024083,2024-09-07T08:17:04.083Z,150894,-0.105285645,-0.9727783,-0.29229736
1725697024105,2024-09-07T08:17:04.105Z,150916,-0.13397217,-0.9650879,-0.30456543
1725697024125,2024-09-07T08:17:04.125Z,150936,-0.17266846,-0.90740967,-0.21612549
1725697024170,2024-09-07T08:17:04.170Z,150981,-0.11529541,-0.8563843,-0.1784668
1725697024214,2024-09-07T08:17:04.214Z,151025,-0.10864258,-0.79852295,-0.20214844
1725697024264,2024-09-07T08:17:04.264Z,151075,-0.033081055,-0.7776489,-0.18896484
1725697024311,2024-09-07T08:17:04.311Z,151122,-0.14422607,-0.7484131,-0.13995361
1725697024352,2024-09-07T08:17:04.352Z,151163,-0.09283447,-0.78448486,-0.12438965
1725697024446,2024-09-07T08:17:04.446Z,151257,-0.14453125,-0.8502197,-0.18078613
1725697024468,2024-09-07T08:17:04.468Z,151279,-0.3277588,-0.90026855,0.019042969
1725697024488,2024-09-07T08:17:04.488Z,151299,-0.20959473,-0.8226929,-0.33514404
1725697024499,2024-09-07T08:17:04.499Z,151310,-0.2781372,-0.8587036,-0.16595459
1725697024529,2024-09-07T08:17:04.529Z,151340,-0.34869385,-0.8765259,-0.13647461
1725697024579,2024-09-07T08:17:04.579Z,151390,-0.28173828,-0.95599365,-0.2185669
1725697024624,2024-09-07T08:17:04.624Z,151435,-0.33813477,-1.0059204,-0.08026123
1725697024667,2024-09-07T08:17:04.667Z,151478,-0.26208496,-0.98876953,-0.20892334
1725697024709,2024-09-07T08:17:04.709Z,151520,-0.24926758,-0.94311523,-0.10357666
1725697024755,2024-09-07T08:17:04.755Z,151566,-0.2166748,-0.87335205,-0.08996582
1725697024801,2024-09-07T08:17:04.801Z,151612,-0.16400146,-0.9112549,-0.07086182
1725697024848,2024-09-07T08:17:04.848Z,151659,-0.25024414,-1.0175781,-0.1159668
1725697024894,2024-09-07T08:17:04.894Z,151705,-0.16088867,-1.003418,-0.1897583
1725697024944,2024-09-07T08:17:04.944Z,151755,-0.2185669,-0.9536743,-0.09509277
1725697024962,2024-09-07T08:17:04.962Z,151773,-0.14630127,-0.916626,-0.17608643
1725697024980,2024-09-07T08:17:04.980Z,151791,-0.18078613,-0.92407227,-0.17474365
1725697025032,2024-09-07T08:17:05.032Z,151843,-0.1585083,-0.9604492,-0.15991211
1725697025074,2024-09-07T08:17:05.074Z,151885,-0.18432617,-1.0092773,-0.13995361
1725697025115,2024-09-07T08:17:05.115Z,151926,-0.17755127,-1.0188599,-0.24639893
1725697025162,2024-09-07T08:17:05.162Z,151973,-0.16021729,-0.97558594,-0.21209717
1725697025205,2024-09-07T08:17:05.205Z,152016,-0.13726807,-0.92626953,-0.19866943
1725697025256,2024-09-07T08:17:05.256Z,152067,-0.17053223,-0.92822266,-0.1696167
1725697025295,2024-09-07T08:17:05.295Z,152106,-0.122802734,-0.9385376,-0.25439453
1725697025339,2024-09-07T08:17:05.339Z,152150,-0.19274902,-0.9664917,-0.23706055
1725697025353,2024-09-07T08:17:05.353Z,152164,-0.17156982,-0.9680786,-0.21502686
1725697025387,2024-09-07T08:17:05.387Z,152198,-0.19128418,-0.9347534,-0.26452637
1725697025432,2024-09-07T08:17:05.432Z,152243,-0.21014404,-0.9089966,-0.2296753
1725697025479,2024-09-07T08:17:05.479Z,152290,-0.23925781,-0.8967285,-0.22241211
1725697025523,2024-09-07T08:17:05.523Z,152334,-0.2479248,-0.9067383,-0.22930908
1725697025562,2024-09-07T08:17:05.562Z,152373,-0.26367188,-0.93341064,-0.2088623
1725697025611,2024-09-07T08:17:05.611Z,152422,-0.2886963,-0.9616089,-0.19006348
1725697025655,2024-09-07T08:17:05.655Z,152466,-0.29071045,-0.9645996,-0.13415527
1725697025704,2024-09-07T08:17:05.704Z,152515,-0.2694702,-0.9295654,-0.18457031
1725697025749,2024-09-07T08:17:05.749Z,152560,-0.2607422,-0.87750244,-0.16021729
1725697025768,2024-09-07T08:17:05.768Z,152579,-0.23706055,-0.8427124,-0.18725586
1725697025788,2024-09-07T08:17:05.788Z,152599,-0.24700928,-0.8703003,-0.1819458
1725697025831,2024-09-07T08:17:05.831Z,152642,-0.27044678,-0.9077759,-0.18969727
1725697025884,2024-09-07T08:17:05.884Z,152695,-0.28356934,-0.93927,-0.22027588
1725697025926,2024-09-07T08:17:05.926Z,152737,-0.28479004,-0.9375,-0.23278809
1725697025976,2024-09-07T08:17:05.976Z,152787,-0.28936768,-0.92266846,-0.21148682
1725697026021,2024-09-07T08:17:06.021Z,152832,-0.2539673,-0.8759155,-0.19476318
1725697026061,2024-09-07T08:17:06.061Z,152872,-0.2366333,-0.880249,-0.20147705
1725697026106,2024-09-07T08:17:06.106Z,152917,-0.2142334,-0.87323,-0.16577148
1725697026153,2024-09-07T08:17:06.153Z,152964,-0.19702148,-0.90460205,-0.20440674
1725697026199,2024-09-07T08:17:06.199Z,153010,-0.18060303,-0.9053955,-0.14013672
1725697026220,2024-09-07T08:17:06.220Z,153031,-0.17687988,-0.90460205,-0.19927979
1725697026238,2024-09-07T08:17:06.238Z,153049,-0.17285156,-0.90179443,-0.21447754
1725697026288,2024-09-07T08:17:06.288Z,153099,-0.15722656,-0.90838623,-0.25579834
1725697026332,2024-09-07T08:17:06.332Z,153143,-0.18634033,-0.9212036,-0.21508789
1725697026378,2024-09-07T08:17:06.378Z,153189,-0.17053223,-0.95684814,-0.2689209
1725697026423,2024-09-07T08:17:06.423Z,153234,-0.17315674,-0.99194336,-0.17059326
1725697026469,2024-09-07T08:17:06.469Z,153280,-0.13970947,-1.0040283,-0.20678711
1725697026514,2024-09-07T08:17:06.514Z,153325,-0.103271484,-0.98742676,-0.16479492
1725697026557,2024-09-07T08:17:06.557Z,153368,-0.0524292,-0.97283936,-0.18774414
1725697026606,2024-09-07T08:17:06.606Z,153417,-0.080322266,-0.9838867,-0.17810059
1725697026630,2024-09-07T08:17:06.630Z,153441,-0.045776367,-0.99005127,-0.17523193
1725697026646,2024-09-07T08:17:06.646Z,153457,-0.061035156,-0.99572754,-0.17095947
1725697026703,2024-09-07T08:17:06.703Z,153514,-0.122680664,-1.0161743,-0.109191895
1725697026736,2024-09-07T08:17:06.736Z,153547,-0.14727783,-0.98931885,-0.17712402
1725697026783,2024-09-07T08:17:06.783Z,153594,-0.12298584,-0.9225464,-0.18688965
1725697026826,2024-09-07T08:17:06.826Z,153637,-0.19940186,-0.9194336,-0.2538452
1725697026872,2024-09-07T08:17:06.872Z,153683,-0.15441895,-0.9298096,-0.26202393
1725697026917,2024-09-07T08:17:06.917Z,153728,-0.1459961,-0.95355225,-0.28515625
1725697026964,2024-09-07T08:17:06.964Z,153775,-0.10394287,-1.006897,-0.17126465
1725697027007,2024-09-07T08:17:07.007Z,153818,-0.16326904,-1.0784302,-0.21142578
1725697027030,2024-09-07T08:17:07.030Z,153841,-0.15362549,-1.0675049,-0.16003418
1725697027054,2024-09-07T08:17:07.054Z,153865,-0.16339111,-1.0497437,-0.20507812
1725697027097,2024-09-07T08:17:07.097Z,153908,-0.09350586,-0.963501,-0.2503662
1725697027142,2024-09-07T08:17:07.142Z,153953,-0.09124756,-0.8970947,-0.25683594
1725697027190,2024-09-07T08:17:07.190Z,154001,-0.11730957,-0.8720703,-0.21679688
1725697027235,2024-09-07T08:17:07.235Z,154046,-0.15679932,-0.9254761,-0.17730713
1725697027281,2024-09-07T08:17:07.281Z,154092,-0.22540283,-0.94781494,-0.12646484
1725697027323,2024-09-07T08:17:07.323Z,154134,-0.19799805,-0.99768066,-0.21691895
1725697027368,2024-09-07T08:17:07.368Z,154179,-0.23291016,-0.9840698,-0.20355225
1725697027413,2024-09-07T08:17:07.413Z,154224,-0.2598877,-0.94763184,-0.19073486
1725697027459,2024-09-07T08:17:07.459Z,154270,-0.2647705,-0.9395752,-0.2243042
1725697027483,2024-09-07T08:17:07.483Z,154294,-0.24829102,-0.9293213,-0.17718506
1725697027505,2024-09-07T08:17:07.505Z,154316,-0.24560547,-0.9541626,-0.26306152
1725697027549,2024-09-07T08:17:07.549Z,154360,-0.25689697,-0.97283936,-0.17480469
1725697027592,2024-09-07T08:17:07.592Z,154403,-0.25195312,-0.9945679,-0.2687378
1725697027638,2024-09-07T08:17:07.638Z,154449,-0.21466064,-0.9399414,-0.24133301
1725697027686,2024-09-07T08:17:07.686Z,154497,-0.15765381,-0.9127197,-0.24230957
1725697027730,2024-09-07T08:17:07.730Z,154541,-0.1517334,-0.90930176,-0.21081543
1725697027775,2024-09-07T08:17:07.775Z,154586,-0.13946533,-0.94525146,-0.24761963
1725697027822,2024-09-07T08:17:07.822Z,154633,-0.15588379,-0.98968506,-0.20318604
1725697027863,2024-09-07T08:17:07.863Z,154674,-0.10638428,-0.9891968,-0.14959717
1725697027885,2024-09-07T08:17:07.885Z,154696,-0.14508057,-0.98669434,-0.056152344
1725697027906,2024-09-07T08:17:07.906Z,154717,-0.088012695,-0.9882202,-0.08239746
1725697027947,2024-09-07T08:17:07.947Z,154758,-0.12597656,-1.0161743,-0.1026001
1725697027994,2024-09-07T08:17:07.994Z,154805,-0.17102051,-1.0534058,-0.14282227
1725697028043,2024-09-07T08:17:08.043Z,154854,-0.19647217,-1.0762329,-0.15777588
1725697028087,2024-09-07T08:17:08.087Z,154898,-0.20483398,-1.0623779,-0.1506958
1725697028132,2024-09-07T08:17:08.132Z,154943,-0.22467041,-1.0291138,-0.1918335
1725697028178,2024-09-07T08:17:08.178Z,154989,-0.23651123,-0.97869873,-0.16534424
1725697028223,2024-09-07T08:17:08.223Z,155034,-0.2489624,-0.9316406,-0.18133545
1725697028266,2024-09-07T08:17:08.266Z,155077,-0.23071289,-0.8973999,-0.15008545
1725697028285,2024-09-07T08:17:08.285Z,155096,-0.22576904,-0.90216064,-0.17437744
1725697028311,2024-09-07T08:17:08.311Z,155122,-0.23516846,-0.9655762,-0.17614746
1725697028355,2024-09-07T08:17:08.355Z,155166,-0.27642822,-1.0649414,-0.1749878
1725697028404,2024-09-07T08:17:08.404Z,155215,-0.31829834,-1.1694946,-0.124694824
1725697028447,2024-09-07T08:17:08.447Z,155258,-0.32196045,-1.1842041,-0.15478516
1725697028492,2024-09-07T08:17:08.492Z,155303,-0.26324463,-1.1057739,-0.21295166
1725697028539,2024-09-07T08:17:08.539Z,155350,-0.20269775,-0.9987793,-0.19708252
1725697028585,2024-09-07T08:17:08.585Z,155396,-0.19494629,-0.93292236,-0.24194336
1725697028630,2024-09-07T08:17:08.630Z,155441,-0.19207764,-0.93426514,-0.15185547
1725697028674,2024-09-07T08:17:08.674Z,155485,-0.23797607,-1.0008545,-0.20025635
1725697028718,2024-09-07T08:17:08.718Z,155529,-0.2633667,-1.0253906,-0.23046875
1725697028742,2024-09-07T08:17:08.742Z,155553,-0.20074463,-1.0158691,-0.27038574
1725697028768,2024-09-07T08:17:08.768Z,155579,-0.16625977,-0.9723511,-0.34698486
1725697028806,2024-09-07T08:17:08.806Z,155617,-0.10858154,-0.94537354,-0.4105835
1725697028851,2024-09-07T08:17:08.851Z,155662,-0.21685791,-0.95306396,-0.284729
1725697028899,2024-09-07T08:17:08.899Z,155710,-0.21386719,-0.9609375,-0.17877197
1725697028942,2024-09-07T08:17:08.942Z,155753,-0.20733643,-0.9803467,-0.30969238
1725697028988,2024-09-07T08:17:08.988Z,155799,-0.18206787,-0.9567261,-0.34124756
1725697029032,2024-09-07T08:17:09.032Z,155843,-0.19732666,-0.91973877,-0.39471436
1725697029080,2024-09-07T08:17:09.080Z,155891,-0.21514893,-0.9251709,-0.37634277
1725697029122,2024-09-07T08:17:09.122Z,155933,-0.23156738,-0.9480591,-0.29016113
1725697029147,2024-09-07T08:17:09.147Z,155958,-0.22161865,-0.95739746,-0.34210205
1725697029167,2024-09-07T08:17:09.167Z,155978,-0.17266846,-0.92944336,-0.340271
1725697029212,2024-09-07T08:17:09.212Z,156023,-0.24798584,-0.9503784,-0.3171997
1725697029257,2024-09-07T08:17:09.257Z,156068,-0.22290039,-0.9293213,-0.30151367
1725697029302,2024-09-07T08:17:09.302Z,156113,-0.230896,-0.93182373,-0.29449463
1725697029349,2024-09-07T08:17:09.349Z,156160,-0.21429443,-0.9017334,-0.34661865
1725697029393,2024-09-07T08:17:09.393Z,156204,-0.25927734,-0.92749023,-0.3112793
1725697029438,2024-09-07T08:17:09.438Z,156249,-0.27545166,-0.93292236,-0.26727295
1725697029484,2024-09-07T08:17:09.484Z,156295,-0.26104736,-0.940979,-0.25854492
1725697029528,2024-09-07T08:17:09.528Z,156339,-0.2520752,-0.8932495,-0.16009521
1725697029548,2024-09-07T08:17:09.548Z,156359,-0.19256592,-0.831604,-0.18450928
1725697029667,2024-09-07T08:17:09.667Z,156478,-0.21826172,-0.7671509,-0.22424316
1725697029690,2024-09-07T08:17:09.690Z,156501,-0.12695312,-0.7272339,-0.22772217
1725697029703,2024-09-07T08:17:09.703Z,156514,-0.23388672,-0.75457764,-0.1272583
1725697029714,2024-09-07T08:17:09.714Z,156525,-0.21069336,-0.791626,-0.24505615
1725697029746,2024-09-07T08:17:09.746Z,156557,-0.2789917,-0.86798096,-0.058410645
1725697029797,2024-09-07T08:17:09.797Z,156608,-0.29138184,-0.840271,-0.21942139
1725697029840,2024-09-07T08:17:09.840Z,156651,-0.20562744,-0.8739624,-0.20806885
1725697029886,2024-09-07T08:17:09.886Z,156697,-0.3336792,-0.9384155,-0.056884766
1725697029931,2024-09-07T08:17:09.931Z,156742,-0.17828369,-1.0100708,-0.11016846
1725697029980,2024-09-07T08:17:09.980Z,156791,-0.30969238,-0.95892334,-0.08770752
1725697029999,2024-09-07T08:17:09.999Z,156810,-0.17486572,-0.88952637,-0.12225342
1725697030018,2024-09-07T08:17:10.018Z,156829,-0.23370361,-0.88464355,-0.08251953
1725697030063,2024-09-07T08:17:10.063Z,156874,-0.22747803,-0.91522217,-0.17266846
1725697030115,2024-09-07T08:17:10.115Z,156926,-0.19360352,-1.0067749,-0.14300537
1725697030157,2024-09-07T08:17:10.157Z,156968,-0.23803711,-1.0116577,-0.14642334
1725697030203,2024-09-07T08:17:10.203Z,157014,-0.10345459,-0.99786377,-0.21807861
1725697030248,2024-09-07T08:17:10.248Z,157059,-0.18066406,-0.97979736,-0.1038208
1725697030292,2024-09-07T08:17:10.292Z,157103,-0.13739014,-0.9246826,-0.16168213
1725697030337,2024-09-07T08:17:10.337Z,157148,-0.11767578,-0.91186523,-0.15966797
1725697030381,2024-09-07T08:17:10.381Z,157192,-0.17706299,-0.9472656,-0.1595459
1725697030399,2024-09-07T08:17:10.399Z,157210,-0.17443848,-0.9851074,-0.18249512
1725697030428,2024-09-07T08:17:10.428Z,157239,-0.22058105,-0.9801636,-0.11273193
1725697030471,2024-09-07T08:17:10.471Z,157282,-0.20147705,-0.95422363,-0.16748047
1725697030518,2024-09-07T08:17:10.518Z,157329,-0.21099854,-0.9411011,-0.1729126
1725697030564,2024-09-07T08:17:10.564Z,157375,-0.20947266,-0.92077637,-0.14807129
1725697030609,2024-09-07T08:17:10.609Z,157420,-0.22290039,-0.9187622,-0.13354492
1725697030651,2024-09-07T08:17:10.651Z,157462,-0.23522949,-0.9260864,-0.16259766
1725697030700,2024-09-07T08:17:10.700Z,157511,-0.23376465,-0.9663696,-0.1303711
1725697030741,2024-09-07T08:17:10.741Z,157552,-0.2734375,-0.9715576,-0.14318848
1725697030790,2024-09-07T08:17:10.790Z,157601,-0.23968506,-0.94018555,-0.16949463
1725697030813,2024-09-07T08:17:10.813Z,157624,-0.23699951,-0.8845825,-0.14978027
1725697030835,2024-09-07T08:17:10.835Z,157646,-0.24353027,-0.84259033,-0.1326294
1725697030877,2024-09-07T08:17:10.877Z,157688,-0.23266602,-0.8751831,-0.18457031
1725697030923,2024-09-07T08:17:10.923Z,157734,-0.27001953,-0.932312,-0.19250488
1725697030967,2024-09-07T08:17:10.967Z,157778,-0.2506714,-0.9607544,-0.21685791
1725697031014,2024-09-07T08:17:11.014Z,157825,-0.26849365,-0.98083496,-0.21588135
1725697031062,2024-09-07T08:17:11.062Z,157873,-0.26776123,-0.98950195,-0.22790527
1725697031105,2024-09-07T08:17:11.105Z,157916,-0.23931885,-0.96875,-0.20318604
1725697031148,2024-09-07T08:17:11.148Z,157959,-0.24511719,-0.92663574,-0.20770264
1725697031193,2024-09-07T08:17:11.193Z,158004,-0.22851562,-0.88531494,-0.22161865
1725697031214,2024-09-07T08:17:11.214Z,158025,-0.23486328,-0.87719727,-0.22558594
1725697031235,2024-09-07T08:17:11.235Z,158046,-0.2584839,-0.89746094,-0.21838379
1725697031280,2024-09-07T08:17:11.280Z,158091,-0.25024414,-0.9230957,-0.23675537
1725697031331,2024-09-07T08:17:11.331Z,158142,-0.27075195,-0.9138794,-0.21875
1725697031371,2024-09-07T08:17:11.371Z,158182,-0.24066162,-0.9192505,-0.24090576
1725697031421,2024-09-07T08:17:11.421Z,158232,-0.21789551,-0.9320679,-0.269104
1725697031462,2024-09-07T08:17:11.462Z,158273,-0.22875977,-0.9570923,-0.24890137
1725697031507,2024-09-07T08:17:11.507Z,158318,-0.22253418,-0.9494629,-0.26361084
1725697031554,2024-09-07T08:17:11.554Z,158365,-0.19818115,-0.92803955,-0.24737549
1725697031601,2024-09-07T08:17:11.601Z,158412,-0.20861816,-0.92962646,-0.21002197
1725697031641,2024-09-07T08:17:11.641Z,158452,-0.18798828,-0.9089966,-0.24658203
1725697031660,2024-09-07T08:17:11.660Z,158471,-0.20135498,-0.91430664,-0.2411499
1725697031682,2024-09-07T08:17:11.682Z,158493,-0.20922852,-0.9331665,-0.2232666
1725697031729,2024-09-07T08:17:11.729Z,158540,-0.20819092,-0.93573,-0.21270752
1725697031778,2024-09-07T08:17:11.778Z,158589,-0.234375,-0.94244385,-0.23077393
1725697031822,2024-09-07T08:17:11.822Z,158633,-0.23583984,-0.94311523,-0.25860596
1725697031869,2024-09-07T08:17:11.869Z,158680,-0.23913574,-0.9334717,-0.24847412
1725697031914,2024-09-07T08:17:11.914Z,158725,-0.27160645,-0.9121094,-0.22180176
1725697031960,2024-09-07T08:17:11.960Z,158771,-0.23760986,-0.9326172,-0.25164795
1725697032006,2024-09-07T08:17:12.006Z,158817,-0.23425293,-0.9616089,-0.20397949
1725697032051,2024-09-07T08:17:12.051Z,158862,-0.23040771,-0.9277954,-0.22576904
1725697032075,2024-09-07T08:17:12.075Z,158886,-0.17138672,-0.90875244,-0.22961426
1725697032095,2024-09-07T08:17:12.095Z,158906,-0.17059326,-0.9180908,-0.2220459
1725697032138,2024-09-07T08:17:12.138Z,158949,-0.16485596,-0.9482422,-0.21685791
1725697032181,2024-09-07T08:17:12.181Z,158992,-0.21228027,-0.9751587,-0.2033081
1725697032227,2024-09-07T08:17:12.227Z,159038,-0.21246338,-0.97784424,-0.24407959
1725697032274,2024-09-07T08:17:12.274Z,159085,-0.21356201,-0.9369507,-0.25402832
1725697032320,2024-09-07T08:17:12.320Z,159131,-0.19232178,-0.90179443,-0.3065796
1725697032362,2024-09-07T08:17:12.362Z,159173,-0.1921997,-0.88513184,-0.25177002
1725697032408,2024-09-07T08:17:12.408Z,159219,-0.20227051,-0.9176636,-0.25030518
1725697032453,2024-09-07T08:17:12.453Z,159264,-0.25805664,-0.9567871,-0.20953369
1725697032475,2024-09-07T08:17:12.475Z,159286,-0.21002197,-0.9440918,-0.24554443
1725697032499,2024-09-07T08:17:12.499Z,159310,-0.2210083,-0.93573,-0.2789917
1725697032543,2024-09-07T08:17:12.543Z,159354,-0.2331543,-0.9664917,-0.26361084
1725697032590,2024-09-07T08:17:12.590Z,159401,-0.26153564,-0.97528076,-0.31347656
1725697032634,2024-09-07T08:17:12.634Z,159445,-0.2467041,-0.9528198,-0.2781372
1725697032681,2024-09-07T08:17:12.681Z,159492,-0.274292,-0.94525146,-0.2772827
1725697032721,2024-09-07T08:17:12.721Z,159532,-0.27398682,-0.94592285,-0.2354126
1725697032772,2024-09-07T08:17:12.772Z,159583,-0.26391602,-0.9211426,-0.28601074
1725697032816,2024-09-07T08:17:12.816Z,159627,-0.24249268,-0.8930054,-0.26971436
1725697032858,2024-09-07T08:17:12.858Z,159669,-0.24163818,-0.9127197,-0.25012207
1725697032904,2024-09-07T08:17:12.904Z,159715,-0.23260498,-0.9243164,-0.22241211
1725697032928,2024-09-07T08:17:12.928Z,159739,-0.20214844,-0.96795654,-0.2006836
1725697032947,2024-09-07T08:17:12.947Z,159758,-0.19122314,-0.9893799,-0.17895508
1725697032991,2024-09-07T08:17:12.991Z,159802,-0.20428467,-0.98431396,-0.22503662
1725697033038,2024-09-07T08:17:13.038Z,159849,-0.15582275,-0.9539795,-0.23254395
1725697033085,2024-09-07T08:17:13.085Z,159896,-0.17785645,-0.9598999,-0.28082275
1725697033130,2024-09-07T08:17:13.130Z,159941,-0.17242432,-0.99334717,-0.24353027
1725697033176,2024-09-07T08:17:13.176Z,159987,-0.14813232,-0.98809814,-0.18530273
1725697033219,2024-09-07T08:17:13.219Z,160030,-0.14953613,-0.9711914,-0.19439697
1725697033262,2024-09-07T08:17:13.262Z,160073,-0.12414551,-0.9286499,-0.17181396
1725697033307,2024-09-07T08:17:13.307Z,160118,-0.16320801,-0.9530029,-0.20947266
1725697033327,2024-09-07T08:17:13.327Z,160138,-0.14892578,-0.98065186,-0.18341064
1725697033351,2024-09-07T08:17:13.351Z,160162,-0.13684082,-0.98010254,-0.17010498
1725697033399,2024-09-07T08:17:13.399Z,160210,-0.11199951,-0.9727783,-0.1060791
1725697033447,2024-09-07T08:17:13.447Z,160258,-0.17333984,-1.0123291,-0.121032715
1725697033489,2024-09-07T08:17:13.489Z,160300,-0.16888428,-1.0326538,-0.09899902
1725697033533,2024-09-07T08:17:13.533Z,160344,-0.15661621,-1.0153198,-0.09088135
1725697033578,2024-09-07T08:17:13.578Z,160389,-0.17791748,-0.99487305,-0.10498047
1725697033622,2024-09-07T08:17:13.622Z,160433,-0.13781738,-0.9552002,-0.107666016
1725697033670,2024-09-07T08:17:13.670Z,160481,-0.1616211,-0.9590454,-0.16644287
1725697033711,2024-09-07T08:17:13.711Z,160522,-0.15789795,-0.97424316,-0.11291504
1725697033733,2024-09-07T08:17:13.733Z,160544,-0.20239258,-0.99261475,-0.055419922
1725697033755,2024-09-07T08:17:13.755Z,160566,-0.23040771,-1.010315,-0.09509277
1725697033806,2024-09-07T08:17:13.806Z,160617,-0.21826172,-0.9879761,-0.09320068
1725697033849,2024-09-07T08:17:13.849Z,160660,-0.18652344,-0.95874023,-0.1315918
1725697033892,2024-09-07T08:17:13.892Z,160703,-0.18969727,-0.9718628,-0.11151123
1725697033938,2024-09-07T08:17:13.938Z,160749,-0.18878174,-0.9935303,-0.09899902
1725697033984,2024-09-07T08:17:13.984Z,160795,-0.19854736,-1.0504761,-0.080444336
1725697034026,2024-09-07T08:17:14.026Z,160837,-0.19042969,-1.1131592,-0.04864502
1725697034074,2024-09-07T08:17:14.074Z,160885,-0.19128418,-1.1535645,-0.13964844
1725697034117,2024-09-07T08:17:14.117Z,160928,-0.17510986,-1.1542969,-0.1484375
1725697034163,2024-09-07T08:17:14.163Z,160974,-0.19616699,-1.1262817,-0.20147705
1725697034186,2024-09-07T08:17:14.186Z,160997,-0.2526245,-1.083313,-0.096191406
1725697034207,2024-09-07T08:17:14.207Z,161018,-0.23809814,-1.0288086,-0.1541748
1725697034252,2024-09-07T08:17:14.252Z,161063,-0.18652344,-0.9985962,-0.14648438
1725697034298,2024-09-07T08:17:14.298Z,161109,-0.21282959,-0.9779663,-0.27911377
1725697034342,2024-09-07T08:17:14.342Z,161153,-0.16143799,-0.93603516,-0.23632812
1725697034391,2024-09-07T08:17:14.391Z,161202,-0.15405273,-0.93359375,-0.25683594
1725697034435,2024-09-07T08:17:14.435Z,161246,-0.10650635,-0.91308594,-0.21063232
1725697034479,2024-09-07T08:17:14.479Z,161290,-0.1437378,-0.92803955,-0.21289062
1725697034526,2024-09-07T08:17:14.526Z,161337,-0.12072754,-0.9562378,-0.27026367
1725697034567,2024-09-07T08:17:14.567Z,161378,-0.19067383,-1.0037231,-0.25030518
1725697034585,2024-09-07T08:17:14.585Z,161396,-0.17437744,-0.98638916,-0.305542
1725697034607,2024-09-07T08:17:14.607Z,161418,-0.13140869,-0.95581055,-0.3690796
1725697034658,2024-09-07T08:17:14.658Z,161469,-0.122558594,-0.9307251,-0.36071777
1725697034706,2024-09-07T08:17:14.706Z,161517,-0.14831543,-0.9557495,-0.40270996
1725697034748,2024-09-07T08:17:14.748Z,161559,-0.19750977,-0.95648193,-0.30444336
1725697034794,2024-09-07T08:17:14.794Z,161605,-0.17150879,-0.92388916,-0.47772217
1725697034840,2024-09-07T08:17:14.840Z,161651,-0.19519043,-0.92419434,-0.44329834
1725697034887,2024-09-07T08:17:14.887Z,161698,-0.28485107,-0.92755127,-0.4156494
1725697034927,2024-09-07T08:17:14.927Z,161738,-0.21490479,-0.89819336,-0.43237305
1725697034970,2024-09-07T08:17:14.970Z,161781,-0.24938965,-0.88720703,-0.3010254
1725697034992,2024-09-07T08:17:14.992Z,161803,-0.22210693,-0.89575195,-0.33728027
1725697035013,2024-09-07T08:17:15.013Z,161824,-0.19171143,-0.8823242,-0.3423462
1725697035057,2024-09-07T08:17:15.057Z,161868,-0.2197876,-0.90075684,-0.25494385
1725697035106,2024-09-07T08:17:15.106Z,161917,-0.17572021,-0.87298584,-0.1975708
1725697035150,2024-09-07T08:17:15.150Z,161961,-0.16516113,-0.8597412,-0.25091553
1725697035197,2024-09-07T08:17:15.197Z,162008,-0.14001465,-0.86016846,-0.24041748
1725697035243,2024-09-07T08:17:15.243Z,162054,-0.18035889,-0.92230225,-0.18347168
1725697035290,2024-09-07T08:17:15.290Z,162101,-0.15881348,-0.9319458,-0.15966797
1725697035333,2024-09-07T08:17:15.333Z,162144,-0.13574219,-0.89398193,-0.20141602
1725697035378,2024-09-07T08:17:15.378Z,162189,-0.13812256,-0.8739624,-0.20599365
1725697035423,2024-09-07T08:17:15.423Z,162234,-0.11621094,-0.8286133,-0.22509766
1725697035446,2024-09-07T08:17:15.446Z,162257,-0.12042236,-0.7861328,-0.23815918
1725697035470,2024-09-07T08:17:15.470Z,162281,-0.05810547,-0.86169434,-0.277771
1725697035512,2024-09-07T08:17:15.512Z,162323,-0.2670288,-0.99884033,-0.22210693
1725697035559,2024-09-07T08:17:15.559Z,162370,-0.13427734,-0.991272,-0.34466553
1725697035603,2024-09-07T08:17:15.603Z,162414,-0.22796631,-0.88916016,-0.23278809
1725697035645,2024-09-07T08:17:15.645Z,162456,-0.19891357,-0.7984009,-0.25976562
1725697035691,2024-09-07T08:17:15.691Z,162502,-0.1404419,-0.8336792,-0.18328857
1725697035738,2024-09-07T08:17:15.738Z,162549,-0.27441406,-0.89868164,-0.17871094
1725697035781,2024-09-07T08:17:15.781Z,162592,-0.17303467,-0.97406006,-0.24157715
1725697035826,2024-09-07T08:17:15.826Z,162637,-0.30596924,-0.987854,-0.15783691
1725697035849,2024-09-07T08:17:15.849Z,162660,-0.15484619,-0.9205322,-0.25286865
1725697035872,2024-09-07T08:17:15.872Z,162683,-0.27191162,-0.8934326,-0.20056152
1725697035916,2024-09-07T08:17:15.916Z,162727,-0.14874268,-0.9055786,-0.23742676
1725697035963,2024-09-07T08:17:15.963Z,162774,-0.2175293,-0.97283936,-0.21923828
1725697036010,2024-09-07T08:17:16.010Z,162821,-0.17004395,-0.99487305,-0.16900635
1725697036054,2024-09-07T08:17:16.054Z,162865,-0.1638794,-0.95196533,-0.20471191
1725697036098,2024-09-07T08:17:16.098Z,162909,-0.17163086,-0.9086914,-0.20037842
1725697036146,2024-09-07T08:17:16.146Z,162957,-0.11981201,-0.9274292,-0.20806885
1725697036187,2024-09-07T08:17:16.187Z,162998,-0.17828369,-0.9581299,-0.19995117
1725697036235,2024-09-07T08:17:16.235Z,163046,-0.15216064,-0.9891968,-0.20855713
1725697036262,2024-09-07T08:17:16.262Z,163073,-0.1973877,-0.96502686,-0.20422363
1725697036282,2024-09-07T08:17:16.282Z,163093,-0.16619873,-0.93182373,-0.22265625
1725697036322,2024-09-07T08:17:16.322Z,163133,-0.18023682,-0.8977661,-0.19659424
1725697036367,2024-09-07T08:17:16.367Z,163178,-0.18164062,-0.9055786,-0.20855713
1725697036416,2024-09-07T08:17:16.416Z,163227,-0.17767334,-0.93218994,-0.21026611
1725697036459,2024-09-07T08:17:16.459Z,163270,-0.19195557,-0.9411621,-0.21240234
1725697036503,2024-09-07T08:17:16.503Z,163314,-0.17633057,-0.9110718,-0.22888184
1725697036550,2024-09-07T08:17:16.550Z,163361,-0.19360352,-0.897583,-0.22686768
1725697036592,2024-09-07T08:17:16.592Z,163403,-0.15905762,-0.9202881,-0.23510742
1725697036638,2024-09-07T08:17:16.638Z,163449,-0.17285156,-0.95080566,-0.19415283
1725697036684,2024-09-07T08:17:16.684Z,163495,-0.16741943,-0.9399414,-0.2185669
1725697036704,2024-09-07T08:17:16.704Z,163515,-0.14434814,-0.92419434,-0.17736816
1725697036727,2024-09-07T08:17:16.727Z,163538,-0.1618042,-0.8988037,-0.22021484
1725697036773,2024-09-07T08:17:16.773Z,163584,-0.10748291,-0.8909302,-0.23577881
1725697036821,2024-09-07T08:17:16.821Z,163632,-0.16143799,-0.93811035,-0.18609619
1725697036863,2024-09-07T08:17:16.863Z,163674,-0.15856934,-0.961792,-0.19940186
1725697036909,2024-09-07T08:17:16.909Z,163720,-0.15270996,-0.96295166,-0.23260498
1725697036953,2024-09-07T08:17:16.953Z,163764,-0.15386963,-0.9541626,-0.23846436
1725697036999,2024-09-07T08:17:16.999Z,163810,-0.15106201,-0.94189453,-0.23260498
1725697037043,2024-09-07T08:17:17.043Z,163854,-0.13482666,-0.90289307,-0.2732544
1725697037087,2024-09-07T08:17:17.087Z,163898,-0.1385498,-0.8918457,-0.24084473
1725697037130,2024-09-07T08:17:17.130Z,163941,-0.1472168,-0.8920288,-0.23394775
1725697037148,2024-09-07T08:17:17.148Z,163959,-0.11407471,-0.90063477,-0.27166748
1725697037174,2024-09-07T08:17:17.174Z,163985,-0.113586426,-0.92614746,-0.25146484
1725697037223,2024-09-07T08:17:17.223Z,164034,-0.09484863,-0.9713135,-0.2600708
1725697037268,2024-09-07T08:17:17.268Z,164079,-0.115722656,-1.0238647,-0.24066162
1725697037314,2024-09-07T08:17:17.314Z,164125,-0.11114502,-1.06604,-0.21789551
1725697037359,2024-09-07T08:17:17.359Z,164170,-0.11834717,-1.0179443,-0.25061035
1725697037402,2024-09-07T08:17:17.402Z,164213,0.042907715,-0.909729,-0.2732544
1725697037447,2024-09-07T08:17:17.447Z,164258,-0.05029297,-0.86273193,-0.21820068
1725697037493,2024-09-07T08:17:17.493Z,164304,-0.07940674,-0.8912964,-0.13360596
1725697037514,2024-09-07T08:17:17.514Z,164325,-0.09857178,-0.9220581,-0.17852783
1725697037535,2024-09-07T08:17:17.535Z,164346,-0.12994385,-0.93951416,-0.24432373
1725697037582,2024-09-07T08:17:17.582Z,164393,-0.15264893,-0.9580078,-0.26678467
1725697037629,2024-09-07T08:17:17.629Z,164440,-0.19024658,-0.9700928,-0.24493408
1725697037673,2024-09-07T08:17:17.673Z,164484,-0.19525146,-0.9636841,-0.22198486
1725697037719,2024-09-07T08:17:17.719Z,164530,-0.16149902,-0.94573975,-0.25494385
1725697037764,2024-09-07T08:17:17.764Z,164575,-0.14831543,-0.9578247,-0.2489624
1725697037807,2024-09-07T08:17:17.807Z,164618,-0.14111328,-1.0087891,-0.23962402
1725697037852,2024-09-07T08:17:17.852Z,164663,-0.16485596,-1.0675659,-0.14031982
1725697037898,2024-09-07T08:17:17.898Z,164709,-0.11706543,-1.0592041,-0.14440918
1725697037945,2024-09-07T08:17:17.945Z,164756,-0.117126465,-1.0,-0.17022705
1725697037970,2024-09-07T08:17:17.970Z,164781,-0.1362915,-0.96917725,-0.12005615
1725697037992,2024-09-07T08:17:17.992Z,164803,-0.14337158,-0.9515991,-0.1821289
1725697038030,2024-09-07T08:17:18.030Z,164841,-0.15826416,-0.96972656,-0.18041992
1725697038077,2024-09-07T08:17:18.077Z,164888,-0.22589111,-0.98132324,-0.12164307
1725697038124,2024-09-07T08:17:18.124Z,164935,-0.25457764,-0.967041,-0.19659424
1725697038170,2024-09-07T08:17:18.170Z,164981,-0.27209473,-0.90234375,-0.17926025
1725697038211,2024-09-07T08:17:18.211Z,165022,-0.24829102,-0.85821533,-0.25024414
1725697038259,2024-09-07T08:17:18.259Z,165070,-0.2609253,-0.8740845,-0.22302246
1725697038306,2024-09-07T08:17:18.306Z,165117,-0.274292,-0.930603,-0.23083496
1725697038348,2024-09-07T08:17:18.348Z,165159,-0.30664062,-1.0095825,-0.1729126
1725697038369,2024-09-07T08:17:18.369Z,165180,-0.29016113,-1.0353394,-0.1350708
1725697038392,2024-09-07T08:17:18.392Z,165203,-0.29174805,-1.0117188,-0.18725586
1725697038435,2024-09-07T08:17:18.435Z,165246,-0.22314453,-0.9703369,-0.1796875
1725697038482,2024-09-07T08:17:18.482Z,165293,-0.1817627,-0.94537354,-0.18664551
1725697038526,2024-09-07T08:17:18.526Z,165337,-0.17510986,-0.9649658,-0.1665039
1725697038571,2024-09-07T08:17:18.571Z,165382,-0.18890381,-0.9976196,-0.105163574
1725697038619,2024-09-07T08:17:18.619Z,165430,-0.2088623,-0.98828125,-0.14581299
1725697038661,2024-09-07T08:17:18.661Z,165472,-0.19506836,-0.97857666,-0.12756348
1725697038707,2024-09-07T08:17:18.707Z,165518,-0.19915771,-0.963501,-0.13061523
1725697038750,2024-09-07T08:17:18.750Z,165561,-0.21514893,-0.953125,-0.19451904
1725697038766,2024-09-07T08:17:18.766Z,165577,-0.22033691,-0.9420166,-0.175354
1725697038796,2024-09-07T08:17:18.796Z,165607,-0.24658203,-0.9605713,-0.12347412
1725697038847,2024-09-07T08:17:18.847Z,165658,-0.23742676,-0.95410156,-0.13519287
1725697038890,2024-09-07T08:17:18.890Z,165701,-0.21740723,-0.9246216,-0.15270996
1725697038935,2024-09-07T08:17:18.935Z,165746,-0.20343018,-0.8840332,-0.15301514
1725697038978,2024-09-07T08:17:18.978Z,165789,-0.17059326,-0.9035034,-0.16589355
1725697039022,2024-09-07T08:17:19.022Z,165833,-0.17944336,-0.94470215,-0.14459229
1725697039067,2024-09-07T08:17:19.067Z,165878,-0.20111084,-1.0003052,-0.11730957
1725697039112,2024-09-07T08:17:19.112Z,165923,-0.23431396,-1.0159302,-0.114868164
1725697039155,2024-09-07T08:17:19.155Z,165966,-0.21429443,-1.0352173,-0.114868164
1725697039203,2024-09-07T08:17:19.203Z,166014,-0.22357178,-1.0321045,-0.10040283
1725697039225,2024-09-07T08:17:19.225Z,166036,-0.18286133,-0.99365234,-0.13995361
1725697039246,2024-09-07T08:17:19.246Z,166057,-0.1942749,-0.9562378,-0.13903809
1725697039292,2024-09-07T08:17:19.292Z,166103,-0.18463135,-0.94085693,-0.13531494
1725697039333,2024-09-07T08:17:19.333Z,166144,-0.17004395,-0.94104004,-0.118652344
1725697039380,2024-09-07T08:17:19.380Z,166191,-0.15808105,-0.94866943,-0.1317749
1725697039424,2024-09-07T08:17:19.424Z,166235,-0.16210938,-0.9630127,-0.1149292
1725697039468,2024-09-07T08:17:19.468Z,166279,-0.16864014,-0.9758911,-0.13189697
1725697039514,2024-09-07T08:17:19.514Z,166325,-0.1817627,-0.99072266,-0.16040039
1725697039560,2024-09-07T08:17:19.560Z,166371,-0.19708252,-1.008606,-0.1607666
1725697039606,2024-09-07T08:17:19.606Z,166417,-0.18249512,-1.0189819,-0.19744873
1725697039620,2024-09-07T08:17:19.620Z,166431,-0.215271,-1.0289307,-0.18121338
1725697039649,2024-09-07T08:17:19.649Z,166460,-0.19689941,-1.0204468,-0.16052246
1725697039699,2024-09-07T08:17:19.699Z,166510,-0.21130371,-1.0216675,-0.16693115
1725697039745,2024-09-07T08:17:19.745Z,166556,-0.2053833,-1.0629883,-0.16394043
1725697039787,2024-09-07T08:17:19.787Z,166598,-0.2501831,-1.121521,-0.19232178
1725697039834,2024-09-07T08:17:19.834Z,166645,-0.2664795,-1.095581,-0.16589355
1725697039878,2024-09-07T08:17:19.878Z,166689,-0.2767334,-1.0422363,-0.10858154
1725697039923,2024-09-07T08:17:19.923Z,166734,-0.2869873,-0.9836426,-0.029541016
1725697039969,2024-09-07T08:17:19.969Z,166780,-0.23468018,-0.9949951,-0.08526611
1725697040013,2024-09-07T08:17:20.013Z,166824,-0.23840332,-0.9605713,-0.08105469
1725697040030,2024-09-07T08:17:20.030Z,166841,-0.24969482,-0.9640503,-0.15075684
1725697040055,2024-09-07T08:17:20.055Z,166866,-0.21417236,-0.96551514,-0.13873291
1725697040101,2024-09-07T08:17:20.101Z,166912,-0.18884277,-0.9388428,-0.13580322
1725697040150,2024-09-07T08:17:20.150Z,166961,-0.22717285,-0.9520874,-0.17590332
1725697040193,2024-09-07T08:17:20.193Z,167004,-0.13842773,-0.9225464,-0.23046875
1725697040238,2024-09-07T08:17:20.238Z,167049,-0.13922119,-0.9234619,-0.22796631
1725697040280,2024-09-07T08:17:20.280Z,167091,-0.20941162,-0.96014404,-0.24151611
1725697040334,2024-09-07T08:17:20.334Z,167145,-0.19763184,-0.99780273,-0.2052002
1725697040373,2024-09-07T08:17:20.373Z,167184,-0.18878174,-0.97540283,-0.30737305
1725697040415,2024-09-07T08:17:20.415Z,167226,-0.14996338,-0.9547119,-0.2399292
1725697040461,2024-09-07T08:17:20.461Z,167272,-0.16577148,-0.953125,-0.3544922
1725697040477,2024-09-07T08:17:20.477Z,167288,-0.15618896,-0.96258545,-0.29516602
1725697040502,2024-09-07T08:17:20.502Z,167313,-0.23175049,-0.9741211,-0.2078247
1725697040552,2024-09-07T08:17:20.552Z,167363,-0.18585205,-0.9960327,-0.27209473
1725697040598,2024-09-07T08:17:20.598Z,167409,-0.19293213,-0.9694214,-0.24249268
1725697040642,2024-09-07T08:17:20.642Z,167453,-0.18414307,-0.94940186,-0.24456787
1725697040687,2024-09-07T08:17:20.687Z,167498,-0.18579102,-0.9472656,-0.19897461
1725697040732,2024-09-07T08:17:20.732Z,167543,-0.15814209,-0.9359131,-0.19293213
1725697040776,2024-09-07T08:17:20.776Z,167587,-0.12884521,-0.9265747,-0.26202393
1725697040821,2024-09-07T08:17:20.821Z,167632,-0.13934326,-0.9203491,-0.2109375
1725697040868,2024-09-07T08:17:20.868Z,167679,-0.11682129,-0.91192627,-0.23284912
1725697040889,2024-09-07T08:17:20.889Z,167700,-0.17340088,-0.9338379,-0.23834229
1725697040910,2024-09-07T08:17:20.910Z,167721,-0.18786621,-0.99658203,-0.23449707
1725697040956,2024-09-07T08:17:20.956Z,167767,-0.21679688,-1.0247192,-0.20965576
1725697041004,2024-09-07T08:17:21.004Z,167815,-0.24267578,-1.0187378,-0.24127197
1725697041045,2024-09-07T08:17:21.045Z,167856,-0.17944336,-0.9991455,-0.19018555
1725697041092,2024-09-07T08:17:21.092Z,167903,-0.17370605,-1.000061,-0.14715576
1725697041138,2024-09-07T08:17:21.138Z,167949,-0.09674072,-0.9208374,-0.17376709
1725697041182,2024-09-07T08:17:21.182Z,167993,-0.058410645,-0.8694458,-0.17852783
1725697041227,2024-09-07T08:17:21.227Z,168038,-0.08117676,-0.8143921,-0.24633789
1725697041275,2024-09-07T08:17:21.275Z,168086,-0.02734375,-0.80511475,-0.23034668
1725697041303,2024-09-07T08:17:21.303Z,168114,-0.10046387,-0.83392334,-0.16967773
1725697041325,2024-09-07T08:17:21.325Z,168136,-0.07696533,-0.9173584,-0.2232666
1725697041361,2024-09-07T08:17:21.361Z,168172,-0.11450195,-0.9463501,-0.3484497
1725697041420,2024-09-07T08:17:21.420Z,168231,-0.11657715,-1.0169067,-0.300354
1725697041452,2024-09-07T08:17:21.452Z,168263,-0.20239258,-0.95428467,-0.22973633
1725697041541,2024-09-07T08:17:21.541Z,168352,-0.01550293,-0.82818604,-0.3430786
1725697041564,2024-09-07T08:17:21.564Z,168375,-0.10571289,-0.7803955,-0.19226074
1725697041587,2024-09-07T08:17:21.587Z,168398,-0.0289917,-0.769104,-0.23254395
1725697041631,2024-09-07T08:17:21.631Z,168442,-0.0914917,-0.8424072,-0.22290039
1725697041677,2024-09-07T08:17:21.677Z,168488,-0.07562256,-0.9700928,-0.262146
1725697041724,2024-09-07T08:17:21.724Z,168535,-0.17199707,-1.0784912,-0.28625488
1725697041748,2024-09-07T08:17:21.748Z,168559,-0.16821289,-1.0249023,-0.32781982
1725697041773,2024-09-07T08:17:21.773Z,168584,-0.14318848,-0.9013672,-0.36706543
1725697041810,2024-09-07T08:17:21.810Z,168621,-0.17834473,-0.8441162,-0.25134277
1725697041858,2024-09-07T08:17:21.858Z,168669,-0.13189697,-0.8460083,-0.33398438
1725697041906,2024-09-07T08:17:21.906Z,168717,-0.19299316,-0.9324951,-0.23919678
1725697041954,2024-09-07T08:17:21.954Z,168765,-0.22930908,-0.97991943,-0.2984619
1725697041993,2024-09-07T08:17:21.993Z,168804,-0.2142334,-0.9732666,-0.24353027
1725697042042,2024-09-07T08:17:22.042Z,168853,-0.24475098,-0.90826416,-0.25482178
1725697042088,2024-09-07T08:17:22.088Z,168899,-0.22167969,-0.89904785,-0.20727539
1725697042129,2024-09-07T08:17:22.129Z,168940,-0.27947998,-0.9140625,-0.19708252
1725697042150,2024-09-07T08:17:22.150Z,168961,-0.20568848,-0.95910645,-0.24346924
1725697042173,2024-09-07T08:17:22.173Z,168984,-0.2640381,-0.9795532,-0.15856934
1725697042220,2024-09-07T08:17:22.220Z,169031,-0.18609619,-0.9466553,-0.27783203
1725697042266,2024-09-07T08:17:22.266Z,169077,-0.18084717,-0.9428711,-0.16687012
1725697042308,2024-09-07T08:17:22.308Z,169119,-0.21881104,-0.9147949,-0.2312622
1725697042355,2024-09-07T08:17:22.355Z,169166,-0.13012695,-0.93969727,-0.21801758
1725697042397,2024-09-07T08:17:22.397Z,169208,-0.21575928,-0.9736328,-0.24719238
1725697042442,2024-09-07T08:17:22.442Z,169253,-0.13018799,-1.0010986,-0.23034668
1725697042489,2024-09-07T08:17:22.489Z,169300,-0.25531006,-0.9777832,-0.21966553
1725697042533,2024-09-07T08:17:22.533Z,169344,-0.16503906,-0.8949585,-0.3067627
1725697042553,2024-09-07T08:17:22.553Z,169364,-0.18103027,-0.85943604,-0.1876831
1725697042576,2024-09-07T08:17:22.576Z,169387,-0.20709229,-0.87390137,-0.23461914
1725697042621,2024-09-07T08:17:22.621Z,169432,-0.19683838,-0.9651489,-0.215271
1725697042667,2024-09-07T08:17:22.667Z,169478,-0.25811768,-0.99139404,-0.27270508
1725697042713,2024-09-07T08:17:22.713Z,169524,-0.23474121,-0.95288086,-0.24261475
1725697042759,2024-09-07T08:17:22.759Z,169570,-0.25268555,-0.90356445,-0.24749756
1725697042807,2024-09-07T08:17:22.807Z,169618,-0.21453857,-0.88793945,-0.19793701
1725697042845,2024-09-07T08:17:22.845Z,169656,-0.25109863,-0.90740967,-0.24395752
1725697042894,2024-09-07T08:17:22.894Z,169705,-0.23083496,-0.88934326,-0.26483154
1725697042981,2024-09-07T08:17:22.981Z,169792,-0.22088623,-0.89141846,-0.1953125
1725697043003,2024-09-07T08:17:23.003Z,169814,-0.24945068,-0.8864136,-0.23883057
1725697043022,2024-09-07T08:17:23.022Z,169833,-0.18939209,-0.9116211,-0.28045654
1725697043037,2024-09-07T08:17:23.037Z,169848,-0.25042725,-0.9411011,-0.2878418
1725697043081,2024-09-07T08:17:23.081Z,169892,-0.21081543,-0.9003906,-0.29492188
1725697043118,2024-09-07T08:17:23.118Z,169929,-0.21850586,-0.8931885,-0.27514648
1725697043161,2024-09-07T08:17:23.161Z,169972,-0.22753906,-0.9060669,-0.29138184
1725697043209,2024-09-07T08:17:23.209Z,170020,-0.19732666,-0.9151001,-0.27703857
1725697043253,2024-09-07T08:17:23.253Z,170064,-0.22039795,-0.94091797,-0.24249268
1725697043298,2024-09-07T08:17:23.298Z,170109,-0.2166748,-0.9470215,-0.22357178
1725697043343,2024-09-07T08:17:23.343Z,170154,-0.21069336,-0.91516113,-0.23809814
1725697043391,2024-09-07T08:17:23.391Z,170202,-0.1965332,-0.9001465,-0.2518921
1725697043412,2024-09-07T08:17:23.412Z,170223,-0.19085693,-0.8965454,-0.25958252
1725697043438,2024-09-07T08:17:23.438Z,170249,-0.15698242,-0.91101074,-0.2442627
1725697043474,2024-09-07T08:17:23.474Z,170285,-0.17749023,-0.9089966,-0.2286377
1725697043522,2024-09-07T08:17:23.522Z,170333,-0.16552734,-0.87286377,-0.2730713
1725697043566,2024-09-07T08:17:23.566Z,170377,-0.20355225,-0.8880615,-0.25305176
1725697043610,2024-09-07T08:17:23.610Z,170421,-0.16186523,-0.9083252,-0.29174805
1725697043657,2024-09-07T08:17:23.657Z,170468,-0.17150879,-0.9711914,-0.34381104
1725697043701,2024-09-07T08:17:23.701Z,170512,-0.19610596,-0.98461914,-0.29022217
1725697043747,2024-09-07T08:17:23.747Z,170558,-0.2029419,-0.9610596,-0.28918457
1725697043793,2024-09-07T08:17:23.793Z,170604,-0.24615479,-0.90600586,-0.2647705
1725697043813,2024-09-07T08:17:23.813Z,170624,-0.19708252,-0.8097534,-0.25598145
1725697043839,2024-09-07T08:17:23.839Z,170650,-0.22149658,-0.8336792,-0.26434326
1725697043881,2024-09-07T08:17:23.881Z,170692,-0.21130371,-0.8973999,-0.31958008
1725697043928,2024-09-07T08:17:23.928Z,170739,-0.23260498,-0.9859619,-0.29266357
1725697043975,2024-09-07T08:17:23.975Z,170786,-0.28857422,-1.0091553,-0.2866211
1725697044017,2024-09-07T08:17:24.017Z,170828,-0.2642212,-0.9741821,-0.2319336
1725697044062,2024-09-07T08:17:24.062Z,170873,-0.24664307,-0.9370117,-0.28527832
1725697044108,2024-09-07T08:17:24.108Z,170919,-0.22558594,-0.88305664,-0.28826904
1725697044154,2024-09-07T08:17:24.154Z,170965,-0.21655273,-0.869751,-0.29504395
1725697044196,2024-09-07T08:17:24.196Z,171007,-0.23150635,-0.87908936,-0.25506592
1725697044244,2024-09-07T08:17:24.244Z,171055,-0.23571777,-0.89038086,-0.23571777
1725697044262,2024-09-07T08:17:24.262Z,171073,-0.24658203,-0.8713989,-0.24127197
1725697044285,2024-09-07T08:17:24.285Z,171096,-0.22668457,-0.8617554,-0.38336182
1725697044331,2024-09-07T08:17:24.331Z,171142,-0.2642212,-0.90618896,-0.359375
1725697044377,2024-09-07T08:17:24.377Z,171188,-0.26611328,-0.95196533,-0.39501953
1725697044422,2024-09-07T08:17:24.422Z,171233,-0.24432373,-0.9758911,-0.2929077
1725697044468,2024-09-07T08:17:24.468Z,171279,-0.2614746,-1.0180054,-0.2810669
1725697044512,2024-09-07T08:17:24.512Z,171323,-0.23980713,-1.0234985,-0.22528076
1725697044559,2024-09-07T08:17:24.559Z,171370,-0.19494629,-1.0261841,-0.26202393
1725697044606,2024-09-07T08:17:24.606Z,171417,-0.16491699,-0.9783325,-0.18566895
1725697044649,2024-09-07T08:17:24.649Z,171460,-0.17614746,-0.95111084,-0.17944336
1725697044697,2024-09-07T08:17:24.697Z,171508,-0.1850586,-0.9299927,-0.11328125
1725697044717,2024-09-07T08:17:24.717Z,171528,-0.2164917,-0.92767334,-0.15203857
1725697044743,2024-09-07T08:17:24.743Z,171554,-0.19659424,-0.9304199,-0.18933105
1725697044783,2024-09-07T08:17:24.783Z,171594,-0.2388916,-0.94763184,-0.21624756
1725697044827,2024-09-07T08:17:24.827Z,171638,-0.2354126,-0.9829712,-0.15100098
1725697044873,2024-09-07T08:17:24.873Z,171684,-0.27264404,-1.0169067,-0.15185547
1725697044916,2024-09-07T08:17:24.916Z,171727,-0.24371338,-1.0093384,-0.12365723
1725697044962,2024-09-07T08:17:24.962Z,171773,-0.19299316,-0.99328613,-0.14318848
1725697045006,2024-09-07T08:17:25.006Z,171817,-0.18719482,-0.99072266,-0.09863281
1725697045054,2024-09-07T08:17:25.054Z,171865,-0.15979004,-0.9885864,-0.11444092
1725697045073,2024-09-07T08:17:25.073Z,171884,-0.122558594,-0.9711304,-0.09814453
1725697045095,2024-09-07T08:17:25.095Z,171906,-0.11791992,-0.98394775,-0.103393555
1725697045142,2024-09-07T08:17:25.142Z,171953,-0.14312744,-0.9706421,-0.0725708
1725697045187,2024-09-07T08:17:25.187Z,171998,-0.14746094,-0.96661377,-0.09729004
1725697045241,2024-09-07T08:17:25.241Z,172052,-0.16210938,-0.9897461,-0.0904541
1725697045277,2024-09-07T08:17:25.277Z,172088,-0.16290283,-0.9803467,-0.113708496
1725697045323,2024-09-07T08:17:25.323Z,172134,-0.18792725,-0.99920654,-0.12017822
1725697045365,2024-09-07T08:17:25.365Z,172176,-0.1618042,-1.0077515,-0.064697266
1725697045412,2024-09-07T08:17:25.412Z,172223,-0.18328857,-1.0117188,-0.07720947
1725697045460,2024-09-07T08:17:25.460Z,172271,-0.15722656,-0.99005127,-0.04815674
1725697045500,2024-09-07T08:17:25.500Z,172311,-0.16522217,-0.9822998,-0.091430664
1725697045519,2024-09-07T08:17:25.519Z,172330,-0.1293335,-0.9869385,-0.03363037
1725697045546,2024-09-07T08:17:25.546Z,172357,-0.1593628,-1.0167236,-0.05883789
1725697045591,2024-09-07T08:17:25.591Z,172402,-0.13848877,-1.0496216,-0.05206299
1725697045642,2024-09-07T08:17:25.642Z,172453,-0.17480469,-1.0595093,-0.05895996
1725697045684,2024-09-07T08:17:25.684Z,172495,-0.15844727,-1.0755615,-0.0736084
1725697045728,2024-09-07T08:17:25.728Z,172539,-0.1494751,-1.0756226,-0.07373047
1725697045772,2024-09-07T08:17:25.772Z,172583,-0.13641357,-1.0804443,-0.09277344
1725697045816,2024-09-07T08:17:25.816Z,172627,-0.13543701,-1.0800171,-0.10131836
1725697045865,2024-09-07T08:17:25.865Z,172676,-0.14337158,-1.0586548,-0.12945557
1725697045910,2024-09-07T08:17:25.910Z,172721,-0.15307617,-1.0142212,-0.17553711
1725697045931,2024-09-07T08:17:25.931Z,172742,-0.14178467,-0.996521,-0.14886475
1725697045950,2024-09-07T08:17:25.950Z,172761,-0.19927979,-1.0061646,-0.19458008
1725697045996,2024-09-07T08:17:25.996Z,172807,-0.16375732,-1.0077515,-0.16351318
1725697046044,2024-09-07T08:17:26.044Z,172855,-0.19116211,-1.0024414,-0.22497559
1725697046087,2024-09-07T08:17:26.087Z,172898,-0.1519165,-0.96990967,-0.24517822
1725697046132,2024-09-07T08:17:26.132Z,172943,-0.18585205,-0.95129395,-0.27520752
1725697046178,2024-09-07T08:17:26.178Z,172989,-0.1574707,-0.96643066,-0.19464111
1725697046221,2024-09-07T08:17:26.221Z,173032,-0.14794922,-0.9411621,-0.24639893
1725697046270,2024-09-07T08:17:26.270Z,173081,-0.18023682,-0.94189453,-0.23950195
1725697046312,2024-09-07T08:17:26.312Z,173123,-0.18676758,-0.9498291,-0.23168945
1725697046332,2024-09-07T08:17:26.332Z,173143,-0.20324707,-0.93096924,-0.24310303
1725697046356,2024-09-07T08:17:26.356Z,173167,-0.20281982,-0.9279785,-0.2845459
1725697046450,2024-09-07T08:17:26.450Z,173261,-0.20776367,-0.92248535,-0.25506592
1725697046467,2024-09-07T08:17:26.467Z,173278,-0.18395996,-0.920166,-0.33770752
1725697046490,2024-09-07T08:17:26.490Z,173301,-0.17370605,-0.9320679,-0.3085327
1725697046539,2024-09-07T08:17:26.539Z,173350,-0.18243408,-0.93743896,-0.32000732
1725697046580,2024-09-07T08:17:26.580Z,173391,-0.17828369,-0.9179077,-0.3291626
1725697046629,2024-09-07T08:17:26.629Z,173440,-0.123535156,-0.9191284,-0.3892212
1725697046670,2024-09-07T08:17:26.670Z,173481,-0.18914795,-0.93914795,-0.2902832
1725697046722,2024-09-07T08:17:26.722Z,173533,-0.14093018,-0.9274292,-0.40270996
1725697046744,2024-09-07T08:17:26.744Z,173555,-0.18585205,-0.95336914,-0.34472656
1725697046770,2024-09-07T08:17:26.770Z,173581,-0.28100586,-1.0019531,-0.2791748
1725697046806,2024-09-07T08:17:26.806Z,173617,-0.1628418,-0.96136475,-0.37945557
1725697046852,2024-09-07T08:17:26.852Z,173663,-0.26586914,-0.96728516,-0.27508545
1725697046898,2024-09-07T08:17:26.898Z,173709,-0.24102783,-0.93444824,-0.23504639
1725697046945,2024-09-07T08:17:26.945Z,173756,-0.19610596,-0.92089844,-0.25543213
1725697046988,2024-09-07T08:17:26.988Z,173799,-0.23730469,-0.8850708,-0.25769043
1725697047033,2024-09-07T08:17:27.033Z,173844,-0.14276123,-0.90393066,-0.28723145
1725697047077,2024-09-07T08:17:27.077Z,173888,-0.20593262,-0.8970337,-0.19000244
1725697047123,2024-09-07T08:17:27.123Z,173934,-0.123168945,-0.8552246,-0.35717773
1725697047167,2024-09-07T08:17:27.167Z,173978,-0.1998291,-0.8661499,-0.2515869
1725697047187,2024-09-07T08:17:27.187Z,173998,-0.16455078,-0.8569946,-0.26141357
1725697047213,2024-09-07T08:17:27.213Z,174024,-0.22235107,-0.864624,-0.25836182
1725697047255,2024-09-07T08:17:27.255Z,174066,-0.14660645,-0.8727417,-0.30023193
1725697047302,2024-09-07T08:17:27.302Z,174113,-0.23480225,-0.8685303,-0.28936768
1725697047347,2024-09-07T08:17:27.347Z,174158,-0.20117188,-0.87213135,-0.25933838
1725697047437,2024-09-07T08:17:27.437Z,174248,-0.14703369,-0.87475586,-0.2645874
1725697047455,2024-09-07T08:17:27.455Z,174266,-0.16363525,-0.86621094,-0.18572998
1725697047480,2024-09-07T08:17:27.480Z,174291,-0.13165283,-0.89538574,-0.2277832
1725697047526,2024-09-07T08:17:27.526Z,174337,-0.17138672,-0.90423584,-0.21826172
1725697047572,2024-09-07T08:17:27.572Z,174383,-0.10455322,-0.91137695,-0.19329834
1725697047590,2024-09-07T08:17:27.590Z,174401,-0.11517334,-0.9657593,-0.18603516
1725697047629,2024-09-07T08:17:27.629Z,174440,-0.19445801,-0.95410156,-0.22735596
1725697047667,2024-09-07T08:17:27.667Z,174478,-0.05444336,-0.9394531,-0.16772461
1725697047706,2024-09-07T08:17:27.706Z,174517,-0.2541504,-0.9413452,-0.19390869
1725697047752,2024-09-07T08:17:27.752Z,174563,-0.0736084,-0.92492676,-0.21936035
1725697047798,2024-09-07T08:17:27.798Z,174609,-0.27441406,-0.9522095,-0.12145996
1725697047841,2024-09-07T08:17:27.841Z,174652,-0.15045166,-0.94970703,-0.1973877
1725697047890,2024-09-07T08:17:27.890Z,174701,-0.25146484,-0.970459,-0.15631104
1725697047934,2024-09-07T08:17:27.934Z,174745,-0.24169922,-0.9606323,-0.1897583
1725697047978,2024-09-07T08:17:27.978Z,174789,-0.23150635,-0.9570923,-0.16491699
1725697048001,2024-09-07T08:17:28.001Z,174812,-0.2668457,-0.9283447,-0.16339111
1725697048021,2024-09-07T08:17:28.021Z,174832,-0.21325684,-0.9362793,-0.15625
1725697048065,2024-09-07T08:17:28.065Z,174876,-0.2732544,-0.92071533,-0.15332031
1725697048111,2024-09-07T08:17:28.111Z,174922,-0.22790527,-0.9273071,-0.1449585
1725697048158,2024-09-07T08:17:28.158Z,174969,-0.27459717,-0.9522705,-0.15966797
1725697048200,2024-09-07T08:17:28.200Z,175011,-0.20898438,-0.9946289,-0.14733887
1725697048241,2024-09-07T08:17:28.241Z,175052,-0.21618652,-1.0133667,-0.16339111
1725697048287,2024-09-07T08:17:28.287Z,175098,-0.16436768,-0.93029785,-0.1821289
1725697048332,2024-09-07T08:17:28.332Z,175143,-0.17126465,-0.883667,-0.16809082
1725697048386,2024-09-07T08:17:28.386Z,175197,-0.15917969,-0.89331055,-0.22698975
1725697048397,2024-09-07T08:17:28.397Z,175208,-0.20910645,-0.960083,-0.17712402
