Timestamp (ms),ISO DateTime,Elapsed Time (ms),Acceleration X,Acceleration Y,Acceleration Z
1735322018448,2024-12-27T17:53:38.448Z,150339,0.020446777,-0.11956787,0.014892578
1735322018464,2024-12-27T17:53:38.464Z,150355,0.019897461,-0.119506836,0.014892578
1735322018473,2024-12-27T17:53:38.473Z,150364,0.019348145,-0.119384766,0.01586914
1735322018491,2024-12-27T17:53:38.491Z,150382,0.020080566,-0.11956787,0.016967773
1735322018501,2024-12-27T17:53:38.501Z,150392,0.01977539,-0.12054443,0.016235352
1735322018511,2024-12-27T17:53:38.511Z,150402,0.020141602,-0.11981201,0.0154418945
1735322018519,2024-12-27T17:53:38.519Z,150410,0.02178955,-0.119018555,0.015625
1735322018528,2024-12-27T17:53:38.528Z,150419,0.0211792,-0.118652344,0.015380859
1735322018536,2024-12-27T17:53:38.536Z,150427,0.01965332,-0.119018555,0.015380859
1735322018545,2024-12-27T17:53:38.545Z,150436,0.020385742,-0.11968994,0.016845703
1735322018554,2024-12-27T17:53:38.554Z,150445,0.02154541,-0.12060547,0.019470215
1735322018562,2024-12-27T17:53:38.562Z,150453,0.021972656,-0.12084961,0.020080566
1735322018576,2024-12-27T17:53:38.576Z,150467,0.0211792,-0.12042236,0.019897461
1735322018587,2024-12-27T17:53:38.587Z,150478,0.020202637,-0.12005615,0.019836426
1735322018595,2024-12-27T17:53:38.595Z,150486,0.020507812,-0.12054443,0.01965332
1735322018605,2024-12-27T17:53:38.605Z,150496,0.019958496,-0.12121582,0.020690918
1735322018613,2024-12-27T17:53:38.613Z,150504,0.01977539,-0.12158203,0.023254395
1735322018620,2024-12-27T17:53:38.620Z,150511,0.021606445,-0.12213135,0.025268555
1735322018669,2024-12-27T17:53:38.669Z,150560,0.022155762,-0.12249756,0.0256958
1735322018714,2024-12-27T17:53:38.714Z,150605,0.02166748,-0.120666504,0.025024414
1735322018721,2024-12-27T17:53:38.721Z,150612,0.020629883,-0.11895752,0.025146484
1735322018729,2024-12-27T17:53:38.729Z,150620,0.019042969,-0.11907959,0.024780273
1735322018738,2024-12-27T17:53:38.738Z,150629,0.01763916,-0.119140625,0.023803711
1735322018745,2024-12-27T17:53:38.745Z,150636,0.016845703,-0.11785889,0.022094727
1735322018755,2024-12-27T17:53:38.755Z,150646,0.017211914,-0.11639404,0.020690918
1735322018765,2024-12-27T17:53:38.765Z,150656,0.01776123,-0.11425781,0.018310547
1735322018773,2024-12-27T17:53:38.773Z,150664,0.015014648,-0.112976074,0.015991211
1735322018780,2024-12-27T17:53:38.780Z,150671,0.0126953125,-0.11230469,0.014343262
1735322018800,2024-12-27T17:53:38.800Z,150691,0.013793945,-0.11291504,0.014221191
1735322018809,2024-12-27T17:53:38.809Z,150700,0.015075684,-0.11541748,0.014587402
1735322018819,2024-12-27T17:53:38.819Z,150710,0.016662598,-0.120910645,0.01361084
1735322018829,2024-12-27T17:53:38.829Z,150720,0.016418457,-0.12237549,0.012939453
1735322018854,2024-12-27T17:53:38.854Z,150745,0.016784668,-0.122558594,0.0099487305
1735322018864,2024-12-27T17:53:38.864Z,150755,0.018310547,-0.12286377,0.009643555
1735322018872,2024-12-27T17:53:38.872Z,150763,0.020996094,-0.12286377,0.011108398
1735322018880,2024-12-27T17:53:38.880Z,150771,0.02142334,-0.12121582,0.012084961
1735322018887,2024-12-27T17:53:38.887Z,150778,0.018920898,-0.11853027,0.011230469
1735322018895,2024-12-27T17:53:38.895Z,150786,0.017333984,-0.11633301,0.010314941
1735322018902,2024-12-27T17:53:38.902Z,150793,0.017211914,-0.117004395,0.010864258
1735322018913,2024-12-27T17:53:38.913Z,150804,0.018249512,-0.1182251,0.011474609
1735322018925,2024-12-27T17:53:38.925Z,150816,0.01940918,-0.119384766,0.012329102
1735322018933,2024-12-27T17:53:38.933Z,150824,0.019714355,-0.11975098,0.013122559
1735322018942,2024-12-27T17:53:38.942Z,150833,0.019958496,-0.11975098,0.014343262
1735322018952,2024-12-27T17:53:38.952Z,150843,0.021057129,-0.121276855,0.016479492
1735322018961,2024-12-27T17:53:38.961Z,150852,0.022705078,-0.12231445,0.018066406
1735322018970,2024-12-27T17:53:38.970Z,150861,0.024963379,-0.1217041,0.018676758
1735322018978,2024-12-27T17:53:38.978Z,150869,0.02545166,-0.11956787,0.017944336
1735322018987,2024-12-27T17:53:38.987Z,150878,0.022949219,-0.11828613,0.017089844
1735322019025,2024-12-27T17:53:39.025Z,150916,0.022094727,-0.11798096,0.016845703
1735322019035,2024-12-27T17:53:39.035Z,150926,0.023010254,-0.11895752,0.018432617
1735322019043,2024-12-27T17:53:39.043Z,150934,0.022949219,-0.121398926,0.020202637
1735322019050,2024-12-27T17:53:39.050Z,150941,0.021850586,-0.122924805,0.022460938
1735322019060,2024-12-27T17:53:39.060Z,150951,0.02178955,-0.124694824,0.02532959
1735322019069,2024-12-27T17:53:39.069Z,150960,0.023010254,-0.12615967,0.02758789
1735322019078,2024-12-27T17:53:39.078Z,150969,0.025817871,-0.12731934,0.028747559
1735322019087,2024-12-27T17:53:39.087Z,150978,0.028625488,-0.12701416,0.027832031
1735322019094,2024-12-27T17:53:39.094Z,150985,0.028564453,-0.12524414,0.028503418
1735322019105,2024-12-27T17:53:39.105Z,150996,0.026000977,-0.12188721,0.02709961
1735322019115,2024-12-27T17:53:39.115Z,151006,0.02923584,-0.11553955,0.026611328
1735322019124,2024-12-27T17:53:39.124Z,151015,0.034362793,-0.10687256,0.025817871
1735322019128,2024-12-27T17:53:39.128Z,151019,0.030639648,-0.09765625,0.024597168
1735322019138,2024-12-27T17:53:39.138Z,151029,0.018554688,-0.09265137,0.02178955
1735322019147,2024-12-27T17:53:39.147Z,151038,0.009765625,-0.097717285,0.018676758
1735322019161,2024-12-27T17:53:39.161Z,151052,0.01727295,-0.1138916,0.01373291
1735322019170,2024-12-27T17:53:39.170Z,151061,0.026855469,-0.13238525,0.0095825195
1735322019206,2024-12-27T17:53:39.206Z,151097,0.028198242,-0.14025879,0.005493164
1735322019214,2024-12-27T17:53:39.214Z,151105,0.016174316,-0.13909912,0.0037841797
1735322019223,2024-12-27T17:53:39.223Z,151114,0.0115356445,-0.1328125,0.011047363
1735322019232,2024-12-27T17:53:39.232Z,151123,0.010131836,-0.12390137,0.008300781
1735322019241,2024-12-27T17:53:39.241Z,151132,0.006958008,-0.11340332,0.0056152344
1735322019253,2024-12-27T17:53:39.253Z,151144,0.0056152344,-0.10479736,0.005004883
1735322019261,2024-12-27T17:53:39.261Z,151152,-2.4414062E-4,-0.10211182,0.0065307617
1735322019270,2024-12-27T17:53:39.270Z,151161,0.004333496,-0.105285645,0.007873535
1735322019280,2024-12-27T17:53:39.280Z,151171,0.01776123,-0.11517334,0.0107421875
1735322019289,2024-12-27T17:53:39.289Z,151180,0.03186035,-0.12854004,0.016235352
1735322019298,2024-12-27T17:53:39.298Z,151189,0.03692627,-0.13195801,0.022705078
1735322019308,2024-12-27T17:53:39.308Z,151199,0.034423828,-0.124694824,0.02734375
1735322019312,2024-12-27T17:53:39.312Z,151203,0.027709961,-0.11444092,0.02557373
1735322019322,2024-12-27T17:53:39.322Z,151213,0.034606934,-0.113220215,0.030517578
1735322019331,2024-12-27T17:53:39.331Z,151222,0.032836914,-0.10992432,0.029785156
1735322019340,2024-12-27T17:53:39.340Z,151231,0.02532959,-0.10797119,0.024658203
1735322019348,2024-12-27T17:53:39.348Z,151239,0.026550293,-0.10961914,0.020446777
1735322019356,2024-12-27T17:53:39.356Z,151247,0.024963379,-0.11584473,0.020629883
1735322019364,2024-12-27T17:53:39.364Z,151255,0.023803711,-0.12023926,0.024963379
1735322019372,2024-12-27T17:53:39.372Z,151263,0.027770996,-0.11810303,0.021118164
1735322019381,2024-12-27T17:53:39.381Z,151272,0.026916504,-0.11193848,0.011169434
1735322019391,2024-12-27T17:53:39.391Z,151282,0.015991211,-0.10498047,0.0049438477
1735322019398,2024-12-27T17:53:39.398Z,151289,0.00982666,-0.10498047,0.006591797
1735322019405,2024-12-27T17:53:39.405Z,151296,0.014587402,-0.11090088,0.010314941
1735322019412,2024-12-27T17:53:39.412Z,151303,0.023376465,-0.11517334,0.010131836
1735322019419,2024-12-27T17:53:39.419Z,151310,0.017944336,-0.113708496,0.009460449
1735322019427,2024-12-27T17:53:39.427Z,151318,0.0126953125,-0.10821533,0.01751709
1735322019436,2024-12-27T17:53:39.436Z,151327,0.018005371,-0.101135254,0.017150879
1735322019444,2024-12-27T17:53:39.444Z,151335,0.014526367,-0.097473145,0.010559082
1735322019456,2024-12-27T17:53:39.456Z,151347,0.0043945312,-0.094055176,0.0107421875
1735322019464,2024-12-27T17:53:39.464Z,151355,0.0032348633,-0.097351074,0.012756348
1735322019477,2024-12-27T17:53:39.477Z,151368,0.007446289,-0.10534668,0.017028809
1735322019486,2024-12-27T17:53:39.486Z,151377,0.014099121,-0.115478516,0.019226074
1735322019496,2024-12-27T17:53:39.496Z,151387,0.016052246,-0.123413086,0.013549805
1735322019504,2024-12-27T17:53:39.504Z,151395,0.020751953,-0.12213135,0.0138549805
1735322019513,2024-12-27T17:53:39.513Z,151404,0.01727295,-0.116882324,0.016540527
1735322019526,2024-12-27T17:53:39.526Z,151417,0.011474609,-0.10827637,0.016357422
1735322019533,2024-12-27T17:53:39.533Z,151424,0.019104004,-0.09851074,0.01550293
1735322019540,2024-12-27T17:53:39.540Z,151431,0.019592285,-0.09515381,0.012390137
1735322019550,2024-12-27T17:53:39.550Z,151441,0.0138549805,-0.095825195,0.012268066
1735322019560,2024-12-27T17:53:39.560Z,151451,0.010559082,-0.09765625,0.011413574
1735322019574,2024-12-27T17:53:39.574Z,151465,0.01739502,-0.10772705,0.010437012
1735322019582,2024-12-27T17:53:39.582Z,151473,0.026489258,-0.11584473,0.008850098
1735322019591,2024-12-27T17:53:39.591Z,151482,0.022338867,-0.11956787,0.00390625
1735322019600,2024-12-27T17:53:39.600Z,151491,0.019836426,-0.12023926,0.006713867
1735322019609,2024-12-27T17:53:39.609Z,151500,0.020629883,-0.11828613,0.009094238
1735322019616,2024-12-27T17:53:39.616Z,151507,0.00982666,-0.113464355,0.0040283203
1735322019626,2024-12-27T17:53:39.626Z,151517,-0.0026855469,-0.10748291,-0.0012207031
1735322019635,2024-12-27T17:53:39.635Z,151526,0.0018310547,-0.107666016,-6.1035156E-4
1735322019643,2024-12-27T17:53:39.643Z,151534,0.010498047,-0.108947754,0.0048217773
1735322019650,2024-12-27T17:53:39.650Z,151541,0.005432129,-0.105773926,0.0056152344
1735322019659,2024-12-27T17:53:39.659Z,151550,0.0021972656,-0.10571289,0.0038452148
1735322019666,2024-12-27T17:53:39.666Z,151557,0.012573242,-0.11035156,0.004760742
1735322019675,2024-12-27T17:53:39.675Z,151566,0.013549805,-0.118896484,0.007019043
1735322019683,2024-12-27T17:53:39.683Z,151574,0.009460449,-0.12475586,0.007019043
1735322019693,2024-12-27T17:53:39.693Z,151584,0.0028686523,-0.12487793,0.002380371
1735322019702,2024-12-27T17:53:39.702Z,151593,0.0056152344,-0.12121582,0.0048217773
1735322019709,2024-12-27T17:53:39.709Z,151600,0.013793945,-0.11413574,0.010681152
1735322019717,2024-12-27T17:53:39.717Z,151608,0.014099121,-0.109802246,0.0134887695
1735322019725,2024-12-27T17:53:39.725Z,151616,0.016540527,-0.11151123,0.012573242
1735322019733,2024-12-27T17:53:39.733Z,151624,0.016967773,-0.11029053,0.013366699
1735322019746,2024-12-27T17:53:39.746Z,151637,0.010681152,-0.111083984,0.0095825195
1735322019757,2024-12-27T17:53:39.757Z,151648,0.0012817383,-0.11584473,0.011779785
1735322019764,2024-12-27T17:53:39.764Z,151655,0.010437012,-0.12249756,0.013244629
1735322019771,2024-12-27T17:53:39.771Z,151662,0.0076293945,-0.1204834,0.0067749023
1735322019790,2024-12-27T17:53:39.790Z,151681,0.0025024414,-0.11199951,0.008361816
1735322019798,2024-12-27T17:53:39.798Z,151689,0.0051879883,-0.10858154,0.006225586
1735322019806,2024-12-27T17:53:39.806Z,151697,0.00793457,-0.111206055,0.004760742
1735322019815,2024-12-27T17:53:39.815Z,151706,0.0107421875,-0.11077881,0.003479004
1735322019823,2024-12-27T17:53:39.823Z,151714,0.0025634766,-0.11029053,0.002746582
1735322019835,2024-12-27T17:53:39.835Z,151726,9.1552734E-4,-0.115234375,0.004211426
1735322019843,2024-12-27T17:53:39.843Z,151734,-1.8310547E-4,-0.11541748,0.004699707
1735322019850,2024-12-27T17:53:39.850Z,151741,3.6621094E-4,-0.11505127,0.004272461
1735322019858,2024-12-27T17:53:39.858Z,151749,0.005126953,-0.1116333,-0.0033569336
1735322019880,2024-12-27T17:53:39.880Z,151771,-0.0025024414,-0.10614014,-0.0052490234
1735322019887,2024-12-27T17:53:39.887Z,151778,-0.006591797,-0.11682129,-0.0032958984
1735322019895,2024-12-27T17:53:39.895Z,151786,-0.0076904297,-0.1295166,-6.1035156E-4
1735322019903,2024-12-27T17:53:39.903Z,151794,-0.0034179688,-0.13220215,0.0017089844
1735322019911,2024-12-27T17:53:39.911Z,151802,0.010437012,-0.13067627,-0.0053100586
1735322019926,2024-12-27T17:53:39.926Z,151817,0.010681152,-0.12011719,-0.0015258789
1735322019933,2024-12-27T17:53:39.933Z,151824,0.0043945312,-0.10845947,0.008117676
1735322019941,2024-12-27T17:53:39.941Z,151832,0.010192871,-0.116760254,0.0076904297
1735322019948,2024-12-27T17:53:39.948Z,151839,0.008911133,-0.12579346,0.0040283203
1735322020065,2024-12-27T17:53:40.065Z,151956,-0.0030517578,-0.12402344,0.003967285
1735322020071,2024-12-27T17:53:40.071Z,151962,0.0025024414,-0.118896484,0.0021972656
1735322020078,2024-12-27T17:53:40.078Z,151969,0.0068969727,-0.117492676,0.008850098
1735322020084,2024-12-27T17:53:40.084Z,151975,-3.6621094E-4,-0.12054443,0.0095825195
1735322020090,2024-12-27T17:53:40.090Z,151981,-0.0033569336,-0.12719727,0.0033569336
1735322020108,2024-12-27T17:53:40.108Z,151999,-0.009277344,-0.12835693,0.0048828125
1735322020116,2024-12-27T17:53:40.116Z,152007,-0.0079956055,-0.1274414,0.011657715
1735322020123,2024-12-27T17:53:40.123Z,152014,-0.008972168,-0.13006592,0.012390137
1735322020130,2024-12-27T17:53:40.130Z,152021,-0.008728027,-0.13256836,0.018005371
1735322020138,2024-12-27T17:53:40.138Z,152029,0.0045776367,-0.12713623,0.013977051
1735322020146,2024-12-27T17:53:40.146Z,152037,0.011230469,-0.11010742,0.013916016
1735322020150,2024-12-27T17:53:40.150Z,152041,0.0072021484,-0.12738037,0.0119018555
1735322020159,2024-12-27T17:53:40.159Z,152050,0.010925293,-0.124572754,0.012817383
1735322020168,2024-12-27T17:53:40.168Z,152059,0.006958008,-0.12957764,0.02154541
1735322020176,2024-12-27T17:53:40.176Z,152067,0.009094238,-0.13964844,0.020935059
1735322020183,2024-12-27T17:53:40.183Z,152074,0.005493164,-0.128479,-0.0048828125
1735322020191,2024-12-27T17:53:40.191Z,152082,-0.0061035156,-0.10821533,-0.0043945312
1735322020245,2024-12-27T17:53:40.245Z,152136,-0.0095825195,-0.115234375,-0.0034179688
1735322020291,2024-12-27T17:53:40.291Z,152182,-0.011657715,-0.13378906,-0.0014038086
1735322020300,2024-12-27T17:53:40.300Z,152191,-9.765625E-4,-0.13372803,-0.0026855469
1735322020340,2024-12-27T17:53:40.340Z,152231,0.007751465,-0.1182251,-0.004760742
1735322020347,2024-12-27T17:53:40.347Z,152238,8.544922E-4,-0.10644531,0.0087890625
1735322020355,2024-12-27T17:53:40.355Z,152246,-0.0032958984,-0.11407471,0.0087890625
1735322020363,2024-12-27T17:53:40.363Z,152254,-0.0013427734,-0.1305542,0.004211426
1735322020370,2024-12-27T17:53:40.370Z,152261,0.009765625,-0.13446045,0.0010375977
1735322020421,2024-12-27T17:53:40.421Z,152312,0.021484375,-0.115478516,0.008483887
1735322020428,2024-12-27T17:53:40.428Z,152319,0.00592041,-0.09100342,0.023620605
1735322020434,2024-12-27T17:53:40.434Z,152325,-0.004760742,-0.10089111,0.018432617
1735322020443,2024-12-27T17:53:40.443Z,152334,-0.010070801,-0.15716553,0.010131836
1735322020451,2024-12-27T17:53:40.451Z,152342,0.024719238,-0.1083374,0.024902344
1735322020460,2024-12-27T17:53:40.460Z,152351,0.035583496,-0.106933594,0.022766113
1735322020568,2024-12-27T17:53:40.568Z,152459,-0.0030517578,-0.14642334,-8.544922E-4
1735322020614,2024-12-27T17:53:40.614Z,152505,-0.010314941,-0.14654541,-0.006225586
1735322020695,2024-12-27T17:53:40.695Z,152586,-0.015380859,-0.12591553,-0.0014648438
1735322020711,2024-12-27T17:53:40.711Z,152602,-0.007446289,-0.11645508,0.006652832
1735322020729,2024-12-27T17:53:40.729Z,152620,0.0030517578,-0.124938965,0.022277832
1735322020742,2024-12-27T17:53:40.742Z,152633,7.9345703E-4,-0.13720703,0.02355957
1735322020747,2024-12-27T17:53:40.747Z,152638,0.03918457,-0.10070801,0.036254883
1735322020756,2024-12-27T17:53:40.756Z,152647,0.038757324,-0.1184082,0.041259766
1735322020781,2024-12-27T17:53:40.781Z,152672,0.029541016,-0.12701416,0.038391113
1735322020788,2024-12-27T17:53:40.788Z,152679,0.01739502,-0.11505127,0.032287598
1735322020795,2024-12-27T17:53:40.795Z,152686,0.012390137,-0.112976074,0.02709961
1735322020805,2024-12-27T17:53:40.805Z,152696,0.018249512,-0.1217041,0.025817871
1735322020809,2024-12-27T17:53:40.809Z,152700,0.021362305,-0.13458252,0.030212402
1735322020813,2024-12-27T17:53:40.813Z,152704,0.009094238,-0.14416504,0.048828125
1735322020820,2024-12-27T17:53:40.820Z,152711,0.0178833,-0.14776611,0.046325684
1735322020829,2024-12-27T17:53:40.829Z,152720,0.031982422,-0.1281128,0.04534912
1735322020836,2024-12-27T17:53:40.836Z,152727,0.048461914,-0.13598633,0.046142578
1735322020844,2024-12-27T17:53:40.844Z,152735,0.05267334,-0.12786865,0.032470703
1735322020851,2024-12-27T17:53:40.851Z,152742,0.043395996,-0.12878418,0.028259277
1735322020858,2024-12-27T17:53:40.858Z,152749,0.03149414,-0.13232422,0.039123535
1735322020869,2024-12-27T17:53:40.869Z,152760,0.022460938,-0.12762451,0.046813965
1735322020873,2024-12-27T17:53:40.873Z,152764,0.05609131,-0.11608887,0.0569458
1735322020880,2024-12-27T17:53:40.880Z,152771,0.049926758,-0.109436035,0.07232666
1735322020887,2024-12-27T17:53:40.887Z,152778,0.044799805,-0.10852051,0.06890869
1735322020895,2024-12-27T17:53:40.895Z,152786,0.047668457,-0.109375,0.06213379
1735322020915,2024-12-27T17:53:40.915Z,152806,0.04748535,-0.10583496,0.056152344
1735322020924,2024-12-27T17:53:40.924Z,152815,0.046325684,-0.10284424,0.053588867
1735322021006,2024-12-27T17:53:41.006Z,152897,0.061523438,-0.10546875,0.055725098
1735322021013,2024-12-27T17:53:41.013Z,152904,0.056152344,-0.109313965,0.0647583
1735322021020,2024-12-27T17:53:41.020Z,152911,0.042114258,-0.11785889,0.057434082
1735322021027,2024-12-27T17:53:41.027Z,152918,0.03668213,-0.113586426,0.05621338
1735322021033,2024-12-27T17:53:41.033Z,152924,0.038757324,-0.105895996,0.049438477
1735322021041,2024-12-27T17:53:41.041Z,152932,0.036865234,-0.111450195,0.04748535
1735322021056,2024-12-27T17:53:41.056Z,152947,0.032104492,-0.11462402,0.049865723
1735322021063,2024-12-27T17:53:41.063Z,152954,0.03112793,-0.11975098,0.056518555
1735322021071,2024-12-27T17:53:41.071Z,152962,0.04260254,-0.11907959,0.0793457
1735322021079,2024-12-27T17:53:41.079Z,152970,0.0413208,-0.10620117,0.074645996
1735322021086,2024-12-27T17:53:41.086Z,152977,0.02911377,-0.10235596,0.044677734
1735322021096,2024-12-27T17:53:41.096Z,152987,0.016174316,-0.09729004,0.03387451
1735322021101,2024-12-27T17:53:41.101Z,152992,0.04260254,-0.10229492,0.030273438
1735322021110,2024-12-27T17:53:41.110Z,153001,0.053833008,-0.08721924,0.034973145
1735322021117,2024-12-27T17:53:41.117Z,153008,0.054992676,-0.09320068,0.04827881
1735322021126,2024-12-27T17:53:41.126Z,153017,0.03942871,-0.11138916,0.04638672
1735322021135,2024-12-27T17:53:41.135Z,153026,0.031311035,-0.12792969,0.050598145
1735322021144,2024-12-27T17:53:41.144Z,153035,0.034484863,-0.12701416,0.05645752
1735322021157,2024-12-27T17:53:41.157Z,153048,0.035461426,-0.107177734,0.06365967
1735322021165,2024-12-27T17:53:41.165Z,153056,0.03387451,-0.095703125,0.078552246
1735322021174,2024-12-27T17:53:41.174Z,153065,0.031188965,-0.107421875,0.0859375
1735322021182,2024-12-27T17:53:41.182Z,153073,0.03778076,-0.116760254,0.078063965
1735322021189,2024-12-27T17:53:41.189Z,153080,0.04449463,-0.11895752,0.07543945
1735322021233,2024-12-27T17:53:41.233Z,153124,0.03765869,-0.12145996,0.07208252
1735322021412,2024-12-27T17:53:41.412Z,153303,0.03869629,-0.11779785,0.07305908
1735322021421,2024-12-27T17:53:41.421Z,153312,0.04260254,-0.106933594,0.07922363
1735322021430,2024-12-27T17:53:41.430Z,153321,0.042175293,-0.10003662,0.068237305
1735322021438,2024-12-27T17:53:41.438Z,153329,0.0501709,-0.101501465,0.054748535
1735322021446,2024-12-27T17:53:41.446Z,153337,0.0602417,-0.11444092,0.055541992
1735322021464,2024-12-27T17:53:41.464Z,153355,0.05230713,-0.12890625,0.04168701
1735322021548,2024-12-27T17:53:41.548Z,153439,0.041259766,-0.13519287,0.03173828
1735322021561,2024-12-27T17:53:41.561Z,153452,0.039367676,-0.1227417,0.0413208
1735322021573,2024-12-27T17:53:41.573Z,153464,0.048217773,-0.10748291,0.044677734
1735322021584,2024-12-27T17:53:41.584Z,153475,0.04949951,-0.093688965,0.0501709
1735322021596,2024-12-27T17:53:41.596Z,153487,0.04260254,-0.08917236,0.057922363
1735322021685,2024-12-27T17:53:41.685Z,153576,0.0491333,-0.10699463,0.06341553
1735322021693,2024-12-27T17:53:41.693Z,153584,0.023498535,-0.11230469,0.032165527
1735322021709,2024-12-27T17:53:41.709Z,153600,0.018737793,-0.10070801,0.038208008
1735322021727,2024-12-27T17:53:41.727Z,153618,0.022338867,-0.10070801,0.043029785
1735322021775,2024-12-27T17:53:41.775Z,153666,0.032165527,-0.11663818,0.054382324
1735322021792,2024-12-27T17:53:41.792Z,153683,0.033813477,-0.1329956,0.051818848
1735322021806,2024-12-27T17:53:41.806Z,153697,0.027832031,-0.13415527,0.041931152
1735322021816,2024-12-27T17:53:41.816Z,153707,0.028747559,-0.116882324,0.036254883
1735322021825,2024-12-27T17:53:41.825Z,153716,0.018432617,-0.101745605,0.02532959
1735322021832,2024-12-27T17:53:41.832Z,153723,0.014892578,-0.10247803,0.027038574
1735322021839,2024-12-27T17:53:41.839Z,153730,0.016967773,-0.121276855,0.034240723
1735322021846,2024-12-27T17:53:41.846Z,153737,0.023620605,-0.1373291,0.037719727
1735322021849,2024-12-27T17:53:41.849Z,153740,0.014343262,-0.11175537,0.029846191
1735322021852,2024-12-27T17:53:41.852Z,153743,0.0021362305,-0.10046387,0.020385742
1735322021860,2024-12-27T17:53:41.860Z,153751,0.0021362305,-0.11645508,0.016540527
1735322021867,2024-12-27T17:53:41.867Z,153758,0.015197754,-0.14056396,0.016540527
1735322021871,2024-12-27T17:53:41.871Z,153762,0.025817871,-0.13665771,0.028564453
1735322021879,2024-12-27T17:53:41.879Z,153770,0.015014648,-0.11810303,0.012268066
1735322021886,2024-12-27T17:53:41.886Z,153777,0.012207031,-0.13970947,0.015380859
1735322021893,2024-12-27T17:53:41.893Z,153784,0.020141602,-0.1296997,0.024719238
1735322021906,2024-12-27T17:53:41.906Z,153797,0.026306152,-0.10461426,0.039001465
1735322021914,2024-12-27T17:53:41.914Z,153805,0.013244629,-0.08526611,0.037719727
1735322021921,2024-12-27T17:53:41.921Z,153812,-0.0021972656,-0.0869751,0.03125
1735322021928,2024-12-27T17:53:41.928Z,153819,0.002746582,-0.11224365,0.02331543
1735322021936,2024-12-27T17:53:41.936Z,153827,0.0053100586,-0.13739014,0.014953613
1735322021943,2024-12-27T17:53:41.943Z,153834,0.0015258789,-0.13909912,0.01965332
1735322021996,2024-12-27T17:53:41.996Z,153887,0.0033569336,-0.12689209,0.026550293
1735322022002,2024-12-27T17:53:42.002Z,153893,0.0068969727,-0.12384033,0.028198242
1735322022047,2024-12-27T17:53:42.047Z,153938,0.0025634766,-0.12731934,0.033996582
1735322022058,2024-12-27T17:53:42.058Z,153949,-0.0037231445,-0.1272583,0.026611328
1735322022069,2024-12-27T17:53:42.069Z,153960,-0.0017089844,-0.13067627,0.016723633
1735322022079,2024-12-27T17:53:42.079Z,153970,-8.544922E-4,-0.1362915,0.010437012
1735322022091,2024-12-27T17:53:42.091Z,153982,-0.0032958984,-0.13183594,0.010620117
1735322022101,2024-12-27T17:53:42.101Z,153992,0.005126953,-0.1262207,0.0154418945
1735322022112,2024-12-27T17:53:42.112Z,154003,0.023620605,-0.12005615,0.02935791
1735322022120,2024-12-27T17:53:42.120Z,154011,0.024780273,-0.10424805,0.0345459
1735322022127,2024-12-27T17:53:42.127Z,154018,0.018798828,-0.098083496,0.026428223
1735322022134,2024-12-27T17:53:42.134Z,154025,0.014587402,-0.1105957,0.020080566
1735322022138,2024-12-27T17:53:42.138Z,154029,-0.007019043,-0.12908936,0.009277344
1735322022145,2024-12-27T17:53:42.145Z,154036,0.0013427734,-0.11505127,0.01940918
1735322022149,2024-12-27T17:53:42.149Z,154040,0.0013427734,-0.11785889,0.020019531
1735322022176,2024-12-27T17:53:42.176Z,154067,0.0026855469,-0.1317749,0.014587402
1735322022183,2024-12-27T17:53:42.183Z,154074,-0.0051879883,-0.13293457,0.010192871
1735322022189,2024-12-27T17:53:42.189Z,154080,-0.0115356445,-0.12414551,0.006652832
1735322022197,2024-12-27T17:53:42.197Z,154088,-0.004211426,-0.11407471,0.01184082
1735322022204,2024-12-27T17:53:42.204Z,154095,0.0064697266,-0.10949707,0.020751953
1735322022211,2024-12-27T17:53:42.211Z,154102,0.0052490234,-0.11413574,0.0234375
1735322022224,2024-12-27T17:53:42.224Z,154115,0.0056762695,-0.12805176,0.02331543
1735322022271,2024-12-27T17:53:42.271Z,154162,0.0036621094,-0.14294434,0.016906738
1735322022279,2024-12-27T17:53:42.279Z,154170,-0.0018310547,-0.1484375,0.0026855469
1735322022289,2024-12-27T17:53:42.289Z,154180,-0.0026245117,-0.14349365,0.0012207031
1735322022296,2024-12-27T17:53:42.296Z,154187,3.0517578E-4,-0.13110352,0.010192871
1735322022304,2024-12-27T17:53:42.304Z,154195,0.0051879883,-0.12237549,0.015808105
1735322022307,2024-12-27T17:53:42.307Z,154198,0.011230469,-0.12182617,0.020385742
1735322022406,2024-12-27T17:53:42.406Z,154297,0.010070801,-0.12432861,0.01953125
1735322022414,2024-12-27T17:53:42.414Z,154305,0.0107421875,-0.13110352,0.020263672
1735322022451,2024-12-27T17:53:42.451Z,154342,0.0048217773,-0.13824463,0.021362305
1735322022459,2024-12-27T17:53:42.459Z,154350,-0.00793457,-0.1375122,0.015258789
1735322022467,2024-12-27T17:53:42.467Z,154358,-0.010070801,-0.12860107,0.007507324
1735322022473,2024-12-27T17:53:42.473Z,154364,-0.006225586,-0.12109375,0.010437012
1735322022477,2024-12-27T17:53:42.477Z,154368,6.713867E-4,-0.12194824,0.017944336
1735322022485,2024-12-27T17:53:42.485Z,154376,0.00793457,-0.12194824,0.018127441
1735322022496,2024-12-27T17:53:42.496Z,154387,0.012145996,-0.115234375,0.016540527
1735322022503,2024-12-27T17:53:42.503Z,154394,0.006591797,-0.10797119,0.013549805
1735322022512,2024-12-27T17:53:42.512Z,154403,-0.0060424805,-0.10974121,0.0041503906
1735322022519,2024-12-27T17:53:42.519Z,154410,0.0037231445,-0.12097168,0.0052490234
1735322022525,2024-12-27T17:53:42.525Z,154416,-0.014465332,-0.12164307,0.0063476562
1735322022539,2024-12-27T17:53:42.539Z,154430,-0.004638672,-0.13079834,0.00970459
1735322022550,2024-12-27T17:53:42.550Z,154441,-5.493164E-4,-0.12109375,0.015258789
1735322022559,2024-12-27T17:53:42.559Z,154450,0.0020141602,-0.1281128,0.0037841797
1735322022566,2024-12-27T17:53:42.566Z,154457,-0.0033569336,-0.12945557,0.003540039
1735322022574,2024-12-27T17:53:42.574Z,154465,-0.005859375,-0.12567139,0.012023926
1735322022582,2024-12-27T17:53:42.582Z,154473,-0.010131836,-0.122558594,0.016052246
1735322022590,2024-12-27T17:53:42.590Z,154481,-0.010803223,-0.11651611,0.014343262
1735322022598,2024-12-27T17:53:42.598Z,154489,-6.713867E-4,-0.11193848,0.0053710938
1735322022607,2024-12-27T17:53:42.607Z,154498,0.007873535,-0.11437988,0.0024414062
1735322022615,2024-12-27T17:53:42.615Z,154506,-1.8310547E-4,-0.12219238,0.008728027
1735322022623,2024-12-27T17:53:42.623Z,154514,-0.0032958984,-0.12713623,5.493164E-4
1735322022632,2024-12-27T17:53:42.632Z,154523,-0.0040893555,-0.11608887,-3.6621094E-4
1735322022640,2024-12-27T17:53:42.640Z,154531,-0.0045776367,-0.105895996,0.0015258789
1735322022648,2024-12-27T17:53:42.648Z,154539,-6.1035156E-4,-0.109558105,0.0
1735322022657,2024-12-27T17:53:42.657Z,154548,-0.0052490234,-0.111328125,0.0044555664
1735322022665,2024-12-27T17:53:42.665Z,154556,0.0045776367,-0.11437988,0.0031738281
1735322022673,2024-12-27T17:53:42.673Z,154564,0.0040893555,-0.11682129,-0.003479004
1735322022682,2024-12-27T17:53:42.682Z,154573,0.0,-0.11785889,-0.0010375977
1735322022688,2024-12-27T17:53:42.688Z,154579,0.0037231445,-0.113586426,0.0045166016
1735322022694,2024-12-27T17:53:42.694Z,154585,-0.0057373047,-0.112976074,0.009277344
1735322022701,2024-12-27T17:53:42.701Z,154592,-0.0078125,-0.12634277,0.0076293945
1735322022711,2024-12-27T17:53:42.711Z,154602,-0.008483887,-0.13214111,0.0010986328
1735322022718,2024-12-27T17:53:42.718Z,154609,-0.012634277,-0.12902832,0.0040893555
1735322022730,2024-12-27T17:53:42.730Z,154621,-0.011108398,-0.13232422,0.004699707
1735322022738,2024-12-27T17:53:42.738Z,154629,-0.011169434,-0.13726807,0.007019043
1735322022746,2024-12-27T17:53:42.746Z,154637,-0.009216309,-0.13391113,0.010559082
1735322022766,2024-12-27T17:53:42.766Z,154657,-0.0031738281,-0.12890625,0.009277344
1735322022773,2024-12-27T17:53:42.773Z,154664,-0.0031738281,-0.12719727,0.013244629
1735322022780,2024-12-27T17:53:42.780Z,154671,-0.003479004,-0.12176514,0.015258789
1735322022789,2024-12-27T17:53:42.789Z,154680,2.4414062E-4,-0.1138916,0.009521484
1735322022798,2024-12-27T17:53:42.798Z,154689,0.010559082,-0.118896484,0.0060424805
1735322022805,2024-12-27T17:53:42.805Z,154696,0.0211792,-0.12426758,0.006713867
1735322022813,2024-12-27T17:53:42.813Z,154704,0.014465332,-0.109802246,0.008544922
1735322022820,2024-12-27T17:53:42.820Z,154711,0.008728027,-0.09625244,0.008972168
1735322022826,2024-12-27T17:53:42.826Z,154717,0.010253906,-0.10241699,0.0021362305
1735322022833,2024-12-27T17:53:42.833Z,154724,0.010559082,-0.11804199,-0.0028686523
1735322022839,2024-12-27T17:53:42.839Z,154730,0.0015258789,-0.128479,-0.010009766
1735322022853,2024-12-27T17:53:42.853Z,154744,-0.0030517578,-0.12756348,-0.008666992
1735322022859,2024-12-27T17:53:42.859Z,154750,0.0034179688,-0.121520996,6.1035156E-5
1735322022865,2024-12-27T17:53:42.865Z,154756,-0.008117676,-0.11584473,-0.0017089844
1735322022872,2024-12-27T17:53:42.872Z,154763,-0.014160156,-0.12097168,-0.0043945312
1735322022896,2024-12-27T17:53:42.896Z,154787,-0.009033203,-0.13012695,-0.00793457
1735322022902,2024-12-27T17:53:42.902Z,154793,-0.009338379,-0.12957764,-0.0031738281
1735322022909,2024-12-27T17:53:42.909Z,154800,-0.0087890625,-0.12432861,0.008422852
1735322022916,2024-12-27T17:53:42.916Z,154807,-0.0026855469,-0.11553955,0.014892578
1735322023030,2024-12-27T17:53:43.030Z,154921,0.0048217773,-0.1081543,0.012145996
1735322023038,2024-12-27T17:53:43.038Z,154929,0.012756348,-0.108947754,0.009277344
1735322023046,2024-12-27T17:53:43.046Z,154937,0.014282227,-0.110839844,0.0078125
1735322023055,2024-12-27T17:53:43.055Z,154946,0.009033203,-0.11517334,0.009155273
1735322023064,2024-12-27T17:53:43.064Z,154955,0.008972168,-0.12335205,0.014526367
1735322023082,2024-12-27T17:53:43.082Z,154973,0.014587402,-0.12860107,0.011962891
1735322023095,2024-12-27T17:53:43.095Z,154986,0.020446777,-0.12805176,0.009399414
1735322023104,2024-12-27T17:53:43.104Z,154995,0.011413574,-0.118652344,0.0043945312
1735322023111,2024-12-27T17:53:43.111Z,155002,0.0043945312,-0.11419678,0.0037841797
1735322023119,2024-12-27T17:53:43.119Z,155010,0.010131836,-0.117126465,0.0056762695
1735322023128,2024-12-27T17:53:43.128Z,155019,0.007385254,-0.11773682,0.0010986328
1735322023139,2024-12-27T17:53:43.139Z,155030,-0.0012817383,-0.13598633,0.0072631836
1735322023149,2024-12-27T17:53:43.149Z,155040,0.0013427734,-0.12896729,0.0056762695
1735322023156,2024-12-27T17:53:43.156Z,155047,-0.0036010742,-0.11437988,0.0020751953
1735322023163,2024-12-27T17:53:43.163Z,155054,-0.0041503906,-0.107177734,0.001159668
1735322023170,2024-12-27T17:53:43.170Z,155061,-9.765625E-4,-0.10858154,0.006164551
1735322023176,2024-12-27T17:53:43.176Z,155067,0.0028686523,-0.119140625,0.011657715
1735322023182,2024-12-27T17:53:43.182Z,155073,0.009033203,-0.12963867,0.018249512
1735322023189,2024-12-27T17:53:43.189Z,155080,0.0087890625,-0.13043213,0.015991211
1735322023196,2024-12-27T17:53:43.196Z,155087,0.011779785,-0.12823486,0.01574707
1735322023206,2024-12-27T17:53:43.206Z,155097,0.00970459,-0.11883545,0.0095825195
1735322023213,2024-12-27T17:53:43.213Z,155104,0.008666992,-0.109680176,0.0014038086
1735322023256,2024-12-27T17:53:43.256Z,155147,0.01171875,-0.104003906,0.0040283203
1735322023262,2024-12-27T17:53:43.262Z,155153,0.0119018555,-0.10272217,0.009094238
1735322023305,2024-12-27T17:53:43.305Z,155196,0.013671875,-0.11029053,0.009094238
1735322023314,2024-12-27T17:53:43.314Z,155205,0.014465332,-0.11755371,0.0040893555
1735322023323,2024-12-27T17:53:43.323Z,155214,0.016662598,-0.12261963,0.0071411133
1735322023330,2024-12-27T17:53:43.330Z,155221,0.016052246,-0.120788574,0.0040283203
1735322023337,2024-12-27T17:53:43.337Z,155228,0.011230469,-0.115478516,-0.0030517578
1735322023345,2024-12-27T17:53:43.345Z,155236,0.005126953,-0.109313965,-0.004211426
1735322023351,2024-12-27T17:53:43.351Z,155242,-0.0015869141,-0.10723877,-0.009155273
1735322023391,2024-12-27T17:53:43.391Z,155282,-0.0018920898,-0.12042236,-0.0045776367
1735322023400,2024-12-27T17:53:43.400Z,155291,0.001953125,-0.13446045,0.0022583008
1735322023406,2024-12-27T17:53:43.406Z,155297,0.0041503906,-0.13897705,0.002380371
1735322023410,2024-12-27T17:53:43.410Z,155301,0.006652832,-0.13604736,0.0031738281
1735322023418,2024-12-27T17:53:43.418Z,155309,0.0053100586,-0.12988281,9.1552734E-4
1735322023421,2024-12-27T17:53:43.421Z,155312,0.016357422,-0.1038208,0.015014648
1735322023428,2024-12-27T17:53:43.428Z,155319,0.021606445,-0.10681152,0.014526367
1735322023440,2024-12-27T17:53:43.440Z,155331,0.027893066,-0.11187744,0.0138549805
1735322023446,2024-12-27T17:53:43.446Z,155337,0.028930664,-0.11608887,0.014160156
1735322023454,2024-12-27T17:53:43.454Z,155345,0.022827148,-0.11657715,0.013916016
1735322023460,2024-12-27T17:53:43.460Z,155351,0.023071289,-0.11669922,0.016723633
1735322023467,2024-12-27T17:53:43.467Z,155358,0.020446777,-0.115112305,0.0134887695
1735322023481,2024-12-27T17:53:43.481Z,155372,0.01184082,-0.11694336,0.004699707
1735322023485,2024-12-27T17:53:43.485Z,155376,-8.544922E-4,-0.1282959,0.007385254
1735322023492,2024-12-27T17:53:43.492Z,155383,-0.0010375977,-0.13421631,0.00982666
1735322023499,2024-12-27T17:53:43.499Z,155390,0.004211426,-0.1328125,0.012756348
1735322023506,2024-12-27T17:53:43.506Z,155397,0.0053100586,-0.12780762,0.011291504
1735322023515,2024-12-27T17:53:43.515Z,155406,0.0031738281,-0.12475586,0.012756348
1735322023525,2024-12-27T17:53:43.525Z,155416,0.006591797,-0.1237793,0.015075684
1735322023532,2024-12-27T17:53:43.532Z,155423,0.018554688,-0.12445068,0.02130127
1735322023541,2024-12-27T17:53:43.541Z,155432,0.025512695,-0.11785889,0.023620605
1735322023549,2024-12-27T17:53:43.549Z,155440,0.023742676,-0.10925293,0.022521973
1735322023556,2024-12-27T17:53:43.556Z,155447,0.024658203,-0.10455322,0.023010254
1735322023563,2024-12-27T17:53:43.563Z,155454,0.022644043,-0.10888672,0.021057129
1735322023574,2024-12-27T17:53:43.574Z,155465,0.02142334,-0.12005615,0.02319336
1735322023581,2024-12-27T17:53:43.581Z,155472,0.023071289,-0.12670898,0.02142334
1735322023662,2024-12-27T17:53:43.662Z,155553,0.023864746,-0.12719727,0.017456055
1735322023671,2024-12-27T17:53:43.671Z,155562,0.018249512,-0.122680664,0.013671875
1735322023681,2024-12-27T17:53:43.681Z,155572,0.012573242,-0.12030029,0.009216309
1735322023691,2024-12-27T17:53:43.691Z,155582,0.01171875,-0.122558594,0.009155273
1735322023699,2024-12-27T17:53:43.699Z,155590,0.013305664,-0.12579346,0.006958008
1735322023707,2024-12-27T17:53:43.707Z,155598,0.015930176,-0.1274414,0.0056762695
1735322023717,2024-12-27T17:53:43.717Z,155608,0.019042969,-0.12658691,0.010009766
1735322023727,2024-12-27T17:53:43.727Z,155618,0.020874023,-0.11871338,0.012634277
1735322023738,2024-12-27T17:53:43.738Z,155629,0.01763916,-0.1083374,0.009277344
1735322023746,2024-12-27T17:53:43.746Z,155637,0.01727295,-0.10723877,0.008911133
1735322023753,2024-12-27T17:53:43.753Z,155644,0.021057129,-0.11364746,0.007873535
1735322023761,2024-12-27T17:53:43.761Z,155652,0.022644043,-0.117248535,0.008605957
1735322023764,2024-12-27T17:53:43.764Z,155655,0.021484375,-0.11047363,0.0126953125
1735322023772,2024-12-27T17:53:43.772Z,155663,0.02166748,-0.10913086,0.01361084
1735322023778,2024-12-27T17:53:43.778Z,155669,0.01928711,-0.11193848,0.016052246
1735322023785,2024-12-27T17:53:43.785Z,155676,0.022949219,-0.115356445,0.012268066
1735322023791,2024-12-27T17:53:43.791Z,155682,0.023864746,-0.11785889,0.011291504
1735322023798,2024-12-27T17:53:43.798Z,155689,0.018859863,-0.117370605,0.012512207
1735322023805,2024-12-27T17:53:43.805Z,155696,0.014160156,-0.115356445,0.011230469
1735322023813,2024-12-27T17:53:43.813Z,155704,0.013427734,-0.11541748,0.010437012
1735322023821,2024-12-27T17:53:43.821Z,155712,0.014709473,-0.115356445,0.008483887
1735322023827,2024-12-27T17:53:43.827Z,155718,0.014160156,-0.11383057,0.009033203
1735322023833,2024-12-27T17:53:43.833Z,155724,0.014526367,-0.11431885,0.010192871
1735322023844,2024-12-27T17:53:43.844Z,155735,0.016479492,-0.117370605,0.010314941
1735322023851,2024-12-27T17:53:43.851Z,155742,0.020080566,-0.12054443,0.008483887
1735322023857,2024-12-27T17:53:43.857Z,155748,0.02355957,-0.12158203,0.008544922
1735322023863,2024-12-27T17:53:43.863Z,155754,0.025634766,-0.12072754,0.00970459
1735322023871,2024-12-27T17:53:43.871Z,155762,0.027832031,-0.117492676,0.01184082
1735322023889,2024-12-27T17:53:43.889Z,155780,0.029174805,-0.11566162,0.012451172
1735322023897,2024-12-27T17:53:43.897Z,155788,0.0256958,-0.11669922,0.012207031
1735322023904,2024-12-27T17:53:43.904Z,155795,0.025939941,-0.12011719,0.011108398
1735322023910,2024-12-27T17:53:43.910Z,155801,0.030334473,-0.12133789,0.0154418945
1735322023920,2024-12-27T17:53:43.920Z,155811,0.02734375,-0.119628906,0.017089844
1735322023929,2024-12-27T17:53:43.929Z,155820,0.02331543,-0.11773682,0.018005371
1735322023937,2024-12-27T17:53:43.937Z,155828,0.023803711,-0.11785889,0.016540527
1735322023942,2024-12-27T17:53:43.942Z,155833,0.026428223,-0.11871338,0.013977051
1735322023949,2024-12-27T17:53:43.949Z,155840,0.025512695,-0.11804199,0.014770508
1735322023954,2024-12-27T17:53:43.954Z,155845,0.019836426,-0.1171875,0.013366699
1735322023960,2024-12-27T17:53:43.960Z,155851,0.01586914,-0.11706543,0.011047363
1735322023974,2024-12-27T17:53:43.974Z,155865,0.011657715,-0.11804199,0.008544922
1735322024024,2024-12-27T17:53:44.024Z,155915,0.008117676,-0.1217041,0.0068359375
1735322024033,2024-12-27T17:53:44.033Z,155924,0.00982666,-0.12628174,0.00390625
1735322024040,2024-12-27T17:53:44.040Z,155931,0.014404297,-0.12573242,0.0032348633
1735322024047,2024-12-27T17:53:44.047Z,155938,0.017028809,-0.12036133,0.002319336
1735322024054,2024-12-27T17:53:44.054Z,155945,0.022766113,-0.11694336,0.0040893555
1735322024064,2024-12-27T17:53:44.064Z,155955,0.03149414,-0.116760254,0.009521484
1735322024071,2024-12-27T17:53:44.071Z,155962,0.03564453,-0.118774414,0.0138549805
1735322024077,2024-12-27T17:53:44.077Z,155968,0.033081055,-0.12023926,0.017822266
1735322024083,2024-12-27T17:53:44.083Z,155974,0.02960205,-0.11987305,0.015014648
1735322024094,2024-12-27T17:53:44.094Z,155985,0.03253174,-0.11987305,0.015014648
1735322024102,2024-12-27T17:53:44.102Z,155993,0.026184082,-0.11828613,0.010009766
1735322024113,2024-12-27T17:53:44.113Z,156004,0.01574707,-0.11779785,0.006958008
1735322024118,2024-12-27T17:53:44.118Z,156009,0.014709473,-0.11987305,0.01171875
1735322024124,2024-12-27T17:53:44.124Z,156015,0.0211792,-0.123413086,0.018066406
1735322024131,2024-12-27T17:53:44.131Z,156022,0.026428223,-0.124572754,0.023803711
1735322024137,2024-12-27T17:53:44.137Z,156028,0.026855469,-0.122924805,0.022766113
1735322024155,2024-12-27T17:53:44.155Z,156046,0.022705078,-0.12054443,0.018066406
1735322024164,2024-12-27T17:53:44.164Z,156055,0.019714355,-0.11804199,0.014892578
1735322024172,2024-12-27T17:53:44.172Z,156063,0.018127441,-0.11633301,0.016052246
1735322024178,2024-12-27T17:53:44.178Z,156069,0.018493652,-0.117370605,0.018310547
1735322024184,2024-12-27T17:53:44.184Z,156075,0.023620605,-0.11810303,0.023376465
1735322024192,2024-12-27T17:53:44.192Z,156083,0.026367188,-0.117126465,0.028930664
1735322024203,2024-12-27T17:53:44.203Z,156094,0.024047852,-0.11505127,0.034362793
1735322024212,2024-12-27T17:53:44.212Z,156103,0.024719238,-0.113098145,0.03161621
1735322024220,2024-12-27T17:53:44.220Z,156111,0.022583008,-0.107788086,0.0256958
1735322024228,2024-12-27T17:53:44.228Z,156119,0.016967773,-0.10284424,0.021240234
1735322024245,2024-12-27T17:53:44.245Z,156136,0.01361084,-0.10394287,0.022583008
1735322024381,2024-12-27T17:53:44.381Z,156272,0.014709473,-0.10736084,0.029296875
1735322024389,2024-12-27T17:53:44.389Z,156280,0.0211792,-0.10876465,0.032409668
1735322024396,2024-12-27T17:53:44.396Z,156287,0.024658203,-0.11291504,0.032836914
1735322024404,2024-12-27T17:53:44.404Z,156295,0.020751953,-0.11639404,0.034057617
1735322024412,2024-12-27T17:53:44.412Z,156303,0.016784668,-0.114868164,0.026062012
1735322024420,2024-12-27T17:53:44.420Z,156311,0.012756348,-0.1126709,0.012878418
1735322024431,2024-12-27T17:53:44.431Z,156322,0.010925293,-0.11151123,0.009277344
1735322024440,2024-12-27T17:53:44.440Z,156331,0.011108398,-0.11218262,0.006591797
1735322024447,2024-12-27T17:53:44.447Z,156338,0.014709473,-0.112976074,0.003479004
1735322024456,2024-12-27T17:53:44.456Z,156347,0.018005371,-0.115722656,0.0010375977
1735322024463,2024-12-27T17:53:44.463Z,156354,0.016723633,-0.11804199,-0.0013427734
1735322024471,2024-12-27T17:53:44.471Z,156362,0.021362305,-0.099243164,0.012817383
1735322024477,2024-12-27T17:53:44.477Z,156368,0.02319336,-0.101135254,0.0211792
1735322024484,2024-12-27T17:53:44.484Z,156375,0.022949219,-0.10211182,0.01763916
1735322024494,2024-12-27T17:53:44.494Z,156385,0.01586914,-0.09869385,0.016906738
1735322024502,2024-12-27T17:53:44.502Z,156393,0.0073242188,-0.09631348,0.020385742
1735322024508,2024-12-27T17:53:44.508Z,156399,0.009887695,-0.095947266,0.025146484
1735322024519,2024-12-27T17:53:44.519Z,156410,0.01953125,-0.10003662,0.026306152
1735322024526,2024-12-27T17:53:44.526Z,156417,0.025024414,-0.10498047,0.026245117
1735322024536,2024-12-27T17:53:44.536Z,156427,0.020568848,-0.107299805,0.024658203
1735322024544,2024-12-27T17:53:44.544Z,156435,0.015930176,-0.111328125,0.026000977
1735322024553,2024-12-27T17:53:44.553Z,156444,0.011047363,-0.11218262,0.022521973
1735322024562,2024-12-27T17:53:44.562Z,156453,0.004272461,-0.11029053,0.012329102
1735322024568,2024-12-27T17:53:44.568Z,156459,0.0010375977,-0.10845947,0.010925293
1735322024609,2024-12-27T17:53:44.609Z,156500,0.0026855469,-0.10614014,0.013671875
1735322024617,2024-12-27T17:53:44.617Z,156508,0.0049438477,-0.10144043,0.009277344
1735322024624,2024-12-27T17:53:44.624Z,156515,0.011169434,-0.099365234,-9.765625E-4
1735322024630,2024-12-27T17:53:44.630Z,156521,0.015625,-0.10437012,-0.005432129
1735322024637,2024-12-27T17:53:44.637Z,156528,0.0115356445,-0.111083984,-0.0068969727
1735322024657,2024-12-27T17:53:44.657Z,156548,0.0115356445,-0.114990234,-0.008605957
1735322024665,2024-12-27T17:53:44.665Z,156556,0.022216797,-0.11828613,-0.0079956055
1735322024741,2024-12-27T17:53:44.741Z,156632,0.024902344,-0.11657715,-0.0071411133
1735322024748,2024-12-27T17:53:44.748Z,156639,0.018981934,-0.11035156,-0.010375977
1735322024756,2024-12-27T17:53:44.756Z,156647,0.0138549805,-0.10443115,-0.01574707
1735322024763,2024-12-27T17:53:44.763Z,156654,0.010192871,-0.10205078,-0.016906738
1735322024770,2024-12-27T17:53:44.770Z,156661,0.010620117,-0.10522461,-0.010314941
1735322024778,2024-12-27T17:53:44.778Z,156669,0.013916016,-0.112854004,-0.004760742
1735322024791,2024-12-27T17:53:44.791Z,156682,0.018188477,-0.11907959,-0.0041503906
1735322024798,2024-12-27T17:53:44.798Z,156689,0.019470215,-0.11645508,-0.007873535
1735322024806,2024-12-27T17:53:44.806Z,156697,0.022094727,-0.11004639,-0.010559082
1735322024813,2024-12-27T17:53:44.813Z,156704,0.017333984,-0.10498047,-0.0073242188
1735322024821,2024-12-27T17:53:44.821Z,156712,0.00793457,-0.10467529,-0.0045776367
1735322024830,2024-12-27T17:53:44.830Z,156721,0.002746582,-0.1126709,-0.0012207031
1735322024833,2024-12-27T17:53:44.833Z,156724,-3.6621094E-4,-0.107421875,0.0045166016
1735322024840,2024-12-27T17:53:44.840Z,156731,0.005126953,-0.11834717,0.0095825195
1735322024845,2024-12-27T17:53:44.845Z,156736,0.010192871,-0.1251831,0.0115356445
1735322024852,2024-12-27T17:53:44.852Z,156743,0.010620117,-0.12335205,0.0107421875
1735322024859,2024-12-27T17:53:44.859Z,156750,0.008422852,-0.11364746,0.005493164
1735322024874,2024-12-27T17:53:44.874Z,156765,0.0061035156,-0.10461426,0.0
1735322024880,2024-12-27T17:53:44.880Z,156771,0.008117676,-0.111694336,0.0059814453
1735322024889,2024-12-27T17:53:44.889Z,156780,0.013916016,-0.13519287,0.0053100586
1735322024896,2024-12-27T17:53:44.896Z,156787,0.0079956055,-0.1461792,0.002319336
1735322024903,2024-12-27T17:53:44.903Z,156794,-0.0018920898,-0.13824463,-0.0045776367
1735322024909,2024-12-27T17:53:44.909Z,156800,0.005554199,-0.12536621,-0.0025024414
1735322024970,2024-12-27T17:53:44.970Z,156861,0.011291504,-0.11853027,0.0053100586
1735322024978,2024-12-27T17:53:44.978Z,156869,0.010498047,-0.11956787,9.765625E-4
1735322024986,2024-12-27T17:53:44.986Z,156877,0.0134887695,-0.12487793,-4.272461E-4
1735322024994,2024-12-27T17:53:44.994Z,156885,0.012512207,-0.12628174,0.0010375977
1735322025002,2024-12-27T17:53:45.002Z,156893,0.010681152,-0.12921143,0.001159668
1735322025057,2024-12-27T17:53:45.057Z,156948,0.0051879883,-0.13323975,0.0015258789
1735322025065,2024-12-27T17:53:45.065Z,156956,-0.0076293945,-0.13214111,-0.0048828125
1735322025073,2024-12-27T17:53:45.073Z,156964,-0.0071411133,-0.13079834,-0.009643555
1735322025080,2024-12-27T17:53:45.080Z,156971,0.0034179688,-0.12646484,-0.0010986328
1735322025089,2024-12-27T17:53:45.089Z,156980,0.0064086914,-0.12017822,0.009155273
1735322025098,2024-12-27T17:53:45.098Z,156989,0.00592041,-0.11468506,0.0099487305
1735322025152,2024-12-27T17:53:45.152Z,157043,0.0040283203,-0.110839844,0.0056152344
1735322025193,2024-12-27T17:53:45.193Z,157084,-0.006958008,-0.10876465,0.00390625
1735322025206,2024-12-27T17:53:45.206Z,157097,-0.005126953,-0.1182251,0.013183594
1735322025219,2024-12-27T17:53:45.219Z,157110,-0.0045166016,-0.13061523,0.014892578
1735322025227,2024-12-27T17:53:45.227Z,157118,-0.010253906,-0.13476562,0.013366699
1735322025235,2024-12-27T17:53:45.235Z,157126,-0.004638672,-0.12982178,0.010070801
1735322025239,2024-12-27T17:53:45.239Z,157130,0.010498047,-0.13708496,0.022583008
1735322025327,2024-12-27T17:53:45.327Z,157218,0.013549805,-0.14257812,0.018310547
1735322025332,2024-12-27T17:53:45.332Z,157223,0.01373291,-0.12585449,0.012390137
1735322025340,2024-12-27T17:53:45.340Z,157231,0.0036621094,-0.10882568,0.0064086914
1735322025349,2024-12-27T17:53:45.349Z,157240,-0.006225586,-0.11230469,0.0021362305
1735322025357,2024-12-27T17:53:45.357Z,157248,-6.1035156E-4,-0.13061523,4.8828125E-4
1735322025359,2024-12-27T17:53:45.359Z,157250,-0.0065307617,-0.13586426,0.0146484375
1735322025508,2024-12-27T17:53:45.508Z,157399,-0.005004883,-0.1317749,0.008605957
1735322025515,2024-12-27T17:53:45.515Z,157406,0.014709473,-0.10650635,0.01574707
1735322025527,2024-12-27T17:53:45.527Z,157418,0.0059814453,-0.118896484,0.014892578
1735322025537,2024-12-27T17:53:45.537Z,157428,0.0071411133,-0.13659668,0.021057129
1735322025554,2024-12-27T17:53:45.554Z,157445,0.012207031,-0.12780762,0.020202637
1735322025563,2024-12-27T17:53:45.563Z,157454,0.0056152344,-0.10064697,0.0154418945
1735322025572,2024-12-27T17:53:45.572Z,157463,0.012512207,-0.097717285,0.0234375
1735322025575,2024-12-27T17:53:45.575Z,157466,0.013244629,-0.12921143,0.013000488
1735322025582,2024-12-27T17:53:45.582Z,157473,0.020202637,-0.101623535,0.012634277
1735322025589,2024-12-27T17:53:45.589Z,157480,0.032714844,-0.09466553,0.020141602
1735322025642,2024-12-27T17:53:45.642Z,157533,0.03540039,-0.09442139,0.016235352
1735322025649,2024-12-27T17:53:45.649Z,157540,0.014160156,-0.107299805,0.024047852
1735322025657,2024-12-27T17:53:45.657Z,157548,-0.015625,-0.14276123,0.012329102
1735322025661,2024-12-27T17:53:45.661Z,157552,0.017822266,-0.12359619,0.010986328
1735322025669,2024-12-27T17:53:45.669Z,157560,0.016113281,-0.117370605,0.013000488
1735322025778,2024-12-27T17:53:45.778Z,157669,0.013366699,-0.1194458,0.00982666
1735322025786,2024-12-27T17:53:45.786Z,157677,0.02154541,-0.1340332,0.015136719
1735322025790,2024-12-27T17:53:45.790Z,157681,0.020507812,-0.13922119,0.028625488
1735322025796,2024-12-27T17:53:45.796Z,157687,0.023620605,-0.13409424,0.029174805
1735322025812,2024-12-27T17:53:45.812Z,157703,0.02960205,-0.12310791,0.032104492
1735322025822,2024-12-27T17:53:45.822Z,157713,0.022155762,-0.10510254,0.025146484
1735322025831,2024-12-27T17:53:45.831Z,157722,0.023132324,-0.10144043,0.020812988
1735322025838,2024-12-27T17:53:45.838Z,157729,0.02947998,-0.10748291,0.03265381
1735322025841,2024-12-27T17:53:45.841Z,157732,0.0028686523,-0.13104248,0.026306152
1735322025847,2024-12-27T17:53:45.847Z,157738,0.019836426,-0.12036133,0.032165527
1735322025854,2024-12-27T17:53:45.854Z,157745,0.03552246,-0.11230469,0.04156494
1735322025869,2024-12-27T17:53:45.869Z,157760,0.03967285,-0.11419678,0.04095459
1735322025875,2024-12-27T17:53:45.875Z,157766,0.041748047,-0.1204834,0.038391113
1735322025877,2024-12-27T17:53:45.877Z,157768,0.052246094,-0.11773682,0.059265137
1735322025911,2024-12-27T17:53:45.911Z,157802,0.038085938,-0.10498047,0.062438965
1735322025918,2024-12-27T17:53:45.918Z,157809,0.029785156,-0.111572266,0.051330566
1735322025925,2024-12-27T17:53:45.925Z,157816,0.030151367,-0.120788574,0.048583984
1735322025932,2024-12-27T17:53:45.932Z,157823,0.03515625,-0.1227417,0.051330566
1735322025939,2024-12-27T17:53:45.939Z,157830,0.044189453,-0.119384766,0.06335449
1735322025946,2024-12-27T17:53:45.946Z,157837,0.056396484,-0.110839844,0.066101074
1735322026050,2024-12-27T17:53:46.050Z,157941,0.051757812,-0.101623535,0.06237793
1735322026057,2024-12-27T17:53:46.057Z,157948,0.0513916,-0.1060791,0.060302734
1735322026065,2024-12-27T17:53:46.065Z,157956,0.037109375,-0.109436035,0.05633545
1735322026072,2024-12-27T17:53:46.072Z,157963,0.025878906,-0.12121582,0.056396484
1735322026079,2024-12-27T17:53:46.079Z,157970,0.03729248,-0.13677979,0.055847168
1735322026090,2024-12-27T17:53:46.090Z,157981,0.04119873,-0.1317749,0.057434082
1735322026093,2024-12-27T17:53:46.093Z,157984,0.049316406,-0.12005615,0.055603027
1735322026101,2024-12-27T17:53:46.101Z,157992,0.050842285,-0.11236572,0.055480957
1735322026109,2024-12-27T17:53:46.109Z,158000,0.037963867,-0.113586426,0.050598145
1735322026116,2024-12-27T17:53:46.116Z,158007,0.039001465,-0.12133789,0.052001953
1735322026123,2024-12-27T17:53:46.123Z,158014,0.04711914,-0.12060547,0.049743652
1735322026134,2024-12-27T17:53:46.134Z,158025,0.057434082,-0.119140625,0.047180176
1735322026138,2024-12-27T17:53:46.138Z,158029,0.030761719,-0.11273193,0.05114746
1735322026144,2024-12-27T17:53:46.144Z,158035,0.04272461,-0.10266113,0.06652832
1735322026155,2024-12-27T17:53:46.155Z,158046,0.05114746,-0.09588623,0.060424805
1735322026168,2024-12-27T17:53:46.168Z,158059,0.04815674,-0.09051514,0.053100586
1735322026178,2024-12-27T17:53:46.178Z,158069,0.046142578,-0.09222412,0.04626465
1735322026184,2024-12-27T17:53:46.184Z,158075,0.037841797,-0.105651855,0.041931152
1735322026192,2024-12-27T17:53:46.192Z,158083,0.044799805,-0.11920166,0.04937744
1735322026197,2024-12-27T17:53:46.197Z,158088,0.039123535,-0.118774414,0.055358887
1735322026203,2024-12-27T17:53:46.203Z,158094,0.034484863,-0.117126465,0.04724121
1735322026210,2024-12-27T17:53:46.210Z,158101,0.037231445,-0.10473633,0.04498291
1735322026215,2024-12-27T17:53:46.215Z,158106,0.045043945,-0.08605957,0.049743652
1735322026228,2024-12-27T17:53:46.228Z,158119,0.03918457,-0.09442139,0.057250977
1735322026234,2024-12-27T17:53:46.234Z,158125,0.039978027,-0.121154785,0.058166504
1735322026269,2024-12-27T17:53:46.269Z,158160,0.036254883,-0.11450195,0.046936035
1735322026276,2024-12-27T17:53:46.276Z,158167,0.038513184,-0.099609375,0.03955078
1735322026282,2024-12-27T17:53:46.282Z,158173,0.048583984,-0.111328125,0.04736328
1735322026289,2024-12-27T17:53:46.289Z,158180,0.046447754,-0.11968994,0.06213379
1735322026295,2024-12-27T17:53:46.295Z,158186,0.038879395,-0.115356445,0.06213379
1735322026302,2024-12-27T17:53:46.302Z,158193,0.04534912,-0.1081543,0.06359863
1735322026319,2024-12-27T17:53:46.319Z,158210,0.04675293,-0.113708496,0.053710938
1735322026327,2024-12-27T17:53:46.327Z,158218,0.039855957,-0.113098145,0.052124023
1735322026360,2024-12-27T17:53:46.360Z,158251,0.033691406,-0.10491943,0.05444336
1735322026370,2024-12-27T17:53:46.370Z,158261,0.042663574,-0.105773926,0.05670166
1735322026377,2024-12-27T17:53:46.377Z,158268,0.048828125,-0.10736084,0.06335449
1735322026385,2024-12-27T17:53:46.385Z,158276,0.053955078,-0.111572266,0.06359863
1735322026393,2024-12-27T17:53:46.393Z,158284,0.0501709,-0.11767578,0.05517578
1735322026400,2024-12-27T17:53:46.400Z,158291,0.036376953,-0.117492676,0.050964355
1735322026412,2024-12-27T17:53:46.412Z,158303,0.030517578,-0.11047363,0.04815674
1735322026419,2024-12-27T17:53:46.419Z,158310,0.037231445,-0.109802246,0.042236328
1735322026426,2024-12-27T17:53:46.426Z,158317,0.041381836,-0.109313965,0.049194336
1735322026432,2024-12-27T17:53:46.432Z,158323,0.048217773,-0.114746094,0.05895996
1735322026438,2024-12-27T17:53:46.438Z,158329,0.048583984,-0.12915039,0.06286621
1735322026450,2024-12-27T17:53:46.450Z,158341,0.043273926,-0.1317749,0.052734375
1735322026501,2024-12-27T17:53:46.501Z,158392,0.03857422,-0.11785889,0.04901123
1735322026597,2024-12-27T17:53:46.597Z,158488,0.041503906,-0.10229492,0.053100586
1735322026614,2024-12-27T17:53:46.614Z,158505,0.039245605,-0.10101318,0.05255127
1735322026626,2024-12-27T17:53:46.626Z,158517,0.036071777,-0.113586426,0.059509277
1735322026633,2024-12-27T17:53:46.633Z,158524,0.029541016,-0.12414551,0.06616211
1735322026643,2024-12-27T17:53:46.643Z,158534,0.031066895,-0.13208008,0.059326172
1735322026652,2024-12-27T17:53:46.652Z,158543,0.03643799,-0.13342285,0.047302246
1735322026660,2024-12-27T17:53:46.660Z,158551,0.034606934,-0.120910645,0.045166016
1735322026668,2024-12-27T17:53:46.668Z,158559,0.023742676,-0.10662842,0.041015625
1735322026675,2024-12-27T17:53:46.675Z,158566,0.03704834,-0.105163574,0.048461914
1735322026687,2024-12-27T17:53:46.687Z,158578,0.049682617,-0.101745605,0.05328369
1735322026694,2024-12-27T17:53:46.694Z,158585,0.054382324,-0.10394287,0.058166504
1735322026697,2024-12-27T17:53:46.697Z,158588,0.049865723,-0.11779785,0.05633545
1735322026720,2024-12-27T17:53:46.720Z,158611,0.025024414,-0.121154785,0.039123535
1735322026725,2024-12-27T17:53:46.725Z,158616,0.021118164,-0.12310791,0.025817871
1735322026732,2024-12-27T17:53:46.732Z,158623,0.024169922,-0.11706543,0.031066895
1735322026739,2024-12-27T17:53:46.739Z,158630,0.028137207,-0.10241699,0.040161133
1735322026746,2024-12-27T17:53:46.746Z,158637,0.03967285,-0.103515625,0.04345703
1735322026752,2024-12-27T17:53:46.752Z,158643,0.045776367,-0.11114502,0.0513916
1735322026769,2024-12-27T17:53:46.769Z,158660,0.037902832,-0.113464355,0.046203613
1735322026777,2024-12-27T17:53:46.777Z,158668,0.03277588,-0.11401367,0.035095215
1735322026783,2024-12-27T17:53:46.783Z,158674,0.02130127,-0.11242676,0.026977539
1735322026790,2024-12-27T17:53:46.790Z,158681,0.010375977,-0.10949707,0.016906738
1735322026796,2024-12-27T17:53:46.796Z,158687,0.011230469,-0.10272217,0.01586914
1735322026809,2024-12-27T17:53:46.809Z,158700,0.018737793,-0.09857178,0.032592773
1735322026812,2024-12-27T17:53:46.812Z,158703,0.029541016,-0.11395264,0.056762695
1735322026819,2024-12-27T17:53:46.819Z,158710,0.026855469,-0.09649658,0.046447754
1735322026825,2024-12-27T17:53:46.825Z,158716,0.012878418,-0.09802246,0.035217285
1735322026858,2024-12-27T17:53:46.858Z,158749,-0.0064086914,-0.12524414,0.024169922
1735322026864,2024-12-27T17:53:46.864Z,158755,-0.0068359375,-0.16082764,0.024291992
1735322026871,2024-12-27T17:53:46.871Z,158762,0.008117676,-0.16705322,0.021362305
1735322026902,2024-12-27T17:53:46.902Z,158793,0.02520752,-0.1381836,0.030395508
1735322026908,2024-12-27T17:53:46.908Z,158799,0.024291992,-0.10070801,0.04272461
1735322026914,2024-12-27T17:53:46.914Z,158805,0.0079956055,-0.09039307,0.042785645
1735322026922,2024-12-27T17:53:46.922Z,158813,-4.272461E-4,-0.111572266,0.018615723
1735322026930,2024-12-27T17:53:46.930Z,158821,-0.0025024414,-0.14318848,-0.001953125
1735322026937,2024-12-27T17:53:46.937Z,158828,0.0025024414,-0.1539917,0.0026245117
1735322026949,2024-12-27T17:53:46.949Z,158840,0.009521484,-0.13647461,0.019104004
1735322026995,2024-12-27T17:53:46.995Z,158886,0.020935059,-0.11224365,0.039978027
1735322027005,2024-12-27T17:53:47.005Z,158896,0.02935791,-0.09484863,0.047729492
1735322027084,2024-12-27T17:53:47.084Z,158975,0.020202637,-0.08850098,0.026550293
1735322027099,2024-12-27T17:53:47.099Z,158990,0.00793457,-0.09692383,0.008300781
1735322027114,2024-12-27T17:53:47.114Z,159005,-0.0022583008,-0.111694336,0.004211426
1735322027122,2024-12-27T17:53:47.122Z,159013,-0.0064697266,-0.12390137,0.010864258
1735322027131,2024-12-27T17:53:47.131Z,159022,-2.4414062E-4,-0.12579346,0.015991211
1735322027141,2024-12-27T17:53:47.141Z,159032,-0.0057373047,-0.11236572,0.018249512
1735322027149,2024-12-27T17:53:47.149Z,159040,0.0031738281,-0.096069336,0.027770996
1735322027157,2024-12-27T17:53:47.157Z,159048,0.022766113,-0.101867676,0.034851074
1735322027163,2024-12-27T17:53:47.163Z,159054,0.015258789,-0.122924805,0.027526855
1735322027166,2024-12-27T17:53:47.166Z,159057,-0.008056641,-0.1272583,0.012878418
1735322027173,2024-12-27T17:53:47.173Z,159064,0.002319336,-0.12915039,0.018737793
1735322027179,2024-12-27T17:53:47.179Z,159070,0.009277344,-0.12835693,0.027282715
1735322027185,2024-12-27T17:53:47.185Z,159076,0.017456055,-0.12713623,0.025939941
1735322027191,2024-12-27T17:53:47.191Z,159082,0.015136719,-0.1348877,0.021911621
1735322027198,2024-12-27T17:53:47.198Z,159089,0.009399414,-0.12384033,0.015930176
1735322027205,2024-12-27T17:53:47.205Z,159096,0.0012817383,-0.10797119,0.009521484
1735322027210,2024-12-27T17:53:47.210Z,159101,-0.0073242188,-0.097961426,0.008300781
1735322027217,2024-12-27T17:53:47.217Z,159108,-0.0017089844,-0.10266113,0.012634277
1735322027222,2024-12-27T17:53:47.222Z,159113,0.00982666,-0.12420654,0.019470215
1735322027228,2024-12-27T17:53:47.228Z,159119,-4.8828125E-4,-0.13739014,0.0211792
1735322027233,2024-12-27T17:53:47.233Z,159124,-0.004333496,-0.13677979,0.0134887695
1735322027238,2024-12-27T17:53:47.238Z,159129,0.0021362305,-0.13140869,0.009521484
1735322027245,2024-12-27T17:53:47.245Z,159136,0.001159668,-0.12042236,0.0056152344
1735322027309,2024-12-27T17:53:47.309Z,159200,-0.005554199,-0.111083984,-0.0022583008
1735322027314,2024-12-27T17:53:47.314Z,159205,-0.012451172,-0.112976074,-0.0024414062
1735322027319,2024-12-27T17:53:47.319Z,159210,-0.00970459,-0.12701416,0.004272461
1735322027324,2024-12-27T17:53:47.324Z,159215,0.008666992,-0.14135742,0.01373291
1735322027329,2024-12-27T17:53:47.329Z,159220,0.009460449,-0.13568115,0.011047363
1735322027349,2024-12-27T17:53:47.349Z,159240,0.009887695,-0.11816406,0.007507324
1735322027357,2024-12-27T17:53:47.357Z,159248,0.010314941,-0.10473633,0.0052490234
1735322027362,2024-12-27T17:53:47.362Z,159253,-2.4414062E-4,-0.1003418,0.0018310547
1735322027369,2024-12-27T17:53:47.369Z,159260,-0.012451172,-0.113586426,-8.544922E-4
1735322027376,2024-12-27T17:53:47.376Z,159267,-0.010803223,-0.13208008,0.0018920898
1735322027385,2024-12-27T17:53:47.385Z,159276,-3.6621094E-4,-0.13995361,0.011413574
1735322027397,2024-12-27T17:53:47.397Z,159288,0.006225586,-0.13043213,0.016113281
1735322027406,2024-12-27T17:53:47.406Z,159297,-0.0025634766,-0.114868164,0.009887695
1735322027417,2024-12-27T17:53:47.417Z,159308,-0.0063476562,-0.10998535,0.0068969727
1735322027424,2024-12-27T17:53:47.424Z,159315,0.0043945312,-0.11779785,0.00982666
1735322027430,2024-12-27T17:53:47.430Z,159321,0.0028686523,-0.12677002,0.015136719
1735322027441,2024-12-27T17:53:47.441Z,159332,-0.0017700195,-0.12774658,0.020812988
1735322027448,2024-12-27T17:53:47.448Z,159339,-0.0031738281,-0.12896729,0.015319824
1735322027456,2024-12-27T17:53:47.456Z,159347,-3.6621094E-4,-0.13171387,0.010803223
1735322027463,2024-12-27T17:53:47.463Z,159354,0.010620117,-0.13043213,0.007385254
1735322027472,2024-12-27T17:53:47.472Z,159363,0.011474609,-0.118652344,0.008605957
1735322027478,2024-12-27T17:53:47.478Z,159369,-6.1035156E-4,-0.11236572,0.002746582
1735322027489,2024-12-27T17:53:47.489Z,159380,-0.008056641,-0.11212158,-3.6621094E-4
1735322027496,2024-12-27T17:53:47.496Z,159387,-0.007385254,-0.119018555,1.8310547E-4
1735322027501,2024-12-27T17:53:47.501Z,159392,-0.0067749023,-0.13079834,6.1035156E-4
1735322027507,2024-12-27T17:53:47.507Z,159398,0.0012817383,-0.13653564,0.0078125
1735322027514,2024-12-27T17:53:47.514Z,159405,0.0099487305,-0.12805176,0.01361084
1735322027530,2024-12-27T17:53:47.530Z,159421,0.0056152344,-0.1105957,0.0060424805
1735322027536,2024-12-27T17:53:47.536Z,159427,-0.0026245117,-0.10394287,-0.004760742
1735322027542,2024-12-27T17:53:47.542Z,159433,-0.0068359375,-0.112976074,-0.005004883
1735322027547,2024-12-27T17:53:47.547Z,159438,-0.011169434,-0.122558594,-0.001953125
1735322027574,2024-12-27T17:53:47.574Z,159465,-0.0061035156,-0.12835693,0.007019043
1735322027581,2024-12-27T17:53:47.581Z,159472,5.493164E-4,-0.12817383,0.013366699
1735322027589,2024-12-27T17:53:47.589Z,159480,-0.0029907227,-0.11578369,0.011291504
1735322027666,2024-12-27T17:53:47.666Z,159557,-0.008728027,-0.10644531,-1.2207031E-4
1735322027675,2024-12-27T17:53:47.675Z,159566,-0.012451172,-0.11651611,-0.010253906
1735322027685,2024-12-27T17:53:47.685Z,159576,-0.017578125,-0.1305542,-0.009399414
1735322027694,2024-12-27T17:53:47.694Z,159585,-0.012756348,-0.1293335,9.1552734E-4
1735322027704,2024-12-27T17:53:47.704Z,159595,-0.0025024414,-0.11920166,0.008972168
1735322027712,2024-12-27T17:53:47.712Z,159603,-0.0031738281,-0.10913086,0.013244629
1735322027720,2024-12-27T17:53:47.720Z,159611,-0.0015869141,-0.107421875,0.008178711
1735322027726,2024-12-27T17:53:47.726Z,159617,0.0028076172,-0.119384766,4.272461E-4
1735322027733,2024-12-27T17:53:47.733Z,159624,-6.1035156E-4,-0.13043213,-0.004272461
1735322027741,2024-12-27T17:53:47.741Z,159632,-0.0057373047,-0.12896729,-0.005432129
1735322027747,2024-12-27T17:53:47.747Z,159638,-0.0036010742,-0.11993408,-0.002746582
1735322027754,2024-12-27T17:53:47.754Z,159645,4.272461E-4,-0.1149292,0.0010986328
1735322027758,2024-12-27T17:53:47.758Z,159649,4.8828125E-4,-0.11859131,0.0064086914
1735322027763,2024-12-27T17:53:47.763Z,159654,-0.0018310547,-0.13201904,0.0053100586
1735322027769,2024-12-27T17:53:47.769Z,159660,-0.0052490234,-0.13769531,-0.001953125
1735322027774,2024-12-27T17:53:47.774Z,159665,8.544922E-4,-0.13195801,-0.0031738281
1735322027780,2024-12-27T17:53:47.780Z,159671,-0.0022583008,-0.12231445,-0.0015869141
1735322027800,2024-12-27T17:53:47.800Z,159691,-0.0071411133,-0.11407471,0.0022583008
1735322027894,2024-12-27T17:53:47.894Z,159785,-0.0031738281,-0.11273193,0.006164551
1735322027900,2024-12-27T17:53:47.900Z,159791,-0.0029296875,-0.11981201,0.0036621094
1735322027907,2024-12-27T17:53:47.907Z,159798,-0.0053100586,-0.13183594,8.544922E-4
1735322027913,2024-12-27T17:53:47.913Z,159804,-0.005554199,-0.13653564,-0.0010375977
1735322027920,2024-12-27T17:53:47.920Z,159811,-0.007385254,-0.12988281,0.0022583008
1735322027938,2024-12-27T17:53:47.938Z,159829,-0.0029907227,-0.12109375,0.0068969727
1735322027945,2024-12-27T17:53:47.945Z,159836,6.1035156E-5,-0.117126465,0.002319336
1735322027953,2024-12-27T17:53:47.953Z,159844,-0.0051879883,-0.11743164,-0.0029907227
1735322027964,2024-12-27T17:53:47.964Z,159855,-0.0068969727,-0.12420654,-0.0043945312
1735322027974,2024-12-27T17:53:47.974Z,159865,-0.0012207031,-0.13543701,0.00390625
1735322027981,2024-12-27T17:53:47.981Z,159872,0.014343262,-0.1375122,0.012817383
1735322027988,2024-12-27T17:53:47.988Z,159879,0.009460449,-0.12219238,1.2207031E-4
1735322027994,2024-12-27T17:53:47.994Z,159885,0.0060424805,-0.12738037,0.005493164
1735322028002,2024-12-27T17:53:48.002Z,159893,0.0040283203,-0.1282959,0.0045166016
1735322028008,2024-12-27T17:53:48.008Z,159899,0.0016479492,-0.12298584,-6.1035156E-5
1735322028014,2024-12-27T17:53:48.014Z,159905,-0.0014038086,-0.11895752,-0.0040283203
1735322028024,2024-12-27T17:53:48.024Z,159915,-0.0036010742,-0.119384766,-0.004760742
1735322028030,2024-12-27T17:53:48.030Z,159921,-0.002380371,-0.11834717,0.0013427734
1735322028036,2024-12-27T17:53:48.036Z,159927,0.001953125,-0.11590576,0.0060424805
1735322028042,2024-12-27T17:53:48.042Z,159933,-3.6621094E-4,-0.117004395,0.002746582
1735322028048,2024-12-27T17:53:48.048Z,159939,-0.0061035156,-0.12683105,0.0033569336
1735322028054,2024-12-27T17:53:48.054Z,159945,1.8310547E-4,-0.1305542,0.008544922
1735322028076,2024-12-27T17:53:48.076Z,159967,0.0068969727,-0.1305542,0.014404297
1735322028081,2024-12-27T17:53:48.081Z,159972,-7.324219E-4,-0.12359619,0.014892578
1735322028087,2024-12-27T17:53:48.087Z,159978,-0.009643555,-0.109558105,0.0017700195
1735322028093,2024-12-27T17:53:48.093Z,159984,0.0017700195,-0.10192871,0.0031738281
1735322028098,2024-12-27T17:53:48.098Z,159989,0.010131836,-0.10522461,0.010803223
1735322028118,2024-12-27T17:53:48.118Z,160009,0.012512207,-0.11968994,0.01965332
1735322028125,2024-12-27T17:53:48.125Z,160016,0.007751465,-0.12915039,0.017944336
1735322028131,2024-12-27T17:53:48.131Z,160022,0.00579834,-0.13140869,0.0076904297
1735322028206,2024-12-27T17:53:48.206Z,160097,0.008666992,-0.13031006,-0.0024414062
1735322028213,2024-12-27T17:53:48.213Z,160104,0.008056641,-0.12322998,-0.005859375
1735322028222,2024-12-27T17:53:48.222Z,160113,0.006164551,-0.11407471,2.4414062E-4
1735322028231,2024-12-27T17:53:48.231Z,160122,0.012329102,-0.109802246,0.0065307617
1735322028239,2024-12-27T17:53:48.239Z,160130,0.010559082,-0.11541748,0.0056762695
1735322028247,2024-12-27T17:53:48.247Z,160138,0.01171875,-0.1295166,0.0057373047
1735322028255,2024-12-27T17:53:48.255Z,160146,0.008544922,-0.13452148,0.001953125
1735322028299,2024-12-27T17:53:48.299Z,160190,0.0025634766,-0.13018799,-9.765625E-4
1735322028308,2024-12-27T17:53:48.308Z,160199,0.0073242188,-0.12414551,0.0051879883
1735322028315,2024-12-27T17:53:48.315Z,160206,0.0119018555,-0.1138916,0.0060424805
1735322028321,2024-12-27T17:53:48.321Z,160212,0.0048217773,-0.10620117,0.0053100586
1735322028328,2024-12-27T17:53:48.328Z,160219,3.6621094E-4,-0.113098145,0.00592041
1735322028331,2024-12-27T17:53:48.331Z,160222,0.0072021484,-0.12805176,0.011291504
1735322028343,2024-12-27T17:53:48.343Z,160234,0.0146484375,-0.13122559,0.0154418945
1735322028349,2024-12-27T17:53:48.349Z,160240,0.012268066,-0.124938965,0.011230469
1735322028355,2024-12-27T17:53:48.355Z,160246,0.0099487305,-0.11993408,0.01184082
1735322028431,2024-12-27T17:53:48.431Z,160322,0.007080078,-0.11260986,0.008911133
1735322028436,2024-12-27T17:53:48.436Z,160327,0.0052490234,-0.10821533,0.005493164
1735322028443,2024-12-27T17:53:48.443Z,160334,0.014282227,-0.11126709,0.009399414
1735322028446,2024-12-27T17:53:48.446Z,160337,0.01373291,-0.12420654,0.008544922
1735322028454,2024-12-27T17:53:48.454Z,160345,0.01727295,-0.13079834,0.012756348
1735322028463,2024-12-27T17:53:48.463Z,160354,0.01159668,-0.12463379,0.009399414
1735322028477,2024-12-27T17:53:48.477Z,160368,0.008361816,-0.11682129,0.0020141602
1735322028485,2024-12-27T17:53:48.485Z,160376,0.0095825195,-0.11218262,0.0
1735322028491,2024-12-27T17:53:48.491Z,160382,0.0051879883,-0.11035156,-0.0034179688
1735322028497,2024-12-27T17:53:48.497Z,160388,0.003112793,-0.11669922,2.4414062E-4
1735322028503,2024-12-27T17:53:48.503Z,160394,0.012084961,-0.12652588,0.008605957
1735322028509,2024-12-27T17:53:48.509Z,160400,0.014831543,-0.12670898,0.009643555
1735322028525,2024-12-27T17:53:48.525Z,160416,0.015380859,-0.11053467,0.004760742
1735322028532,2024-12-27T17:53:48.532Z,160423,0.018554688,-0.11578369,0.0037841797
1735322028538,2024-12-27T17:53:48.538Z,160429,0.018859863,-0.12536621,0.012329102
1735322028544,2024-12-27T17:53:48.544Z,160435,0.022521973,-0.13183594,0.01586914
1735322028551,2024-12-27T17:53:48.551Z,160442,0.025817871,-0.12878418,0.012939453
1735322028565,2024-12-27T17:53:48.565Z,160456,0.021850586,-0.117004395,0.011047363
1735322028571,2024-12-27T17:53:48.571Z,160462,0.01550293,-0.10827637,0.011413574
1735322028577,2024-12-27T17:53:48.577Z,160468,0.019165039,-0.1060791,0.014099121
1735322028583,2024-12-27T17:53:48.583Z,160474,0.022460938,-0.11126709,0.017028809
1735322028589,2024-12-27T17:53:48.589Z,160480,0.0234375,-0.12023926,0.024108887
1735322028614,2024-12-27T17:53:48.614Z,160505,0.019836426,-0.12615967,0.023742676
1735322028665,2024-12-27T17:53:48.665Z,160556,0.012023926,-0.13146973,0.019714355
1735322028678,2024-12-27T17:53:48.678Z,160569,0.008605957,-0.1326294,0.015991211
1735322028691,2024-12-27T17:53:48.691Z,160582,0.010131836,-0.12664795,0.012145996
1735322028704,2024-12-27T17:53:48.704Z,160595,0.012268066,-0.11621094,0.013977051
1735322028717,2024-12-27T17:53:48.717Z,160608,0.012023926,-0.10900879,0.01751709
1735322028728,2024-12-27T17:53:48.728Z,160619,0.010498047,-0.10845947,0.016418457
1735322028735,2024-12-27T17:53:48.735Z,160626,0.011779785,-0.1149292,0.015380859
1735322028743,2024-12-27T17:53:48.743Z,160634,0.017456055,-0.1239624,0.016967773
1735322028751,2024-12-27T17:53:48.751Z,160642,0.021118164,-0.12805176,0.015136719
1735322028757,2024-12-27T17:53:48.757Z,160648,0.0211792,-0.124694824,0.013000488
1735322028763,2024-12-27T17:53:48.763Z,160654,0.017578125,-0.1171875,0.013000488
1735322028769,2024-12-27T17:53:48.769Z,160660,0.019042969,-0.11022949,0.015930176
1735322028776,2024-12-27T17:53:48.776Z,160667,0.023803711,-0.10858154,0.015014648
1735322028781,2024-12-27T17:53:48.781Z,160672,0.024353027,-0.114868164,0.01159668
1735322028787,2024-12-27T17:53:48.787Z,160678,0.025268555,-0.12036133,0.011962891
1735322028793,2024-12-27T17:53:48.793Z,160684,0.025939941,-0.12030029,0.014282227
1735322028798,2024-12-27T17:53:48.798Z,160689,0.020446777,-0.1161499,0.013366699
1735322028803,2024-12-27T17:53:48.803Z,160694,0.016906738,-0.11126709,0.0095825195
1735322028809,2024-12-27T17:53:48.809Z,160700,0.022155762,-0.11090088,0.009643555
1735322028815,2024-12-27T17:53:48.815Z,160706,0.020629883,-0.1116333,0.014221191
1735322028820,2024-12-27T17:53:48.820Z,160711,0.014892578,-0.11260986,0.01550293
1735322028826,2024-12-27T17:53:48.826Z,160717,0.015075684,-0.11517334,0.015991211
1735322028837,2024-12-27T17:53:48.837Z,160728,0.018554688,-0.11853027,0.016845703
1735322028842,2024-12-27T17:53:48.842Z,160733,0.01776123,-0.11859131,0.015075684
1735322028847,2024-12-27T17:53:48.847Z,160738,0.016174316,-0.115722656,0.014709473
1735322028883,2024-12-27T17:53:48.883Z,160774,0.014282227,-0.11224365,0.016662598
1735322028890,2024-12-27T17:53:48.890Z,160781,0.0146484375,-0.10900879,0.017089844
1735322028900,2024-12-27T17:53:48.900Z,160791,0.020507812,-0.107055664,0.014221191
1735322028906,2024-12-27T17:53:48.906Z,160797,0.023498535,-0.10858154,0.014892578
1735322028914,2024-12-27T17:53:48.914Z,160805,0.022460938,-0.11193848,0.01763916
1735322028926,2024-12-27T17:53:48.926Z,160817,0.023864746,-0.11627197,0.018310547
1735322028931,2024-12-27T17:53:48.931Z,160822,0.025756836,-0.12158203,0.018615723
1735322028937,2024-12-27T17:53:48.937Z,160828,0.026123047,-0.12335205,0.017150879
1735322028942,2024-12-27T17:53:48.942Z,160833,0.021240234,-0.120910645,0.01727295
1735322028948,2024-12-27T17:53:48.948Z,160839,0.019714355,-0.115722656,0.021240234
1735322028953,2024-12-27T17:53:48.953Z,160844,0.0211792,-0.11303711,0.021728516
1735322028973,2024-12-27T17:53:48.973Z,160864,0.021057129,-0.1138916,0.018371582
1735322028979,2024-12-27T17:53:48.979Z,160870,0.022399902,-0.115234375,0.021057129
1735322028985,2024-12-27T17:53:48.985Z,160876,0.022705078,-0.117248535,0.021606445
1735322028990,2024-12-27T17:53:48.990Z,160881,0.023376465,-0.12097168,0.021728516
1735322028996,2024-12-27T17:53:48.996Z,160887,0.022888184,-0.12219238,0.023742676
1735322029016,2024-12-27T17:53:49.016Z,160907,0.023803711,-0.11968994,0.02166748
1735322029024,2024-12-27T17:53:49.024Z,160915,0.027160645,-0.11810303,0.020141602
1735322029031,2024-12-27T17:53:49.031Z,160922,0.025268555,-0.11657715,0.020507812
1735322029037,2024-12-27T17:53:49.037Z,160928,0.018676758,-0.11352539,0.018249512
1735322029043,2024-12-27T17:53:49.043Z,160934,0.017822266,-0.112976074,0.016845703
1735322029048,2024-12-27T17:53:49.048Z,160939,0.023132324,-0.11804199,0.018798828
1735322029063,2024-12-27T17:53:49.063Z,160954,0.020446777,-0.121520996,0.020263672
1735322029070,2024-12-27T17:53:49.070Z,160961,0.018066406,-0.12097168,0.020935059
1735322029075,2024-12-27T17:53:49.075Z,160966,0.021240234,-0.12042236,0.02142334
1735322029081,2024-12-27T17:53:49.081Z,160972,0.022644043,-0.11853027,0.022705078
1735322029107,2024-12-27T17:53:49.107Z,160998,0.019897461,-0.11462402,0.020751953
1735322029112,2024-12-27T17:53:49.112Z,161003,0.017456055,-0.1104126,0.019165039
1735322029118,2024-12-27T17:53:49.118Z,161009,0.01586914,-0.111083984,0.01586914
1735322029123,2024-12-27T17:53:49.123Z,161014,0.016662598,-0.115722656,0.016052246
1735322029130,2024-12-27T17:53:49.130Z,161021,0.0211792,-0.11834717,0.020568848
1735322029149,2024-12-27T17:53:49.149Z,161040,0.024047852,-0.117614746,0.023132324
1735322029156,2024-12-27T17:53:49.156Z,161047,0.024658203,-0.115722656,0.017822266
1735322029162,2024-12-27T17:53:49.162Z,161053,0.023803711,-0.115722656,0.011108398
1735322029168,2024-12-27T17:53:49.168Z,161059,0.022338867,-0.11639404,0.011657715
1735322029195,2024-12-27T17:53:49.195Z,161086,0.022033691,-0.11694336,0.012268066
1735322029201,2024-12-27T17:53:49.201Z,161092,0.02331543,-0.11798096,0.013366699
1735322029207,2024-12-27T17:53:49.207Z,161098,0.023010254,-0.11895752,0.014160156
1735322029214,2024-12-27T17:53:49.214Z,161105,0.022888184,-0.12042236,0.015380859
1735322029241,2024-12-27T17:53:49.241Z,161132,0.024475098,-0.12194824,0.01928711
1735322029248,2024-12-27T17:53:49.248Z,161139,0.026184082,-0.12213135,0.022216797
1735322029254,2024-12-27T17:53:49.254Z,161145,0.02545166,-0.120788574,0.023864746
1735322029261,2024-12-27T17:53:49.261Z,161152,0.022583008,-0.118896484,0.02154541
1735322029267,2024-12-27T17:53:49.267Z,161158,0.020080566,-0.11871338,0.020202637
1735322029284,2024-12-27T17:53:49.284Z,161175,0.018066406,-0.118774414,0.020385742
1735322029336,2024-12-27T17:53:49.336Z,161227,0.01953125,-0.11645508,0.020019531
1735322029343,2024-12-27T17:53:49.343Z,161234,0.022949219,-0.11517334,0.022399902
1735322029352,2024-12-27T17:53:49.352Z,161243,0.025756836,-0.11706543,0.020507812
1735322029363,2024-12-27T17:53:49.363Z,161254,0.027893066,-0.11871338,0.019714355
1735322029372,2024-12-27T17:53:49.372Z,161263,0.026611328,-0.11773682,0.0178833
1735322029379,2024-12-27T17:53:49.379Z,161270,0.024047852,-0.11694336,0.016723633
1735322029392,2024-12-27T17:53:49.392Z,161283,0.021850586,-0.11743164,0.014709473
1735322029398,2024-12-27T17:53:49.398Z,161289,0.023010254,-0.11981201,0.012634277
1735322029404,2024-12-27T17:53:49.404Z,161295,0.024536133,-0.120910645,0.012817383
1735322029411,2024-12-27T17:53:49.411Z,161302,0.024353027,-0.11810303,0.014831543
1735322029419,2024-12-27T17:53:49.419Z,161310,0.028747559,-0.11071777,0.017028809
1735322029470,2024-12-27T17:53:49.470Z,161361,0.02532959,-0.10131836,0.016174316
1735322029478,2024-12-27T17:53:49.478Z,161369,0.014587402,-0.09802246,0.015625
1735322029485,2024-12-27T17:53:49.485Z,161376,0.0126953125,-0.101989746,0.019104004
1735322029494,2024-12-27T17:53:49.494Z,161385,0.016845703,-0.10961914,0.022277832
1735322029501,2024-12-27T17:53:49.501Z,161392,0.015258789,-0.11657715,0.020019531
1735322029510,2024-12-27T17:53:49.510Z,161401,0.008972168,-0.120666504,0.018981934
1735322029555,2024-12-27T17:53:49.555Z,161446,0.011474609,-0.12207031,0.01928711
1735322029564,2024-12-27T17:53:49.564Z,161455,0.022033691,-0.11810303,0.018249512
1735322029570,2024-12-27T17:53:49.570Z,161461,0.02154541,-0.10821533,0.014465332
1735322029580,2024-12-27T17:53:49.580Z,161471,0.013000488,-0.095458984,0.006164551
1735322029587,2024-12-27T17:53:49.587Z,161478,0.015319824,-0.090148926,0.003479004
1735322029595,2024-12-27T17:53:49.595Z,161486,0.028503418,-0.09588623,-0.0014038086
1735322029606,2024-12-27T17:53:49.606Z,161497,0.029296875,-0.101257324,-0.008666992
1735322029616,2024-12-27T17:53:49.616Z,161507,0.024719238,-0.10662842,-0.008728027
1735322029626,2024-12-27T17:53:49.626Z,161517,0.02935791,-0.11669922,-0.00390625
1735322029633,2024-12-27T17:53:49.633Z,161524,0.034973145,-0.12579346,-0.004333496
1735322029639,2024-12-27T17:53:49.639Z,161530,0.035949707,-0.12634277,-0.001159668
1735322029649,2024-12-27T17:53:49.649Z,161540,0.010986328,-0.0814209,0.019958496
1735322029656,2024-12-27T17:53:49.656Z,161547,0.009033203,-0.08319092,0.009216309
1735322029662,2024-12-27T17:53:49.662Z,161553,0.026306152,-0.10076904,0.020568848
1735322029667,2024-12-27T17:53:49.667Z,161558,0.02758789,-0.115600586,0.03100586
1735322029673,2024-12-27T17:53:49.673Z,161564,0.0048217773,-0.118652344,0.029907227
1735322029679,2024-12-27T17:53:49.679Z,161570,-1.2207031E-4,-0.114868164,0.024963379
1735322029693,2024-12-27T17:53:49.693Z,161584,0.008361816,-0.11364746,0.019226074
1735322029699,2024-12-27T17:53:49.699Z,161590,0.005065918,-0.112854004,0.019958496
1735322029704,2024-12-27T17:53:49.704Z,161595,0.013305664,-0.11035156,0.03289795
1735322029710,2024-12-27T17:53:49.710Z,161601,0.018493652,-0.09814453,0.030578613
1735322029716,2024-12-27T17:53:49.716Z,161607,0.0072631836,-0.0892334,0.0146484375
1735322029734,2024-12-27T17:53:49.734Z,161625,-0.0016479492,-0.092041016,0.010620117
1735322029740,2024-12-27T17:53:49.740Z,161631,0.016174316,-0.09906006,0.015014648
1735322029746,2024-12-27T17:53:49.746Z,161637,0.028137207,-0.11218262,0.01739502
1735322029752,2024-12-27T17:53:49.752Z,161643,0.018493652,-0.122680664,0.008483887
1735322029758,2024-12-27T17:53:49.758Z,161649,0.010498047,-0.115112305,-0.004638672
1735322029764,2024-12-27T17:53:49.764Z,161655,0.014221191,-0.10223389,-0.00970459
1735322029782,2024-12-27T17:53:49.782Z,161673,0.010498047,-0.10021973,-0.0041503906
1735322029788,2024-12-27T17:53:49.788Z,161679,0.009521484,-0.10888672,-0.0040893555
1735322029794,2024-12-27T17:53:49.794Z,161685,0.017700195,-0.116760254,-0.006958008
1735322029799,2024-12-27T17:53:49.799Z,161690,0.024108887,-0.11682129,-0.0056152344
1735322029804,2024-12-27T17:53:49.804Z,161695,0.017456055,-0.11480713,-0.006591797
1735322029825,2024-12-27T17:53:49.825Z,161716,0.017456055,-0.11138916,-3.6621094E-4
1735322029831,2024-12-27T17:53:49.831Z,161722,0.018676758,-0.107788086,-6.713867E-4
1735322029836,2024-12-27T17:53:49.836Z,161727,0.013366699,-0.099487305,-0.0072021484
1735322029842,2024-12-27T17:53:49.842Z,161733,0.0095825195,-0.09210205,-0.010131836
1735322029870,2024-12-27T17:53:49.870Z,161761,0.0067749023,-0.096191406,-0.008605957
1735322029876,2024-12-27T17:53:49.876Z,161767,0.006958008,-0.10821533,-0.010681152
1735322029882,2024-12-27T17:53:49.882Z,161773,0.012817383,-0.11566162,-0.0053710938
1735322029888,2024-12-27T17:53:49.888Z,161779,0.008422852,-0.11584473,0.0056152344
1735322029895,2024-12-27T17:53:49.895Z,161786,-0.0017089844,-0.10888672,0.006591797
1735322029917,2024-12-27T17:53:49.917Z,161808,0.0028686523,-0.10211182,0.0021362305
1735322029924,2024-12-27T17:53:49.924Z,161815,1.8310547E-4,-0.09539795,-0.006713867
1735322029930,2024-12-27T17:53:49.930Z,161821,0.0030517578,-0.09661865,-0.014343262
1735322029939,2024-12-27T17:53:49.939Z,161830,0.0068969727,-0.109680176,-0.017822266
1735322029959,2024-12-27T17:53:49.959Z,161850,0.008544922,-0.12866211,-0.0028686523
1735322029966,2024-12-27T17:53:49.966Z,161857,0.014953613,-0.1348877,0.0032958984
1735322029974,2024-12-27T17:53:49.974Z,161865,0.016845703,-0.1237793,9.765625E-4
1735322029981,2024-12-27T17:53:49.981Z,161872,0.011413574,-0.111083984,-0.0025024414
1735322029992,2024-12-27T17:53:49.992Z,161883,0.004638672,-0.11151123,-0.0107421875
1735322030053,2024-12-27T17:53:50.053Z,161944,0.0016479492,-0.12695312,-7.324219E-4
1735322030065,2024-12-27T17:53:50.065Z,161956,0.008728027,-0.14276123,0.004638672
1735322030076,2024-12-27T17:53:50.076Z,161967,0.009033203,-0.1385498,0.0048828125
1735322030084,2024-12-27T17:53:50.084Z,161975,0.0068969727,-0.13061523,0.012817383
1735322030089,2024-12-27T17:53:50.089Z,161980,0.012329102,-0.13439941,0.011047363
1735322030097,2024-12-27T17:53:50.097Z,161988,0.0138549805,-0.13189697,0.0076904297
1735322030103,2024-12-27T17:53:50.103Z,161994,0.016479492,-0.11798096,0.01586914
1735322030145,2024-12-27T17:53:50.145Z,162036,0.017944336,-0.113342285,0.011779785
1735322030152,2024-12-27T17:53:50.152Z,162043,0.006958008,-0.115356445,0.004699707
1735322030158,2024-12-27T17:53:50.158Z,162049,-1.8310547E-4,-0.11444092,-0.0022583008
1735322030164,2024-12-27T17:53:50.164Z,162055,0.0044555664,-0.113220215,-0.0076904297
1735322030171,2024-12-27T17:53:50.171Z,162062,0.006164551,-0.113708496,0.0024414062
1735322030185,2024-12-27T17:53:50.185Z,162076,0.008239746,-0.12701416,0.0034179688
1735322030193,2024-12-27T17:53:50.193Z,162084,0.008850098,-0.1326294,8.544922E-4
1735322030200,2024-12-27T17:53:50.200Z,162091,-0.00390625,-0.1182251,-0.005493164
1735322030207,2024-12-27T17:53:50.207Z,162098,-0.011413574,-0.107177734,-0.0067749023
1735322030214,2024-12-27T17:53:50.214Z,162105,0.0026855469,-0.122558594,6.1035156E-4
1735322030220,2024-12-27T17:53:50.220Z,162111,0.013183594,-0.14068604,0.006591797
1735322030232,2024-12-27T17:53:50.232Z,162123,6.1035156E-4,-0.13555908,0.0048217773
1735322030239,2024-12-27T17:53:50.239Z,162130,0.0043945312,-0.11853027,0.0079956055
1735322030251,2024-12-27T17:53:50.251Z,162142,0.007019043,-0.103149414,0.013244629
1735322030257,2024-12-27T17:53:50.257Z,162148,0.0051879883,-0.10394287,0.024963379
1735322030263,2024-12-27T17:53:50.263Z,162154,0.004638672,-0.11639404,0.030883789
1735322030276,2024-12-27T17:53:50.276Z,162167,0.012939453,-0.121154785,0.03173828
1735322030284,2024-12-27T17:53:50.284Z,162175,0.01751709,-0.115234375,0.03289795
1735322030290,2024-12-27T17:53:50.290Z,162181,0.0028686523,-0.11578369,0.033996582
1735322030295,2024-12-27T17:53:50.295Z,162186,-0.0031738281,-0.117370605,0.030700684
1735322030301,2024-12-27T17:53:50.301Z,162192,0.0022583008,-0.117492676,0.024291992
1735322030307,2024-12-27T17:53:50.307Z,162198,0.0014648438,-0.12176514,0.020751953
1735322030322,2024-12-27T17:53:50.322Z,162213,-0.002746582,-0.1375122,0.025390625
1735322030328,2024-12-27T17:53:50.328Z,162219,-8.544922E-4,-0.15258789,0.020019531
1735322030334,2024-12-27T17:53:50.334Z,162225,0.007019043,-0.1463623,0.008239746
1735322030340,2024-12-27T17:53:50.340Z,162231,0.023498535,-0.12866211,0.014770508
1735322030346,2024-12-27T17:53:50.346Z,162237,0.023132324,-0.113342285,0.016479492
1735322030365,2024-12-27T17:53:50.365Z,162256,0.018127441,-0.115356445,0.0126953125
1735322030373,2024-12-27T17:53:50.373Z,162264,0.011779785,-0.1317749,0.011047363
1735322030380,2024-12-27T17:53:50.380Z,162271,0.018737793,-0.14300537,0.00793457
1735322030386,2024-12-27T17:53:50.386Z,162277,0.02331543,-0.14178467,0.003967285
1735322030391,2024-12-27T17:53:50.391Z,162282,0.016113281,-0.13153076,0.0012817383
1735322030399,2024-12-27T17:53:50.399Z,162290,0.008850098,-0.1239624,0.007507324
1735322030419,2024-12-27T17:53:50.419Z,162310,-0.0038452148,-0.12890625,0.007873535
1735322030424,2024-12-27T17:53:50.424Z,162315,0.013305664,-0.15002441,0.0146484375
1735322030430,2024-12-27T17:53:50.430Z,162321,0.022705078,-0.15240479,0.022644043
1735322030436,2024-12-27T17:53:50.436Z,162327,0.01373291,-0.125,0.022766113
1735322030454,2024-12-27T17:53:50.454Z,162345,0.006652832,-0.10772705,0.021484375
1735322030460,2024-12-27T17:53:50.460Z,162351,0.0073242188,-0.11602783,0.031555176
1735322030465,2024-12-27T17:53:50.465Z,162356,0.013061523,-0.13409424,0.04486084
1735322030470,2024-12-27T17:53:50.470Z,162361,0.022094727,-0.14367676,0.04058838
1735322030502,2024-12-27T17:53:50.502Z,162393,0.029052734,-0.13232422,0.030517578
1735322030511,2024-12-27T17:53:50.511Z,162402,0.046325684,-0.109375,0.035949707
1735322030519,2024-12-27T17:53:50.519Z,162410,0.039978027,-0.09112549,0.032287598
1735322030526,2024-12-27T17:53:50.526Z,162417,0.028930664,-0.10308838,0.021362305
1735322030534,2024-12-27T17:53:50.534Z,162425,0.03692627,-0.13323975,0.014587402
1735322030545,2024-12-27T17:53:50.545Z,162436,0.024353027,-0.14935303,0.005554199
1735322030600,2024-12-27T17:53:50.600Z,162491,0.0048828125,-0.1461792,0.012390137
1735322030612,2024-12-27T17:53:50.612Z,162503,-0.009399414,-0.14160156,0.02508545
1735322030622,2024-12-27T17:53:50.622Z,162513,0.002319336,-0.1482544,0.0357666
1735322030630,2024-12-27T17:53:50.630Z,162521,0.018249512,-0.13775635,0.031555176
1735322030638,2024-12-27T17:53:50.638Z,162529,0.020751953,-0.11090088,0.03881836
1735322030727,2024-12-27T17:53:50.727Z,162618,0.026855469,-0.10028076,0.054626465
1735322030735,2024-12-27T17:53:50.735Z,162626,0.034179688,-0.119384766,0.05682373
1735322030742,2024-12-27T17:53:50.742Z,162633,0.027770996,-0.12866211,0.046447754
1735322030748,2024-12-27T17:53:50.748Z,162639,0.0345459,-0.120666504,0.0524292
1735322030755,2024-12-27T17:53:50.755Z,162646,0.047424316,-0.11199951,0.06439209
1735322030762,2024-12-27T17:53:50.762Z,162653,0.03967285,-0.105163574,0.059020996
1735322030779,2024-12-27T17:53:50.779Z,162670,0.0390625,-0.11376953,0.04736328
1735322030785,2024-12-27T17:53:50.785Z,162676,0.030944824,-0.124572754,0.03741455
1735322030793,2024-12-27T17:53:50.793Z,162684,0.028747559,-0.12628174,0.03173828
1735322030799,2024-12-27T17:53:50.799Z,162690,0.03729248,-0.120910645,0.036499023
1735322030806,2024-12-27T17:53:50.806Z,162697,0.020324707,-0.10852051,0.030822754
1735322030814,2024-12-27T17:53:50.814Z,162705,0.022949219,-0.11035156,0.031677246
1735322030817,2024-12-27T17:53:50.817Z,162708,0.057617188,-0.1071167,0.040649414
1735322030822,2024-12-27T17:53:50.822Z,162713,0.05407715,-0.11627197,0.04437256
1735322030828,2024-12-27T17:53:50.828Z,162719,0.044128418,-0.11584473,0.05218506
1735322030834,2024-12-27T17:53:50.834Z,162725,0.04638672,-0.121520996,0.053955078
1735322030840,2024-12-27T17:53:50.840Z,162731,0.0524292,-0.124572754,0.062438965
1735322030860,2024-12-27T17:53:50.860Z,162751,0.04888916,-0.11810303,0.07287598
1735322030866,2024-12-27T17:53:50.866Z,162757,0.03967285,-0.11767578,0.057495117
1735322030871,2024-12-27T17:53:50.871Z,162762,0.041931152,-0.12530518,0.045532227
1735322030876,2024-12-27T17:53:50.876Z,162767,0.047851562,-0.124816895,0.04437256
1735322030882,2024-12-27T17:53:50.882Z,162773,0.04248047,-0.13012695,0.04498291
1735322030887,2024-12-27T17:53:50.887Z,162778,0.037719727,-0.1262207,0.062683105
1735322030909,2024-12-27T17:53:50.909Z,162800,0.029052734,-0.1194458,0.066101074
1735322030915,2024-12-27T17:53:50.915Z,162806,0.036865234,-0.12652588,0.053588867
1735322030920,2024-12-27T17:53:50.920Z,162811,0.049865723,-0.12908936,0.049560547
1735322030925,2024-12-27T17:53:50.925Z,162816,0.05340576,-0.12750244,0.042663574
1735322030932,2024-12-27T17:53:50.932Z,162823,0.059814453,-0.123046875,0.056518555
1735322030950,2024-12-27T17:53:50.950Z,162841,0.07067871,-0.119384766,0.08099365
1735322030960,2024-12-27T17:53:50.960Z,162851,0.061279297,-0.11090088,0.077697754
1735322030969,2024-12-27T17:53:50.969Z,162860,0.0647583,-0.10986328,0.05908203
1735322030981,2024-12-27T17:53:50.981Z,162872,0.06549072,-0.1104126,0.046447754
1735322030994,2024-12-27T17:53:50.994Z,162885,0.049682617,-0.11071777,0.03741455
1735322030999,2024-12-27T17:53:50.999Z,162890,0.04345703,-0.11816406,0.04650879
1735322031004,2024-12-27T17:53:51.004Z,162895,0.03656006,-0.12194824,0.05895996
1735322031008,2024-12-27T17:53:51.008Z,162899,0.0076293945,-0.10925293,0.057617188
1735322031013,2024-12-27T17:53:51.013Z,162904,-0.0024414062,-0.09387207,0.048583984
1735322031018,2024-12-27T17:53:51.018Z,162909,0.036315918,-0.09588623,0.05206299
1735322031043,2024-12-27T17:53:51.043Z,162934,0.05480957,-0.10546875,0.06341553
1735322031048,2024-12-27T17:53:51.048Z,162939,0.039794922,-0.105163574,0.06109619
1735322031053,2024-12-27T17:53:51.053Z,162944,0.038330078,-0.09893799,0.055908203
1735322031088,2024-12-27T17:53:51.088Z,162979,0.040527344,-0.092163086,0.062805176
1735322031094,2024-12-27T17:53:51.094Z,162985,0.044311523,-0.09429932,0.064086914
1735322031100,2024-12-27T17:53:51.100Z,162991,0.05718994,-0.109375,0.06237793
1735322031106,2024-12-27T17:53:51.106Z,162997,0.05267334,-0.109558105,0.06689453
1735322031113,2024-12-27T17:53:51.113Z,163004,0.042114258,-0.10064697,0.05706787
1735322031129,2024-12-27T17:53:51.129Z,163020,0.037597656,-0.109069824,0.03857422
1735322031135,2024-12-27T17:53:51.135Z,163026,0.025817871,-0.10681152,0.033325195
1735322031140,2024-12-27T17:53:51.140Z,163031,0.02947998,-0.08947754,0.044006348
1735322031147,2024-12-27T17:53:51.147Z,163038,0.046142578,-0.09124756,0.06518555
1735322031152,2024-12-27T17:53:51.152Z,163043,0.05480957,-0.121276855,0.07800293
1735322031157,2024-12-27T17:53:51.157Z,163048,0.040161133,-0.1295166,0.06665039
1735322031222,2024-12-27T17:53:51.222Z,163113,0.03643799,-0.10876465,0.05316162
1735322031229,2024-12-27T17:53:51.229Z,163120,0.028930664,-0.09222412,0.051696777
1735322031236,2024-12-27T17:53:51.236Z,163127,0.028076172,-0.09088135,0.060668945
1735322031242,2024-12-27T17:53:51.242Z,163133,0.0435791,-0.1005249,0.06414795
1735322031249,2024-12-27T17:53:51.249Z,163140,0.050109863,-0.11444092,0.060546875
1735322031265,2024-12-27T17:53:51.265Z,163156,0.044799805,-0.12243652,0.05078125
1735322031270,2024-12-27T17:53:51.270Z,163161,0.042419434,-0.119384766,0.04736328
1735322031276,2024-12-27T17:53:51.276Z,163167,0.040405273,-0.111328125,0.044006348
1735322031282,2024-12-27T17:53:51.282Z,163173,0.0368042,-0.11102295,0.042114258
1735322031287,2024-12-27T17:53:51.287Z,163178,0.040649414,-0.11785889,0.041992188
1735322031292,2024-12-27T17:53:51.292Z,163183,0.046813965,-0.10998535,0.04119873
1735322031315,2024-12-27T17:53:51.315Z,163206,0.04498291,-0.1005249,0.04083252
1735322031320,2024-12-27T17:53:51.320Z,163211,0.040649414,-0.10510254,0.050231934
1735322031326,2024-12-27T17:53:51.326Z,163217,0.04168701,-0.12145996,0.058898926
1735322031333,2024-12-27T17:53:51.333Z,163224,0.038146973,-0.13323975,0.06329346
1735322031341,2024-12-27T17:53:51.341Z,163232,0.032043457,-0.12561035,0.06585693
1735322031354,2024-12-27T17:53:51.354Z,163245,0.036010742,-0.105163574,0.05645752
1735322031360,2024-12-27T17:53:51.360Z,163251,0.040039062,-0.097473145,0.061584473
1735322031365,2024-12-27T17:53:51.365Z,163256,0.035461426,-0.103515625,0.07421875
1735322031371,2024-12-27T17:53:51.371Z,163262,0.027770996,-0.11413574,0.065979004
1735322031378,2024-12-27T17:53:51.378Z,163269,0.034240723,-0.12805176,0.055664062
1735322031388,2024-12-27T17:53:51.388Z,163279,0.036376953,-0.13549805,0.05407715
1735322031449,2024-12-27T17:53:51.449Z,163340,0.034606934,-0.1274414,0.055603027
1735322031458,2024-12-27T17:53:51.458Z,163349,0.04046631,-0.1027832,0.057495117
1735322031465,2024-12-27T17:53:51.465Z,163356,0.052124023,-0.09637451,0.0657959
1735322031544,2024-12-27T17:53:51.544Z,163435,0.061706543,-0.1138916,0.05987549
1735322031551,2024-12-27T17:53:51.551Z,163442,0.05267334,-0.12158203,0.039611816
1735322031556,2024-12-27T17:53:51.556Z,163447,0.045166016,-0.12561035,0.026855469
1735322031565,2024-12-27T17:53:51.565Z,163456,0.038330078,-0.12677002,0.03326416
1735322031571,2024-12-27T17:53:51.571Z,163462,0.03540039,-0.12164307,0.048828125
1735322031580,2024-12-27T17:53:51.580Z,163471,0.04107666,-0.119018555,0.05419922
1735322031588,2024-12-27T17:53:51.588Z,163479,0.0345459,-0.119140625,0.044311523
1735322031599,2024-12-27T17:53:51.599Z,163490,0.020019531,-0.11706543,0.041259766
1735322031608,2024-12-27T17:53:51.608Z,163499,0.017578125,-0.12322998,0.044311523
1735322031614,2024-12-27T17:53:51.614Z,163505,0.025024414,-0.12939453,0.05126953
1735322031620,2024-12-27T17:53:51.620Z,163511,0.023803711,-0.12792969,0.05078125
1735322031624,2024-12-27T17:53:51.624Z,163515,0.03741455,-0.10046387,0.057922363
1735322031627,2024-12-27T17:53:51.627Z,163518,0.043518066,-0.13671875,0.05657959
1735322031632,2024-12-27T17:53:51.632Z,163523,0.03100586,-0.1506958,0.04296875
1735322031672,2024-12-27T17:53:51.672Z,163563,0.022399902,-0.13305664,0.024963379
1735322031716,2024-12-27T17:53:51.716Z,163607,0.025146484,-0.101989746,0.018188477
1735322031723,2024-12-27T17:53:51.723Z,163614,0.018432617,-0.08685303,0.021728516
1735322031730,2024-12-27T17:53:51.730Z,163621,0.024536133,-0.09942627,0.025878906
1735322031738,2024-12-27T17:53:51.738Z,163629,0.036010742,-0.12591553,0.03112793
1735322031745,2024-12-27T17:53:51.745Z,163636,0.030822754,-0.13531494,0.037841797
1735322031759,2024-12-27T17:53:51.759Z,163650,0.02508545,-0.12695312,0.03552246
1735322031774,2024-12-27T17:53:51.774Z,163665,0.01977539,-0.1182251,0.031433105
1735322031780,2024-12-27T17:53:51.780Z,163671,0.0068969727,-0.109069824,0.024719238
1735322031786,2024-12-27T17:53:51.786Z,163677,0.003479004,-0.09655762,0.028564453
1735322031792,2024-12-27T17:53:51.792Z,163683,0.013793945,-0.09277344,0.047729492
1735322031806,2024-12-27T17:53:51.806Z,163697,0.020019531,-0.107421875,0.052490234
1735322031812,2024-12-27T17:53:51.812Z,163703,0.020385742,-0.119628906,0.061950684
1735322031815,2024-12-27T17:53:51.815Z,163706,0.010070801,-0.13366699,0.022277832
1735322031855,2024-12-27T17:53:51.855Z,163746,0.01171875,-0.10888672,0.02923584
1735322031862,2024-12-27T17:53:51.862Z,163753,0.010314941,-0.093322754,0.035705566
1735322031870,2024-12-27T17:53:51.870Z,163761,0.013061523,-0.11663818,0.035705566
1735322031876,2024-12-27T17:53:51.876Z,163767,0.016113281,-0.13946533,0.03515625
1735322031884,2024-12-27T17:53:51.884Z,163775,0.020019531,-0.13409424,0.026733398
1735322031898,2024-12-27T17:53:51.898Z,163789,0.021118164,-0.11834717,0.02130127
1735322031904,2024-12-27T17:53:51.904Z,163795,0.014831543,-0.10638428,0.019714355
1735322031910,2024-12-27T17:53:51.910Z,163801,0.0134887695,-0.09875488,0.0178833
1735322031917,2024-12-27T17:53:51.917Z,163808,0.006713867,-0.09814453,0.018798828
1735322031923,2024-12-27T17:53:51.923Z,163814,0.011413574,-0.11077881,0.025512695
1735322031933,2024-12-27T17:53:51.933Z,163824,0.017028809,-0.1281128,0.036499023
1735322032031,2024-12-27T17:53:52.031Z,163922,0.0012817383,-0.13171387,0.04034424
1735322032034,2024-12-27T17:53:52.034Z,163925,-0.0064086914,-0.128479,0.026489258
1735322032041,2024-12-27T17:53:52.041Z,163932,-0.0016479492,-0.1239624,0.022644043
1735322032047,2024-12-27T17:53:52.047Z,163938,0.008361816,-0.117248535,0.031677246
1735322032054,2024-12-27T17:53:52.054Z,163945,0.00793457,-0.11450195,0.03540039
1735322032125,2024-12-27T17:53:52.125Z,164016,0.010559082,-0.11804199,0.03564453
1735322032132,2024-12-27T17:53:52.132Z,164023,0.015991211,-0.12402344,0.04473877
1735322032140,2024-12-27T17:53:52.140Z,164031,0.013549805,-0.1282959,0.03363037
1735322032146,2024-12-27T17:53:52.146Z,164037,0.0028686523,-0.13439941,0.0044555664
1735322032152,2024-12-27T17:53:52.152Z,164043,-0.0038452148,-0.12817383,-0.0040283203
1735322032165,2024-12-27T17:53:52.165Z,164056,-0.0061035156,-0.11242676,-0.006225586
1735322032173,2024-12-27T17:53:52.173Z,164064,0.005004883,-0.10949707,0.0014648438
1735322032178,2024-12-27T17:53:52.178Z,164069,-0.0065307617,-0.10986328,0.008361816
1735322032185,2024-12-27T17:53:52.185Z,164076,0.0056762695,-0.11376953,0.025817871
1735322032190,2024-12-27T17:53:52.190Z,164081,0.011413574,-0.11773682,0.0345459
1735322032196,2024-12-27T17:53:52.196Z,164087,0.0072021484,-0.12530518,0.02331543
1735322032213,2024-12-27T17:53:52.213Z,164104,0.014526367,-0.11871338,0.028076172
1735322032219,2024-12-27T17:53:52.219Z,164110,0.012145996,-0.10736084,0.025756836
1735322032224,2024-12-27T17:53:52.224Z,164115,0.0045776367,-0.111572266,0.016723633
1735322032230,2024-12-27T17:53:52.230Z,164121,-2.4414062E-4,-0.1274414,0.0014648438
1735322032235,2024-12-27T17:53:52.235Z,164126,-0.0043945312,-0.13018799,-0.008239746
1735322032254,2024-12-27T17:53:52.254Z,164145,-0.0021972656,-0.121032715,-7.324219E-4
1735322032302,2024-12-27T17:53:52.302Z,164193,0.0018310547,-0.11798096,0.012817383
1735322032309,2024-12-27T17:53:52.309Z,164200,0.0041503906,-0.11584473,0.01965332
1735322032317,2024-12-27T17:53:52.317Z,164208,0.010986328,-0.11102295,0.018615723
1735322032324,2024-12-27T17:53:52.324Z,164215,0.009399414,-0.11291504,0.014709473
1735322032333,2024-12-27T17:53:52.333Z,164224,-0.0017700195,-0.12512207,0.0032348633
1735322032341,2024-12-27T17:53:52.341Z,164232,-0.010925293,-0.13763428,-0.0068359375
1735322032395,2024-12-27T17:53:52.395Z,164286,-0.019714355,-0.13922119,-0.0015258789
1735322032403,2024-12-27T17:53:52.403Z,164294,-0.011962891,-0.13427734,0.010986328
1735322032411,2024-12-27T17:53:52.411Z,164302,-0.004760742,-0.12994385,0.018127441
1735322032418,2024-12-27T17:53:52.418Z,164309,-0.0020751953,-0.123046875,0.017333984
1735322032424,2024-12-27T17:53:52.424Z,164315,-0.0015869141,-0.1217041,0.01184082
1735322032435,2024-12-27T17:53:52.435Z,164326,-6.713867E-4,-0.12792969,0.005493164
1735322032439,2024-12-27T17:53:52.439Z,164330,0.0024414062,-0.12579346,0.0018310547
1735322032445,2024-12-27T17:53:52.445Z,164336,0.0075683594,-0.11517334,0.007446289
1735322032451,2024-12-27T17:53:52.451Z,164342,0.012268066,-0.111816406,0.005065918
1735322032457,2024-12-27T17:53:52.457Z,164348,0.015808105,-0.116760254,0.008056641
1735322032464,2024-12-27T17:53:52.464Z,164355,0.010986328,-0.115112305,0.0064086914
1735322032479,2024-12-27T17:53:52.479Z,164370,0.010192871,-0.11395264,0.0037231445
1735322032483,2024-12-27T17:53:52.483Z,164374,-0.012145996,-0.12579346,-0.009338379
1735322032527,2024-12-27T17:53:52.527Z,164418,-0.01550293,-0.12200928,0.0016479492
1735322032535,2024-12-27T17:53:52.535Z,164426,-0.01361084,-0.11816406,0.0065307617
1735322032543,2024-12-27T17:53:52.543Z,164434,-0.008361816,-0.121032715,0.011047363
1735322032549,2024-12-27T17:53:52.549Z,164440,-0.01159668,-0.12615967,0.0056762695
1735322032574,2024-12-27T17:53:52.574Z,164465,-0.01184082,-0.124938965,0.0028686523
1735322032581,2024-12-27T17:53:52.581Z,164472,-1.2207031E-4,-0.12017822,0.0107421875
1735322032589,2024-12-27T17:53:52.589Z,164480,0.004272461,-0.111816406,0.017028809
1735322032595,2024-12-27T17:53:52.595Z,164486,0.0021362305,-0.107055664,0.016723633
1735322032602,2024-12-27T17:53:52.602Z,164493,7.9345703E-4,-0.11529541,0.013427734
1735322032614,2024-12-27T17:53:52.614Z,164505,-0.0029907227,-0.1282959,0.004760742
1735322032623,2024-12-27T17:53:52.623Z,164514,-0.003967285,-0.13342285,3.6621094E-4
1735322032629,2024-12-27T17:53:52.629Z,164520,-0.0021972656,-0.12530518,0.0063476562
1735322032632,2024-12-27T17:53:52.632Z,164523,0.001953125,-0.12121582,0.010131836
1735322032639,2024-12-27T17:53:52.639Z,164530,0.006713867,-0.12768555,0.008239746
1735322032644,2024-12-27T17:53:52.644Z,164535,0.0028076172,-0.12438965,1.2207031E-4
1735322032661,2024-12-27T17:53:52.661Z,164552,9.1552734E-4,-0.111572266,-0.0012207031
1735322032664,2024-12-27T17:53:52.664Z,164555,0.0015258789,-0.11102295,0.0026245117
1735322032670,2024-12-27T17:53:52.670Z,164561,0.0010375977,-0.11999512,0.0015869141
1735322032674,2024-12-27T17:53:52.674Z,164565,0.0015258789,-0.12512207,0.00579834
1735322032679,2024-12-27T17:53:52.679Z,164570,0.005004883,-0.12072754,0.013183594
1735322032684,2024-12-27T17:53:52.684Z,164575,0.011169434,-0.113342285,0.010803223
1735322032704,2024-12-27T17:53:52.704Z,164595,0.0045776367,-0.111083984,0.006652832
1735322032711,2024-12-27T17:53:52.711Z,164602,-0.00793457,-0.11608887,-4.272461E-4
1735322032717,2024-12-27T17:53:52.717Z,164608,-0.0072631836,-0.12677002,-0.0013427734
1735322032722,2024-12-27T17:53:52.722Z,164613,-0.0064697266,-0.13146973,0.0017700195
1735322032727,2024-12-27T17:53:52.727Z,164618,-0.012023926,-0.12640381,0.003540039
1735322032732,2024-12-27T17:53:52.732Z,164623,-0.0115356445,-0.120666504,0.0061035156
1735322032752,2024-12-27T17:53:52.752Z,164643,-0.00390625,-0.118774414,0.0060424805
1735322032757,2024-12-27T17:53:52.757Z,164648,-0.0010986328,-0.11798096,0.004211426
1735322032762,2024-12-27T17:53:52.762Z,164653,-0.0038452148,-0.119018555,0.0071411133
1735322032767,2024-12-27T17:53:52.767Z,164658,-0.001159668,-0.12121582,0.007507324
1735322032773,2024-12-27T17:53:52.773Z,164664,0.0048217773,-0.120788574,0.009887695
1735322032796,2024-12-27T17:53:52.796Z,164687,0.0020751953,-0.11669922,0.009155273
1735322032845,2024-12-27T17:53:52.845Z,164736,-7.9345703E-4,-0.117004395,0.010803223
1735322032851,2024-12-27T17:53:52.851Z,164742,0.0048828125,-0.11773682,0.015808105
1735322032858,2024-12-27T17:53:52.858Z,164749,0.008544922,-0.11602783,0.012512207
1735322032864,2024-12-27T17:53:52.864Z,164755,0.005065918,-0.117614746,0.008972168
1735322032871,2024-12-27T17:53:52.871Z,164762,-0.0021362305,-0.121398926,0.0053100586
1735322032932,2024-12-27T17:53:52.932Z,164823,-0.0012207031,-0.12524414,0.0064086914
1735322032945,2024-12-27T17:53:52.945Z,164836,0.0018310547,-0.12384033,0.011108398
1735322032952,2024-12-27T17:53:52.952Z,164843,-0.0025024414,-0.12512207,0.0107421875
1735322032959,2024-12-27T17:53:52.959Z,164850,-0.006591797,-0.13165283,0.0045776367
1735322032967,2024-12-27T17:53:52.967Z,164858,-0.005859375,-0.1303711,7.324219E-4
1735322032975,2024-12-27T17:53:52.975Z,164866,-0.0028076172,-0.12438965,8.544922E-4
1735322032983,2024-12-27T17:53:52.983Z,164874,7.9345703E-4,-0.12109375,0.0061035156
1735322032990,2024-12-27T17:53:52.990Z,164881,-3.6621094E-4,-0.11920166,0.009094238
1735322032996,2024-12-27T17:53:52.996Z,164887,-2.4414062E-4,-0.122558594,0.0067749023
1735322033002,2024-12-27T17:53:53.002Z,164893,0.0064697266,-0.13085938,0.008666992
1735322033007,2024-12-27T17:53:53.007Z,164898,0.0072021484,-0.13128662,0.0068969727
1735322033020,2024-12-27T17:53:53.020Z,164911,0.006591797,-0.12536621,0.008605957
1735322033023,2024-12-27T17:53:53.023Z,164914,0.0052490234,-0.109191895,0.006164551
1735322033028,2024-12-27T17:53:53.028Z,164919,0.0076904297,-0.10882568,0.0037841797
1735322033034,2024-12-27T17:53:53.034Z,164925,0.015563965,-0.11694336,0.010070801
1735322033039,2024-12-27T17:53:53.039Z,164930,0.0138549805,-0.12145996,0.0146484375
1735322033044,2024-12-27T17:53:53.044Z,164935,0.0071411133,-0.12133789,0.009033203
1735322033066,2024-12-27T17:53:53.066Z,164957,0.005126953,-0.12371826,0.0031738281
1735322033072,2024-12-27T17:53:53.072Z,164963,0.003112793,-0.12188721,-0.004760742
1735322033076,2024-12-27T17:53:53.076Z,164967,-1.2207031E-4,-0.117248535,-0.0068359375
1735322033082,2024-12-27T17:53:53.082Z,164973,0.0013427734,-0.12042236,-1.2207031E-4
1735322033087,2024-12-27T17:53:53.087Z,164978,0.0049438477,-0.12322998,0.0059814453
1735322033092,2024-12-27T17:53:53.092Z,164983,0.0037841797,-0.123291016,0.008239746
1735322033113,2024-12-27T17:53:53.113Z,165004,0.0015869141,-0.12536621,0.007080078
1735322033118,2024-12-27T17:53:53.118Z,165009,0.0030517578,-0.1281128,0.0014038086
1735322033123,2024-12-27T17:53:53.123Z,165014,0.0032958984,-0.12646484,5.493164E-4
1735322033128,2024-12-27T17:53:53.128Z,165019,2.4414062E-4,-0.11993408,0.0015869141
1735322033133,2024-12-27T17:53:53.133Z,165024,-9.765625E-4,-0.111328125,0.003540039
1735322033154,2024-12-27T17:53:53.154Z,165045,0.0028686523,-0.11651611,0.004638672
1735322033160,2024-12-27T17:53:53.160Z,165051,0.009094238,-0.12756348,0.008422852
1735322033166,2024-12-27T17:53:53.166Z,165057,0.012451172,-0.12731934,0.0095825195
1735322033171,2024-12-27T17:53:53.171Z,165062,0.013000488,-0.12060547,0.012268066
1735322033175,2024-12-27T17:53:53.175Z,165066,0.012207031,-0.111816406,0.0087890625
1735322033181,2024-12-27T17:53:53.181Z,165072,0.00970459,-0.10852051,0.0036010742
1735322033203,2024-12-27T17:53:53.203Z,165094,0.0071411133,-0.11273193,0.004272461
1735322033208,2024-12-27T17:53:53.208Z,165099,0.00970459,-0.119140625,0.008850098
1735322033215,2024-12-27T17:53:53.215Z,165106,0.009765625,-0.12286377,0.008850098
1735322033224,2024-12-27T17:53:53.224Z,165115,0.013244629,-0.12451172,0.009460449
1735322033230,2024-12-27T17:53:53.230Z,165121,0.013427734,-0.12176514,0.0073242188
1735322033245,2024-12-27T17:53:53.245Z,165136,0.011291504,-0.11645508,0.0044555664
1735322033251,2024-12-27T17:53:53.251Z,165142,0.011962891,-0.11376953,0.0073242188
1735322033256,2024-12-27T17:53:53.256Z,165147,0.010803223,-0.111694336,0.008911133
1735322033261,2024-12-27T17:53:53.261Z,165152,0.010070801,-0.111328125,0.0033569336
1735322033290,2024-12-27T17:53:53.290Z,165181,0.0075683594,-0.1161499,-0.0014038086
1735322033297,2024-12-27T17:53:53.297Z,165188,0.0051879883,-0.12658691,3.0517578E-4
1735322033303,2024-12-27T17:53:53.303Z,165194,0.011230469,-0.13641357,0.0045776367
1735322033309,2024-12-27T17:53:53.309Z,165200,0.016479492,-0.13574219,0.009887695
1735322033315,2024-12-27T17:53:53.315Z,165206,0.014709473,-0.12683105,0.010009766
1735322033427,2024-12-27T17:53:53.427Z,165318,0.013793945,-0.12145996,0.008117676
1735322033439,2024-12-27T17:53:53.439Z,165330,0.016967773,-0.120666504,0.007507324
1735322033453,2024-12-27T17:53:53.453Z,165344,0.016357422,-0.12060547,0.0076904297
1735322033462,2024-12-27T17:53:53.462Z,165353,0.015625,-0.12145996,0.011657715
1735322033469,2024-12-27T17:53:53.469Z,165360,0.014099121,-0.12042236,0.015930176
1735322033475,2024-12-27T17:53:53.475Z,165366,0.01776123,-0.11956787,0.01965332
1735322033487,2024-12-27T17:53:53.487Z,165378,0.022277832,-0.117126465,0.018676758
1735322033494,2024-12-27T17:53:53.494Z,165385,0.020019531,-0.11352539,0.017150879
1735322033500,2024-12-27T17:53:53.500Z,165391,0.017578125,-0.11279297,0.016357422
1735322033507,2024-12-27T17:53:53.507Z,165398,0.018371582,-0.11468506,0.013793945
1735322033514,2024-12-27T17:53:53.514Z,165405,0.015991211,-0.11602783,0.01184082
1735322033520,2024-12-27T17:53:53.520Z,165411,0.0115356445,-0.112854004,0.0021972656
1735322033525,2024-12-27T17:53:53.525Z,165416,0.010620117,-0.11871338,0.0016479492
1735322033531,2024-12-27T17:53:53.531Z,165422,0.006713867,-0.12243652,0.0020751953
1735322033559,2024-12-27T17:53:53.559Z,165450,0.0075683594,-0.12243652,0.006591797
1735322033565,2024-12-27T17:53:53.565Z,165456,0.0119018555,-0.119140625,0.0051879883
1735322033571,2024-12-27T17:53:53.571Z,165462,0.011962891,-0.1159668,-1.2207031E-4
1735322033577,2024-12-27T17:53:53.577Z,165468,0.013366699,-0.11584473,-6.1035156E-5
1735322033583,2024-12-27T17:53:53.583Z,165474,0.014709473,-0.11602783,0.0032348633
1735322033588,2024-12-27T17:53:53.588Z,165479,0.015258789,-0.117004395,0.0064697266
1735322033607,2024-12-27T17:53:53.607Z,165498,0.018554688,-0.119506836,0.011291504
1735322033612,2024-12-27T17:53:53.612Z,165503,0.022766113,-0.12054443,0.011779785
1735322033618,2024-12-27T17:53:53.618Z,165509,0.023925781,-0.119140625,0.0115356445
1735322033623,2024-12-27T17:53:53.623Z,165514,0.02142334,-0.11541748,0.0126953125
1735322033628,2024-12-27T17:53:53.628Z,165519,0.01940918,-0.11071777,0.013183594
1735322033651,2024-12-27T17:53:53.651Z,165542,0.02154541,-0.11053467,0.014221191
1735322033656,2024-12-27T17:53:53.656Z,165547,0.02142334,-0.115722656,0.015319824
1735322033663,2024-12-27T17:53:53.663Z,165554,0.017089844,-0.1237793,0.010375977
1735322033669,2024-12-27T17:53:53.669Z,165560,0.016906738,-0.12988281,0.011169434
1735322033744,2024-12-27T17:53:53.744Z,165635,0.020690918,-0.13006592,0.01574707
1735322033751,2024-12-27T17:53:53.751Z,165642,0.023986816,-0.12609863,0.01763916
1735322033759,2024-12-27T17:53:53.759Z,165650,0.02355957,-0.117370605,0.019592285
1735322033766,2024-12-27T17:53:53.766Z,165657,0.018005371,-0.11065674,0.016113281
1735322033773,2024-12-27T17:53:53.773Z,165664,0.013061523,-0.11340332,0.01361084
1735322033785,2024-12-27T17:53:53.785Z,165676,0.016906738,-0.12097168,0.016296387
1735322033791,2024-12-27T17:53:53.791Z,165682,0.024169922,-0.12756348,0.017211914
1735322033797,2024-12-27T17:53:53.797Z,165688,0.021362305,-0.1260376,0.015014648
1735322033803,2024-12-27T17:53:53.803Z,165694,0.020751953,-0.12164307,0.014953613
1735322033809,2024-12-27T17:53:53.809Z,165700,0.024902344,-0.11920166,0.014892578
1735322033815,2024-12-27T17:53:53.815Z,165706,0.026977539,-0.120788574,0.0119018555
1735322033833,2024-12-27T17:53:53.833Z,165724,0.014526367,-0.12054443,0.010620117
1735322033838,2024-12-27T17:53:53.838Z,165729,0.015136719,-0.121520996,0.012573242
1735322033843,2024-12-27T17:53:53.843Z,165734,0.016723633,-0.120666504,0.015625
1735322033848,2024-12-27T17:53:53.848Z,165739,0.019226074,-0.11590576,0.015380859
1735322033853,2024-12-27T17:53:53.853Z,165744,0.020019531,-0.11212158,0.0138549805
1735322033874,2024-12-27T17:53:53.874Z,165765,0.02166748,-0.111694336,0.014831543
1735322033879,2024-12-27T17:53:53.879Z,165770,0.022644043,-0.11260986,0.015563965
1735322033885,2024-12-27T17:53:53.885Z,165776,0.022094727,-0.11425781,0.014526367
1735322033890,2024-12-27T17:53:53.890Z,165781,0.024291992,-0.11657715,0.01763916
1735322033895,2024-12-27T17:53:53.895Z,165786,0.020751953,-0.11444092,0.016052246
1735322033920,2024-12-27T17:53:53.920Z,165811,0.018981934,-0.11242676,0.014038086
1735322033966,2024-12-27T17:53:53.966Z,165857,0.01928711,-0.11206055,0.016540527
1735322033977,2024-12-27T17:53:53.977Z,165868,0.01928711,-0.115600586,0.014892578
1735322033988,2024-12-27T17:53:53.988Z,165879,0.018188477,-0.12017822,0.012878418
1735322034000,2024-12-27T17:53:54Z,165891,0.012145996,-0.1204834,0.012145996
1735322034013,2024-12-27T17:53:54.013Z,165904,0.011108398,-0.11645508,0.013122559
1735322034024,2024-12-27T17:53:54.024Z,165915,0.014953613,-0.11352539,0.014099121
1735322034039,2024-12-27T17:53:54.039Z,165930,0.015563965,-0.11505127,0.014953613
1735322034046,2024-12-27T17:53:54.046Z,165937,0.014587402,-0.113708496,0.014038086
1735322034052,2024-12-27T17:53:54.052Z,165943,0.018127441,-0.11437988,0.012573242
1735322034057,2024-12-27T17:53:54.057Z,165948,0.023742676,-0.1171875,0.013061523
1735322034062,2024-12-27T17:53:54.062Z,165953,0.027282715,-0.11816406,0.013366699
1735322034071,2024-12-27T17:53:54.071Z,165962,0.027893066,-0.11993408,0.013061523
1735322034076,2024-12-27T17:53:54.076Z,165967,0.02722168,-0.12011719,0.01171875
1735322034081,2024-12-27T17:53:54.081Z,165972,0.028198242,-0.11981201,0.01171875
1735322034086,2024-12-27T17:53:54.086Z,165977,0.029052734,-0.11846924,0.01361084
1735322034091,2024-12-27T17:53:54.091Z,165982,0.030090332,-0.11663818,0.01373291
1735322034099,2024-12-27T17:53:54.099Z,165990,0.02746582,-0.11798096,0.012145996
1735322034105,2024-12-27T17:53:54.105Z,165996,0.024475098,-0.12176514,0.014038086
1735322034110,2024-12-27T17:53:54.110Z,166001,0.02368164,-0.12438965,0.013427734
1735322034115,2024-12-27T17:53:54.115Z,166006,0.024108887,-0.1227417,0.014160156
1735322034147,2024-12-27T17:53:54.147Z,166038,0.022338867,-0.119262695,0.015197754
1735322034153,2024-12-27T17:53:54.153Z,166044,0.018981934,-0.11968994,0.014953613
1735322034158,2024-12-27T17:53:54.158Z,166049,0.02166748,-0.1217041,0.017456055
1735322034163,2024-12-27T17:53:54.163Z,166054,0.024597168,-0.12060547,0.018615723
1735322034169,2024-12-27T17:53:54.169Z,166060,0.023742676,-0.116760254,0.015686035
1735322034190,2024-12-27T17:53:54.190Z,166081,0.022277832,-0.1138916,0.015808105
1735322034195,2024-12-27T17:53:54.195Z,166086,0.022033691,-0.11645508,0.019470215
1735322034201,2024-12-27T17:53:54.201Z,166092,0.021850586,-0.12158203,0.020874023
1735322034207,2024-12-27T17:53:54.207Z,166098,0.022033691,-0.12298584,0.021728516
1735322034212,2024-12-27T17:53:54.212Z,166103,0.022949219,-0.12023926,0.019226074
1735322034217,2024-12-27T17:53:54.217Z,166108,0.023864746,-0.117126465,0.017822266
1735322034239,2024-12-27T17:53:54.239Z,166130,0.02355957,-0.11627197,0.015808105
1735322034245,2024-12-27T17:53:54.245Z,166136,0.021728516,-0.117248535,0.014587402
1735322034250,2024-12-27T17:53:54.250Z,166141,0.01940918,-0.119628906,0.016296387
1735322034371,2024-12-27T17:53:54.371Z,166262,0.018920898,-0.12182617,0.015930176
1735322034378,2024-12-27T17:53:54.378Z,166269,0.021118164,-0.12200928,0.017150879
1735322034384,2024-12-27T17:53:54.384Z,166275,0.02166748,-0.11859131,0.017822266
1735322034463,2024-12-27T17:53:54.463Z,166354,0.019714355,-0.115234375,0.013977051
1735322034474,2024-12-27T17:53:54.474Z,166365,0.02178955,-0.114868164,0.01159668
1735322034489,2024-12-27T17:53:54.489Z,166380,0.025756836,-0.11444092,0.011230469
1735322034498,2024-12-27T17:53:54.498Z,166389,0.023620605,-0.1138916,0.010375977
1735322034506,2024-12-27T17:53:54.506Z,166397,0.021362305,-0.115722656,0.011230469
1735322034514,2024-12-27T17:53:54.514Z,166405,0.02508545,-0.11816406,0.013122559
1735322034522,2024-12-27T17:53:54.522Z,166413,0.023498535,-0.11669922,0.015258789
1735322034530,2024-12-27T17:53:54.530Z,166421,0.018188477,-0.113220215,0.013244629
1735322034538,2024-12-27T17:53:54.538Z,166429,0.018798828,-0.11553955,0.011108398
1735322034541,2024-12-27T17:53:54.541Z,166432,0.019104004,-0.11657715,0.019042969
1735322034553,2024-12-27T17:53:54.553Z,166444,0.017700195,-0.11810303,0.015197754
1735322034559,2024-12-27T17:53:54.559Z,166450,0.016479492,-0.12072754,0.009094238
1735322034563,2024-12-27T17:53:54.563Z,166454,0.013916016,-0.10076904,0.028503418
1735322034568,2024-12-27T17:53:54.568Z,166459,0.007080078,-0.090148926,0.024597168
1735322034574,2024-12-27T17:53:54.574Z,166465,0.006713867,-0.08996582,0.028564453
1735322034640,2024-12-27T17:53:54.640Z,166531,0.018737793,-0.09753418,0.031311035
1735322034686,2024-12-27T17:53:54.686Z,166577,0.034240723,-0.11407471,0.032409668
1735322034693,2024-12-27T17:53:54.693Z,166584,0.032226562,-0.12963867,0.022155762
1735322034698,2024-12-27T17:53:54.698Z,166589,0.028381348,-0.1305542,0.012207031
1735322034704,2024-12-27T17:53:54.704Z,166595,0.024963379,-0.119262695,0.0075683594
1735322034709,2024-12-27T17:53:54.709Z,166600,0.019042969,-0.103759766,0.005859375
1735322034714,2024-12-27T17:53:54.714Z,166605,0.0138549805,-0.092041016,0.0048217773
1735322034735,2024-12-27T17:53:54.735Z,166626,0.011474609,-0.089782715,0.008422852
1735322034742,2024-12-27T17:53:54.742Z,166633,0.015258789,-0.09625244,0.0126953125
1735322034749,2024-12-27T17:53:54.749Z,166640,0.018066406,-0.1027832,0.012817383
1735322034755,2024-12-27T17:53:54.755Z,166646,0.014587402,-0.10357666,0.009094238
1735322034760,2024-12-27T17:53:54.760Z,166651,0.0099487305,-0.09716797,0.009094238
1735322034762,2024-12-27T17:53:54.762Z,166653,0.029541016,-0.11633301,0.015380859
1735322034774,2024-12-27T17:53:54.774Z,166665,0.013183594,-0.08843994,0.008300781
1735322034777,2024-12-27T17:53:54.777Z,166668,0.024536133,-0.095581055,0.012573242
1735322034782,2024-12-27T17:53:54.782Z,166673,0.022399902,-0.10412598,0.004638672
1735322034789,2024-12-27T17:53:54.789Z,166680,0.022766113,-0.11022949,-0.0020141602
1735322034794,2024-12-27T17:53:54.794Z,166685,0.0234375,-0.11730957,0.004638672
1735322034799,2024-12-27T17:53:54.799Z,166690,0.016723633,-0.118774414,0.0053710938
1735322034821,2024-12-27T17:53:54.821Z,166712,0.013793945,-0.11187744,-0.0016479492
1735322034827,2024-12-27T17:53:54.827Z,166718,0.017333984,-0.10858154,-0.004699707
1735322034834,2024-12-27T17:53:54.834Z,166725,0.02532959,-0.11029053,0.0067749023
1735322034867,2024-12-27T17:53:54.867Z,166758,0.032287598,-0.110961914,0.004211426
1735322034873,2024-12-27T17:53:54.873Z,166764,0.018615723,-0.11126709,-0.0020751953
1735322034880,2024-12-27T17:53:54.880Z,166771,-0.0021362305,-0.110839844,1.2207031E-4
1735322034887,2024-12-27T17:53:54.887Z,166778,-0.0049438477,-0.10723877,0.007507324
1735322034895,2024-12-27T17:53:54.895Z,166786,0.008911133,-0.11260986,0.0032348633
1735322034902,2024-12-27T17:53:54.902Z,166793,0.015808105,-0.122558594,0.0018920898
1735322034915,2024-12-27T17:53:54.915Z,166806,0.018615723,-0.12200928,0.006225586
1735322034921,2024-12-27T17:53:54.921Z,166812,0.0134887695,-0.10870361,0.007751465
1735322034929,2024-12-27T17:53:54.929Z,166820,0.0028686523,-0.09692383,0.0064697266
1735322034935,2024-12-27T17:53:54.935Z,166826,0.008850098,-0.09777832,9.1552734E-4
1735322034941,2024-12-27T17:53:54.941Z,166832,0.020263672,-0.10870361,-6.713867E-4
1735322034954,2024-12-27T17:53:54.954Z,166845,0.018432617,-0.10784912,-0.009277344
1735322034960,2024-12-27T17:53:54.960Z,166851,0.01171875,-0.10333252,-0.008422852
1735322034965,2024-12-27T17:53:54.965Z,166856,0.007446289,-0.11077881,-0.002319336
1735322034971,2024-12-27T17:53:54.971Z,166862,0.009216309,-0.12249756,-6.1035156E-5
1735322034976,2024-12-27T17:53:54.976Z,166867,0.016418457,-0.12927246,7.324219E-4
1735322034980,2024-12-27T17:53:54.980Z,166871,0.018310547,-0.12738037,-0.004760742
1735322035003,2024-12-27T17:53:55.003Z,166894,0.0032958984,-0.11590576,-0.010009766
1735322035008,2024-12-27T17:53:55.008Z,166899,-0.00390625,-0.10583496,-0.003112793
1735322035014,2024-12-27T17:53:55.014Z,166905,-0.005126953,-0.10626221,0.0068359375
1735322035019,2024-12-27T17:53:55.019Z,166910,4.272461E-4,-0.11224365,0.010498047
1735322035025,2024-12-27T17:53:55.025Z,166916,0.0068359375,-0.11529541,0.012451172
1735322035045,2024-12-27T17:53:55.045Z,166936,0.007446289,-0.11175537,0.013183594
1735322035050,2024-12-27T17:53:55.050Z,166941,0.007080078,-0.10571289,0.013671875
1735322035055,2024-12-27T17:53:55.055Z,166946,0.0071411133,-0.10498047,0.011047363
1735322035060,2024-12-27T17:53:55.060Z,166951,0.011169434,-0.11053467,0.007507324
1735322035065,2024-12-27T17:53:55.065Z,166956,0.004760742,-0.116882324,0.006286621
1735322035092,2024-12-27T17:53:55.092Z,166983,0.002380371,-0.12963867,0.009887695
1735322035098,2024-12-27T17:53:55.098Z,166989,0.0067749023,-0.14117432,0.012573242
1735322035139,2024-12-27T17:53:55.139Z,167030,0.003967285,-0.13366699,0.006225586
1735322035145,2024-12-27T17:53:55.145Z,167036,0.007446289,-0.12780762,-0.0029296875
1735322035273,2024-12-27T17:53:55.273Z,167164,0.011657715,-0.12554932,-0.0020141602
1735322035279,2024-12-27T17:53:55.279Z,167170,0.01550293,-0.12219238,0.01171875
1735322035284,2024-12-27T17:53:55.284Z,167175,0.013122559,-0.120666504,0.002319336
1735322035290,2024-12-27T17:53:55.290Z,167181,0.012390137,-0.119018555,0.0033569336
1735322035297,2024-12-27T17:53:55.297Z,167188,0.017456055,-0.11602783,0.01184082
1735322035306,2024-12-27T17:53:55.306Z,167197,0.008605957,-0.11071777,0.014404297
1735322035320,2024-12-27T17:53:55.320Z,167211,-0.0059814453,-0.1182251,0.0072631836
1735322035328,2024-12-27T17:53:55.328Z,167219,-0.0031738281,-0.13165283,0.0038452148
1735322035336,2024-12-27T17:53:55.336Z,167227,9.765625E-4,-0.13232422,0.0040893555
1735322035344,2024-12-27T17:53:55.344Z,167235,0.009460449,-0.12884521,0.016357422
1735322035350,2024-12-27T17:53:55.350Z,167241,0.0045166016,-0.117248535,0.020385742
1735322035360,2024-12-27T17:53:55.360Z,167251,0.0021362305,-0.10803223,0.013366699
1735322035364,2024-12-27T17:53:55.364Z,167255,0.009277344,-0.12982178,0.025390625
1735322035370,2024-12-27T17:53:55.370Z,167261,0.0115356445,-0.12023926,0.035705566
1735322035375,2024-12-27T17:53:55.375Z,167266,0.012817383,-0.123535156,0.035217285
1735322035381,2024-12-27T17:53:55.381Z,167272,0.02331543,-0.13006592,0.03643799
1735322035387,2024-12-27T17:53:55.387Z,167278,0.027160645,-0.11529541,0.030334473
1735322035405,2024-12-27T17:53:55.405Z,167296,0.008239746,-0.09967041,0.02520752
1735322035410,2024-12-27T17:53:55.410Z,167301,-0.0036010742,-0.12237549,0.025024414
1735322035415,2024-12-27T17:53:55.415Z,167306,-0.0012817383,-0.15142822,0.020263672
1735322035421,2024-12-27T17:53:55.421Z,167312,0.0067749023,-0.14630127,0.018859863
1735322035426,2024-12-27T17:53:55.426Z,167317,0.00579834,-0.12927246,0.018188477
1735322035431,2024-12-27T17:53:55.431Z,167322,0.011169434,-0.12225342,0.0095825195
1735322035453,2024-12-27T17:53:55.453Z,167344,0.024597168,-0.11114502,0.010986328
1735322035501,2024-12-27T17:53:55.501Z,167392,0.03479004,-0.10131836,0.019348145
1735322035511,2024-12-27T17:53:55.511Z,167402,0.021911621,-0.10595703,0.018737793
1735322035526,2024-12-27T17:53:55.526Z,167417,0.009460449,-0.11413574,0.018127441
1735322035534,2024-12-27T17:53:55.534Z,167425,0.0015258789,-0.12597656,0.0079956055
1735322035541,2024-12-27T17:53:55.541Z,167432,-0.004638672,-0.13366699,0.0040893555
1735322035590,2024-12-27T17:53:55.590Z,167481,0.0021972656,-0.13964844,0.01550293
1735322035600,2024-12-27T17:53:55.600Z,167491,0.0076293945,-0.13464355,0.022583008
1735322035611,2024-12-27T17:53:55.611Z,167502,0.017944336,-0.11730957,0.031921387
1735322035619,2024-12-27T17:53:55.619Z,167510,0.034057617,-0.10235596,0.04119873
1735322035627,2024-12-27T17:53:55.627Z,167518,0.01953125,-0.10095215,0.025878906
1735322035635,2024-12-27T17:53:55.635Z,167526,0.016784668,-0.113586426,0.024475098
1735322035642,2024-12-27T17:53:55.642Z,167533,0.029418945,-0.12420654,0.02960205
1735322035649,2024-12-27T17:53:55.649Z,167540,0.0211792,-0.12670898,0.03729248
1735322035655,2024-12-27T17:53:55.655Z,167546,9.1552734E-4,-0.13439941,0.028320312
1735322035661,2024-12-27T17:53:55.661Z,167552,-0.014221191,-0.15356445,0.015258789
