Timestamp (ms),ISO DateTime,Elapsed Time (ms),Acceleration X,Acceleration Y,Acceleration Z
1734713530633,2024-12-20T16:52:10.633Z,17740,0.005065918,-0.11846924,0.037841797
1734713530649,2024-12-20T16:52:10.649Z,17756,0.0043945312,-0.11859131,0.03869629
1734713530663,2024-12-20T16:52:10.663Z,17770,0.0038452148,-0.11791992,0.03753662
1734713530678,2024-12-20T16:52:10.678Z,17785,0.0032958984,-0.11657715,0.03753662
1734713530692,2024-12-20T16:52:10.692Z,17799,0.0016479492,-0.11450195,0.038024902
1734713530707,2024-12-20T16:52:10.707Z,17814,7.9345703E-4,-0.11450195,0.03881836
1734713530722,2024-12-20T16:52:10.722Z,17829,0.0015869141,-0.115112305,0.04083252
1734713530736,2024-12-20T16:52:10.736Z,17843,0.0016479492,-0.11608887,0.04095459
1734713530748,2024-12-20T16:52:10.748Z,17855,0.0018920898,-0.11816406,0.038024902
1734713530759,2024-12-20T16:52:10.759Z,17866,0.0025024414,-0.11871338,0.038635254
1734713530769,2024-12-20T16:52:10.769Z,17876,0.0024414062,-0.117004395,0.038391113
1734713530804,2024-12-20T16:52:10.804Z,17911,0.0028686523,-0.1159668,0.038024902
1734713530816,2024-12-20T16:52:10.816Z,17923,0.0026245117,-0.11553955,0.0390625
1734713530826,2024-12-20T16:52:10.826Z,17933,0.0028686523,-0.115722656,0.040161133
1734713530833,2024-12-20T16:52:10.833Z,17940,0.0034179688,-0.117126465,0.041809082
1734713530841,2024-12-20T16:52:10.841Z,17948,0.0031738281,-0.11785889,0.041259766
1734713530850,2024-12-20T16:52:10.850Z,17957,0.003479004,-0.11920166,0.038757324
1734713530898,2024-12-20T16:52:10.898Z,18005,0.0032958984,-0.11810303,0.037841797
1734713530907,2024-12-20T16:52:10.907Z,18014,0.003540039,-0.11621094,0.03692627
1734713530918,2024-12-20T16:52:10.918Z,18025,0.0038452148,-0.11529541,0.036193848
1734713530928,2024-12-20T16:52:10.928Z,18035,0.0041503906,-0.11553955,0.038269043
1734713530937,2024-12-20T16:52:10.937Z,18044,0.0043945312,-0.11706543,0.040527344
1734713530946,2024-12-20T16:52:10.946Z,18053,0.0044555664,-0.11853027,0.039367676
1734713530955,2024-12-20T16:52:10.955Z,18062,0.0048217773,-0.12023926,0.03894043
1734713530964,2024-12-20T16:52:10.964Z,18071,0.003540039,-0.119262695,0.038330078
1734713530972,2024-12-20T16:52:10.972Z,18079,0.0032348633,-0.11798096,0.035095215
1734713530981,2024-12-20T16:52:10.981Z,18088,0.0029907227,-0.11621094,0.034118652
1734713530988,2024-12-20T16:52:10.988Z,18095,0.0024414062,-0.11517334,0.03527832
1734713530992,2024-12-20T16:52:10.992Z,18099,0.0021972656,-0.1194458,0.038085938
1734713531000,2024-12-20T16:52:11Z,18107,0.0038452148,-0.11920166,0.03540039
1734713531008,2024-12-20T16:52:11.008Z,18115,0.0040893555,-0.11743164,0.03466797
1734713531016,2024-12-20T16:52:11.016Z,18123,0.002319336,-0.115600586,0.034484863
1734713531024,2024-12-20T16:52:11.024Z,18131,0.0022583008,-0.11517334,0.0345459
1734713531032,2024-12-20T16:52:11.032Z,18139,0.004333496,-0.11529541,0.035949707
1734713531041,2024-12-20T16:52:11.041Z,18148,0.0037231445,-0.11651611,0.037841797
1734713531076,2024-12-20T16:52:11.076Z,18183,0.0026855469,-0.11810303,0.03918457
1734713531086,2024-12-20T16:52:11.086Z,18193,0.003540039,-0.11987305,0.03765869
1734713531095,2024-12-20T16:52:11.095Z,18202,0.0032348633,-0.11981201,0.037353516
1734713531105,2024-12-20T16:52:11.105Z,18212,0.0026855469,-0.1182251,0.036865234
1734713531117,2024-12-20T16:52:11.117Z,18224,0.0029296875,-0.11663818,0.0357666
1734713531126,2024-12-20T16:52:11.126Z,18233,0.0015869141,-0.114746094,0.03741455
1734713531137,2024-12-20T16:52:11.137Z,18244,8.544922E-4,-0.114990234,0.037963867
1734713531147,2024-12-20T16:52:11.147Z,18254,0.0032348633,-0.11651611,0.039916992
1734713531157,2024-12-20T16:52:11.157Z,18264,0.0022583008,-0.11755371,0.04107666
1734713531167,2024-12-20T16:52:11.167Z,18274,0.0030517578,-0.119018555,0.040100098
1734713531175,2024-12-20T16:52:11.175Z,18282,0.0038452148,-0.118774414,0.038635254
1734713531184,2024-12-20T16:52:11.184Z,18291,0.0030517578,-0.11639404,0.03692627
1734713531193,2024-12-20T16:52:11.193Z,18300,0.0032348633,-0.115356445,0.036987305
1734713531202,2024-12-20T16:52:11.202Z,18309,0.0036621094,-0.114746094,0.036621094
1734713531212,2024-12-20T16:52:11.212Z,18319,0.0038452148,-0.115112305,0.035888672
1734713531221,2024-12-20T16:52:11.221Z,18328,0.0036010742,-0.11633301,0.03778076
1734713531231,2024-12-20T16:52:11.231Z,18338,0.0032958984,-0.11846924,0.040527344
1734713531241,2024-12-20T16:52:11.241Z,18348,0.003540039,-0.12017822,0.038757324
1734713531259,2024-12-20T16:52:11.259Z,18366,0.003540039,-0.121032715,0.036865234
1734713531268,2024-12-20T16:52:11.268Z,18375,0.0033569336,-0.11907959,0.035827637
1734713531303,2024-12-20T16:52:11.303Z,18410,0.0026855469,-0.11651611,0.03387451
1734713531312,2024-12-20T16:52:11.312Z,18419,0.0026245117,-0.11553955,0.034423828
1734713531322,2024-12-20T16:52:11.322Z,18429,0.0031738281,-0.11517334,0.037353516
1734713531330,2024-12-20T16:52:11.330Z,18437,0.0025634766,-0.11553955,0.039367676
1734713531338,2024-12-20T16:52:11.338Z,18445,0.002746582,-0.11694336,0.03967285
1734713531348,2024-12-20T16:52:11.348Z,18455,0.0028686523,-0.1182251,0.040100098
1734713531356,2024-12-20T16:52:11.356Z,18463,0.002746582,-0.1182251,0.038085938
1734713531364,2024-12-20T16:52:11.364Z,18471,0.0025634766,-0.11791992,0.03656006
1734713531372,2024-12-20T16:52:11.372Z,18479,0.0021362305,-0.11645508,0.0368042
1734713531379,2024-12-20T16:52:11.379Z,18486,0.0032348633,-0.11450195,0.037353516
1734713531387,2024-12-20T16:52:11.387Z,18494,0.0020141602,-0.113586426,0.038024902
1734713531395,2024-12-20T16:52:11.395Z,18502,-1.2207031E-4,-0.11645508,0.03845215
1734713531404,2024-12-20T16:52:11.404Z,18511,-6.713867E-4,-0.118652344,0.040100098
1734713531413,2024-12-20T16:52:11.413Z,18520,-0.0013427734,-0.11785889,0.04260254
1734713531421,2024-12-20T16:52:11.421Z,18528,-0.0026855469,-0.117370605,0.04119873
1734713531430,2024-12-20T16:52:11.430Z,18537,-0.0028686523,-0.11706543,0.042175293
1734713531440,2024-12-20T16:52:11.440Z,18547,-1.8310547E-4,-0.11468506,0.042114258
1734713531449,2024-12-20T16:52:11.449Z,18556,-0.0018310547,-0.11279297,0.042053223
1734713531458,2024-12-20T16:52:11.458Z,18565,-6.713867E-4,-0.111816406,0.042785645
1734713531467,2024-12-20T16:52:11.467Z,18574,-4.272461E-4,-0.11407471,0.04296875
1734713531476,2024-12-20T16:52:11.476Z,18583,0.002319336,-0.11645508,0.044128418
1734713531484,2024-12-20T16:52:11.484Z,18591,0.0030517578,-0.11663818,0.041870117
1734713531493,2024-12-20T16:52:11.493Z,18600,0.0052490234,-0.116882324,0.041992188
1734713531502,2024-12-20T16:52:11.502Z,18609,0.0076293945,-0.11639404,0.046081543
1734713531511,2024-12-20T16:52:11.511Z,18618,0.010559082,-0.12030029,0.04638672
1734713531520,2024-12-20T16:52:11.520Z,18627,0.012023926,-0.122924805,0.04638672
1734713531529,2024-12-20T16:52:11.529Z,18636,0.012573242,-0.12207031,0.04626465
1734713531538,2024-12-20T16:52:11.538Z,18645,0.00970459,-0.117614746,0.043151855
1734713531548,2024-12-20T16:52:11.548Z,18655,0.0057373047,-0.11395264,0.038146973
1734713531559,2024-12-20T16:52:11.559Z,18666,0.0073242188,-0.111450195,0.036499023
1734713531570,2024-12-20T16:52:11.570Z,18677,-0.0028076172,-0.10736084,0.032470703
1734713531578,2024-12-20T16:52:11.578Z,18685,-0.0030517578,-0.11114502,0.03265381
1734713531587,2024-12-20T16:52:11.587Z,18694,-7.9345703E-4,-0.11138916,0.038391113
1734713531597,2024-12-20T16:52:11.597Z,18704,-0.0068969727,-0.115356445,0.04272461
1734713531606,2024-12-20T16:52:11.606Z,18713,-0.004760742,-0.11785889,0.04144287
1734713531619,2024-12-20T16:52:11.619Z,18726,-0.0033569336,-0.11376953,0.034606934
1734713531627,2024-12-20T16:52:11.627Z,18734,-0.004272461,-0.10974121,0.03289795
1734713531636,2024-12-20T16:52:11.636Z,18743,-0.0037841797,-0.101257324,0.031921387
1734713531645,2024-12-20T16:52:11.645Z,18752,-0.0015258789,-0.09716797,0.030151367
1734713531654,2024-12-20T16:52:11.654Z,18761,0.0048217773,-0.09899902,0.03387451
1734713531663,2024-12-20T16:52:11.663Z,18770,0.004272461,-0.10369873,0.041809082
1734713531670,2024-12-20T16:52:11.670Z,18777,0.0025024414,-0.10723877,0.04626465
1734713531680,2024-12-20T16:52:11.680Z,18787,7.324219E-4,-0.11053467,0.039916992
1734713531688,2024-12-20T16:52:11.688Z,18795,0.0028686523,-0.11077881,0.034362793
1734713531697,2024-12-20T16:52:11.697Z,18804,-0.002746582,-0.10803223,0.033569336
1734713531707,2024-12-20T16:52:11.707Z,18814,-0.001159668,-0.10522461,0.035583496
1734713531715,2024-12-20T16:52:11.715Z,18822,0.0028686523,-0.10247803,0.03479004
1734713531753,2024-12-20T16:52:11.753Z,18860,0.0037841797,-0.10058594,0.034118652
1734713531761,2024-12-20T16:52:11.761Z,18868,-0.0036010742,-0.10040283,0.036132812
1734713531770,2024-12-20T16:52:11.770Z,18877,-0.004638672,-0.10168457,0.040893555
1734713531778,2024-12-20T16:52:11.778Z,18885,-0.010681152,-0.10192871,0.04296875
1734713531785,2024-12-20T16:52:11.785Z,18892,-0.010009766,-0.10418701,0.03845215
1734713531793,2024-12-20T16:52:11.793Z,18900,-0.00592041,-0.10369873,0.039001465
1734713531802,2024-12-20T16:52:11.802Z,18909,-0.006591797,-0.09710693,0.03363037
1734713531810,2024-12-20T16:52:11.810Z,18917,-0.005493164,-0.0949707,0.0335083
1734713531818,2024-12-20T16:52:11.818Z,18925,-0.0041503906,-0.097595215,0.038146973
1734713531825,2024-12-20T16:52:11.825Z,18932,-0.002380371,-0.10168457,0.040405273
1734713531833,2024-12-20T16:52:11.833Z,18940,-0.0012817383,-0.10192871,0.039733887
1734713531843,2024-12-20T16:52:11.843Z,18950,6.1035156E-4,-0.101745605,0.040039062
1734713531853,2024-12-20T16:52:11.853Z,18960,-0.0025024414,-0.0993042,0.039489746
1734713531883,2024-12-20T16:52:11.883Z,18990,-0.0026245117,-0.10357666,0.036987305
1734713531890,2024-12-20T16:52:11.890Z,18997,-0.0017700195,-0.111694336,0.036743164
1734713531927,2024-12-20T16:52:11.927Z,19034,-0.0028686523,-0.1171875,0.03656006
1734713532032,2024-12-20T16:52:12.032Z,19139,-0.004638672,-0.12371826,0.038635254
1734713532047,2024-12-20T16:52:12.047Z,19154,-6.1035156E-4,-0.12652588,0.03942871
1734713532059,2024-12-20T16:52:12.059Z,19166,0.0061035156,-0.11529541,0.03845215
1734713532072,2024-12-20T16:52:12.072Z,19179,0.009277344,-0.10864258,0.03845215
1734713532082,2024-12-20T16:52:12.082Z,19189,0.010253906,-0.1060791,0.040405273
1734713532094,2024-12-20T16:52:12.094Z,19201,0.0021972656,-0.100097656,0.037902832
1734713532108,2024-12-20T16:52:12.108Z,19215,-5.493164E-4,-0.10028076,0.039611816
1734713532117,2024-12-20T16:52:12.117Z,19224,-0.0043945312,-0.103271484,0.047180176
1734713532127,2024-12-20T16:52:12.127Z,19234,-0.0068969727,-0.107543945,0.047058105
1734713532135,2024-12-20T16:52:12.135Z,19242,-0.0056152344,-0.111572266,0.047668457
1734713532144,2024-12-20T16:52:12.144Z,19251,-0.003112793,-0.11431885,0.05218506
1734713532148,2024-12-20T16:52:12.148Z,19255,-0.011230469,-0.110839844,0.0513916
1734713532156,2024-12-20T16:52:12.156Z,19263,-0.013427734,-0.11224365,0.04724121
1734713532164,2024-12-20T16:52:12.164Z,19271,-0.016235352,-0.11376953,0.03930664
1734713532171,2024-12-20T16:52:12.171Z,19278,-0.010681152,-0.1071167,0.03552246
1734713532178,2024-12-20T16:52:12.178Z,19285,-0.016418457,-0.09460449,0.036865234
1734713532185,2024-12-20T16:52:12.185Z,19292,-0.010864258,-0.09710693,0.039489746
1734713532203,2024-12-20T16:52:12.203Z,19310,-2.4414062E-4,-0.10058594,0.044189453
1734713532224,2024-12-20T16:52:12.224Z,19331,0.0029296875,-0.10266113,0.04071045
1734713532241,2024-12-20T16:52:12.241Z,19348,0.0016479492,-0.10559082,0.034240723
1734713532255,2024-12-20T16:52:12.255Z,19362,-0.005859375,-0.105041504,0.036254883
1734713532270,2024-12-20T16:52:12.270Z,19377,-0.01776123,-0.099609375,0.034179688
1734713532284,2024-12-20T16:52:12.284Z,19391,-0.024108887,-0.10095215,0.03692627
1734713532298,2024-12-20T16:52:12.298Z,19405,-0.020874023,-0.11859131,0.041992188
1734713532338,2024-12-20T16:52:12.338Z,19445,-0.017028809,-0.115478516,0.039489746
1734713532353,2024-12-20T16:52:12.353Z,19460,-0.016845703,-0.09967041,0.0446167
1734713532363,2024-12-20T16:52:12.363Z,19470,-0.011230469,-0.096069336,0.048461914
1734713532371,2024-12-20T16:52:12.371Z,19478,-0.0010986328,-0.101379395,0.044677734
1734713532379,2024-12-20T16:52:12.379Z,19486,-0.004272461,-0.10498047,0.0423584
1734713532387,2024-12-20T16:52:12.387Z,19494,-0.006286621,-0.106933594,0.042785645
1734713532394,2024-12-20T16:52:12.394Z,19501,-0.009338379,-0.10998535,0.040405273
1734713532401,2024-12-20T16:52:12.401Z,19508,-0.007019043,-0.116760254,0.042663574
1734713532424,2024-12-20T16:52:12.424Z,19531,-0.020019531,-0.11328125,0.038208008
1734713532432,2024-12-20T16:52:12.432Z,19539,-0.025512695,-0.113098145,0.040283203
1734713532440,2024-12-20T16:52:12.440Z,19547,-0.024047852,-0.11126709,0.042297363
1734713532468,2024-12-20T16:52:12.468Z,19575,-0.009887695,-0.11413574,0.030822754
1734713532472,2024-12-20T16:52:12.472Z,19579,-0.012329102,-0.10864258,0.04333496
1734713532479,2024-12-20T16:52:12.479Z,19586,-0.024963379,-0.11303711,0.044006348
1734713532486,2024-12-20T16:52:12.486Z,19593,-0.018859863,-0.11175537,0.049682617
1734713532493,2024-12-20T16:52:12.493Z,19600,-0.0087890625,-0.118774414,0.04937744
1734713532502,2024-12-20T16:52:12.502Z,19609,-0.013549805,-0.12738037,0.047790527
1734713532512,2024-12-20T16:52:12.512Z,19619,-0.017211914,-0.124694824,0.042663574
1734713532521,2024-12-20T16:52:12.521Z,19628,-0.014404297,-0.11932373,0.0368042
1734713532538,2024-12-20T16:52:12.538Z,19645,-0.0138549805,-0.11846924,0.032470703
1734713532547,2024-12-20T16:52:12.547Z,19654,-0.014587402,-0.11431885,0.035827637
1734713532550,2024-12-20T16:52:12.550Z,19657,-0.004638672,-0.10235596,0.036315918
1734713532558,2024-12-20T16:52:12.558Z,19665,-0.011413574,-0.09082031,0.03704834
1734713532565,2024-12-20T16:52:12.565Z,19672,-0.019042969,-0.08947754,0.04333496
1734713532569,2024-12-20T16:52:12.569Z,19676,-0.030883789,-0.11566162,0.034484863
1734713532577,2024-12-20T16:52:12.577Z,19684,-0.024963379,-0.118774414,0.03881836
1734713532586,2024-12-20T16:52:12.586Z,19693,-0.04333496,-0.12420654,0.037353516
1734713532594,2024-12-20T16:52:12.594Z,19701,-0.031311035,-0.122558594,0.031188965
1734713532601,2024-12-20T16:52:12.601Z,19708,-0.011413574,-0.099731445,0.03265381
1734713532608,2024-12-20T16:52:12.608Z,19715,-0.022338867,-0.094055176,0.033813477
1734713532616,2024-12-20T16:52:12.616Z,19723,-0.017700195,-0.11395264,0.040893555
1734713532698,2024-12-20T16:52:12.698Z,19805,-0.027709961,-0.13781738,0.038208008
1734713532705,2024-12-20T16:52:12.705Z,19812,-0.024780273,-0.14172363,0.038391113
1734713532745,2024-12-20T16:52:12.745Z,19852,-0.020507812,-0.11450195,0.04888916
1734713532753,2024-12-20T16:52:12.753Z,19860,-0.028686523,-0.10644531,0.044555664
1734713532764,2024-12-20T16:52:12.764Z,19871,-0.026855469,-0.101257324,0.035949707
1734713532772,2024-12-20T16:52:12.772Z,19879,-0.005493164,-0.10900879,0.039001465
1734713532782,2024-12-20T16:52:12.782Z,19889,-1.2207031E-4,-0.13092041,0.03729248
1734713532791,2024-12-20T16:52:12.791Z,19898,-0.01373291,-0.14477539,0.0435791
1734713532798,2024-12-20T16:52:12.798Z,19905,-0.02722168,-0.13739014,0.043518066
1734713532806,2024-12-20T16:52:12.806Z,19913,-0.015319824,-0.12097168,0.032836914
1734713532814,2024-12-20T16:52:12.814Z,19921,-0.013793945,-0.10430908,0.033081055
1734713532821,2024-12-20T16:52:12.821Z,19928,-0.0115356445,-0.115112305,0.04284668
1734713532827,2024-12-20T16:52:12.827Z,19934,-0.010437012,-0.13256836,0.042236328
1734713532880,2024-12-20T16:52:12.880Z,19987,-0.009643555,-0.12524414,0.05267334
1734713532884,2024-12-20T16:52:12.884Z,19991,-0.019226074,-0.13519287,0.05645752
1734713532892,2024-12-20T16:52:12.892Z,19999,-0.012878418,-0.13586426,0.055847168
1734713532900,2024-12-20T16:52:12.900Z,20007,-0.023132324,-0.12463379,0.050720215
1734713532909,2024-12-20T16:52:12.909Z,20016,-0.018249512,-0.1296997,0.062194824
1734713532916,2024-12-20T16:52:12.916Z,20023,-0.015319824,-0.13024902,0.063964844
1734713532970,2024-12-20T16:52:12.970Z,20077,-0.0076904297,-0.11621094,0.06097412
1734713533019,2024-12-20T16:52:13.019Z,20126,-0.0029907227,-0.111816406,0.06335449
1734713533065,2024-12-20T16:52:13.065Z,20172,-0.008117676,-0.12402344,0.05230713
1734713533080,2024-12-20T16:52:13.080Z,20187,-0.0075683594,-0.13238525,0.03552246
1734713533091,2024-12-20T16:52:13.091Z,20198,-0.019958496,-0.11657715,0.0357666
1734713533102,2024-12-20T16:52:13.102Z,20209,-0.028625488,-0.105163574,0.040222168
1734713533192,2024-12-20T16:52:13.192Z,20299,0.0020141602,-0.12738037,0.04864502
1734713533202,2024-12-20T16:52:13.202Z,20309,-0.008605957,-0.12957764,0.04711914
1734713533214,2024-12-20T16:52:13.214Z,20321,0.0049438477,-0.13555908,0.04321289
1734713533225,2024-12-20T16:52:13.225Z,20332,0.015136719,-0.1305542,0.043945312
1734713533238,2024-12-20T16:52:13.238Z,20345,0.018432617,-0.12719727,0.041931152
1734713533249,2024-12-20T16:52:13.249Z,20356,0.015930176,-0.1204834,0.04864502
1734713533253,2024-12-20T16:52:13.253Z,20360,-0.019470215,-0.1274414,0.038208008
1734713533263,2024-12-20T16:52:13.263Z,20370,0.0138549805,-0.1194458,0.046142578
1734713533272,2024-12-20T16:52:13.272Z,20379,0.034057617,-0.10546875,0.07885742
1734713533329,2024-12-20T16:52:13.329Z,20436,0.043823242,-0.107666016,0.09069824
1734713533338,2024-12-20T16:52:13.338Z,20445,0.027832031,-0.109802246,0.09875488
1734713533348,2024-12-20T16:52:13.348Z,20455,0.015563965,-0.1126709,0.08691406
1734713533357,2024-12-20T16:52:13.357Z,20464,0.019958496,-0.115112305,0.09527588
1734713533373,2024-12-20T16:52:13.373Z,20480,0.029296875,-0.11590576,0.09124756
1734713533382,2024-12-20T16:52:13.382Z,20489,0.02758789,-0.10974121,0.077941895
1734713533389,2024-12-20T16:52:13.389Z,20496,0.020874023,-0.11352539,0.07531738
1734713533398,2024-12-20T16:52:13.398Z,20505,0.022583008,-0.11407471,0.072509766
1734713533405,2024-12-20T16:52:13.405Z,20512,0.031982422,-0.10986328,0.07385254
1734713533413,2024-12-20T16:52:13.413Z,20520,0.031188965,-0.107910156,0.08850098
1734713533421,2024-12-20T16:52:13.421Z,20528,0.01763916,-0.101745605,0.09313965
1734713533429,2024-12-20T16:52:13.429Z,20536,0.026855469,-0.10217285,0.077697754
1734713533464,2024-12-20T16:52:13.464Z,20571,0.021728516,-0.09436035,0.07952881
1734713533474,2024-12-20T16:52:13.474Z,20581,0.010192871,-0.09765625,0.06549072
1734713533482,2024-12-20T16:52:13.482Z,20589,0.008300781,-0.10235596,0.05218506
1734713533490,2024-12-20T16:52:13.490Z,20597,0.019104004,-0.11798096,0.05529785
1734713533497,2024-12-20T16:52:13.497Z,20604,0.01940918,-0.099609375,0.061645508
1734713533507,2024-12-20T16:52:13.507Z,20614,0.019348145,-0.083740234,0.06750488
1734713533515,2024-12-20T16:52:13.515Z,20622,0.0211792,-0.08648682,0.06958008
1734713533522,2024-12-20T16:52:13.522Z,20629,0.0115356445,-0.10443115,0.073913574
1734713533531,2024-12-20T16:52:13.531Z,20638,0.001159668,-0.11340332,0.06121826
1734713533540,2024-12-20T16:52:13.540Z,20647,7.324219E-4,-0.10241699,0.052612305
1734713533553,2024-12-20T16:52:13.553Z,20660,0.013244629,-0.09851074,0.062805176
1734713533561,2024-12-20T16:52:13.561Z,20668,0.020568848,-0.099365234,0.068237305
1734713533571,2024-12-20T16:52:13.571Z,20678,0.021240234,-0.091552734,0.07299805
1734713533579,2024-12-20T16:52:13.579Z,20686,0.014343262,-0.10357666,0.07867432
1734713533587,2024-12-20T16:52:13.587Z,20694,0.009765625,-0.122680664,0.08154297
1734713533596,2024-12-20T16:52:13.596Z,20703,0.016296387,-0.124816895,0.07305908
1734713533606,2024-12-20T16:52:13.606Z,20713,0.020935059,-0.11236572,0.06695557
1734713533618,2024-12-20T16:52:13.618Z,20725,0.024291992,-0.105529785,0.07421875
1734713533627,2024-12-20T16:52:13.627Z,20734,0.007873535,-0.089782715,0.067871094
1734713533635,2024-12-20T16:52:13.635Z,20742,0.006713867,-0.095947266,0.08355713
1734713533644,2024-12-20T16:52:13.644Z,20751,0.02130127,-0.13769531,0.0949707
1734713533652,2024-12-20T16:52:13.652Z,20759,0.014709473,-0.14837646,0.0791626
1734713533659,2024-12-20T16:52:13.659Z,20766,-0.007080078,-0.10876465,0.05596924
1734713533666,2024-12-20T16:52:13.666Z,20773,-0.017578125,-0.08453369,0.05102539
1734713533675,2024-12-20T16:52:13.675Z,20782,0.016174316,-0.09979248,0.061279297
1734713533683,2024-12-20T16:52:13.683Z,20790,0.013793945,-0.105651855,0.06011963
1734713533691,2024-12-20T16:52:13.691Z,20798,-0.01171875,-0.103637695,0.0690918
1734713533699,2024-12-20T16:52:13.699Z,20806,-0.0026245117,-0.12188721,0.083862305
1734713533706,2024-12-20T16:52:13.706Z,20813,0.00579834,-0.12432861,0.08544922
1734713533714,2024-12-20T16:52:13.714Z,20821,0.0045166016,-0.12347412,0.061950684
1734713533722,2024-12-20T16:52:13.722Z,20829,9.1552734E-4,-0.13232422,0.045959473
1734713533731,2024-12-20T16:52:13.731Z,20838,0.013305664,-0.12426758,0.055541992
1734713533738,2024-12-20T16:52:13.738Z,20845,0.022216797,-0.11138916,0.053710938
1734713533746,2024-12-20T16:52:13.746Z,20853,0.015930176,-0.10412598,0.05609131
1734713533754,2024-12-20T16:52:13.754Z,20861,0.012390137,-0.10925293,0.07714844
1734713533762,2024-12-20T16:52:13.762Z,20869,0.008483887,-0.12664795,0.070739746
1734713533770,2024-12-20T16:52:13.770Z,20877,-0.013549805,-0.13647461,0.04034424
1734713533780,2024-12-20T16:52:13.780Z,20887,-0.0032958984,-0.1260376,0.037353516
1734713533788,2024-12-20T16:52:13.788Z,20895,0.01159668,-0.09295654,0.04663086
1734713533797,2024-12-20T16:52:13.797Z,20904,0.017700195,-0.08331299,0.054626465
1734713533806,2024-12-20T16:52:13.806Z,20913,0.014404297,-0.114868164,0.06896973
1734713533816,2024-12-20T16:52:13.816Z,20923,0.0020141602,-0.14727783,0.078308105
1734713533863,2024-12-20T16:52:13.863Z,20970,-0.0076293945,-0.14685059,0.06738281
1734713533870,2024-12-20T16:52:13.870Z,20977,-0.012207031,-0.115112305,0.048034668
1734713533876,2024-12-20T16:52:13.876Z,20983,-0.0018920898,-0.084350586,0.0413208
1734713533884,2024-12-20T16:52:13.884Z,20991,0.008911133,-0.07800293,0.06060791
1734713533891,2024-12-20T16:52:13.891Z,20998,0.010314941,-0.10083008,0.06719971
1734713533898,2024-12-20T16:52:13.898Z,21005,0.005004883,-0.12591553,0.06384277
1734713533913,2024-12-20T16:52:13.913Z,21020,0.005554199,-0.1281128,0.07470703
1734713533920,2024-12-20T16:52:13.920Z,21027,0.010192871,-0.11199951,0.081848145
1734713533927,2024-12-20T16:52:13.927Z,21034,0.0034179688,-0.10089111,0.06317139
1734713533936,2024-12-20T16:52:13.936Z,21043,-0.007385254,-0.097595215,0.055725098
1734713533959,2024-12-20T16:52:13.959Z,21066,0.009643555,-0.10223389,0.06378174
1734713533966,2024-12-20T16:52:13.966Z,21073,0.004272461,-0.1104126,0.06323242
1734713533974,2024-12-20T16:52:13.974Z,21081,-0.008239746,-0.1204834,0.061157227
1734713533981,2024-12-20T16:52:13.981Z,21088,0.009277344,-0.12536621,0.070129395
1734713533990,2024-12-20T16:52:13.990Z,21097,0.033813477,-0.11602783,0.08337402
1734713533997,2024-12-20T16:52:13.997Z,21104,0.015319824,-0.09893799,0.05432129
1734713534005,2024-12-20T16:52:14.005Z,21112,-0.04449463,-0.09313965,0.012512207
1734713534011,2024-12-20T16:52:14.011Z,21118,-0.024475098,-0.10534668,0.030273438
1734713534019,2024-12-20T16:52:14.019Z,21126,-0.0022583008,-0.09692383,0.059631348
1734713534027,2024-12-20T16:52:14.027Z,21134,0.003540039,-0.09716797,0.06866455
1734713534035,2024-12-20T16:52:14.035Z,21142,0.0040283203,-0.12786865,0.07977295
1734713534047,2024-12-20T16:52:14.047Z,21154,0.011047363,-0.14770508,0.089660645
1734713534055,2024-12-20T16:52:14.055Z,21162,0.018310547,-0.1317749,0.07879639
1734713534062,2024-12-20T16:52:14.062Z,21169,-0.020202637,-0.093566895,0.029968262
1734713534070,2024-12-20T16:52:14.070Z,21177,-0.036193848,-0.066467285,0.040222168
1734713534077,2024-12-20T16:52:14.077Z,21184,7.324219E-4,-0.083984375,0.08459473
1734713534088,2024-12-20T16:52:14.088Z,21195,0.008666992,-0.12432861,0.0904541
1734713534096,2024-12-20T16:52:14.096Z,21203,-0.010192871,-0.13598633,0.083740234
1734713534103,2024-12-20T16:52:14.103Z,21210,-4.272461E-4,-0.13287354,0.08178711
1734713534111,2024-12-20T16:52:14.111Z,21218,0.0025634766,-0.12322998,0.06427002
1734713534119,2024-12-20T16:52:14.119Z,21226,-0.018371582,-0.098083496,0.04724121
1734713534135,2024-12-20T16:52:14.135Z,21242,-0.007446289,-0.080322266,0.057434082
1734713534143,2024-12-20T16:52:14.143Z,21250,0.0010375977,-0.09649658,0.06304932
1734713534152,2024-12-20T16:52:14.152Z,21259,-0.0026855469,-0.12530518,0.060424805
1734713534160,2024-12-20T16:52:14.160Z,21267,-0.013549805,-0.12634277,0.052856445
1734713534178,2024-12-20T16:52:14.178Z,21285,-0.0063476562,-0.120666504,0.048828125
1734713534186,2024-12-20T16:52:14.186Z,21293,-0.0071411133,-0.11773682,0.04437256
1734713534193,2024-12-20T16:52:14.193Z,21300,-0.0079956055,-0.10699463,0.043884277
1734713534200,2024-12-20T16:52:14.200Z,21307,-0.0025024414,-0.09387207,0.048095703
1734713534207,2024-12-20T16:52:14.207Z,21314,-0.011657715,-0.09832764,0.05218506
1734713534225,2024-12-20T16:52:14.225Z,21332,-0.019165039,-0.12237549,0.050964355
1734713534268,2024-12-20T16:52:14.268Z,21375,-0.009094238,-0.13433838,0.046081543
1734713534276,2024-12-20T16:52:14.276Z,21383,-0.0037841797,-0.11932373,0.043701172
1734713534285,2024-12-20T16:52:14.285Z,21392,0.0012817383,-0.10253906,0.04534912
1734713534295,2024-12-20T16:52:14.295Z,21402,0.0014648438,-0.10021973,0.043945312
1734713534304,2024-12-20T16:52:14.304Z,21411,-0.012268066,-0.10437012,0.042663574
1734713534313,2024-12-20T16:52:14.313Z,21420,-0.012084961,-0.11645508,0.04925537
1734713534322,2024-12-20T16:52:14.322Z,21429,-0.013549805,-0.12634277,0.052612305
1734713534329,2024-12-20T16:52:14.329Z,21436,-0.020996094,-0.1326294,0.04925537
1734713534457,2024-12-20T16:52:14.457Z,21564,-0.026794434,-0.12420654,0.04034424
1734713534466,2024-12-20T16:52:14.466Z,21573,-0.023925781,-0.09991455,0.037841797
1734713534475,2024-12-20T16:52:14.475Z,21582,-0.0031738281,-0.09539795,0.043518066
1734713534484,2024-12-20T16:52:14.484Z,21591,-0.002319336,-0.1026001,0.04748535
1734713534493,2024-12-20T16:52:14.493Z,21600,-0.013000488,-0.10473633,0.047302246
1734713534503,2024-12-20T16:52:14.503Z,21610,-0.00592041,-0.11279297,0.048339844
1734713534513,2024-12-20T16:52:14.513Z,21620,-0.0064697266,-0.111328125,0.0501709
1734713534522,2024-12-20T16:52:14.522Z,21629,-0.027770996,-0.103393555,0.04547119
1734713534532,2024-12-20T16:52:14.532Z,21639,-0.029052734,-0.11993408,0.042541504
1734713534541,2024-12-20T16:52:14.541Z,21648,-0.020019531,-0.124694824,0.044921875
1734713534549,2024-12-20T16:52:14.549Z,21656,-0.014282227,-0.10546875,0.048461914
1734713534553,2024-12-20T16:52:14.553Z,21660,-0.015686035,-0.1126709,0.054504395
1734713534560,2024-12-20T16:52:14.560Z,21667,-0.01586914,-0.11859131,0.061706543
1734713534567,2024-12-20T16:52:14.567Z,21674,-0.010498047,-0.12768555,0.058288574
1734713534574,2024-12-20T16:52:14.574Z,21681,-0.009460449,-0.117614746,0.056030273
1734713534581,2024-12-20T16:52:14.581Z,21688,-0.020080566,-0.11340332,0.05230713
1734713534628,2024-12-20T16:52:14.628Z,21735,-0.02557373,-0.12573242,0.05078125
1734713534636,2024-12-20T16:52:14.636Z,21743,-0.032104492,-0.12701416,0.044128418
1734713534643,2024-12-20T16:52:14.643Z,21750,-0.027832031,-0.12646484,0.04119873
1734713534652,2024-12-20T16:52:14.652Z,21759,-0.020324707,-0.12451172,0.04547119
1734713534659,2024-12-20T16:52:14.659Z,21766,-0.029296875,-0.11029053,0.04888916
1734713534673,2024-12-20T16:52:14.673Z,21780,-0.014770508,-0.11480713,0.05279541
1734713534679,2024-12-20T16:52:14.679Z,21786,-0.016296387,-0.10626221,0.050476074
1734713534721,2024-12-20T16:52:14.721Z,21828,-0.031921387,-0.10827637,0.04864502
1734713534727,2024-12-20T16:52:14.727Z,21834,-0.021606445,-0.13220215,0.045654297
1734713534735,2024-12-20T16:52:14.735Z,21842,-0.022888184,-0.12774658,0.036132812
1734713534743,2024-12-20T16:52:14.743Z,21850,-0.028503418,-0.11291504,0.038269043
1734713534752,2024-12-20T16:52:14.752Z,21859,-0.031555176,-0.11273193,0.040222168
1734713534756,2024-12-20T16:52:14.756Z,21863,-0.011352539,-0.12207031,0.044677734
1734713534763,2024-12-20T16:52:14.763Z,21870,-0.0059814453,-0.12554932,0.04034424
1734713534812,2024-12-20T16:52:14.812Z,21919,-0.019104004,-0.11621094,0.03765869
1734713534822,2024-12-20T16:52:14.822Z,21929,-0.035583496,-0.12298584,0.034118652
1734713534832,2024-12-20T16:52:14.832Z,21939,-0.033935547,-0.11907959,0.022827148
1734713534841,2024-12-20T16:52:14.841Z,21948,-0.02520752,-0.09716797,0.030822754
1734713534850,2024-12-20T16:52:14.850Z,21957,-0.021911621,-0.10656738,0.03765869
1734713534859,2024-12-20T16:52:14.859Z,21966,-0.015319824,-0.11517334,0.04498291
1734713534866,2024-12-20T16:52:14.866Z,21973,-0.026062012,-0.1161499,0.043151855
1734713534874,2024-12-20T16:52:14.874Z,21981,-0.028869629,-0.118652344,0.04815674
1734713534880,2024-12-20T16:52:14.880Z,21987,-0.03387451,-0.10595703,0.041809082
1734713534887,2024-12-20T16:52:14.887Z,21994,-0.041381836,-0.10021973,0.039978027
1734713534894,2024-12-20T16:52:14.894Z,22001,-0.03552246,-0.12011719,0.051879883
1734713534902,2024-12-20T16:52:14.902Z,22009,-0.023498535,-0.122924805,0.043640137
1734713534910,2024-12-20T16:52:14.910Z,22017,-0.018859863,-0.11206055,0.039001465
1734713534916,2024-12-20T16:52:14.916Z,22023,-0.020141602,-0.0982666,0.040405273
1734713534925,2024-12-20T16:52:14.925Z,22032,-0.028503418,-0.1071167,0.041992188
1734713534931,2024-12-20T16:52:14.931Z,22038,-0.034118652,-0.11602783,0.04638672
1734713534990,2024-12-20T16:52:14.990Z,22097,-0.030090332,-0.1171875,0.051086426
1734713534997,2024-12-20T16:52:14.997Z,22104,-0.031066895,-0.12322998,0.042785645
1734713535005,2024-12-20T16:52:15.005Z,22112,-0.034973145,-0.12512207,0.036865234
1734713535012,2024-12-20T16:52:15.012Z,22119,-0.014709473,-0.11016846,0.0413208
1734713535033,2024-12-20T16:52:15.033Z,22140,4.272461E-4,-0.09832764,0.040649414
1734713535042,2024-12-20T16:52:15.042Z,22149,-0.011352539,-0.10192871,0.0435791
1734713535049,2024-12-20T16:52:15.049Z,22156,-0.030334473,-0.105651855,0.04473877
1734713535078,2024-12-20T16:52:15.078Z,22185,-0.020568848,-0.115478516,0.04815674
1734713535085,2024-12-20T16:52:15.085Z,22192,-0.018066406,-0.121398926,0.042785645
1734713535092,2024-12-20T16:52:15.092Z,22199,-0.03515625,-0.12121582,0.02923584
1734713535099,2024-12-20T16:52:15.099Z,22206,-0.047790527,-0.11883545,0.026977539
1734713535107,2024-12-20T16:52:15.107Z,22214,-0.023986816,-0.112976074,0.030822754
1734713535114,2024-12-20T16:52:15.114Z,22221,-0.040405273,-0.103881836,0.03765869
1734713535126,2024-12-20T16:52:15.126Z,22233,-0.032165527,-0.10656738,0.037963867
1734713535132,2024-12-20T16:52:15.132Z,22239,-0.030822754,-0.11413574,0.035888672
1734713535140,2024-12-20T16:52:15.140Z,22247,-0.03741455,-0.12390137,0.032958984
1734713535143,2024-12-20T16:52:15.143Z,22250,-0.0289917,-0.11462402,0.031982422
1734713535150,2024-12-20T16:52:15.150Z,22257,-0.016845703,-0.10412598,0.036499023
1734713535157,2024-12-20T16:52:15.157Z,22264,-0.018310547,-0.10845947,0.03515625
1734713535260,2024-12-20T16:52:15.260Z,22367,-0.026855469,-0.10449219,0.045776367
1734713535307,2024-12-20T16:52:15.307Z,22414,-0.0234375,-0.11785889,0.044677734
1734713535323,2024-12-20T16:52:15.323Z,22430,-0.019836426,-0.11767578,0.038269043
1734713535362,2024-12-20T16:52:15.362Z,22469,-0.023010254,-0.10614014,0.03668213
1734713535396,2024-12-20T16:52:15.396Z,22503,-0.027709961,-0.10876465,0.03918457
1734713535412,2024-12-20T16:52:15.412Z,22519,-0.022705078,-0.122924805,0.036193848
1734713535428,2024-12-20T16:52:15.428Z,22535,-0.020751953,-0.11364746,0.032226562
1734713535445,2024-12-20T16:52:15.445Z,22552,-0.02709961,-0.10852051,0.038391113
1734713535461,2024-12-20T16:52:15.461Z,22568,-0.023254395,-0.12475586,0.04119873
1734713535468,2024-12-20T16:52:15.468Z,22575,-0.019592285,-0.1239624,0.03643799
1734713535476,2024-12-20T16:52:15.476Z,22583,-0.031311035,-0.121520996,0.035461426
1734713535483,2024-12-20T16:52:15.483Z,22590,-0.03564453,-0.12530518,0.032348633
1734713535486,2024-12-20T16:52:15.486Z,22593,-0.026306152,-0.11138916,0.03540039
1734713535493,2024-12-20T16:52:15.493Z,22600,-0.028747559,-0.117614746,0.046569824
1734713535499,2024-12-20T16:52:15.499Z,22606,-0.026123047,-0.11352539,0.046569824
1734713535502,2024-12-20T16:52:15.502Z,22609,-0.032043457,-0.11175537,0.038879395
1734713535509,2024-12-20T16:52:15.509Z,22616,-0.021850586,-0.11468506,0.0423584
1734713535512,2024-12-20T16:52:15.512Z,22619,-0.020507812,-0.12347412,0.041503906
1734713535518,2024-12-20T16:52:15.518Z,22625,-0.012817383,-0.10772705,0.03765869
1734713535527,2024-12-20T16:52:15.527Z,22634,-0.015075684,-0.09649658,0.031188965
1734713535530,2024-12-20T16:52:15.530Z,22637,-0.018005371,-0.107788086,0.028869629
1734713535536,2024-12-20T16:52:15.536Z,22643,-0.023376465,-0.10266113,0.026794434
1734713535542,2024-12-20T16:52:15.542Z,22649,-0.021362305,-0.11224365,0.024108887
1734713535547,2024-12-20T16:52:15.547Z,22654,-0.014038086,-0.12677002,0.02368164
1734713535553,2024-12-20T16:52:15.553Z,22660,-0.018371582,-0.11627197,0.024230957
1734713535573,2024-12-20T16:52:15.573Z,22680,-0.022094727,-0.10601807,0.025817871
1734713535580,2024-12-20T16:52:15.580Z,22687,-0.016784668,-0.109680176,0.020507812
1734713535586,2024-12-20T16:52:15.586Z,22693,-0.017150879,-0.10803223,0.01776123
1734713535593,2024-12-20T16:52:15.593Z,22700,-0.023742676,-0.12158203,0.028747559
1734713535599,2024-12-20T16:52:15.599Z,22706,-0.023986816,-0.13690186,0.031311035
1734713535606,2024-12-20T16:52:15.606Z,22713,-0.019042969,-0.12554932,0.031982422
1734713535709,2024-12-20T16:52:15.709Z,22816,-0.024108887,-0.11553955,0.035217285
1734713535716,2024-12-20T16:52:15.716Z,22823,-0.027526855,-0.11932373,0.033325195
1734713535722,2024-12-20T16:52:15.722Z,22829,-0.020202637,-0.11138916,0.03527832
1734713535729,2024-12-20T16:52:15.729Z,22836,-0.01574707,-0.10333252,0.036071777
1734713535737,2024-12-20T16:52:15.737Z,22844,-0.014465332,-0.113464355,0.03289795
1734713535751,2024-12-20T16:52:15.751Z,22858,-0.012512207,-0.11584473,0.04034424
1734713535760,2024-12-20T16:52:15.760Z,22867,-0.016418457,-0.11584473,0.045288086
1734713535768,2024-12-20T16:52:15.768Z,22875,-0.016540527,-0.12695312,0.039978027
1734713535775,2024-12-20T16:52:15.775Z,22882,-0.012878418,-0.12261963,0.03656006
1734713535781,2024-12-20T16:52:15.781Z,22888,-0.016235352,-0.10687256,0.038391113
1734713535788,2024-12-20T16:52:15.788Z,22895,-0.0146484375,-0.10406494,0.033081055
1734713535797,2024-12-20T16:52:15.797Z,22904,-0.015075684,-0.09588623,0.031982422
1734713535801,2024-12-20T16:52:15.801Z,22908,-0.020996094,-0.12194824,0.031799316
1734713535807,2024-12-20T16:52:15.807Z,22914,-0.018310547,-0.11773682,0.028686523
1734713535813,2024-12-20T16:52:15.813Z,22920,-0.014465332,-0.11425781,0.028625488
1734713535819,2024-12-20T16:52:15.819Z,22926,-0.012817383,-0.11090088,0.02722168
1734713535825,2024-12-20T16:52:15.825Z,22932,-0.01171875,-0.10803223,0.033691406
1734713535843,2024-12-20T16:52:15.843Z,22950,-0.008178711,-0.11883545,0.038391113
1734713535849,2024-12-20T16:52:15.849Z,22956,-0.006164551,-0.12445068,0.039367676
1734713535857,2024-12-20T16:52:15.857Z,22964,-0.00970459,-0.11352539,0.035888672
1734713535862,2024-12-20T16:52:15.862Z,22969,-0.012878418,-0.10656738,0.033691406
1734713535869,2024-12-20T16:52:15.869Z,22976,-0.014892578,-0.109436035,0.03149414
1734713535877,2024-12-20T16:52:15.877Z,22984,-0.010375977,-0.11090088,0.024963379
1734713535893,2024-12-20T16:52:15.893Z,23000,-0.010009766,-0.10925293,0.020751953
1734713535900,2024-12-20T16:52:15.900Z,23007,-0.016357422,-0.111816406,0.02923584
1734713535907,2024-12-20T16:52:15.907Z,23014,-0.014770508,-0.11706543,0.028259277
1734713535913,2024-12-20T16:52:15.913Z,23020,-0.0065307617,-0.1217041,0.028076172
1734713535922,2024-12-20T16:52:15.922Z,23029,-0.014892578,-0.12225342,0.031982422
1734713535931,2024-12-20T16:52:15.931Z,23038,-0.01586914,-0.12054443,0.02923584
1734713535939,2024-12-20T16:52:15.939Z,23046,-0.0018310547,-0.11236572,0.02722168
1734713535946,2024-12-20T16:52:15.946Z,23053,-0.007751465,-0.10601807,0.029418945
1734713535952,2024-12-20T16:52:15.952Z,23059,-0.018188477,-0.111206055,0.027404785
1734713535959,2024-12-20T16:52:15.959Z,23066,-0.018981934,-0.1138916,0.02722168
1734713535966,2024-12-20T16:52:15.966Z,23073,-0.01776123,-0.11920166,0.033691406
1734713535981,2024-12-20T16:52:15.981Z,23088,-0.011962891,-0.12548828,0.03668213
1734713535987,2024-12-20T16:52:15.987Z,23094,-0.004211426,-0.11859131,0.036010742
1734713535994,2024-12-20T16:52:15.994Z,23101,-0.0061035156,-0.10900879,0.0345459
1734713536000,2024-12-20T16:52:16Z,23107,-0.008544922,-0.11010742,0.034301758
1734713536007,2024-12-20T16:52:16.007Z,23114,0.003112793,-0.11047363,0.033447266
1734713536115,2024-12-20T16:52:16.115Z,23222,0.005004883,-0.10266113,0.035339355
1734713536122,2024-12-20T16:52:16.122Z,23229,-0.0076904297,-0.10876465,0.03387451
1734713536128,2024-12-20T16:52:16.128Z,23235,-0.014343262,-0.11883545,0.034606934
1734713536135,2024-12-20T16:52:16.135Z,23242,-0.010498047,-0.11450195,0.042236328
1734713536142,2024-12-20T16:52:16.142Z,23249,-0.009643555,-0.114746094,0.04095459
1734713536149,2024-12-20T16:52:16.149Z,23256,-0.013366699,-0.11968994,0.037353516
1734713536163,2024-12-20T16:52:16.163Z,23270,-0.015563965,-0.119384766,0.039001465
1734713536209,2024-12-20T16:52:16.209Z,23316,-0.008605957,-0.117614746,0.03265381
1734713536217,2024-12-20T16:52:16.217Z,23324,-0.0036621094,-0.11376953,0.030090332
1734713536227,2024-12-20T16:52:16.227Z,23334,-0.0075683594,-0.107910156,0.03326416
1734713536243,2024-12-20T16:52:16.243Z,23350,-0.0095825195,-0.11102295,0.034057617
1734713536259,2024-12-20T16:52:16.259Z,23366,-0.0024414062,-0.11883545,0.035095215
1734713536268,2024-12-20T16:52:16.268Z,23375,-0.0032958984,-0.1161499,0.034606934
1734713536277,2024-12-20T16:52:16.277Z,23384,-0.00390625,-0.11608887,0.030883789
1734713536285,2024-12-20T16:52:16.285Z,23392,-0.0033569336,-0.11706543,0.028381348
1734713536292,2024-12-20T16:52:16.292Z,23399,-0.0057373047,-0.11834717,0.032409668
1734713536299,2024-12-20T16:52:16.299Z,23406,-0.006652832,-0.123046875,0.03564453
1734713536306,2024-12-20T16:52:16.306Z,23413,-0.002746582,-0.12408447,0.036254883
1734713536314,2024-12-20T16:52:16.314Z,23421,3.6621094E-4,-0.115234375,0.032104492
1734713536321,2024-12-20T16:52:16.321Z,23428,9.765625E-4,-0.11224365,0.026123047
1734713536329,2024-12-20T16:52:16.329Z,23436,0.0026245117,-0.11279297,0.025146484
1734713536335,2024-12-20T16:52:16.335Z,23442,0.0031738281,-0.117004395,0.035095215
1734713536342,2024-12-20T16:52:16.342Z,23449,-0.0033569336,-0.119140625,0.038635254
1734713536382,2024-12-20T16:52:16.382Z,23489,-0.0063476562,-0.11993408,0.03527832
1734713536389,2024-12-20T16:52:16.389Z,23496,-0.0032348633,-0.11853027,0.035461426
1734713536395,2024-12-20T16:52:16.395Z,23502,-0.0043945312,-0.11517334,0.03466797
1734713536401,2024-12-20T16:52:16.401Z,23508,-0.008239746,-0.11364746,0.032409668
1734713536409,2024-12-20T16:52:16.409Z,23516,-0.010620117,-0.11431885,0.03338623
1734713536432,2024-12-20T16:52:16.432Z,23539,-0.0072631836,-0.115356445,0.03729248
1734713536439,2024-12-20T16:52:16.439Z,23546,-0.0037841797,-0.11529541,0.03955078
1734713536448,2024-12-20T16:52:16.448Z,23555,-0.0056152344,-0.11419678,0.040100098
1734713536472,2024-12-20T16:52:16.472Z,23579,-0.005493164,-0.11352539,0.040405273
1734713536480,2024-12-20T16:52:16.480Z,23587,-0.0031738281,-0.11242676,0.041625977
1734713536487,2024-12-20T16:52:16.487Z,23594,-0.0031738281,-0.11206055,0.03967285
1734713536495,2024-12-20T16:52:16.495Z,23602,-0.0033569336,-0.11553955,0.045715332
1734713536569,2024-12-20T16:52:16.569Z,23676,-0.008911133,-0.11254883,0.0423584
1734713536583,2024-12-20T16:52:16.583Z,23690,-0.0032958984,-0.11090088,0.03765869
1734713536597,2024-12-20T16:52:16.597Z,23704,-3.0517578E-4,-0.11395264,0.04156494
1734713536608,2024-12-20T16:52:16.608Z,23715,0.0032958984,-0.11627197,0.039978027
1734713536618,2024-12-20T16:52:16.618Z,23725,0.0056762695,-0.118896484,0.039489746
1734713536628,2024-12-20T16:52:16.628Z,23735,0.001953125,-0.117248535,0.036621094
1734713536658,2024-12-20T16:52:16.658Z,23765,0.0015869141,-0.115600586,0.035583496
1734713536665,2024-12-20T16:52:16.665Z,23772,-0.0036621094,-0.115112305,0.035949707
1734713536671,2024-12-20T16:52:16.671Z,23778,-0.0045776367,-0.11627197,0.033447266
1734713536680,2024-12-20T16:52:16.680Z,23787,-0.0016479492,-0.11804199,0.033691406
1734713536688,2024-12-20T16:52:16.688Z,23795,-0.0010986328,-0.119628906,0.03515625
1734713536699,2024-12-20T16:52:16.699Z,23806,-0.0014648438,-0.11987305,0.035095215
1734713536702,2024-12-20T16:52:16.702Z,23809,-0.0037841797,-0.114990234,0.036254883
1734713536709,2024-12-20T16:52:16.709Z,23816,-0.004333496,-0.113586426,0.033996582
1734713536716,2024-12-20T16:52:16.716Z,23823,-0.0063476562,-0.11151123,0.03338623
1734713536723,2024-12-20T16:52:16.723Z,23830,-0.005004883,-0.109313965,0.033325195
1734713536731,2024-12-20T16:52:16.731Z,23838,-5.493164E-4,-0.109558105,0.03387451
1734713536743,2024-12-20T16:52:16.743Z,23850,-0.001159668,-0.111694336,0.037231445
1734713536747,2024-12-20T16:52:16.747Z,23854,0.0037841797,-0.11456299,0.03845215
1734713536753,2024-12-20T16:52:16.753Z,23860,0.004211426,-0.113586426,0.0345459
1734713536759,2024-12-20T16:52:16.759Z,23866,0.005004883,-0.115112305,0.033996582
1734713536767,2024-12-20T16:52:16.767Z,23874,0.00579834,-0.11657715,0.039245605
1734713536774,2024-12-20T16:52:16.774Z,23881,0.0028076172,-0.11853027,0.0446167
1734713536836,2024-12-20T16:52:16.836Z,23943,-0.0015258789,-0.12011719,0.044128418
1734713536843,2024-12-20T16:52:16.843Z,23950,-0.0015869141,-0.12084961,0.04248047
1734713536849,2024-12-20T16:52:16.849Z,23956,-2.4414062E-4,-0.121276855,0.04071045
1734713536882,2024-12-20T16:52:16.882Z,23989,0.0010375977,-0.12145996,0.039978027
1734713536889,2024-12-20T16:52:16.889Z,23996,0.0017089844,-0.11834717,0.041259766
1734713536897,2024-12-20T16:52:16.897Z,24004,-0.0012817383,-0.11706543,0.042907715
1734713536905,2024-12-20T16:52:16.905Z,24012,-0.0013427734,-0.1171875,0.041992188
1734713536913,2024-12-20T16:52:16.913Z,24020,-1.8310547E-4,-0.11639404,0.04168701
1734713536927,2024-12-20T16:52:16.927Z,24034,-0.0018310547,-0.11682129,0.043701172
1734713536933,2024-12-20T16:52:16.933Z,24040,-7.324219E-4,-0.11791992,0.045654297
1734713536941,2024-12-20T16:52:16.941Z,24048,-3.0517578E-4,-0.11651611,0.042419434
1734713536948,2024-12-20T16:52:16.948Z,24055,0.0036621094,-0.12023926,0.040161133
1734713536954,2024-12-20T16:52:16.954Z,24061,0.0016479492,-0.12194824,0.04119873
1734713536960,2024-12-20T16:52:16.960Z,24067,-5.493164E-4,-0.12432861,0.039794922
1734713536973,2024-12-20T16:52:16.973Z,24080,-3.6621094E-4,-0.12176514,0.038146973
1734713536981,2024-12-20T16:52:16.981Z,24088,-0.0014038086,-0.11468506,0.03692627
1734713536988,2024-12-20T16:52:16.988Z,24095,-0.0037841797,-0.109436035,0.031799316
1734713537013,2024-12-20T16:52:17.013Z,24120,-0.008728027,-0.107421875,0.025390625
1734713537020,2024-12-20T16:52:17.020Z,24127,-0.005432129,-0.10882568,0.023071289
1734713537048,2024-12-20T16:52:17.048Z,24155,0.0016479492,-0.11206055,0.024414062
1734713537066,2024-12-20T16:52:17.066Z,24173,0.0015258789,-0.1182251,0.024780273
1734713537079,2024-12-20T16:52:17.079Z,24186,0.0032348633,-0.12023926,0.024719238
1734713537090,2024-12-20T16:52:17.090Z,24197,6.713867E-4,-0.120666504,0.025512695
1734713537097,2024-12-20T16:52:17.097Z,24204,0.0016479492,-0.119506836,0.027648926
1734713537104,2024-12-20T16:52:17.104Z,24211,0.005859375,-0.115356445,0.032348633
1734713537111,2024-12-20T16:52:17.111Z,24218,0.001159668,-0.11456299,0.035461426
1734713537117,2024-12-20T16:52:17.117Z,24224,-6.1035156E-4,-0.11975098,0.03741455
1734713537124,2024-12-20T16:52:17.124Z,24231,-0.0010986328,-0.12408447,0.03894043
1734713537195,2024-12-20T16:52:17.195Z,24302,0.001159668,-0.123291016,0.037841797
1734713537201,2024-12-20T16:52:17.201Z,24308,0.0064086914,-0.120666504,0.038330078
1734713537242,2024-12-20T16:52:17.242Z,24349,0.0057373047,-0.11602783,0.036865234
1734713537249,2024-12-20T16:52:17.249Z,24356,0.003112793,-0.11419678,0.033081055
1734713537288,2024-12-20T16:52:17.288Z,24395,0.003540039,-0.11254883,0.034057617
1734713537296,2024-12-20T16:52:17.296Z,24403,-6.713867E-4,-0.11126709,0.036254883
1734713537340,2024-12-20T16:52:17.340Z,24447,-0.005065918,-0.11407471,0.036865234
1734713537349,2024-12-20T16:52:17.349Z,24456,-0.0068359375,-0.116760254,0.037231445
1734713537358,2024-12-20T16:52:17.358Z,24465,-0.0052490234,-0.11627197,0.03503418
1734713537366,2024-12-20T16:52:17.366Z,24473,-0.005432129,-0.11431885,0.033447266
1734713537375,2024-12-20T16:52:17.375Z,24482,-0.0048217773,-0.11425781,0.0345459
1734713537384,2024-12-20T16:52:17.384Z,24491,-0.0032958984,-0.11376953,0.03778076
1734713537418,2024-12-20T16:52:17.418Z,24525,0.0020751953,-0.11383057,0.038635254
1734713537426,2024-12-20T16:52:17.426Z,24533,0.0014648438,-0.117492676,0.04345703
1734713537433,2024-12-20T16:52:17.433Z,24540,-0.0053710938,-0.118774414,0.039733887
1734713537442,2024-12-20T16:52:17.442Z,24549,0.0017700195,-0.111572266,0.032470703
1734713537450,2024-12-20T16:52:17.450Z,24557,0.002380371,-0.11315918,0.034606934
1734713537456,2024-12-20T16:52:17.456Z,24563,0.0024414062,-0.113464355,0.036743164
1734713537463,2024-12-20T16:52:17.463Z,24570,0.006591797,-0.11682129,0.03753662
1734713537466,2024-12-20T16:52:17.466Z,24573,-0.0028686523,-0.11431885,0.035339355
1734713537472,2024-12-20T16:52:17.472Z,24579,-0.0064086914,-0.11437988,0.03302002
1734713537479,2024-12-20T16:52:17.479Z,24586,-0.0040283203,-0.11230469,0.028686523
1734713537485,2024-12-20T16:52:17.485Z,24592,-0.0057373047,-0.11212158,0.029052734
1734713537490,2024-12-20T16:52:17.490Z,24597,0.0020751953,-0.11218262,0.031066895
1734713537510,2024-12-20T16:52:17.510Z,24617,0.008178711,-0.106933594,0.034362793
1734713537513,2024-12-20T16:52:17.513Z,24620,-0.0060424805,-0.10418701,0.030700684
1734713537520,2024-12-20T16:52:17.520Z,24627,-0.009460449,-0.105407715,0.025512695
1734713537526,2024-12-20T16:52:17.526Z,24633,-0.011352539,-0.10272217,0.023620605
1734713537557,2024-12-20T16:52:17.557Z,24664,-0.012634277,-0.1060791,0.02960205
1734713537564,2024-12-20T16:52:17.564Z,24671,-0.013549805,-0.10992432,0.039611816
1734713537570,2024-12-20T16:52:17.570Z,24677,-0.009277344,-0.11090088,0.04321289
1734713537577,2024-12-20T16:52:17.577Z,24684,-0.0079956055,-0.111206055,0.044067383
1734713537583,2024-12-20T16:52:17.583Z,24690,-0.0073242188,-0.10974121,0.040527344
1734713537589,2024-12-20T16:52:17.589Z,24696,7.9345703E-4,-0.10772705,0.038635254
1734713537600,2024-12-20T16:52:17.600Z,24707,-1.2207031E-4,-0.10290527,0.040893555
1734713537607,2024-12-20T16:52:17.607Z,24714,-6.713867E-4,-0.103027344,0.040283203
1734713537613,2024-12-20T16:52:17.613Z,24720,-0.002319336,-0.10467529,0.04425049
1734713537619,2024-12-20T16:52:17.619Z,24726,-0.001953125,-0.11791992,0.044433594
1734713537625,2024-12-20T16:52:17.625Z,24732,-0.009460449,-0.12567139,0.04425049
1734713537648,2024-12-20T16:52:17.648Z,24755,-0.013671875,-0.122802734,0.043823242
1734713537655,2024-12-20T16:52:17.655Z,24762,-0.008911133,-0.11895752,0.03845215
1734713537662,2024-12-20T16:52:17.662Z,24769,-0.01574707,-0.11425781,0.03338623
1734713537668,2024-12-20T16:52:17.668Z,24775,-0.013183594,-0.11505127,0.031677246
1734713537675,2024-12-20T16:52:17.675Z,24782,-0.0032958984,-0.11291504,0.032287598
1734713537688,2024-12-20T16:52:17.688Z,24795,6.1035156E-4,-0.107177734,0.028076172
1734713537733,2024-12-20T16:52:17.733Z,24840,0.008605957,-0.10455322,0.031982422
1734713537741,2024-12-20T16:52:17.741Z,24848,0.01727295,-0.10601807,0.039611816
1734713537749,2024-12-20T16:52:17.749Z,24856,0.016296387,-0.10534668,0.037109375
1734713537756,2024-12-20T16:52:17.756Z,24863,0.008056641,-0.105163574,0.034179688
1734713537764,2024-12-20T16:52:17.764Z,24871,7.324219E-4,-0.1048584,0.029663086
1734713537773,2024-12-20T16:52:17.773Z,24880,-0.0030517578,-0.0970459,0.031677246
1734713537782,2024-12-20T16:52:17.782Z,24889,-0.0065307617,-0.095458984,0.042785645
1734713537789,2024-12-20T16:52:17.789Z,24896,-0.004638672,-0.1003418,0.047729492
1734713537796,2024-12-20T16:52:17.796Z,24903,-0.0064697266,-0.09613037,0.047302246
1734713537802,2024-12-20T16:52:17.802Z,24909,-0.007385254,-0.09729004,0.047790527
1734713537808,2024-12-20T16:52:17.808Z,24915,-0.015380859,-0.09875488,0.047973633
1734713537824,2024-12-20T16:52:17.824Z,24931,-0.024719238,-0.095825195,0.049316406
1734713537830,2024-12-20T16:52:17.830Z,24937,-0.025390625,-0.09313965,0.050354004
1734713537836,2024-12-20T16:52:17.836Z,24943,-0.024902344,-0.089904785,0.047302246
1734713537842,2024-12-20T16:52:17.842Z,24949,-0.020751953,-0.095947266,0.052856445
1734713537849,2024-12-20T16:52:17.849Z,24956,-0.00982666,-0.097717285,0.05895996
1734713537855,2024-12-20T16:52:17.855Z,24962,-0.008422852,-0.091430664,0.05279541
1734713538007,2024-12-20T16:52:18.007Z,25114,-0.007385254,-0.09429932,0.04699707
1734713538013,2024-12-20T16:52:18.013Z,25120,-0.011230469,-0.09527588,0.04486084
1734713538020,2024-12-20T16:52:18.020Z,25127,-0.016052246,-0.10418701,0.050720215
1734713538031,2024-12-20T16:52:18.031Z,25138,-0.022949219,-0.11505127,0.04663086
1734713538038,2024-12-20T16:52:18.038Z,25145,-0.012878418,-0.123046875,0.040771484
1734713538048,2024-12-20T16:52:18.048Z,25155,0.0026245117,-0.11639404,0.043701172
1734713538055,2024-12-20T16:52:18.055Z,25162,-0.0040283203,-0.111572266,0.048583984
1734713538062,2024-12-20T16:52:18.062Z,25169,-0.005493164,-0.12005615,0.03894043
1734713538068,2024-12-20T16:52:18.068Z,25175,-0.0033569336,-0.117004395,0.037597656
1734713538097,2024-12-20T16:52:18.097Z,25204,-0.0073242188,-0.11553955,0.0413208
1734713538139,2024-12-20T16:52:18.139Z,25246,-0.014587402,-0.11828613,0.042785645
1734713538148,2024-12-20T16:52:18.148Z,25255,-0.010070801,-0.103637695,0.034729004
1734713538156,2024-12-20T16:52:18.156Z,25263,-0.012329102,-0.103027344,0.03491211
1734713538165,2024-12-20T16:52:18.165Z,25272,-0.014038086,-0.11138916,0.031677246
1734713538173,2024-12-20T16:52:18.173Z,25280,-0.011413574,-0.11010742,0.029907227
1734713538181,2024-12-20T16:52:18.181Z,25288,-0.01928711,-0.1060791,0.033813477
1734713538189,2024-12-20T16:52:18.189Z,25296,-0.021972656,-0.10986328,0.038391113
1734713538197,2024-12-20T16:52:18.197Z,25304,-0.028686523,-0.10870361,0.035095215
1734713538204,2024-12-20T16:52:18.204Z,25311,-0.034973145,-0.12030029,0.03302002
1734713538211,2024-12-20T16:52:18.211Z,25318,-0.03466797,-0.12683105,0.032287598
1734713538218,2024-12-20T16:52:18.218Z,25325,-0.023986816,-0.10424805,0.036132812
1734713538319,2024-12-20T16:52:18.319Z,25426,-0.025878906,-0.10107422,0.04272461
1734713538322,2024-12-20T16:52:18.322Z,25429,-0.010253906,-0.113586426,0.02722168
1734713538328,2024-12-20T16:52:18.328Z,25435,-0.016906738,-0.11608887,0.03314209
1734713538374,2024-12-20T16:52:18.374Z,25481,-0.022766113,-0.1027832,0.032714844
1734713538388,2024-12-20T16:52:18.388Z,25495,-0.027832031,-0.097595215,0.03326416
1734713538399,2024-12-20T16:52:18.399Z,25506,-0.020080566,-0.12213135,0.029418945
1734713538409,2024-12-20T16:52:18.409Z,25516,-0.00579834,-0.11413574,0.025268555
1734713538419,2024-12-20T16:52:18.419Z,25526,-0.011962891,-0.101745605,0.02166748
1734713538454,2024-12-20T16:52:18.454Z,25561,-0.024963379,-0.12768555,0.033691406
1734713538464,2024-12-20T16:52:18.464Z,25571,-0.035583496,-0.11413574,0.031066895
1734713538473,2024-12-20T16:52:18.473Z,25580,-0.021362305,-0.09698486,0.036987305
1734713538483,2024-12-20T16:52:18.483Z,25590,-0.018249512,-0.10803223,0.049072266
1734713538492,2024-12-20T16:52:18.492Z,25599,-0.0154418945,-0.12536621,0.047424316
1734713538501,2024-12-20T16:52:18.501Z,25608,-0.01751709,-0.1217041,0.042419434
1734713538509,2024-12-20T16:52:18.509Z,25616,-0.028808594,-0.12384033,0.04888916
1734713538549,2024-12-20T16:52:18.549Z,25656,-0.022338867,-0.12579346,0.04309082
1734713538557,2024-12-20T16:52:18.557Z,25664,-0.01953125,-0.122558594,0.04547119
1734713538566,2024-12-20T16:52:18.566Z,25673,-0.01159668,-0.1307373,0.046203613
1734713538574,2024-12-20T16:52:18.574Z,25681,-0.0040893555,-0.115356445,0.0435791
1734713538583,2024-12-20T16:52:18.583Z,25690,-0.014892578,-0.109313965,0.048706055
1734713538587,2024-12-20T16:52:18.587Z,25694,-0.022094727,-0.11767578,0.051330566
1734713538594,2024-12-20T16:52:18.594Z,25701,0.0030517578,-0.113708496,0.049316406
1734713538636,2024-12-20T16:52:18.636Z,25743,0.0033569336,-0.10534668,0.051513672
1734713538643,2024-12-20T16:52:18.643Z,25750,-0.024597168,-0.11126709,0.057250977
1734713538650,2024-12-20T16:52:18.650Z,25757,-0.016845703,-0.12475586,0.060058594
1734713538657,2024-12-20T16:52:18.657Z,25764,0.0051879883,-0.121520996,0.053466797
1734713538665,2024-12-20T16:52:18.665Z,25772,-0.022827148,-0.11590576,0.035217285
1734713538672,2024-12-20T16:52:18.672Z,25779,-0.022338867,-0.13500977,0.040771484
1734713538682,2024-12-20T16:52:18.682Z,25789,-0.027038574,-0.12988281,0.043762207
1734713538689,2024-12-20T16:52:18.689Z,25796,-0.014343262,-0.120910645,0.043884277
1734713538695,2024-12-20T16:52:18.695Z,25802,-0.009216309,-0.097717285,0.044433594
1734713538702,2024-12-20T16:52:18.702Z,25809,-0.029296875,-0.09576416,0.04650879
1734713538708,2024-12-20T16:52:18.708Z,25815,-0.022949219,-0.13092041,0.038879395
1734713538768,2024-12-20T16:52:18.768Z,25875,-0.011108398,-0.13470459,0.02557373
1734713538773,2024-12-20T16:52:18.773Z,25880,-0.0178833,-0.122558594,0.0513916
1734713538783,2024-12-20T16:52:18.783Z,25890,-0.022705078,-0.116760254,0.05621338
1734713538792,2024-12-20T16:52:18.792Z,25899,-0.004699707,-0.105407715,0.049804688
1734713538801,2024-12-20T16:52:18.801Z,25908,-0.008911133,-0.10644531,0.043273926
1734713538811,2024-12-20T16:52:18.811Z,25918,-0.020446777,-0.110839844,0.040771484
1734713538820,2024-12-20T16:52:18.820Z,25927,-0.010498047,-0.1083374,0.04248047
1734713538828,2024-12-20T16:52:18.828Z,25935,-0.009460449,-0.111450195,0.039733887
1734713538836,2024-12-20T16:52:18.836Z,25943,-0.013427734,-0.12335205,0.033691406
1734713538842,2024-12-20T16:52:18.842Z,25949,-0.013244629,-0.12731934,0.040222168
1734713538849,2024-12-20T16:52:18.849Z,25956,-0.010803223,-0.12097168,0.062683105
1734713538855,2024-12-20T16:52:18.855Z,25962,-0.010131836,-0.11151123,0.06762695
1734713538908,2024-12-20T16:52:18.908Z,26015,-0.012084961,-0.12213135,0.04321289
1734713538915,2024-12-20T16:52:18.915Z,26022,-0.0057373047,-0.12084961,0.05267334
1734713538922,2024-12-20T16:52:18.922Z,26029,0.0,-0.12097168,0.07147217
1734713538930,2024-12-20T16:52:18.930Z,26037,-0.017089844,-0.12420654,0.0758667
1734713538938,2024-12-20T16:52:18.938Z,26045,-0.020385742,-0.12921143,0.06585693
1734713538948,2024-12-20T16:52:18.948Z,26055,-0.026062012,-0.11755371,0.055603027
1734713538955,2024-12-20T16:52:18.955Z,26062,-0.024353027,-0.10723877,0.055419922
1734713539001,2024-12-20T16:52:19.001Z,26108,0.0013427734,-0.11541748,0.0592041
1734713539007,2024-12-20T16:52:19.007Z,26114,0.025817871,-0.11883545,0.06329346
1734713539014,2024-12-20T16:52:19.014Z,26121,0.012756348,-0.111694336,0.06958008
1734713539020,2024-12-20T16:52:19.020Z,26127,-0.003112793,-0.1194458,0.06829834
1734713539026,2024-12-20T16:52:19.026Z,26133,-0.012390137,-0.11505127,0.0592041
1734713539030,2024-12-20T16:52:19.030Z,26137,0.0021362305,-0.117492676,0.06561279
1734713539087,2024-12-20T16:52:19.087Z,26194,0.028076172,-0.1204834,0.06915283
1734713539094,2024-12-20T16:52:19.094Z,26201,0.018127441,-0.11206055,0.070129395
1734713539101,2024-12-20T16:52:19.101Z,26208,0.009887695,-0.11871338,0.05987549
1734713539107,2024-12-20T16:52:19.107Z,26214,0.016967773,-0.12023926,0.05895996
1734713539113,2024-12-20T16:52:19.113Z,26220,0.011352539,-0.099975586,0.06945801
1734713539129,2024-12-20T16:52:19.129Z,26236,4.272461E-4,-0.099487305,0.074035645
1734713539132,2024-12-20T16:52:19.132Z,26239,0.014160156,-0.117126465,0.073913574
1734713539138,2024-12-20T16:52:19.138Z,26245,-0.008911133,-0.11853027,0.06567383
1734713539144,2024-12-20T16:52:19.144Z,26251,-0.002380371,-0.1239624,0.048950195
1734713539151,2024-12-20T16:52:19.151Z,26258,0.007019043,-0.11004639,0.058166504
1734713539156,2024-12-20T16:52:19.156Z,26263,0.013427734,-0.105285645,0.06774902
1734713539172,2024-12-20T16:52:19.172Z,26279,0.016540527,-0.10473633,0.05908203
1734713539179,2024-12-20T16:52:19.179Z,26286,0.02758789,-0.10333252,0.062438965
1734713539185,2024-12-20T16:52:19.185Z,26292,0.028137207,-0.101501465,0.05731201
1734713539190,2024-12-20T16:52:19.190Z,26297,0.0065307617,-0.10662842,0.051513672
1734713539196,2024-12-20T16:52:19.196Z,26303,6.1035156E-5,-0.11956787,0.054016113
1734713539202,2024-12-20T16:52:19.202Z,26309,0.013122559,-0.117492676,0.046875
1734713539221,2024-12-20T16:52:19.221Z,26328,0.019592285,-0.10601807,0.03894043
1734713539227,2024-12-20T16:52:19.227Z,26334,0.019165039,-0.095581055,0.042053223
1734713539233,2024-12-20T16:52:19.233Z,26340,0.0289917,-0.10095215,0.04522705
1734713539238,2024-12-20T16:52:19.238Z,26345,0.030151367,-0.10180664,0.044189453
1734713539244,2024-12-20T16:52:19.244Z,26351,0.02331543,-0.09802246,0.052612305
1734713539263,2024-12-20T16:52:19.263Z,26370,0.026916504,-0.10479736,0.055786133
1734713539269,2024-12-20T16:52:19.269Z,26376,0.033081055,-0.10211182,0.053833008
1734713539274,2024-12-20T16:52:19.274Z,26381,0.025512695,-0.09503174,0.06213379
1734713539281,2024-12-20T16:52:19.281Z,26388,0.027160645,-0.09869385,0.07836914
1734713539287,2024-12-20T16:52:19.287Z,26394,0.024536133,-0.10235596,0.08935547
1734713539293,2024-12-20T16:52:19.293Z,26400,0.021728516,-0.10961914,0.081726074
1734713539402,2024-12-20T16:52:19.402Z,26509,0.018493652,-0.105285645,0.06573486
1734713539408,2024-12-20T16:52:19.408Z,26515,0.0126953125,-0.09979248,0.06665039
1734713539413,2024-12-20T16:52:19.413Z,26520,0.021728516,-0.10308838,0.078063965
1734713539420,2024-12-20T16:52:19.420Z,26527,0.019165039,-0.10498047,0.0881958
1734713539428,2024-12-20T16:52:19.428Z,26535,0.014343262,-0.10632324,0.08642578
1734713539443,2024-12-20T16:52:19.443Z,26550,0.015319824,-0.10107422,0.0769043
1734713539450,2024-12-20T16:52:19.450Z,26557,0.019836426,-0.10333252,0.07495117
1734713539456,2024-12-20T16:52:19.456Z,26563,0.025817871,-0.109069824,0.07965088
1734713539487,2024-12-20T16:52:19.487Z,26594,0.03277588,-0.11437988,0.0793457
1734713539494,2024-12-20T16:52:19.494Z,26601,0.026489258,-0.117492676,0.07751465
1734713539501,2024-12-20T16:52:19.501Z,26608,0.029724121,-0.11480713,0.08331299
1734713539504,2024-12-20T16:52:19.504Z,26611,0.025939941,-0.1105957,0.07739258
1734713539511,2024-12-20T16:52:19.511Z,26618,0.023254395,-0.11395264,0.074157715
1734713539518,2024-12-20T16:52:19.518Z,26625,0.029418945,-0.12670898,0.07885742
1734713539533,2024-12-20T16:52:19.533Z,26640,0.025512695,-0.13104248,0.079711914
1734713539538,2024-12-20T16:52:19.538Z,26645,0.01171875,-0.12408447,0.0748291
1734713539545,2024-12-20T16:52:19.545Z,26652,0.0029296875,-0.11004639,0.06665039
1734713539551,2024-12-20T16:52:19.551Z,26658,0.018066406,-0.097351074,0.059509277
1734713539557,2024-12-20T16:52:19.557Z,26664,0.01940918,-0.09069824,0.05908203
1734713539563,2024-12-20T16:52:19.563Z,26670,0.016967773,-0.097961426,0.049682617
1734713539581,2024-12-20T16:52:19.581Z,26688,0.026489258,-0.11022949,0.052856445
1734713539587,2024-12-20T16:52:19.587Z,26694,0.03112793,-0.11248779,0.061645508
1734713539593,2024-12-20T16:52:19.593Z,26700,0.022094727,-0.105529785,0.057922363
1734713539599,2024-12-20T16:52:19.599Z,26706,0.018920898,-0.103515625,0.052856445
1734713539605,2024-12-20T16:52:19.605Z,26712,0.027648926,-0.10272217,0.061157227
1734713539622,2024-12-20T16:52:19.622Z,26729,0.021362305,-0.0970459,0.06616211
1734713539629,2024-12-20T16:52:19.629Z,26736,0.017150879,-0.10638428,0.06500244
1734713539636,2024-12-20T16:52:19.636Z,26743,0.027526855,-0.11352539,0.064086914
1734713539641,2024-12-20T16:52:19.641Z,26748,0.030334473,-0.1071167,0.07067871
1734713539648,2024-12-20T16:52:19.648Z,26755,0.029052734,-0.113220215,0.07885742
1734713539654,2024-12-20T16:52:19.654Z,26761,0.03149414,-0.1239624,0.0748291
1734713539670,2024-12-20T16:52:19.670Z,26777,0.025024414,-0.12023926,0.06976318
1734713539677,2024-12-20T16:52:19.677Z,26784,-6.713867E-4,-0.10876465,0.055664062
1734713539684,2024-12-20T16:52:19.684Z,26791,-0.003112793,-0.105407715,0.054382324
1734713539689,2024-12-20T16:52:19.689Z,26796,0.02545166,-0.11077881,0.0670166
1734713539695,2024-12-20T16:52:19.695Z,26802,0.031311035,-0.11187744,0.08050537
1734713539719,2024-12-20T16:52:19.719Z,26826,0.023803711,-0.12054443,0.07897949
1734713539725,2024-12-20T16:52:19.725Z,26832,0.009399414,-0.12591553,0.05682373
1734713539732,2024-12-20T16:52:19.732Z,26839,0.0032348633,-0.11657715,0.044128418
1734713539738,2024-12-20T16:52:19.738Z,26845,0.0087890625,-0.105163574,0.054504395
1734713539808,2024-12-20T16:52:19.808Z,26915,4.272461E-4,-0.10650635,0.0657959
1734713539814,2024-12-20T16:52:19.814Z,26921,0.004638672,-0.124816895,0.057617188
1734713539820,2024-12-20T16:52:19.820Z,26927,0.009399414,-0.13195801,0.064575195
1734713539826,2024-12-20T16:52:19.826Z,26933,0.0115356445,-0.11566162,0.07611084
1734713539833,2024-12-20T16:52:19.833Z,26940,0.028625488,-0.10284424,0.074401855
1734713539848,2024-12-20T16:52:19.848Z,26955,0.039001465,-0.101257324,0.06866455
1734713539856,2024-12-20T16:52:19.856Z,26963,0.03253174,-0.110839844,0.06213379
1734713539863,2024-12-20T16:52:19.863Z,26970,0.016235352,-0.11785889,0.04650879
1734713539870,2024-12-20T16:52:19.870Z,26977,0.007019043,-0.117492676,0.051086426
1734713539877,2024-12-20T16:52:19.877Z,26984,0.0029296875,-0.11834717,0.07220459
1734713539883,2024-12-20T16:52:19.883Z,26990,0.02355957,-0.12634277,0.08862305
1734713539893,2024-12-20T16:52:19.893Z,27000,0.03540039,-0.119018555,0.0793457
1734713539902,2024-12-20T16:52:19.902Z,27009,0.022033691,-0.10430908,0.07336426
1734713539908,2024-12-20T16:52:19.908Z,27015,0.021911621,-0.11602783,0.068237305
1734713539915,2024-12-20T16:52:19.915Z,27022,0.012451172,-0.12005615,0.047302246
1734713539921,2024-12-20T16:52:19.921Z,27028,-0.022277832,-0.10144043,0.0211792
1734713539927,2024-12-20T16:52:19.927Z,27034,-0.042419434,-0.097473145,0.028869629
1734713539940,2024-12-20T16:52:19.940Z,27047,-0.00579834,-0.11468506,0.05822754
1734713539947,2024-12-20T16:52:19.947Z,27054,0.024536133,-0.11468506,0.06768799
1734713539952,2024-12-20T16:52:19.952Z,27059,0.019042969,-0.11016846,0.058288574
1734713539958,2024-12-20T16:52:19.958Z,27065,0.0030517578,-0.11767578,0.049987793
1734713539964,2024-12-20T16:52:19.964Z,27071,-0.0053100586,-0.12225342,0.04425049
1734713539983,2024-12-20T16:52:19.983Z,27090,-0.020996094,-0.113098145,0.028442383
1734713539989,2024-12-20T16:52:19.989Z,27096,-0.017211914,-0.103393555,0.028869629
1734713539994,2024-12-20T16:52:19.994Z,27101,0.008972168,-0.10913086,0.056640625
1734713540000,2024-12-20T16:52:20Z,27107,0.014465332,-0.11791992,0.06677246
1734713540006,2024-12-20T16:52:20.006Z,27113,0.0014038086,-0.11608887,0.06109619
1734713540011,2024-12-20T16:52:20.011Z,27118,0.002380371,-0.109558105,0.06781006
1734713540031,2024-12-20T16:52:20.031Z,27138,0.01751709,-0.10986328,0.079589844
1734713540037,2024-12-20T16:52:20.037Z,27144,0.009277344,-0.10192871,0.06903076
1734713540044,2024-12-20T16:52:20.044Z,27151,-0.0037231445,-0.09094238,0.05847168
1734713540050,2024-12-20T16:52:20.050Z,27157,0.014343262,-0.101989746,0.05517578
1734713540057,2024-12-20T16:52:20.057Z,27164,0.022033691,-0.11212158,0.06097412
1734713540119,2024-12-20T16:52:20.119Z,27226,0.01361084,-0.11077881,0.07006836
1734713540124,2024-12-20T16:52:20.124Z,27231,-0.002746582,-0.111206055,0.06011963
1734713540129,2024-12-20T16:52:20.129Z,27236,-0.007507324,-0.11407471,0.047058105
1734713540135,2024-12-20T16:52:20.135Z,27242,-0.006591797,-0.10217285,0.041931152
1734713540140,2024-12-20T16:52:20.140Z,27247,-0.0068969727,-0.09454346,0.043151855
1734713540148,2024-12-20T16:52:20.148Z,27255,0.0020751953,-0.10888672,0.040649414
1734713540167,2024-12-20T16:52:20.167Z,27274,0.0043945312,-0.11828613,0.040161133
1734713540215,2024-12-20T16:52:20.215Z,27322,0.004272461,-0.109558105,0.05279541
1734713540222,2024-12-20T16:52:20.222Z,27329,0.0057373047,-0.0982666,0.06225586
1734713540230,2024-12-20T16:52:20.230Z,27337,0.0029296875,-0.10180664,0.059936523
1734713540238,2024-12-20T16:52:20.238Z,27345,-0.0126953125,-0.111694336,0.056152344
1734713540246,2024-12-20T16:52:20.246Z,27353,-0.019470215,-0.12573242,0.050720215
1734713540253,2024-12-20T16:52:20.253Z,27360,-0.012573242,-0.12585449,0.047424316
1734713540261,2024-12-20T16:52:20.261Z,27368,-0.015808105,-0.10974121,0.050720215
1734713540268,2024-12-20T16:52:20.268Z,27375,-0.013793945,-0.103881836,0.06225586
1734713540274,2024-12-20T16:52:20.274Z,27381,-0.011962891,-0.103637695,0.068237305
1734713540281,2024-12-20T16:52:20.281Z,27388,-0.026000977,-0.111328125,0.070129395
1734713540287,2024-12-20T16:52:20.287Z,27394,-0.015808105,-0.14367676,0.06817627
1734713540298,2024-12-20T16:52:20.298Z,27405,-0.014404297,-0.14929199,0.052490234
1734713540304,2024-12-20T16:52:20.304Z,27411,-0.02166748,-0.12072754,0.04156494
1734713540309,2024-12-20T16:52:20.309Z,27416,-0.0025024414,-0.10626221,0.05731201
1734713540315,2024-12-20T16:52:20.315Z,27422,0.012756348,-0.103393555,0.06298828
1734713540322,2024-12-20T16:52:20.322Z,27429,0.012023926,-0.10131836,0.0579834
1734713540327,2024-12-20T16:52:20.327Z,27434,0.010681152,-0.12213135,0.057434082
1734713540346,2024-12-20T16:52:20.346Z,27453,0.0087890625,-0.13861084,0.046569824
1734713540352,2024-12-20T16:52:20.352Z,27459,-0.0026855469,-0.11328125,0.032287598
1734713540357,2024-12-20T16:52:20.357Z,27464,-0.017456055,-0.09222412,0.028808594
1734713540363,2024-12-20T16:52:20.363Z,27470,-0.017211914,-0.10333252,0.04284668
1734713540368,2024-12-20T16:52:20.368Z,27475,-0.005065918,-0.11437988,0.047668457
1734713540387,2024-12-20T16:52:20.387Z,27494,-6.1035156E-5,-0.11102295,0.04699707
1734713540392,2024-12-20T16:52:20.392Z,27499,0.006286621,-0.12188721,0.04284668
1734713540398,2024-12-20T16:52:20.398Z,27505,-0.008850098,-0.11968994,0.037231445
1734713540481,2024-12-20T16:52:20.481Z,27588,-0.020446777,-0.10913086,0.033447266
1734713540487,2024-12-20T16:52:20.487Z,27594,-0.024597168,-0.11206055,0.034118652
1734713540527,2024-12-20T16:52:20.527Z,27634,-0.027160645,-0.11456299,0.046203613
1734713540534,2024-12-20T16:52:20.534Z,27641,-0.01171875,-0.12017822,0.0602417
1734713540540,2024-12-20T16:52:20.540Z,27647,0.016784668,-0.13598633,0.06512451
1734713540547,2024-12-20T16:52:20.547Z,27654,0.020019531,-0.12902832,0.057556152
1734713540552,2024-12-20T16:52:20.552Z,27659,0.0014038086,-0.11419678,0.05871582
1734713540616,2024-12-20T16:52:20.616Z,27723,-0.020996094,-0.111206055,0.06188965
1734713540623,2024-12-20T16:52:20.623Z,27730,-0.035095215,-0.11682129,0.0637207
1734713540629,2024-12-20T16:52:20.629Z,27736,-0.028198242,-0.119628906,0.057800293
1734713540635,2024-12-20T16:52:20.635Z,27742,-0.016174316,-0.117370605,0.0635376
1734713540640,2024-12-20T16:52:20.640Z,27747,-0.03564453,-0.12060547,0.05621338
1734713540646,2024-12-20T16:52:20.646Z,27753,-0.027160645,-0.13067627,0.04547119
1734713540660,2024-12-20T16:52:20.660Z,27767,-0.036071777,-0.11383057,0.024780273
1734713540667,2024-12-20T16:52:20.667Z,27774,-0.026916504,-0.109558105,0.0211792
1734713540674,2024-12-20T16:52:20.674Z,27781,-0.012878418,-0.10858154,0.02709961
1734713540679,2024-12-20T16:52:20.679Z,27786,-0.018554688,-0.11706543,0.040405273
1734713540685,2024-12-20T16:52:20.685Z,27792,-0.02709961,-0.13537598,0.033325195
1734713540749,2024-12-20T16:52:20.749Z,27856,-0.024780273,-0.1329956,0.017211914
1734713540753,2024-12-20T16:52:20.753Z,27860,-0.0413208,-0.09552002,0.03778076
1734713540759,2024-12-20T16:52:20.759Z,27866,-0.008361816,-0.12036133,0.045532227
1734713540765,2024-12-20T16:52:20.765Z,27872,6.1035156E-5,-0.14440918,0.050598145
1734713540771,2024-12-20T16:52:20.771Z,27878,-0.014160156,-0.13952637,0.04425049
1734713540776,2024-12-20T16:52:20.776Z,27883,-0.029907227,-0.11260986,0.033081055
1734713540932,2024-12-20T16:52:20.932Z,28039,-0.036987305,-0.09637451,0.034362793
1734713540940,2024-12-20T16:52:20.940Z,28047,-0.03717041,-0.09661865,0.038391113
1734713540947,2024-12-20T16:52:20.947Z,28054,-0.040649414,-0.109069824,0.039978027
1734713540954,2024-12-20T16:52:20.954Z,28061,-0.02758789,-0.13568115,0.037902832
1734713540977,2024-12-20T16:52:20.977Z,28084,-0.0068969727,-0.13922119,0.037231445
1734713541025,2024-12-20T16:52:21.025Z,28132,0.01361084,-0.11859131,0.031677246
1734713541035,2024-12-20T16:52:21.035Z,28142,-0.043701172,-0.10986328,0.028259277
1734713541043,2024-12-20T16:52:21.043Z,28150,-0.035949707,-0.120666504,0.030883789
1734713541051,2024-12-20T16:52:21.051Z,28158,-0.03125,-0.12860107,0.042419434
1734713541059,2024-12-20T16:52:21.059Z,28166,-0.021057129,-0.13970947,0.042663574
1734713541066,2024-12-20T16:52:21.066Z,28173,-0.00970459,-0.122802734,0.043151855
1734713541073,2024-12-20T16:52:21.073Z,28180,-0.008728027,-0.09161377,0.044311523
1734713541076,2024-12-20T16:52:21.076Z,28183,-0.028625488,-0.121398926,0.028747559
1734713541082,2024-12-20T16:52:21.082Z,28189,-0.019104004,-0.10827637,0.034484863
1734713541089,2024-12-20T16:52:21.089Z,28196,-0.010375977,-0.10876465,0.037841797
1734713541094,2024-12-20T16:52:21.094Z,28201,-0.0119018555,-0.11981201,0.036376953
1734713541097,2024-12-20T16:52:21.097Z,28204,-0.022033691,-0.11303711,0.035949707
1734713541107,2024-12-20T16:52:21.107Z,28214,-0.020568848,-0.11968994,0.051757812
1734713541113,2024-12-20T16:52:21.113Z,28220,-0.010681152,-0.13342285,0.044128418
1734713541119,2024-12-20T16:52:21.119Z,28226,0.002380371,-0.12908936,0.037963867
1734713541125,2024-12-20T16:52:21.125Z,28232,-0.0017700195,-0.12145996,0.03692627
1734713541130,2024-12-20T16:52:21.130Z,28237,-0.029785156,-0.11798096,0.032592773
1734713541136,2024-12-20T16:52:21.136Z,28243,-0.042297363,-0.117370605,0.034301758
1734713541203,2024-12-20T16:52:21.203Z,28310,-0.030212402,-0.119140625,0.046936035
1734713541208,2024-12-20T16:52:21.208Z,28315,-0.031188965,-0.12719727,0.047302246
1734713541213,2024-12-20T16:52:21.213Z,28320,-0.03375244,-0.13336182,0.043029785
1734713541219,2024-12-20T16:52:21.219Z,28326,-0.036315918,-0.1350708,0.04296875
1734713541224,2024-12-20T16:52:21.224Z,28331,-0.0335083,-0.10900879,0.038330078
1734713541248,2024-12-20T16:52:21.248Z,28355,-0.042419434,-0.10412598,0.03540039
1734713541256,2024-12-20T16:52:21.256Z,28363,-0.037109375,-0.10998535,0.02508545
1734713541262,2024-12-20T16:52:21.262Z,28369,-0.03375244,-0.09503174,0.030395508
1734713541269,2024-12-20T16:52:21.269Z,28376,-0.031921387,-0.101989746,0.040893555
1734713541275,2024-12-20T16:52:21.275Z,28382,-0.030212402,-0.12023926,0.034423828
1734713541288,2024-12-20T16:52:21.288Z,28395,-0.029541016,-0.1184082,0.025878906
1734713541294,2024-12-20T16:52:21.294Z,28401,-0.034606934,-0.117004395,0.026428223
1734713541336,2024-12-20T16:52:21.336Z,28443,-0.030700684,-0.11383057,0.028564453
1734713541342,2024-12-20T16:52:21.342Z,28449,-0.035339355,-0.09631348,0.026672363
1734713541348,2024-12-20T16:52:21.348Z,28455,-0.032714844,-0.11010742,0.024108887
1734713541354,2024-12-20T16:52:21.354Z,28461,-0.014953613,-0.1251831,0.01928711
1734713541360,2024-12-20T16:52:21.360Z,28467,-0.018127441,-0.10284424,0.026611328
1734713541381,2024-12-20T16:52:21.381Z,28488,-0.019592285,-0.10949707,0.03161621
1734713541388,2024-12-20T16:52:21.388Z,28495,-0.016967773,-0.1282959,0.023620605
1734713541395,2024-12-20T16:52:21.395Z,28502,-0.024780273,-0.11578369,0.023376465
1734713541401,2024-12-20T16:52:21.401Z,28508,-0.038757324,-0.10827637,0.033325195
1734713541410,2024-12-20T16:52:21.410Z,28517,-0.03845215,-0.11016846,0.031799316
1734713541416,2024-12-20T16:52:21.416Z,28523,-0.029296875,-0.106933594,0.026611328
1734713541426,2024-12-20T16:52:21.426Z,28533,-0.01184082,-0.1227417,0.027832031
1734713541436,2024-12-20T16:52:21.436Z,28543,-0.025146484,-0.11669922,0.035949707
1734713541449,2024-12-20T16:52:21.449Z,28556,-0.03363037,-0.10961914,0.03375244
1734713541456,2024-12-20T16:52:21.456Z,28563,-0.034301758,-0.09716797,0.034179688
1734713541462,2024-12-20T16:52:21.462Z,28569,-0.03375244,-0.11437988,0.030761719
1734713541471,2024-12-20T16:52:21.471Z,28578,-0.020568848,-0.13244629,0.031188965
1734713541476,2024-12-20T16:52:21.476Z,28583,-0.012023926,-0.116882324,0.02935791
1734713541481,2024-12-20T16:52:21.481Z,28588,-0.00592041,-0.10736084,0.030639648
1734713541487,2024-12-20T16:52:21.487Z,28594,0.0030517578,-0.10797119,0.030822754
1734713541492,2024-12-20T16:52:21.492Z,28599,-0.026184082,-0.09112549,0.02722168
1734713541497,2024-12-20T16:52:21.497Z,28604,-0.039794922,-0.099609375,0.016906738
1734713541515,2024-12-20T16:52:21.515Z,28622,-0.021972656,-0.11462402,0.019042969
1734713541561,2024-12-20T16:52:21.561Z,28668,-0.015930176,-0.114990234,0.024230957
1734713541568,2024-12-20T16:52:21.568Z,28675,-0.004699707,-0.121520996,0.025756836
1734713541574,2024-12-20T16:52:21.574Z,28681,-0.015380859,-0.11114502,0.023010254
1734713541606,2024-12-20T16:52:21.606Z,28713,-0.0134887695,-0.111083984,0.022033691
1734713541612,2024-12-20T16:52:21.612Z,28719,-0.011352539,-0.11035156,0.02319336
1734713541619,2024-12-20T16:52:21.619Z,28726,-0.021972656,-0.109375,0.033325195
1734713541626,2024-12-20T16:52:21.626Z,28733,-0.025512695,-0.11779785,0.03955078
1734713541653,2024-12-20T16:52:21.653Z,28760,-0.035949707,-0.12164307,0.03253174
1734713541741,2024-12-20T16:52:21.741Z,28848,-0.024841309,-0.11578369,0.032165527
1734713541754,2024-12-20T16:52:21.754Z,28861,-0.01751709,-0.104003906,0.03930664
1734713541767,2024-12-20T16:52:21.767Z,28874,-0.0045166016,-0.11102295,0.044189453
1734713541778,2024-12-20T16:52:21.778Z,28885,-0.0013427734,-0.09899902,0.04144287
1734713541787,2024-12-20T16:52:21.787Z,28894,-0.0067749023,-0.085632324,0.033813477
1734713541796,2024-12-20T16:52:21.796Z,28903,-0.007080078,-0.10424805,0.028625488
1734713541880,2024-12-20T16:52:21.880Z,28987,-0.01171875,-0.11633301,0.030212402
1734713541888,2024-12-20T16:52:21.888Z,28995,-0.017578125,-0.11584473,0.03302002
1734713541896,2024-12-20T16:52:21.896Z,29003,-0.028076172,-0.12451172,0.030090332
1734713541904,2024-12-20T16:52:21.904Z,29011,-0.0289917,-0.13342285,0.019226074
1734713541913,2024-12-20T16:52:21.913Z,29020,-0.01953125,-0.09008789,0.026245117
1734713541922,2024-12-20T16:52:21.922Z,29029,-0.01574707,-0.10284424,0.026733398
1734713541964,2024-12-20T16:52:21.964Z,29071,-0.016601562,-0.11187744,0.032043457
1734713541974,2024-12-20T16:52:21.974Z,29081,-0.008117676,-0.1194458,0.03265381
1734713541981,2024-12-20T16:52:21.981Z,29088,-0.004699707,-0.11987305,0.03552246
1734713541989,2024-12-20T16:52:21.989Z,29096,-0.0015869141,-0.11657715,0.031982422
1734713541992,2024-12-20T16:52:21.992Z,29099,0.0017700195,-0.11193848,0.02758789
1734713541999,2024-12-20T16:52:21.999Z,29106,-0.0041503906,-0.103515625,0.03161621
1734713542054,2024-12-20T16:52:22.054Z,29161,-0.009216309,-0.11236572,0.032104492
1734713542058,2024-12-20T16:52:22.058Z,29165,1.2207031E-4,-0.11303711,0.030883789
1734713542066,2024-12-20T16:52:22.066Z,29173,-0.00793457,-0.10852051,0.03363037
1734713542074,2024-12-20T16:52:22.074Z,29181,-0.005065918,-0.11407471,0.032836914
1734713542081,2024-12-20T16:52:22.081Z,29188,3.0517578E-4,-0.115356445,0.03149414
1734713542102,2024-12-20T16:52:22.102Z,29209,-0.008483887,-0.107666016,0.03186035
1734713542111,2024-12-20T16:52:22.111Z,29218,-0.011291504,-0.10858154,0.03100586
1734713542114,2024-12-20T16:52:22.114Z,29221,-0.016967773,-0.11553955,0.03277588
1734713542122,2024-12-20T16:52:22.122Z,29229,-0.021484375,-0.11444092,0.031982422
1734713542189,2024-12-20T16:52:22.189Z,29296,-0.015319824,-0.11645508,0.031982422
1734713542196,2024-12-20T16:52:22.196Z,29303,-0.011047363,-0.11633301,0.03314209
1734713542203,2024-12-20T16:52:22.203Z,29310,-0.007446289,-0.1171875,0.03173828
1734713542210,2024-12-20T16:52:22.210Z,29317,0.0012817383,-0.124694824,0.025878906
1734713542216,2024-12-20T16:52:22.216Z,29323,0.008117676,-0.12158203,0.024719238
1734713542223,2024-12-20T16:52:22.223Z,29330,0.009155273,-0.11791992,0.027160645
1734713542239,2024-12-20T16:52:22.239Z,29346,0.0030517578,-0.119262695,0.029907227
1734713542248,2024-12-20T16:52:22.248Z,29355,-0.0044555664,-0.119506836,0.030761719
1734713542279,2024-12-20T16:52:22.279Z,29386,0.0017700195,-0.12023926,0.031311035
1734713542287,2024-12-20T16:52:22.287Z,29394,0.0031738281,-0.11999512,0.032470703
1734713542331,2024-12-20T16:52:22.331Z,29438,-0.009643555,-0.118896484,0.034484863
1734713542343,2024-12-20T16:52:22.343Z,29450,-0.003479004,-0.117126465,0.03778076
1734713542354,2024-12-20T16:52:22.354Z,29461,-0.0031738281,-0.11657715,0.0368042
1734713542362,2024-12-20T16:52:22.362Z,29469,0.0022583008,-0.1159668,0.030761719
1734713542373,2024-12-20T16:52:22.373Z,29480,0.005004883,-0.11602783,0.027526855
1734713542381,2024-12-20T16:52:22.381Z,29488,0.008422852,-0.11645508,0.03540039
1734713542388,2024-12-20T16:52:22.388Z,29495,0.003479004,-0.1171875,0.04095459
1734713542394,2024-12-20T16:52:22.394Z,29501,6.1035156E-4,-0.12017822,0.041015625
1734713542401,2024-12-20T16:52:22.401Z,29508,0.0021972656,-0.12036133,0.03643799
1734713542408,2024-12-20T16:52:22.408Z,29515,-0.0025024414,-0.118774414,0.029724121
1734713542411,2024-12-20T16:52:22.411Z,29518,-0.008544922,-0.10583496,0.031921387
1734713542417,2024-12-20T16:52:22.417Z,29524,-0.01184082,-0.10571289,0.03387451
1734713542421,2024-12-20T16:52:22.421Z,29528,-0.006713867,-0.1184082,0.049987793
1734713542428,2024-12-20T16:52:22.428Z,29535,-0.0017089844,-0.119384766,0.044799805
1734713542436,2024-12-20T16:52:22.436Z,29543,0.0038452148,-0.118896484,0.038757324
1734713542459,2024-12-20T16:52:22.459Z,29566,0.0021362305,-0.117614746,0.03881836
1734713542464,2024-12-20T16:52:22.464Z,29571,-0.002380371,-0.11340332,0.0390625
1734713542470,2024-12-20T16:52:22.470Z,29577,-0.00390625,-0.113098145,0.036621094
1734713542476,2024-12-20T16:52:22.476Z,29583,-2.4414062E-4,-0.11706543,0.039733887
1734713542480,2024-12-20T16:52:22.480Z,29587,0.003112793,-0.11871338,0.040893555
1734713542486,2024-12-20T16:52:22.486Z,29593,0.0021972656,-0.1217041,0.0390625
1734713542505,2024-12-20T16:52:22.505Z,29612,0.0021972656,-0.12310791,0.038146973
1734713542510,2024-12-20T16:52:22.510Z,29617,0.0025634766,-0.120910645,0.0357666
1734713542516,2024-12-20T16:52:22.516Z,29623,0.0014038086,-0.12042236,0.03314209
1734713542522,2024-12-20T16:52:22.522Z,29629,0.0014038086,-0.119384766,0.03289795
1734713542527,2024-12-20T16:52:22.527Z,29634,0.001953125,-0.11895752,0.03643799
1734713542548,2024-12-20T16:52:22.548Z,29655,0.0024414062,-0.12042236,0.040771484
1734713542555,2024-12-20T16:52:22.555Z,29662,3.6621094E-4,-0.123413086,0.041259766
1734713542561,2024-12-20T16:52:22.561Z,29668,0.0033569336,-0.12207031,0.038635254
1734713542567,2024-12-20T16:52:22.567Z,29674,0.0040893555,-0.12054443,0.03338623
1734713542573,2024-12-20T16:52:22.573Z,29680,0.0016479492,-0.12097168,0.031311035
1734713542578,2024-12-20T16:52:22.578Z,29685,0.0015258789,-0.11956787,0.031555176
1734713542595,2024-12-20T16:52:22.595Z,29702,-0.0025024414,-0.119018555,0.03326416
1734713542600,2024-12-20T16:52:22.600Z,29707,-0.0032958984,-0.12145996,0.0368042
1734713542606,2024-12-20T16:52:22.606Z,29713,-0.003967285,-0.121032715,0.03564453
1734713542612,2024-12-20T16:52:22.612Z,29719,-0.005004883,-0.120666504,0.030944824
1734713542617,2024-12-20T16:52:22.617Z,29724,-0.002746582,-0.12121582,0.028930664
1734713542637,2024-12-20T16:52:22.637Z,29744,-0.0024414062,-0.11907959,0.028442383
1734713542643,2024-12-20T16:52:22.643Z,29750,-0.0020751953,-0.11791992,0.030395508
1734713542648,2024-12-20T16:52:22.648Z,29755,-3.6621094E-4,-0.116760254,0.029174805
1734713542654,2024-12-20T16:52:22.654Z,29761,-0.006652832,-0.11517334,0.028503418
1734713542659,2024-12-20T16:52:22.659Z,29766,-0.0048217773,-0.116760254,0.032348633
1734713542664,2024-12-20T16:52:22.664Z,29771,0.0013427734,-0.11694336,0.03253174
1734713542687,2024-12-20T16:52:22.687Z,29794,0.0029907227,-0.1159668,0.027648926
1734713542692,2024-12-20T16:52:22.692Z,29799,0.002380371,-0.110961914,0.024475098
1734713542697,2024-12-20T16:52:22.697Z,29804,-7.9345703E-4,-0.10241699,0.02331543
1734713542703,2024-12-20T16:52:22.703Z,29810,-0.0015869141,-0.11077881,0.020751953
1734713542709,2024-12-20T16:52:22.709Z,29816,0.0032958984,-0.11853027,0.022949219
1734713542773,2024-12-20T16:52:22.773Z,29880,0.0020751953,-0.10498047,0.02178955
1734713542823,2024-12-20T16:52:22.823Z,29930,-0.007080078,-0.09991455,0.024963379
1734713542829,2024-12-20T16:52:22.829Z,29936,6.1035156E-4,-0.115722656,0.026062012
1734713542836,2024-12-20T16:52:22.836Z,29943,0.012329102,-0.11779785,0.02368164
1734713542842,2024-12-20T16:52:22.842Z,29949,0.010925293,-0.1161499,0.027893066
1734713542848,2024-12-20T16:52:22.848Z,29955,0.0037841797,-0.11505127,0.035339355
1734713542863,2024-12-20T16:52:22.863Z,29970,0.001159668,-0.11816406,0.040283203
1734713542871,2024-12-20T16:52:22.871Z,29978,0.0029296875,-0.12402344,0.041381836
1734713542878,2024-12-20T16:52:22.878Z,29985,0.0029296875,-0.1237793,0.041503906
1734713542885,2024-12-20T16:52:22.885Z,29992,-0.0022583008,-0.1184082,0.04284668
1734713542892,2024-12-20T16:52:22.892Z,29999,-2.4414062E-4,-0.117248535,0.04437256
1734713542902,2024-12-20T16:52:22.902Z,30009,0.0013427734,-0.11663818,0.043151855
1734713542914,2024-12-20T16:52:22.914Z,30021,0.0012817383,-0.12176514,0.04486084
1734713542924,2024-12-20T16:52:22.924Z,30031,-0.0015258789,-0.11810303,0.047790527
1734713542938,2024-12-20T16:52:22.938Z,30045,-0.0041503906,-0.1184082,0.046020508
1734713542951,2024-12-20T16:52:22.951Z,30058,-0.0053100586,-0.117370605,0.041625977
1734713542962,2024-12-20T16:52:22.962Z,30069,-0.003479004,-0.113586426,0.03894043
1734713543002,2024-12-20T16:52:23.002Z,30109,-0.0018310547,-0.11212158,0.038757324
1734713543014,2024-12-20T16:52:23.014Z,30121,-0.0034179688,-0.1105957,0.038513184
1734713543027,2024-12-20T16:52:23.027Z,30134,-3.6621094E-4,-0.11413574,0.039245605
1734713543041,2024-12-20T16:52:23.041Z,30148,0.002746582,-0.11828613,0.036743164
1734713543055,2024-12-20T16:52:23.055Z,30162,0.008239746,-0.120788574,0.0357666
1734713543070,2024-12-20T16:52:23.070Z,30177,0.0064086914,-0.12060547,0.03564453
1734713543098,2024-12-20T16:52:23.098Z,30205,9.765625E-4,-0.11987305,0.033813477
1734713543112,2024-12-20T16:52:23.112Z,30219,0.0014038086,-0.11791992,0.03112793
1734713543125,2024-12-20T16:52:23.125Z,30232,0.0053100586,-0.11669922,0.0289917
1734713543135,2024-12-20T16:52:23.135Z,30242,0.0049438477,-0.113342285,0.028076172
1734713543142,2024-12-20T16:52:23.142Z,30249,0.0031738281,-0.10900879,0.030151367
1734713543150,2024-12-20T16:52:23.150Z,30257,0.004333496,-0.10992432,0.034301758
1734713543180,2024-12-20T16:52:23.180Z,30287,-0.0012817383,-0.11529541,0.037841797
1734713543189,2024-12-20T16:52:23.189Z,30296,-0.005126953,-0.11578369,0.039794922
1734713543197,2024-12-20T16:52:23.197Z,30304,-0.007385254,-0.11541748,0.03552246
1734713543205,2024-12-20T16:52:23.205Z,30312,-0.009460449,-0.115356445,0.034606934
1734713543214,2024-12-20T16:52:23.214Z,30321,-0.0076904297,-0.11859131,0.03729248
1734713543221,2024-12-20T16:52:23.221Z,30328,-0.005432129,-0.11743164,0.039001465
1734713543272,2024-12-20T16:52:23.272Z,30379,0.006286621,-0.10809326,0.040771484
1734713543317,2024-12-20T16:52:23.317Z,30424,0.005859375,-0.1060791,0.034301758
1734713543328,2024-12-20T16:52:23.328Z,30435,0.0051879883,-0.10839844,0.031799316
1734713543340,2024-12-20T16:52:23.340Z,30447,0.0044555664,-0.10760498,0.032043457
1734713543349,2024-12-20T16:52:23.349Z,30456,0.003112793,-0.11065674,0.03265381
1734713543358,2024-12-20T16:52:23.358Z,30465,2.4414062E-4,-0.117004395,0.033996582
1734713543367,2024-12-20T16:52:23.367Z,30474,-0.0064086914,-0.11401367,0.04345703
1734713543375,2024-12-20T16:52:23.375Z,30482,0.0020141602,-0.11035156,0.03778076
1734713543383,2024-12-20T16:52:23.383Z,30490,-3.6621094E-4,-0.10614014,0.03173828
1734713543390,2024-12-20T16:52:23.390Z,30497,-0.0032958984,-0.10638428,0.032226562
1734713543397,2024-12-20T16:52:23.397Z,30504,5.493164E-4,-0.10858154,0.03515625
1734713543405,2024-12-20T16:52:23.405Z,30512,-0.0014648438,-0.10870361,0.034729004
1734713543408,2024-12-20T16:52:23.408Z,30515,-0.005493164,-0.11065674,0.034973145
1734713543414,2024-12-20T16:52:23.414Z,30521,-0.010009766,-0.10961914,0.05114746
1734713543420,2024-12-20T16:52:23.420Z,30527,-0.0056152344,-0.11608887,0.052368164
1734713543426,2024-12-20T16:52:23.426Z,30533,0.0036621094,-0.11828613,0.048706055
1734713543431,2024-12-20T16:52:23.431Z,30538,7.324219E-4,-0.10961914,0.04272461
1734713543437,2024-12-20T16:52:23.437Z,30544,-0.0056152344,-0.103515625,0.034423828
1734713543447,2024-12-20T16:52:23.447Z,30554,-0.006713867,-0.10089111,0.030639648
1734713543494,2024-12-20T16:52:23.494Z,30601,-0.0063476562,-0.09710693,0.031311035
1734713543501,2024-12-20T16:52:23.501Z,30608,-0.010864258,-0.105651855,0.025146484
1734713543507,2024-12-20T16:52:23.507Z,30614,-0.008605957,-0.122680664,0.032470703
1734713543512,2024-12-20T16:52:23.512Z,30619,-0.0029296875,-0.12219238,0.041748047
1734713543518,2024-12-20T16:52:23.518Z,30625,-0.009460449,-0.1104126,0.034423828
1734713543524,2024-12-20T16:52:23.524Z,30631,-0.01776123,-0.10803223,0.022155762
1734713543544,2024-12-20T16:52:23.544Z,30651,-0.012939453,-0.10632324,0.021484375
1734713543550,2024-12-20T16:52:23.550Z,30657,-0.0029296875,-0.09942627,0.027282715
1734713543556,2024-12-20T16:52:23.556Z,30663,-0.003540039,-0.10614014,0.037109375
1734713543562,2024-12-20T16:52:23.562Z,30669,0.0014038086,-0.122924805,0.04083252
1734713543586,2024-12-20T16:52:23.586Z,30693,0.004333496,-0.123535156,0.039978027
1734713543593,2024-12-20T16:52:23.593Z,30700,0.0020141602,-0.11682129,0.03881836
1734713543599,2024-12-20T16:52:23.599Z,30706,-0.006164551,-0.11029053,0.03729248
1734713543605,2024-12-20T16:52:23.605Z,30712,-0.009216309,-0.10180664,0.032104492
1734713543611,2024-12-20T16:52:23.611Z,30718,-0.007080078,-0.103271484,0.03656006
1734713543627,2024-12-20T16:52:23.627Z,30734,-1.2207031E-4,-0.10913086,0.038879395
1734713543632,2024-12-20T16:52:23.632Z,30739,0.0053710938,-0.10223389,0.0357666
1734713543638,2024-12-20T16:52:23.638Z,30745,-0.0033569336,-0.095214844,0.0345459
1734713543645,2024-12-20T16:52:23.645Z,30752,-0.010864258,-0.103881836,0.031982422
1734713543650,2024-12-20T16:52:23.650Z,30757,-0.0087890625,-0.11077881,0.025939941
1734713543656,2024-12-20T16:52:23.656Z,30763,-0.012756348,-0.10626221,0.024414062
1734713543675,2024-12-20T16:52:23.675Z,30782,-0.012329102,-0.107910156,0.024780273
1734713543680,2024-12-20T16:52:23.680Z,30787,-0.0048217773,-0.11206055,0.025390625
1734713543686,2024-12-20T16:52:23.686Z,30793,0.0029296875,-0.11035156,0.026672363
1734713543692,2024-12-20T16:52:23.692Z,30799,0.005004883,-0.106933594,0.026184082
1734713543697,2024-12-20T16:52:23.697Z,30804,0.002319336,-0.11071777,0.026794434
1734713543718,2024-12-20T16:52:23.718Z,30825,-0.0028686523,-0.11505127,0.02520752
1734713543763,2024-12-20T16:52:23.763Z,30870,-0.015686035,-0.115234375,0.02911377
1734713543770,2024-12-20T16:52:23.770Z,30877,-0.028930664,-0.1184082,0.03704834
1734713543776,2024-12-20T16:52:23.776Z,30883,-0.028381348,-0.12799072,0.04119873
1734713543783,2024-12-20T16:52:23.783Z,30890,-0.02355957,-0.12322998,0.03503418
1734713543790,2024-12-20T16:52:23.790Z,30897,-0.013793945,-0.11010742,0.034973145
1734713543796,2024-12-20T16:52:23.796Z,30903,-0.010620117,-0.10681152,0.03845215
1734713543811,2024-12-20T16:52:23.811Z,30918,-0.014038086,-0.08972168,0.03894043
1734713543819,2024-12-20T16:52:23.819Z,30926,-0.020812988,-0.08929443,0.0435791
1734713543826,2024-12-20T16:52:23.826Z,30933,-0.018127441,-0.121154785,0.03845215
1734713543899,2024-12-20T16:52:23.899Z,31006,-0.022277832,-0.123168945,0.034484863
1734713543906,2024-12-20T16:52:23.906Z,31013,-0.024475098,-0.11224365,0.041931152
1734713543912,2024-12-20T16:52:23.912Z,31019,-0.02923584,-0.120788574,0.04425049
1734713543918,2024-12-20T16:52:23.918Z,31025,-0.030273438,-0.12634277,0.048034668
1734713543924,2024-12-20T16:52:23.924Z,31031,-0.018188477,-0.11816406,0.049926758
1734713543931,2024-12-20T16:52:23.931Z,31038,-0.0043945312,-0.11419678,0.043151855
1734713543948,2024-12-20T16:52:23.948Z,31055,-0.0076293945,-0.10180664,0.041259766
1734713543956,2024-12-20T16:52:23.956Z,31063,-0.007019043,-0.089538574,0.044555664
1734713543963,2024-12-20T16:52:23.963Z,31070,-0.0049438477,-0.10430908,0.045654297
1734713543971,2024-12-20T16:52:23.971Z,31078,-0.003112793,-0.12335205,0.04272461
1734713543977,2024-12-20T16:52:23.977Z,31084,-0.0068359375,-0.12042236,0.04486084
1734713543990,2024-12-20T16:52:23.990Z,31097,-0.016357422,-0.112976074,0.038757324
1734713543994,2024-12-20T16:52:23.994Z,31101,-0.017822266,-0.11584473,0.04296875
1734713543999,2024-12-20T16:52:23.999Z,31106,-0.022888184,-0.13348389,0.043273926
1734713544005,2024-12-20T16:52:24.005Z,31112,-0.016296387,-0.123168945,0.040405273
1734713544011,2024-12-20T16:52:24.011Z,31118,0.0017700195,-0.095825195,0.04248047
1734713544032,2024-12-20T16:52:24.032Z,31139,0.005859375,-0.07342529,0.038269043
1734713544039,2024-12-20T16:52:24.039Z,31146,-0.00982666,-0.08514404,0.02758789
1734713544046,2024-12-20T16:52:24.046Z,31153,-0.013061523,-0.105285645,0.020751953
1734713544057,2024-12-20T16:52:24.057Z,31164,-0.024353027,-0.11022949,0.024108887
1734713544063,2024-12-20T16:52:24.063Z,31170,-0.03540039,-0.11932373,0.027404785
1734713544068,2024-12-20T16:52:24.068Z,31175,-0.039794922,-0.1305542,0.02746582
1734713544081,2024-12-20T16:52:24.081Z,31188,-0.029418945,-0.123413086,0.019958496
1734713544086,2024-12-20T16:52:24.086Z,31193,-0.01373291,-0.113464355,0.02319336
1734713544093,2024-12-20T16:52:24.093Z,31200,-0.010620117,-0.11016846,0.03137207
1734713544103,2024-12-20T16:52:24.103Z,31210,-0.015625,-0.10266113,0.0357666
1734713544112,2024-12-20T16:52:24.112Z,31219,-0.010498047,-0.107299805,0.037719727
1734713544126,2024-12-20T16:52:24.126Z,31233,-0.019226074,-0.11993408,0.03729248
1734713544138,2024-12-20T16:52:24.138Z,31245,-0.022216797,-0.12615967,0.031188965
1734713544145,2024-12-20T16:52:24.145Z,31252,-0.022094727,-0.123046875,0.03125
1734713544150,2024-12-20T16:52:24.150Z,31257,-0.011108398,-0.11401367,0.034179688
1734713544156,2024-12-20T16:52:24.156Z,31263,0.016662598,-0.10290527,0.037841797
1734713544163,2024-12-20T16:52:24.163Z,31270,0.0032958984,-0.104003906,0.030700684
1734713544215,2024-12-20T16:52:24.215Z,31322,-0.010681152,-0.1126709,0.023864746
1734713544352,2024-12-20T16:52:24.352Z,31459,-0.00982666,-0.112854004,0.022583008
1734713544368,2024-12-20T16:52:24.368Z,31475,-0.0087890625,-0.107543945,0.022705078
1734713544384,2024-12-20T16:52:24.384Z,31491,-6.713867E-4,-0.10974121,0.02178955
1734713544399,2024-12-20T16:52:24.399Z,31506,-0.007507324,-0.103149414,0.025939941
1734713544414,2024-12-20T16:52:24.414Z,31521,-0.020751953,-0.10437012,0.03729248
1734713544426,2024-12-20T16:52:24.426Z,31533,-0.03717041,-0.109802246,0.040771484
1734713544531,2024-12-20T16:52:24.531Z,31638,-0.044677734,-0.099853516,0.03967285
1734713544544,2024-12-20T16:52:24.544Z,31651,-0.03363037,-0.1026001,0.042297363
1734713544626,2024-12-20T16:52:24.626Z,31733,-0.018005371,-0.10058594,0.053100586
1734713544640,2024-12-20T16:52:24.640Z,31747,-0.025756836,-0.09246826,0.062805176
1734713544652,2024-12-20T16:52:24.652Z,31759,-0.019165039,-0.09362793,0.06921387
1734713544662,2024-12-20T16:52:24.662Z,31769,-0.0048217773,-0.09527588,0.06463623
1734713544667,2024-12-20T16:52:24.667Z,31774,-0.0031738281,-0.13311768,0.05114746
1734713544676,2024-12-20T16:52:24.676Z,31783,0.0064086914,-0.13275146,0.03466797
1734713544711,2024-12-20T16:52:24.711Z,31818,-0.022460938,-0.12414551,0.018493652
1734713544756,2024-12-20T16:52:24.756Z,31863,-0.020751953,-0.12060547,0.033447266
1734713544855,2024-12-20T16:52:24.855Z,31962,-0.002380371,-0.12121582,0.057434082
1734713544871,2024-12-20T16:52:24.871Z,31978,0.0048217773,-0.121276855,0.059265137
1734713544887,2024-12-20T16:52:24.887Z,31994,0.018310547,-0.11077881,0.041137695
1734713544902,2024-12-20T16:52:24.902Z,32009,0.026245117,-0.107910156,0.052246094
1734713544915,2024-12-20T16:52:24.915Z,32022,0.0134887695,-0.13604736,0.052734375
1734713544924,2024-12-20T16:52:24.924Z,32031,0.0031738281,-0.1416626,0.048217773
1734713544933,2024-12-20T16:52:24.933Z,32040,0.009094238,-0.12963867,0.059631348
1734713544942,2024-12-20T16:52:24.942Z,32049,0.01574707,-0.11010742,0.0625
1734713544950,2024-12-20T16:52:24.950Z,32057,0.0146484375,-0.09283447,0.060668945
1734713544958,2024-12-20T16:52:24.958Z,32065,0.015075684,-0.10266113,0.06677246
1734713544961,2024-12-20T16:52:24.961Z,32068,0.022216797,-0.10235596,0.06689453
1734713544965,2024-12-20T16:52:24.965Z,32072,0.02331543,-0.12573242,0.05609131
1734713544968,2024-12-20T16:52:24.968Z,32075,0.026184082,-0.10235596,0.064697266
1734713544972,2024-12-20T16:52:24.972Z,32079,0.009765625,-0.10797119,0.080200195
1734713544978,2024-12-20T16:52:24.978Z,32085,0.02355957,-0.10638428,0.091918945
1734713544985,2024-12-20T16:52:24.985Z,32092,0.034057617,-0.108947754,0.09008789
1734713544991,2024-12-20T16:52:24.991Z,32098,0.018005371,-0.1104126,0.08770752
1734713544997,2024-12-20T16:52:24.997Z,32104,0.018493652,-0.11773682,0.08477783
1734713545025,2024-12-20T16:52:25.025Z,32132,0.03491211,-0.12158203,0.068603516
1734713545032,2024-12-20T16:52:25.032Z,32139,0.030334473,-0.12335205,0.07659912
1734713545039,2024-12-20T16:52:25.039Z,32146,0.033081055,-0.12677002,0.09954834
1734713545046,2024-12-20T16:52:25.046Z,32153,0.04699707,-0.12335205,0.10888672
1734713545069,2024-12-20T16:52:25.069Z,32176,0.03265381,-0.119628906,0.11224365
1734713545076,2024-12-20T16:52:25.076Z,32183,0.030700684,-0.12017822,0.095336914
1734713545083,2024-12-20T16:52:25.083Z,32190,0.045715332,-0.11602783,0.07043457
1734713545089,2024-12-20T16:52:25.089Z,32196,0.032592773,-0.110961914,0.066467285
1734713545095,2024-12-20T16:52:25.095Z,32202,0.030761719,-0.103515625,0.07623291
1734713545113,2024-12-20T16:52:25.113Z,32220,0.040100098,-0.10119629,0.07788086
1734713545118,2024-12-20T16:52:25.118Z,32225,0.033813477,-0.11505127,0.07513428
1734713545121,2024-12-20T16:52:25.121Z,32228,0.014587402,-0.10430908,0.055664062
1734713545127,2024-12-20T16:52:25.127Z,32234,0.022399902,-0.09643555,0.05847168
1734713545133,2024-12-20T16:52:25.133Z,32240,0.025024414,-0.094177246,0.054260254
1734713545138,2024-12-20T16:52:25.138Z,32245,0.011413574,-0.09753418,0.049438477
1734713545158,2024-12-20T16:52:25.158Z,32265,0.021911621,-0.111206055,0.06225586
1734713545164,2024-12-20T16:52:25.164Z,32271,0.03753662,-0.11578369,0.06518555
1734713545170,2024-12-20T16:52:25.170Z,32277,0.034484863,-0.10418701,0.062683105
1734713545175,2024-12-20T16:52:25.175Z,32282,0.0178833,-0.09295654,0.060180664
1734713545182,2024-12-20T16:52:25.182Z,32289,0.016357422,-0.09259033,0.06335449
1734713545188,2024-12-20T16:52:25.188Z,32295,0.023132324,-0.09564209,0.066223145
1734713545207,2024-12-20T16:52:25.207Z,32314,0.018127441,-0.103759766,0.057922363
1734713545218,2024-12-20T16:52:25.218Z,32325,0.027404785,-0.11450195,0.05316162
1734713545232,2024-12-20T16:52:25.232Z,32339,0.028625488,-0.11206055,0.07141113
1734713545238,2024-12-20T16:52:25.238Z,32345,0.035888672,-0.1104126,0.08831787
1734713545243,2024-12-20T16:52:25.243Z,32350,0.04248047,-0.10900879,0.09020996
1734713545250,2024-12-20T16:52:25.250Z,32357,0.018981934,-0.10076904,0.066223145
1734713545294,2024-12-20T16:52:25.294Z,32401,-0.0026855469,-0.09979248,0.05493164
1734713545300,2024-12-20T16:52:25.300Z,32407,-0.010314941,-0.11254883,0.061401367
1734713545305,2024-12-20T16:52:25.305Z,32412,-0.0026855469,-0.13250732,0.07055664
1734713545312,2024-12-20T16:52:25.312Z,32419,0.008911133,-0.1303711,0.08258057
1734713545318,2024-12-20T16:52:25.318Z,32425,0.0078125,-0.12445068,0.09112549
1734713545325,2024-12-20T16:52:25.325Z,32432,0.016357422,-0.12109375,0.094177246
1734713545391,2024-12-20T16:52:25.391Z,32498,0.013000488,-0.10369873,0.08331299
1734713545399,2024-12-20T16:52:25.399Z,32506,0.018005371,-0.097595215,0.06536865
1734713545406,2024-12-20T16:52:25.406Z,32513,0.0028076172,-0.113586426,0.04345703
1734713545433,2024-12-20T16:52:25.433Z,32540,-0.0044555664,-0.1361084,0.051452637
1734713545441,2024-12-20T16:52:25.441Z,32548,0.019042969,-0.13623047,0.074279785
1734713545449,2024-12-20T16:52:25.449Z,32556,0.016174316,-0.11468506,0.086120605
1734713545456,2024-12-20T16:52:25.456Z,32563,0.037902832,-0.11462402,0.08850098
1734713545464,2024-12-20T16:52:25.464Z,32571,0.05444336,-0.11071777,0.08673096
1734713545478,2024-12-20T16:52:25.478Z,32585,0.05517578,-0.105651855,0.083862305
1734713545485,2024-12-20T16:52:25.485Z,32592,0.036315918,-0.112854004,0.053588867
1734713545492,2024-12-20T16:52:25.492Z,32599,-0.022277832,-0.119018555,0.014953613
1734713545499,2024-12-20T16:52:25.499Z,32606,0.030944824,-0.09655762,0.08319092
1734713545505,2024-12-20T16:52:25.505Z,32612,0.027893066,-0.08880615,0.080566406
1734713545517,2024-12-20T16:52:25.517Z,32624,0.031311035,-0.1105957,0.06726074
1734713545523,2024-12-20T16:52:25.523Z,32630,-0.047607422,-0.10974121,0.022827148
1734713545529,2024-12-20T16:52:25.529Z,32636,-0.014221191,-0.13513184,0.06225586
1734713545534,2024-12-20T16:52:25.534Z,32641,0.008361816,-0.12988281,0.06774902
1734713545539,2024-12-20T16:52:25.539Z,32646,0.0126953125,-0.107910156,0.057922363
1734713545544,2024-12-20T16:52:25.544Z,32651,0.014831543,-0.08526611,0.048706055
1734713545566,2024-12-20T16:52:25.566Z,32673,0.019958496,-0.06738281,0.04156494
1734713545571,2024-12-20T16:52:25.571Z,32678,2.4414062E-4,-0.0770874,0.020568848
1734713545578,2024-12-20T16:52:25.578Z,32685,-0.029418945,-0.121154785,0.014038086
1734713545583,2024-12-20T16:52:25.583Z,32690,-0.018371582,-0.1550293,0.033569336
1734713545588,2024-12-20T16:52:25.588Z,32695,6.1035156E-4,-0.14160156,0.055847168
1734713545609,2024-12-20T16:52:25.609Z,32716,0.013977051,-0.11138916,0.068481445
1734713545614,2024-12-20T16:52:25.614Z,32721,0.02368164,-0.09637451,0.067993164
1734713545619,2024-12-20T16:52:25.619Z,32726,0.017944336,-0.07775879,0.05670166
1734713545625,2024-12-20T16:52:25.625Z,32732,0.0051879883,-0.07720947,0.059570312
1734713545631,2024-12-20T16:52:25.631Z,32738,-0.013244629,-0.11291504,0.06298828
1734713545636,2024-12-20T16:52:25.636Z,32743,-0.024719238,-0.13787842,0.06463623
1734713545655,2024-12-20T16:52:25.655Z,32762,-0.0138549805,-0.14794922,0.07446289
1734713545662,2024-12-20T16:52:25.662Z,32769,0.008544922,-0.14086914,0.08294678
1734713545668,2024-12-20T16:52:25.668Z,32775,0.0064086914,-0.11340332,0.08630371
1734713545673,2024-12-20T16:52:25.673Z,32780,-0.0040893555,-0.09448242,0.07647705
1734713545698,2024-12-20T16:52:25.698Z,32805,-0.012817383,-0.08483887,0.059570312
1734713545703,2024-12-20T16:52:25.703Z,32810,-0.018737793,-0.09741211,0.039611816
1734713545709,2024-12-20T16:52:25.709Z,32816,-0.021606445,-0.12213135,0.02947998
1734713545715,2024-12-20T16:52:25.715Z,32822,-0.028747559,-0.13220215,0.03857422
1734713545720,2024-12-20T16:52:25.720Z,32827,-0.019165039,-0.13433838,0.049926758
1734713545727,2024-12-20T16:52:25.727Z,32834,-0.007751465,-0.12646484,0.04748535
1734713545745,2024-12-20T16:52:25.745Z,32852,-0.0138549805,-0.10675049,0.042114258
1734713545751,2024-12-20T16:52:25.751Z,32858,-0.018127441,-0.10217285,0.03656006
1734713545756,2024-12-20T16:52:25.756Z,32863,-0.009155273,-0.11071777,0.026489258
1734713545762,2024-12-20T16:52:25.762Z,32869,-0.008728027,-0.11730957,0.032165527
1734713545768,2024-12-20T16:52:25.768Z,32875,-0.009643555,-0.13208008,0.038391113
1734713545788,2024-12-20T16:52:25.788Z,32895,-0.008300781,-0.1272583,0.04425049
1734713545794,2024-12-20T16:52:25.794Z,32901,-0.016906738,-0.101379395,0.05493164
1734713545800,2024-12-20T16:52:25.800Z,32907,-0.031555176,-0.10235596,0.059570312
1734713545806,2024-12-20T16:52:25.806Z,32913,-0.028076172,-0.12658691,0.04425049
1734713545831,2024-12-20T16:52:25.831Z,32938,-0.014038086,-0.12866211,0.027648926
1734713545837,2024-12-20T16:52:25.837Z,32944,-0.016052246,-0.12322998,0.032287598
1734713545878,2024-12-20T16:52:25.878Z,32985,-0.018188477,-0.12701416,0.04083252
1734713545884,2024-12-20T16:52:25.884Z,32991,-0.0061035156,-0.116882324,0.054016113
1734713545891,2024-12-20T16:52:25.891Z,32998,-0.0056152344,-0.109680176,0.06890869
1734713545898,2024-12-20T16:52:25.898Z,33005,-0.02178955,-0.115600586,0.0602417
1734713545904,2024-12-20T16:52:25.904Z,33011,-0.01751709,-0.121276855,0.039123535
1734713545910,2024-12-20T16:52:25.910Z,33017,-0.0076293945,-0.12426758,0.023071289
1734713545926,2024-12-20T16:52:25.926Z,33033,-0.0068969727,-0.13519287,0.018310547
1734713545934,2024-12-20T16:52:25.934Z,33041,-0.019836426,-0.13098145,0.015808105
1734713545970,2024-12-20T16:52:25.970Z,33077,-0.021484375,-0.10949707,0.018127441
1734713545979,2024-12-20T16:52:25.979Z,33086,-0.016235352,-0.096069336,0.0368042
1734713545984,2024-12-20T16:52:25.984Z,33091,-0.016052246,-0.103759766,0.052612305
1734713545992,2024-12-20T16:52:25.992Z,33099,-0.009887695,-0.11456299,0.04321289
1734713545998,2024-12-20T16:52:25.998Z,33105,-0.009521484,-0.12176514,0.02923584
1734713546058,2024-12-20T16:52:26.058Z,33165,-0.020751953,-0.12664795,0.03265381
1734713546065,2024-12-20T16:52:26.065Z,33172,-0.034423828,-0.12738037,0.04119873
1734713546072,2024-12-20T16:52:26.072Z,33179,-0.044555664,-0.1262207,0.038208008
1734713546079,2024-12-20T16:52:26.079Z,33186,-0.036865234,-0.12072754,0.039794922
1734713546086,2024-12-20T16:52:26.086Z,33193,-0.021606445,-0.112976074,0.053466797
1734713546092,2024-12-20T16:52:26.092Z,33199,-0.012817383,-0.10992432,0.055236816
1734713546150,2024-12-20T16:52:26.150Z,33257,-1.2207031E-4,-0.111694336,0.052734375
1734713546157,2024-12-20T16:52:26.157Z,33264,-2.4414062E-4,-0.12335205,0.053833008
1734713546200,2024-12-20T16:52:26.200Z,33307,-0.014221191,-0.13342285,0.047546387
1734713546211,2024-12-20T16:52:26.211Z,33318,-0.03302002,-0.13140869,0.03967285
1734713546222,2024-12-20T16:52:26.222Z,33329,-0.04119873,-0.124938965,0.03491211
1734713546235,2024-12-20T16:52:26.235Z,33342,-0.03466797,-0.10614014,0.036987305
1734713546239,2024-12-20T16:52:26.239Z,33346,-0.020080566,-0.1038208,0.04437256
1734713546245,2024-12-20T16:52:26.245Z,33352,-0.0065307617,-0.12896729,0.049865723
1734713546251,2024-12-20T16:52:26.251Z,33358,-0.008911133,-0.13580322,0.040771484
1734713546256,2024-12-20T16:52:26.256Z,33363,-0.009155273,-0.12359619,0.034484863
1734713546262,2024-12-20T16:52:26.262Z,33369,-0.006713867,-0.119018555,0.04473877
1734713546267,2024-12-20T16:52:26.267Z,33374,-0.030090332,-0.111328125,0.030761719
1734713546270,2024-12-20T16:52:26.270Z,33377,-0.012390137,-0.13366699,0.05053711
1734713546275,2024-12-20T16:52:26.275Z,33382,-3.6621094E-4,-0.12896729,0.041381836
1734713546284,2024-12-20T16:52:26.284Z,33391,-0.05883789,-0.1182251,0.019104004
1734713546289,2024-12-20T16:52:26.289Z,33396,-0.05102539,-0.114746094,0.019226074
1734713546295,2024-12-20T16:52:26.295Z,33402,-0.037353516,-0.11425781,0.05065918
1734713546301,2024-12-20T16:52:26.301Z,33408,-0.024780273,-0.11627197,0.06677246
1734713546306,2024-12-20T16:52:26.306Z,33413,0.008728027,-0.12591553,0.052124023
1734713546326,2024-12-20T16:52:26.326Z,33433,0.018554688,-0.10473633,0.038146973
1734713546332,2024-12-20T16:52:26.332Z,33439,-0.002380371,-0.09625244,0.041381836
1734713546373,2024-12-20T16:52:26.373Z,33480,-0.037109375,-0.10662842,0.030395508
1734713546380,2024-12-20T16:52:26.380Z,33487,-0.05444336,-0.10974121,0.028503418
1734713546386,2024-12-20T16:52:26.386Z,33493,-0.041381836,-0.114746094,0.040283203
1734713546392,2024-12-20T16:52:26.392Z,33499,-0.032958984,-0.112976074,0.040527344
1734713546398,2024-12-20T16:52:26.398Z,33505,-0.0018920898,-0.10699463,0.045837402
1734713546404,2024-12-20T16:52:26.404Z,33511,-0.01184082,-0.10479736,0.042663574
1734713546513,2024-12-20T16:52:26.513Z,33620,-0.02911377,-0.11529541,0.033325195
1734713546519,2024-12-20T16:52:26.519Z,33626,-0.03100586,-0.105285645,0.032836914
1734713546524,2024-12-20T16:52:26.524Z,33631,-0.051086426,-0.096069336,0.02746582
1734713546553,2024-12-20T16:52:26.553Z,33660,-0.06109619,-0.11047363,0.016967773
1734713546560,2024-12-20T16:52:26.560Z,33667,-0.038757324,-0.12786865,0.032104492
1734713546566,2024-12-20T16:52:26.566Z,33673,-0.024108887,-0.13989258,0.04711914
1734713546572,2024-12-20T16:52:26.572Z,33679,-0.014465332,-0.14007568,0.043823242
1734713546578,2024-12-20T16:52:26.578Z,33685,-0.010559082,-0.11883545,0.03387451
1734713546584,2024-12-20T16:52:26.584Z,33691,-0.0064697266,-0.11450195,0.032714844
1734713546602,2024-12-20T16:52:26.602Z,33709,-0.010009766,-0.12658691,0.032714844
1734713546609,2024-12-20T16:52:26.609Z,33716,-0.022827148,-0.12072754,0.03265381
1734713546616,2024-12-20T16:52:26.616Z,33723,-0.041992188,-0.12615967,0.025268555
1734713546622,2024-12-20T16:52:26.622Z,33729,-0.03918457,-0.10803223,0.014709473
1734713546629,2024-12-20T16:52:26.629Z,33736,-0.015319824,-0.09661865,0.020507812
1734713546643,2024-12-20T16:52:26.643Z,33750,-0.030761719,-0.096191406,0.031555176
1734713546646,2024-12-20T16:52:26.646Z,33753,-0.038330078,-0.12335205,0.036071777
1734713546653,2024-12-20T16:52:26.653Z,33760,-0.03302002,-0.13165283,0.034423828
1734713546658,2024-12-20T16:52:26.658Z,33765,-0.029052734,-0.1272583,0.02911377
1734713546664,2024-12-20T16:52:26.664Z,33771,-0.034057617,-0.12994385,0.02734375
1734713546687,2024-12-20T16:52:26.687Z,33794,-0.024719238,-0.1296997,0.025512695
1734713546693,2024-12-20T16:52:26.693Z,33800,-0.007751465,-0.112854004,0.028137207
1734713546699,2024-12-20T16:52:26.699Z,33806,-0.011230469,-0.09967041,0.032226562
1734713546705,2024-12-20T16:52:26.705Z,33812,-0.009033203,-0.101745605,0.03186035
1734713546711,2024-12-20T16:52:26.711Z,33818,-0.005554199,-0.09844971,0.028747559
1734713546716,2024-12-20T16:52:26.716Z,33823,-0.010253906,-0.11254883,0.02935791
1734713546873,2024-12-20T16:52:26.873Z,33980,-0.012390137,-0.13604736,0.02368164
1734713546879,2024-12-20T16:52:26.879Z,33986,-0.01184082,-0.12463379,0.02331543
1734713546883,2024-12-20T16:52:26.883Z,33990,-0.02331543,-0.111328125,0.030700684
1734713546890,2024-12-20T16:52:26.890Z,33997,-0.032348633,-0.118896484,0.029724121
1734713546896,2024-12-20T16:52:26.896Z,34003,-0.042785645,-0.11791992,0.02331543
1734713546913,2024-12-20T16:52:26.913Z,34020,-0.031799316,-0.10876465,0.019897461
1734713546919,2024-12-20T16:52:26.919Z,34026,-0.015258789,-0.10333252,0.021850586
1734713546926,2024-12-20T16:52:26.926Z,34033,-0.020996094,-0.10675049,0.024597168
1734713546932,2024-12-20T16:52:26.932Z,34039,-0.0345459,-0.11035156,0.024597168
1734713546965,2024-12-20T16:52:26.965Z,34072,-0.036499023,-0.11663818,0.022888184
1734713546973,2024-12-20T16:52:26.973Z,34080,-0.0390625,-0.12420654,0.017822266
1734713546981,2024-12-20T16:52:26.981Z,34088,0.007446289,-0.11450195,0.04156494
1734713547020,2024-12-20T16:52:27.020Z,34127,0.008666992,-0.10913086,0.038269043
1734713547031,2024-12-20T16:52:27.031Z,34138,-0.0033569336,-0.09637451,0.03540039
1734713547038,2024-12-20T16:52:27.038Z,34145,-0.020385742,-0.11816406,0.037231445
1734713547045,2024-12-20T16:52:27.045Z,34152,-0.02746582,-0.13562012,0.038208008
1734713547052,2024-12-20T16:52:27.052Z,34159,-0.022583008,-0.1348877,0.036743164
1734713547058,2024-12-20T16:52:27.058Z,34165,-0.028747559,-0.13574219,0.037475586
1734713547064,2024-12-20T16:52:27.064Z,34171,-0.03515625,-0.1359253,0.032043457
1734713547070,2024-12-20T16:52:27.070Z,34177,-0.016174316,-0.122802734,0.036987305
1734713547075,2024-12-20T16:52:27.075Z,34182,-0.0107421875,-0.114868164,0.035217285
1734713547080,2024-12-20T16:52:27.080Z,34187,-0.007751465,-0.11364746,0.024902344
1734713547085,2024-12-20T16:52:27.085Z,34192,0.0045166016,-0.09375,0.023986816
1734713547097,2024-12-20T16:52:27.097Z,34204,-0.01361084,-0.12432861,0.02142334
1734713547102,2024-12-20T16:52:27.102Z,34209,-0.0020141602,-0.11602783,0.017028809
1734713547106,2024-12-20T16:52:27.106Z,34213,-0.012084961,-0.11303711,0.012207031
1734713547112,2024-12-20T16:52:27.112Z,34219,-0.02154541,-0.11657715,0.0119018555
1734713547118,2024-12-20T16:52:27.118Z,34225,-0.013549805,-0.12060547,0.012329102
1734713547137,2024-12-20T16:52:27.137Z,34244,-0.0076904297,-0.10809326,0.014343262
1734713547143,2024-12-20T16:52:27.143Z,34250,-0.018859863,-0.10144043,0.019165039
1734713547148,2024-12-20T16:52:27.148Z,34255,-0.029541016,-0.12219238,0.017089844
1734713547153,2024-12-20T16:52:27.153Z,34260,-0.027893066,-0.128479,0.010986328
1734713547158,2024-12-20T16:52:27.158Z,34265,-0.014282227,-0.1171875,0.020385742
1734713547163,2024-12-20T16:52:27.163Z,34270,-0.008972168,-0.11401367,0.02734375
1734713547186,2024-12-20T16:52:27.186Z,34293,-0.013793945,-0.110839844,0.025268555
1734713547278,2024-12-20T16:52:27.278Z,34385,-0.012145996,-0.10662842,0.022827148
1734713547284,2024-12-20T16:52:27.284Z,34391,-0.0012207031,-0.099975586,0.023742676
1734713547289,2024-12-20T16:52:27.289Z,34396,-0.0038452148,-0.093566895,0.024597168
1734713547295,2024-12-20T16:52:27.295Z,34402,-0.009399414,-0.11328125,0.02911377
1734713547301,2024-12-20T16:52:27.301Z,34408,-0.0033569336,-0.128479,0.02709961
1734713547317,2024-12-20T16:52:27.317Z,34424,-0.0026245117,-0.11553955,0.03173828
1734713547324,2024-12-20T16:52:27.324Z,34431,-0.02319336,-0.11138916,0.036621094
1734713547332,2024-12-20T16:52:27.332Z,34439,-0.024963379,-0.11730957,0.032836914
1734713547338,2024-12-20T16:52:27.338Z,34445,-0.0032958984,-0.11694336,0.03161621
1734713547345,2024-12-20T16:52:27.345Z,34452,0.0012817383,-0.11608887,0.032043457
1734713547362,2024-12-20T16:52:27.362Z,34469,0.0014648438,-0.12243652,0.030517578
1734713547369,2024-12-20T16:52:27.369Z,34476,-6.1035156E-5,-0.12371826,0.032592773
1734713547374,2024-12-20T16:52:27.374Z,34481,-0.0071411133,-0.118774414,0.02557373
1734713547380,2024-12-20T16:52:27.380Z,34487,-0.0037841797,-0.12023926,0.019836426
1734713547386,2024-12-20T16:52:27.386Z,34493,0.0021362305,-0.11730957,0.017822266
1734713547391,2024-12-20T16:52:27.391Z,34498,0.009399414,-0.11633301,0.023742676
1734713547411,2024-12-20T16:52:27.411Z,34518,0.003540039,-0.120788574,0.022033691
1734713547417,2024-12-20T16:52:27.417Z,34524,0.0053710938,-0.12713623,0.016113281
1734713547422,2024-12-20T16:52:27.422Z,34529,0.008117676,-0.12915039,0.026367188
1734713547428,2024-12-20T16:52:27.428Z,34535,-0.0014038086,-0.12402344,0.025756836
1734713547434,2024-12-20T16:52:27.434Z,34541,-0.011474609,-0.12036133,0.017211914
1734713547454,2024-12-20T16:52:27.454Z,34561,-0.018554688,-0.11657715,0.017333984
1734713547461,2024-12-20T16:52:27.461Z,34568,-0.012756348,-0.11437988,0.02520752
1734713547467,2024-12-20T16:52:27.467Z,34574,-0.008300781,-0.11328125,0.02709961
1734713547471,2024-12-20T16:52:27.471Z,34578,-0.008850098,-0.11657715,0.029663086
1734713547476,2024-12-20T16:52:27.476Z,34583,-0.0065307617,-0.11920166,0.036743164
1734713547482,2024-12-20T16:52:27.482Z,34589,-0.0053710938,-0.11505127,0.036193848
1734713547501,2024-12-20T16:52:27.501Z,34608,-0.004333496,-0.11236572,0.029968262
1734713547506,2024-12-20T16:52:27.506Z,34613,-0.006591797,-0.1116333,0.028747559
1734713547511,2024-12-20T16:52:27.511Z,34618,-0.009399414,-0.11035156,0.032348633
1734713547543,2024-12-20T16:52:27.543Z,34650,-0.003540039,-0.111328125,0.034301758
1734713547549,2024-12-20T16:52:27.549Z,34656,0.0032348633,-0.11529541,0.033325195
1734713547555,2024-12-20T16:52:27.555Z,34662,0.0010986328,-0.12017822,0.03491211
1734713547561,2024-12-20T16:52:27.561Z,34668,-3.6621094E-4,-0.11956787,0.034362793
1734713547567,2024-12-20T16:52:27.567Z,34674,0.004638672,-0.11883545,0.027709961
1734713547573,2024-12-20T16:52:27.573Z,34680,0.0025024414,-0.11767578,0.021972656
1734713547593,2024-12-20T16:52:27.593Z,34700,0.0043945312,-0.113708496,0.023071289
1734713547599,2024-12-20T16:52:27.599Z,34706,0.0037841797,-0.10913086,0.022521973
1734713547605,2024-12-20T16:52:27.605Z,34712,2.4414062E-4,-0.10809326,0.02355957
1734713547610,2024-12-20T16:52:27.610Z,34717,-0.005859375,-0.11077881,0.028076172
1734713547617,2024-12-20T16:52:27.617Z,34724,-0.011230469,-0.11340332,0.029174805
1734713547633,2024-12-20T16:52:27.633Z,34740,-0.008056641,-0.11590576,0.028686523
1734713547639,2024-12-20T16:52:27.639Z,34746,-0.0018310547,-0.1104126,0.02532959
1734713547645,2024-12-20T16:52:27.645Z,34752,-0.0068969727,-0.10107422,0.022583008
1734713547651,2024-12-20T16:52:27.651Z,34758,-0.008422852,-0.10870361,0.022705078
1734713547659,2024-12-20T16:52:27.659Z,34766,-0.0029907227,-0.11352539,0.022033691
1734713547679,2024-12-20T16:52:27.679Z,34786,7.324219E-4,-0.111450195,0.024108887
1734713547686,2024-12-20T16:52:27.686Z,34793,-0.0048217773,-0.11328125,0.028930664
1734713547692,2024-12-20T16:52:27.692Z,34799,-0.008300781,-0.11633301,0.026611328
1734713547699,2024-12-20T16:52:27.699Z,34806,-0.0016479492,-0.12145996,0.02520752
1734713547706,2024-12-20T16:52:27.706Z,34813,6.713867E-4,-0.12017822,0.022338867
1734713547712,2024-12-20T16:52:27.712Z,34819,-7.9345703E-4,-0.11816406,0.021606445
1734713547727,2024-12-20T16:52:27.727Z,34834,-0.0015258789,-0.11779785,0.025634766
1734713547732,2024-12-20T16:52:27.732Z,34839,-9.765625E-4,-0.119140625,0.026123047
1734713547738,2024-12-20T16:52:27.738Z,34845,6.1035156E-5,-0.1251831,0.023925781
1734713547743,2024-12-20T16:52:27.743Z,34850,0.0020141602,-0.13061523,0.025146484
1734713547767,2024-12-20T16:52:27.767Z,34874,0.004272461,-0.12750244,0.02746582
1734713547772,2024-12-20T16:52:27.772Z,34879,0.0010986328,-0.12463379,0.024597168
1734713547777,2024-12-20T16:52:27.777Z,34884,3.0517578E-4,-0.12567139,0.020324707
1734713547782,2024-12-20T16:52:27.782Z,34889,0.0053100586,-0.12219238,0.018127441
1734713547813,2024-12-20T16:52:27.813Z,34920,0.0032348633,-0.11834717,0.01965332
1734713547818,2024-12-20T16:52:27.818Z,34925,-0.0017700195,-0.11975098,0.023071289
1734713547823,2024-12-20T16:52:27.823Z,34930,-0.0012207031,-0.12054443,0.026977539
1734713547829,2024-12-20T16:52:27.829Z,34936,0.0036010742,-0.12164307,0.031555176
1734713547835,2024-12-20T16:52:27.835Z,34942,0.003479004,-0.12145996,0.030761719
1734713547858,2024-12-20T16:52:27.858Z,34965,-0.0017700195,-0.11621094,0.0289917
1734713547863,2024-12-20T16:52:27.863Z,34970,-0.004333496,-0.109802246,0.030029297
1734713547869,2024-12-20T16:52:27.869Z,34976,-0.0045776367,-0.11004639,0.031799316
1734713547875,2024-12-20T16:52:27.875Z,34982,-0.005554199,-0.113342285,0.032592773
1734713547904,2024-12-20T16:52:27.904Z,35011,-0.002746582,-0.11450195,0.03387451
1734713547909,2024-12-20T16:52:27.909Z,35016,6.713867E-4,-0.11804199,0.03778076
1734713547916,2024-12-20T16:52:27.916Z,35023,7.324219E-4,-0.122924805,0.042785645
1734713547922,2024-12-20T16:52:27.922Z,35029,-0.0053710938,-0.1194458,0.040100098
1734713547928,2024-12-20T16:52:27.928Z,35035,-0.005065918,-0.11779785,0.037475586
1734713547995,2024-12-20T16:52:27.995Z,35102,-0.0021972656,-0.11804199,0.03704834
1734713548002,2024-12-20T16:52:28.002Z,35109,-0.0032958984,-0.1159668,0.035949707
1734713548008,2024-12-20T16:52:28.008Z,35115,-0.0044555664,-0.116882324,0.03515625
1734713548015,2024-12-20T16:52:28.015Z,35122,-0.005065918,-0.11785889,0.03704834
1734713548023,2024-12-20T16:52:28.023Z,35130,0.0015258789,-0.12042236,0.038879395
1734713548029,2024-12-20T16:52:28.029Z,35136,0.0048217773,-0.12310791,0.03845215
1734713548042,2024-12-20T16:52:28.042Z,35149,1.2207031E-4,-0.12011719,0.038146973
1734713548048,2024-12-20T16:52:28.048Z,35155,0.0017089844,-0.119262695,0.037597656
1734713548055,2024-12-20T16:52:28.055Z,35162,0.0017089844,-0.11529541,0.035339355
1734713548061,2024-12-20T16:52:28.061Z,35168,0.0013427734,-0.10797119,0.036376953
1734713548067,2024-12-20T16:52:28.067Z,35174,0.0018920898,-0.10900879,0.03729248
1734713548082,2024-12-20T16:52:28.082Z,35189,-0.0029296875,-0.10858154,0.033935547
1734713548133,2024-12-20T16:52:28.133Z,35240,-0.013549805,-0.10095215,0.03314209
1734713548139,2024-12-20T16:52:28.139Z,35246,-0.015808105,-0.10437012,0.032348633
1734713548145,2024-12-20T16:52:28.145Z,35252,-0.005065918,-0.11328125,0.026855469
1734713548152,2024-12-20T16:52:28.152Z,35259,-0.0015869141,-0.11395264,0.026733398
1734713548158,2024-12-20T16:52:28.158Z,35265,-0.0061035156,-0.11462402,0.028625488
1734713548174,2024-12-20T16:52:28.174Z,35281,-0.0048217773,-0.11291504,0.03387451
1734713548180,2024-12-20T16:52:28.180Z,35287,-0.001953125,-0.11022949,0.033447266
1734713548187,2024-12-20T16:52:28.187Z,35294,0.0020141602,-0.11053467,0.0256958
1734713548193,2024-12-20T16:52:28.193Z,35300,0.00793457,-0.101379395,0.023925781
1734713548199,2024-12-20T16:52:28.199Z,35306,-0.005126953,-0.091918945,0.022033691
1734713548217,2024-12-20T16:52:28.217Z,35324,-0.0067749023,-0.10296631,0.023071289
1734713548269,2024-12-20T16:52:28.269Z,35376,0.0030517578,-0.10986328,0.026428223
1734713548316,2024-12-20T16:52:28.316Z,35423,0.0044555664,-0.11016846,0.027709961
1734713548327,2024-12-20T16:52:28.327Z,35434,0.0040893555,-0.11633301,0.031677246
1734713548338,2024-12-20T16:52:28.338Z,35445,0.0076293945,-0.115356445,0.032104492
1734713548348,2024-12-20T16:52:28.348Z,35455,0.0078125,-0.103881836,0.028442383
1734713548357,2024-12-20T16:52:28.357Z,35464,0.0015869141,-0.09460449,0.022338867
1734713548364,2024-12-20T16:52:28.364Z,35471,-0.00579834,-0.09375,0.026184082
1734713548372,2024-12-20T16:52:28.372Z,35479,-0.0134887695,-0.0960083,0.035583496
1734713548399,2024-12-20T16:52:28.399Z,35506,-0.014099121,-0.101623535,0.040771484
1734713548405,2024-12-20T16:52:28.405Z,35512,-0.016601562,-0.110839844,0.045898438
1734713548412,2024-12-20T16:52:28.412Z,35519,-0.016296387,-0.114990234,0.041503906
1734713548419,2024-12-20T16:52:28.419Z,35526,-0.0154418945,-0.11010742,0.04486084
1734713548425,2024-12-20T16:52:28.425Z,35532,-0.0026245117,-0.109680176,0.04827881
1734713548443,2024-12-20T16:52:28.443Z,35550,1.8310547E-4,-0.11010742,0.0524292
1734713548450,2024-12-20T16:52:28.450Z,35557,-0.0025634766,-0.10839844,0.049316406
1734713548457,2024-12-20T16:52:28.457Z,35564,-0.006652832,-0.11315918,0.041748047
1734713548463,2024-12-20T16:52:28.463Z,35570,-0.0015258789,-0.11657715,0.038330078
1734713548469,2024-12-20T16:52:28.469Z,35576,-0.004760742,-0.10467529,0.041015625
1734713548475,2024-12-20T16:52:28.475Z,35582,-0.008483887,-0.107666016,0.040222168
1734713548489,2024-12-20T16:52:28.489Z,35596,-0.005432129,-0.1194458,0.034729004
1734713548492,2024-12-20T16:52:28.492Z,35599,-0.0014038086,-0.11505127,0.024230957
1734713548498,2024-12-20T16:52:28.498Z,35605,-0.0061035156,-0.11102295,0.023986816
1734713548504,2024-12-20T16:52:28.504Z,35611,-0.009521484,-0.11657715,0.020874023
1734713548511,2024-12-20T16:52:28.511Z,35618,-0.0073242188,-0.122924805,0.021240234
1734713548532,2024-12-20T16:52:28.532Z,35639,-0.0099487305,-0.12231445,0.020141602
1734713548537,2024-12-20T16:52:28.537Z,35644,-0.013244629,-0.11791992,0.015380859
1734713548542,2024-12-20T16:52:28.542Z,35649,-0.013305664,-0.11462402,0.01586914
1734713548625,2024-12-20T16:52:28.625Z,35732,-0.014526367,-0.12042236,0.017578125
1734713548630,2024-12-20T16:52:28.630Z,35737,-0.015930176,-0.123291016,0.017028809
1734713548636,2024-12-20T16:52:28.636Z,35743,-0.016845703,-0.116882324,0.02319336
1734713548641,2024-12-20T16:52:28.641Z,35748,-0.009277344,-0.11798096,0.024230957
1734713548667,2024-12-20T16:52:28.667Z,35774,-0.0067749023,-0.109436035,0.013366699
1734713548674,2024-12-20T16:52:28.674Z,35781,-0.008728027,-0.09649658,0.013244629
1734713548719,2024-12-20T16:52:28.719Z,35826,-0.013549805,-0.100097656,0.024902344
1734713548726,2024-12-20T16:52:28.726Z,35833,-0.01550293,-0.113098145,0.022827148
1734713548733,2024-12-20T16:52:28.733Z,35840,-0.014343262,-0.11151123,0.014221191
1734713548740,2024-12-20T16:52:28.740Z,35847,-0.015014648,-0.10284424,0.017211914
1734713548746,2024-12-20T16:52:28.746Z,35853,-0.017211914,-0.095947266,0.022155762
1734713548758,2024-12-20T16:52:28.758Z,35865,-0.016845703,-0.10229492,0.027832031
1734713548762,2024-12-20T16:52:28.762Z,35869,-0.024475098,-0.105285645,0.031433105
1734713548769,2024-12-20T16:52:28.769Z,35876,-0.031677246,-0.12310791,0.04046631
1734713548776,2024-12-20T16:52:28.776Z,35883,-0.017150879,-0.1217041,0.036193848
1734713548782,2024-12-20T16:52:28.782Z,35889,-0.013916016,-0.09875488,0.02758789
1734713548789,2024-12-20T16:52:28.789Z,35896,-0.015258789,-0.11853027,0.028259277
