Timestamp (ms),ISO DateTime,Elapsed Time (ms),Acceleration X,Acceleration Y,Acceleration Z
1725816425693,2024-09-08T17:27:05.693Z,58001,0.1899414,-0.8736572,0.33648682
1725816425736,2024-09-08T17:27:05.736Z,58044,0.20550537,-0.8843994,0.33740234
1725816425747,2024-09-08T17:27:05.747Z,58055,0.19677734,-0.8746338,0.35113525
1725816425780,2024-09-08T17:27:05.780Z,58088,0.18249512,-0.8864136,0.4099121
1725816425824,2024-09-08T17:27:05.824Z,58132,0.15075684,-0.8633423,0.44421387
1725816425870,2024-09-08T17:27:05.870Z,58178,0.16345215,-0.85961914,0.46270752
1725816425914,2024-09-08T17:27:05.914Z,58222,0.16357422,-0.86535645,0.47332764
1725816425965,2024-09-08T17:27:05.965Z,58273,0.17681885,-0.87042236,0.4727173
1725816426055,2024-09-08T17:27:06.055Z,58363,0.16455078,-0.8909912,0.4570923
1725816426075,2024-09-08T17:27:06.075Z,58383,0.14038086,-0.8915405,0.442688
1725816426095,2024-09-08T17:27:06.095Z,58403,0.19110107,-0.8605957,0.43719482
1725816426145,2024-09-08T17:27:06.145Z,58453,0.19610596,-0.78356934,0.34802246
1725816426235,2024-09-08T17:27:06.235Z,58543,0.16418457,-0.8413086,0.42773438
1725816426255,2024-09-08T17:27:06.255Z,58563,0.060668945,-0.8544922,0.43621826
1725816426275,2024-09-08T17:27:06.275Z,58583,-0.031188965,-0.86950684,0.39691162
1725816426292,2024-09-08T17:27:06.292Z,58600,0.053833008,-0.8208008,0.26531982
1725816426319,2024-09-08T17:27:06.319Z,58627,0.4371338,-0.87298584,0.32598877
1725816426372,2024-09-08T17:27:06.372Z,58680,0.15289307,-0.9312134,0.2833252
1725816426416,2024-09-08T17:27:06.416Z,58724,-0.057128906,-0.81243896,0.37506104
1725816426460,2024-09-08T17:27:06.460Z,58768,0.08111572,-0.79107666,0.24926758
1725816426505,2024-09-08T17:27:06.505Z,58813,0.2672119,-0.8554077,0.086120605
1725816426552,2024-09-08T17:27:06.552Z,58860,0.121276855,-0.7334595,0.4368286
1725816426596,2024-09-08T17:27:06.596Z,58904,-0.010314941,-0.69921875,0.41351318
1725816426618,2024-09-08T17:27:06.618Z,58926,0.03955078,-0.7835083,0.37609863
1725816426639,2024-09-08T17:27:06.639Z,58947,0.03552246,-0.7807617,0.22576904
1725816426683,2024-09-08T17:27:06.683Z,58991,0.1609497,-0.8512573,0.29083252
1725816426732,2024-09-08T17:27:06.732Z,59040,0.13983154,-0.807312,0.19946289
1725816426774,2024-09-08T17:27:06.774Z,59082,0.14025879,-0.90527344,0.1651001
1725816426831,2024-09-08T17:27:06.831Z,59139,0.1583252,-0.7852783,0.21264648
1725816426864,2024-09-08T17:27:06.864Z,59172,0.18670654,-0.8446655,0.1928711
1725816426921,2024-09-08T17:27:06.921Z,59229,0.0037841797,-0.8001709,0.26940918
1725816426955,2024-09-08T17:27:06.955Z,59263,0.023803711,-0.8111572,0.237854
1725816427002,2024-09-08T17:27:07.002Z,59310,0.02911377,-0.8979492,0.2166748
1725816427023,2024-09-08T17:27:07.023Z,59331,0.08258057,-0.869751,0.28625488
1725816427044,2024-09-08T17:27:07.044Z,59352,0.16583252,-0.927124,0.23834229
1725816427089,2024-09-08T17:27:07.089Z,59397,0.1449585,-1.0110474,0.27618408
1725816427134,2024-09-08T17:27:07.134Z,59442,0.15014648,-1.0657959,0.22271729
1725816427180,2024-09-08T17:27:07.180Z,59488,0.25195312,-1.0638428,0.23815918
1725816427225,2024-09-08T17:27:07.225Z,59533,0.22497559,-0.9816284,0.5065918
1725816427270,2024-09-08T17:27:07.270Z,59578,0.20214844,-1.100708,0.31365967
1725816427316,2024-09-08T17:27:07.316Z,59624,0.0692749,-1.022644,0.5571289
1725816427363,2024-09-08T17:27:07.363Z,59671,0.2098999,-0.8991699,0.8096924
1725816427403,2024-09-08T17:27:07.403Z,59711,0.4321289,-1.0409546,0.40856934
1725816427447,2024-09-08T17:27:07.447Z,59755,0.336792,-0.9840698,0.49987793
1725816427463,2024-09-08T17:27:07.463Z,59771,0.074279785,-0.9182129,0.43359375
1725816427493,2024-09-08T17:27:07.493Z,59801,0.19573975,-1.1294556,0.46264648
1725816427538,2024-09-08T17:27:07.538Z,59846,0.72125244,-0.7922363,0.6906128
1725816427583,2024-09-08T17:27:07.583Z,59891,0.3328247,-1.0813599,0.7020874
1725816427627,2024-09-08T17:27:07.627Z,59935,0.17211914,-1.0996094,0.6549072
1725816427673,2024-09-08T17:27:07.673Z,59981,0.33868408,-0.9116821,0.8138428
1725816427719,2024-09-08T17:27:07.719Z,60027,0.36480713,-0.9961548,0.7213745
1725816427768,2024-09-08T17:27:07.768Z,60076,0.41210938,-0.95513916,0.4216919
1725816427810,2024-09-08T17:27:07.810Z,60118,0.14520264,-0.96606445,0.4387207
1725816427901,2024-09-08T17:27:07.901Z,60209,0.2265625,-0.8881836,0.6152344
1725816427921,2024-09-08T17:27:07.921Z,60229,0.23834229,-1.0101318,0.52685547
1725816427941,2024-09-08T17:27:07.941Z,60249,0.16778564,-0.78808594,0.45495605
1725816427955,2024-09-08T17:27:07.955Z,60263,0.17773438,-0.7446289,0.49731445
1725816427986,2024-09-08T17:27:07.986Z,60294,0.17333984,-0.8531494,0.30969238
1725816428033,2024-09-08T17:27:08.033Z,60341,-0.11187744,-1.0888672,0.5227661
1725816428078,2024-09-08T17:27:08.078Z,60386,0.13195801,-1.348938,0.54577637
1725816428125,2024-09-08T17:27:08.125Z,60433,0.49456787,-0.9328003,0.4671631
1725816428168,2024-09-08T17:27:08.168Z,60476,0.16143799,-0.61834717,0.3847046
1725816428214,2024-09-08T17:27:08.214Z,60522,-0.15679932,-1.0357666,-0.041809082
1725816428259,2024-09-08T17:27:08.259Z,60567,0.030700684,-1.3991699,0.123046875
1725816428313,2024-09-08T17:27:08.313Z,60621,0.33288574,-0.7784424,0.62005615
1725816428332,2024-09-08T17:27:08.332Z,60640,0.10748291,-0.38989258,0.33013916
1725816428349,2024-09-08T17:27:08.349Z,60657,-0.22302246,-1.1873779,-0.21484375
1725816428392,2024-09-08T17:27:08.392Z,60700,0.18963623,-1.0792236,0.16766357
1725816428439,2024-09-08T17:27:08.439Z,60747,0.26452637,-0.76464844,0.611084
1725816428485,2024-09-08T17:27:08.485Z,60793,0.1307373,-0.6452637,0.38342285
1725816428531,2024-09-08T17:27:08.531Z,60839,0.030151367,-0.98950195,0.12615967
1725816428575,2024-09-08T17:27:08.575Z,60883,0.09564209,-0.8925171,0.23461914
1725816428623,2024-09-08T17:27:08.623Z,60931,0.040100098,-0.6635132,0.3555298
1725816428662,2024-09-08T17:27:08.662Z,60970,-0.003967285,-0.6520386,0.30529785
1725816428708,2024-09-08T17:27:08.708Z,61016,0.11425781,-0.92266846,0.25628662
1725816428725,2024-09-08T17:27:08.725Z,61033,0.13989258,-0.8590088,0.41967773
1725816428753,2024-09-08T17:27:08.753Z,61061,0.21185303,-0.78826904,0.434021
1725816428797,2024-09-08T17:27:08.797Z,61105,0.1303711,-0.71569824,0.3400879
1725816428843,2024-09-08T17:27:08.843Z,61151,-0.006591797,-0.87384033,0.3460083
1725816428889,2024-09-08T17:27:08.889Z,61197,0.051208496,-0.9048462,0.40124512
1725816428935,2024-09-08T17:27:08.935Z,61243,0.2783203,-0.829895,0.3684082
1725816429027,2024-09-08T17:27:09.027Z,61335,0.014831543,-0.3544922,0.1194458
1725816429048,2024-09-08T17:27:09.048Z,61356,0.09515381,-0.8897705,0.3727417
1725816429068,2024-09-08T17:27:09.068Z,61376,0.17858887,-1.0872803,0.6982422
1725816429113,2024-09-08T17:27:09.113Z,61421,0.06890869,-0.95422363,0.54852295
1725816429131,2024-09-08T17:27:09.131Z,61439,0.13165283,-0.7842407,0.3661499
1725816429155,2024-09-08T17:27:09.155Z,61463,0.28094482,-0.8666382,0.25360107
1725816429204,2024-09-08T17:27:09.204Z,61512,0.16522217,-0.9735718,0.3682251
1725816429248,2024-09-08T17:27:09.248Z,61556,0.061340332,-0.75891113,0.45465088
1725816429342,2024-09-08T17:27:09.342Z,61650,0.064453125,-0.7827759,0.5736084
1725816429360,2024-09-08T17:27:09.360Z,61668,0.116882324,-0.77593994,0.47802734
1725816429383,2024-09-08T17:27:09.383Z,61691,0.12060547,-0.9139404,0.40979004
1725816429433,2024-09-08T17:27:09.433Z,61741,0.1730957,-0.9423828,0.40686035
1725816429473,2024-09-08T17:27:09.473Z,61781,0.24298096,-0.901001,0.37683105
1725816429566,2024-09-08T17:27:09.566Z,61874,0.19378662,-0.83496094,0.34649658
1725816429582,2024-09-08T17:27:09.582Z,61890,0.08526611,-0.86273193,0.4083252
1725816429597,2024-09-08T17:27:09.597Z,61905,0.08886719,-0.8866577,0.49353027
1725816429609,2024-09-08T17:27:09.609Z,61917,0.07366943,-0.8477783,0.5045166
1725816429649,2024-09-08T17:27:09.649Z,61957,0.11444092,-0.8520508,0.4465332
1725816429698,2024-09-08T17:27:09.698Z,62006,0.1720581,-0.8006592,0.32617188
1725816429744,2024-09-08T17:27:09.744Z,62052,0.28588867,-0.9916382,0.41931152
1725816429833,2024-09-08T17:27:09.833Z,62141,0.21289062,-0.76342773,0.48950195
1725816429851,2024-09-08T17:27:09.851Z,62159,-0.022827148,-0.7885742,0.31463623
1725816429924,2024-09-08T17:27:09.924Z,62232,0.07965088,-0.8691406,0.22570801
1725816429942,2024-09-08T17:27:09.942Z,62250,0.12670898,-0.72717285,0.33776855
1725816429961,2024-09-08T17:27:09.961Z,62269,0.22021484,-0.79248047,0.33648682
1725816429974,2024-09-08T17:27:09.974Z,62282,0.101501465,-0.8329468,0.25073242
1725816430009,2024-09-08T17:27:10.009Z,62317,0.019226074,-0.71484375,0.13659668
1725816430058,2024-09-08T17:27:10.058Z,62366,0.19073486,-0.75,0.28741455
1725816430105,2024-09-08T17:27:10.105Z,62413,0.17871094,-0.82006836,0.30944824
1725816430152,2024-09-08T17:27:10.152Z,62460,0.09863281,-0.8642578,0.26190186
1725816430195,2024-09-08T17:27:10.195Z,62503,0.030273438,-0.7642822,0.32366943
1725816430240,2024-09-08T17:27:10.240Z,62548,-0.038635254,-0.81085205,0.35894775
1725816430287,2024-09-08T17:27:10.287Z,62595,0.18096924,-0.8480835,0.33422852
1725816430331,2024-09-08T17:27:10.331Z,62639,0.14587402,-0.9163208,0.3630371
1725816430374,2024-09-08T17:27:10.374Z,62682,0.10626221,-0.8510132,0.40716553
1725816430394,2024-09-08T17:27:10.394Z,62702,0.08239746,-0.9725952,0.18157959
1725816430419,2024-09-08T17:27:10.419Z,62727,0.10424805,-0.8730469,0.2911377
1725816430466,2024-09-08T17:27:10.466Z,62774,0.18322754,-0.8811035,0.14093018
1725816430511,2024-09-08T17:27:10.511Z,62819,0.07409668,-0.9597168,0.07354736
1725816430559,2024-09-08T17:27:10.559Z,62867,0.14892578,-0.85479736,0.25598145
1725816430599,2024-09-08T17:27:10.599Z,62907,0.2300415,-0.9868164,0.0028076172
1725816430647,2024-09-08T17:27:10.647Z,62955,0.2296753,-0.9393921,0.2321167
1725816430693,2024-09-08T17:27:10.693Z,63001,0.15393066,-0.9445801,0.3768921
1725816430733,2024-09-08T17:27:10.733Z,63041,0.056152344,-1.0447388,0.30792236
1725816430790,2024-09-08T17:27:10.790Z,63098,0.07525635,-1.0244751,0.44421387
1725816430809,2024-09-08T17:27:10.809Z,63117,0.39074707,-0.9263916,0.44451904
1725816430822,2024-09-08T17:27:10.822Z,63130,0.17834473,-1.1434937,0.3114624
1725816430868,2024-09-08T17:27:10.868Z,63176,0.15039062,-1.1419678,0.4934082
1725816430914,2024-09-08T17:27:10.914Z,63222,0.5930786,-0.8781128,0.6469116
1725816430961,2024-09-08T17:27:10.961Z,63269,0.5315552,-0.91851807,0.5452881
1725816431005,2024-09-08T17:27:11.005Z,63313,0.42138672,-0.7541504,0.5670166
1725816431051,2024-09-08T17:27:11.051Z,63359,0.14508057,-0.93927,0.37042236
1725816431096,2024-09-08T17:27:11.096Z,63404,0.46124268,-0.7307739,0.58154297
1725816431142,2024-09-08T17:27:11.142Z,63450,0.55895996,-0.8944092,0.5552368
1725816431185,2024-09-08T17:27:11.185Z,63493,0.42974854,-1.0705566,0.44317627
1725816431230,2024-09-08T17:27:11.230Z,63538,0.2501831,-0.9404907,0.6867676
1725816431251,2024-09-08T17:27:11.251Z,63559,0.35968018,-0.940979,0.7705078
1725816431273,2024-09-08T17:27:11.273Z,63581,0.3970337,-0.8019409,0.74261475
1725816431318,2024-09-08T17:27:11.318Z,63626,0.37420654,-0.8216553,0.5632324
1725816431365,2024-09-08T17:27:11.365Z,63673,0.17468262,-0.92559814,0.44525146
1725816431410,2024-09-08T17:27:11.410Z,63718,0.20550537,-0.7369385,0.4852295
1725816431455,2024-09-08T17:27:11.455Z,63763,0.27539062,-0.8343506,0.45751953
1725816431501,2024-09-08T17:27:11.501Z,63809,0.27496338,-0.80682373,0.49066162
1725816431552,2024-09-08T17:27:11.552Z,63860,0.12792969,-0.82263184,0.4432373
1725816431590,2024-09-08T17:27:11.590Z,63898,0.29681396,-0.7926636,0.5376587
1725816431635,2024-09-08T17:27:11.635Z,63943,0.184021,-0.84210205,0.5701294
1725816431682,2024-09-08T17:27:11.682Z,63990,0.07312012,-0.9144287,0.47235107
1725816431702,2024-09-08T17:27:11.702Z,64010,0.12835693,-1.0140381,0.42260742
1725816431722,2024-09-08T17:27:11.722Z,64030,0.23266602,-1.1150513,0.47314453
1725816431768,2024-09-08T17:27:11.768Z,64076,0.199646,-0.963562,0.4631958
1725816431814,2024-09-08T17:27:11.814Z,64122,0.18920898,-0.7770386,0.32043457
1725816431859,2024-09-08T17:27:11.859Z,64167,0.14489746,-0.86932373,0.2836914
1725816431905,2024-09-08T17:27:11.905Z,64213,0.08898926,-0.87231445,0.3881836
1725816431997,2024-09-08T17:27:11.997Z,64305,0.033081055,-0.8769531,0.37023926
1725816432021,2024-09-08T17:27:12.021Z,64329,0.088012695,-1.1799316,0.34661865
1725816432134,2024-09-08T17:27:12.134Z,64442,0.206604,-0.97076416,0.18640137
1725816432155,2024-09-08T17:27:12.155Z,64463,0.23754883,-0.909729,0.20599365
1725816432175,2024-09-08T17:27:12.175Z,64483,0.21374512,-1.0175171,0.22705078
1725816432191,2024-09-08T17:27:12.191Z,64499,0.006591797,-0.97857666,0.25341797
1725816432203,2024-09-08T17:27:12.203Z,64511,-0.079711914,-1.0631714,0.44317627
1725816432224,2024-09-08T17:27:12.224Z,64532,0.2390747,-0.6884155,0.3300171
1725816432263,2024-09-08T17:27:12.263Z,64571,0.091552734,-0.6688843,0.30682373
1725816432307,2024-09-08T17:27:12.307Z,64615,-0.15466309,-0.9580078,0.28082275
1725816432353,2024-09-08T17:27:12.353Z,64661,0.047424316,-1.239563,0.23883057
1725816432399,2024-09-08T17:27:12.399Z,64707,0.39788818,-1.0022583,0.3204956
1725816432446,2024-09-08T17:27:12.446Z,64754,0.29205322,-0.67718506,0.34020996
1725816432488,2024-09-08T17:27:12.488Z,64796,-0.029663086,-1.006958,0.13635254
1725816432509,2024-09-08T17:27:12.509Z,64817,0.06958008,-0.93499756,0.17755127
1725816432533,2024-09-08T17:27:12.533Z,64841,0.13830566,-0.67144775,0.5037842
1725816432578,2024-09-08T17:27:12.578Z,64886,0.092163086,-0.7624512,0.22943115
1725816432623,2024-09-08T17:27:12.623Z,64931,-0.01159668,-0.9447632,0.13775635
1725816432671,2024-09-08T17:27:12.671Z,64979,0.20587158,-0.8901367,0.5018921
1725816432714,2024-09-08T17:27:12.714Z,65022,0.23803711,-0.7996826,0.5098877
1725816432769,2024-09-08T17:27:12.769Z,65077,0.090026855,-0.9170532,0.32513428
1725816432802,2024-09-08T17:27:12.802Z,65110,0.029052734,-0.63275146,0.3513794
1725816432848,2024-09-08T17:27:12.848Z,65156,0.07659912,-0.8287964,0.35638428
1725816432894,2024-09-08T17:27:12.894Z,65202,0.17712402,-0.9019165,0.38641357
1725816432939,2024-09-08T17:27:12.939Z,65247,0.17785645,-0.84558105,0.5875244
1725816432958,2024-09-08T17:27:12.958Z,65266,0.07324219,-0.7751465,0.47381592
1725816432983,2024-09-08T17:27:12.983Z,65291,0.17785645,-0.8629761,0.34936523
1725816433028,2024-09-08T17:27:13.028Z,65336,0.120788574,-0.7956543,0.39642334
1725816433075,2024-09-08T17:27:13.075Z,65383,0.025939941,-0.54559326,0.262146
1725816433120,2024-09-08T17:27:13.120Z,65428,0.20758057,-1.0551147,0.5835571
1725816433165,2024-09-08T17:27:13.165Z,65473,0.19506836,-1.0129395,0.7138672
1725816433255,2024-09-08T17:27:13.255Z,65563,0.051086426,-0.75598145,0.45288086
1725816433276,2024-09-08T17:27:13.276Z,65584,0.11853027,-0.67248535,0.13220215
1725816433299,2024-09-08T17:27:13.299Z,65607,0.26391602,-0.95233154,0.21264648
1725816433322,2024-09-08T17:27:13.322Z,65630,0.17803955,-0.93170166,0.3604126
1725816433340,2024-09-08T17:27:13.340Z,65648,0.11798096,-0.9277954,0.5984497
1725816433392,2024-09-08T17:27:13.392Z,65700,0.18725586,-0.79626465,0.53790283
1725816433432,2024-09-08T17:27:13.432Z,65740,0.23205566,-0.8232422,0.43566895
1725816433480,2024-09-08T17:27:13.480Z,65788,0.18328857,-0.8691406,0.35784912
1725816433523,2024-09-08T17:27:13.523Z,65831,0.13360596,-0.88342285,0.3320923
1725816433569,2024-09-08T17:27:13.569Z,65877,0.12805176,-0.8394165,0.3925171
1725816433615,2024-09-08T17:27:13.615Z,65923,0.07788086,-0.8283081,0.47521973
1725816433659,2024-09-08T17:27:13.659Z,65967,0.09088135,-0.8568115,0.604126
1725816433706,2024-09-08T17:27:13.706Z,66014,0.14251709,-0.84814453,0.6442871
1725816433751,2024-09-08T17:27:13.751Z,66059,0.15209961,-0.8147583,0.62457275
1725816433769,2024-09-08T17:27:13.769Z,66077,0.12359619,-0.8551636,0.57025146
1725816433792,2024-09-08T17:27:13.792Z,66100,0.13885498,-0.855896,0.44018555
1725816433839,2024-09-08T17:27:13.839Z,66147,0.13189697,-0.8143921,0.3380127
1725816433883,2024-09-08T17:27:13.883Z,66191,0.1159668,-0.8883667,0.33605957
1725816433927,2024-09-08T17:27:13.927Z,66235,0.1517334,-0.9026489,0.36505127
1725816433974,2024-09-08T17:27:13.974Z,66282,0.19952393,-0.88848877,0.41271973
1725816434065,2024-09-08T17:27:14.065Z,66373,0.27703857,-0.8609619,0.359375
1725816434082,2024-09-08T17:27:14.082Z,66390,0.21130371,-0.8710327,0.27679443
1725816434107,2024-09-08T17:27:14.107Z,66415,0.15435791,-0.92333984,0.28222656
1725816434154,2024-09-08T17:27:14.154Z,66462,-0.08117676,-0.8050537,0.2121582
1725816434210,2024-09-08T17:27:14.210Z,66518,0.08074951,-0.9147949,0.39300537
1725816434227,2024-09-08T17:27:14.227Z,66535,0.3564453,-0.71972656,0.51904297
1725816434242,2024-09-08T17:27:14.242Z,66550,0.11968994,-0.7970581,0.2744751
1725816434289,2024-09-08T17:27:14.289Z,66597,-0.077941895,-0.727417,0.3340454
1725816434336,2024-09-08T17:27:14.336Z,66644,0.029052734,-0.65338135,0.4763794
1725816434381,2024-09-08T17:27:14.381Z,66689,0.21710205,-0.80181885,0.24945068
1725816434426,2024-09-08T17:27:14.426Z,66734,0.14782715,-0.92071533,0.21679688
1725816434471,2024-09-08T17:27:14.471Z,66779,0.11291504,-0.7669678,0.24871826
1725816434515,2024-09-08T17:27:14.515Z,66823,0.0715332,-0.79888916,0.25646973
1725816434558,2024-09-08T17:27:14.558Z,66866,0.067993164,-0.8721924,0.15307617
1725816434576,2024-09-08T17:27:14.576Z,66884,0.18713379,-0.8640747,0.19744873
1725816434603,2024-09-08T17:27:14.603Z,66911,0.12365723,-0.8989868,0.29760742
1725816434649,2024-09-08T17:27:14.649Z,66957,0.107543945,-0.88165283,0.36151123
1725816434692,2024-09-08T17:27:14.692Z,67000,0.13482666,-0.87664795,0.26989746
1725816434785,2024-09-08T17:27:14.785Z,67093,0.044189453,-0.9127197,0.25134277
1725816434827,2024-09-08T17:27:14.827Z,67135,0.1652832,-0.76745605,0.31378174
1725816434845,2024-09-08T17:27:14.845Z,67153,0.07824707,-0.9232788,0.2617798
1725816434873,2024-09-08T17:27:14.873Z,67181,0.2675171,-0.9178467,0.13244629
1725816435009,2024-09-08T17:27:15.009Z,67317,0.17614746,-0.9842529,0.048828125
1725816435029,2024-09-08T17:27:15.029Z,67337,0.14837646,-0.97283936,0.26361084
1725816435048,2024-09-08T17:27:15.048Z,67356,0.18103027,-1.0722046,0.21447754
1725816435064,2024-09-08T17:27:15.064Z,67372,0.16101074,-1.0894165,0.30670166
1725816435073,2024-09-08T17:27:15.073Z,67381,0.27850342,-0.9373779,0.40948486
1725816435095,2024-09-08T17:27:15.095Z,67403,0.16308594,-1.1384888,0.26019287
1725816435143,2024-09-08T17:27:15.143Z,67451,0.12030029,-1.0054321,0.6253662
1725816435189,2024-09-08T17:27:15.189Z,67497,0.28442383,-0.9506836,0.5686035
1725816435233,2024-09-08T17:27:15.233Z,67541,0.32202148,-1.0618896,0.3447876
1725816435279,2024-09-08T17:27:15.279Z,67587,0.43078613,-0.83740234,0.45318604
1725816435324,2024-09-08T17:27:15.324Z,67632,0.25842285,-0.925354,0.2662964
1725816435415,2024-09-08T17:27:15.415Z,67723,0.38586426,-0.9177246,0.54797363
1725816435436,2024-09-08T17:27:15.436Z,67744,0.7305298,-0.64764404,0.72595215
1725816435455,2024-09-08T17:27:15.455Z,67763,0.24475098,-1.0217285,0.21557617
1725816435474,2024-09-08T17:27:15.474Z,67782,-0.080444336,-1.0765381,0.17871094
1725816435522,2024-09-08T17:27:15.522Z,67830,0.6296387,-0.8135376,0.60913086
1725816435560,2024-09-08T17:27:15.560Z,67868,0.6253052,-0.7852783,0.6555786
1725816435595,2024-09-08T17:27:15.595Z,67903,-0.08843994,-0.95928955,0.46844482
1725816435640,2024-09-08T17:27:15.640Z,67948,0.24798584,-0.9673462,0.4487915
1725816435686,2024-09-08T17:27:15.686Z,67994,0.92303467,-0.7336426,0.57263184
1725816435730,2024-09-08T17:27:15.730Z,68038,0.41833496,-0.8742676,0.70874023
1725816435777,2024-09-08T17:27:15.777Z,68085,-0.088256836,-0.9019165,0.43395996
1725816435822,2024-09-08T17:27:15.822Z,68130,0.14715576,-1.0747681,0.16485596
1725816435844,2024-09-08T17:27:15.844Z,68152,0.59375,-0.99279785,0.45129395
1725816435869,2024-09-08T17:27:15.869Z,68177,0.5250244,-0.6079712,0.59265137
1725816435909,2024-09-08T17:27:15.909Z,68217,0.04058838,-0.76556396,0.411438
1725816435953,2024-09-08T17:27:15.953Z,68261,0.0095825195,-0.9128418,0.3630371
1725816436000,2024-09-08T17:27:16Z,68308,0.2709961,-0.8477173,0.744812
1725816436046,2024-09-08T17:27:16.046Z,68354,0.31341553,-0.7788086,0.6572876
1725816436090,2024-09-08T17:27:16.090Z,68398,0.1038208,-1.013977,0.49249268
1725816436134,2024-09-08T17:27:16.134Z,68442,0.18017578,-0.88842773,0.24969482
1725816436180,2024-09-08T17:27:16.180Z,68488,0.30218506,-0.99224854,0.033996582
1725816436230,2024-09-08T17:27:16.230Z,68538,0.21374512,-0.9819946,0.25982666
1725816436270,2024-09-08T17:27:16.270Z,68578,0.11199951,-1.0110474,0.37457275
1725816436291,2024-09-08T17:27:16.291Z,68599,0.27471924,-0.9394531,0.29626465
1725816436358,2024-09-08T17:27:16.358Z,68666,0.2199707,-0.9674072,0.25268555
1725816436378,2024-09-08T17:27:16.378Z,68686,0.036315918,-0.8828125,0.3605957
1725816436400,2024-09-08T17:27:16.400Z,68708,-0.030761719,-0.94696045,0.62994385
1725816436449,2024-09-08T17:27:16.449Z,68757,0.074279785,-0.9433594,0.5071411
1725816436492,2024-09-08T17:27:16.492Z,68800,0.12640381,-0.80999756,0.2581787
1725816436539,2024-09-08T17:27:16.539Z,68847,0.20056152,-0.95892334,0.2767334
1725816436628,2024-09-08T17:27:16.628Z,68936,0.02130127,-0.98309326,0.15002441
1725816436647,2024-09-08T17:27:16.647Z,68955,0.022338867,-1.0143433,0.103637695
1725816436719,2024-09-08T17:27:16.719Z,69027,0.19622803,-0.9893799,0.255188
1725816436736,2024-09-08T17:27:16.736Z,69044,0.23553467,-0.9838257,0.18206787
1725816436753,2024-09-08T17:27:16.753Z,69061,0.064819336,-0.9614868,0.14819336
1725816436771,2024-09-08T17:27:16.771Z,69079,0.07458496,-0.90667725,0.27764893
1725816436809,2024-09-08T17:27:16.809Z,69117,0.08520508,-0.6234131,0.366333
1725816436853,2024-09-08T17:27:16.853Z,69161,-0.06530762,-0.90270996,0.23425293
1725816436899,2024-09-08T17:27:16.899Z,69207,0.13238525,-0.98583984,0.25360107
1725816436946,2024-09-08T17:27:16.946Z,69254,0.059509277,-1.1396484,0.3550415
1725816436989,2024-09-08T17:27:16.989Z,69297,0.22717285,-0.7284546,0.36669922
1725816437035,2024-09-08T17:27:17.035Z,69343,0.093444824,-0.60980225,0.25274658
1725816437083,2024-09-08T17:27:17.083Z,69391,-0.026611328,-0.928833,0.06573486
1725816437100,2024-09-08T17:27:17.100Z,69408,0.13928223,-1.1282959,0.08294678
1725816437122,2024-09-08T17:27:17.122Z,69430,0.17584229,-1.0578003,0.41107178
1725816437170,2024-09-08T17:27:17.170Z,69478,0.19543457,-0.93792725,0.4494629
1725816437214,2024-09-08T17:27:17.214Z,69522,0.18157959,-0.74780273,0.20098877
1725816437259,2024-09-08T17:27:17.259Z,69567,0.0032958984,-0.8491211,0.19677734
1725816437303,2024-09-08T17:27:17.303Z,69611,0.07446289,-0.87854004,0.33862305
1725816437348,2024-09-08T17:27:17.348Z,69656,0.13739014,-1.0498657,0.54473877
1725816437396,2024-09-08T17:27:17.396Z,69704,0.17333984,-1.0454712,0.5081177
1725816437439,2024-09-08T17:27:17.439Z,69747,0.23535156,-0.6819458,0.4767456
1725816437529,2024-09-08T17:27:17.529Z,69837,0.078552246,-0.8312988,0.24987793
1725816437548,2024-09-08T17:27:17.548Z,69856,0.07659912,-0.9262085,0.15838623
1725816437567,2024-09-08T17:27:17.567Z,69875,0.12786865,-0.8911133,0.49664307
1725816437579,2024-09-08T17:27:17.579Z,69887,0.1628418,-0.77459717,0.5418091
1725816437618,2024-09-08T17:27:17.618Z,69926,0.16455078,-0.7977295,0.3357544
1725816437663,2024-09-08T17:27:17.663Z,69971,0.011474609,-0.5437012,0.18084717
1725816437711,2024-09-08T17:27:17.711Z,70019,0.109802246,-0.7010498,0.22558594
1725816437798,2024-09-08T17:27:17.798Z,70106,0.26794434,-1.1932983,0.77783203
1725816437818,2024-09-08T17:27:17.818Z,70126,0.1194458,-0.9349365,0.835083
1725816437843,2024-09-08T17:27:17.843Z,70151,0.08642578,-0.7584839,0.42456055
1725816437887,2024-09-08T17:27:17.887Z,70195,0.14703369,-0.7089844,-0.016357422
1725816437935,2024-09-08T17:27:17.935Z,70243,0.20751953,-1.0043945,0.10723877
1725816437951,2024-09-08T17:27:17.951Z,70259,0.13250732,-0.7992554,0.4437256
1725816437979,2024-09-08T17:27:17.979Z,70287,0.110961914,-0.89501953,0.6930542
1725816438023,2024-09-08T17:27:18.023Z,70331,0.16668701,-0.8569336,0.67352295
1725816438067,2024-09-08T17:27:18.067Z,70375,0.17706299,-0.8286133,0.4859619
1725816438113,2024-09-08T17:27:18.113Z,70421,0.1618042,-0.89611816,0.3602295
1725816438157,2024-09-08T17:27:18.157Z,70465,0.15716553,-0.8905029,0.31750488
1725816438205,2024-09-08T17:27:18.205Z,70513,0.15881348,-0.8583374,0.2741089
1725816438249,2024-09-08T17:27:18.249Z,70557,0.15093994,-0.84295654,0.32495117
1725816438295,2024-09-08T17:27:18.295Z,70603,0.13653564,-0.854187,0.42596436
1725816438337,2024-09-08T17:27:18.337Z,70645,0.21612549,-0.8689575,0.46191406
1725816438354,2024-09-08T17:27:18.354Z,70662,0.20648193,-0.85424805,0.4506836
1725816438395,2024-09-08T17:27:18.395Z,70703,0.16009521,-0.87438965,0.44085693
1725816438427,2024-09-08T17:27:18.427Z,70735,0.16625977,-0.8577881,0.44921875
1725816438475,2024-09-08T17:27:18.475Z,70783,0.15356445,-0.8446045,0.4644165
1725816438519,2024-09-08T17:27:18.519Z,70827,0.1359253,-0.84552,0.48284912
1725816438566,2024-09-08T17:27:18.566Z,70874,0.14282227,-0.87127686,0.48687744
1725816438609,2024-09-08T17:27:18.609Z,70917,0.13684082,-0.8375244,0.45166016
1725816438655,2024-09-08T17:27:18.655Z,70963,0.17871094,-0.8703613,0.42175293
1725816438703,2024-09-08T17:27:18.703Z,71011,0.20080566,-0.81811523,0.38916016
1725816438746,2024-09-08T17:27:18.746Z,71054,0.061523438,-0.7344971,0.36761475
1725816438764,2024-09-08T17:27:18.764Z,71072,0.03515625,-0.85528564,0.39154053
1725816438798,2024-09-08T17:27:18.798Z,71106,0.20483398,-0.9378662,0.39123535
1725816438835,2024-09-08T17:27:18.835Z,71143,0.30651855,-0.84417725,0.23425293
1725816438878,2024-09-08T17:27:18.878Z,71186,0.1739502,-0.8590088,0.06085205
1725816438924,2024-09-08T17:27:18.924Z,71232,0.03643799,-0.74328613,0.12854004
1725816438969,2024-09-08T17:27:18.969Z,71277,0.060791016,-0.6832886,0.35321045
1725816439059,2024-09-08T17:27:19.059Z,71367,0.1461792,-0.7751465,0.36254883
1725816439077,2024-09-08T17:27:19.077Z,71385,0.10681152,-0.84820557,0.28759766
1725816439108,2024-09-08T17:27:19.108Z,71416,0.16625977,-0.87286377,0.32312012
1725816439149,2024-09-08T17:27:19.149Z,71457,0.15637207,-0.8041992,0.411438
1725816439195,2024-09-08T17:27:19.195Z,71503,0.08404541,-0.89190674,0.25646973
1725816439215,2024-09-08T17:27:19.215Z,71523,0.114868164,-0.890625,0.2175293
1725816439237,2024-09-08T17:27:19.237Z,71545,0.17681885,-0.8319702,0.28808594
1725816439283,2024-09-08T17:27:19.283Z,71591,0.08306885,-0.9824219,0.23803711
1725816439330,2024-09-08T17:27:19.330Z,71638,0.14331055,-0.8739624,0.4102173
1725816439372,2024-09-08T17:27:19.372Z,71680,0.1293335,-0.9423828,0.25671387
1725816439419,2024-09-08T17:27:19.419Z,71727,0.11968994,-0.93029785,0.15057373
1725816439463,2024-09-08T17:27:19.463Z,71771,0.17730713,-0.9000244,0.128479
1725816439508,2024-09-08T17:27:19.508Z,71816,0.13873291,-0.92596436,0.08721924
1725816439555,2024-09-08T17:27:19.555Z,71863,0.12207031,-0.953125,0.040222168
1725816439600,2024-09-08T17:27:19.600Z,71908,0.17767334,-0.91741943,0.01361084
1725816439618,2024-09-08T17:27:19.618Z,71926,0.1673584,-0.9453125,0.18450928
1725816439649,2024-09-08T17:27:19.649Z,71957,0.15472412,-0.9760132,0.33392334
1725816439688,2024-09-08T17:27:19.688Z,71996,0.11016846,-0.97076416,0.41522217
1725816439780,2024-09-08T17:27:19.780Z,72088,0.11553955,-1.0222778,0.45031738
1725816439799,2024-09-08T17:27:19.799Z,72107,0.30914307,-0.9758911,0.4998169
1725816439823,2024-09-08T17:27:19.823Z,72131,0.22106934,-0.97784424,0.37817383
1725816439868,2024-09-08T17:27:19.868Z,72176,0.09442139,-1.0861816,0.3347168
1725816439961,2024-09-08T17:27:19.961Z,72269,0.37664795,-0.9970703,0.28430176
1725816440014,2024-09-08T17:27:20.014Z,72322,0.39294434,-0.9797363,0.46203613
1725816440032,2024-09-08T17:27:20.032Z,72340,0.52593994,-0.8249512,0.48327637
1725816440049,2024-09-08T17:27:20.049Z,72357,0.30413818,-1.0765991,0.09008789
1725816440064,2024-09-08T17:27:20.064Z,72372,0.3114624,-0.8800659,0.51867676
1725816440092,2024-09-08T17:27:20.092Z,72400,0.71533203,-0.6256714,0.78131104
1725816440137,2024-09-08T17:27:20.137Z,72445,0.34710693,-1.010498,0.18389893
1725816440186,2024-09-08T17:27:20.186Z,72494,0.0015258789,-0.946167,0.35375977
1725816440229,2024-09-08T17:27:20.229Z,72537,0.5492554,-0.76794434,0.5872803
1725816440275,2024-09-08T17:27:20.275Z,72583,0.7039795,-0.85388184,0.6077881
1725816440329,2024-09-08T17:27:20.329Z,72637,0.14208984,-0.93200684,0.5074463
1725816440363,2024-09-08T17:27:20.363Z,72671,0.16674805,-0.96307373,0.32763672
1725816440409,2024-09-08T17:27:20.409Z,72717,0.6324463,-0.7915039,0.52227783
1725816440453,2024-09-08T17:27:20.453Z,72761,0.5305786,-0.6939697,0.56677246
1725816440471,2024-09-08T17:27:20.471Z,72779,0.055236816,-0.92926025,0.26245117
1725816440499,2024-09-08T17:27:20.499Z,72807,0.18707275,-0.845459,0.31707764
1725816440545,2024-09-08T17:27:20.545Z,72853,0.5101929,-0.80255127,0.51104736
1725816440591,2024-09-08T17:27:20.591Z,72899,0.4833374,-0.7699585,0.6503296
1725816440634,2024-09-08T17:27:20.634Z,72942,0.18560791,-0.7755127,0.45355225
1725816440680,2024-09-08T17:27:20.680Z,72988,0.09173584,-1.0285034,0.33581543
1725816440724,2024-09-08T17:27:20.724Z,73032,0.38275146,-0.9869995,0.5292969
1725816440769,2024-09-08T17:27:20.769Z,73077,0.35180664,-0.87994385,0.64276123
1725816440814,2024-09-08T17:27:20.814Z,73122,0.2208252,-0.89038086,0.4307251
1725816440859,2024-09-08T17:27:20.859Z,73167,0.29211426,-0.7897339,0.3965454
1725816440879,2024-09-08T17:27:20.879Z,73187,0.19818115,-0.9447632,0.3463745
1725816440902,2024-09-08T17:27:20.902Z,73210,0.13659668,-1.062561,0.2810669
1725816440948,2024-09-08T17:27:20.948Z,73256,0.15655518,-1.0772705,0.34802246
1725816440994,2024-09-08T17:27:20.994Z,73302,0.30212402,-1.0125732,0.48114014
1725816441040,2024-09-08T17:27:21.040Z,73348,0.32440186,-0.7998657,0.40429688
1725816441085,2024-09-08T17:27:21.085Z,73393,0.18890381,-0.7362671,0.33929443
1725816441127,2024-09-08T17:27:21.127Z,73435,-0.15301514,-0.9984131,0.20019531
1725816441174,2024-09-08T17:27:21.174Z,73482,0.101257324,-1.0980835,0.16986084
1725816441219,2024-09-08T17:27:21.219Z,73527,0.20916748,-1.2380371,0.32226562
1725816441265,2024-09-08T17:27:21.265Z,73573,0.27398682,-1.0615234,0.4038086
1725816441283,2024-09-08T17:27:21.283Z,73591,0.19268799,-0.6201782,0.24285889
1725816441306,2024-09-08T17:27:21.306Z,73614,-0.014953613,-0.83221436,0.008178711
1725816441398,2024-09-08T17:27:21.398Z,73706,9.1552734E-4,-0.9881592,0.07458496
1725816441416,2024-09-08T17:27:21.416Z,73724,0.19439697,-1.1513672,0.26153564
1725816441442,2024-09-08T17:27:21.442Z,73750,0.1973877,-0.96173096,0.47229004
1725816441489,2024-09-08T17:27:21.489Z,73797,0.080322266,-0.7952881,0.40856934
1725816441534,2024-09-08T17:27:21.534Z,73842,0.092163086,-0.8082886,0.08331299
1725816441577,2024-09-08T17:27:21.577Z,73885,0.16412354,-0.9645386,0.042297363
1725816441622,2024-09-08T17:27:21.622Z,73930,0.14428711,-0.7328491,0.36547852
1725816441668,2024-09-08T17:27:21.668Z,73976,0.09161377,-0.75164795,0.3991089
1725816441711,2024-09-08T17:27:21.711Z,74019,0.023498535,-1.0158691,-0.020202637
1725816441728,2024-09-08T17:27:21.728Z,74036,0.21826172,-0.9088135,0.16601562
1725816441754,2024-09-08T17:27:21.754Z,74062,0.09259033,-1.0470581,0.30169678
1725816441803,2024-09-08T17:27:21.803Z,74111,0.1628418,-0.87597656,0.3899536
1725816441848,2024-09-08T17:27:21.848Z,74156,0.16363525,-0.7921753,0.40289307
1725816441895,2024-09-08T17:27:21.895Z,74203,0.15625,-0.8203125,0.22106934
1725816441939,2024-09-08T17:27:21.939Z,74247,0.09716797,-0.88079834,0.09057617
1725816441983,2024-09-08T17:27:21.983Z,74291,0.023986816,-1.0744019,0.15655518
1725816442029,2024-09-08T17:27:22.029Z,74337,0.17572021,-0.84625244,0.41412354
1725816442075,2024-09-08T17:27:22.075Z,74383,0.16229248,-0.7188721,0.5523071
1725816442120,2024-09-08T17:27:22.120Z,74428,0.059143066,-0.9359741,0.3239746
1725816442136,2024-09-08T17:27:22.136Z,74444,0.11230469,-0.8392334,0.42974854
1725816442162,2024-09-08T17:27:22.162Z,74470,0.19360352,-0.8123169,0.48077393
1725816442207,2024-09-08T17:27:22.207Z,74515,0.15106201,-0.885376,0.41394043
1725816442255,2024-09-08T17:27:22.255Z,74563,0.109313965,-0.9475708,0.47503662
1725816442297,2024-09-08T17:27:22.297Z,74605,0.15008545,-0.86065674,0.43914795
1725816442350,2024-09-08T17:27:22.350Z,74658,0.121276855,-0.72161865,0.44451904
1725816442391,2024-09-08T17:27:22.391Z,74699,0.0012817383,-0.62072754,0.29449463
1725816442434,2024-09-08T17:27:22.434Z,74742,0.08050537,-0.79071045,0.12524414
1725816442479,2024-09-08T17:27:22.479Z,74787,0.36218262,-1.1848145,0.6970215
1725816442525,2024-09-08T17:27:22.525Z,74833,0.19378662,-0.8774414,0.7762451
1725816442544,2024-09-08T17:27:22.544Z,74852,0.030029297,-0.70495605,0.32092285
1725816442570,2024-09-08T17:27:22.570Z,74878,0.18365479,-0.9755249,0.13739014
1725816442613,2024-09-08T17:27:22.613Z,74921,0.14135742,-0.8463135,0.16906738
1725816442661,2024-09-08T17:27:22.661Z,74969,0.118652344,-0.8006592,0.32263184
1725816442707,2024-09-08T17:27:22.707Z,75015,0.15612793,-0.8793335,0.5338745
1725816442750,2024-09-08T17:27:22.750Z,75058,0.20172119,-0.82299805,0.55670166
1725816442794,2024-09-08T17:27:22.794Z,75102,0.21929932,-0.87713623,0.4892578
1725816442840,2024-09-08T17:27:22.840Z,75148,0.21765137,-0.92230225,0.38964844
1725816442885,2024-09-08T17:27:22.885Z,75193,0.20123291,-0.8907471,0.3441162
1725816442929,2024-09-08T17:27:22.929Z,75237,0.1809082,-0.854126,0.29766846
1725816442976,2024-09-08T17:27:22.976Z,75284,0.12963867,-0.8319092,0.3324585
1725816442996,2024-09-08T17:27:22.996Z,75304,0.11791992,-0.82543945,0.42938232
1725816443019,2024-09-08T17:27:23.019Z,75327,0.099243164,-0.8410034,0.4654541
1725816443063,2024-09-08T17:27:23.063Z,75371,0.113464355,-0.8532715,0.5125122
1725816443110,2024-09-08T17:27:23.110Z,75418,0.16119385,-0.8790283,0.4841919
1725816443155,2024-09-08T17:27:23.155Z,75463,0.20007324,-0.8446655,0.49395752
1725816443197,2024-09-08T17:27:23.197Z,75505,0.21124268,-0.80615234,0.4533081
1725816443244,2024-09-08T17:27:23.244Z,75552,0.20629883,-0.96417236,0.41192627
1725816443288,2024-09-08T17:27:23.288Z,75596,0.16638184,-0.92230225,0.354187
1725816443332,2024-09-08T17:27:23.332Z,75640,0.043518066,-0.81311035,0.39300537
1725816443380,2024-09-08T17:27:23.380Z,75688,0.060302734,-0.84173584,0.45440674
1725816443402,2024-09-08T17:27:23.402Z,75710,0.14459229,-0.86846924,0.47851562
1725816443424,2024-09-08T17:27:23.424Z,75732,0.10797119,-0.8330078,0.39227295
1725816443467,2024-09-08T17:27:23.467Z,75775,0.25042725,-0.94140625,0.23321533
1725816443513,2024-09-08T17:27:23.513Z,75821,0.2685547,-1.0337524,0.15466309
1725816443559,2024-09-08T17:27:23.559Z,75867,0.16772461,-0.8578491,0.30737305
1725816443602,2024-09-08T17:27:23.602Z,75910,0.010986328,-0.80810547,0.35992432
1725816443655,2024-09-08T17:27:23.655Z,75963,0.10266113,-0.7200928,0.37225342
1725816443693,2024-09-08T17:27:23.693Z,76001,0.093933105,-0.72058105,0.38580322
1725816443738,2024-09-08T17:27:23.738Z,76046,0.06903076,-0.80584717,0.34698486
1725816443782,2024-09-08T17:27:23.782Z,76090,0.13604736,-0.7764282,0.37524414
1725816443798,2024-09-08T17:27:23.798Z,76106,0.062683105,-0.9047241,0.2678833
1725816443827,2024-09-08T17:27:23.827Z,76135,0.09680176,-0.9041748,0.13464355
1725816443874,2024-09-08T17:27:23.874Z,76182,0.14056396,-0.8632202,0.11175537
1725816443928,2024-09-08T17:27:23.928Z,76236,0.101745605,-0.90252686,0.19647217
1725816443964,2024-09-08T17:27:23.964Z,76272,0.1473999,-0.8874512,0.24304199
1725816444009,2024-09-08T17:27:24.009Z,76317,0.17559814,-0.9622803,0.19213867
1725816444054,2024-09-08T17:27:24.054Z,76362,0.1395874,-0.85736084,0.26538086
1725816444100,2024-09-08T17:27:24.100Z,76408,0.1296997,-0.8668823,0.1899414
1725816444145,2024-09-08T17:27:24.145Z,76453,0.09063721,-0.8753662,0.2703247
1725816444190,2024-09-08T17:27:24.190Z,76498,0.103271484,-0.89837646,0.32385254
1725816444234,2024-09-08T17:27:24.234Z,76542,0.064819336,-0.97869873,0.32403564
1725816444252,2024-09-08T17:27:24.252Z,76560,0.1439209,-0.8821411,0.3182373
1725816444326,2024-09-08T17:27:24.326Z,76634,0.17694092,-0.9844971,0.11291504
1725816444342,2024-09-08T17:27:24.342Z,76650,0.10491943,-0.96990967,0.07183838
1725816444367,2024-09-08T17:27:24.367Z,76675,0.11633301,-0.90026855,0.07757568
1725816444417,2024-09-08T17:27:24.417Z,76725,0.10394287,-1.0106201,0.06616211
1725816444458,2024-09-08T17:27:24.458Z,76766,0.18847656,-0.9140625,0.29760742
1725816444503,2024-09-08T17:27:24.503Z,76811,0.1272583,-1.0197754,0.14172363
1725816444549,2024-09-08T17:27:24.549Z,76857,0.11956787,-1.0372925,0.21105957
1725816444597,2024-09-08T17:27:24.597Z,76905,0.18536377,-0.89471436,0.3302002
1725816444639,2024-09-08T17:27:24.639Z,76947,0.1105957,-1.0175781,0.2477417
1725816444653,2024-09-08T17:27:24.653Z,76961,0.04852295,-0.9760132,0.45251465
1725816444691,2024-09-08T17:27:24.691Z,76999,0.16668701,-0.99890137,0.43450928
1725816444727,2024-09-08T17:27:24.727Z,77035,0.19818115,-1.0337524,0.23895264
1725816444775,2024-09-08T17:27:24.775Z,77083,0.18041992,-1.0145264,0.3640747
1725816444819,2024-09-08T17:27:24.819Z,77127,0.2886963,-0.93463135,0.31396484
1725816444865,2024-09-08T17:27:24.865Z,77173,0.19720459,-1.0142822,0.24920654
1725816444911,2024-09-08T17:27:24.911Z,77219,0.2925415,-0.88952637,0.39508057
1725816444952,2024-09-08T17:27:24.952Z,77260,0.35498047,-0.92645264,0.29211426
1725816445004,2024-09-08T17:27:25.004Z,77312,0.19604492,-0.97369385,0.29821777
1725816445044,2024-09-08T17:27:25.044Z,77352,0.3116455,-0.92266846,0.42016602
1725816445063,2024-09-08T17:27:25.063Z,77371,0.42382812,-0.9434204,0.34991455
1725816445133,2024-09-08T17:27:25.133Z,77441,0.20239258,-0.82214355,0.4336548
1725816445151,2024-09-08T17:27:25.151Z,77459,0.32537842,-0.8557739,0.5650635
1725816445177,2024-09-08T17:27:25.177Z,77485,0.41314697,-0.99993896,0.32910156
1725816445268,2024-09-08T17:27:25.268Z,77576,0.20996094,-0.935791,0.52630615
1725816445283,2024-09-08T17:27:25.283Z,77591,0.25665283,-0.9490967,0.47930908
1725816445312,2024-09-08T17:27:25.312Z,77620,0.4147339,-0.8344116,0.33422852
1725816445360,2024-09-08T17:27:25.360Z,77668,0.3258667,-0.77130127,0.64019775
1725816445403,2024-09-08T17:27:25.403Z,77711,0.09088135,-1.0541992,0.43206787
1725816445448,2024-09-08T17:27:25.448Z,77756,0.28460693,-0.9750366,0.27630615
1725816445541,2024-09-08T17:27:25.541Z,77849,0.3319702,-0.84625244,0.48034668
1725816445560,2024-09-08T17:27:25.560Z,77868,0.29663086,-1.0819702,0.44665527
1725816445580,2024-09-08T17:27:25.580Z,77888,0.19726562,-1.0142212,0.36010742
1725816445596,2024-09-08T17:27:25.596Z,77904,0.1977539,-0.8225708,0.4800415
1725816445630,2024-09-08T17:27:25.630Z,77938,0.18341064,-0.8232422,0.26550293
1725816445672,2024-09-08T17:27:25.672Z,77980,0.1607666,-0.88183594,0.26757812
1725816445719,2024-09-08T17:27:25.719Z,78027,0.11193848,-0.8807373,0.38928223
1725816445771,2024-09-08T17:27:25.771Z,78079,0.08062744,-1.1096191,0.3213501
1725816445813,2024-09-08T17:27:25.813Z,78121,0.184021,-1.1129761,0.4373169
1725816445852,2024-09-08T17:27:25.852Z,78160,0.32977295,-0.9121094,0.5126953
1725816445899,2024-09-08T17:27:25.899Z,78207,0.092285156,-0.78564453,0.22021484
1725816445915,2024-09-08T17:27:25.915Z,78223,0.018859863,-1.0327759,0.14935303
1725816445943,2024-09-08T17:27:25.943Z,78251,0.058410645,-0.93170166,0.28637695
1725816445989,2024-09-08T17:27:25.989Z,78297,0.087646484,-0.91571045,0.30963135
1725816446035,2024-09-08T17:27:26.035Z,78343,0.1751709,-0.93652344,0.19677734
1725816446141,2024-09-08T17:27:26.141Z,78449,0.10821533,-0.88323975,0.10638428
1725816446164,2024-09-08T17:27:26.164Z,78472,0.015136719,-0.8947754,0.26068115
1725816446184,2024-09-08T17:27:26.184Z,78492,0.097961426,-0.81970215,0.27618408
1725816446217,2024-09-08T17:27:26.217Z,78525,0.08105469,-1.0681763,0.25958252
1725816446258,2024-09-08T17:27:26.258Z,78566,0.12359619,-1.105835,0.25280762
1725816446305,2024-09-08T17:27:26.305Z,78613,0.115356445,-1.0323486,0.2532959
1725816446320,2024-09-08T17:27:26.320Z,78628,0.09423828,-0.9766846,0.21252441
1725816446348,2024-09-08T17:27:26.348Z,78656,0.074401855,-0.7504883,0.18469238
1725816446392,2024-09-08T17:27:26.392Z,78700,0.024414062,-0.7680664,0.14117432
1725816446439,2024-09-08T17:27:26.439Z,78747,-0.10534668,-1.1792603,-0.061401367
1725816446484,2024-09-08T17:27:26.484Z,78792,0.12432861,-1.2944946,0.15148926
1725816446530,2024-09-08T17:27:26.530Z,78838,0.31152344,-0.8210449,0.58306885
1725816446575,2024-09-08T17:27:26.575Z,78883,0.04486084,-0.9390869,0.34954834
1725816446619,2024-09-08T17:27:26.619Z,78927,0.026794434,-0.83514404,0.13006592
1725816446664,2024-09-08T17:27:26.664Z,78972,0.06976318,-0.7474365,0.18322754
1725816446712,2024-09-08T17:27:26.712Z,79020,-0.03918457,-1.0090332,0.16552734
1725816446753,2024-09-08T17:27:26.753Z,79061,0.14215088,-0.8305054,0.41455078
1725816446811,2024-09-08T17:27:26.811Z,79119,0.111450195,-1.1555176,0.3779297
1725816446834,2024-09-08T17:27:26.834Z,79142,0.21636963,-1.1135864,0.14831543
1725816446850,2024-09-08T17:27:26.850Z,79158,0.2861328,-0.7600708,0.2515869
1725816446887,2024-09-08T17:27:26.887Z,79195,-0.0368042,-0.7402344,0.16479492
1725816446936,2024-09-08T17:27:26.936Z,79244,-0.022460938,-0.7819214,0.04815674
1725816446982,2024-09-08T17:27:26.982Z,79290,0.08972168,-0.8560791,0.17346191
1725816447022,2024-09-08T17:27:27.022Z,79330,0.099609375,-0.9984131,0.43579102
1725816447068,2024-09-08T17:27:27.068Z,79376,0.14654541,-0.9699707,0.5048218
1725816447113,2024-09-08T17:27:27.113Z,79421,0.1328125,-0.8308716,0.38391113
1725816447157,2024-09-08T17:27:27.157Z,79465,0.07800293,-0.78289795,0.2772827
1725816447170,2024-09-08T17:27:27.170Z,79478,0.0072631836,-0.7523804,0.2456665
1725816447249,2024-09-08T17:27:27.249Z,79557,0.14672852,-0.90197754,0.2913208
1725816447264,2024-09-08T17:27:27.264Z,79572,0.23101807,-0.9879761,0.39178467
1725816447292,2024-09-08T17:27:27.292Z,79600,0.17041016,-0.899292,0.4616089
1725816447337,2024-09-08T17:27:27.337Z,79645,-3.6621094E-4,-0.57214355,0.33624268
1725816447380,2024-09-08T17:27:27.380Z,79688,0.06518555,-0.8479614,0.29278564
1725816447424,2024-09-08T17:27:27.424Z,79732,0.20892334,-1.0308228,0.5336304
1725816447470,2024-09-08T17:27:27.470Z,79778,0.09631348,-0.81036377,0.5390625
1725816447514,2024-09-08T17:27:27.514Z,79822,0.13287354,-0.81170654,0.3522339
