Timestamp (ms),ISO DateTime,Elapsed Time (ms),Acceleration X,Acceleration Y,Acceleration Z
1725949725371,2024-09-10T06:28:45.371Z,172969,0.051940918,-0.9371948,0.289917
1725949725402,2024-09-10T06:28:45.402Z,173000,0.05090332,-0.93725586,0.30096436
1725949725444,2024-09-10T06:28:45.444Z,173042,-0.0012817383,-0.95874023,0.26556396
1725949725489,2024-09-10T06:28:45.489Z,173087,0.05633545,-0.9244995,0.31732178
1725949725534,2024-09-10T06:28:45.534Z,173132,0.022094727,-0.92388916,0.29736328
1725949725580,2024-09-10T06:28:45.580Z,173178,0.029174805,-0.92907715,0.2816162
1725949725626,2024-09-10T06:28:45.626Z,173224,0.033325195,-0.9343872,0.2977295
1725949725678,2024-09-10T06:28:45.678Z,173276,0.009765625,-0.9030762,0.2658081
1725949725710,2024-09-10T06:28:45.710Z,173308,0.028808594,-0.9234009,0.24066162
1725949725731,2024-09-10T06:28:45.731Z,173329,0.0073242188,-0.8925781,0.23687744
1725949725760,2024-09-10T06:28:45.760Z,173358,-0.026428223,-0.8788452,0.22137451
1725949725856,2024-09-10T06:28:45.856Z,173454,-0.030212402,-0.86413574,0.20080566
1725949725896,2024-09-10T06:28:45.896Z,173494,-0.024658203,-0.8746338,0.16046143
1725949725993,2024-09-10T06:28:45.993Z,173591,-0.036987305,-0.8843994,0.12585449
1725949726025,2024-09-10T06:28:46.025Z,173623,-0.022583008,-0.8913574,0.12231445
1725949726047,2024-09-10T06:28:46.047Z,173645,-0.04650879,-0.9274292,0.091430664
1725949726068,2024-09-10T06:28:46.068Z,173666,-0.0625,-1.0009155,0.10888672
1725949726084,2024-09-10T06:28:46.084Z,173682,-0.06903076,-0.9227905,0.07623291
1725949726173,2024-09-10T06:28:46.173Z,173771,-0.091674805,-0.9772339,0.07409668
1725949726189,2024-09-10T06:28:46.189Z,173787,-0.10418701,-0.9425049,0.047546387
1725949726207,2024-09-10T06:28:46.207Z,173805,-0.10650635,-0.94763184,0.047058105
1725949726256,2024-09-10T06:28:46.256Z,173854,-0.14447021,-0.8711548,0.0647583
1725949726275,2024-09-10T06:28:46.275Z,173873,-0.13574219,-0.9418335,-0.03894043
1725949726300,2024-09-10T06:28:46.300Z,173898,-0.16131592,-0.9847412,-0.059265137
1725949726346,2024-09-10T06:28:46.346Z,173944,-0.16583252,-0.9250488,-0.08416748
1725949726391,2024-09-10T06:28:46.391Z,173989,-0.14447021,-0.9345093,-0.099365234
1725949726436,2024-09-10T06:28:46.436Z,174034,-0.17004395,-0.9147949,-0.10211182
1725949726536,2024-09-10T06:28:46.536Z,174134,-0.17651367,-0.8411255,-0.105041504
1725949726566,2024-09-10T06:28:46.566Z,174164,-0.08905029,-0.9800415,-0.08935547
1725949726589,2024-09-10T06:28:46.589Z,174187,-0.11212158,-0.9776001,-0.059265137
1725949726608,2024-09-10T06:28:46.608Z,174206,-0.12414551,-0.9956665,-0.056396484
1725949726625,2024-09-10T06:28:46.625Z,174223,-0.103149414,-1.0009155,-0.015380859
1725949726658,2024-09-10T06:28:46.658Z,174256,-0.109680176,-0.98046875,0.007873535
1725949726705,2024-09-10T06:28:46.705Z,174303,-0.093322754,-1.0246582,0.044128418
1725949726758,2024-09-10T06:28:46.758Z,174356,-0.11694336,-1.0269775,0.046325684
1725949726801,2024-09-10T06:28:46.801Z,174399,-0.089782715,-1.0473022,0.09429932
1725949726842,2024-09-10T06:28:46.842Z,174440,-0.103271484,-1.0419922,0.109436035
1725949726885,2024-09-10T06:28:46.885Z,174483,-0.09301758,-1.0267334,0.10888672
1725949726938,2024-09-10T06:28:46.938Z,174536,-0.10461426,-0.9781494,0.18902588
1725949726965,2024-09-10T06:28:46.965Z,174563,-0.067993164,-0.9036865,0.17486572
1725949726987,2024-09-10T06:28:46.987Z,174585,0.02960205,-0.8972168,0.2453003
1725949727018,2024-09-10T06:28:47.018Z,174616,0.0018310547,-0.8899536,0.28173828
1725949727067,2024-09-10T06:28:47.067Z,174665,0.046203613,-0.8414917,0.2645874
1725949727116,2024-09-10T06:28:47.116Z,174714,0.014221191,-0.9707031,0.37799072
1725949727158,2024-09-10T06:28:47.158Z,174756,0.053955078,-0.9122925,0.37652588
1725949727210,2024-09-10T06:28:47.210Z,174808,0.08300781,-0.9573364,0.46759033
1725949727257,2024-09-10T06:28:47.257Z,174855,0.13812256,-0.95422363,0.5130615
1725949727293,2024-09-10T06:28:47.293Z,174891,0.18743896,-0.9334717,0.6744385
1725949727335,2024-09-10T06:28:47.335Z,174933,0.20751953,-0.8515625,0.6468506
1725949727356,2024-09-10T06:28:47.356Z,174954,0.22015381,-0.86431885,0.6638794
1725949727379,2024-09-10T06:28:47.379Z,174977,0.23449707,-0.8545532,0.74993896
1725949727426,2024-09-10T06:28:47.426Z,175024,0.22979736,-0.81817627,0.73236084
1725949727470,2024-09-10T06:28:47.470Z,175068,0.24285889,-0.79174805,0.73443604
1725949727523,2024-09-10T06:28:47.523Z,175121,0.25836182,-0.71972656,0.67767334
1725949727614,2024-09-10T06:28:47.614Z,175212,0.23858643,-0.71972656,0.6133423
1725949727645,2024-09-10T06:28:47.645Z,175243,0.22930908,-0.74279785,0.5852661
1725949727667,2024-09-10T06:28:47.667Z,175265,0.28607178,-0.75457764,0.6031494
1725949727693,2024-09-10T06:28:47.693Z,175291,0.31958008,-0.79345703,0.60302734
1725949727784,2024-09-10T06:28:47.784Z,175382,0.3330078,-0.82177734,0.54797363
1725949727802,2024-09-10T06:28:47.802Z,175400,0.34735107,-0.8049927,0.6229248
1725949727834,2024-09-10T06:28:47.834Z,175432,0.3324585,-0.8009033,0.7097168
1725949727853,2024-09-10T06:28:47.853Z,175451,0.29040527,-0.7970581,0.63934326
1725949727873,2024-09-10T06:28:47.873Z,175471,0.2741089,-0.8311157,0.62768555
1725949727918,2024-09-10T06:28:47.918Z,175516,0.2810669,-0.81256104,0.71240234
1725949727970,2024-09-10T06:28:47.970Z,175568,0.23822021,-0.7799072,0.6505127
1725949728007,2024-09-10T06:28:48.007Z,175605,0.24713135,-0.81781006,0.602478
1725949728060,2024-09-10T06:28:48.060Z,175658,0.23132324,-0.83843994,0.58569336
1725949728107,2024-09-10T06:28:48.107Z,175705,0.22753906,-0.8569946,0.58947754
1725949728148,2024-09-10T06:28:48.148Z,175746,0.21374512,-0.89538574,0.55944824
1725949728198,2024-09-10T06:28:48.198Z,175796,0.23016357,-0.8948364,0.5041504
1725949728225,2024-09-10T06:28:48.225Z,175823,0.19671631,-0.91186523,0.46032715
1725949728282,2024-09-10T06:28:48.282Z,175880,0.17565918,-0.90509033,0.36138916
1725949728304,2024-09-10T06:28:48.304Z,175902,0.19104004,-0.9819336,0.45898438
1725949728326,2024-09-10T06:28:48.326Z,175924,0.1159668,-1.0112305,0.25750732
1725949728422,2024-09-10T06:28:48.422Z,176020,0.16583252,-0.9807129,0.29693604
1725949728452,2024-09-10T06:28:48.452Z,176050,0.0390625,-0.96398926,0.23638916
1725949728473,2024-09-10T06:28:48.473Z,176071,0.109069824,-0.93981934,0.18109131
1725949728505,2024-09-10T06:28:48.505Z,176103,0.07739258,-1.010315,0.29925537
1725949728552,2024-09-10T06:28:48.552Z,176150,0.0051879883,-1.0101318,0.15429688
1725949728597,2024-09-10T06:28:48.597Z,176195,0.070251465,-1.0019531,0.32647705
1725949728619,2024-09-10T06:28:48.619Z,176217,-0.07324219,-1.0829468,0.21069336
1725949728644,2024-09-10T06:28:48.644Z,176242,0.013793945,-0.9824829,0.11590576
1725949728739,2024-09-10T06:28:48.739Z,176337,0.040161133,-1.0241089,0.23303223
1725949728769,2024-09-10T06:28:48.769Z,176367,0.0034179688,-0.99017334,0.1026001
1725949728792,2024-09-10T06:28:48.792Z,176390,0.019470215,-0.90093994,0.12713623
1725949728822,2024-09-10T06:28:48.822Z,176420,0.047912598,-1.0021362,0.07897949
1725949728866,2024-09-10T06:28:48.866Z,176464,-0.020568848,-1.0335693,0.06677246
1725949728917,2024-09-10T06:28:48.917Z,176515,0.007080078,-0.96191406,0.10620117
1725949728980,2024-09-10T06:28:48.980Z,176578,-0.0051879883,-0.97857666,0.083618164
1725949729002,2024-09-10T06:28:49.002Z,176600,0.018066406,-0.8613281,0.18341064
1725949729022,2024-09-10T06:28:49.022Z,176620,-0.06781006,-0.94647217,0.016418457
1725949729044,2024-09-10T06:28:49.044Z,176642,0.06188965,-0.8329468,0.06188965
1725949729089,2024-09-10T06:28:49.089Z,176687,-0.00592041,-0.73480225,0.042907715
1725949729134,2024-09-10T06:28:49.134Z,176732,0.008483887,-0.8510742,0.020629883
1725949729179,2024-09-10T06:28:49.179Z,176777,-0.036071777,-0.8110962,0.026245117
1725949729235,2024-09-10T06:28:49.235Z,176833,-0.015991211,-0.79382324,-0.017578125
1725949729277,2024-09-10T06:28:49.277Z,176875,-0.05291748,-0.8327637,-0.020446777
1725949729323,2024-09-10T06:28:49.323Z,176921,-0.008850098,-0.88201904,0.014404297
1725949729413,2024-09-10T06:28:49.413Z,177011,0.0037841797,-0.83917236,0.037353516
1725949729441,2024-09-10T06:28:49.441Z,177039,0.058654785,-0.925354,0.10559082
1725949729463,2024-09-10T06:28:49.463Z,177061,0.07928467,-0.9435425,0.14398193
1725949729482,2024-09-10T06:28:49.482Z,177080,0.076171875,-0.9650879,0.23754883
1725949729498,2024-09-10T06:28:49.498Z,177096,0.06982422,-0.96069336,0.29833984
1725949729538,2024-09-10T06:28:49.538Z,177136,0.05596924,-0.9734497,0.3361206
1725949729586,2024-09-10T06:28:49.586Z,177184,0.046936035,-0.95758057,0.35906982
1725949729632,2024-09-10T06:28:49.632Z,177230,0.049926758,-0.9522095,0.3864746
1725949729682,2024-09-10T06:28:49.682Z,177280,0.038635254,-0.93707275,0.38354492
1725949729728,2024-09-10T06:28:49.728Z,177326,0.009216309,-0.8590088,0.35681152
1725949729768,2024-09-10T06:28:49.768Z,177366,0.03277588,-0.8828125,0.27404785
1725949729818,2024-09-10T06:28:49.818Z,177416,0.038513184,-0.8449707,0.20843506
1725949729862,2024-09-10T06:28:49.862Z,177460,0.03656006,-0.8195801,0.1083374
1725949729886,2024-09-10T06:28:49.886Z,177484,0.038757324,-0.8493042,-0.01727295
1725949729907,2024-09-10T06:28:49.907Z,177505,-0.053100586,-0.90252686,-0.036743164
1725949729946,2024-09-10T06:28:49.946Z,177544,-0.06213379,-0.80859375,-0.12298584
1725949729996,2024-09-10T06:28:49.996Z,177594,-0.10229492,-0.8753662,-0.06585693
1725949730041,2024-09-10T06:28:50.041Z,177639,-0.038635254,-0.916687,-0.11920166
1725949730088,2024-09-10T06:28:50.088Z,177686,-0.08062744,-0.76452637,-0.018432617
1725949730131,2024-09-10T06:28:50.131Z,177729,-0.028442383,-0.9291992,-0.028747559
1725949730178,2024-09-10T06:28:50.178Z,177776,-0.0076293945,-0.90771484,0.0022583008
1725949730216,2024-09-10T06:28:50.216Z,177814,-0.075805664,-0.9276123,0.10321045
1725949730267,2024-09-10T06:28:50.267Z,177865,-0.037963867,-1.0845337,0.03540039
1725949730291,2024-09-10T06:28:50.291Z,177889,-0.076660156,-0.869751,0.086242676
1725949730310,2024-09-10T06:28:50.310Z,177908,-0.097717285,-0.9857178,0.035827637
1725949730350,2024-09-10T06:28:50.350Z,177948,-0.07244873,-1.0767212,0.021606445
1725949730402,2024-09-10T06:28:50.402Z,178000,-0.11633301,-1.1147461,0.09283447
1725949730442,2024-09-10T06:28:50.442Z,178040,-0.03527832,-1.1054077,0.045654297
1725949730489,2024-09-10T06:28:50.489Z,178087,-0.08654785,-0.9434204,0.1385498
1725949730631,2024-09-10T06:28:50.631Z,178229,-0.042419434,-1.0644531,0.06011963
1725949730669,2024-09-10T06:28:50.669Z,178267,-0.07409668,-0.91693115,0.17956543
1725949730692,2024-09-10T06:28:50.692Z,178290,-0.06793213,-1.0614014,0.09118652
1725949730716,2024-09-10T06:28:50.716Z,178314,-4.8828125E-4,-1.0112305,0.020751953
1725949730735,2024-09-10T06:28:50.735Z,178333,-0.036193848,-0.93011475,0.16107178
1725949730752,2024-09-10T06:28:50.752Z,178350,-0.03253174,-0.95440674,0.22631836
1725949730800,2024-09-10T06:28:50.800Z,178398,0.068603516,-1.007019,0.17242432
1725949730853,2024-09-10T06:28:50.853Z,178451,0.053894043,-0.947876,0.40344238
1725949730875,2024-09-10T06:28:50.875Z,178473,0.11187744,-0.86486816,0.38989258
1725949730901,2024-09-10T06:28:50.901Z,178499,0.15960693,-0.8664551,0.47753906
1725949730942,2024-09-10T06:28:50.942Z,178540,0.20837402,-0.8684082,0.56378174
1725949730980,2024-09-10T06:28:50.980Z,178578,0.22320557,-0.89782715,0.5963745
1725949731026,2024-09-10T06:28:51.026Z,178624,0.2680664,-0.8930664,0.545105
1725949731077,2024-09-10T06:28:51.077Z,178675,0.27661133,-0.866333,0.64501953
1725949731117,2024-09-10T06:28:51.117Z,178715,0.2979126,-0.8775635,0.6014404
1725949731141,2024-09-10T06:28:51.141Z,178739,0.2883911,-0.8442993,0.5565796
1725949731161,2024-09-10T06:28:51.161Z,178759,0.2694702,-0.81933594,0.5241089
1725949731207,2024-09-10T06:28:51.207Z,178805,0.24694824,-0.79937744,0.5946655
1725949731258,2024-09-10T06:28:51.258Z,178856,0.2321167,-0.7713623,0.5418701
1725949731348,2024-09-10T06:28:51.348Z,178946,0.2296753,-0.7618408,0.54193115
1725949731377,2024-09-10T06:28:51.377Z,178975,0.246521,-0.788147,0.5529175
1725949731399,2024-09-10T06:28:51.399Z,178997,0.27886963,-0.70562744,0.6358032
1725949731430,2024-09-10T06:28:51.430Z,179028,0.29644775,-0.7793579,0.6572876
1725949731475,2024-09-10T06:28:51.475Z,179073,0.3126831,-0.78100586,0.62524414
1725949731523,2024-09-10T06:28:51.523Z,179121,0.32037354,-0.7731323,0.7121582
1725949731545,2024-09-10T06:28:51.545Z,179143,0.328125,-0.79730225,0.72509766
1725949731572,2024-09-10T06:28:51.572Z,179170,0.3312378,-0.7612915,0.673584
1725949731609,2024-09-10T06:28:51.609Z,179207,0.32470703,-0.77093506,0.66778564
1725949731658,2024-09-10T06:28:51.658Z,179256,0.31817627,-0.7963257,0.7248535
1725949731707,2024-09-10T06:28:51.707Z,179305,0.30706787,-0.7560425,0.77716064
1725949731799,2024-09-10T06:28:51.799Z,179397,0.26116943,-0.821228,0.6795044
1725949731833,2024-09-10T06:28:51.833Z,179431,0.2994995,-0.81585693,0.60839844
1725949731856,2024-09-10T06:28:51.856Z,179454,0.27197266,-0.81951904,0.6929321
1725949731885,2024-09-10T06:28:51.885Z,179483,0.26953125,-0.78308105,0.7437134
1725949731925,2024-09-10T06:28:51.925Z,179523,0.19207764,-0.8341675,0.6164551
1725949732015,2024-09-10T06:28:52.015Z,179613,0.27990723,-0.86065674,0.5508423
1725949732033,2024-09-10T06:28:52.033Z,179631,0.15808105,-0.7949219,0.59783936
1725949732051,2024-09-10T06:28:52.051Z,179649,0.19384766,-0.81933594,0.5289917
1725949732070,2024-09-10T06:28:52.070Z,179668,0.12438965,-0.9254761,0.27197266
1725949732104,2024-09-10T06:28:52.104Z,179702,0.19244385,-0.93444824,0.3902588
1725949732150,2024-09-10T06:28:52.150Z,179748,0.085876465,-0.8676758,0.36138916
1725949732196,2024-09-10T06:28:52.196Z,179794,0.034240723,-0.93066406,0.3012085
1725949732243,2024-09-10T06:28:52.243Z,179841,-0.016174316,-0.99591064,0.20611572
1725949732294,2024-09-10T06:28:52.294Z,179892,-0.028442383,-1.0266724,0.12475586
1725949732431,2024-09-10T06:28:52.431Z,180029,-0.039001465,-0.989563,0.18267822
1725949732462,2024-09-10T06:28:52.462Z,180060,-0.048950195,-1.0054321,0.07312012
1725949732485,2024-09-10T06:28:52.485Z,180083,1.8310547E-4,-1.0142822,0.16265869
1725949732504,2024-09-10T06:28:52.504Z,180102,-0.078430176,-0.9993286,0.028320312
1725949732521,2024-09-10T06:28:52.521Z,180119,0.024291992,-0.8866577,0.23773193
1725949732536,2024-09-10T06:28:52.536Z,180134,-0.042053223,-1.0218506,0.07922363
1725949732552,2024-09-10T06:28:52.552Z,180150,0.017089844,-0.9156494,0.17779541
1725949732602,2024-09-10T06:28:52.602Z,180200,-0.04449463,-0.87286377,0.19274902
1725949732644,2024-09-10T06:28:52.644Z,180242,-0.027709961,-1.0337524,0.12579346
1725949732691,2024-09-10T06:28:52.691Z,180289,0.010925293,-0.9466553,0.20129395
1725949732736,2024-09-10T06:28:52.736Z,180334,-0.044128418,-0.99017334,0.08544922
1725949732786,2024-09-10T06:28:52.786Z,180384,-0.009399414,-0.880249,0.13085938
1725949732853,2024-09-10T06:28:52.853Z,180451,0.017456055,-0.98638916,0.08203125
1725949732877,2024-09-10T06:28:52.877Z,180475,-0.0390625,-0.9244995,0.15527344
1725949732898,2024-09-10T06:28:52.898Z,180496,0.022033691,-0.9395752,0.13378906
1725949732918,2024-09-10T06:28:52.918Z,180516,-0.0022583008,-0.9210205,0.0970459
1725949732962,2024-09-10T06:28:52.962Z,180560,0.018981934,-0.99157715,0.20941162
1725949733009,2024-09-10T06:28:53.009Z,180607,0.022521973,-0.98187256,0.16003418
1725949733057,2024-09-10T06:28:53.057Z,180655,0.041625977,-0.9697876,0.1897583
1725949733101,2024-09-10T06:28:53.101Z,180699,0.05609131,-0.9169922,0.246521
1725949733148,2024-09-10T06:28:53.148Z,180746,0.09075928,-0.95422363,0.2454834
1725949733187,2024-09-10T06:28:53.187Z,180785,0.10650635,-0.8394165,0.23101807
1725949733236,2024-09-10T06:28:53.236Z,180834,0.05822754,-0.7861328,0.21600342
1725949733262,2024-09-10T06:28:53.262Z,180860,0.10180664,-0.80493164,0.20111084
1725949733283,2024-09-10T06:28:53.283Z,180881,0.07232666,-0.7681885,0.19769287
1725949733320,2024-09-10T06:28:53.320Z,180918,0.12426758,-0.7647095,0.16870117
1725949733412,2024-09-10T06:28:53.412Z,181010,0.13970947,-0.8187256,0.17010498
1725949733432,2024-09-10T06:28:53.432Z,181030,0.1572876,-0.8562012,0.17163086
1725949733457,2024-09-10T06:28:53.457Z,181055,0.15252686,-0.83599854,0.19622803
1725949733522,2024-09-10T06:28:53.522Z,181120,0.099853516,-0.9147339,0.18109131
1725949733548,2024-09-10T06:28:53.548Z,181146,0.070373535,-0.86279297,0.23480225
1725949733593,2024-09-10T06:28:53.593Z,181191,0.0040893555,-0.8456421,0.22894287
1725949733663,2024-09-10T06:28:53.663Z,181261,0.038391113,-0.9090576,0.13470459
1725949733685,2024-09-10T06:28:53.685Z,181283,0.009155273,-0.90930176,0.13421631
1725949733704,2024-09-10T06:28:53.704Z,181302,0.028259277,-0.807312,0.04083252
1725949733723,2024-09-10T06:28:53.723Z,181321,-0.0075683594,-0.9543457,0.031311035
1725949733816,2024-09-10T06:28:53.816Z,181414,0.0033569336,-1.0062866,-0.017333984
1725949733830,2024-09-10T06:28:53.830Z,181428,0.009094238,-0.9660034,-0.048034668
1725949733861,2024-09-10T06:28:53.861Z,181459,-0.07312012,-0.81121826,-0.017944336
1725949733906,2024-09-10T06:28:53.906Z,181504,-0.023132324,-1.0383911,-0.013122559
1725949733949,2024-09-10T06:28:53.949Z,181547,-0.041625977,-0.86676025,-0.0099487305
1725949734003,2024-09-10T06:28:54.003Z,181601,-0.047180176,-1.0714111,-0.013916016
1725949734047,2024-09-10T06:28:54.047Z,181645,-0.046447754,-0.8327637,0.0423584
1725949734071,2024-09-10T06:28:54.071Z,181669,-0.05029297,-0.95684814,0.0056762695
1725949734091,2024-09-10T06:28:54.091Z,181689,-0.0390625,-1.0722656,0.010681152
1725949734130,2024-09-10T06:28:54.130Z,181728,-0.05328369,-0.9104004,0.0647583
1725949734180,2024-09-10T06:28:54.180Z,181778,-0.05596924,-1.111206,0.07531738
1725949734227,2024-09-10T06:28:54.227Z,181825,-0.011169434,-0.87677,0.08477783
1725949734265,2024-09-10T06:28:54.265Z,181863,-0.06829834,-0.9844971,0.09527588
1725949734317,2024-09-10T06:28:54.317Z,181915,-0.064819336,-0.9863281,0.10180664
1725949734357,2024-09-10T06:28:54.357Z,181955,-0.03302002,-0.977478,0.1184082
1725949734416,2024-09-10T06:28:54.416Z,182014,-0.018798828,-1.2022705,0.063964844
1725949734450,2024-09-10T06:28:54.450Z,182048,0.024108887,-0.97924805,0.07574463
1725949734492,2024-09-10T06:28:54.492Z,182090,-0.018066406,-1.0081787,0.13067627
1725949734514,2024-09-10T06:28:54.514Z,182112,0.02331543,-1.0768433,0.17614746
1725949734535,2024-09-10T06:28:54.535Z,182133,0.026550293,-1.0410767,0.21948242
1725949734580,2024-09-10T06:28:54.580Z,182178,0.09942627,-0.9609375,0.20605469
1725949734627,2024-09-10T06:28:54.627Z,182225,0.08355713,-0.9800415,0.2894287
1725949734678,2024-09-10T06:28:54.678Z,182276,0.12872314,-0.84399414,0.3237915
1725949734723,2024-09-10T06:28:54.723Z,182321,0.17163086,-0.9450073,0.42877197
1725949734767,2024-09-10T06:28:54.767Z,182365,0.18170166,-0.87005615,0.38928223
1725949734807,2024-09-10T06:28:54.807Z,182405,0.20532227,-0.8959961,0.51916504
1725949734856,2024-09-10T06:28:54.856Z,182454,0.22241211,-0.8658447,0.4664917
1725949734897,2024-09-10T06:28:54.897Z,182495,0.27001953,-0.7761841,0.5722656
1725949734921,2024-09-10T06:28:54.921Z,182519,0.26782227,-0.8046875,0.54278564
1725949734947,2024-09-10T06:28:54.947Z,182545,0.33636475,-0.8187256,0.54803467
1725949734984,2024-09-10T06:28:54.984Z,182582,0.3173828,-0.8439331,0.6224365
1725949735030,2024-09-10T06:28:55.030Z,182628,0.33935547,-0.86328125,0.6669922
1725949735080,2024-09-10T06:28:55.080Z,182678,0.3135376,-0.83258057,0.6220093
1725949735128,2024-09-10T06:28:55.128Z,182726,0.2935791,-0.821228,0.5592041
1725949735191,2024-09-10T06:28:55.191Z,182789,0.2828369,-0.80255127,0.5822754
1725949735214,2024-09-10T06:28:55.214Z,182812,0.30096436,-0.7328491,0.5899658
1725949735255,2024-09-10T06:28:55.255Z,182853,0.3026123,-0.75115967,0.56030273
1725949735306,2024-09-10T06:28:55.306Z,182904,0.33563232,-0.6849365,0.5673218
1725949735332,2024-09-10T06:28:55.332Z,182930,0.35308838,-0.725708,0.61083984
1725949735354,2024-09-10T06:28:55.354Z,182952,0.41027832,-0.6767578,0.6097412
1725949735389,2024-09-10T06:28:55.389Z,182987,0.430542,-0.71209717,0.64990234
1725949735443,2024-09-10T06:28:55.443Z,183041,0.39508057,-0.72509766,0.6638794
1725949735486,2024-09-10T06:28:55.486Z,183084,0.3788452,-0.7371826,0.67077637
1725949735534,2024-09-10T06:28:55.534Z,183132,0.36010742,-0.7446289,0.68865967
1725949735570,2024-09-10T06:28:55.570Z,183168,0.34924316,-0.7458496,0.6646118
1725949735623,2024-09-10T06:28:55.623Z,183221,0.3373413,-0.77996826,0.6484375
1725949735671,2024-09-10T06:28:55.671Z,183269,0.3320923,-0.7756958,0.6558838
1725949735760,2024-09-10T06:28:55.760Z,183358,0.32177734,-0.7713623,0.64367676
1725949735797,2024-09-10T06:28:55.797Z,183395,0.29125977,-0.7783203,0.61395264
1725949735818,2024-09-10T06:28:55.818Z,183416,0.28399658,-0.7680054,0.5610962
1725949735838,2024-09-10T06:28:55.838Z,183436,0.27722168,-0.8053589,0.585083
1725949735855,2024-09-10T06:28:55.855Z,183453,0.2567749,-0.8033447,0.53985596
1725949735883,2024-09-10T06:28:55.883Z,183481,0.21447754,-0.8338623,0.45672607
1725949735931,2024-09-10T06:28:55.931Z,183529,0.21063232,-0.85302734,0.44696045
1725949735974,2024-09-10T06:28:55.974Z,183572,0.21759033,-0.86157227,0.51885986
1725949736026,2024-09-10T06:28:56.026Z,183624,0.17132568,-0.8918457,0.45739746
1725949736072,2024-09-10T06:28:56.072Z,183670,0.18548584,-0.9328003,0.4281006
1725949736112,2024-09-10T06:28:56.112Z,183710,0.1359253,-0.91729736,0.3324585
1725949736161,2024-09-10T06:28:56.161Z,183759,0.10235596,-0.91400146,0.3300171
1725949736186,2024-09-10T06:28:56.186Z,183784,0.08483887,-0.9400635,0.2925415
1725949736207,2024-09-10T06:28:56.207Z,183805,0.10662842,-0.92907715,0.28710938
1725949736247,2024-09-10T06:28:56.247Z,183845,0.10217285,-0.86450195,0.25146484
1725949736297,2024-09-10T06:28:56.297Z,183895,0.055541992,-0.9206543,0.27453613
1725949736342,2024-09-10T06:28:56.342Z,183940,0.07098389,-0.9838867,0.25177002
1725949736408,2024-09-10T06:28:56.408Z,184006,0.049926758,-0.9849243,0.1494751
1725949736430,2024-09-10T06:28:56.430Z,184028,0.018066406,-0.9406738,0.21307373
1725949736469,2024-09-10T06:28:56.469Z,184067,-0.005065918,-0.92993164,0.24969482
1725949736521,2024-09-10T06:28:56.521Z,184119,-0.04888916,-1.0674438,0.13983154
1725949736568,2024-09-10T06:28:56.568Z,184166,-6.713867E-4,-1.0723877,0.14984131
1725949736594,2024-09-10T06:28:56.594Z,184192,-0.06109619,-0.9573364,0.29315186
1725949736616,2024-09-10T06:28:56.616Z,184214,-0.05645752,-0.98950195,0.20880127
1725949736697,2024-09-10T06:28:56.697Z,184295,-0.022460938,-1.0699463,0.27459717
1725949736715,2024-09-10T06:28:56.715Z,184313,-0.033935547,-1.0042114,0.22601318
1725949736741,2024-09-10T06:28:56.741Z,184339,-0.006591797,-0.98876953,0.18292236
1725949736839,2024-09-10T06:28:56.839Z,184437,-0.035339355,-1.0292969,0.1749878
1725949736867,2024-09-10T06:28:56.867Z,184465,-0.014953613,-0.94659424,0.1427002
1725949736888,2024-09-10T06:28:56.888Z,184486,-0.021606445,-0.91729736,0.2033081
1725949736919,2024-09-10T06:28:56.919Z,184517,0.012207031,-0.9763794,0.1482544
1725949736972,2024-09-10T06:28:56.972Z,184570,-0.03717041,-1.0073242,0.1204834
1725949737012,2024-09-10T06:28:57.012Z,184610,-0.07019043,-0.9338989,0.1416626
1725949737035,2024-09-10T06:28:57.035Z,184633,-0.020996094,-1.0073242,0.05682373
1725949737056,2024-09-10T06:28:57.056Z,184654,-0.059509277,-1.0144653,0.07409668
1725949737104,2024-09-10T06:28:57.104Z,184702,-0.023132324,-0.993103,0.045715332
1725949737146,2024-09-10T06:28:57.146Z,184744,-0.03845215,-0.9567261,0.008666992
1725949737191,2024-09-10T06:28:57.191Z,184789,0.0020751953,-0.9523926,0.0017700195
1725949737240,2024-09-10T06:28:57.240Z,184838,-0.0154418945,-1.0081177,0.06628418
1725949737288,2024-09-10T06:28:57.288Z,184886,0.028381348,-0.9451294,0.059753418
1725949737325,2024-09-10T06:28:57.325Z,184923,0.0076904297,-0.92211914,0.09741211
1725949737377,2024-09-10T06:28:57.377Z,184975,-0.006164551,-0.96875,0.1552124
1725949737516,2024-09-10T06:28:57.516Z,185114,-0.0045166016,-0.9440918,0.15588379
1725949737552,2024-09-10T06:28:57.552Z,185150,-0.0016479492,-0.932251,0.20703125
1725949737578,2024-09-10T06:28:57.578Z,185176,0.021118164,-0.84484863,0.20574951
1725949737600,2024-09-10T06:28:57.600Z,185198,0.0546875,-0.85302734,0.2609253
1725949737619,2024-09-10T06:28:57.619Z,185217,0.076171875,-0.82684326,0.24285889
1725949737634,2024-09-10T06:28:57.634Z,185232,0.07751465,-0.79992676,0.19500732
1725949737648,2024-09-10T06:28:57.648Z,185246,0.083740234,-0.7836304,0.22192383
1725949737686,2024-09-10T06:28:57.686Z,185284,0.054748535,-0.81689453,0.2388916
1725949737729,2024-09-10T06:28:57.729Z,185327,0.050964355,-0.8157959,0.23480225
1725949737774,2024-09-10T06:28:57.774Z,185372,0.056884766,-0.8364258,0.24963379
1725949737822,2024-09-10T06:28:57.822Z,185420,0.051696777,-0.85614014,0.25006104
1725949737843,2024-09-10T06:28:57.843Z,185441,0.052246094,-0.8381958,0.23187256
1725949737867,2024-09-10T06:28:57.867Z,185465,0.019836426,-0.7782593,0.15820312
1725949737910,2024-09-10T06:28:57.910Z,185508,0.08972168,-0.82385254,0.2345581
1725949738005,2024-09-10T06:28:58.005Z,185603,0.08062744,-0.84680176,0.27990723
1725949738025,2024-09-10T06:28:58.025Z,185623,0.0032348633,-0.8319702,0.3088379
1725949738046,2024-09-10T06:28:58.046Z,185644,0.084228516,-0.88342285,0.17962646
1725949738092,2024-09-10T06:28:58.092Z,185690,-0.05206299,-0.8326416,0.22839355
1725949738141,2024-09-10T06:28:58.141Z,185739,-0.036010742,-0.8676758,0.20947266
1725949738180,2024-09-10T06:28:58.180Z,185778,-0.039794922,-0.9099121,0.14404297
1725949738233,2024-09-10T06:28:58.233Z,185831,-0.07836914,-0.94641113,0.010437012
1725949738277,2024-09-10T06:28:58.277Z,185875,-0.11407471,-0.98687744,0.014892578
1725949738301,2024-09-10T06:28:58.301Z,185899,-0.1786499,-0.89520264,0.050109863
1725949738321,2024-09-10T06:28:58.321Z,185919,-0.13305664,-0.95129395,0.014282227
1725949738357,2024-09-10T06:28:58.357Z,185955,-0.12994385,-1.0335693,0.0115356445
1725949738407,2024-09-10T06:28:58.407Z,186005,-0.08746338,-1.0565796,0.03314209
1725949738458,2024-09-10T06:28:58.458Z,186056,-0.105407715,-0.9476929,0.06573486
1725949738502,2024-09-10T06:28:58.502Z,186100,-0.06048584,-1.0341797,0.08227539
1725949738541,2024-09-10T06:28:58.541Z,186139,-0.051452637,-0.913147,0.1083374
1725949738592,2024-09-10T06:28:58.592Z,186190,-0.10223389,-1.0130615,0.11407471
1725949738637,2024-09-10T06:28:58.637Z,186235,-0.11785889,-0.928772,0.10284424
1725949738674,2024-09-10T06:28:58.674Z,186272,-0.1296997,-0.9335327,0.16400146
1725949738695,2024-09-10T06:28:58.695Z,186293,-0.04284668,-1.0848999,0.057434082
1725949738719,2024-09-10T06:28:58.719Z,186317,0.007873535,-1.0108032,0.09552002
1725949738766,2024-09-10T06:28:58.766Z,186364,-0.08581543,-0.9957886,0.24035645
1725949738810,2024-09-10T06:28:58.810Z,186408,-0.0037841797,-1.0181885,0.22497559
1725949738863,2024-09-10T06:28:58.863Z,186461,0.076293945,-1.0544434,0.32092285
1725949738905,2024-09-10T06:28:58.905Z,186503,0.05731201,-1.0635986,0.33044434
1725949738952,2024-09-10T06:28:58.952Z,186550,0.08526611,-0.9343262,0.33026123
1725949739000,2024-09-10T06:28:59Z,186598,0.18188477,-0.97961426,0.38446045
1725949739087,2024-09-10T06:28:59.087Z,186685,0.18444824,-0.9246826,0.38378906
1725949739118,2024-09-10T06:28:59.118Z,186716,0.14880371,-0.9425659,0.4961548
1725949739140,2024-09-10T06:28:59.140Z,186738,0.2177124,-0.86291504,0.42895508
1725949739160,2024-09-10T06:28:59.160Z,186758,0.25091553,-0.80981445,0.5817871
1725949739184,2024-09-10T06:28:59.184Z,186782,0.22680664,-0.84259033,0.62249756
1725949739213,2024-09-10T06:28:59.213Z,186811,0.2744751,-0.7965698,0.61413574
1725949739261,2024-09-10T06:28:59.261Z,186859,0.28424072,-0.8245239,0.6953125
1725949739307,2024-09-10T06:28:59.307Z,186905,0.29309082,-0.8119507,0.6845703
1725949739351,2024-09-10T06:28:59.351Z,186949,0.33862305,-0.80895996,0.74871826
1725949739443,2024-09-10T06:28:59.443Z,187041,0.3085327,-0.7976074,0.67211914
1725949739463,2024-09-10T06:28:59.463Z,187061,0.38006592,-0.7128296,0.70874023
1725949739485,2024-09-10T06:28:59.485Z,187083,0.30096436,-0.7290039,0.623291
1725949739578,2024-09-10T06:28:59.578Z,187176,0.31115723,-0.7585449,0.55914307
1725949739596,2024-09-10T06:28:59.596Z,187194,0.28771973,-0.7350464,0.6325073
1725949739615,2024-09-10T06:28:59.615Z,187213,0.2939453,-0.73999023,0.6052246
1725949739634,2024-09-10T06:28:59.634Z,187232,0.27075195,-0.75177,0.5776367
1725949739721,2024-09-10T06:28:59.721Z,187319,0.2597046,-0.80444336,0.54797363
1725949739739,2024-09-10T06:28:59.739Z,187337,0.28912354,-0.8144531,0.5810547
1725949739760,2024-09-10T06:28:59.760Z,187358,0.27978516,-0.7845459,0.6121216
1725949739798,2024-09-10T06:28:59.798Z,187396,0.28875732,-0.7854004,0.6121826
1725949739848,2024-09-10T06:28:59.848Z,187446,0.3050537,-0.84973145,0.53082275
1725949739898,2024-09-10T06:28:59.898Z,187496,0.3244629,-0.81762695,0.56414795
1725949739937,2024-09-10T06:28:59.937Z,187535,0.25915527,-0.8201294,0.5637207
1725949739958,2024-09-10T06:28:59.958Z,187556,0.23803711,-0.8508911,0.48321533
1725949739980,2024-09-10T06:28:59.980Z,187578,0.25231934,-0.85302734,0.42462158
1725949740026,2024-09-10T06:29:00.026Z,187624,0.21374512,-0.89782715,0.47406006
1725949740071,2024-09-10T06:29:00.071Z,187669,0.21575928,-0.8916626,0.45599365
1725949740121,2024-09-10T06:29:00.121Z,187719,0.16351318,-0.94525146,0.3647461
1725949740166,2024-09-10T06:29:00.166Z,187764,0.1005249,-0.9841919,0.23822021
1725949740206,2024-09-10T06:29:00.206Z,187804,0.17016602,-0.99664307,0.31774902
1725949740252,2024-09-10T06:29:00.252Z,187850,0.14239502,-0.96698,0.33422852
1725949740303,2024-09-10T06:29:00.303Z,187901,0.067871094,-0.99243164,0.265625
1725949740347,2024-09-10T06:29:00.347Z,187945,0.0769043,-0.93078613,0.30871582
1725949740371,2024-09-10T06:29:00.371Z,187969,0.041137695,-0.97265625,0.21380615
1725949740392,2024-09-10T06:29:00.392Z,187990,0.024719238,-0.9232178,0.30773926
1725949740474,2024-09-10T06:29:00.474Z,188072,0.034179688,-0.9684448,0.23052979
1725949740526,2024-09-10T06:29:00.526Z,188124,0.0056152344,-0.9708252,0.26153564
1725949740554,2024-09-10T06:29:00.554Z,188152,0.0021972656,-0.95477295,0.22247314
1725949740574,2024-09-10T06:29:00.574Z,188172,-0.050720215,-1.0263062,0.21362305
1725949740610,2024-09-10T06:29:00.610Z,188208,0.03326416,-0.9887085,0.20141602
1725949740655,2024-09-10T06:29:00.655Z,188253,-0.008850098,-1.1016235,0.1262207
1725949740704,2024-09-10T06:29:00.704Z,188302,0.008239746,-1.0771484,0.12451172
1725949740753,2024-09-10T06:29:00.753Z,188351,0.026916504,-1.0213013,0.19488525
1725949740778,2024-09-10T06:29:00.778Z,188376,0.025756836,-1.0146484,0.13586426
1725949740800,2024-09-10T06:29:00.800Z,188398,0.04864502,-0.9508667,0.2064209
1725949740835,2024-09-10T06:29:00.835Z,188433,0.016662598,-0.9949341,0.15557861
1725949740890,2024-09-10T06:29:00.890Z,188488,0.00982666,-0.96813965,0.13891602
1725949740928,2024-09-10T06:29:00.928Z,188526,-0.0029296875,-0.9664917,0.13977051
1725949740977,2024-09-10T06:29:00.977Z,188575,-0.043701172,-0.92163086,0.13775635
1725949741024,2024-09-10T06:29:01.024Z,188622,-0.014221191,-0.90789795,0.16583252
1725949741061,2024-09-10T06:29:01.061Z,188659,-0.02178955,-0.94055176,0.078063965
1725949741113,2024-09-10T06:29:01.113Z,188711,0.042419434,-0.9165039,0.06365967
1725949741156,2024-09-10T06:29:01.156Z,188754,0.044677734,-0.7887573,0.11254883
1725949741204,2024-09-10T06:29:01.204Z,188802,0.07342529,-0.88446045,0.10083008
1725949741233,2024-09-10T06:29:01.233Z,188831,0.095947266,-0.9072876,0.064819336
1725949741256,2024-09-10T06:29:01.256Z,188854,0.083740234,-0.9005127,0.07128906
1725949741286,2024-09-10T06:29:01.286Z,188884,0.06640625,-0.8731079,0.13769531
1725949741378,2024-09-10T06:29:01.378Z,188976,0.11907959,-0.98339844,0.15686035
1725949741396,2024-09-10T06:29:01.396Z,188994,0.124572754,-0.8814697,0.18804932
1725949741422,2024-09-10T06:29:01.422Z,189020,0.05126953,-0.80322266,0.24493408
1725949741465,2024-09-10T06:29:01.465Z,189063,0.051940918,-0.87683105,0.21923828
1725949741517,2024-09-10T06:29:01.517Z,189115,0.08001709,-0.78826904,0.22497559
1725949741556,2024-09-10T06:29:01.556Z,189154,0.054992676,-0.77874756,0.21307373
1725949741608,2024-09-10T06:29:01.608Z,189206,0.095825195,-0.848999,0.17370605
1725949741633,2024-09-10T06:29:01.633Z,189231,0.06512451,-0.8417969,0.12841797
1725949741654,2024-09-10T06:29:01.654Z,189252,0.053344727,-0.8862915,0.12854004
1725949741690,2024-09-10T06:29:01.690Z,189288,0.034057617,-0.97076416,0.17926025
1725949741735,2024-09-10T06:29:01.735Z,189333,0.04736328,-0.9817505,0.16870117
1725949741782,2024-09-10T06:29:01.782Z,189380,-0.013000488,-0.9249878,0.20245361
1725949741833,2024-09-10T06:29:01.833Z,189431,0.07104492,-0.9761963,0.14788818
1725949741922,2024-09-10T06:29:01.922Z,189520,-0.03479004,-0.90625,0.19042969
1725949741950,2024-09-10T06:29:01.950Z,189548,0.03314209,-0.98791504,0.18823242
1725949741971,2024-09-10T06:29:01.971Z,189569,0.050720215,-1.0532227,0.16619873
1725949742057,2024-09-10T06:29:02.057Z,189655,0.0335083,-1.0131226,0.12438965
1725949742087,2024-09-10T06:29:02.087Z,189685,0.064208984,-1.0983887,0.1749878
1725949742108,2024-09-10T06:29:02.108Z,189706,0.029663086,-0.86968994,0.119018555
1725949742125,2024-09-10T06:29:02.125Z,189723,0.0637207,-0.9576416,0.12158203
1725949742140,2024-09-10T06:29:02.140Z,189738,6.713867E-4,-0.9501953,0.17089844
1725949742183,2024-09-10T06:29:02.183Z,189781,0.008911133,-0.9136963,0.101379395
1725949742238,2024-09-10T06:29:02.238Z,189836,0.004638672,-1.006958,0.121276855
1725949742276,2024-09-10T06:29:02.276Z,189874,0.0013427734,-0.9501953,0.07086182
1725949742328,2024-09-10T06:29:02.328Z,189926,-0.034057617,-0.89904785,0.034973145
1725949742372,2024-09-10T06:29:02.372Z,189970,-0.030761719,-0.9369507,0.03314209
1725949742461,2024-09-10T06:29:02.461Z,190059,-0.015380859,-0.9398804,-0.035095215
1725949742489,2024-09-10T06:29:02.489Z,190087,-0.05529785,-0.96313477,-0.018554688
1725949742512,2024-09-10T06:29:02.512Z,190110,-0.04071045,-1.0145874,-0.0029296875
1725949742531,2024-09-10T06:29:02.531Z,190129,-0.051086426,-0.8513794,0.002746582
1725949742548,2024-09-10T06:29:02.548Z,190146,-0.053222656,-0.95599365,0.028869629
1725949742589,2024-09-10T06:29:02.589Z,190187,-0.05090332,-0.91516113,0.008605957
1725949742639,2024-09-10T06:29:02.639Z,190237,-0.061645508,-1.0809326,0.018493652
1725949742681,2024-09-10T06:29:02.681Z,190279,-0.034423828,-0.91308594,-0.019958496
1725949742732,2024-09-10T06:29:02.732Z,190330,-0.05706787,-0.94873047,0.002746582
1725949742777,2024-09-10T06:29:02.777Z,190375,-0.06201172,-1.0459595,-0.018066406
1725949742823,2024-09-10T06:29:02.823Z,190421,-0.080078125,-0.9647827,-0.0012817383
1725949742868,2024-09-10T06:29:02.868Z,190466,-0.04827881,-1.1341553,-0.010864258
1725949742895,2024-09-10T06:29:02.895Z,190493,-0.056884766,-0.9222412,7.9345703E-4
1725949742916,2024-09-10T06:29:02.916Z,190514,-0.05633545,-1.008606,0.053649902
1725949742997,2024-09-10T06:29:02.997Z,190595,-0.041015625,-0.9901123,0.02520752
1725949743049,2024-09-10T06:29:03.049Z,190647,-0.06011963,-1.0644531,0.079956055
1725949743108,2024-09-10T06:29:03.108Z,190706,0.0095825195,-1.1608276,0.007751465
1725949743130,2024-09-10T06:29:03.130Z,190728,-0.053527832,-0.9293823,0.09118652
1725949743150,2024-09-10T06:29:03.150Z,190748,-0.022399902,-1.059021,0.07141113
1725949743174,2024-09-10T06:29:03.174Z,190772,-0.024963379,-0.95581055,0.09106445
1725949743218,2024-09-10T06:29:03.218Z,190816,-0.019348145,-1.1365356,0.066833496
1725949743267,2024-09-10T06:29:03.267Z,190865,-0.030639648,-0.9633179,0.048461914
1725949743286,2024-09-10T06:29:03.286Z,190884,-0.030700684,-0.9713135,0.09277344
1725949743313,2024-09-10T06:29:03.313Z,190911,-0.01550293,-1.0305176,0.06488037
1725949743355,2024-09-10T06:29:03.355Z,190953,-0.027282715,-0.9204712,0.11468506
1725949743398,2024-09-10T06:29:03.398Z,190996,0.02935791,-0.98706055,0.036499023
1725949743452,2024-09-10T06:29:03.452Z,191050,0.0026245117,-0.868103,0.13421631
1725949743493,2024-09-10T06:29:03.493Z,191091,0.03277588,-0.84246826,0.11853027
1725949743543,2024-09-10T06:29:03.543Z,191141,0.043640137,-0.95532227,0.13354492
1725949743636,2024-09-10T06:29:03.636Z,191234,0.039123535,-0.93566895,0.16809082
1725949743663,2024-09-10T06:29:03.663Z,191261,0.042053223,-0.9332886,0.21051025
1725949743684,2024-09-10T06:29:03.684Z,191282,0.082458496,-0.8166504,0.24420166
1725949743715,2024-09-10T06:29:03.715Z,191313,0.08105469,-0.81933594,0.30371094
1725949743733,2024-09-10T06:29:03.733Z,191331,0.094055176,-0.8762207,0.29711914
1725949743807,2024-09-10T06:29:03.807Z,191405,0.19372559,-0.84710693,0.47125244
1725949743822,2024-09-10T06:29:03.822Z,191420,0.2286377,-0.9320679,0.5241699
1725949743851,2024-09-10T06:29:03.851Z,191449,0.23254395,-0.8237915,0.477417
1725949743896,2024-09-10T06:29:03.896Z,191494,0.23760986,-0.79138184,0.6203003
1725949743946,2024-09-10T06:29:03.946Z,191544,0.25726318,-0.8253784,0.56329346
1725949743991,2024-09-10T06:29:03.991Z,191589,0.32495117,-0.80877686,0.6546631
1725949744036,2024-09-10T06:29:04.036Z,191634,0.29119873,-0.75756836,0.66064453
1725949744082,2024-09-10T06:29:04.082Z,191680,0.29937744,-0.67297363,0.6031494
1725949744127,2024-09-10T06:29:04.127Z,191725,0.2668457,-0.6428833,0.64227295
1725949744152,2024-09-10T06:29:04.152Z,191750,0.2958374,-0.7178345,0.71698
1725949744173,2024-09-10T06:29:04.173Z,191771,0.38928223,-0.6590576,0.76605225
1725949744210,2024-09-10T06:29:04.210Z,191808,0.38031006,-0.6699219,0.7843628
1725949744255,2024-09-10T06:29:04.255Z,191853,0.41174316,-0.65844727,0.8625488
1725949744308,2024-09-10T06:29:04.308Z,191906,0.39794922,-0.6369629,0.8324585
1725949744349,2024-09-10T06:29:04.349Z,191947,0.38623047,-0.62939453,0.86047363
1725949744399,2024-09-10T06:29:04.399Z,191997,0.39593506,-0.60284424,0.86865234
1725949744435,2024-09-10T06:29:04.435Z,192033,0.36486816,-0.5808716,0.80352783
1725949744487,2024-09-10T06:29:04.487Z,192085,0.348938,-0.60528564,0.80529785
1725949744527,2024-09-10T06:29:04.527Z,192125,0.33947754,-0.60913086,0.7938843
1725949744551,2024-09-10T06:29:04.551Z,192149,0.31262207,-0.61535645,0.7628174
1725949744571,2024-09-10T06:29:04.571Z,192169,0.2944336,-0.62091064,0.7304077
1725949744615,2024-09-10T06:29:04.615Z,192213,0.28015137,-0.6557007,0.711792
1725949744663,2024-09-10T06:29:04.663Z,192261,0.28735352,-0.67523193,0.7069702
1725949744707,2024-09-10T06:29:04.707Z,192305,0.276062,-0.67803955,0.7449341
1725949744758,2024-09-10T06:29:04.758Z,192356,0.26641846,-0.6984863,0.65997314
1725949744796,2024-09-10T06:29:04.796Z,192394,0.27227783,-0.76501465,0.54681396
1725949744846,2024-09-10T06:29:04.846Z,192444,0.29107666,-0.75549316,0.62683105
1725949744937,2024-09-10T06:29:04.937Z,192535,0.22381592,-0.777771,0.66918945
1725949744965,2024-09-10T06:29:04.965Z,192563,0.24926758,-0.857605,0.52612305
1725949744988,2024-09-10T06:29:04.988Z,192586,0.22961426,-0.85723877,0.4576416
1725949745007,2024-09-10T06:29:05.007Z,192605,0.21929932,-0.8428955,0.48797607
1725949745024,2024-09-10T06:29:05.024Z,192622,0.18811035,-0.86865234,0.52020264
1725949745067,2024-09-10T06:29:05.067Z,192665,0.18133545,-0.9256592,0.37695312
1725949745109,2024-09-10T06:29:05.109Z,192707,0.16516113,-0.9326172,0.37304688
1725949745157,2024-09-10T06:29:05.157Z,192755,0.1428833,-0.8978882,0.32348633
1725949745222,2024-09-10T06:29:05.222Z,192820,0.14367676,-0.932251,0.31799316
1725949745246,2024-09-10T06:29:05.246Z,192844,0.13305664,-0.91174316,0.33447266
1725949745292,2024-09-10T06:29:05.292Z,192890,0.07562256,-0.92633057,0.2503662
1725949745344,2024-09-10T06:29:05.344Z,192942,0.14276123,-0.913147,0.2942505
1725949745382,2024-09-10T06:29:05.382Z,192980,0.06451416,-0.93969727,0.2617798
1725949745404,2024-09-10T06:29:05.404Z,193002,0.12042236,-0.92437744,0.28607178
1725949745425,2024-09-10T06:29:05.425Z,193023,0.091430664,-0.90667725,0.25531006
1725949745477,2024-09-10T06:29:05.477Z,193075,0.052246094,-0.9921875,0.27893066
1725949745560,2024-09-10T06:29:05.560Z,193158,0.0949707,-0.9660034,0.2835083
1725949745578,2024-09-10T06:29:05.578Z,193176,0.05670166,-0.99609375,0.20269775
1725949745608,2024-09-10T06:29:05.608Z,193206,0.056274414,-0.96850586,0.24169922
1725949745702,2024-09-10T06:29:05.702Z,193300,0.025634766,-1.0200195,0.21722412
1725949745732,2024-09-10T06:29:05.732Z,193330,0.032287598,-1.0018921,0.13311768
1725949745754,2024-09-10T06:29:05.754Z,193352,0.05609131,-1.0131226,0.15435791
1725949745784,2024-09-10T06:29:05.784Z,193382,-0.003112793,-0.9371948,0.12689209
1725949745802,2024-09-10T06:29:05.802Z,193400,0.021118164,-0.9707031,0.12756348
1725949745828,2024-09-10T06:29:05.828Z,193426,-0.05987549,-0.9725342,0.09838867
1725949745875,2024-09-10T06:29:05.875Z,193473,-0.023010254,-0.94714355,0.14746094
1725949745926,2024-09-10T06:29:05.926Z,193524,-0.045715332,-0.9625244,0.11193848
1725949745972,2024-09-10T06:29:05.972Z,193570,-0.035888672,-0.8900757,0.15881348
1725949746019,2024-09-10T06:29:06.019Z,193617,-0.034606934,-0.94281006,0.12524414
1725949746062,2024-09-10T06:29:06.062Z,193660,-0.020751953,-0.9125366,0.14648438
1725949746105,2024-09-10T06:29:06.105Z,193703,-0.02960205,-0.9987793,0.14544678
1725949746219,2024-09-10T06:29:06.219Z,193817,-0.024719238,-0.9407959,0.15161133
1725949746246,2024-09-10T06:29:06.246Z,193844,0.008361816,-0.8876343,0.18652344
1725949746268,2024-09-10T06:29:06.268Z,193866,0.03668213,-0.9637451,0.13049316
1725949746288,2024-09-10T06:29:06.288Z,193886,0.043151855,-0.9579468,0.16705322
1725949746305,2024-09-10T06:29:06.305Z,193903,0.04925537,-0.8706665,0.16760254
1725949746324,2024-09-10T06:29:06.324Z,193922,0.051635742,-0.935791,0.1720581
1725949746371,2024-09-10T06:29:06.371Z,193969,0.06506348,-0.91064453,0.18292236
1725949746420,2024-09-10T06:29:06.420Z,194018,0.07672119,-0.9085083,0.15875244
1725949746467,2024-09-10T06:29:06.467Z,194065,0.049682617,-0.88690186,0.17926025
1725949746507,2024-09-10T06:29:06.507Z,194105,0.08428955,-0.8970337,0.1642456
1725949746558,2024-09-10T06:29:06.558Z,194156,0.053710938,-0.93548584,0.18835449
1725949746605,2024-09-10T06:29:06.605Z,194203,0.08154297,-0.9631958,0.17700195
1725949746641,2024-09-10T06:29:06.641Z,194239,0.06707764,-0.9631958,0.18670654
1725949746664,2024-09-10T06:29:06.664Z,194262,0.07476807,-0.9680786,0.19451904
1725949746729,2024-09-10T06:29:06.729Z,194327,0.09686279,-0.99346924,0.23657227
1725949746750,2024-09-10T06:29:06.750Z,194348,0.06945801,-0.9879761,0.2783203
1725949746782,2024-09-10T06:29:06.782Z,194380,0.081604004,-0.9852905,0.29156494
1725949746865,2024-09-10T06:29:06.865Z,194463,0.08526611,-0.9320679,0.30603027
1725949746880,2024-09-10T06:29:06.880Z,194478,0.07720947,-0.9616089,0.3463745
