Timestamp (ms),ISO DateTime,Elapsed Time (ms),Acceleration X,Acceleration Y,Acceleration Z
1725698011296,2024-09-07T08:33:31.296Z,78402,0.3947754,-0.8710327,0.1282959
1725698011308,2024-09-07T08:33:31.308Z,78414,0.416687,-0.88409424,0.07623291
1725698011339,2024-09-07T08:33:31.339Z,78445,0.42407227,-0.89038086,0.07659912
1725698011382,2024-09-07T08:33:31.382Z,78488,0.39788818,-0.8843384,0.09106445
1725698011426,2024-09-07T08:33:31.426Z,78532,0.38256836,-0.90008545,0.09490967
1725698011472,2024-09-07T08:33:31.472Z,78578,0.34405518,-0.8656006,0.09552002
1725698011518,2024-09-07T08:33:31.518Z,78624,0.32818604,-0.90148926,0.14007568
1725698011567,2024-09-07T08:33:31.567Z,78673,0.38000488,-0.8687134,0.21514893
1725698011612,2024-09-07T08:33:31.612Z,78718,0.37322998,-0.84832764,0.28527832
1725698011658,2024-09-07T08:33:31.658Z,78764,0.37774658,-0.84436035,0.30914307
1725698011707,2024-09-07T08:33:31.707Z,78813,0.3867798,-0.8171997,0.25146484
1725698011726,2024-09-07T08:33:31.726Z,78832,0.3751831,-0.80371094,0.1817627
1725698011746,2024-09-07T08:33:31.746Z,78852,0.33795166,-0.8168335,0.12286377
1725698011793,2024-09-07T08:33:31.793Z,78899,0.27612305,-0.80133057,0.041809082
1725698011839,2024-09-07T08:33:31.839Z,78945,0.31237793,-0.8633423,-0.015991211
1725698011884,2024-09-07T08:33:31.884Z,78990,0.28619385,-0.82702637,-0.00982666
1725698011930,2024-09-07T08:33:31.930Z,79036,0.26293945,-0.7970581,0.08404541
1725698011976,2024-09-07T08:33:31.976Z,79082,0.23046875,-0.81689453,0.10058594
1725698012021,2024-09-07T08:33:32.021Z,79127,0.31799316,-0.7976074,0.122558594
1725698012064,2024-09-07T08:33:32.064Z,79170,0.29742432,-0.84680176,0.15667725
1725698012111,2024-09-07T08:33:32.111Z,79217,0.21624756,-0.77368164,0.16186523
1725698012135,2024-09-07T08:33:32.135Z,79241,0.24560547,-0.7694092,0.16241455
1725698012153,2024-09-07T08:33:32.153Z,79259,0.2374878,-0.7283325,0.041625977
1725698012198,2024-09-07T08:33:32.198Z,79304,0.3026123,-0.8353882,0.068725586
1725698012244,2024-09-07T08:33:32.244Z,79350,0.22692871,-0.91345215,0.17358398
1725698012289,2024-09-07T08:33:32.289Z,79395,0.20770264,-0.7649536,0.13909912
1725698012336,2024-09-07T08:33:32.336Z,79442,0.19714355,-0.81500244,-0.0892334
1725698012376,2024-09-07T08:33:32.376Z,79482,0.3057251,-0.9561157,0.072265625
1725698012424,2024-09-07T08:33:32.424Z,79530,0.2133789,-0.8574219,0.16174316
1725698012467,2024-09-07T08:33:32.467Z,79573,0.19421387,-0.83795166,0.20843506
1725698012513,2024-09-07T08:33:32.513Z,79619,0.22619629,-0.8643799,0.22827148
1725698012557,2024-09-07T08:33:32.557Z,79663,0.22357178,-0.82489014,0.19067383
1725698012576,2024-09-07T08:33:32.576Z,79682,0.27868652,-0.9269409,0.22772217
1725698012600,2024-09-07T08:33:32.600Z,79706,0.38208008,-0.94555664,0.22857666
1725698012647,2024-09-07T08:33:32.647Z,79753,0.38427734,-0.98565674,0.14453125
1725698012697,2024-09-07T08:33:32.697Z,79803,0.3959961,-1.2938232,0.22216797
1725698012739,2024-09-07T08:33:32.739Z,79845,0.6000366,-1.107666,0.4220581
1725698012782,2024-09-07T08:33:32.782Z,79888,0.7174072,-1.0107422,0.51586914
1725698012827,2024-09-07T08:33:32.827Z,79933,0.7313843,-1.0704346,0.36383057
1725698012874,2024-09-07T08:33:32.874Z,79980,0.57403564,-1.414856,0.4553833
1725698012915,2024-09-07T08:33:32.915Z,80021,0.6433716,-0.9979248,0.722229
1725698012962,2024-09-07T08:33:32.962Z,80068,0.57385254,-0.8041382,0.6807251
1725698012981,2024-09-07T08:33:32.981Z,80087,0.4055786,-0.6100464,0.6867676
1725698013010,2024-09-07T08:33:33.010Z,80116,0.26489258,-0.65270996,0.45996094
1725698013049,2024-09-07T08:33:33.049Z,80155,0.37506104,-0.84924316,0.449646
1725698013102,2024-09-07T08:33:33.102Z,80208,0.25482178,-0.99890137,0.20477295
1725698013143,2024-09-07T08:33:33.143Z,80249,0.33746338,-0.7345581,0.16680908
1725698013187,2024-09-07T08:33:33.187Z,80293,0.22033691,-0.8664551,0.35205078
1725698013234,2024-09-07T08:33:33.234Z,80340,0.3595581,-0.73913574,0.6637573
1725698013278,2024-09-07T08:33:33.278Z,80384,0.35321045,-0.7718506,0.60217285
1725698013324,2024-09-07T08:33:33.324Z,80430,0.487854,-0.81066895,0.5529785
1725698013369,2024-09-07T08:33:33.369Z,80475,0.54711914,-0.91503906,0.3604126
1725698013391,2024-09-07T08:33:33.391Z,80497,0.51782227,-0.98913574,0.33361816
1725698013411,2024-09-07T08:33:33.411Z,80517,0.47607422,-0.9227905,0.107666016
1725698013456,2024-09-07T08:33:33.456Z,80562,0.37176514,-0.7513428,0.11645508
1725698013501,2024-09-07T08:33:33.501Z,80607,0.4772339,-0.8164673,0.2838745
1725698013549,2024-09-07T08:33:33.549Z,80655,0.3614502,-0.7173462,0.32177734
1725698013596,2024-09-07T08:33:33.596Z,80702,0.35150146,-0.79919434,0.35998535
1725698013640,2024-09-07T08:33:33.640Z,80746,0.3430786,-0.8123779,0.25427246
1725698013685,2024-09-07T08:33:33.685Z,80791,0.2944336,-0.8658447,0.23272705
1725698013731,2024-09-07T08:33:33.731Z,80837,0.3098755,-1.0444336,0.26867676
1725698013772,2024-09-07T08:33:33.772Z,80878,0.2970581,-0.94433594,0.38226318
1725698013818,2024-09-07T08:33:33.818Z,80924,0.30914307,-0.9517822,0.36444092
1725698013841,2024-09-07T08:33:33.841Z,80947,0.2783203,-0.8619995,0.26446533
1725698013861,2024-09-07T08:33:33.861Z,80967,0.23913574,-0.9503174,0.21429443
1725698013905,2024-09-07T08:33:33.905Z,81011,0.2154541,-0.9243164,0.25030518
1725698013952,2024-09-07T08:33:33.952Z,81058,0.18859863,-0.930603,0.14556885
1725698013998,2024-09-07T08:33:33.998Z,81104,0.222229,-0.83569336,0.2084961
1725698014045,2024-09-07T08:33:34.045Z,81151,0.1774292,-0.99487305,0.18969727
1725698014088,2024-09-07T08:33:34.088Z,81194,0.2602539,-0.95080566,0.1484375
1725698014133,2024-09-07T08:33:34.133Z,81239,0.2744751,-0.93048096,0.11102295
1725698014176,2024-09-07T08:33:34.176Z,81282,0.26098633,-0.9326782,0.097473145
1725698014222,2024-09-07T08:33:34.222Z,81328,0.21014404,-0.8493042,0.17315674
1725698014247,2024-09-07T08:33:34.247Z,81353,0.18011475,-0.9723511,0.17266846
1725698014266,2024-09-07T08:33:34.266Z,81372,0.20703125,-1.0263672,0.21398926
1725698014309,2024-09-07T08:33:34.309Z,81415,0.25738525,-0.9187012,0.19781494
1725698014355,2024-09-07T08:33:34.355Z,81461,0.18493652,-0.97979736,0.19866943
1725698014401,2024-09-07T08:33:34.401Z,81507,0.1453247,-1.0004272,0.23175049
1725698014447,2024-09-07T08:33:34.447Z,81553,0.14556885,-0.9663696,0.21844482
1725698014493,2024-09-07T08:33:34.493Z,81599,0.31860352,-0.83673096,0.23370361
1725698014536,2024-09-07T08:33:34.536Z,81642,0.22283936,-0.81884766,0.099609375
1725698014582,2024-09-07T08:33:34.582Z,81688,0.08514404,-0.9991455,0.06890869
1725698014628,2024-09-07T08:33:34.628Z,81734,0.020446777,-1.2022705,0.13873291
1725698014648,2024-09-07T08:33:34.648Z,81754,0.23565674,-0.8978882,0.17211914
1725698014670,2024-09-07T08:33:34.670Z,81776,0.32647705,-0.6867676,0.07928467
1725698014716,2024-09-07T08:33:34.716Z,81822,0.20898438,-0.93310547,0.105285645
1725698014762,2024-09-07T08:33:34.762Z,81868,0.0491333,-1.1044312,0.061645508
1725698014807,2024-09-07T08:33:34.807Z,81913,0.17510986,-1.0056763,0.09674072
1725698014851,2024-09-07T08:33:34.851Z,81957,0.23986816,-0.8126221,0.109069824
1725698014899,2024-09-07T08:33:34.899Z,82005,0.24505615,-0.87805176,0.20263672
1725698014944,2024-09-07T08:33:34.944Z,82050,0.28198242,-0.89019775,0.20709229
1725698014990,2024-09-07T08:33:34.990Z,82096,0.22930908,-0.8689575,0.19885254
1725698015034,2024-09-07T08:33:35.034Z,82140,0.2675171,-0.9673462,0.08270264
1725698015079,2024-09-07T08:33:35.079Z,82185,0.23431396,-0.9104004,0.012390137
1725698015103,2024-09-07T08:33:35.103Z,82209,0.1850586,-0.9846802,-0.017089844
1725698015121,2024-09-07T08:33:35.121Z,82227,0.2374878,-1.0122681,0.08520508
1725698015162,2024-09-07T08:33:35.162Z,82268,0.24310303,-0.95147705,0.15197754
1725698015216,2024-09-07T08:33:35.216Z,82322,0.31774902,-0.9310303,0.2234497
1725698015261,2024-09-07T08:33:35.261Z,82367,0.30474854,-0.8024292,0.17590332
1725698015304,2024-09-07T08:33:35.304Z,82410,0.2675171,-0.8701172,0.20446777
1725698015347,2024-09-07T08:33:35.347Z,82453,0.30303955,-0.8793335,0.19592285
1725698015390,2024-09-07T08:33:35.390Z,82496,0.2857666,-0.888855,0.1328125
1725698015437,2024-09-07T08:33:35.437Z,82543,0.36273193,-0.9094238,0.095703125
1725698015484,2024-09-07T08:33:35.484Z,82590,0.30133057,-0.86535645,0.09484863
1725698015509,2024-09-07T08:33:35.509Z,82615,0.33483887,-0.90649414,0.14501953
1725698015528,2024-09-07T08:33:35.528Z,82634,0.3026123,-0.8812256,0.1583252
1725698015577,2024-09-07T08:33:35.577Z,82683,0.2793579,-0.81622314,0.15539551
1725698015617,2024-09-07T08:33:35.617Z,82723,0.3477173,-0.89263916,0.18981934
1725698015663,2024-09-07T08:33:35.663Z,82769,0.32122803,-0.83795166,0.12902832
1725698015754,2024-09-07T08:33:35.754Z,82860,0.3961792,-0.8711548,0.18548584
1725698015777,2024-09-07T08:33:35.777Z,82883,0.3875122,-0.8464966,0.19689941
1725698015794,2024-09-07T08:33:35.794Z,82900,0.45758057,-0.8583374,0.19195557
1725698015839,2024-09-07T08:33:35.839Z,82945,0.39849854,-0.86383057,0.16314697
1725698015889,2024-09-07T08:33:35.889Z,82995,0.38360596,-0.85491943,0.115112305
1725698015910,2024-09-07T08:33:35.910Z,83016,0.38311768,-0.86901855,0.1550293
1725698015935,2024-09-07T08:33:35.935Z,83041,0.37091064,-0.8897705,0.18359375
1725698015975,2024-09-07T08:33:35.975Z,83081,0.34539795,-0.86743164,0.17468262
1725698016021,2024-09-07T08:33:36.021Z,83127,0.3746338,-0.84558105,0.17462158
1725698016073,2024-09-07T08:33:36.073Z,83179,0.39135742,-0.87127686,0.23547363
1725698016118,2024-09-07T08:33:36.118Z,83224,0.40795898,-0.862854,0.15222168
1725698016156,2024-09-07T08:33:36.156Z,83262,0.4159546,-0.8701172,0.16339111
1725698016203,2024-09-07T08:33:36.203Z,83309,0.41607666,-0.864563,0.13519287
1725698016250,2024-09-07T08:33:36.250Z,83356,0.40319824,-0.8845215,0.06225586
1725698016292,2024-09-07T08:33:36.292Z,83398,0.4121704,-0.9022217,0.13696289
1725698016339,2024-09-07T08:33:36.339Z,83445,0.37768555,-0.84173584,0.1921997
1725698016363,2024-09-07T08:33:36.363Z,83469,0.19000244,-0.77404785,0.2682495
1725698016382,2024-09-07T08:33:36.382Z,83488,0.27142334,-0.828125,0.40631104
1725698016422,2024-09-07T08:33:36.422Z,83528,0.3394165,-0.7616577,0.2944336
1725698016473,2024-09-07T08:33:36.473Z,83579,0.38494873,-0.8358154,0.10699463
1725698016521,2024-09-07T08:33:36.521Z,83627,0.37408447,-0.89642334,0.0072021484
1725698016562,2024-09-07T08:33:36.562Z,83668,0.36279297,-0.8043823,0.04937744
1725698016611,2024-09-07T08:33:36.611Z,83717,0.2767334,-0.8215332,0.17779541
1725698016656,2024-09-07T08:33:36.656Z,83762,0.21905518,-0.76586914,0.30291748
1725698016699,2024-09-07T08:33:36.699Z,83805,0.15270996,-0.8010254,0.19573975
1725698016747,2024-09-07T08:33:36.747Z,83853,0.24029541,-0.84521484,0.12805176
1725698016773,2024-09-07T08:33:36.773Z,83879,0.25152588,-0.81988525,0.02520752
1725698016794,2024-09-07T08:33:36.794Z,83900,0.2788086,-0.8150635,-0.13574219
1725698016830,2024-09-07T08:33:36.830Z,83936,0.22540283,-0.7774658,-0.111206055
1725698016876,2024-09-07T08:33:36.876Z,83982,0.13500977,-0.76678467,-0.008422852
1725698016923,2024-09-07T08:33:36.923Z,84029,0.18243408,-0.80218506,0.09429932
1725698016969,2024-09-07T08:33:36.969Z,84075,0.24261475,-0.81365967,0.03503418
1725698017012,2024-09-07T08:33:37.012Z,84118,0.24212646,-1.0302734,0.18157959
1725698017059,2024-09-07T08:33:37.059Z,84165,0.101989746,-0.8630371,0.11254883
1725698017102,2024-09-07T08:33:37.102Z,84208,0.24072266,-0.730896,0.13513184
1725698017146,2024-09-07T08:33:37.146Z,84252,0.28430176,-0.95495605,-0.077697754
1725698017166,2024-09-07T08:33:37.166Z,84272,0.3378296,-1.0245361,-0.0357666
1725698017189,2024-09-07T08:33:37.189Z,84295,0.2722168,-1.0305786,0.16925049
1725698017236,2024-09-07T08:33:37.236Z,84342,0.1977539,-0.91589355,0.33111572
1725698017284,2024-09-07T08:33:37.284Z,84390,0.29223633,-0.95336914,0.29138184
1725698017330,2024-09-07T08:33:37.330Z,84436,0.32647705,-1.0151367,0.40411377
1725698017376,2024-09-07T08:33:37.376Z,84482,0.20410156,-1.0794067,0.37249756
1725698017417,2024-09-07T08:33:37.417Z,84523,0.21105957,-1.0233154,0.34490967
1725698017462,2024-09-07T08:33:37.462Z,84568,0.487854,-0.9398804,0.4121704
1725698017511,2024-09-07T08:33:37.511Z,84617,0.62109375,-0.95721436,0.43884277
1725698017556,2024-09-07T08:33:37.556Z,84662,0.69122314,-0.90997314,0.43670654
1725698017598,2024-09-07T08:33:37.598Z,84704,0.47558594,-1.1230469,0.4570923
1725698017621,2024-09-07T08:33:37.621Z,84727,0.5895386,-0.9510498,0.5734863
1725698017644,2024-09-07T08:33:37.644Z,84750,0.5321045,-1.0606079,0.3737793
1725698017685,2024-09-07T08:33:37.685Z,84791,0.5217285,-0.963562,0.3883667
1725698017730,2024-09-07T08:33:37.730Z,84836,0.4022827,-0.99157715,0.35656738
1725698017778,2024-09-07T08:33:37.778Z,84884,0.47625732,-0.7244873,0.3791504
1725698017823,2024-09-07T08:33:37.823Z,84929,0.40826416,-0.8033447,0.38989258
1725698017867,2024-09-07T08:33:37.867Z,84973,0.32312012,-0.70336914,0.38739014
1725698017913,2024-09-07T08:33:37.913Z,85019,0.31506348,-0.7895508,0.33319092
1725698017958,2024-09-07T08:33:37.958Z,85064,0.46936035,-0.8564453,0.31188965
1725698018003,2024-09-07T08:33:38.003Z,85109,0.4055786,-0.84088135,0.3237915
1725698018025,2024-09-07T08:33:38.025Z,85131,0.3371582,-0.8689575,0.33654785
1725698018044,2024-09-07T08:33:38.044Z,85150,0.456604,-0.75097656,0.47955322
1725698018089,2024-09-07T08:33:38.089Z,85195,0.39056396,-0.9076538,0.4043579
1725698018139,2024-09-07T08:33:38.139Z,85245,0.42144775,-0.9423828,0.40753174
1725698018186,2024-09-07T08:33:38.186Z,85292,0.27850342,-0.9716797,0.15533447
1725698018229,2024-09-07T08:33:38.229Z,85335,0.5510864,-0.8084717,0.34155273
1725698018273,2024-09-07T08:33:38.273Z,85379,0.4520874,-0.7071533,0.26861572
1725698018322,2024-09-07T08:33:38.322Z,85428,0.38848877,-0.7842407,0.31811523
1725698018363,2024-09-07T08:33:38.363Z,85469,0.37823486,-0.96154785,0.43933105
1725698018408,2024-09-07T08:33:38.408Z,85514,0.2479248,-1.1137695,0.24560547
1725698018431,2024-09-07T08:33:38.431Z,85537,0.37060547,-0.8494873,0.13043213
1725698018452,2024-09-07T08:33:38.452Z,85558,0.3609619,-0.7036133,0.13720703
1725698018498,2024-09-07T08:33:38.498Z,85604,0.37957764,-0.9135132,0.3223877
1725698018543,2024-09-07T08:33:38.543Z,85649,0.28277588,-0.96258545,0.32019043
1725698018587,2024-09-07T08:33:38.587Z,85693,0.2479248,-0.92626953,0.22668457
1725698018634,2024-09-07T08:33:38.634Z,85740,0.29492188,-0.74090576,0.1404419
1725698018679,2024-09-07T08:33:38.679Z,85785,0.26263428,-0.9501953,0.12322998
1725698018723,2024-09-07T08:33:38.723Z,85829,0.2718506,-0.9069214,0.21429443
1725698018766,2024-09-07T08:33:38.766Z,85872,0.27178955,-0.9225464,0.2617798
1725698018813,2024-09-07T08:33:38.813Z,85919,0.23754883,-0.868103,0.2510376
1725698018857,2024-09-07T08:33:38.857Z,85963,0.24304199,-1.0892944,0.2411499
1725698018877,2024-09-07T08:33:38.877Z,85983,0.24798584,-0.90893555,0.1876831
1725698018898,2024-09-07T08:33:38.898Z,86004,0.3092041,-0.8019409,0.19683838
1725698018947,2024-09-07T08:33:38.947Z,86053,0.22607422,-0.87542725,0.18395996
1725698018995,2024-09-07T08:33:38.995Z,86101,0.24047852,-1.0376587,0.1743164
1725698019039,2024-09-07T08:33:39.039Z,86145,0.22692871,-0.98876953,0.18103027
1725698019131,2024-09-07T08:33:39.131Z,86237,0.2456665,-1.0140381,0.17999268
1725698019153,2024-09-07T08:33:39.153Z,86259,0.25494385,-0.8405762,0.20599365
1725698019173,2024-09-07T08:33:39.173Z,86279,0.15490723,-0.92907715,0.16864014
1725698019218,2024-09-07T08:33:39.218Z,86324,0.20031738,-0.8253784,0.19732666
1725698019262,2024-09-07T08:33:39.262Z,86368,0.23327637,-1.0632935,0.22912598
1725698019282,2024-09-07T08:33:39.282Z,86388,0.29052734,-1.0114136,0.16210938
1725698019304,2024-09-07T08:33:39.304Z,86410,0.16467285,-0.9661865,-0.0119018555
1725698019354,2024-09-07T08:33:39.354Z,86460,0.20245361,-0.8109741,0.15435791
1725698019396,2024-09-07T08:33:39.396Z,86502,0.03363037,-0.9515381,0.12451172
1725698019444,2024-09-07T08:33:39.444Z,86550,0.05505371,-0.9522705,0.22070312
1725698019490,2024-09-07T08:33:39.490Z,86596,0.23327637,-0.86950684,0.15032959
1725698019534,2024-09-07T08:33:39.534Z,86640,0.3283081,-0.9937744,0.17779541
1725698019579,2024-09-07T08:33:39.579Z,86685,0.1784668,-0.9685669,0.10986328
1725698019625,2024-09-07T08:33:39.625Z,86731,0.10998535,-1.0131226,0.0871582
1725698019665,2024-09-07T08:33:39.665Z,86771,0.18383789,-0.8955078,0.10040283
1725698019685,2024-09-07T08:33:39.685Z,86791,0.24700928,-0.92803955,0.16662598
1725698019709,2024-09-07T08:33:39.709Z,86815,0.21447754,-1.111145,0.19116211
1725698019756,2024-09-07T08:33:39.756Z,86862,0.2133789,-0.9562988,0.070739746
1725698019801,2024-09-07T08:33:39.801Z,86907,0.12542725,-0.8519287,0.0435791
1725698019847,2024-09-07T08:33:39.847Z,86953,0.12561035,-0.80651855,0.07873535
1725698019895,2024-09-07T08:33:39.895Z,87001,0.09643555,-0.85339355,0.1675415
1725698019938,2024-09-07T08:33:39.938Z,87044,0.12683105,-0.94226074,0.16992188
1725698019991,2024-09-07T08:33:39.991Z,87097,0.19885254,-0.9729004,0.1408081
1725698020025,2024-09-07T08:33:40.025Z,87131,0.2630005,-0.925354,0.06628418
1725698020073,2024-09-07T08:33:40.073Z,87179,0.22314453,-0.85076904,0.021728516
1725698020119,2024-09-07T08:33:40.119Z,87225,0.16748047,-0.91516113,0.07702637
1725698020145,2024-09-07T08:33:40.145Z,87251,0.2514038,-1.2230835,0.17523193
1725698020164,2024-09-07T08:33:40.164Z,87270,0.284729,-0.95477295,0.12390137
1725698020206,2024-09-07T08:33:40.206Z,87312,0.31970215,-0.87597656,0.05706787
1725698020264,2024-09-07T08:33:40.264Z,87370,0.20343018,-0.93341064,0.17486572
1725698020299,2024-09-07T08:33:40.299Z,87405,0.2000122,-0.97454834,0.21380615
1725698020344,2024-09-07T08:33:40.344Z,87450,0.13635254,-0.82647705,0.13726807
1725698020388,2024-09-07T08:33:40.388Z,87494,0.24499512,-0.9121094,0.10095215
1725698020434,2024-09-07T08:33:40.434Z,87540,0.24243164,-0.89886475,0.11260986
1725698020480,2024-09-07T08:33:40.480Z,87586,0.29040527,-0.9804077,0.112976074
1725698020526,2024-09-07T08:33:40.526Z,87632,0.29644775,-0.9429321,0.061340332
1725698020549,2024-09-07T08:33:40.549Z,87655,0.28399658,-0.88879395,0.042541504
1725698020576,2024-09-07T08:33:40.576Z,87682,0.2765503,-0.9128418,0.087768555
1725698020614,2024-09-07T08:33:40.614Z,87720,0.2619629,-0.9477539,0.15661621
1725698020656,2024-09-07T08:33:40.656Z,87762,0.28216553,-0.90875244,0.13580322
1725698020703,2024-09-07T08:33:40.703Z,87809,0.2824707,-0.8765869,0.11407471
1725698020750,2024-09-07T08:33:40.750Z,87856,0.25238037,-0.8978882,0.09881592
1725698020797,2024-09-07T08:33:40.797Z,87903,0.28240967,-0.9071655,0.09295654
1725698020840,2024-09-07T08:33:40.840Z,87946,0.29736328,-0.899353,0.12567139
1725698020884,2024-09-07T08:33:40.884Z,87990,0.36535645,-0.9279785,0.09875488
1725698020928,2024-09-07T08:33:40.928Z,88034,0.37036133,-0.9078369,0.12835693
1725698020949,2024-09-07T08:33:40.949Z,88055,0.3743286,-0.8912964,0.1239624
1725698020971,2024-09-07T08:33:40.971Z,88077,0.35614014,-0.87890625,0.16699219
1725698021017,2024-09-07T08:33:41.017Z,88123,0.3552246,-0.88446045,0.1484375
1725698021065,2024-09-07T08:33:41.065Z,88171,0.30584717,-0.8571167,0.13348389
1725698021109,2024-09-07T08:33:41.109Z,88215,0.33135986,-0.8756714,0.1237793
1725698021155,2024-09-07T08:33:41.155Z,88261,0.36499023,-0.87677,0.12939453
1725698021198,2024-09-07T08:33:41.198Z,88304,0.3585205,-0.8652954,0.14996338
1725698021242,2024-09-07T08:33:41.242Z,88348,0.36547852,-0.8795166,0.16558838
1725698021289,2024-09-07T08:33:41.289Z,88395,0.39245605,-0.888855,0.14715576
1725698021332,2024-09-07T08:33:41.332Z,88438,0.4298706,-0.868103,0.1541748
1725698021349,2024-09-07T08:33:41.349Z,88455,0.33459473,-0.8689575,0.099243164
1725698021386,2024-09-07T08:33:41.386Z,88492,0.35614014,-0.8685303,0.13873291
1725698021420,2024-09-07T08:33:41.420Z,88526,0.41589355,-0.87615967,0.14349365
1725698021466,2024-09-07T08:33:41.466Z,88572,0.3774414,-0.86273193,0.10144043
1725698021512,2024-09-07T08:33:41.512Z,88618,0.42907715,-0.8997803,0.16107178
1725698021558,2024-09-07T08:33:41.558Z,88664,0.3937378,-0.9154053,0.16314697
1725698021604,2024-09-07T08:33:41.604Z,88710,0.36572266,-0.8685303,0.1494751
1725698021646,2024-09-07T08:33:41.646Z,88752,0.37823486,-0.8406372,0.23834229
1725698021692,2024-09-07T08:33:41.692Z,88798,0.3328247,-0.9025879,0.2617798
1725698021738,2024-09-07T08:33:41.738Z,88844,0.29522705,-0.8256836,0.20019531
1725698021783,2024-09-07T08:33:41.783Z,88889,0.32958984,-0.83673096,0.1529541
1725698021806,2024-09-07T08:33:41.806Z,88912,0.29974365,-0.864563,0.15515137
1725698021824,2024-09-07T08:33:41.824Z,88930,0.24694824,-0.7819824,0.14318848
1725698021872,2024-09-07T08:33:41.872Z,88978,0.37304688,-0.90319824,0.140625
1725698021917,2024-09-07T08:33:41.917Z,89023,0.35168457,-0.9222412,0.15264893
1725698021965,2024-09-07T08:33:41.965Z,89071,0.3104248,-0.90148926,0.04638672
1725698022009,2024-09-07T08:33:42.009Z,89115,0.2857666,-0.9224243,0.13342285
1725698022054,2024-09-07T08:33:42.054Z,89160,0.32043457,-0.8352051,0.17614746
1725698022096,2024-09-07T08:33:42.096Z,89202,0.25299072,-0.7984009,0.1428833
1725698022144,2024-09-07T08:33:42.144Z,89250,0.24084473,-0.82110596,0.11590576
1725698022188,2024-09-07T08:33:42.188Z,89294,0.12249756,-0.86590576,0.03930664
1725698022211,2024-09-07T08:33:42.211Z,89317,0.21252441,-0.9397583,0.021118164
1725698022233,2024-09-07T08:33:42.233Z,89339,0.2489624,-0.8275757,-0.07672119
1725698022277,2024-09-07T08:33:42.277Z,89383,0.21002197,-0.8029785,-0.0087890625
1725698022323,2024-09-07T08:33:42.323Z,89429,0.13586426,-0.8312378,0.025939941
1725698022369,2024-09-07T08:33:42.369Z,89475,0.1083374,-0.8273926,0.13116455
1725698022416,2024-09-07T08:33:42.416Z,89522,0.21936035,-0.9088135,0.30194092
1725698022462,2024-09-07T08:33:42.462Z,89568,0.20471191,-0.8580322,0.21276855
1725698022504,2024-09-07T08:33:42.504Z,89610,0.12347412,-0.88793945,-0.105407715
1725698022549,2024-09-07T08:33:42.549Z,89655,0.14880371,-1.0544434,-0.11303711
1725698022591,2024-09-07T08:33:42.591Z,89697,0.08947754,-0.9765625,0.008728027
1725698022612,2024-09-07T08:33:42.612Z,89718,0.111083984,-0.84051514,0.255188
1725698022636,2024-09-07T08:33:42.636Z,89742,0.09613037,-0.85180664,0.30749512
1725698022684,2024-09-07T08:33:42.684Z,89790,0.18804932,-1.0582275,0.101501465
1725698022728,2024-09-07T08:33:42.728Z,89834,0.17565918,-0.9961548,0.055541992
1725698022773,2024-09-07T08:33:42.773Z,89879,0.14715576,-0.89642334,0.11071777
1725698022819,2024-09-07T08:33:42.819Z,89925,0.12579346,-0.90112305,0.12207031
1725698022862,2024-09-07T08:33:42.862Z,89968,0.19506836,-0.9085083,0.2901001
1725698022908,2024-09-07T08:33:42.908Z,90014,0.11376953,-0.8503418,0.18597412
1725698022957,2024-09-07T08:33:42.957Z,90063,0.19714355,-0.9175415,0.0803833
1725698023001,2024-09-07T08:33:43.001Z,90107,0.32562256,-1.0089111,0.14562988
1725698023046,2024-09-07T08:33:43.046Z,90152,0.22906494,-0.9904785,0.27856445
1725698023069,2024-09-07T08:33:43.069Z,90175,0.30145264,-1.0059204,0.25854492
1725698023090,2024-09-07T08:33:43.090Z,90196,0.36724854,-0.95648193,0.5241699
1725698023129,2024-09-07T08:33:43.129Z,90235,0.46588135,-1.2080688,0.6321411
1725698023177,2024-09-07T08:33:43.177Z,90283,0.6312866,-1.0115356,0.68426514
1725698023225,2024-09-07T08:33:43.225Z,90331,0.5952759,-1.057373,0.4951172
1725698023270,2024-09-07T08:33:43.270Z,90376,0.493042,-0.958374,0.36071777
1725698023315,2024-09-07T08:33:43.315Z,90421,0.44506836,-0.9766846,0.43469238
1725698023363,2024-09-07T08:33:43.363Z,90469,0.39727783,-0.88830566,0.49493408
1725698023404,2024-09-07T08:33:43.404Z,90510,0.25439453,-0.852417,0.20843506
1725698023452,2024-09-07T08:33:43.452Z,90558,0.32684326,-0.7897949,0.29022217
1725698023474,2024-09-07T08:33:43.474Z,90580,0.4230957,-0.9016113,0.46813965
1725698023494,2024-09-07T08:33:43.494Z,90600,0.39996338,-0.8977661,0.40386963
1725698023535,2024-09-07T08:33:43.535Z,90641,0.28527832,-0.9680786,0.26690674
1725698023584,2024-09-07T08:33:43.584Z,90690,0.41253662,-0.8425293,0.32977295
1725698023628,2024-09-07T08:33:43.628Z,90734,0.41662598,-0.84472656,0.37609863
1725698023673,2024-09-07T08:33:43.673Z,90779,0.27941895,-0.9460449,0.25836182
1725698023718,2024-09-07T08:33:43.718Z,90824,0.37109375,-0.7954712,0.3121338
1725698023766,2024-09-07T08:33:43.766Z,90872,0.34753418,-0.8711548,0.40856934
1725698023809,2024-09-07T08:33:43.809Z,90915,0.36584473,-0.7739258,0.3772583
1725698023855,2024-09-07T08:33:43.855Z,90961,0.30828857,-0.9038086,0.29058838
1725698023878,2024-09-07T08:33:43.878Z,90984,0.29284668,-0.89819336,0.24725342
1725698023900,2024-09-07T08:33:43.900Z,91006,0.255188,-0.93048096,0.25006104
1725698023941,2024-09-07T08:33:43.941Z,91047,0.3460083,-1.0613403,0.35131836
1725698023987,2024-09-07T08:33:43.987Z,91093,0.4091797,-0.93096924,0.20166016
1725698024032,2024-09-07T08:33:44.032Z,91138,0.30151367,-0.7914429,0.20532227
1725698024081,2024-09-07T08:33:44.081Z,91187,0.3348999,-0.88653564,0.22436523
1725698024124,2024-09-07T08:33:44.124Z,91230,0.19354248,-0.80584717,0.17022705
1725698024169,2024-09-07T08:33:44.169Z,91275,0.23260498,-0.989563,0.1461792
1725698024217,2024-09-07T08:33:44.217Z,91323,0.19464111,-0.8249512,0.13702393
1725698024260,2024-09-07T08:33:44.260Z,91366,0.25476074,-0.89764404,0.27038574
1725698024306,2024-09-07T08:33:44.306Z,91412,0.3262329,-0.9482422,0.31011963
1725698024333,2024-09-07T08:33:44.333Z,91439,0.23480225,-0.9393921,0.2654419
1725698024354,2024-09-07T08:33:44.354Z,91460,0.30371094,-1.0089111,0.27893066
1725698024391,2024-09-07T08:33:44.391Z,91497,0.27667236,-0.8988037,0.2119751
1725698024438,2024-09-07T08:33:44.438Z,91544,0.16107178,-0.94641113,0.08026123
1725698024486,2024-09-07T08:33:44.486Z,91592,0.21862793,-0.93792725,0.12530518
1725698024528,2024-09-07T08:33:44.528Z,91634,0.18878174,-0.96813965,0.140625
1725698024577,2024-09-07T08:33:44.577Z,91683,0.14709473,-0.94366455,0.23327637
1725698024621,2024-09-07T08:33:44.621Z,91727,0.13830566,-0.9397583,0.18737793
1725698024664,2024-09-07T08:33:44.664Z,91770,0.18865967,-0.8841553,0.23199463
1725698024707,2024-09-07T08:33:44.707Z,91813,0.18884277,-0.89501953,0.12719727
1725698024728,2024-09-07T08:33:44.728Z,91834,0.12786865,-0.94885254,0.06726074
1725698024750,2024-09-07T08:33:44.750Z,91856,0.08929443,-1.076294,0.062438965
1725698024798,2024-09-07T08:33:44.798Z,91904,0.048461914,-1.098877,0.09954834
1725698024844,2024-09-07T08:33:44.844Z,91950,0.23266602,-0.96325684,0.17584229
1725698024888,2024-09-07T08:33:44.888Z,91994,0.18560791,-0.75927734,0.14672852
1725698024933,2024-09-07T08:33:44.933Z,92039,0.15112305,-0.87402344,0.1482544
1725698024979,2024-09-07T08:33:44.979Z,92085,0.07312012,-1.0059814,0.14556885
1725698025023,2024-09-07T08:33:45.023Z,92129,0.1104126,-1.0836182,0.1694336
1725698025068,2024-09-07T08:33:45.068Z,92174,0.20037842,-1.0023193,0.1616211
1725698025116,2024-09-07T08:33:45.116Z,92222,0.19476318,-0.81414795,0.10858154
1725698025140,2024-09-07T08:33:45.140Z,92246,0.12768555,-0.97717285,0.09588623
1725698025162,2024-09-07T08:33:45.162Z,92268,0.1182251,-0.95751953,0.1774292
1725698025201,2024-09-07T08:33:45.201Z,92307,0.14324951,-0.97229004,0.12182617
1725698025247,2024-09-07T08:33:45.247Z,92353,0.16479492,-0.9217529,0.15704346
1725698025293,2024-09-07T08:33:45.293Z,92399,0.13494873,-0.92352295,0.0657959
1725698025338,2024-09-07T08:33:45.338Z,92444,0.04095459,-0.9901123,0.0970459
1725698025382,2024-09-07T08:33:45.382Z,92488,0.16833496,-0.99798584,0.17999268
1725698025474,2024-09-07T08:33:45.474Z,92580,0.16174316,-0.9086914,0.15045166
1725698025497,2024-09-07T08:33:45.497Z,92603,0.1560669,-0.9454956,0.17028809
1725698025518,2024-09-07T08:33:45.518Z,92624,0.13574219,-0.9491577,0.076049805
1725698025578,2024-09-07T08:33:45.578Z,92684,0.14416504,-0.97772217,0.11462402
1725698025597,2024-09-07T08:33:45.597Z,92703,0.17150879,-0.8792114,0.09161377
1725698025625,2024-09-07T08:33:45.625Z,92731,0.16186523,-0.9613037,0.095214844
1725698025655,2024-09-07T08:33:45.655Z,92761,0.16381836,-0.9814453,0.17565918
1725698025699,2024-09-07T08:33:45.699Z,92805,0.20794678,-0.9958496,0.17352295
1725698025744,2024-09-07T08:33:45.744Z,92850,0.20953369,-0.9442749,0.14501953
1725698025791,2024-09-07T08:33:45.791Z,92897,0.18157959,-0.8800049,0.109375
1725698025831,2024-09-07T08:33:45.831Z,92937,0.14886475,-0.9960327,0.04736328
1725698025878,2024-09-07T08:33:45.878Z,92984,0.1984253,-1.0172119,0.09655762
1725698025926,2024-09-07T08:33:45.926Z,93032,0.25604248,-0.92144775,0.06896973
1725698025966,2024-09-07T08:33:45.966Z,93072,0.26159668,-0.90911865,0.07165527
1725698025989,2024-09-07T08:33:45.989Z,93095,0.14874268,-0.8621826,0.05999756
1725698026016,2024-09-07T08:33:46.016Z,93122,0.19250488,-0.8563843,0.082214355
1725698026057,2024-09-07T08:33:46.057Z,93163,0.18951416,-0.95721436,0.1531372
1725698026106,2024-09-07T08:33:46.106Z,93212,0.27923584,-0.94677734,0.12774658
1725698026149,2024-09-07T08:33:46.149Z,93255,0.31524658,-0.8764038,0.13067627
1725698026193,2024-09-07T08:33:46.193Z,93299,0.30041504,-0.91522217,0.08135986
1725698026245,2024-09-07T08:33:46.245Z,93351,0.26275635,-0.8956299,0.103271484
1725698026281,2024-09-07T08:33:46.281Z,93387,0.24987793,-0.91015625,0.107421875
1725698026329,2024-09-07T08:33:46.329Z,93435,0.2388916,-0.9220581,0.15142822
1725698026377,2024-09-07T08:33:46.377Z,93483,0.25512695,-0.92614746,0.12084961
1725698026398,2024-09-07T08:33:46.398Z,93504,0.30621338,-0.89538574,0.068481445
1725698026416,2024-09-07T08:33:46.416Z,93522,0.3605957,-0.8843384,0.07800293
1725698026461,2024-09-07T08:33:46.461Z,93567,0.3480835,-0.90374756,0.12945557
1725698026508,2024-09-07T08:33:46.508Z,93614,0.32183838,-0.89990234,0.13415527
1725698026555,2024-09-07T08:33:46.555Z,93661,0.34228516,-0.9024658,0.16912842
1725698026600,2024-09-07T08:33:46.600Z,93706,0.3274536,-0.92596436,0.15240479
1725698026645,2024-09-07T08:33:46.645Z,93751,0.31176758,-0.88604736,0.15734863
1725698026689,2024-09-07T08:33:46.689Z,93795,0.33148193,-0.8721924,0.1583252
1725698026735,2024-09-07T08:33:46.735Z,93841,0.3248291,-0.87316895,0.16571045
1725698026782,2024-09-07T08:33:46.782Z,93888,0.36273193,-0.901062,0.1496582
1725698026825,2024-09-07T08:33:46.825Z,93931,0.35253906,-0.9220581,0.111816406
1725698026848,2024-09-07T08:33:46.848Z,93954,0.3173828,-0.8937378,0.031433105
1725698026872,2024-09-07T08:33:46.872Z,93978,0.35913086,-0.876709,0.07122803
1725698026911,2024-09-07T08:33:46.911Z,94017,0.37805176,-0.88848877,0.045288086
1725698026962,2024-09-07T08:33:46.962Z,94068,0.36608887,-0.8984375,0.06774902
1725698027006,2024-09-07T08:33:47.006Z,94112,0.383667,-0.8970337,0.07672119
1725698027052,2024-09-07T08:33:47.052Z,94158,0.37304688,-0.8798828,0.07055664
1725698027095,2024-09-07T08:33:47.095Z,94201,0.3572998,-0.8765869,0.0814209
1725698027137,2024-09-07T08:33:47.137Z,94243,0.36273193,-0.8823242,0.12414551
1725698027184,2024-09-07T08:33:47.184Z,94290,0.38861084,-0.89849854,0.08831787
1725698027232,2024-09-07T08:33:47.232Z,94338,0.37945557,-0.89086914,0.07733154
1725698027260,2024-09-07T08:33:47.260Z,94366,0.3944702,-0.9008789,0.055419922
1725698027277,2024-09-07T08:33:47.277Z,94383,0.3899536,-0.90966797,0.06097412
1725698027315,2024-09-07T08:33:47.315Z,94421,0.35009766,-0.8959961,0.050109863
1725698027363,2024-09-07T08:33:47.363Z,94469,0.3668213,-0.91174316,0.079833984
1725698027406,2024-09-07T08:33:47.406Z,94512,0.33850098,-0.85809326,0.14538574
1725698027455,2024-09-07T08:33:47.455Z,94561,0.31774902,-0.8580322,0.23944092
1725698027500,2024-09-07T08:33:47.500Z,94606,0.26055908,-0.88812256,0.23712158
1725698027550,2024-09-07T08:33:47.550Z,94656,0.2913208,-0.8964844,0.1239624
1725698027586,2024-09-07T08:33:47.586Z,94692,0.4144287,-0.8760376,0.016845703
1725698027632,2024-09-07T08:33:47.632Z,94738,0.39398193,-0.9215698,-0.017944336
1725698027652,2024-09-07T08:33:47.652Z,94758,0.22894287,-0.8434448,0.0769043
1725698027676,2024-09-07T08:33:47.676Z,94782,0.18963623,-0.8284912,0.1665039
1725698027722,2024-09-07T08:33:47.722Z,94828,0.17901611,-0.81292725,0.16900635
1725698027768,2024-09-07T08:33:47.768Z,94874,0.27178955,-0.9394531,0.1104126
1725698027815,2024-09-07T08:33:47.815Z,94921,0.2446289,-0.89959717,0.0126953125
1725698027861,2024-09-07T08:33:47.861Z,94967,0.26171875,-0.91137695,-0.009399414
1725698027902,2024-09-07T08:33:47.902Z,95008,0.22015381,-0.8915405,0.013366699
1725698027948,2024-09-07T08:33:47.948Z,95054,0.23638916,-0.94799805,0.059143066
1725698027995,2024-09-07T08:33:47.995Z,95101,0.2526245,-0.9346924,0.071899414
1725698028038,2024-09-07T08:33:48.038Z,95144,0.22943115,-0.8723755,0.054504395
1725698028084,2024-09-07T08:33:48.084Z,95190,0.11920166,-0.86724854,0.020446777
1725698028110,2024-09-07T08:33:48.110Z,95216,0.105285645,-0.8666382,0.055236816
1725698028138,2024-09-07T08:33:48.138Z,95244,0.16625977,-0.79577637,0.07891846
1725698028170,2024-09-07T08:33:48.170Z,95276,0.11425781,-0.8918457,0.12805176
1725698028217,2024-09-07T08:33:48.217Z,95323,0.13470459,-0.9610596,0.07867432
1725698028265,2024-09-07T08:33:48.265Z,95371,0.18249512,-0.8671875,0.09277344
1725698028309,2024-09-07T08:33:48.309Z,95415,0.10357666,-0.87390137,0.08905029
1725698028353,2024-09-07T08:33:48.353Z,95459,0.12249756,-0.96502686,0.05029297
1725698028400,2024-09-07T08:33:48.400Z,95506,0.18005371,-0.9874878,0.21862793
1725698028447,2024-09-07T08:33:48.447Z,95553,0.16143799,-0.98046875,0.17425537
1725698028489,2024-09-07T08:33:48.489Z,95595,0.13311768,-0.9605713,0.058532715
1725698028513,2024-09-07T08:33:48.513Z,95619,0.19787598,-0.8833008,0.25671387
1725698028534,2024-09-07T08:33:48.534Z,95640,0.22845459,-0.93566895,0.3008423
1725698028578,2024-09-07T08:33:48.578Z,95684,0.08483887,-0.8753662,0.11505127
1725698028624,2024-09-07T08:33:48.624Z,95730,0.11907959,-1.0113525,0.10632324
1725698028668,2024-09-07T08:33:48.668Z,95774,0.1697998,-0.9636841,0.028625488
1725698028713,2024-09-07T08:33:48.713Z,95819,0.09094238,-0.9019165,0.0345459
1725698028760,2024-09-07T08:33:48.760Z,95866,0.19683838,-0.8123169,0.21191406
1725698028805,2024-09-07T08:33:48.805Z,95911,0.2538452,-0.9449463,0.46295166
1725698028851,2024-09-07T08:33:48.851Z,95957,0.4072876,-1.0765381,0.3782959
1725698028898,2024-09-07T08:33:48.898Z,96004,0.1864624,-0.9640503,0.06011963
1725698028921,2024-09-07T08:33:48.921Z,96027,0.2144165,-0.993042,0.31207275
1725698028942,2024-09-07T08:33:48.942Z,96048,0.27667236,-0.9718628,0.41290283
1725698028981,2024-09-07T08:33:48.981Z,96087,0.28875732,-1.1016846,0.37121582
1725698029026,2024-09-07T08:33:49.026Z,96132,0.40960693,-0.94836426,0.37530518
1725698029073,2024-09-07T08:33:49.073Z,96179,0.50598145,-0.961853,0.5206909
1725698029118,2024-09-07T08:33:49.118Z,96224,0.49743652,-0.9558716,0.61865234
1725698029166,2024-09-07T08:33:49.166Z,96272,0.38330078,-0.8562622,0.45098877
1725698029207,2024-09-07T08:33:49.207Z,96313,0.3918457,-0.8980713,0.51153564
1725698029257,2024-09-07T08:33:49.257Z,96363,0.43273926,-0.9473877,0.46569824
1725698029299,2024-09-07T08:33:49.299Z,96405,0.42614746,-0.8474121,0.32666016
1725698029343,2024-09-07T08:33:49.343Z,96449,0.32318115,-0.81396484,0.3189087
1725698029360,2024-09-07T08:33:49.360Z,96466,0.34851074,-0.71087646,0.37908936
1725698029385,2024-09-07T08:33:49.385Z,96491,0.26104736,-0.88134766,0.43688965
1725698029432,2024-09-07T08:33:49.432Z,96538,0.39715576,-0.77124023,0.50305176
1725698029480,2024-09-07T08:33:49.480Z,96586,0.4463501,-0.84814453,0.47424316
1725698029526,2024-09-07T08:33:49.526Z,96632,0.40283203,-0.8288574,0.45806885
1725698029570,2024-09-07T08:33:49.570Z,96676,0.35913086,-0.9589844,0.47003174
1725698029623,2024-09-07T08:33:49.623Z,96729,0.37994385,-0.9310913,0.41131592
1725698029657,2024-09-07T08:33:49.657Z,96763,0.2836914,-0.8779907,0.3289795
1725698029702,2024-09-07T08:33:49.702Z,96808,0.43017578,-0.89178467,0.44586182
1725698029749,2024-09-07T08:33:49.749Z,96855,0.4076538,-0.91052246,0.46350098
1725698029770,2024-09-07T08:33:49.770Z,96876,0.3965454,-0.888855,0.3963623
1725698029788,2024-09-07T08:33:49.788Z,96894,0.24645996,-0.8374634,0.27386475
1725698029837,2024-09-07T08:33:49.837Z,96943,0.23822021,-0.8344116,0.28527832
1725698029882,2024-09-07T08:33:49.882Z,96988,0.23699951,-0.9585571,0.17425537
1725698029926,2024-09-07T08:33:49.926Z,97032,0.25976562,-1.0673218,0.19671631
1725698029972,2024-09-07T08:33:49.972Z,97078,0.29388428,-0.9312744,0.08477783
1725698030020,2024-09-07T08:33:50.020Z,97126,0.20379639,-0.82263184,0.16082764
1725698030064,2024-09-07T08:33:50.064Z,97170,0.2376709,-0.8648071,0.23565674
1725698030109,2024-09-07T08:33:50.109Z,97215,0.20819092,-0.7491455,0.3723755
1725698030157,2024-09-07T08:33:50.157Z,97263,0.18652344,-0.94366455,0.30944824
1725698030180,2024-09-07T08:33:50.180Z,97286,0.19781494,-1.0115356,0.26293945
1725698030200,2024-09-07T08:33:50.200Z,97306,0.24951172,-0.9772339,0.2999878
1725698030241,2024-09-07T08:33:50.241Z,97347,0.27087402,-0.9006958,0.22735596
1725698030288,2024-09-07T08:33:50.288Z,97394,0.23565674,-0.786499,0.17004395
1725698030332,2024-09-07T08:33:50.332Z,97438,0.17181396,-1.0709839,0.13934326
1725698030377,2024-09-07T08:33:50.377Z,97483,0.13098145,-1.0155029,0.18365479
1725698030422,2024-09-07T08:33:50.422Z,97528,0.19641113,-0.9370117,0.19769287
1725698030469,2024-09-07T08:33:50.469Z,97575,0.19873047,-0.8796997,0.265625
1725698030512,2024-09-07T08:33:50.512Z,97618,0.1795044,-0.9613037,0.13769531
1725698030559,2024-09-07T08:33:50.559Z,97665,0.16680908,-1.0286255,0.13391113
1725698030606,2024-09-07T08:33:50.606Z,97712,0.18658447,-1.0004883,0.13348389
1725698030632,2024-09-07T08:33:50.632Z,97738,0.10394287,-1.045105,0.2008667
1725698030691,2024-09-07T08:33:50.691Z,97797,0.17822266,-0.93414307,0.34344482
1725698030709,2024-09-07T08:33:50.709Z,97815,0.018798828,-0.84069824,0.29486084
1725698030737,2024-09-07T08:33:50.737Z,97843,0.05718994,-0.80114746,0.17926025
1725698030785,2024-09-07T08:33:50.785Z,97891,0.08874512,-0.94628906,0.0061035156
1725698030827,2024-09-07T08:33:50.827Z,97933,0.09277344,-1.0065918,0.024658203
1725698030874,2024-09-07T08:33:50.874Z,97980,0.099243164,-1.0772095,0.005126953
1725698030919,2024-09-07T08:33:50.919Z,98025,0.12213135,-0.96484375,0.11151123
1725698030960,2024-09-07T08:33:50.960Z,98066,0.24230957,-0.9213867,0.09490967
1725698031009,2024-09-07T08:33:51.009Z,98115,0.1906128,-0.8557129,0.11993408
1725698031030,2024-09-07T08:33:51.030Z,98136,0.17681885,-0.96466064,0.16137695
1725698031054,2024-09-07T08:33:51.054Z,98160,0.12384033,-1.0,0.1531372
1725698031096,2024-09-07T08:33:51.096Z,98202,0.15228271,-0.9725952,0.14379883
1725698031142,2024-09-07T08:33:51.142Z,98248,0.07232666,-0.8876953,0.14727783
1725698031187,2024-09-07T08:33:51.187Z,98293,0.103881836,-1.0264893,0.16998291
1725698031233,2024-09-07T08:33:51.233Z,98339,0.14245605,-0.83532715,0.19458008
1725698031278,2024-09-07T08:33:51.278Z,98384,0.24206543,-0.8079834,0.115356445
1725698031326,2024-09-07T08:33:51.326Z,98432,0.16369629,-0.89923096,0.09387207
1725698031369,2024-09-07T08:33:51.369Z,98475,0.12689209,-1.112915,0.07922363
1725698031416,2024-09-07T08:33:51.416Z,98522,0.15447998,-0.9688721,0.10070801
1725698031435,2024-09-07T08:33:51.435Z,98541,0.22399902,-0.8968506,0.08605957
1725698031457,2024-09-07T08:33:51.457Z,98563,0.22253418,-0.89434814,0.12176514
1725698031501,2024-09-07T08:33:51.501Z,98607,0.20959473,-0.9859619,0.1472168
1725698031547,2024-09-07T08:33:51.547Z,98653,0.19451904,-0.91656494,0.19604492
1725698031588,2024-09-07T08:33:51.588Z,98694,0.2164917,-0.9024048,0.16113281
1725698031637,2024-09-07T08:33:51.637Z,98743,0.2154541,-0.9238281,0.09472656
1725698031680,2024-09-07T08:33:51.680Z,98786,0.19866943,-0.9250488,0.10675049
1725698031723,2024-09-07T08:33:51.723Z,98829,0.26452637,-0.96069336,0.059020996
1725698031783,2024-09-07T08:33:51.783Z,98889,0.27960205,-0.89276123,0.088256836
1725698031817,2024-09-07T08:33:51.817Z,98923,0.25219727,-0.9008789,0.15551758
1725698031861,2024-09-07T08:33:51.861Z,98967,0.21868896,-0.94555664,0.21887207
1725698031878,2024-09-07T08:33:51.878Z,98984,0.23358154,-0.9020996,0.20391846
1725698031905,2024-09-07T08:33:51.905Z,99011,0.2541504,-0.8637085,0.1519165
1725698031951,2024-09-07T08:33:51.951Z,99057,0.2678833,-0.8746338,0.07989502
1725698031997,2024-09-07T08:33:51.997Z,99103,0.27850342,-0.916626,0.06695557
1725698032043,2024-09-07T08:33:52.043Z,99149,0.31610107,-0.942688,0.076049805
1725698032089,2024-09-07T08:33:52.089Z,99195,0.26708984,-0.8773804,0.0637207
1725698032135,2024-09-07T08:33:52.135Z,99241,0.33624268,-0.9188843,0.14074707
1725698032180,2024-09-07T08:33:52.180Z,99286,0.31420898,-0.8963623,0.1473999
1725698032223,2024-09-07T08:33:52.223Z,99329,0.30560303,-0.90966797,0.2163086
1725698032267,2024-09-07T08:33:52.267Z,99373,0.35272217,-0.9036865,0.18518066
1725698032285,2024-09-07T08:33:52.285Z,99391,0.29522705,-0.93743896,0.10870361
1725698032309,2024-09-07T08:33:52.309Z,99415,0.3013916,-0.8712158,0.057128906
1725698032357,2024-09-07T08:33:52.357Z,99463,0.37408447,-0.87615967,0.120666504
1725698032400,2024-09-07T08:33:52.400Z,99506,0.30285645,-0.8885498,0.17944336
1725698032448,2024-09-07T08:33:52.448Z,99554,0.26367188,-0.8936157,0.19726562
1725698032498,2024-09-07T08:33:52.498Z,99604,0.28466797,-0.8927002,0.18151855
1725698032537,2024-09-07T08:33:52.537Z,99643,0.33258057,-0.9371948,0.082336426
1725698032580,2024-09-07T08:33:52.580Z,99686,0.39282227,-0.94329834,0.064697266
1725698032629,2024-09-07T08:33:52.629Z,99735,0.3770752,-0.8902588,0.054260254
1725698032677,2024-09-07T08:33:52.677Z,99783,0.36413574,-0.90411377,0.1461792
1725698032700,2024-09-07T08:33:52.700Z,99806,0.30651855,-0.8590698,0.101745605
1725698032720,2024-09-07T08:33:52.720Z,99826,0.35003662,-0.9024048,0.128479
1725698032761,2024-09-07T08:33:52.761Z,99867,0.3809204,-0.8947754,0.082214355
1725698032808,2024-09-07T08:33:52.808Z,99914,0.3590088,-0.8942261,0.07354736
1725698032854,2024-09-07T08:33:52.854Z,99960,0.37628174,-0.8739624,0.07208252
1725698032900,2024-09-07T08:33:52.900Z,100006,0.3857422,-0.88812256,0.07305908
1725698032943,2024-09-07T08:33:52.943Z,100049,0.34765625,-0.8800049,0.107788086
1725698032989,2024-09-07T08:33:52.989Z,100095,0.37322998,-0.895813,0.11071777
1725698033034,2024-09-07T08:33:53.034Z,100140,0.36553955,-0.87908936,0.11425781
1725698033082,2024-09-07T08:33:53.082Z,100188,0.3875122,-0.8909302,0.11364746
1725698033125,2024-09-07T08:33:53.125Z,100231,0.3737793,-0.88409424,0.06359863
1725698033148,2024-09-07T08:33:53.148Z,100254,0.36309814,-0.87731934,0.07128906
1725698033178,2024-09-07T08:33:53.178Z,100284,0.3809204,-0.9135132,0.04650879
1725698033212,2024-09-07T08:33:53.212Z,100318,0.36169434,-0.9111328,0.05090332
1725698033257,2024-09-07T08:33:53.257Z,100363,0.39135742,-0.89575195,0.04083252
1725698033302,2024-09-07T08:33:53.302Z,100408,0.3760376,-0.89038086,0.07141113
1725698033348,2024-09-07T08:33:53.348Z,100454,0.36431885,-0.8955078,0.07305908
1725698033395,2024-09-07T08:33:53.395Z,100501,0.36871338,-0.88708496,0.114868164
1725698033437,2024-09-07T08:33:53.437Z,100543,0.37756348,-0.8758545,0.13391113
1725698033487,2024-09-07T08:33:53.487Z,100593,0.33911133,-0.9055786,0.1651001
1725698033529,2024-09-07T08:33:53.529Z,100635,0.32440186,-0.89349365,0.103149414
1725698033552,2024-09-07T08:33:53.552Z,100658,0.27807617,-0.8706665,0.02960205
1725698033574,2024-09-07T08:33:53.574Z,100680,0.37530518,-0.91571045,0.008300781
1725698033618,2024-09-07T08:33:53.618Z,100724,0.43115234,-0.93981934,0.033813477
1725698033663,2024-09-07T08:33:53.663Z,100769,0.31463623,-0.86450195,0.05517578
1725698033708,2024-09-07T08:33:53.708Z,100814,0.29382324,-0.9078369,0.2098999
1725698033755,2024-09-07T08:33:53.755Z,100861,0.23596191,-0.84490967,0.20361328
1725698033800,2024-09-07T08:33:53.800Z,100906,0.24890137,-0.8737793,0.18029785
1725698033846,2024-09-07T08:33:53.846Z,100952,0.29803467,-0.83551025,0.11932373
1725698033888,2024-09-07T08:33:53.888Z,100994,0.27911377,-0.86712646,0.13067627
1725698033932,2024-09-07T08:33:53.932Z,101038,0.22052002,-0.9445801,0.15570068
1725698033953,2024-09-07T08:33:53.953Z,101059,0.18658447,-0.86102295,0.12591553
1725698033976,2024-09-07T08:33:53.976Z,101082,0.2244873,-0.90734863,0.07507324
1725698034021,2024-09-07T08:33:54.021Z,101127,0.2619629,-0.92303467,0.023132324
1725698034065,2024-09-07T08:33:54.065Z,101171,0.27319336,-0.89416504,-0.006286621
1725698034114,2024-09-07T08:33:54.114Z,101220,0.21392822,-0.88812256,0.009338379
1725698034157,2024-09-07T08:33:54.157Z,101263,0.13812256,-0.92871094,0.10211182
1725698034206,2024-09-07T08:33:54.206Z,101312,0.20288086,-0.9647217,0.14520264
1725698034250,2024-09-07T08:33:54.250Z,101356,0.1373291,-0.8326416,0.11010742
1725698034294,2024-09-07T08:33:54.294Z,101400,0.16473389,-0.944397,0.05078125
1725698034339,2024-09-07T08:33:54.339Z,101445,0.14929199,-0.888916,0.050354004
1725698034382,2024-09-07T08:33:54.382Z,101488,0.12628174,-0.91033936,0.064575195
1725698034410,2024-09-07T08:33:54.410Z,101516,0.105895996,-0.82666016,0.032470703
1725698034428,2024-09-07T08:33:54.428Z,101534,0.05883789,-0.9941406,0.07824707
1725698034471,2024-09-07T08:33:54.471Z,101577,0.11932373,-0.89141846,0.109069824
1725698034519,2024-09-07T08:33:54.519Z,101625,0.21936035,-0.7755127,0.08074951
1725698034563,2024-09-07T08:33:54.563Z,101669,0.12249756,-1.0371704,-0.010925293
1725698034611,2024-09-07T08:33:54.611Z,101717,0.039367676,-1.0011597,0.0892334
1725698034652,2024-09-07T08:33:54.652Z,101758,0.0859375,-0.84820557,0.19085693
1725698034696,2024-09-07T08:33:54.696Z,101802,0.09863281,-0.89697266,0.27160645
1725698034743,2024-09-07T08:33:54.743Z,101849,0.17895508,-0.9701538,0.20562744
1725698034790,2024-09-07T08:33:54.790Z,101896,0.0670166,-0.90545654,0.048950195
1725698034810,2024-09-07T08:33:54.810Z,101916,-0.026062012,-1.0786743,0.06915283
1725698034843,2024-09-07T08:33:54.843Z,101949,0.103149414,-0.97442627,0.076049805
1725698034876,2024-09-07T08:33:54.876Z,101982,0.21679688,-1.0019531,0.109558105
1725698034922,2024-09-07T08:33:54.922Z,102028,0.17974854,-0.83306885,0.06262207
1725698034968,2024-09-07T08:33:54.968Z,102074,0.10839844,-0.8287964,0.16253662
1725698035016,2024-09-07T08:33:55.016Z,102122,0.15148926,-0.9123535,0.2977295
1725698035060,2024-09-07T08:33:55.060Z,102166,0.15258789,-0.9663696,0.44628906
1725698035107,2024-09-07T08:33:55.107Z,102213,0.26519775,-0.89086914,0.3065796
1725698035148,2024-09-07T08:33:55.148Z,102254,0.33374023,-0.89837646,0.32861328
1725698035192,2024-09-07T08:33:55.192Z,102298,0.4234619,-1.1364746,0.3961792
1725698035217,2024-09-07T08:33:55.217Z,102323,0.49047852,-1.1995239,0.40405273
1725698035236,2024-09-07T08:33:55.236Z,102342,0.4151001,-1.1694946,0.46520996
1725698035281,2024-09-07T08:33:55.281Z,102387,0.4229126,-0.9694824,0.6140137
1725698035328,2024-09-07T08:33:55.328Z,102434,0.39556885,-0.89715576,0.5819702
1725698035374,2024-09-07T08:33:55.374Z,102480,0.32598877,-0.85961914,0.60009766
1725698035420,2024-09-07T08:33:55.420Z,102526,0.25445557,-0.86950684,0.37420654
1725698035464,2024-09-07T08:33:55.464Z,102570,0.33996582,-0.8064575,0.24902344
1725698035509,2024-09-07T08:33:55.509Z,102615,0.3577881,-0.80145264,0.16998291
1725698035552,2024-09-07T08:33:55.552Z,102658,0.2888794,-0.88482666,0.31915283
1725698035599,2024-09-07T08:33:55.599Z,102705,0.35180664,-0.88500977,0.40856934
1725698035645,2024-09-07T08:33:55.645Z,102751,0.42529297,-0.99871826,0.44122314
1725698035664,2024-09-07T08:33:55.664Z,102770,0.44335938,-0.89990234,0.3260498
1725698035689,2024-09-07T08:33:55.689Z,102795,0.23547363,-0.7699585,0.29211426
1725698035731,2024-09-07T08:33:55.731Z,102837,0.19476318,-0.8140259,0.3540039
1725698035778,2024-09-07T08:33:55.778Z,102884,0.315979,-0.7459717,0.35577393
1725698035821,2024-09-07T08:33:55.821Z,102927,0.2962036,-0.79107666,0.23400879
1725698035868,2024-09-07T08:33:55.868Z,102974,0.27270508,-0.84820557,0.3427124
1725698035913,2024-09-07T08:33:55.913Z,103019,0.3446045,-1.001648,0.4850464
1725698035955,2024-09-07T08:33:55.955Z,103061,0.4022827,-0.92022705,0.5597534
1725698036005,2024-09-07T08:33:56.005Z,103111,0.38378906,-1.1225586,0.45037842
1725698036049,2024-09-07T08:33:56.049Z,103155,0.3867798,-0.90686035,0.34674072
1725698036070,2024-09-07T08:33:56.070Z,103176,0.28533936,-0.9685669,0.22076416
1725698036092,2024-09-07T08:33:56.092Z,103198,0.32922363,-0.95318604,0.27398682
1725698036136,2024-09-07T08:33:56.136Z,103242,0.20812988,-1.0407715,0.17419434
1725698036183,2024-09-07T08:33:56.183Z,103289,0.22149658,-0.899353,0.22515869
1725698036228,2024-09-07T08:33:56.228Z,103334,0.21948242,-0.85217285,0.2736206
1725698036273,2024-09-07T08:33:56.273Z,103379,0.21795654,-0.79852295,0.2154541
1725698036318,2024-09-07T08:33:56.318Z,103424,0.16540527,-0.9223633,0.29589844
1725698036364,2024-09-07T08:33:56.364Z,103470,0.2376709,-1.003418,0.21087646
1725698036405,2024-09-07T08:33:56.405Z,103511,0.21777344,-0.9246216,0.16015625
1725698036451,2024-09-07T08:33:56.451Z,103557,0.2741089,-0.9937134,0.16412354
1725698036471,2024-09-07T08:33:56.471Z,103577,0.24407959,-0.9065552,0.19055176
1725698036505,2024-09-07T08:33:56.505Z,103611,0.27716064,-0.92840576,0.2220459
1725698036540,2024-09-07T08:33:56.540Z,103646,0.22576904,-0.9644165,0.18041992
1725698036587,2024-09-07T08:33:56.587Z,103693,0.12438965,-0.8670654,0.15637207
1725698036635,2024-09-07T08:33:56.635Z,103741,0.09552002,-0.951355,0.09710693
1725698036682,2024-09-07T08:33:56.682Z,103788,0.021057129,-0.8800659,0.0970459
1725698036720,2024-09-07T08:33:56.720Z,103826,0.14855957,-1.0802612,0.23931885
1725698036769,2024-09-07T08:33:56.769Z,103875,0.18054199,-0.93792725,0.10681152
1725698036818,2024-09-07T08:33:56.818Z,103924,0.1829834,-0.8588257,0.15350342
1725698036857,2024-09-07T08:33:56.857Z,103963,0.22802734,-0.98187256,0.18035889
1725698036905,2024-09-07T08:33:56.905Z,104011,0.1749878,-0.98339844,0.10357666
1725698036924,2024-09-07T08:33:56.924Z,104030,0.12121582,-0.96099854,0.033691406
1725698036942,2024-09-07T08:33:56.942Z,104048,0.08081055,-0.94104004,0.105651855
1725698036992,2024-09-07T08:33:56.992Z,104098,0.144104,-0.7902832,0.0736084
1725698037038,2024-09-07T08:33:57.038Z,104144,0.15496826,-1.0037231,0.15997314
1725698037085,2024-09-07T08:33:57.085Z,104191,0.1885376,-1.0645752,0.18408203
1725698037128,2024-09-07T08:33:57.128Z,104234,0.18481445,-0.96795654,0.12005615
1725698037174,2024-09-07T08:33:57.174Z,104280,0.17297363,-0.9433594,0.059387207
1725698037221,2024-09-07T08:33:57.221Z,104327,0.18591309,-0.8718872,0.09539795
1725698037262,2024-09-07T08:33:57.262Z,104368,0.060302734,-0.9684448,0.04046631
1725698037307,2024-09-07T08:33:57.307Z,104413,0.0345459,-1.0577393,0.10870361
1725698037327,2024-09-07T08:33:57.327Z,104433,0.1307373,-0.9361572,0.14074707
1725698037350,2024-09-07T08:33:57.350Z,104456,0.23181152,-0.85302734,0.107177734
1725698037397,2024-09-07T08:33:57.397Z,104503,0.18896484,-0.8362427,0.11779785
1725698037443,2024-09-07T08:33:57.443Z,104549,0.17675781,-1.0163574,0.10217285
1725698037485,2024-09-07T08:33:57.485Z,104591,0.1829834,-1.053772,0.1394043
1725698037533,2024-09-07T08:33:57.533Z,104639,0.20465088,-1.0351562,0.104003906
1725698037575,2024-09-07T08:33:57.575Z,104681,0.17730713,-1.0113525,0.13366699
1725698037623,2024-09-07T08:33:57.623Z,104729,0.12084961,-0.8718262,0.14208984
1725698037669,2024-09-07T08:33:57.669Z,104775,0.11065674,-0.8076172,0.14312744
1725698037715,2024-09-07T08:33:57.715Z,104821,0.15759277,-0.92108154,0.08441162
1725698037736,2024-09-07T08:33:57.736Z,104842,0.17126465,-0.9720459,0.071777344
1725698037757,2024-09-07T08:33:57.757Z,104863,0.16479492,-0.9812622,0.04711914
1725698037800,2024-09-07T08:33:57.800Z,104906,0.22265625,-0.95648193,0.08496094
1725698037847,2024-09-07T08:33:57.847Z,104953,0.3067627,-1.0045776,0.10839844
1725698037894,2024-09-07T08:33:57.894Z,105000,0.22210693,-0.97650146,0.038757324
1725698037941,2024-09-07T08:33:57.941Z,105047,0.24572754,-0.93078613,0.118896484
1725698037985,2024-09-07T08:33:57.985Z,105091,0.23968506,-0.9107666,0.07281494
1725698038028,2024-09-07T08:33:58.028Z,105134,0.2119751,-0.8772583,0.055786133
1725698038075,2024-09-07T08:33:58.075Z,105181,0.23095703,-0.87323,0.06774902
1725698038165,2024-09-07T08:33:58.165Z,105271,0.2218628,-0.8267822,0.1463623
1725698038181,2024-09-07T08:33:58.181Z,105287,0.2611084,-0.8841553,0.1829834
1725698038197,2024-09-07T08:33:58.197Z,105303,0.30963135,-0.9456177,0.13641357
1725698038212,2024-09-07T08:33:58.212Z,105318,0.26843262,-0.9058838,0.0770874
1725698038252,2024-09-07T08:33:58.252Z,105358,0.33081055,-0.8908081,0.122924805
1725698038292,2024-09-07T08:33:58.292Z,105398,0.3147583,-0.8994751,0.14685059
1725698038337,2024-09-07T08:33:58.337Z,105443,0.26452637,-0.8721924,0.101379395
1725698038382,2024-09-07T08:33:58.382Z,105488,0.31384277,-0.8796387,0.123535156
1725698038428,2024-09-07T08:33:58.428Z,105534,0.350708,-0.9156494,0.042297363
