Timestamp (ms),ISO DateTime,Elapsed Time (ms),Acceleration X,Acceleration Y,Acceleration Z
1725698363828,2024-09-07T08:39:23.828Z,65458,0.13122559,-0.8389282,0.2826538
1725698363869,2024-09-07T08:39:23.869Z,65499,0.08850098,-0.7949829,0.35614014
1725698363882,2024-09-07T08:39:23.882Z,65512,0.23095703,-0.8329468,0.2836914
1725698363912,2024-09-07T08:39:23.912Z,65542,0.1182251,-0.8063965,0.19140625
1725698363956,2024-09-07T08:39:23.956Z,65586,0.113098145,-0.80200195,0.17156982
1725698364001,2024-09-07T08:39:24.001Z,65631,0.07733154,-0.8294678,0.12982178
1725698364046,2024-09-07T08:39:24.046Z,65676,0.012939453,-0.7008667,0.12438965
1725698364091,2024-09-07T08:39:24.091Z,65721,0.08068848,-0.776001,0.14575195
1725698364143,2024-09-07T08:39:24.143Z,65773,0.054870605,-0.7826538,0.18536377
1725698364193,2024-09-07T08:39:24.193Z,65823,0.068481445,-0.80181885,0.24383545
1725698364231,2024-09-07T08:39:24.231Z,65861,0.09429932,-0.7485962,0.24584961
1725698364279,2024-09-07T08:39:24.279Z,65909,0.08282471,-0.90838623,0.28900146
1725698364299,2024-09-07T08:39:24.299Z,65929,0.057556152,-0.8954468,0.2265625
1725698364320,2024-09-07T08:39:24.320Z,65950,0.02130127,-0.9025879,0.17913818
1725698364367,2024-09-07T08:39:24.367Z,65997,0.07055664,-0.90270996,0.18920898
1725698364413,2024-09-07T08:39:24.413Z,66043,0.06915283,-0.9242554,0.1906128
1725698364457,2024-09-07T08:39:24.457Z,66087,0.04345703,-0.91290283,0.16253662
1725698364503,2024-09-07T08:39:24.503Z,66133,0.10076904,-0.94244385,0.21429443
1725698364548,2024-09-07T08:39:24.548Z,66178,0.057739258,-0.9116211,0.26068115
1725698364593,2024-09-07T08:39:24.593Z,66223,0.077819824,-1.0007324,0.2581787
1725698364637,2024-09-07T08:39:24.637Z,66267,0.03277588,-1.1438599,0.2796631
1725698364685,2024-09-07T08:39:24.685Z,66315,0.09197998,-1.0410767,0.3609619
1725698364730,2024-09-07T08:39:24.730Z,66360,0.10949707,-1.0070801,0.27874756
1725698364752,2024-09-07T08:39:24.752Z,66382,0.097229004,-1.0630493,0.26281738
1725698364772,2024-09-07T08:39:24.772Z,66402,0.16778564,-1.1065063,0.32714844
1725698364819,2024-09-07T08:39:24.819Z,66449,0.21820068,-0.95202637,0.34625244
1725698364861,2024-09-07T08:39:24.861Z,66491,0.27642822,-1.008667,0.4307251
1725698364910,2024-09-07T08:39:24.910Z,66540,0.43920898,-0.9447632,0.3154297
1725698364955,2024-09-07T08:39:24.955Z,66585,0.23413086,-1.1503296,0.30041504
1725698365003,2024-09-07T08:39:25.003Z,66633,0.30493164,-1.1659546,0.38806152
1725698365040,2024-09-07T08:39:25.040Z,66670,0.3614502,-1.135376,0.43359375
1725698365086,2024-09-07T08:39:25.086Z,66716,0.3668213,-1.0385742,0.3756714
1725698365130,2024-09-07T08:39:25.130Z,66760,0.29492188,-1.0476074,0.49578857
1725698365152,2024-09-07T08:39:25.152Z,66782,0.23303223,-0.88012695,0.4833374
1725698365174,2024-09-07T08:39:25.174Z,66804,0.23937988,-0.8751221,0.43566895
1725698365218,2024-09-07T08:39:25.218Z,66848,0.29492188,-0.8109131,0.3065796
1725698365266,2024-09-07T08:39:25.266Z,66896,0.30743408,-0.8023071,0.3151245
1725698365312,2024-09-07T08:39:25.312Z,66942,0.24102783,-0.885437,0.25402832
1725698365358,2024-09-07T08:39:25.358Z,66988,0.25238037,-0.8977661,0.29266357
1725698365405,2024-09-07T08:39:25.405Z,67035,0.26678467,-0.8792114,0.33410645
1725698365448,2024-09-07T08:39:25.448Z,67078,0.28814697,-0.84490967,0.40844727
1725698365494,2024-09-07T08:39:25.494Z,67124,0.28631592,-0.9216919,0.37683105
1725698365537,2024-09-07T08:39:25.537Z,67167,0.24395752,-0.8446655,0.34344482
1725698365563,2024-09-07T08:39:25.563Z,67193,0.22558594,-0.92303467,0.34820557
1725698365580,2024-09-07T08:39:25.580Z,67210,0.24060059,-0.8670654,0.3682251
1725698365625,2024-09-07T08:39:25.625Z,67255,0.2614746,-0.8858032,0.3741455
1725698365672,2024-09-07T08:39:25.672Z,67302,0.21118164,-0.89849854,0.43103027
1725698365717,2024-09-07T08:39:25.717Z,67347,0.14398193,-0.883667,0.36071777
1725698365763,2024-09-07T08:39:25.763Z,67393,0.21881104,-0.9238281,0.40826416
1725698365807,2024-09-07T08:39:25.807Z,67437,0.1850586,-0.88153076,0.3435669
1725698365853,2024-09-07T08:39:25.853Z,67483,0.256958,-0.99157715,0.4060669
1725698365897,2024-09-07T08:39:25.897Z,67527,0.18658447,-0.89990234,0.26611328
1725698365942,2024-09-07T08:39:25.942Z,67572,0.21166992,-0.9935913,0.35424805
1725698365985,2024-09-07T08:39:25.985Z,67615,0.17468262,-0.9035034,0.29003906
1725698366004,2024-09-07T08:39:26.004Z,67634,0.25238037,-0.894104,0.31976318
1725698366027,2024-09-07T08:39:26.027Z,67657,0.19891357,-0.85272217,0.22509766
1725698366077,2024-09-07T08:39:26.077Z,67707,0.18060303,-1.0008545,0.3746338
1725698366124,2024-09-07T08:39:26.124Z,67754,0.088378906,-0.9526367,0.28485107
1725698366166,2024-09-07T08:39:26.166Z,67796,0.12835693,-0.9503784,0.29437256
1725698366213,2024-09-07T08:39:26.213Z,67843,0.12652588,-0.96813965,0.27941895
1725698366257,2024-09-07T08:39:26.257Z,67887,0.18609619,-0.77770996,0.24261475
1725698366303,2024-09-07T08:39:26.303Z,67933,0.15386963,-1.0095215,0.29956055
1725698366348,2024-09-07T08:39:26.348Z,67978,0.08581543,-0.87939453,0.23638916
1725698366393,2024-09-07T08:39:26.393Z,68023,0.11480713,-0.97076416,0.27105713
1725698366412,2024-09-07T08:39:26.412Z,68042,0.08874512,-0.87280273,0.29760742
1725698366436,2024-09-07T08:39:26.436Z,68066,0.15472412,-0.94573975,0.32043457
1725698366484,2024-09-07T08:39:26.484Z,68114,0.09667969,-0.9282837,0.25994873
1725698366529,2024-09-07T08:39:26.529Z,68159,0.1675415,-1.015564,0.32110596
1725698366572,2024-09-07T08:39:26.572Z,68202,0.003540039,-1.0004883,0.24291992
1725698366616,2024-09-07T08:39:26.616Z,68246,0.18475342,-0.8436279,0.3260498
1725698366661,2024-09-07T08:39:26.661Z,68291,0.032592773,-1.0716553,0.23150635
1725698366706,2024-09-07T08:39:26.706Z,68336,0.111206055,-0.9727783,0.22735596
1725698366752,2024-09-07T08:39:26.752Z,68382,0.11291504,-0.85162354,0.08123779
1725698366803,2024-09-07T08:39:26.803Z,68433,0.09838867,-0.96343994,0.17150879
1725698366828,2024-09-07T08:39:26.828Z,68458,0.05718994,-0.83258057,0.1508789
1725698366845,2024-09-07T08:39:26.845Z,68475,0.05810547,-0.98394775,0.24859619
1725698366885,2024-09-07T08:39:26.885Z,68515,0.0014038086,-0.9682617,0.23339844
1725698366931,2024-09-07T08:39:26.931Z,68561,0.10913086,-0.9890747,0.29736328
1725698366976,2024-09-07T08:39:26.976Z,68606,0.032043457,-0.9552002,0.22509766
1725698367020,2024-09-07T08:39:27.020Z,68650,0.10321045,-0.9929199,0.30511475
1725698367067,2024-09-07T08:39:27.067Z,68697,0.010192871,-1.0611572,0.27819824
1725698367114,2024-09-07T08:39:27.114Z,68744,0.1305542,-0.9468994,0.30133057
1725698367157,2024-09-07T08:39:27.157Z,68787,0.11004639,-0.8123169,0.1743164
1725698367202,2024-09-07T08:39:27.202Z,68832,0.044006348,-1.0084229,0.11047363
1725698367246,2024-09-07T08:39:27.246Z,68876,0.016113281,-0.92071533,0.12005615
1725698367270,2024-09-07T08:39:27.270Z,68900,0.031433105,-1.0271606,0.14208984
1725698367288,2024-09-07T08:39:27.288Z,68918,0.07635498,-0.9032593,0.15411377
1725698367334,2024-09-07T08:39:27.334Z,68964,0.11114502,-0.94348145,0.2197876
1725698367383,2024-09-07T08:39:27.383Z,69013,0.08734131,-0.98760986,0.21612549
1725698367426,2024-09-07T08:39:27.426Z,69056,0.08831787,-0.9718628,0.21820068
1725698367472,2024-09-07T08:39:27.472Z,69102,0.029418945,-0.94854736,0.24359131
1725698367517,2024-09-07T08:39:27.517Z,69147,0.034240723,-0.95617676,0.2518921
1725698367563,2024-09-07T08:39:27.563Z,69193,0.053833008,-0.9581909,0.20843506
1725698367606,2024-09-07T08:39:27.606Z,69236,0.058776855,-0.77441406,0.20672607
1725698367655,2024-09-07T08:39:27.655Z,69285,0.05810547,-1.0626831,0.23498535
1725698367675,2024-09-07T08:39:27.675Z,69305,0.053649902,-0.8621826,0.2553711
1725698367694,2024-09-07T08:39:27.694Z,69324,-6.713867E-4,-1.0942993,0.24310303
1725698367738,2024-09-07T08:39:27.738Z,69368,0.13208008,-0.8668213,0.30249023
1725698367788,2024-09-07T08:39:27.788Z,69418,0.10412598,-0.81689453,0.17468262
1725698367839,2024-09-07T08:39:27.839Z,69469,0.059448242,-0.9436035,0.14294434
1725698367879,2024-09-07T08:39:27.879Z,69509,4.8828125E-4,-1.1123047,0.10192871
1725698367923,2024-09-07T08:39:27.923Z,69553,0.079711914,-0.8430176,0.22369385
1725698367967,2024-09-07T08:39:27.967Z,69597,0.09802246,-0.94000244,0.27056885
1725698368011,2024-09-07T08:39:28.011Z,69641,0.13024902,-0.8833618,0.26068115
1725698368060,2024-09-07T08:39:28.060Z,69690,0.06652832,-1.138916,0.23779297
1725698368078,2024-09-07T08:39:28.078Z,69708,0.08325195,-0.9086914,0.31567383
1725698368098,2024-09-07T08:39:28.098Z,69728,0.057495117,-0.8708496,0.32843018
1725698368141,2024-09-07T08:39:28.141Z,69771,0.13116455,-0.894104,0.3040161
1725698368189,2024-09-07T08:39:28.189Z,69819,0.0736084,-0.9064331,0.24847412
1725698368237,2024-09-07T08:39:28.237Z,69867,0.03881836,-0.9463501,0.2175293
1725698368283,2024-09-07T08:39:28.283Z,69913,0.040405273,-0.9291382,0.29748535
1725698368331,2024-09-07T08:39:28.331Z,69961,0.07116699,-0.8866577,0.28485107
1725698368373,2024-09-07T08:39:28.373Z,70003,0.107666016,-0.85150146,0.319458
1725698368422,2024-09-07T08:39:28.422Z,70052,0.11871338,-0.94873047,0.25146484
1725698368463,2024-09-07T08:39:28.463Z,70093,0.14794922,-1.0005493,0.25305176
1725698368508,2024-09-07T08:39:28.508Z,70138,0.088012695,-0.9194336,0.23394775
1725698368530,2024-09-07T08:39:28.530Z,70160,0.115112305,-0.967041,0.27209473
1725698368553,2024-09-07T08:39:28.553Z,70183,0.10070801,-0.88287354,0.2267456
1725698368595,2024-09-07T08:39:28.595Z,70225,0.17352295,-0.95391846,0.23773193
1725698368642,2024-09-07T08:39:28.642Z,70272,0.09161377,-0.8572998,0.25708008
1725698368688,2024-09-07T08:39:28.688Z,70318,0.12335205,-0.95880127,0.30822754
1725698368737,2024-09-07T08:39:28.737Z,70367,0.11248779,-0.89282227,0.26837158
1725698368778,2024-09-07T08:39:28.778Z,70408,0.13354492,-0.9420166,0.3166504
1725698368821,2024-09-07T08:39:28.821Z,70451,0.1449585,-0.9144287,0.3012085
1725698368866,2024-09-07T08:39:28.866Z,70496,0.16070557,-0.9135132,0.35516357
1725698368912,2024-09-07T08:39:28.912Z,70542,0.16491699,-0.9000244,0.28741455
1725698368934,2024-09-07T08:39:28.934Z,70564,0.16455078,-0.94714355,0.32330322
1725698368953,2024-09-07T08:39:28.953Z,70583,0.15112305,-0.8955078,0.24542236
1725698369000,2024-09-07T08:39:29Z,70630,0.17230225,-0.92578125,0.3092041
1725698369047,2024-09-07T08:39:29.047Z,70677,0.15875244,-0.8944702,0.29919434
1725698369091,2024-09-07T08:39:29.091Z,70721,0.1564331,-0.9125366,0.3236084
1725698369138,2024-09-07T08:39:29.138Z,70768,0.18359375,-0.897583,0.29956055
1725698369185,2024-09-07T08:39:29.185Z,70815,0.19299316,-0.9053345,0.31628418
1725698369231,2024-09-07T08:39:29.231Z,70861,0.18719482,-0.86035156,0.29632568
1725698369274,2024-09-07T08:39:29.274Z,70904,0.17871094,-0.9147339,0.3046875
1725698369320,2024-09-07T08:39:29.320Z,70950,0.18389893,-0.88275146,0.30560303
1725698369343,2024-09-07T08:39:29.343Z,70973,0.17034912,-0.9124756,0.30218506
1725698369364,2024-09-07T08:39:29.364Z,70994,0.17285156,-0.8807373,0.28063965
1725698369406,2024-09-07T08:39:29.406Z,71036,0.20574951,-0.8892822,0.26782227
1725698369454,2024-09-07T08:39:29.454Z,71084,0.20355225,-0.914917,0.3065796
1725698369497,2024-09-07T08:39:29.497Z,71127,0.17578125,-0.8727417,0.28308105
1725698369546,2024-09-07T08:39:29.546Z,71176,0.18005371,-0.8981323,0.30181885
1725698369589,2024-09-07T08:39:29.589Z,71219,0.17852783,-0.85198975,0.29327393
1725698369631,2024-09-07T08:39:29.631Z,71261,0.18756104,-0.8511963,0.26739502
1725698369676,2024-09-07T08:39:29.676Z,71306,0.15765381,-0.8004761,0.24023438
1725698369725,2024-09-07T08:39:29.725Z,71355,0.14685059,-0.7654419,0.22613525
1725698369742,2024-09-07T08:39:29.742Z,71372,0.06854248,-0.81359863,0.21099854
1725698369768,2024-09-07T08:39:29.768Z,71398,0.06842041,-0.7468872,0.18408203
1725698369812,2024-09-07T08:39:29.812Z,71442,0.1517334,-0.7289429,0.21759033
1725698369857,2024-09-07T08:39:29.857Z,71487,0.10406494,-0.74560547,0.24255371
1725698369904,2024-09-07T08:39:29.904Z,71534,0.035705566,-0.7401123,0.25079346
1725698369951,2024-09-07T08:39:29.951Z,71581,0.103637695,-0.76660156,0.19244385
1725698369995,2024-09-07T08:39:29.995Z,71625,0.0368042,-0.7758179,0.14141846
1725698370038,2024-09-07T08:39:30.038Z,71668,0.08081055,-0.8463135,0.18676758
1725698370081,2024-09-07T08:39:30.081Z,71711,0.16589355,-0.7885132,0.17486572
1725698370129,2024-09-07T08:39:30.129Z,71759,0.12243652,-0.8826904,0.12695312
1725698370174,2024-09-07T08:39:30.174Z,71804,0.05670166,-0.9199829,0.16998291
1725698370198,2024-09-07T08:39:30.198Z,71828,0.0848999,-0.97161865,0.19360352
1725698370220,2024-09-07T08:39:30.220Z,71850,0.10827637,-0.79541016,0.2763672
1725698370261,2024-09-07T08:39:30.261Z,71891,0.020019531,-1.0058594,0.31097412
1725698370307,2024-09-07T08:39:30.307Z,71937,0.10473633,-0.9161377,0.3209839
1725698370353,2024-09-07T08:39:30.353Z,71983,0.089416504,-1.0368042,0.32244873
1725698370400,2024-09-07T08:39:30.400Z,72030,0.091674805,-1.0407104,0.33129883
1725698370445,2024-09-07T08:39:30.445Z,72075,0.0435791,-1.0490112,0.2522583
1725698370495,2024-09-07T08:39:30.495Z,72125,0.12750244,-1.0808716,0.3670044
1725698370532,2024-09-07T08:39:30.532Z,72162,0.1593628,-1.1053467,0.1776123
1725698370581,2024-09-07T08:39:30.581Z,72211,0.35809326,-1.0509644,0.4085083
1725698370606,2024-09-07T08:39:30.606Z,72236,0.48712158,-0.9827881,0.45947266
1725698370629,2024-09-07T08:39:30.629Z,72259,0.42767334,-1.0010376,0.42315674
1725698370666,2024-09-07T08:39:30.666Z,72296,0.36273193,-1.109375,0.5111084
1725698370713,2024-09-07T08:39:30.713Z,72343,0.34490967,-1.053833,0.5905762
1725698370759,2024-09-07T08:39:30.759Z,72389,0.3408203,-1.1071777,0.6226196
1725698370801,2024-09-07T08:39:30.801Z,72431,0.35583496,-0.9812012,0.62713623
1725698370848,2024-09-07T08:39:30.848Z,72478,0.37371826,-0.8602905,0.6234741
1725698370891,2024-09-07T08:39:30.891Z,72521,0.30828857,-0.7706299,0.49493408
1725698370938,2024-09-07T08:39:30.938Z,72568,0.28649902,-0.8290405,0.41088867
1725698370983,2024-09-07T08:39:30.983Z,72613,0.22021484,-0.8762207,0.23638916
1725698371004,2024-09-07T08:39:31.004Z,72634,0.24334717,-0.8722534,0.26171875
1725698371027,2024-09-07T08:39:31.027Z,72657,0.3486328,-0.84490967,0.36566162
1725698371072,2024-09-07T08:39:31.072Z,72702,0.33947754,-0.8054199,0.49145508
1725698371119,2024-09-07T08:39:31.119Z,72749,0.2828369,-0.8300171,0.47930908
1725698371164,2024-09-07T08:39:31.164Z,72794,0.27386475,-0.79730225,0.45770264
1725698371210,2024-09-07T08:39:31.210Z,72840,0.24053955,-0.85131836,0.38476562
1725698371254,2024-09-07T08:39:31.254Z,72884,0.26049805,-0.807312,0.42071533
1725698371298,2024-09-07T08:39:31.298Z,72928,0.3218994,-0.87939453,0.44818115
1725698371342,2024-09-07T08:39:31.342Z,72972,0.24182129,-0.83898926,0.41503906
1725698371389,2024-09-07T08:39:31.389Z,73019,0.30932617,-0.9328003,0.48321533
1725698371434,2024-09-07T08:39:31.434Z,73064,0.25421143,-0.86621094,0.46392822
1725698371456,2024-09-07T08:39:31.456Z,73086,0.21002197,-0.8980713,0.40600586
1725698371473,2024-09-07T08:39:31.473Z,73103,0.31536865,-0.86639404,0.46594238
1725698371517,2024-09-07T08:39:31.517Z,73147,0.20574951,-0.86016846,0.29608154
1725698371565,2024-09-07T08:39:31.565Z,73195,0.25909424,-0.93981934,0.4484253
1725698371615,2024-09-07T08:39:31.615Z,73245,0.2029419,-0.9187012,0.28619385
1725698371657,2024-09-07T08:39:31.657Z,73287,0.26715088,-0.8557129,0.4169922
1725698371704,2024-09-07T08:39:31.704Z,73334,0.12158203,-0.8769531,0.3423462
1725698371747,2024-09-07T08:39:31.747Z,73377,0.26953125,-0.89959717,0.42138672
1725698371791,2024-09-07T08:39:31.791Z,73421,0.12322998,-0.9025879,0.348938
1725698371838,2024-09-07T08:39:31.838Z,73468,0.19610596,-0.8980713,0.37646484
1725698371860,2024-09-07T08:39:31.860Z,73490,0.16491699,-0.99401855,0.2562256
1725698371884,2024-09-07T08:39:31.884Z,73514,0.12384033,-0.958374,0.33551025
1725698371926,2024-09-07T08:39:31.926Z,73556,0.14154053,-0.94415283,0.31988525
1725698371972,2024-09-07T08:39:31.972Z,73602,0.18865967,-0.9398804,0.3222046
1725698372018,2024-09-07T08:39:32.018Z,73648,0.14868164,-0.86383057,0.2355957
1725698372062,2024-09-07T08:39:32.062Z,73692,0.14404297,-0.9072876,0.27435303
1725698372108,2024-09-07T08:39:32.108Z,73738,0.14562988,-0.95648193,0.2097168
1725698372152,2024-09-07T08:39:32.152Z,73782,0.13049316,-0.8460083,0.26538086
1725698372201,2024-09-07T08:39:32.201Z,73831,0.07269287,-1.0896606,0.19244385
1725698372243,2024-09-07T08:39:32.243Z,73873,0.13500977,-0.82440186,0.34381104
1725698372264,2024-09-07T08:39:32.264Z,73894,0.076293945,-1.0578003,0.20922852
1725698372284,2024-09-07T08:39:32.284Z,73914,0.1182251,-0.81518555,0.4284668
1725698372332,2024-09-07T08:39:32.332Z,73962,0.07495117,-1.0307617,0.19006348
1725698372380,2024-09-07T08:39:32.380Z,74010,0.06915283,-0.95129395,0.31707764
1725698372420,2024-09-07T08:39:32.420Z,74050,0.08905029,-0.9710083,0.18341064
1725698372469,2024-09-07T08:39:32.469Z,74099,0.14453125,-0.7592163,0.23364258
1725698372514,2024-09-07T08:39:32.514Z,74144,0.06695557,-1.0343628,0.16235352
1725698372559,2024-09-07T08:39:32.559Z,74189,0.10583496,-0.85113525,0.23815918
1725698372603,2024-09-07T08:39:32.603Z,74233,0.07086182,-1.0333862,0.17041016
1725698372647,2024-09-07T08:39:32.647Z,74277,0.05126953,-0.96069336,0.30291748
1725698372691,2024-09-07T08:39:32.691Z,74321,0.049621582,-0.8911743,0.28204346
1725698372709,2024-09-07T08:39:32.709Z,74339,0.08709717,-0.94647217,0.27612305
1725698372736,2024-09-07T08:39:32.736Z,74366,0.031555176,-0.94055176,0.17797852
1725698372783,2024-09-07T08:39:32.783Z,74413,0.097839355,-0.87353516,0.19146729
1725698372832,2024-09-07T08:39:32.832Z,74462,0.040527344,-1.0183105,0.16003418
1725698372875,2024-09-07T08:39:32.875Z,74505,0.045898438,-0.94104004,0.16253662
1725698372918,2024-09-07T08:39:32.918Z,74548,0.095825195,-0.9539795,0.22857666
1725698372965,2024-09-07T08:39:32.965Z,74595,0.06121826,-0.99749756,0.20910645
1725698373015,2024-09-07T08:39:33.015Z,74645,0.10467529,-0.8822632,0.2831421
1725698373056,2024-09-07T08:39:33.056Z,74686,0.068603516,-1.015686,0.12524414
1725698373098,2024-09-07T08:39:33.098Z,74728,0.12261963,-0.9104614,0.26013184
1725698373121,2024-09-07T08:39:33.121Z,74751,0.033081055,-1.0178223,0.1430664
1725698373144,2024-09-07T08:39:33.144Z,74774,0.080200195,-0.83044434,0.22973633
1725698373186,2024-09-07T08:39:33.186Z,74816,0.030456543,-1.0634155,0.18603516
1725698373232,2024-09-07T08:39:33.232Z,74862,0.03668213,-0.8736572,0.26464844
1725698373280,2024-09-07T08:39:33.280Z,74910,0.05706787,-1.0518188,0.20355225
1725698373321,2024-09-07T08:39:33.321Z,74951,0.062561035,-0.90545654,0.30126953
1725698373367,2024-09-07T08:39:33.367Z,74997,0.09100342,-0.9343872,0.20037842
1725698373414,2024-09-07T08:39:33.414Z,75044,0.1303711,-0.8175049,0.20831299
1725698373459,2024-09-07T08:39:33.459Z,75089,0.0692749,-1.0483398,0.12823486
1725698373505,2024-09-07T08:39:33.505Z,75135,-0.008728027,-1.0829468,0.15991211
1725698373525,2024-09-07T08:39:33.525Z,75155,0.10437012,-0.98461914,0.18353271
1725698373544,2024-09-07T08:39:33.544Z,75174,0.12756348,-0.75775146,0.26397705
1725698373589,2024-09-07T08:39:33.589Z,75219,0.08276367,-0.9711914,0.17822266
1725698373639,2024-09-07T08:39:33.639Z,75269,0.013000488,-1.045044,0.22381592
1725698373687,2024-09-07T08:39:33.687Z,75317,0.064453125,-0.9179077,0.23657227
1725698373731,2024-09-07T08:39:33.731Z,75361,0.05230713,-0.947937,0.24151611
1725698373771,2024-09-07T08:39:33.771Z,75401,0.080078125,-0.98742676,0.20227051
1725698373821,2024-09-07T08:39:33.821Z,75451,0.09118652,-0.9063721,0.20489502
1725698373865,2024-09-07T08:39:33.865Z,75495,0.080200195,-1.0003662,0.18115234
1725698373911,2024-09-07T08:39:33.911Z,75541,0.077941895,-0.927063,0.17010498
1725698373955,2024-09-07T08:39:33.955Z,75585,0.11029053,-0.91296387,0.20458984
1725698373978,2024-09-07T08:39:33.978Z,75608,0.054626465,-0.9723511,0.19366455
1725698374003,2024-09-07T08:39:34.003Z,75633,0.10473633,-0.972229,0.18878174
1725698374041,2024-09-07T08:39:34.041Z,75671,0.08685303,-0.9102783,0.2576294
1725698374086,2024-09-07T08:39:34.086Z,75716,0.12762451,-0.9043579,0.2617798
1725698374133,2024-09-07T08:39:34.133Z,75763,0.059326172,-0.96936035,0.22174072
1725698374175,2024-09-07T08:39:34.175Z,75805,0.09350586,-0.99121094,0.25421143
1725698374221,2024-09-07T08:39:34.221Z,75851,0.09112549,-0.8446655,0.26397705
1725698374266,2024-09-07T08:39:34.266Z,75896,0.12005615,-0.97961426,0.24920654
1725698374313,2024-09-07T08:39:34.313Z,75943,0.07446289,-0.9263916,0.22320557
1725698374358,2024-09-07T08:39:34.358Z,75988,0.12243652,-0.91430664,0.19604492
1725698374379,2024-09-07T08:39:34.379Z,76009,0.13220215,-0.9605713,0.24255371
1725698374402,2024-09-07T08:39:34.402Z,76032,0.108947754,-0.9277954,0.1998291
1725698374446,2024-09-07T08:39:34.446Z,76076,0.13092041,-0.93981934,0.2835083
1725698374493,2024-09-07T08:39:34.493Z,76123,0.10284424,-0.9296875,0.23474121
1725698374536,2024-09-07T08:39:34.536Z,76166,0.13269043,-0.9831543,0.27575684
1725698374585,2024-09-07T08:39:34.585Z,76215,0.07330322,-0.88879395,0.25042725
1725698374630,2024-09-07T08:39:34.630Z,76260,0.17181396,-0.9447632,0.2640381
1725698374677,2024-09-07T08:39:34.677Z,76307,0.12390137,-0.93182373,0.25500488
1725698374716,2024-09-07T08:39:34.716Z,76346,0.1361084,-0.8970947,0.24890137
1725698374763,2024-09-07T08:39:34.763Z,76393,0.12750244,-0.9244995,0.22424316
1725698374787,2024-09-07T08:39:34.787Z,76417,0.1081543,-0.9711914,0.23443604
1725698374805,2024-09-07T08:39:34.805Z,76435,0.1628418,-0.8530884,0.2819214
1725698374850,2024-09-07T08:39:34.850Z,76480,0.16784668,-0.93927,0.26617432
1725698374901,2024-09-07T08:39:34.901Z,76531,0.17602539,-0.98651123,0.27264404
1725698374943,2024-09-07T08:39:34.943Z,76573,0.17749023,-0.9122925,0.2783203
1725698374984,2024-09-07T08:39:34.984Z,76614,0.16534424,-0.9216919,0.2982788
1725698375032,2024-09-07T08:39:35.032Z,76662,0.1564331,-0.9295654,0.26898193
1725698375076,2024-09-07T08:39:35.076Z,76706,0.17468262,-0.92626953,0.26531982
1725698375123,2024-09-07T08:39:35.123Z,76753,0.17449951,-0.89453125,0.25683594
1725698375163,2024-09-07T08:39:35.163Z,76793,0.1965332,-0.90875244,0.29333496
1725698375211,2024-09-07T08:39:35.211Z,76841,0.19799805,-0.92718506,0.28985596
1725698375224,2024-09-07T08:39:35.224Z,76854,0.20550537,-0.9255371,0.33947754
1725698375257,2024-09-07T08:39:35.257Z,76887,0.20263672,-0.88616943,0.32421875
1725698375300,2024-09-07T08:39:35.300Z,76930,0.23480225,-0.93237305,0.27801514
1725698375342,2024-09-07T08:39:35.342Z,76972,0.19976807,-0.8383179,0.25994873
1725698375390,2024-09-07T08:39:35.390Z,77020,0.19818115,-0.8352051,0.25994873
1725698375435,2024-09-07T08:39:35.435Z,77065,0.12176514,-0.73272705,0.23669434
1725698375483,2024-09-07T08:39:35.483Z,77113,0.13043213,-0.7731323,0.2786255
1725698375530,2024-09-07T08:39:35.530Z,77160,0.18286133,-0.80181885,0.3008423
1725698375576,2024-09-07T08:39:35.576Z,77206,0.14361572,-0.6893921,0.23712158
1725698375617,2024-09-07T08:39:35.617Z,77247,0.11340332,-0.7548828,0.19415283
1725698375636,2024-09-07T08:39:35.636Z,77266,0.13043213,-0.7416992,0.17102051
1725698375660,2024-09-07T08:39:35.660Z,77290,0.06713867,-0.675354,0.14801025
1725698375707,2024-09-07T08:39:35.707Z,77337,0.11779785,-0.76208496,0.19195557
1725698375751,2024-09-07T08:39:35.751Z,77381,0.06713867,-0.7302246,0.15734863
1725698375797,2024-09-07T08:39:35.797Z,77427,0.093566895,-0.7710571,0.11193848
1725698375845,2024-09-07T08:39:35.845Z,77475,0.10473633,-0.8414917,0.06616211
1725698375890,2024-09-07T08:39:35.890Z,77520,0.13323975,-0.8713989,0.12432861
1725698375936,2024-09-07T08:39:35.936Z,77566,0.10601807,-0.8779297,0.20056152
1725698375985,2024-09-07T08:39:35.985Z,77615,0.07183838,-0.8935547,0.2454834
1725698376027,2024-09-07T08:39:36.027Z,77657,0.09069824,-0.916687,0.25579834
1725698376055,2024-09-07T08:39:36.055Z,77685,0.13745117,-0.80566406,0.33874512
1725698376079,2024-09-07T08:39:36.079Z,77709,0.030334473,-0.90319824,0.32666016
1725698376111,2024-09-07T08:39:36.111Z,77741,0.08929443,-0.9998779,0.25854492
1725698376157,2024-09-07T08:39:36.157Z,77787,0.06689453,-1.1122437,0.2713623
1725698376204,2024-09-07T08:39:36.204Z,77834,0.020874023,-1.0449219,0.23413086
1725698376247,2024-09-07T08:39:36.247Z,77877,0.1451416,-1.1411743,0.331604
1725698376299,2024-09-07T08:39:36.299Z,77929,0.2520752,-1.0998535,0.22650146
1725698376338,2024-09-07T08:39:36.338Z,77968,0.16967773,-1.0199585,0.3711548
1725698376386,2024-09-07T08:39:36.386Z,78016,0.28808594,-1.0714722,0.39031982
1725698376425,2024-09-07T08:39:36.425Z,78055,0.45532227,-0.99798584,0.55029297
1725698376474,2024-09-07T08:39:36.474Z,78104,0.43328857,-0.98773193,0.5679321
1725698376494,2024-09-07T08:39:36.494Z,78124,0.36462402,-1.1067505,0.5345459
1725698376513,2024-09-07T08:39:36.513Z,78143,0.35144043,-1.0647583,0.58203125
1725698376564,2024-09-07T08:39:36.564Z,78194,0.36889648,-1.1099243,0.5498047
1725698376609,2024-09-07T08:39:36.609Z,78239,0.47216797,-0.9164429,0.7172241
1725698376657,2024-09-07T08:39:36.657Z,78287,0.31829834,-0.9032593,0.5028076
1725698376700,2024-09-07T08:39:36.700Z,78330,0.38311768,-0.8619995,0.44403076
1725698376744,2024-09-07T08:39:36.744Z,78374,0.17224121,-0.82476807,0.26202393
1725698376787,2024-09-07T08:39:36.787Z,78417,0.27270508,-0.86291504,0.2789917
1725698376833,2024-09-07T08:39:36.833Z,78463,0.3125,-0.84680176,0.30645752
1725698376881,2024-09-07T08:39:36.881Z,78511,0.41687012,-0.7514038,0.4267578
1725698376908,2024-09-07T08:39:36.908Z,78538,0.34765625,-0.6581421,0.5013428
1725698376930,2024-09-07T08:39:36.930Z,78560,0.24859619,-0.8255615,0.39117432
1725698376965,2024-09-07T08:39:36.965Z,78595,0.21594238,-0.7441406,0.43414307
1725698377012,2024-09-07T08:39:37.012Z,78642,0.20721436,-0.8562012,0.43103027
1725698377061,2024-09-07T08:39:37.061Z,78691,0.2855835,-0.8069458,0.45324707
1725698377103,2024-09-07T08:39:37.103Z,78733,0.30718994,-0.9266968,0.43902588
1725698377196,2024-09-07T08:39:37.196Z,78826,0.3357544,-0.8446045,0.49804688
1725698377223,2024-09-07T08:39:37.223Z,78853,0.2843628,-0.8914795,0.43603516
1725698377246,2024-09-07T08:39:37.246Z,78876,0.29333496,-0.8543091,0.43951416
1725698377286,2024-09-07T08:39:37.286Z,78916,0.3040161,-0.9680176,0.3060913
1725698377304,2024-09-07T08:39:37.304Z,78934,0.36065674,-0.7907715,0.3916626
1725698377335,2024-09-07T08:39:37.335Z,78965,0.30871582,-0.92041016,0.3552246
1725698377371,2024-09-07T08:39:37.371Z,79001,0.25726318,-0.8727417,0.40386963
1725698377416,2024-09-07T08:39:37.416Z,79046,0.24304199,-0.88708496,0.4399414
1725698377460,2024-09-07T08:39:37.460Z,79090,0.28485107,-0.8461914,0.48913574
1725698377508,2024-09-07T08:39:37.508Z,79138,0.24682617,-0.89642334,0.3694458
1725698377551,2024-09-07T08:39:37.551Z,79181,0.27001953,-0.8526001,0.42407227
1725698377597,2024-09-07T08:39:37.597Z,79227,0.27178955,-0.84820557,0.399292
1725698377645,2024-09-07T08:39:37.645Z,79275,0.24865723,-0.8569336,0.3623047
1725698377687,2024-09-07T08:39:37.687Z,79317,0.1873169,-0.9205322,0.2831421
1725698377733,2024-09-07T08:39:37.733Z,79363,0.1383667,-0.8399658,0.34332275
1725698377755,2024-09-07T08:39:37.755Z,79385,0.1798706,-0.87683105,0.3529663
1725698377776,2024-09-07T08:39:37.776Z,79406,0.18267822,-0.87835693,0.40551758
1725698377825,2024-09-07T08:39:37.825Z,79455,0.22094727,-0.93304443,0.41119385
1725698377867,2024-09-07T08:39:37.867Z,79497,0.24859619,-0.9105835,0.33203125
1725698377916,2024-09-07T08:39:37.916Z,79546,0.15734863,-1.0022583,0.2977295
1725698377957,2024-09-07T08:39:37.957Z,79587,0.1951294,-0.94433594,0.30096436
1725698378006,2024-09-07T08:39:38.006Z,79636,0.2241211,-0.8911743,0.24029541
1725698378050,2024-09-07T08:39:38.050Z,79680,0.21594238,-0.8765869,0.25909424
1725698378094,2024-09-07T08:39:38.094Z,79724,0.14874268,-0.85913086,0.23602295
1725698378139,2024-09-07T08:39:38.139Z,79769,0.092163086,-0.9251709,0.25146484
1725698378160,2024-09-07T08:39:38.160Z,79790,0.15435791,-0.9447632,0.31304932
1725698378183,2024-09-07T08:39:38.183Z,79813,0.15551758,-0.91119385,0.31921387
1725698378228,2024-09-07T08:39:38.228Z,79858,0.184021,-0.9390259,0.35888672
1725698378272,2024-09-07T08:39:38.272Z,79902,0.10986328,-0.9605713,0.26226807
1725698378320,2024-09-07T08:39:38.320Z,79950,0.11010742,-0.8564453,0.3668213
1725698378366,2024-09-07T08:39:38.366Z,79996,0.061340332,-0.973938,0.23779297
1725698378406,2024-09-07T08:39:38.406Z,80036,0.17016602,-0.9175415,0.29681396
1725698378456,2024-09-07T08:39:38.456Z,80086,0.08404541,-1.0270386,0.206604
1725698378498,2024-09-07T08:39:38.498Z,80128,0.11328125,-0.89611816,0.30474854
1725698378545,2024-09-07T08:39:38.545Z,80175,0.09942627,-1.0522461,0.17779541
1725698378564,2024-09-07T08:39:38.564Z,80194,0.12585449,-0.9437256,0.3098755
1725698378585,2024-09-07T08:39:38.585Z,80215,0.10809326,-0.9697876,0.16259766
1725698378633,2024-09-07T08:39:38.633Z,80263,0.15307617,-0.85754395,0.25390625
1725698378677,2024-09-07T08:39:38.677Z,80307,-0.022521973,-0.9692993,0.1375122
1725698378722,2024-09-07T08:39:38.722Z,80352,0.11029053,-0.8880005,0.18829346
1725698378766,2024-09-07T08:39:38.766Z,80396,0.024902344,-0.9248657,0.18267822
1725698378821,2024-09-07T08:39:38.821Z,80451,0.1361084,-0.9991455,0.33880615
1725698378857,2024-09-07T08:39:38.857Z,80487,0.013549805,-0.99542236,0.27105713
1725698378904,2024-09-07T08:39:38.904Z,80534,0.09777832,-1.0039673,0.31451416
1725698378948,2024-09-07T08:39:38.948Z,80578,0.09979248,-1.0146484,0.2029419
1725698378992,2024-09-07T08:39:38.992Z,80622,0.13739014,-0.9154663,0.19049072
1725698379012,2024-09-07T08:39:39.012Z,80642,0.078552246,-1.0045776,0.15942383
1725698379036,2024-09-07T08:39:39.036Z,80666,0.064941406,-0.83618164,0.20227051
1725698379080,2024-09-07T08:39:39.080Z,80710,-0.03491211,-1.0245361,0.1696167
1725698379126,2024-09-07T08:39:39.126Z,80756,0.072753906,-0.9024658,0.23669434
1725698379170,2024-09-07T08:39:39.170Z,80800,0.089782715,-0.98791504,0.19262695
1725698379216,2024-09-07T08:39:39.216Z,80846,0.121398926,-0.80908203,0.25164795
1725698379261,2024-09-07T08:39:39.261Z,80891,0.015808105,-1.1519775,0.16241455
1725698379306,2024-09-07T08:39:39.306Z,80936,0.035217285,-0.9191284,0.24066162
1725698379354,2024-09-07T08:39:39.354Z,80984,0.09088135,-0.97491455,0.20159912
1725698379400,2024-09-07T08:39:39.400Z,81030,0.040039062,-0.86120605,0.23730469
1725698379426,2024-09-07T08:39:39.426Z,81056,0.08935547,-0.98913574,0.18383789
1725698379450,2024-09-07T08:39:39.450Z,81080,0.041259766,-0.84680176,0.17810059
1725698379488,2024-09-07T08:39:39.488Z,81118,0.064453125,-1.0648193,0.22052002
1725698379532,2024-09-07T08:39:39.532Z,81162,0.06286621,-1.0523071,0.21759033
1725698379579,2024-09-07T08:39:39.579Z,81209,0.09484863,-0.8833618,0.2611084
1725698379621,2024-09-07T08:39:39.621Z,81251,0.10760498,-0.8765259,0.2946167
1725698379668,2024-09-07T08:39:39.668Z,81298,0.14941406,-0.9534912,0.16131592
1725698379712,2024-09-07T08:39:39.712Z,81342,0.029052734,-0.9459839,0.1930542
1725698379760,2024-09-07T08:39:39.760Z,81390,0.068237305,-0.9920044,0.2033081
1725698379801,2024-09-07T08:39:39.801Z,81431,0.08850098,-0.90631104,0.2434082
1725698379821,2024-09-07T08:39:39.821Z,81451,0.087768555,-0.85717773,0.237854
1725698379847,2024-09-07T08:39:39.847Z,81477,0.08129883,-1.0214233,0.23687744
1725698379891,2024-09-07T08:39:39.891Z,81521,0.11755371,-0.90527344,0.24584961
1725698379936,2024-09-07T08:39:39.936Z,81566,0.09320068,-0.91638184,0.2310791
1725698379983,2024-09-07T08:39:39.983Z,81613,0.09118652,-0.88397217,0.24694824
1725698380025,2024-09-07T08:39:40.025Z,81655,0.12359619,-0.9187012,0.20013428
1725698380072,2024-09-07T08:39:40.072Z,81702,0.085510254,-0.94195557,0.20428467
1725698380118,2024-09-07T08:39:40.118Z,81748,0.14654541,-1.0182495,0.25628662
1725698380162,2024-09-07T08:39:40.162Z,81792,0.10546875,-0.77301025,0.29510498
1725698380209,2024-09-07T08:39:40.209Z,81839,0.13134766,-0.9560547,0.3180542
1725698380253,2024-09-07T08:39:40.253Z,81883,0.111328125,-0.9926758,0.2600708
1725698380274,2024-09-07T08:39:40.274Z,81904,0.11090088,-0.9562378,0.23925781
1725698380293,2024-09-07T08:39:40.293Z,81923,0.14160156,-0.7880249,0.23376465
1725698380342,2024-09-07T08:39:40.342Z,81972,0.13800049,-0.96295166,0.2508545
1725698380386,2024-09-07T08:39:40.386Z,82016,0.09301758,-0.82806396,0.27783203
1725698380432,2024-09-07T08:39:40.432Z,82062,0.1338501,-0.96191406,0.32470703
1725698380476,2024-09-07T08:39:40.476Z,82106,0.16088867,-0.8734131,0.262146
1725698380523,2024-09-07T08:39:40.523Z,82153,0.14019775,-0.9746704,0.2913208
1725698380566,2024-09-07T08:39:40.566Z,82196,0.1899414,-0.9550781,0.3045044
1725698380614,2024-09-07T08:39:40.614Z,82244,0.16601562,-0.9081421,0.27197266
1725698380656,2024-09-07T08:39:40.656Z,82286,0.18237305,-0.9314575,0.3156128
1725698380676,2024-09-07T08:39:40.676Z,82306,0.16870117,-0.8638916,0.24993896
1725698380698,2024-09-07T08:39:40.698Z,82328,0.13305664,-0.907959,0.3015747
1725698380747,2024-09-07T08:39:40.747Z,82377,0.18804932,-0.9022217,0.3034668
1725698380790,2024-09-07T08:39:40.790Z,82420,0.15942383,-0.8826904,0.31207275
1725698380839,2024-09-07T08:39:40.839Z,82469,0.18914795,-0.9077759,0.28015137
1725698380885,2024-09-07T08:39:40.885Z,82515,0.24053955,-0.9144287,0.30194092
1725698380928,2024-09-07T08:39:40.928Z,82558,0.21148682,-0.9083252,0.27575684
1725698380974,2024-09-07T08:39:40.974Z,82604,0.22619629,-0.9145508,0.2935791
1725698381020,2024-09-07T08:39:41.020Z,82650,0.19525146,-0.9043579,0.2923584
1725698381065,2024-09-07T08:39:41.065Z,82695,0.18804932,-0.9032593,0.31188965
1725698381089,2024-09-07T08:39:41.089Z,82719,0.18499756,-0.87615967,0.2835083
1725698381112,2024-09-07T08:39:41.112Z,82742,0.19592285,-0.8928833,0.2935791
1725698381150,2024-09-07T08:39:41.150Z,82780,0.17919922,-0.8250122,0.23205566
1725698381202,2024-09-07T08:39:41.202Z,82832,0.13653564,-0.765625,0.29742432
1725698381244,2024-09-07T08:39:41.244Z,82874,0.11212158,-0.80371094,0.32196045
1725698381290,2024-09-07T08:39:41.290Z,82920,0.2074585,-0.78009033,0.32208252
1725698381330,2024-09-07T08:39:41.330Z,82960,0.10266113,-0.6859741,0.22906494
1725698381375,2024-09-07T08:39:41.375Z,83005,0.101135254,-0.7080078,0.20721436
1725698381422,2024-09-07T08:39:41.422Z,83052,0.0690918,-0.722229,0.13665771
1725698381469,2024-09-07T08:39:41.469Z,83099,0.05871582,-0.7330322,0.14428711
1725698381511,2024-09-07T08:39:41.511Z,83141,0.09674072,-0.74957275,0.1694336
1725698381528,2024-09-07T08:39:41.528Z,83158,0.111083984,-0.7571411,0.20172119
1725698381556,2024-09-07T08:39:41.556Z,83186,0.12902832,-0.74853516,0.18572998
1725698381604,2024-09-07T08:39:41.604Z,83234,0.101867676,-0.9393921,0.13928223
1725698381649,2024-09-07T08:39:41.649Z,83279,0.11126709,-0.8539429,0.14093018
1725698381694,2024-09-07T08:39:41.694Z,83324,0.10089111,-0.8642578,0.10253906
1725698381738,2024-09-07T08:39:41.738Z,83368,0.12145996,-0.9640503,0.10321045
1725698381781,2024-09-07T08:39:41.781Z,83411,0.00982666,-0.9835205,0.16656494
1725698381829,2024-09-07T08:39:41.829Z,83459,0.09210205,-0.89178467,0.28485107
1725698381872,2024-09-07T08:39:41.872Z,83502,0.06048584,-0.94317627,0.26635742
1725698381918,2024-09-07T08:39:41.918Z,83548,0.051879883,-0.9867554,0.35198975
1725698381939,2024-09-07T08:39:41.939Z,83569,0.15289307,-1.0272217,0.2803955
1725698381961,2024-09-07T08:39:41.961Z,83591,0.06237793,-1.0189209,0.30981445
1725698382005,2024-09-07T08:39:42.005Z,83635,0.095703125,-1.052124,0.3255005
1725698382053,2024-09-07T08:39:42.053Z,83683,0.27825928,-0.99542236,0.42266846
1725698382097,2024-09-07T08:39:42.097Z,83727,0.18652344,-1.1552734,0.3307495
1725698382143,2024-09-07T08:39:42.143Z,83773,0.1428833,-1.2037354,0.33514404
1725698382188,2024-09-07T08:39:42.188Z,83818,0.10583496,-1.2522583,0.5015259
1725698382233,2024-09-07T08:39:42.233Z,83863,0.24163818,-1.0629883,0.4763794
1725698382279,2024-09-07T08:39:42.279Z,83909,0.380188,-1.0437012,0.5905762
1725698382323,2024-09-07T08:39:42.323Z,83953,0.4091797,-0.9436035,0.49261475
1725698382344,2024-09-07T08:39:42.344Z,83974,0.29089355,-1.0082397,0.45977783
1725698382368,2024-09-07T08:39:42.368Z,83998,0.34490967,-0.97650146,0.41107178
1725698382411,2024-09-07T08:39:42.411Z,84041,0.26898193,-0.92456055,0.43078613
1725698382456,2024-09-07T08:39:42.456Z,84086,0.31066895,-0.95202637,0.45013428
1725698382502,2024-09-07T08:39:42.502Z,84132,0.29785156,-0.90527344,0.30804443
1725698382549,2024-09-07T08:39:42.549Z,84179,0.22979736,-0.81640625,0.46636963
1725698382594,2024-09-07T08:39:42.594Z,84224,0.30377197,-0.8018799,0.38580322
1725698382637,2024-09-07T08:39:42.637Z,84267,0.17041016,-0.82928467,0.3600464
1725698382682,2024-09-07T08:39:42.682Z,84312,0.15625,-0.7420044,0.37426758
1725698382727,2024-09-07T08:39:42.727Z,84357,0.19451904,-0.810791,0.37176514
1725698382772,2024-09-07T08:39:42.772Z,84402,0.22949219,-0.7886963,0.45758057
1725698382792,2024-09-07T08:39:42.792Z,84422,0.23223877,-0.88153076,0.4126587
1725698382817,2024-09-07T08:39:42.817Z,84447,0.29718018,-0.85791016,0.43188477
1725698382860,2024-09-07T08:39:42.860Z,84490,0.22576904,-0.9591675,0.30511475
1725698382909,2024-09-07T08:39:42.909Z,84539,0.25567627,-0.86712646,0.40301514
1725698382950,2024-09-07T08:39:42.950Z,84580,0.27294922,-0.88116455,0.37542725
1725698382995,2024-09-07T08:39:42.995Z,84625,0.2769165,-0.8847656,0.48498535
1725698383044,2024-09-07T08:39:43.044Z,84674,0.24304199,-0.9157715,0.48284912
1725698383086,2024-09-07T08:39:43.086Z,84716,0.25823975,-0.892334,0.4850464
1725698383132,2024-09-07T08:39:43.132Z,84762,0.22808838,-0.8890991,0.42608643
1725698383176,2024-09-07T08:39:43.176Z,84806,0.2510376,-0.8862915,0.38183594
1725698383191,2024-09-07T08:39:43.191Z,84821,0.23669434,-0.9203491,0.3803711
1725698383220,2024-09-07T08:39:43.220Z,84850,0.2341919,-0.85076904,0.35888672
1725698383267,2024-09-07T08:39:43.267Z,84897,0.23358154,-0.84802246,0.32806396
1725698383312,2024-09-07T08:39:43.312Z,84942,0.21136475,-0.9453125,0.32977295
1725698383359,2024-09-07T08:39:43.359Z,84989,0.23175049,-0.88635254,0.3866577
1725698383402,2024-09-07T08:39:43.402Z,85032,0.2218628,-0.9024048,0.29748535
1725698383446,2024-09-07T08:39:43.446Z,85076,0.19525146,-0.88604736,0.35351562
1725698383493,2024-09-07T08:39:43.493Z,85123,0.16229248,-0.9515381,0.33355713
1725698383534,2024-09-07T08:39:43.534Z,85164,0.19232178,-0.88842773,0.4375
1725698383583,2024-09-07T08:39:43.583Z,85213,0.16223145,-0.86572266,0.4151001
1725698383602,2024-09-07T08:39:43.602Z,85232,0.18463135,-0.9085083,0.42108154
1725698383625,2024-09-07T08:39:43.625Z,85255,0.17260742,-0.8748169,0.36572266
1725698383673,2024-09-07T08:39:43.673Z,85303,0.14361572,-0.9963989,0.35736084
1725698383722,2024-09-07T08:39:43.722Z,85352,0.21008301,-0.8616333,0.3805542
1725698383766,2024-09-07T08:39:43.766Z,85396,0.14855957,-0.9263916,0.2592163
1725698383811,2024-09-07T08:39:43.811Z,85441,0.105041504,-0.9211426,0.26135254
1725698383853,2024-09-07T08:39:43.853Z,85483,0.13665771,-0.92388916,0.2033081
1725698383896,2024-09-07T08:39:43.896Z,85526,0.101867676,-0.9484863,0.24353027
1725698383944,2024-09-07T08:39:43.944Z,85574,0.12695312,-0.9281616,0.2695923
1725698383985,2024-09-07T08:39:43.985Z,85615,0.17565918,-0.9332886,0.33221436
1725698384031,2024-09-07T08:39:44.031Z,85661,0.0637207,-1.0309448,0.27294922
1725698384047,2024-09-07T08:39:44.047Z,85677,0.10455322,-0.92285156,0.32159424
1725698384077,2024-09-07T08:39:44.077Z,85707,0.070617676,-0.96447754,0.2345581
1725698384123,2024-09-07T08:39:44.123Z,85753,0.1673584,-0.88897705,0.26208496
1725698384169,2024-09-07T08:39:44.169Z,85799,0.10217285,-0.8901367,0.29327393
1725698384214,2024-09-07T08:39:44.214Z,85844,0.09765625,-0.9448242,0.30786133
1725698384257,2024-09-07T08:39:44.257Z,85887,0.07385254,-0.87402344,0.26013184
1725698384303,2024-09-07T08:39:44.303Z,85933,0.086242676,-1.0449829,0.28045654
1725698384350,2024-09-07T08:39:44.350Z,85980,0.111694336,-0.7811279,0.28741455
1725698384392,2024-09-07T08:39:44.392Z,86022,0.16082764,-0.97558594,0.25927734
1725698384436,2024-09-07T08:39:44.436Z,86066,0.09436035,-0.9234619,0.26831055
1725698384454,2024-09-07T08:39:44.454Z,86084,0.038269043,-1.041626,0.21929932
1725698384481,2024-09-07T08:39:44.481Z,86111,0.07086182,-1.0203247,0.2084961
1725698384525,2024-09-07T08:39:44.525Z,86155,0.09387207,-0.8635254,0.22869873
1725698384572,2024-09-07T08:39:44.572Z,86202,0.112976074,-0.88616943,0.14019775
1725698384619,2024-09-07T08:39:44.619Z,86249,9.765625E-4,-1.0593262,0.10681152
1725698384663,2024-09-07T08:39:44.663Z,86293,0.06329346,-1.0303345,0.21929932
1725698384707,2024-09-07T08:39:44.707Z,86337,0.11627197,-0.8363037,0.2456665
1725698384753,2024-09-07T08:39:44.753Z,86383,0.13720703,-1.0372314,0.25305176
1725698384798,2024-09-07T08:39:44.798Z,86428,0.055541992,-0.9111328,0.2597046
1725698384845,2024-09-07T08:39:44.845Z,86475,0.10852051,-1.0629272,0.22576904
1725698384872,2024-09-07T08:39:44.872Z,86502,0.054260254,-0.8942261,0.21746826
1725698384894,2024-09-07T08:39:44.894Z,86524,0.070739746,-0.98431396,0.23822021
1725698384929,2024-09-07T08:39:44.929Z,86559,0.078063965,-0.8258667,0.23822021
1725698384979,2024-09-07T08:39:44.979Z,86609,0.039916992,-1.0481567,0.19506836
1725698385024,2024-09-07T08:39:45.024Z,86654,0.042114258,-0.89990234,0.19628906
1725698385067,2024-09-07T08:39:45.067Z,86697,0.086364746,-1.010376,0.25323486
1725698385114,2024-09-07T08:39:45.114Z,86744,0.0892334,-0.95751953,0.23730469
1725698385158,2024-09-07T08:39:45.158Z,86788,0.13348389,-0.9803467,0.25915527
1725698385201,2024-09-07T08:39:45.201Z,86831,0.10571289,-0.88916016,0.21917725
1725698385248,2024-09-07T08:39:45.248Z,86878,0.092285156,-0.8925171,0.19573975
1725698385296,2024-09-07T08:39:45.296Z,86926,0.030151367,-0.99102783,0.26953125
1725698385321,2024-09-07T08:39:45.321Z,86951,0.0569458,-0.9750366,0.17034912
1725698385344,2024-09-07T08:39:45.344Z,86974,0.095336914,-0.859375,0.1954956
1725698385382,2024-09-07T08:39:45.382Z,87012,0.12402344,-0.99627686,0.1505127
1725698385428,2024-09-07T08:39:45.428Z,87058,0.12005615,-0.86602783,0.22851562
1725698385471,2024-09-07T08:39:45.471Z,87101,0.10144043,-1.0246582,0.14422607
1725698385516,2024-09-07T08:39:45.516Z,87146,0.0546875,-0.97613525,0.24713135
1725698385562,2024-09-07T08:39:45.562Z,87192,0.10992432,-0.79626465,0.26690674
1725698385606,2024-09-07T08:39:45.606Z,87236,0.11291504,-0.9489136,0.260437
1725698385653,2024-09-07T08:39:45.653Z,87283,0.0713501,-0.90826416,0.21704102
1725698385698,2024-09-07T08:39:45.698Z,87328,0.09124756,-0.96173096,0.20690918
1725698385718,2024-09-07T08:39:45.718Z,87348,0.11517334,-0.9647217,0.23480225
1725698385741,2024-09-07T08:39:45.741Z,87371,0.104003906,-0.92370605,0.28137207
1725698385786,2024-09-07T08:39:45.786Z,87416,0.16357422,-0.97595215,0.28997803
1725698385834,2024-09-07T08:39:45.834Z,87464,0.17175293,-0.9251709,0.23376465
1725698385876,2024-09-07T08:39:45.876Z,87506,0.15106201,-0.8914795,0.22625732
1725698385920,2024-09-07T08:39:45.920Z,87550,0.12084961,-0.99243164,0.19012451
1725698385968,2024-09-07T08:39:45.968Z,87598,0.080566406,-0.88409424,0.21258545
1725698386011,2024-09-07T08:39:46.011Z,87641,0.12335205,-0.8661499,0.21392822
1725698386056,2024-09-07T08:39:46.056Z,87686,0.112854004,-0.880188,0.23431396
1725698386100,2024-09-07T08:39:46.100Z,87730,0.12298584,-0.92626953,0.25579834
1725698386116,2024-09-07T08:39:46.116Z,87746,0.17883301,-0.90771484,0.28167725
1725698386149,2024-09-07T08:39:46.149Z,87779,0.15472412,-0.9785156,0.29644775
1725698386192,2024-09-07T08:39:46.192Z,87822,0.22467041,-0.9225464,0.28082275
1725698386236,2024-09-07T08:39:46.236Z,87866,0.18023682,-0.9022217,0.24371338
1725698386284,2024-09-07T08:39:46.284Z,87914,0.17419434,-0.95965576,0.27923584
1725698386328,2024-09-07T08:39:46.328Z,87958,0.12420654,-0.88153076,0.24475098
1725698386374,2024-09-07T08:39:46.374Z,88004,0.109802246,-0.90148926,0.34313965
1725698386418,2024-09-07T08:39:46.418Z,88048,0.140625,-0.87683105,0.28814697
1725698386464,2024-09-07T08:39:46.464Z,88094,0.17382812,-0.89208984,0.31573486
1725698386509,2024-09-07T08:39:46.509Z,88139,0.20513916,-0.9220581,0.29315186
1725698386532,2024-09-07T08:39:46.532Z,88162,0.21392822,-0.9229126,0.2786255
1725698386566,2024-09-07T08:39:46.566Z,88196,0.22589111,-0.9234619,0.28295898
1725698386599,2024-09-07T08:39:46.599Z,88229,0.21203613,-0.9048462,0.24621582
1725698386641,2024-09-07T08:39:46.641Z,88271,0.20788574,-0.90808105,0.23138428
1725698386685,2024-09-07T08:39:46.685Z,88315,0.19744873,-0.87805176,0.20404053
1725698386734,2024-09-07T08:39:46.734Z,88364,0.17041016,-0.90948486,0.26776123
1725698386782,2024-09-07T08:39:46.782Z,88412,0.19030762,-0.90234375,0.27471924
1725698386828,2024-09-07T08:39:46.828Z,88458,0.1829834,-0.8866577,0.29901123
1725698386869,2024-09-07T08:39:46.869Z,88499,0.20855713,-0.8864136,0.26965332
1725698386912,2024-09-07T08:39:46.912Z,88542,0.18865967,-0.7895508,0.25811768
1725698386956,2024-09-07T08:39:46.956Z,88586,0.16870117,-0.8120117,0.27618408
1725698386973,2024-09-07T08:39:46.973Z,88603,0.12890625,-0.8237915,0.3317871
1725698387012,2024-09-07T08:39:47.012Z,88642,0.10308838,-0.7202759,0.27062988
1725698387048,2024-09-07T08:39:47.048Z,88678,0.07727051,-0.7337036,0.23254395
1725698387093,2024-09-07T08:39:47.093Z,88723,0.07287598,-0.69403076,0.16485596
1725698387138,2024-09-07T08:39:47.138Z,88768,0.10583496,-0.75042725,0.14318848
1725698387184,2024-09-07T08:39:47.184Z,88814,0.020751953,-0.7404785,0.11968994
1725698387229,2024-09-07T08:39:47.229Z,88859,0.09313965,-0.779541,0.08093262
1725698387273,2024-09-07T08:39:47.273Z,88903,0.10736084,-0.80029297,0.005004883
1725698387320,2024-09-07T08:39:47.320Z,88950,0.12762451,-0.85369873,-0.0031738281
1725698387366,2024-09-07T08:39:47.366Z,88996,0.1628418,-0.9440918,-0.026489258
1725698387390,2024-09-07T08:39:47.390Z,89020,0.14172363,-0.9147339,0.0647583
1725698387416,2024-09-07T08:39:47.416Z,89046,0.10284424,-0.946167,0.18487549
1725698387452,2024-09-07T08:39:47.452Z,89082,0.11413574,-0.92333984,0.22998047
1725698387499,2024-09-07T08:39:47.499Z,89129,0.08709717,-0.9295654,0.22589111
1725698387542,2024-09-07T08:39:47.542Z,89172,0.08746338,-0.86047363,0.25500488
1725698387588,2024-09-07T08:39:47.588Z,89218,0.06768799,-0.9316406,0.2713623
1725698387633,2024-09-07T08:39:47.633Z,89263,0.049072266,-0.95983887,0.27178955
1725698387679,2024-09-07T08:39:47.679Z,89309,0.037109375,-1.0465088,0.3793335
1725698387725,2024-09-07T08:39:47.725Z,89355,0.10681152,-1.0084229,0.29101562
1725698387771,2024-09-07T08:39:47.771Z,89401,0.15509033,-1.1140137,0.25097656
1725698387796,2024-09-07T08:39:47.796Z,89426,0.13952637,-1.100769,0.3345337
1725698387819,2024-09-07T08:39:47.819Z,89449,0.2208252,-1.0327148,0.44110107
1725698387856,2024-09-07T08:39:47.856Z,89486,0.3192749,-0.93273926,0.41833496
1725698387903,2024-09-07T08:39:47.903Z,89533,0.34326172,-0.94104004,0.41082764
1725698387948,2024-09-07T08:39:47.948Z,89578,0.4282837,-0.9522705,0.43347168
1725698387993,2024-09-07T08:39:47.993Z,89623,0.41644287,-1.0845337,0.38604736
1725698388042,2024-09-07T08:39:48.042Z,89672,0.3600464,-1.0366821,0.47937012
1725698388086,2024-09-07T08:39:48.086Z,89716,0.39282227,-1.0029297,0.59484863
1725698388130,2024-09-07T08:39:48.130Z,89760,0.52838135,-0.885437,0.756897
1725698388174,2024-09-07T08:39:48.174Z,89804,0.34057617,-0.91552734,0.6460571
1725698388220,2024-09-07T08:39:48.220Z,89850,0.4232788,-0.8284302,0.63830566
1725698388242,2024-09-07T08:39:48.242Z,89872,0.30340576,-0.8508301,0.44610596
1725698388263,2024-09-07T08:39:48.263Z,89893,0.42333984,-0.7797241,0.5280762
1725698388305,2024-09-07T08:39:48.305Z,89935,0.37634277,-0.8054199,0.48242188
1725698388352,2024-09-07T08:39:48.352Z,89982,0.2944336,-0.770813,0.33935547
1725698388396,2024-09-07T08:39:48.396Z,90026,0.3053589,-0.82873535,0.37176514
1725698388441,2024-09-07T08:39:48.441Z,90071,0.2874756,-0.79852295,0.37164307
1725698388488,2024-09-07T08:39:48.488Z,90118,0.39208984,-0.74798584,0.35705566
1725698388531,2024-09-07T08:39:48.531Z,90161,0.34960938,-0.80548096,0.45129395
1725698388575,2024-09-07T08:39:48.575Z,90205,0.30249023,-0.7770996,0.49505615
1725698388623,2024-09-07T08:39:48.623Z,90253,0.27819824,-0.90545654,0.43884277
1725698388641,2024-09-07T08:39:48.641Z,90271,0.27008057,-0.7746582,0.5534668
1725698388665,2024-09-07T08:39:48.665Z,90295,0.30377197,-0.8897705,0.42041016
1725698388756,2024-09-07T08:39:48.756Z,90386,0.33581543,-0.8308716,0.45043945
1725698388774,2024-09-07T08:39:48.774Z,90404,0.24560547,-0.8989868,0.45959473
1725698388800,2024-09-07T08:39:48.800Z,90430,0.34820557,-0.80914307,0.4697876
1725698388847,2024-09-07T08:39:48.847Z,90477,0.3435669,-0.8900757,0.3173828
1725698388892,2024-09-07T08:39:48.892Z,90522,0.28631592,-0.8994751,0.38275146
1725698388939,2024-09-07T08:39:48.939Z,90569,0.28125,-0.90448,0.36639404
1725698388981,2024-09-07T08:39:48.981Z,90611,0.32177734,-0.87701416,0.46691895
1725698389026,2024-09-07T08:39:49.026Z,90656,0.23565674,-0.8944702,0.3897705
1725698389044,2024-09-07T08:39:49.044Z,90674,0.25354004,-0.8329468,0.40081787
1725698389071,2024-09-07T08:39:49.071Z,90701,0.21624756,-0.8543701,0.32562256
1725698389116,2024-09-07T08:39:49.116Z,90746,0.16516113,-0.86621094,0.36065674
1725698389162,2024-09-07T08:39:49.162Z,90792,0.20092773,-0.9152832,0.4282837
1725698389208,2024-09-07T08:39:49.208Z,90838,0.21356201,-0.87054443,0.4085083
1725698389252,2024-09-07T08:39:49.252Z,90882,0.20092773,-0.88323975,0.44543457
1725698389298,2024-09-07T08:39:49.298Z,90928,0.14233398,-0.9415283,0.28503418
1725698389345,2024-09-07T08:39:49.345Z,90975,0.19641113,-0.94073486,0.36535645
1725698389389,2024-09-07T08:39:49.389Z,91019,0.1574707,-0.9293213,0.3180542
1725698389434,2024-09-07T08:39:49.434Z,91064,0.24151611,-0.8822632,0.41558838
1725698389476,2024-09-07T08:39:49.476Z,91106,0.25897217,-0.81866455,0.26678467
1725698389496,2024-09-07T08:39:49.496Z,91126,0.19415283,-0.89190674,0.2376709
1725698389520,2024-09-07T08:39:49.520Z,91150,0.046936035,-0.9959717,0.2647705
1725698389565,2024-09-07T08:39:49.565Z,91195,0.1463623,-0.98547363,0.380188
1725698389612,2024-09-07T08:39:49.612Z,91242,0.1359253,-0.84539795,0.33789062
1725698389658,2024-09-07T08:39:49.658Z,91288,0.17944336,-0.9250488,0.36260986
1725698389703,2024-09-07T08:39:49.703Z,91333,0.114746094,-0.84277344,0.31939697
1725698389746,2024-09-07T08:39:49.746Z,91376,0.08502197,-1.0032959,0.3267212
1725698389792,2024-09-07T08:39:49.792Z,91422,0.08679199,-0.9371948,0.31054688
1725698389837,2024-09-07T08:39:49.837Z,91467,0.12841797,-0.9974365,0.20703125
1725698389883,2024-09-07T08:39:49.883Z,91513,0.22991943,-0.82995605,0.16674805
1725698389899,2024-09-07T08:39:49.899Z,91529,0.1281128,-0.95147705,0.17840576
1725698389922,2024-09-07T08:39:49.922Z,91552,0.10583496,-0.9980469,0.2515869
1725698389970,2024-09-07T08:39:49.970Z,91600,0.010009766,-1.0445557,0.24591064
1725698390014,2024-09-07T08:39:50.014Z,91644,0.1593628,-0.885437,0.34362793
1725698390062,2024-09-07T08:39:50.062Z,91692,0.15667725,-0.9560547,0.2730713
1725698390107,2024-09-07T08:39:50.107Z,91737,0.1541748,-0.8912964,0.289917
1725698390152,2024-09-07T08:39:50.152Z,91782,0.07635498,-1.006897,0.22705078
1725698390195,2024-09-07T08:39:50.195Z,91825,0.06317139,-0.9996948,0.20831299
1725698390242,2024-09-07T08:39:50.242Z,91872,0.002380371,-0.99298096,0.17242432
1725698390289,2024-09-07T08:39:50.289Z,91919,0.052246094,-0.8760376,0.18560791
1725698390307,2024-09-07T08:39:50.307Z,91937,0.107177734,-0.9005127,0.19818115
1725698390330,2024-09-07T08:39:50.330Z,91960,0.054870605,-0.9290161,0.17578125
1725698390379,2024-09-07T08:39:50.379Z,92009,0.06237793,-0.89245605,0.25512695
1725698390422,2024-09-07T08:39:50.422Z,92052,0.08856201,-0.91516113,0.20581055
1725698390470,2024-09-07T08:39:50.470Z,92100,0.0960083,-0.9008789,0.19696045
1725698390515,2024-09-07T08:39:50.515Z,92145,0.072753906,-1.0083618,0.22216797
1725698390559,2024-09-07T08:39:50.559Z,92189,0.057128906,-0.9440918,0.22149658
1725698390602,2024-09-07T08:39:50.602Z,92232,0.047180176,-1.0352173,0.21185303
1725698390646,2024-09-07T08:39:50.646Z,92276,0.112976074,-0.958313,0.23272705
1725698390694,2024-09-07T08:39:50.694Z,92324,0.080322266,-1.0355225,0.20574951
1725698390741,2024-09-07T08:39:50.741Z,92371,0.13934326,-0.852417,0.14538574
1725698390760,2024-09-07T08:39:50.760Z,92390,0.07867432,-0.9748535,0.06359863
1725698390781,2024-09-07T08:39:50.781Z,92411,-0.032409668,-0.9934082,0.06036377
1725698390826,2024-09-07T08:39:50.826Z,92456,-0.005004883,-0.96765137,0.12158203
1725698390869,2024-09-07T08:39:50.869Z,92499,0.10510254,-0.87323,0.2189331
1725698390918,2024-09-07T08:39:50.918Z,92548,0.22467041,-0.9440918,0.2715454
1725698391008,2024-09-07T08:39:51.008Z,92638,0.21820068,-0.85528564,0.16314697
1725698391028,2024-09-07T08:39:51.028Z,92658,0.2420044,-1.0532837,0.20117188
1725698391053,2024-09-07T08:39:51.053Z,92683,0.19165039,-0.97888184,0.24902344
1725698391095,2024-09-07T08:39:51.095Z,92725,0.061706543,-0.9851074,0.28582764
1725698391141,2024-09-07T08:39:51.141Z,92771,0.08203125,-0.83154297,0.19885254
1725698391158,2024-09-07T08:39:51.158Z,92788,0.03564453,-0.79003906,0.13006592
1725698391186,2024-09-07T08:39:51.186Z,92816,0.0037231445,-0.9180908,0.08508301
1725698391230,2024-09-07T08:39:51.230Z,92860,0.052978516,-1.08844,0.06341553
1725698391278,2024-09-07T08:39:51.278Z,92908,0.0803833,-1.052002,0.10296631
1725698391323,2024-09-07T08:39:51.323Z,92953,0.14086914,-0.89819336,0.22314453
1725698391368,2024-09-07T08:39:51.368Z,92998,0.23156738,-0.9412842,0.23577881
1725698391414,2024-09-07T08:39:51.414Z,93044,0.2164917,-1.0494385,0.2567749
1725698391458,2024-09-07T08:39:51.458Z,93088,0.15539551,-0.9744873,0.2668457
1725698391504,2024-09-07T08:39:51.504Z,93134,0.16992188,-0.9351196,0.27227783
1725698391546,2024-09-07T08:39:51.546Z,93176,0.15625,-0.97528076,0.26184082
1725698391574,2024-09-07T08:39:51.574Z,93204,0.11138916,-0.89849854,0.2411499
1725698391590,2024-09-07T08:39:51.590Z,93220,0.1418457,-0.90649414,0.19946289
1725698391636,2024-09-07T08:39:51.636Z,93266,0.13830566,-0.8512573,0.17749023
1725698391683,2024-09-07T08:39:51.683Z,93313,0.17138672,-0.9404907,0.1430664
1725698391728,2024-09-07T08:39:51.728Z,93358,0.19091797,-0.89501953,0.14971924
1725698391771,2024-09-07T08:39:51.771Z,93401,0.24499512,-0.96191406,0.1630249
1725698391816,2024-09-07T08:39:51.816Z,93446,0.2699585,-0.8881836,0.20440674
1725698391863,2024-09-07T08:39:51.863Z,93493,0.291687,-0.87286377,0.18225098
1725698391907,2024-09-07T08:39:51.907Z,93537,0.24969482,-0.9238281,0.1763916
1725698391956,2024-09-07T08:39:51.956Z,93586,0.22698975,-0.9006958,0.10986328
1725698392002,2024-09-07T08:39:52.002Z,93632,0.23669434,-0.84368896,0.08666992
1725698392029,2024-09-07T08:39:52.029Z,93659,0.25402832,-0.8721924,0.13604736
1725698392051,2024-09-07T08:39:52.051Z,93681,0.21685791,-0.8079834,0.21984863
1725698392084,2024-09-07T08:39:52.084Z,93714,0.17175293,-0.8831177,0.34222412
1725698392145,2024-09-07T08:39:52.145Z,93775,0.18450928,-0.8911133,0.36932373
1725698392180,2024-09-07T08:39:52.180Z,93810,0.22784424,-0.91308594,0.38153076
1725698392224,2024-09-07T08:39:52.224Z,93854,0.26586914,-0.9121094,0.31237793
1725698392267,2024-09-07T08:39:52.267Z,93897,0.29180908,-0.9511719,0.26037598
1725698392314,2024-09-07T08:39:52.314Z,93944,0.29626465,-0.9082031,0.22442627
1725698392357,2024-09-07T08:39:52.357Z,93987,0.3048706,-0.92755127,0.21728516
1725698392402,2024-09-07T08:39:52.402Z,94032,0.26013184,-0.89971924,0.2532959
1725698392419,2024-09-07T08:39:52.419Z,94049,0.23968506,-0.90216064,0.26507568
1725698392442,2024-09-07T08:39:52.442Z,94072,0.203125,-0.9008789,0.22454834
1725698392485,2024-09-07T08:39:52.485Z,94115,0.26623535,-0.9163208,0.17803955
1725698392531,2024-09-07T08:39:52.531Z,94161,0.25958252,-0.92401123,0.120788574
