Timestamp (ms),ISO DateTime,Elapsed Time (ms),Acceleration X,Acceleration Y,Acceleration Z
1725816696913,2024-09-08T17:31:36.913Z,200452,0.21868896,-0.8597412,0.38049316
1725816696927,2024-09-08T17:31:36.927Z,200466,0.2290039,-0.8557739,0.402771
1725816696950,2024-09-08T17:31:36.950Z,200489,0.23706055,-0.84332275,0.40716553
1725816696994,2024-09-08T17:31:36.994Z,200533,0.23596191,-0.83477783,0.41674805
1725816697039,2024-09-08T17:31:37.039Z,200578,0.23693848,-0.8446655,0.4225464
1725816697082,2024-09-08T17:31:37.082Z,200621,0.2859497,-0.8935547,0.3897705
1725816697142,2024-09-08T17:31:37.142Z,200681,0.3274536,-0.8833008,0.36328125
1725816697178,2024-09-08T17:31:37.178Z,200717,0.3394165,-0.8988037,0.38586426
1725816697223,2024-09-08T17:31:37.223Z,200762,0.26550293,-0.87719727,0.41748047
1725816697270,2024-09-08T17:31:37.270Z,200809,0.18023682,-0.85357666,0.44586182
1725816697293,2024-09-08T17:31:37.293Z,200832,0.16955566,-0.8513794,0.447937
1725816697313,2024-09-08T17:31:37.313Z,200852,0.17828369,-0.84259033,0.42956543
1725816697413,2024-09-08T17:31:37.413Z,200952,0.20898438,-0.84539795,0.40704346
1725816697432,2024-09-08T17:31:37.432Z,200971,0.23876953,-0.8554077,0.36376953
1725816697447,2024-09-08T17:31:37.447Z,200986,0.270813,-0.8779907,0.3694458
1725816697495,2024-09-08T17:31:37.495Z,201034,0.25915527,-0.8647461,0.39343262
1725816697537,2024-09-08T17:31:37.537Z,201076,0.23706055,-0.8422241,0.44171143
1725816697584,2024-09-08T17:31:37.584Z,201123,0.22521973,-0.8468628,0.42687988
1725816697631,2024-09-08T17:31:37.631Z,201170,0.2321167,-0.8404541,0.41589355
1725816697677,2024-09-08T17:31:37.677Z,201216,0.25604248,-0.8647461,0.42218018
1725816697768,2024-09-08T17:31:37.768Z,201307,0.2477417,-0.8707886,0.38891602
1725816697794,2024-09-08T17:31:37.794Z,201333,0.24078369,-0.8841553,0.3842163
1725816697818,2024-09-08T17:31:37.818Z,201357,0.24182129,-0.873291,0.37670898
1725816697839,2024-09-08T17:31:37.839Z,201378,0.22729492,-0.8641968,0.38000488
1725816697857,2024-09-08T17:31:37.857Z,201396,0.23809814,-0.85461426,0.3951416
1725816697945,2024-09-08T17:31:37.945Z,201484,0.20404053,-0.8397827,0.40307617
1725816697965,2024-09-08T17:31:37.965Z,201504,0.15167236,-0.8432617,0.39562988
1725816697987,2024-09-08T17:31:37.987Z,201526,0.1921997,-0.8756714,0.41430664
1725816698033,2024-09-08T17:31:38.033Z,201572,0.23895264,-0.88067627,0.39587402
1725816698079,2024-09-08T17:31:38.079Z,201618,0.28338623,-0.86346436,0.38867188
1725816698124,2024-09-08T17:31:38.124Z,201663,0.31347656,-0.85491943,0.44085693
1725816698146,2024-09-08T17:31:38.146Z,201685,0.30334473,-0.8774414,0.449646
1725816698166,2024-09-08T17:31:38.166Z,201705,0.2991333,-0.8587036,0.40570068
1725816698211,2024-09-08T17:31:38.211Z,201750,0.2626953,-0.8343506,0.4215088
1725816698258,2024-09-08T17:31:38.258Z,201797,0.2244873,-0.8273926,0.40655518
1725816698304,2024-09-08T17:31:38.304Z,201843,0.21575928,-0.85198975,0.41485596
1725816698354,2024-09-08T17:31:38.354Z,201893,0.18878174,-0.86047363,0.4364624
1725816698396,2024-09-08T17:31:38.396Z,201935,0.17370605,-0.83569336,0.45770264
1725816698441,2024-09-08T17:31:38.441Z,201980,0.20953369,-0.8505249,0.42034912
1725816698485,2024-09-08T17:31:38.485Z,202024,0.2619629,-0.87609863,0.41680908
1725816698529,2024-09-08T17:31:38.529Z,202068,0.22802734,-0.883667,0.3927002
1725816698549,2024-09-08T17:31:38.549Z,202088,0.2286377,-0.87939453,0.3474121
1725816698574,2024-09-08T17:31:38.574Z,202113,0.27496338,-0.9182739,0.38311768
1725816698666,2024-09-08T17:31:38.666Z,202205,0.2645874,-0.87042236,0.42913818
1725816698683,2024-09-08T17:31:38.683Z,202222,0.24407959,-0.833313,0.4697876
1725816698707,2024-09-08T17:31:38.707Z,202246,0.12579346,-0.730896,0.48272705
1725816698755,2024-09-08T17:31:38.755Z,202294,0.10821533,-0.72003174,0.39923096
1725816698801,2024-09-08T17:31:38.801Z,202340,0.12237549,-0.8267212,0.34680176
1725816698848,2024-09-08T17:31:38.848Z,202387,0.2576294,-0.8594971,0.27557373
1725816698892,2024-09-08T17:31:38.892Z,202431,0.18804932,-0.8657837,0.3375244
1725816698936,2024-09-08T17:31:38.936Z,202475,0.047424316,-0.881897,0.6759033
1725816698983,2024-09-08T17:31:38.983Z,202522,0.29071045,-0.64837646,0.5513916
1725816699010,2024-09-08T17:31:39.010Z,202549,0.2501831,-0.71435547,0.17993164
1725816699027,2024-09-08T17:31:39.027Z,202566,0.026062012,-0.68530273,0.06451416
1725816699068,2024-09-08T17:31:39.068Z,202607,0.036193848,-0.6144409,0.24017334
1725816699112,2024-09-08T17:31:39.112Z,202651,0.20391846,-0.68774414,0.32434082
1725816699159,2024-09-08T17:31:39.159Z,202698,0.18414307,-0.80249023,0.30273438
1725816699205,2024-09-08T17:31:39.205Z,202744,0.13366699,-0.809021,0.18078613
1725816699251,2024-09-08T17:31:39.251Z,202790,0.1449585,-0.8076782,0.159729
1725816699341,2024-09-08T17:31:39.341Z,202880,0.08728027,-0.80114746,0.38763428
1725816699360,2024-09-08T17:31:39.360Z,202899,0.093322754,-0.7623291,0.36468506
1725816699381,2024-09-08T17:31:39.381Z,202920,0.054382324,-0.83099365,0.25219727
1725816699392,2024-09-08T17:31:39.392Z,202931,0.1105957,-0.8925781,0.40161133
1725816699426,2024-09-08T17:31:39.426Z,202965,0.2062378,-0.93237305,0.4835205
1725816699472,2024-09-08T17:31:39.472Z,203011,0.3065796,-0.9282837,0.18817139
1725816699516,2024-09-08T17:31:39.516Z,203055,0.19012451,-1.064209,0.092041016
1725816699564,2024-09-08T17:31:39.564Z,203103,0.25195312,-0.8737793,0.3821411
1725816699610,2024-09-08T17:31:39.610Z,203149,0.14318848,-0.9854126,0.340271
1725816699653,2024-09-08T17:31:39.653Z,203192,0.24621582,-1.0206299,0.3554077
1725816699746,2024-09-08T17:31:39.746Z,203285,0.22943115,-0.96832275,0.51293945
1725816699765,2024-09-08T17:31:39.765Z,203304,0.093444824,-1.0513916,0.5309448
1725816699788,2024-09-08T17:31:39.788Z,203327,0.2947998,-0.99365234,0.5975342
1725816699801,2024-09-08T17:31:39.801Z,203340,0.5737915,-0.85272217,0.72283936
1725816699878,2024-09-08T17:31:39.878Z,203417,0.5204468,-0.77801514,0.8594971
1725816699896,2024-09-08T17:31:39.896Z,203435,0.37573242,-0.77453613,0.64642334
1725816699921,2024-09-08T17:31:39.921Z,203460,0.15039062,-1.0874023,0.17706299
1725816699967,2024-09-08T17:31:39.967Z,203506,0.42889404,-0.9567871,0.5192261
1725816700016,2024-09-08T17:31:40.016Z,203555,0.50720215,-0.81085205,1.1117554
1725816700059,2024-09-08T17:31:40.059Z,203598,0.3369751,-0.75146484,1.142395
1725816700106,2024-09-08T17:31:40.106Z,203645,0.33398438,-0.87646484,1.0333252
1725816700150,2024-09-08T17:31:40.150Z,203689,0.40338135,-1.0875854,0.755249
1725816700196,2024-09-08T17:31:40.196Z,203735,0.3862915,-0.7036133,0.70928955
1725816700238,2024-09-08T17:31:40.238Z,203777,0.19329834,-0.7207031,0.68273926
1725816700260,2024-09-08T17:31:40.260Z,203799,0.23028564,-0.8463745,0.39794922
1725816700284,2024-09-08T17:31:40.284Z,203823,0.14898682,-1.0632324,0.3970337
1725816700328,2024-09-08T17:31:40.328Z,203867,0.109313965,-1.1167603,0.633667
1725816700373,2024-09-08T17:31:40.373Z,203912,0.30322266,-0.8919678,0.90789795
1725816700421,2024-09-08T17:31:40.421Z,203960,0.5095215,-0.6847534,0.2913208
1725816700467,2024-09-08T17:31:40.467Z,204006,0.26190186,-0.85272217,-0.026855469
1725816700563,2024-09-08T17:31:40.563Z,204102,-0.13891602,-1.2634888,0.011047363
1725816700581,2024-09-08T17:31:40.581Z,204120,0.27520752,-1.3691406,0.43444824
1725816700595,2024-09-08T17:31:40.595Z,204134,0.3739624,-0.4897461,0.72351074
1725816700642,2024-09-08T17:31:40.642Z,204181,-0.020202637,-0.4251709,0.36224365
1725816700659,2024-09-08T17:31:40.659Z,204198,-0.31072998,-1.196228,-0.101623535
1725816700694,2024-09-08T17:31:40.694Z,204233,0.20043945,-1.1932373,0.5317993
1725816700732,2024-09-08T17:31:40.732Z,204271,0.46624756,-0.6428833,0.7719116
1725816700778,2024-09-08T17:31:40.778Z,204317,0.0015869141,-0.8775635,0.18481445
1725816700823,2024-09-08T17:31:40.823Z,204362,-0.03149414,-0.8161011,0.13079834
1725816700870,2024-09-08T17:31:40.870Z,204409,0.22497559,-0.7501831,0.34545898
1725816700912,2024-09-08T17:31:40.912Z,204451,0.2623291,-0.7258911,0.31774902
1725816701004,2024-09-08T17:31:41.004Z,204543,-0.01373291,-0.98291016,0.36499023
1725816701022,2024-09-08T17:31:41.022Z,204561,0.04626465,-0.8088989,0.27526855
1725816701048,2024-09-08T17:31:41.048Z,204587,0.3114624,-0.51226807,0.16674805
1725816701063,2024-09-08T17:31:41.063Z,204602,-0.11907959,-0.90856934,0.19244385
1725816701091,2024-09-08T17:31:41.091Z,204630,0.08508301,-0.9744873,0.48901367
1725816701139,2024-09-08T17:31:41.139Z,204678,0.32556152,-0.90826416,0.51605225
1725816701180,2024-09-08T17:31:41.180Z,204719,0.2536621,-0.70806885,0.25079346
1725816701229,2024-09-08T17:31:41.229Z,204768,-0.10601807,-0.7253418,0.2972412
1725816701274,2024-09-08T17:31:41.274Z,204813,-0.045532227,-0.79467773,0.3260498
1725816701324,2024-09-08T17:31:41.324Z,204863,0.24346924,-0.8562012,0.49871826
1725816701364,2024-09-08T17:31:41.364Z,204903,0.3076172,-0.9220581,0.49102783
1725816701410,2024-09-08T17:31:41.410Z,204949,0.15234375,-0.95166016,0.48364258
1725816701456,2024-09-08T17:31:41.456Z,204995,0.04748535,-0.6491089,0.4362793
1725816701498,2024-09-08T17:31:41.498Z,205037,0.023071289,-0.520813,0.18353271
1725816701543,2024-09-08T17:31:41.543Z,205082,0.29779053,-0.9938965,0.5281372
1725816701562,2024-09-08T17:31:41.562Z,205101,0.13806152,-1.0059814,0.69317627
1725816701587,2024-09-08T17:31:41.587Z,205126,0.051086426,-0.7781372,0.41149902
1725816701631,2024-09-08T17:31:41.631Z,205170,0.24395752,-0.83807373,0.24023438
1725816701679,2024-09-08T17:31:41.679Z,205218,0.2164917,-0.9730835,0.32177734
1725816701723,2024-09-08T17:31:41.723Z,205262,0.13226318,-0.81799316,0.4734497
1725816701768,2024-09-08T17:31:41.768Z,205307,0.17700195,-0.7824707,0.47351074
1725816701813,2024-09-08T17:31:41.813Z,205352,0.1795044,-0.8618164,0.3548584
1725816701858,2024-09-08T17:31:41.858Z,205397,0.12994385,-0.89697266,0.26287842
1725816701905,2024-09-08T17:31:41.905Z,205444,0.19384766,-0.9266968,0.35650635
1725816701926,2024-09-08T17:31:41.926Z,205465,0.2041626,-0.8322754,0.46398926
1725816701948,2024-09-08T17:31:41.948Z,205487,0.20129395,-0.82696533,0.52893066
1725816701991,2024-09-08T17:31:41.991Z,205530,0.12451172,-0.8617554,0.5812988
1725816702036,2024-09-08T17:31:42.036Z,205575,0.1105957,-0.82147217,0.5170288
1725816702083,2024-09-08T17:31:42.083Z,205622,0.12994385,-0.85113525,0.43585205
1725816702128,2024-09-08T17:31:42.128Z,205667,0.0635376,-0.8413696,0.421875
1725816702174,2024-09-08T17:31:42.174Z,205713,0.14611816,-0.82873535,0.46466064
1725816702221,2024-09-08T17:31:42.221Z,205760,0.23376465,-0.8479004,0.5703125
1725816702266,2024-09-08T17:31:42.266Z,205805,0.24420166,-0.91064453,0.43200684
1725816702309,2024-09-08T17:31:42.309Z,205848,0.11364746,-0.8842163,0.21557617
1725816702328,2024-09-08T17:31:42.328Z,205867,0.13342285,-0.80584717,0.25671387
1725816702353,2024-09-08T17:31:42.353Z,205892,0.10656738,-0.7817993,0.3414917
1725816702398,2024-09-08T17:31:42.398Z,205937,0.11035156,-0.7498169,0.37774658
1725816702442,2024-09-08T17:31:42.442Z,205981,0.2119751,-0.77453613,0.3788452
1725816702490,2024-09-08T17:31:42.490Z,206029,0.06762695,-0.84973145,0.25769043
1725816702536,2024-09-08T17:31:42.536Z,206075,0.19195557,-0.75561523,0.3135376
1725816702579,2024-09-08T17:31:42.579Z,206118,0.07745361,-0.7456665,0.32287598
1725816702626,2024-09-08T17:31:42.626Z,206165,0.11975098,-0.8933716,0.23919678
1725816702667,2024-09-08T17:31:42.667Z,206206,0.1885376,-0.8963623,0.40759277
1725816702714,2024-09-08T17:31:42.714Z,206253,0.08538818,-0.79315186,0.4833374
1725816702806,2024-09-08T17:31:42.806Z,206345,0.042297363,-0.8567505,0.3826294
1725816702830,2024-09-08T17:31:42.830Z,206369,0.17120361,-0.8380127,0.2456665
1725816702852,2024-09-08T17:31:42.852Z,206391,0.13000488,-0.9577637,0.34979248
1725816702874,2024-09-08T17:31:42.874Z,206413,0.1251831,-0.7963867,0.3446045
1725816702899,2024-09-08T17:31:42.899Z,206438,0.10809326,-0.8555298,0.23968506
1725816702940,2024-09-08T17:31:42.940Z,206479,0.12719727,-0.83221436,0.2600708
1725816702983,2024-09-08T17:31:42.983Z,206522,0.16668701,-0.8216553,0.16564941
1725816703028,2024-09-08T17:31:43.028Z,206567,0.10247803,-0.80651855,0.22845459
1725816703075,2024-09-08T17:31:43.075Z,206614,0.18365479,-0.7647095,0.24505615
1725816703123,2024-09-08T17:31:43.123Z,206662,0.0869751,-0.9031372,0.052978516
1725816703163,2024-09-08T17:31:43.163Z,206702,0.11669922,-0.8866577,0.25097656
1725816703182,2024-09-08T17:31:43.182Z,206721,0.26617432,-0.92681885,0.3184204
1725816703206,2024-09-08T17:31:43.206Z,206745,0.17230225,-1.0229492,0.30981445
1725816703343,2024-09-08T17:31:43.343Z,206882,0.27893066,-0.901001,0.45465088
1725816703367,2024-09-08T17:31:43.367Z,206906,0.101989746,-1.1677856,0.29205322
1725816703391,2024-09-08T17:31:43.391Z,206930,0.29675293,-0.94958496,0.5824585
1725816703411,2024-09-08T17:31:43.411Z,206950,0.2774048,-0.83203125,0.72265625
1725816703429,2024-09-08T17:31:43.429Z,206968,0.1574707,-1.0618286,0.31311035
1725816703477,2024-09-08T17:31:43.477Z,207016,0.30096436,-1.0189209,0.5072632
1725816703525,2024-09-08T17:31:43.525Z,207064,0.69281006,-0.69799805,0.73895264
1725816703568,2024-09-08T17:31:43.568Z,207107,0.48077393,-0.6820679,0.7886963
1725816703585,2024-09-08T17:31:43.585Z,207124,0.41906738,-0.8626709,0.56811523
1725816703624,2024-09-08T17:31:43.624Z,207163,0.30047607,-0.8550415,0.47924805
1725816703659,2024-09-08T17:31:43.659Z,207198,0.3692627,-0.63983154,0.802063
1725816703704,2024-09-08T17:31:43.704Z,207243,0.46551514,-0.6541748,0.87298584
1725816703746,2024-09-08T17:31:43.746Z,207285,0.40979004,-0.9276123,0.8062744
1725816703794,2024-09-08T17:31:43.794Z,207333,0.45367432,-0.9946289,0.651001
1725816703841,2024-09-08T17:31:43.841Z,207380,0.4824829,-0.7871704,1.0154419
1725816703885,2024-09-08T17:31:43.885Z,207424,0.34820557,-0.53930664,1.0528564
1725816703929,2024-09-08T17:31:43.929Z,207468,0.115112305,-0.76464844,0.5292969
1725816703976,2024-09-08T17:31:43.976Z,207515,0.31420898,-0.97198486,0.25793457
1725816704019,2024-09-08T17:31:44.019Z,207558,0.49676514,-1.0482788,0.27905273
1725816704036,2024-09-08T17:31:44.036Z,207575,0.31896973,-0.73724365,0.557312
1725816704062,2024-09-08T17:31:44.062Z,207601,0.12145996,-0.79473877,0.66741943
1725816704108,2024-09-08T17:31:44.108Z,207647,0.17974854,-1.0891724,0.5308838
1725816704152,2024-09-08T17:31:44.152Z,207691,0.3977661,-0.798645,0.63342285
1725816704199,2024-09-08T17:31:44.199Z,207738,0.121154785,-0.6036377,0.3560791
1725816704289,2024-09-08T17:31:44.289Z,207828,0.12573242,-0.93847656,0.3768921
1725816704308,2024-09-08T17:31:44.308Z,207847,0.19451904,-1.1358643,0.5430298
1725816704332,2024-09-08T17:31:44.332Z,207871,0.33062744,-0.84942627,0.5877075
1725816704378,2024-09-08T17:31:44.378Z,207917,0.21685791,-0.8060913,0.40618896
1725816704424,2024-09-08T17:31:44.424Z,207963,0.1194458,-0.8140259,0.1984253
1725816704443,2024-09-08T17:31:44.443Z,207982,-0.018066406,-0.97753906,0.36706543
1725816704466,2024-09-08T17:31:44.466Z,208005,0.09814453,-0.9211426,0.47790527
1725816704512,2024-09-08T17:31:44.512Z,208051,0.2666626,-0.95092773,0.25646973
1725816704559,2024-09-08T17:31:44.559Z,208098,0.09118652,-1.1221313,0.09790039
1725816704605,2024-09-08T17:31:44.605Z,208144,0.13140869,-0.79119873,0.2611084
1725816704650,2024-09-08T17:31:44.650Z,208189,0.078063965,-0.92681885,0.57714844
1725816704695,2024-09-08T17:31:44.695Z,208234,0.06518555,-0.6107178,0.24780273
1725816704748,2024-09-08T17:31:44.748Z,208287,0.085510254,-0.8685913,-0.048339844
1725816704827,2024-09-08T17:31:44.827Z,208366,0.08691406,-0.8033447,0.38006592
1725816704846,2024-09-08T17:31:44.846Z,208385,0.25299072,-0.9590454,0.4161377
1725816704865,2024-09-08T17:31:44.865Z,208404,-0.020324707,-1.2345581,0.2994995
1725816704882,2024-09-08T17:31:44.882Z,208421,0.26379395,-0.7407837,0.46929932
1725816704919,2024-09-08T17:31:44.919Z,208458,0.09887695,-0.8173828,0.33184814
1725816704963,2024-09-08T17:31:44.963Z,208502,-0.011413574,-0.694458,0.23553467
1725816705009,2024-09-08T17:31:45.009Z,208548,-0.026489258,-0.92926025,0.29382324
1725816705053,2024-09-08T17:31:45.053Z,208592,0.076171875,-1.0128784,0.31292725
1725816705147,2024-09-08T17:31:45.147Z,208686,0.3137207,-0.79022217,0.34503174
1725816705166,2024-09-08T17:31:45.166Z,208705,0.26220703,-0.9209595,0.35760498
1725816705187,2024-09-08T17:31:45.187Z,208726,0.06011963,-1.1819458,0.16357422
1725816705236,2024-09-08T17:31:45.236Z,208775,0.15106201,-0.9702759,0.28527832
1725816705279,2024-09-08T17:31:45.279Z,208818,0.19525146,-0.59814453,0.34899902
1725816705298,2024-09-08T17:31:45.298Z,208837,0.08148193,-0.7345581,0.22003174
1725816705324,2024-09-08T17:31:45.324Z,208863,-0.03289795,-0.9400635,0.30230713
1725816705369,2024-09-08T17:31:45.369Z,208908,0.09350586,-0.93499756,0.41168213
1725816705415,2024-09-08T17:31:45.415Z,208954,0.3348999,-0.85009766,0.5335083
1725816705461,2024-09-08T17:31:45.461Z,209000,0.25372314,-0.8256836,0.6534424
1725816705514,2024-09-08T17:31:45.514Z,209053,0.095214844,-0.9098511,0.40441895
1725816705548,2024-09-08T17:31:45.548Z,209087,-0.03314209,-0.7338867,0.25982666
1725816705593,2024-09-08T17:31:45.593Z,209132,0.13208008,-0.7340088,0.45587158
1725816705637,2024-09-08T17:31:45.637Z,209176,0.22821045,-0.85131836,0.41448975
1725816705684,2024-09-08T17:31:45.684Z,209223,0.21704102,-0.96118164,0.47216797
1725816705704,2024-09-08T17:31:45.704Z,209243,0.20837402,-0.97039795,0.46240234
1725816705728,2024-09-08T17:31:45.728Z,209267,0.17211914,-0.86138916,0.42578125
1725816705772,2024-09-08T17:31:45.772Z,209311,0.14440918,-0.6218872,0.32373047
1725816705818,2024-09-08T17:31:45.818Z,209357,0.091796875,-0.5960083,0.09954834
1725816705865,2024-09-08T17:31:45.865Z,209404,0.3447876,-1.1173096,0.5985718
1725816705908,2024-09-08T17:31:45.908Z,209447,0.22790527,-0.86395264,0.6821289
1725816705953,2024-09-08T17:31:45.953Z,209492,0.07318115,-0.74432373,0.39916992
1725816705999,2024-09-08T17:31:45.999Z,209538,0.24993896,-0.9071655,0.3373413
1725816706092,2024-09-08T17:31:46.092Z,209631,0.28173828,-0.8765869,0.40802002
1725816706111,2024-09-08T17:31:46.111Z,209650,0.12451172,-0.82733154,0.38433838
1725816706130,2024-09-08T17:31:46.130Z,209669,0.15704346,-0.8543091,0.49719238
1725816706145,2024-09-08T17:31:46.145Z,209684,0.2711792,-0.7351074,0.46813965
1725816706225,2024-09-08T17:31:46.225Z,209764,0.19281006,-0.8760376,0.5060425
1725816706241,2024-09-08T17:31:46.241Z,209780,0.13537598,-0.8588257,0.5261841
1725816706265,2024-09-08T17:31:46.265Z,209804,0.2119751,-0.83935547,0.5435791
1725816706313,2024-09-08T17:31:46.313Z,209852,0.2062378,-0.8144531,0.48571777
1725816706359,2024-09-08T17:31:46.359Z,209898,0.21435547,-0.82873535,0.5019531
1725816706402,2024-09-08T17:31:46.402Z,209941,0.21862793,-0.81726074,0.48083496
1725816706448,2024-09-08T17:31:46.448Z,209987,0.19830322,-0.83325195,0.4263916
1725816706537,2024-09-08T17:31:46.537Z,210076,0.16967773,-0.84936523,0.48675537
1725816706556,2024-09-08T17:31:46.556Z,210095,0.20910645,-0.80633545,0.5378418
1725816706575,2024-09-08T17:31:46.575Z,210114,0.18395996,-0.7666626,0.4298706
1725816706674,2024-09-08T17:31:46.674Z,210213,0.22955322,-0.8786011,0.4428711
1725816706693,2024-09-08T17:31:46.693Z,210232,0.22509766,-0.8635864,0.3939209
1725816706712,2024-09-08T17:31:46.712Z,210251,0.21252441,-0.9123535,0.37780762
1725816706724,2024-09-08T17:31:46.724Z,210263,0.30908203,-0.85687256,0.43029785
1725816706764,2024-09-08T17:31:46.764Z,210303,0.17425537,-0.74798584,0.37524414
1725816706820,2024-09-08T17:31:46.820Z,210359,0.061706543,-0.9569092,0.4621582
1725816706852,2024-09-08T17:31:46.852Z,210391,0.22302246,-0.85723877,0.6081543
1725816706908,2024-09-08T17:31:46.908Z,210447,0.19909668,-0.68408203,0.49829102
1725816706943,2024-09-08T17:31:46.943Z,210482,0.123168945,-0.8015137,0.29614258
1725816706968,2024-09-08T17:31:46.968Z,210507,0.2664795,-0.8810425,0.36309814
1725816706986,2024-09-08T17:31:46.986Z,210525,0.11883545,-0.90045166,0.40631104
1725816707033,2024-09-08T17:31:47.033Z,210572,0.16491699,-0.7944336,0.40631104
1725816707077,2024-09-08T17:31:47.077Z,210616,0.1987915,-0.7357788,0.3095703
1725816707166,2024-09-08T17:31:47.166Z,210705,0.11401367,-0.73187256,0.10461426
1725816707183,2024-09-08T17:31:47.183Z,210722,0.098083496,-0.7520752,0.19464111
1725816707211,2024-09-08T17:31:47.211Z,210750,0.15100098,-0.7470703,0.27233887
1725816707302,2024-09-08T17:31:47.302Z,210841,0.14550781,-0.7734375,0.31323242
1725816707320,2024-09-08T17:31:47.320Z,210859,0.17755127,-0.84832764,0.25708008
1725816707347,2024-09-08T17:31:47.347Z,210886,0.08117676,-0.84332275,0.21655273
1725816707392,2024-09-08T17:31:47.392Z,210931,0.12713623,-0.7959595,0.32470703
1725816707410,2024-09-08T17:31:47.410Z,210949,0.24523926,-0.86901855,0.31079102
1725816707483,2024-09-08T17:31:47.483Z,211022,0.12884521,-0.89367676,0.20880127
1725816707500,2024-09-08T17:31:47.500Z,211039,0.1619873,-0.7615967,0.32312012
1725816707528,2024-09-08T17:31:47.528Z,211067,0.04058838,-0.82702637,0.25170898
1725816707572,2024-09-08T17:31:47.572Z,211111,0.22625732,-0.7911377,0.21203613
1725816707620,2024-09-08T17:31:47.620Z,211159,0.24066162,-0.84887695,0.20178223
1725816707708,2024-09-08T17:31:47.708Z,211247,0.13085938,-0.9848633,0.2849121
1725816707726,2024-09-08T17:31:47.726Z,211265,0.30151367,-0.8851929,0.33776855
1725816707751,2024-09-08T17:31:47.751Z,211290,0.15997314,-1.024353,0.38446045
1725816707800,2024-09-08T17:31:47.800Z,211339,0.27178955,-0.8796387,0.4376831
1725816707816,2024-09-08T17:31:47.816Z,211355,0.08947754,-1.0350342,0.2672119
1725816707886,2024-09-08T17:31:47.886Z,211425,0.18652344,-1.0279541,0.47839355
1725816707904,2024-09-08T17:31:47.904Z,211443,0.26135254,-1.0585327,0.3283081
1725816707931,2024-09-08T17:31:47.931Z,211470,0.31481934,-1.0167236,0.4664917
1725816707977,2024-09-08T17:31:47.977Z,211516,0.4072876,-0.9607544,0.5341797
1725816708023,2024-09-08T17:31:48.023Z,211562,0.65075684,-0.90826416,0.42443848
1725816708068,2024-09-08T17:31:48.068Z,211607,0.68603516,-0.8032837,0.62176514
1725816708112,2024-09-08T17:31:48.112Z,211651,0.3991089,-0.7965698,0.4494629
1725816708160,2024-09-08T17:31:48.160Z,211699,0.042053223,-0.8810425,0.52563477
1725816708205,2024-09-08T17:31:48.205Z,211744,0.74072266,-0.5358887,0.9295654
1725816708224,2024-09-08T17:31:48.224Z,211763,0.84020996,-0.7619629,0.64508057
1725816708294,2024-09-08T17:31:48.294Z,211833,0.09899902,-1.0107422,0.61499023
1725816708311,2024-09-08T17:31:48.311Z,211850,0.12402344,-0.848938,0.79608154
1725816708336,2024-09-08T17:31:48.336Z,211875,0.82592773,-0.7776489,0.95770264
1725816708382,2024-09-08T17:31:48.382Z,211921,0.7438965,-0.74401855,0.82037354
1725816708429,2024-09-08T17:31:48.429Z,211968,0.055786133,-0.96398926,0.44995117
1725816708473,2024-09-08T17:31:48.473Z,212012,0.080444336,-0.8815918,0.48095703
1725816708518,2024-09-08T17:31:48.518Z,212057,0.696228,-0.7076416,0.70684814
1725816708564,2024-09-08T17:31:48.564Z,212103,0.4769287,-0.86376953,0.48754883
1725816708655,2024-09-08T17:31:48.655Z,212194,-0.031921387,-0.9157715,0.3685913
1725816708674,2024-09-08T17:31:48.674Z,212213,0.1552124,-0.9371338,0.44683838
1725816708693,2024-09-08T17:31:48.693Z,212232,0.4769287,-0.88568115,0.5897827
1725816708711,2024-09-08T17:31:48.711Z,212250,0.1159668,-0.7017822,0.54797363
1725816708743,2024-09-08T17:31:48.743Z,212282,-0.033935547,-0.99102783,0.2880249
1725816708787,2024-09-08T17:31:48.787Z,212326,0.32281494,-0.90301514,0.2946167
1725816708832,2024-09-08T17:31:48.832Z,212371,0.40808105,-0.704895,0.7218628
1725816708971,2024-09-08T17:31:48.971Z,212510,-0.09454346,-0.9897461,0.4074707
1725816708993,2024-09-08T17:31:48.993Z,212532,0.21813965,-0.836792,0.18188477
1725816709015,2024-09-08T17:31:49.015Z,212554,0.27539062,-0.803772,0.26757812
1725816709035,2024-09-08T17:31:49.035Z,212574,0.01763916,-0.98913574,0.4020996
1725816709057,2024-09-08T17:31:49.057Z,212596,0.0569458,-0.80511475,0.31500244
1725816709071,2024-09-08T17:31:49.071Z,212610,0.13641357,-1.0588379,0.2904663
1725816709121,2024-09-08T17:31:49.121Z,212660,0.06744385,-0.98010254,0.27905273
1725816709152,2024-09-08T17:31:49.152Z,212691,0.15106201,-0.8341675,0.38128662
1725816709192,2024-09-08T17:31:49.192Z,212731,0.15441895,-0.90179443,0.24377441
1725816709240,2024-09-08T17:31:49.240Z,212779,0.07165527,-1.017395,0.16888428
1725816709283,2024-09-08T17:31:49.283Z,212822,0.06109619,-1.005127,0.39038086
1725816709328,2024-09-08T17:31:49.328Z,212867,0.32666016,-0.7188721,0.24389648
1725816709374,2024-09-08T17:31:49.374Z,212913,-0.046691895,-0.9244385,0.18640137
1725816709422,2024-09-08T17:31:49.422Z,212961,-0.04437256,-0.90844727,0.26586914
1725816709463,2024-09-08T17:31:49.463Z,213002,0.23327637,-0.9949341,0.28936768
1725816709481,2024-09-08T17:31:49.481Z,213020,0.20910645,-0.9187012,0.37487793
1725816709513,2024-09-08T17:31:49.513Z,213052,0.070373535,-0.79125977,0.3244629
1725816709556,2024-09-08T17:31:49.556Z,213095,0.0625,-0.97558594,0.2819214
1725816709597,2024-09-08T17:31:49.597Z,213136,0.13879395,-0.7508545,0.22460938
1725816709641,2024-09-08T17:31:49.641Z,213180,0.12567139,-0.9272461,0.29888916
1725816709689,2024-09-08T17:31:49.689Z,213228,0.12615967,-0.89038086,0.32202148
1725816709734,2024-09-08T17:31:49.734Z,213273,0.16259766,-0.97698975,0.39990234
1725816709782,2024-09-08T17:31:49.782Z,213321,0.12524414,-0.9112549,0.3904419
1725816709824,2024-09-08T17:31:49.824Z,213363,0.18811035,-0.6295166,0.23242188
1725816709869,2024-09-08T17:31:49.869Z,213408,0.001953125,-0.7347412,0.2133789
1725816709888,2024-09-08T17:31:49.888Z,213427,0.11401367,-0.92926025,0.39953613
1725816709911,2024-09-08T17:31:49.911Z,213450,0.25317383,-0.95544434,0.5534668
1725816709957,2024-09-08T17:31:49.957Z,213496,0.24163818,-0.86383057,0.5726929
1725816710003,2024-09-08T17:31:50.003Z,213542,0.11895752,-0.77038574,0.3994751
1725816710047,2024-09-08T17:31:50.047Z,213586,-0.0037231445,-0.821228,0.29364014
1725816710093,2024-09-08T17:31:50.093Z,213632,0.1272583,-0.8414917,0.43322754
1725816710139,2024-09-08T17:31:50.139Z,213678,0.24786377,-0.8633423,0.5392456
1725816710183,2024-09-08T17:31:50.183Z,213722,0.16192627,-0.61798096,0.35943604
1725816710228,2024-09-08T17:31:50.228Z,213767,0.099609375,-0.6991577,0.27404785
1725816710274,2024-09-08T17:31:50.274Z,213813,0.14422607,-1.0863037,0.6473999
1725816710318,2024-09-08T17:31:50.318Z,213857,0.111206055,-0.9058838,0.7113037
1725816710335,2024-09-08T17:31:50.335Z,213874,0.15881348,-0.64990234,0.3638916
1725816710406,2024-09-08T17:31:50.406Z,213945,0.24993896,-0.9035034,0.20471191
1725816710425,2024-09-08T17:31:50.425Z,213964,0.2033081,-1.0193481,0.37945557
1725816710452,2024-09-08T17:31:50.452Z,213991,0.13366699,-0.78582764,0.38323975
1725816710501,2024-09-08T17:31:50.501Z,214040,0.23529053,-0.93847656,0.5057373
1725816710543,2024-09-08T17:31:50.543Z,214082,0.13024902,-0.7614136,0.52441406
1725816710589,2024-09-08T17:31:50.589Z,214128,0.20721436,-0.82147217,0.5316162
1725816710634,2024-09-08T17:31:50.634Z,214173,0.2531128,-0.86779785,0.43615723
1725816710677,2024-09-08T17:31:50.677Z,214216,0.2033081,-0.83239746,0.3741455
1725816710726,2024-09-08T17:31:50.726Z,214265,0.18457031,-0.84716797,0.42382812
1725816710742,2024-09-08T17:31:50.742Z,214281,0.19934082,-0.8336792,0.48791504
1725816710767,2024-09-08T17:31:50.767Z,214306,0.22180176,-0.81817627,0.49853516
1725816710813,2024-09-08T17:31:50.813Z,214352,0.21447754,-0.8198242,0.49206543
1725816710859,2024-09-08T17:31:50.859Z,214398,0.24267578,-0.83044434,0.50128174
1725816710904,2024-09-08T17:31:50.904Z,214443,0.25604248,-0.8151245,0.4890747
1725816710946,2024-09-08T17:31:50.946Z,214485,0.22692871,-0.85095215,0.4810791
1725816710998,2024-09-08T17:31:50.998Z,214537,0.20025635,-0.85961914,0.4459839
1725816711039,2024-09-08T17:31:51.039Z,214578,0.21087646,-0.8598633,0.43585205
1725816711080,2024-09-08T17:31:51.080Z,214619,0.19610596,-0.8577881,0.4121704
1725816711128,2024-09-08T17:31:51.128Z,214667,0.222229,-0.8543091,0.39819336
1725816711144,2024-09-08T17:31:51.144Z,214683,0.21508789,-0.86657715,0.3079834
1725816711173,2024-09-08T17:31:51.173Z,214712,0.24090576,-0.8707886,0.30969238
1725816711262,2024-09-08T17:31:51.262Z,214801,0.2642212,-0.88897705,0.2966919
1725816711280,2024-09-08T17:31:51.280Z,214819,0.25628662,-0.864624,0.33843994
1725816711308,2024-09-08T17:31:51.308Z,214847,0.22332764,-0.87683105,0.42095947
1725816711353,2024-09-08T17:31:51.353Z,214892,0.25128174,-0.8586426,0.4265747
1725816711399,2024-09-08T17:31:51.399Z,214938,0.1828003,-0.8360596,0.40875244
1725816711443,2024-09-08T17:31:51.443Z,214982,0.16113281,-0.88983154,0.4833374
1725816711487,2024-09-08T17:31:51.487Z,215026,0.1081543,-0.76989746,0.40679932
1725816711580,2024-09-08T17:31:51.580Z,215119,0.13092041,-0.6868286,0.40545654
1725816711600,2024-09-08T17:31:51.600Z,215139,0.027709961,-0.76312256,0.53356934
1725816711619,2024-09-08T17:31:51.619Z,215158,0.2562256,-0.9772339,0.70599365
1725816711636,2024-09-08T17:31:51.636Z,215175,0.354187,-0.89489746,0.49920654
1725816711680,2024-09-08T17:31:51.680Z,215219,0.17810059,-0.73809814,0.3251953
1725816711711,2024-09-08T17:31:51.711Z,215250,-0.0625,-0.6543579,0.21661377
1725816711760,2024-09-08T17:31:51.760Z,215299,0.10784912,-0.6786499,0.21691895
1725816711847,2024-09-08T17:31:51.847Z,215386,0.26098633,-0.7295532,0.20843506
1725816711867,2024-09-08T17:31:51.867Z,215406,0.17004395,-0.91571045,0.258667
1725816711902,2024-09-08T17:31:51.902Z,215441,0.080566406,-0.78063965,0.32470703
1725816711983,2024-09-08T17:31:51.983Z,215522,0.123413086,-0.8354492,0.2709961
1725816712002,2024-09-08T17:31:52.002Z,215541,0.1749878,-0.8779907,0.06744385
1725816712020,2024-09-08T17:31:52.020Z,215559,0.27056885,-0.86065674,0.16748047
1725816712032,2024-09-08T17:31:52.032Z,215571,0.10748291,-0.8795166,0.3324585
1725816712072,2024-09-08T17:31:52.072Z,215611,0.11883545,-0.8483887,0.3112793
1725816712162,2024-09-08T17:31:52.162Z,215701,0.17053223,-0.8723755,0.24334717
1725816712182,2024-09-08T17:31:52.182Z,215721,0.09301758,-0.8621216,0.34906006
1725816712254,2024-09-08T17:31:52.254Z,215793,0.2949829,-0.786499,0.23675537
1725816712272,2024-09-08T17:31:52.272Z,215811,0.22271729,-0.9674072,0.19927979
1725816712296,2024-09-08T17:31:52.296Z,215835,0.1774292,-0.8458252,0.41705322
1725816712344,2024-09-08T17:31:52.344Z,215883,0.3125,-0.9074707,0.1564331
1725816712387,2024-09-08T17:31:52.387Z,215926,0.16778564,-0.9706421,0.38787842
1725816712405,2024-09-08T17:31:52.405Z,215944,0.28759766,-0.87872314,0.4619751
1725816712432,2024-09-08T17:31:52.432Z,215971,0.28967285,-1.0036011,0.19537354
1725816712477,2024-09-08T17:31:52.477Z,216016,0.16625977,-0.9430542,0.44085693
1725816712570,2024-09-08T17:31:52.570Z,216109,0.14459229,-1.038269,0.34436035
1725816712588,2024-09-08T17:31:52.588Z,216127,0.117614746,-1.1298218,0.39691162
1725816712629,2024-09-08T17:31:52.629Z,216168,0.39257812,-0.86260986,0.7462158
1725816712657,2024-09-08T17:31:52.657Z,216196,0.3352661,-1.0147095,0.49279785
1725816712703,2024-09-08T17:31:52.703Z,216242,0.24041748,-1.0946045,0.39630127
1725816712749,2024-09-08T17:31:52.749Z,216288,0.51556396,-0.89727783,0.5149536
1725816712793,2024-09-08T17:31:52.793Z,216332,0.6508789,-0.72717285,0.6561279
1725816712839,2024-09-08T17:31:52.839Z,216378,0.484375,-0.72802734,0.5316162
1725816712855,2024-09-08T17:31:52.855Z,216394,0.23510742,-0.9507446,0.33459473
1725816712882,2024-09-08T17:31:52.882Z,216421,0.36157227,-0.6081543,0.79797363
1725816712927,2024-09-08T17:31:52.927Z,216466,0.48815918,-0.73742676,0.805542
1725816712973,2024-09-08T17:31:52.973Z,216512,0.26159668,-0.9449463,0.7609253
1725816713016,2024-09-08T17:31:53.016Z,216555,0.37438965,-0.8442383,0.9219971
1725816713063,2024-09-08T17:31:53.063Z,216602,0.50061035,-0.82910156,0.6427002
1725816713107,2024-09-08T17:31:53.107Z,216646,0.26885986,-0.9714966,0.39434814
1725816713154,2024-09-08T17:31:53.154Z,216693,0.1906128,-0.96813965,0.42114258
1725816713200,2024-09-08T17:31:53.200Z,216739,0.39337158,-0.829834,0.53808594
1725816713244,2024-09-08T17:31:53.244Z,216783,0.35473633,-0.82788086,0.40618896
1725816713266,2024-09-08T17:31:53.266Z,216805,0.11230469,-0.8907471,0.32556152
1725816713380,2024-09-08T17:31:53.380Z,216919,0.26818848,-0.7789917,0.6039429
1725816713403,2024-09-08T17:31:53.403Z,216942,0.31188965,-0.77648926,0.58465576
1725816713422,2024-09-08T17:31:53.422Z,216961,0.19580078,-0.7840576,0.44555664
1725816713441,2024-09-08T17:31:53.441Z,216980,0.14343262,-0.8677368,0.4724121
1725816713473,2024-09-08T17:31:53.473Z,217012,0.2020874,-1.019104,0.3217163
1725816713512,2024-09-08T17:31:53.512Z,217051,0.3428955,-1.0001831,0.3164673
1725816713558,2024-09-08T17:31:53.558Z,217097,0.26190186,-0.79901123,0.35461426
1725816713603,2024-09-08T17:31:53.603Z,217142,-0.020629883,-0.82177734,0.34484863
1725816713696,2024-09-08T17:31:53.696Z,217235,0.19091797,-0.92645264,0.35266113
1725816713714,2024-09-08T17:31:53.714Z,217253,0.22515869,-0.9121704,0.48944092
1725816713732,2024-09-08T17:31:53.732Z,217271,0.093811035,-1.0087891,0.4043579
1725816713751,2024-09-08T17:31:53.751Z,217290,0.12072754,-0.9640503,0.33135986
1725816713782,2024-09-08T17:31:53.782Z,217321,0.20648193,-1.020752,0.22070312
1725816713843,2024-09-08T17:31:53.843Z,217382,0.19866943,-0.9175415,0.14282227
1725816713872,2024-09-08T17:31:53.872Z,217411,0.32250977,-1.0115967,0.24420166
1725816713967,2024-09-08T17:31:53.967Z,217506,0.19915771,-0.9641113,0.14160156
1725816713986,2024-09-08T17:31:53.986Z,217525,0.10784912,-0.8312378,0.18658447
1725816714009,2024-09-08T17:31:54.009Z,217548,0.08325195,-0.97052,0.028747559
1725816714098,2024-09-08T17:31:54.098Z,217637,0.11022949,-1.0019531,0.011169434
1725816714115,2024-09-08T17:31:54.115Z,217654,0.018066406,-0.73516846,0.45843506
1725816714128,2024-09-08T17:31:54.128Z,217667,0.13226318,-0.8312378,0.51519775
1725816714141,2024-09-08T17:31:54.141Z,217680,0.1786499,-1.0747681,0.21343994
1725816714183,2024-09-08T17:31:54.183Z,217722,0.18450928,-0.91729736,0.2672119
1725816714240,2024-09-08T17:31:54.240Z,217779,0.18896484,-0.96795654,0.32873535
1725816714323,2024-09-08T17:31:54.323Z,217862,0.18664551,-0.8284302,0.39794922
1725816714426,2024-09-08T17:31:54.426Z,217965,0.13842773,-0.8157959,0.16821289
1725816714445,2024-09-08T17:31:54.445Z,217984,0.11706543,-0.84173584,0.1159668
1725816714464,2024-09-08T17:31:54.464Z,218003,0.1262207,-0.7906494,0.3486328
1725816714481,2024-09-08T17:31:54.481Z,218020,0.1506958,-0.75982666,0.3968506
1725816714549,2024-09-08T17:31:54.549Z,218088,0.14941406,-0.8375244,0.2662964
1725816714565,2024-09-08T17:31:54.565Z,218104,0.18865967,-0.9547119,0.20178223
1725816714580,2024-09-08T17:31:54.580Z,218119,0.18121338,-0.81329346,0.31951904
1725816714591,2024-09-08T17:31:54.591Z,218130,0.1515503,-0.80029297,0.34051514
1725816714637,2024-09-08T17:31:54.637Z,218176,0.12445068,-0.93566895,0.3109131
1725816714682,2024-09-08T17:31:54.682Z,218221,0.17419434,-0.994751,0.44055176
1725816714729,2024-09-08T17:31:54.729Z,218268,0.21362305,-0.92889404,0.5452881
1725816714774,2024-09-08T17:31:54.774Z,218313,0.21582031,-0.81451416,0.39953613
1725816714817,2024-09-08T17:31:54.817Z,218356,0.08709717,-0.8078003,0.20611572
1725816714863,2024-09-08T17:31:54.863Z,218402,0.118896484,-0.8890991,0.25109863
1725816714907,2024-09-08T17:31:54.907Z,218446,0.19720459,-0.8540039,0.51049805
1725816714924,2024-09-08T17:31:54.924Z,218463,0.23199463,-0.7918701,0.5444336
1725816714951,2024-09-08T17:31:54.951Z,218490,0.08117676,-0.5415039,0.26257324
1725816714997,2024-09-08T17:31:54.997Z,218536,0.18444824,-1.0090332,0.46643066
1725816715043,2024-09-08T17:31:55.043Z,218582,0.14172363,-0.9569092,0.71661377
1725816715091,2024-09-08T17:31:55.091Z,218630,0.11450195,-0.776001,0.59417725
1725816715135,2024-09-08T17:31:55.135Z,218674,0.18151855,-0.6897583,0.18127441
1725816715180,2024-09-08T17:31:55.180Z,218719,0.35595703,-1.072937,0.19073486
1725816715224,2024-09-08T17:31:55.224Z,218763,0.19134521,-0.84765625,0.2319336
1725816715269,2024-09-08T17:31:55.269Z,218808,0.25878906,-0.98913574,0.4537964
1725816715359,2024-09-08T17:31:55.359Z,218898,0.30493164,-0.8120117,0.58148193
1725816715378,2024-09-08T17:31:55.378Z,218917,0.119628906,-0.6809082,0.63031006
1725816715396,2024-09-08T17:31:55.396Z,218935,0.13909912,-0.76745605,0.57751465
1725816715448,2024-09-08T17:31:55.448Z,218987,0.27954102,-0.87054443,0.50860596
1725816715465,2024-09-08T17:31:55.465Z,219004,0.20654297,-0.8422241,0.4560547
1725816715542,2024-09-08T17:31:55.542Z,219081,0.18188477,-0.8110962,0.3991089
1725816715560,2024-09-08T17:31:55.560Z,219099,0.22131348,-0.8643799,0.38586426
1725816715579,2024-09-08T17:31:55.579Z,219118,0.21929932,-0.8572998,0.35717773
1725816715627,2024-09-08T17:31:55.627Z,219166,0.2548828,-0.85198975,0.39050293
1725816715673,2024-09-08T17:31:55.673Z,219212,0.2598877,-0.86608887,0.421875
1725816715717,2024-09-08T17:31:55.717Z,219256,0.24420166,-0.86083984,0.40673828
1725816715761,2024-09-08T17:31:55.761Z,219300,0.25335693,-0.88012695,0.42382812
1725816715777,2024-09-08T17:31:55.777Z,219316,0.22607422,-0.8811035,0.4212036
1725816715806,2024-09-08T17:31:55.806Z,219345,0.2321167,-0.8791504,0.47369385
1725816715863,2024-09-08T17:31:55.863Z,219402,0.19909668,-0.8687134,0.36499023
1725816715897,2024-09-08T17:31:55.897Z,219436,0.24499512,-0.85705566,0.28173828
1725816715941,2024-09-08T17:31:55.941Z,219480,0.28631592,-0.8521118,0.26898193
1725816715988,2024-09-08T17:31:55.988Z,219527,0.32281494,-0.89038086,0.2506714
1725816716043,2024-09-08T17:31:56.043Z,219582,0.3554077,-0.86553955,0.20477295
1725816716078,2024-09-08T17:31:56.078Z,219617,0.29943848,-0.7984619,0.2850952
1725816716123,2024-09-08T17:31:56.123Z,219662,0.16223145,-0.83380127,0.45928955
1725816716168,2024-09-08T17:31:56.168Z,219707,0.051696777,-0.81921387,0.43933105
1725816716183,2024-09-08T17:31:56.183Z,219722,0.124572754,-0.8391113,0.49499512
1725816716211,2024-09-08T17:31:56.211Z,219750,0.19848633,-0.7815552,0.7918701
1725816716258,2024-09-08T17:31:56.258Z,219797,0.19909668,-0.6923218,0.96051025
1725816716304,2024-09-08T17:31:56.304Z,219843,0.50457764,-0.91882324,0.6210327
1725816716348,2024-09-08T17:31:56.348Z,219887,0.19799805,-0.91290283,0.13092041
1725816716404,2024-09-08T17:31:56.404Z,219943,0.12207031,-0.87939453,0.04071045
1725816716436,2024-09-08T17:31:56.436Z,219975,0.07684326,-0.73358154,0.1395874
1725816716482,2024-09-08T17:31:56.482Z,220021,0.1817627,-0.6935425,0.33068848
1725816716528,2024-09-08T17:31:56.528Z,220067,0.21960449,-0.7593994,0.32385254
1725816716574,2024-09-08T17:31:56.574Z,220113,0.17004395,-0.72546387,0.2163086
1725816716592,2024-09-08T17:31:56.592Z,220131,0.22302246,-0.74609375,0.18603516
1725816716663,2024-09-08T17:31:56.663Z,220202,0.116882324,-0.90130615,0.20147705
1725816716678,2024-09-08T17:31:56.678Z,220217,0.13897705,-0.85839844,0.092285156
1725816716707,2024-09-08T17:31:56.707Z,220246,0.23583984,-0.82476807,0.2210083
1725816716754,2024-09-08T17:31:56.754Z,220293,0.23022461,-0.83166504,0.4529419
1725816716799,2024-09-08T17:31:56.799Z,220338,0.13317871,-0.84625244,0.45721436
1725816716844,2024-09-08T17:31:56.844Z,220383,0.05682373,-0.9217529,0.15081787
1725816716888,2024-09-08T17:31:56.888Z,220427,0.099975586,-0.7636719,0.3178711
1725816716933,2024-09-08T17:31:56.933Z,220472,0.21710205,-0.85266113,0.31280518
1725816716979,2024-09-08T17:31:56.979Z,220518,0.2722168,-0.9022827,0.28344727
1725816717024,2024-09-08T17:31:57.024Z,220563,0.23376465,-0.89227295,0.075683594
1725816717041,2024-09-08T17:31:57.041Z,220580,0.14782715,-1.0427246,0.17089844
1725816717067,2024-09-08T17:31:57.067Z,220606,0.34381104,-0.89575195,0.30944824
1725816717111,2024-09-08T17:31:57.111Z,220650,0.14910889,-1.0161133,0.13745117
1725816717205,2024-09-08T17:31:57.205Z,220744,0.19500732,-0.923645,0.38867188
1725816717222,2024-09-08T17:31:57.222Z,220761,0.3293457,-0.8432617,0.37402344
1725816717247,2024-09-08T17:31:57.247Z,220786,0.09527588,-1.1062012,0.29089355
1725816717294,2024-09-08T17:31:57.294Z,220833,0.34747314,-0.9116821,0.34246826
1725816717338,2024-09-08T17:31:57.338Z,220877,0.20581055,-0.9998169,0.22711182
1725816717382,2024-09-08T17:31:57.382Z,220921,0.25128174,-1.039856,0.49169922
1725816717426,2024-09-08T17:31:57.426Z,220965,0.3453369,-0.93218994,0.34197998
1725816717441,2024-09-08T17:31:57.441Z,220980,0.15325928,-1.0984497,0.40490723
1725816717471,2024-09-08T17:31:57.471Z,221010,0.5689087,-0.7333374,0.7562866
1725816717516,2024-09-08T17:31:57.516Z,221055,0.5095825,-0.9301758,0.36120605
1725816717561,2024-09-08T17:31:57.561Z,221100,0.20233154,-0.97576904,0.34851074
1725816717607,2024-09-08T17:31:57.607Z,221146,0.6234131,-0.7453003,0.555542
1725816717651,2024-09-08T17:31:57.651Z,221190,0.598999,-0.76275635,0.46118164
1725816717699,2024-09-08T17:31:57.699Z,221238,0.20611572,-0.8845215,0.6298218
1725816717743,2024-09-08T17:31:57.743Z,221282,0.42578125,-0.86187744,0.6392822
1725816717791,2024-09-08T17:31:57.791Z,221330,0.8015137,-0.7057495,0.5560913
1725816717834,2024-09-08T17:31:57.834Z,221373,0.22705078,-0.9289551,0.60772705
1725816717853,2024-09-08T17:31:57.853Z,221392,0.110839844,-0.9946289,0.4373169
1725816717877,2024-09-08T17:31:57.877Z,221416,0.5083008,-0.91937256,0.57696533
1725816717923,2024-09-08T17:31:57.923Z,221462,0.60827637,-0.7609863,0.8590088
1725816717967,2024-09-08T17:31:57.967Z,221506,0.25701904,-0.9088135,0.39337158
1725816718106,2024-09-08T17:31:58.106Z,221645,0.10308838,-1.0576172,0.089904785
1725816718124,2024-09-08T17:31:58.124Z,221663,0.36254883,-0.9574585,0.45611572
1725816718143,2024-09-08T17:31:58.143Z,221682,0.34979248,-0.76776123,0.57006836
1725816718160,2024-09-08T17:31:58.160Z,221699,0.14276123,-0.9173584,0.45422363
1725816718237,2024-09-08T17:31:58.237Z,221776,0.16912842,-0.87213135,0.44506836
1725816718254,2024-09-08T17:31:58.254Z,221793,0.24700928,-0.76361084,0.5244751
1725816718282,2024-09-08T17:31:58.282Z,221821,0.20733643,-0.79260254,0.6109619
1725816718299,2024-09-08T17:31:58.299Z,221838,-0.014953613,-0.8560791,0.2662964
1725816718326,2024-09-08T17:31:58.326Z,221865,0.14038086,-1.102417,0.11090088
1725816718511,2024-09-08T17:31:58.511Z,222050,0.3748169,-1.0845337,0.26513672
1725816718533,2024-09-08T17:31:58.533Z,222072,0.26116943,-0.9985962,0.1973877
1725816718553,2024-09-08T17:31:58.553Z,222092,0.1375122,-1.1118774,0.016967773
1725816718572,2024-09-08T17:31:58.572Z,222111,0.2185669,-1.0029297,0.26281738
1725816718586,2024-09-08T17:31:58.586Z,222125,0.23413086,-0.6768799,0.55633545
1725816718641,2024-09-08T17:31:58.641Z,222180,-0.1437378,-0.84606934,0.22528076
1725816718655,2024-09-08T17:31:58.655Z,222194,-0.039611816,-0.80810547,0.026916504
1725816718734,2024-09-08T17:31:58.734Z,222273,0.037353516,-0.92419434,0.0692749
1725816718749,2024-09-08T17:31:58.749Z,222288,0.128479,-1.1136475,0.20129395
1725816718763,2024-09-08T17:31:58.763Z,222302,0.2802124,-0.9556885,0.3867798
1725816718773,2024-09-08T17:31:58.773Z,222312,0.26635742,-1.1652222,0.20159912
1725816718822,2024-09-08T17:31:58.822Z,222361,0.16320801,-0.9815674,0.1906128
1725816718866,2024-09-08T17:31:58.866Z,222405,0.08074951,-0.7126465,0.44000244
1725816718959,2024-09-08T17:31:58.959Z,222498,0.089660645,-0.66430664,0.32299805
1725816718975,2024-09-08T17:31:58.975Z,222514,0.0016479492,-0.8317871,-0.038635254
1725816719002,2024-09-08T17:31:59.002Z,222541,-0.012207031,-0.8166504,0.26391602
1725816719046,2024-09-08T17:31:59.046Z,222585,0.13812256,-1.0432129,0.4432373
1725816719091,2024-09-08T17:31:59.091Z,222630,0.291687,-1.2122192,0.19158936
1725816719106,2024-09-08T17:31:59.106Z,222645,0.29638672,-1.2220459,0.24145508
1725816719137,2024-09-08T17:31:59.137Z,222676,0.30895996,-0.68640137,0.45495605
1725816719182,2024-09-08T17:31:59.182Z,222721,-0.027893066,-0.6084595,0.24987793
1725816719228,2024-09-08T17:31:59.228Z,222767,-0.09265137,-0.74749756,0.11590576
1725816719274,2024-09-08T17:31:59.274Z,222813,0.049621582,-1.0264893,0.37713623
1725816719319,2024-09-08T17:31:59.319Z,222858,0.36083984,-1.0123291,0.48205566
1725816719363,2024-09-08T17:31:59.363Z,222902,0.36016846,-0.82507324,0.45239258
1725816719410,2024-09-08T17:31:59.410Z,222949,0.09893799,-0.8641968,0.36010742
1725816719452,2024-09-08T17:31:59.452Z,222991,0.04864502,-0.75079346,0.2121582
1725816719497,2024-09-08T17:31:59.497Z,223036,0.21154785,-0.8230591,0.23999023
1725816719551,2024-09-08T17:31:59.551Z,223090,0.17156982,-0.85705566,0.34881592
1725816719570,2024-09-08T17:31:59.570Z,223109,0.118652344,-0.78009033,0.4005127
1725816719587,2024-09-08T17:31:59.587Z,223126,0.0211792,-0.4128418,0.19995117
1725816719684,2024-09-08T17:31:59.684Z,223223,0.28808594,-1.0498047,0.480896
1725816719700,2024-09-08T17:31:59.700Z,223239,0.19769287,-0.98553467,0.67089844
1725816719722,2024-09-08T17:31:59.722Z,223261,0.2119751,-0.8989258,0.5704346
1725816719763,2024-09-08T17:31:59.763Z,223302,0.105773926,-0.6362915,0.22729492
1725816719808,2024-09-08T17:31:59.808Z,223347,0.17559814,-0.91674805,0.12487793
1725816719853,2024-09-08T17:31:59.853Z,223392,0.32434082,-0.9559326,0.42303467
1725816719988,2024-09-08T17:31:59.988Z,223527,0.21618652,-0.85498047,0.5040283
