Timestamp (ms),ISO DateTime,Elapsed Time (ms),Acceleration X,Acceleration Y,Acceleration Z
1735321800876,2024-12-27T17:50:00.876Z,16759,0.01965332,-0.12023926,0.014892578
1735321800883,2024-12-27T17:50:00.883Z,16766,0.01953125,-0.11981201,0.014404297
1735321800966,2024-12-27T17:50:00.966Z,16849,0.020141602,-0.1204834,0.014343262
1735321801249,2024-12-27T17:50:01.249Z,17132,0.020629883,-0.120666504,0.014770508
1735321801272,2024-12-27T17:50:01.272Z,17155,0.020996094,-0.12005615,0.014526367
1735321801295,2024-12-27T17:50:01.295Z,17178,0.020324707,-0.119506836,0.014038086
1735321801309,2024-12-27T17:50:01.309Z,17192,0.019897461,-0.11907959,0.014404297
1735321801323,2024-12-27T17:50:01.323Z,17206,0.019348145,-0.11968994,0.014465332
1735321801336,2024-12-27T17:50:01.336Z,17219,0.020019531,-0.11981201,0.014465332
1735321801348,2024-12-27T17:50:01.348Z,17231,0.020324707,-0.12042236,0.0146484375
1735321801359,2024-12-27T17:50:01.359Z,17242,0.020385742,-0.120666504,0.014343262
1735321801369,2024-12-27T17:50:01.369Z,17252,0.020263672,-0.11993408,0.013366699
1735321801380,2024-12-27T17:50:01.380Z,17263,0.020202637,-0.119506836,0.013427734
1735321801391,2024-12-27T17:50:01.391Z,17274,0.020202637,-0.119506836,0.013793945
1735321801403,2024-12-27T17:50:01.403Z,17286,0.018981934,-0.11920166,0.016235352
1735321801411,2024-12-27T17:50:01.411Z,17294,0.017333984,-0.119628906,0.016601562
1735321801420,2024-12-27T17:50:01.420Z,17303,0.0178833,-0.11993408,0.01727295
1735321801429,2024-12-27T17:50:01.429Z,17312,0.01727295,-0.12109375,0.016357422
1735321801437,2024-12-27T17:50:01.437Z,17320,0.01739502,-0.1204834,0.016113281
1735321801444,2024-12-27T17:50:01.444Z,17327,0.019592285,-0.119506836,0.016845703
1735321801455,2024-12-27T17:50:01.455Z,17338,0.020507812,-0.11633301,0.018188477
1735321801466,2024-12-27T17:50:01.466Z,17349,0.02178955,-0.11694336,0.017578125
1735321801475,2024-12-27T17:50:01.475Z,17358,0.021240234,-0.11804199,0.0178833
1735321801485,2024-12-27T17:50:01.485Z,17368,0.02142334,-0.11956787,0.018310547
1735321801495,2024-12-27T17:50:01.495Z,17378,0.022338867,-0.12017822,0.018188477
1735321801503,2024-12-27T17:50:01.503Z,17386,0.02130127,-0.12017822,0.017822266
1735321801512,2024-12-27T17:50:01.512Z,17395,0.022094727,-0.11956787,0.017333984
1735321801520,2024-12-27T17:50:01.520Z,17403,0.023010254,-0.11871338,0.016784668
1735321801528,2024-12-27T17:50:01.528Z,17411,0.022033691,-0.11785889,0.014526367
1735321801537,2024-12-27T17:50:01.537Z,17420,0.022216797,-0.11608887,0.013305664
1735321801547,2024-12-27T17:50:01.547Z,17430,0.02319336,-0.11608887,0.01361084
1735321801555,2024-12-27T17:50:01.555Z,17438,0.021850586,-0.1182251,0.012268066
1735321801564,2024-12-27T17:50:01.564Z,17447,0.021484375,-0.121154785,0.010314941
1735321801573,2024-12-27T17:50:01.573Z,17456,0.021606445,-0.12322998,0.010009766
1735321801581,2024-12-27T17:50:01.581Z,17464,0.022583008,-0.1239624,0.010375977
1735321801590,2024-12-27T17:50:01.590Z,17473,0.023498535,-0.12475586,0.012268066
1735321801599,2024-12-27T17:50:01.599Z,17482,0.023132324,-0.12524414,0.012939453
1735321801607,2024-12-27T17:50:01.607Z,17490,0.022033691,-0.12432861,0.012634277
1735321801618,2024-12-27T17:50:01.618Z,17501,0.023925781,-0.11999512,0.012634277
1735321801626,2024-12-27T17:50:01.626Z,17509,0.026062012,-0.11431885,0.0138549805
1735321801636,2024-12-27T17:50:01.636Z,17519,0.024963379,-0.11102295,0.014526367
1735321801646,2024-12-27T17:50:01.646Z,17529,0.022155762,-0.11065674,0.013427734
1735321801656,2024-12-27T17:50:01.656Z,17539,0.020324707,-0.11425781,0.012268066
1735321801666,2024-12-27T17:50:01.666Z,17549,0.021118164,-0.11816406,0.0126953125
1735321801676,2024-12-27T17:50:01.676Z,17559,0.021972656,-0.12109375,0.016235352
1735321801685,2024-12-27T17:50:01.685Z,17568,0.023010254,-0.12225342,0.018249512
1735321801694,2024-12-27T17:50:01.694Z,17577,0.023376465,-0.12384033,0.018188477
1735321801704,2024-12-27T17:50:01.704Z,17587,0.02331543,-0.12420654,0.017456055
1735321801714,2024-12-27T17:50:01.714Z,17597,0.018737793,-0.11968994,0.019226074
1735321801726,2024-12-27T17:50:01.726Z,17609,0.010314941,-0.11340332,0.017700195
1735321801735,2024-12-27T17:50:01.735Z,17618,0.010986328,-0.11126709,0.0146484375
1735321801745,2024-12-27T17:50:01.745Z,17628,0.019348145,-0.11407471,0.013244629
1735321801755,2024-12-27T17:50:01.755Z,17638,0.018981934,-0.115112305,0.013000488
1735321801765,2024-12-27T17:50:01.765Z,17648,0.021484375,-0.11419678,0.014038086
1735321801774,2024-12-27T17:50:01.774Z,17657,0.022888184,-0.1149292,0.014587402
1735321801782,2024-12-27T17:50:01.782Z,17665,0.02520752,-0.11608887,0.01373291
1735321801790,2024-12-27T17:50:01.790Z,17673,0.030578613,-0.123046875,0.012817383
1735321801800,2024-12-27T17:50:01.800Z,17683,0.03326416,-0.13171387,0.015136719
1735321801808,2024-12-27T17:50:01.808Z,17691,0.034851074,-0.1350708,0.017822266
1735321801818,2024-12-27T17:50:01.818Z,17701,0.033813477,-0.1295166,0.019165039
1735321801827,2024-12-27T17:50:01.827Z,17710,0.025268555,-0.12231445,0.017822266
1735321801836,2024-12-27T17:50:01.836Z,17719,0.020507812,-0.114990234,0.018615723
1735321801846,2024-12-27T17:50:01.846Z,17729,0.022521973,-0.11047363,0.021850586
1735321801854,2024-12-27T17:50:01.854Z,17737,0.021240234,-0.10998535,0.018432617
1735321801864,2024-12-27T17:50:01.864Z,17747,0.016662598,-0.11114502,0.016357422
1735321801873,2024-12-27T17:50:01.873Z,17756,0.015380859,-0.115356445,0.0211792
1735321801882,2024-12-27T17:50:01.882Z,17765,0.017456055,-0.12384033,0.026733398
1735321801893,2024-12-27T17:50:01.893Z,17776,0.021057129,-0.12915039,0.023803711
1735321801903,2024-12-27T17:50:01.903Z,17786,0.024169922,-0.1293335,0.023376465
1735321801911,2024-12-27T17:50:01.911Z,17794,0.026123047,-0.12182617,0.025146484
1735321801919,2024-12-27T17:50:01.919Z,17802,0.026123047,-0.111572266,0.022155762
1735321801929,2024-12-27T17:50:01.929Z,17812,0.025268555,-0.105407715,0.022521973
1735321801936,2024-12-27T17:50:01.936Z,17819,0.020507812,-0.10455322,0.021911621
1735321801944,2024-12-27T17:50:01.944Z,17827,0.015930176,-0.1048584,0.020080566
1735321801952,2024-12-27T17:50:01.952Z,17835,0.020263672,-0.109191895,0.019226074
1735321801961,2024-12-27T17:50:01.961Z,17844,0.023010254,-0.115112305,0.018310547
1735321801971,2024-12-27T17:50:01.971Z,17854,0.021057129,-0.11987305,0.02331543
1735321801981,2024-12-27T17:50:01.981Z,17864,0.023010254,-0.1217041,0.029174805
1735321801990,2024-12-27T17:50:01.990Z,17873,0.026550293,-0.12200928,0.026611328
1735321801999,2024-12-27T17:50:01.999Z,17882,0.020507812,-0.11907959,0.01763916
1735321802010,2024-12-27T17:50:02.010Z,17893,0.0134887695,-0.11138916,0.017089844
1735321802020,2024-12-27T17:50:02.020Z,17903,0.012390137,-0.10247803,0.022338867
1735321802030,2024-12-27T17:50:02.030Z,17913,0.0053100586,-0.099121094,0.022521973
1735321802039,2024-12-27T17:50:02.039Z,17922,0.0079956055,-0.1048584,0.021118164
1735321802048,2024-12-27T17:50:02.048Z,17931,0.017578125,-0.11206055,0.025756836
1735321802057,2024-12-27T17:50:02.057Z,17940,0.016906738,-0.11151123,0.023864746
1735321802083,2024-12-27T17:50:02.083Z,17966,0.019958496,-0.10949707,0.028747559
1735321802092,2024-12-27T17:50:02.092Z,17975,0.027893066,-0.107543945,0.035888672
1735321802101,2024-12-27T17:50:02.101Z,17984,0.022949219,-0.10443115,0.026245117
1735321802110,2024-12-27T17:50:02.110Z,17993,0.004333496,-0.101257324,0.018676758
1735321802118,2024-12-27T17:50:02.118Z,18001,-0.0087890625,-0.099731445,0.024597168
1735321802127,2024-12-27T17:50:02.127Z,18010,0.0028686523,-0.1027832,0.036499023
1735321802137,2024-12-27T17:50:02.137Z,18020,0.012145996,-0.107910156,0.04260254
1735321802145,2024-12-27T17:50:02.145Z,18028,0.014038086,-0.1081543,0.03741455
1735321802156,2024-12-27T17:50:02.156Z,18039,0.011474609,-0.103271484,0.028198242
1735321802165,2024-12-27T17:50:02.165Z,18048,0.007080078,-0.09863281,0.023620605
1735321802174,2024-12-27T17:50:02.174Z,18057,0.006958008,-0.10205078,0.023071289
1735321802183,2024-12-27T17:50:02.183Z,18066,0.008117676,-0.113220215,0.022949219
1735321802192,2024-12-27T17:50:02.192Z,18075,0.025024414,-0.12176514,0.020202637
1735321802201,2024-12-27T17:50:02.201Z,18084,0.039001465,-0.12414551,0.015991211
1735321802210,2024-12-27T17:50:02.210Z,18093,0.028137207,-0.121398926,0.00970459
1735321802220,2024-12-27T17:50:02.220Z,18103,0.026306152,-0.11260986,0.008728027
1735321802228,2024-12-27T17:50:02.228Z,18111,0.027770996,-0.10015869,-0.0026245117
1735321802238,2024-12-27T17:50:02.238Z,18121,0.013000488,-0.0949707,-0.010437012
1735321802246,2024-12-27T17:50:02.246Z,18129,-0.0016479492,-0.0970459,-0.0107421875
1735321802256,2024-12-27T17:50:02.256Z,18139,0.0017700195,-0.10748291,-0.0064086914
1735321802266,2024-12-27T17:50:02.266Z,18149,0.017700195,-0.119262695,-0.008178711
1735321802274,2024-12-27T17:50:02.274Z,18157,0.020935059,-0.123168945,-0.013977051
1735321802284,2024-12-27T17:50:02.284Z,18167,0.010620117,-0.120666504,-0.013977051
1735321802293,2024-12-27T17:50:02.293Z,18176,0.010559082,-0.11175537,-0.013122559
1735321802301,2024-12-27T17:50:02.301Z,18184,0.012817383,-0.099121094,-0.015563965
1735321802310,2024-12-27T17:50:02.310Z,18193,0.009521484,-0.09106445,-0.017578125
1735321802318,2024-12-27T17:50:02.318Z,18201,0.0076904297,-0.09564209,-0.01763916
1735321802327,2024-12-27T17:50:02.327Z,18210,0.0087890625,-0.105895996,-0.010620117
1735321802335,2024-12-27T17:50:02.335Z,18218,0.014221191,-0.11199951,-0.015258789
1735321802343,2024-12-27T17:50:02.343Z,18226,0.016235352,-0.115356445,-0.010864258
1735321802352,2024-12-27T17:50:02.352Z,18235,0.020812988,-0.11773682,-0.002319336
1735321802361,2024-12-27T17:50:02.361Z,18244,0.013244629,-0.11578369,-0.0015869141
1735321802369,2024-12-27T17:50:02.369Z,18252,0.003967285,-0.11328125,-0.0031738281
1735321802377,2024-12-27T17:50:02.377Z,18260,0.004638672,-0.113342285,-0.0048217773
1735321802385,2024-12-27T17:50:02.385Z,18268,0.006591797,-0.11407471,-0.003479004
1735321802394,2024-12-27T17:50:02.394Z,18277,0.0024414062,-0.11431885,0.00579834
1735321802403,2024-12-27T17:50:02.403Z,18286,0.00793457,-0.11340332,0.012145996
1735321802412,2024-12-27T17:50:02.412Z,18295,0.017028809,-0.11791992,0.008605957
1735321802422,2024-12-27T17:50:02.422Z,18305,0.0099487305,-0.11645508,0.0052490234
1735321802432,2024-12-27T17:50:02.432Z,18315,-0.0017700195,-0.1104126,-4.8828125E-4
1735321802446,2024-12-27T17:50:02.446Z,18329,0.005859375,-0.1104126,0.004272461
1735321802455,2024-12-27T17:50:02.455Z,18338,0.019348145,-0.11627197,0.008422852
1735321802465,2024-12-27T17:50:02.465Z,18348,0.008239746,-0.121520996,0.0012817383
1735321802475,2024-12-27T17:50:02.475Z,18358,-0.0017700195,-0.119140625,-3.0517578E-4
1735321802484,2024-12-27T17:50:02.484Z,18367,0.008056641,-0.125,8.544922E-4
1735321802493,2024-12-27T17:50:02.493Z,18376,0.015930176,-0.13531494,-1.8310547E-4
1735321802532,2024-12-27T17:50:02.532Z,18415,0.007751465,-0.13623047,-0.0048217773
1735321802539,2024-12-27T17:50:02.539Z,18422,0.0052490234,-0.12701416,-0.009216309
1735321802546,2024-12-27T17:50:02.546Z,18429,0.012878418,-0.112854004,-0.0045166016
1735321802554,2024-12-27T17:50:02.554Z,18437,0.014282227,-0.10498047,0.0014648438
1735321802562,2024-12-27T17:50:02.562Z,18445,0.0061035156,-0.1081543,-0.001159668
1735321802570,2024-12-27T17:50:02.570Z,18453,0.0030517578,-0.11920166,0.0025024414
1735321802581,2024-12-27T17:50:02.581Z,18464,0.006713867,-0.12896729,0.007080078
1735321802590,2024-12-27T17:50:02.590Z,18473,0.007080078,-0.13018799,0.0064697266
1735321802598,2024-12-27T17:50:02.598Z,18481,-5.493164E-4,-0.11975098,0.0037841797
1735321802606,2024-12-27T17:50:02.606Z,18489,-0.0063476562,-0.11126709,0.006286621
1735321802614,2024-12-27T17:50:02.614Z,18497,-0.011474609,-0.11529541,0.008056641
1735321802623,2024-12-27T17:50:02.623Z,18506,-0.014709473,-0.12542725,0.0076904297
1735321802668,2024-12-27T17:50:02.668Z,18551,-0.010559082,-0.13531494,0.0064697266
1735321802676,2024-12-27T17:50:02.676Z,18559,-0.008911133,-0.13470459,0.012268066
1735321802685,2024-12-27T17:50:02.685Z,18568,-0.010253906,-0.13604736,0.011047363
1735321802692,2024-12-27T17:50:02.692Z,18575,-0.0043945312,-0.1385498,0.008300781
1735321802699,2024-12-27T17:50:02.699Z,18582,-0.005859375,-0.128479,0.008605957
1735321802707,2024-12-27T17:50:02.707Z,18590,-0.003967285,-0.13110352,0.0015869141
1735321802714,2024-12-27T17:50:02.714Z,18597,0.008666992,-0.13568115,6.1035156E-5
1735321802721,2024-12-27T17:50:02.721Z,18604,0.010498047,-0.12542725,0.002746582
1735321802727,2024-12-27T17:50:02.727Z,18610,0.012634277,-0.12487793,0.003540039
1735321802733,2024-12-27T17:50:02.733Z,18616,0.013305664,-0.13360596,0.0034179688
1735321802740,2024-12-27T17:50:02.740Z,18623,-1.8310547E-4,-0.13116455,0.0059814453
1735321802756,2024-12-27T17:50:02.756Z,18639,6.713867E-4,-0.12548828,0.010498047
1735321802763,2024-12-27T17:50:02.763Z,18646,-0.005126953,-0.12640381,0.010131836
1735321802770,2024-12-27T17:50:02.770Z,18653,-0.013916016,-0.13201904,0.011657715
1735321802777,2024-12-27T17:50:02.777Z,18660,-0.011230469,-0.12988281,0.008605957
1735321802784,2024-12-27T17:50:02.784Z,18667,-0.006713867,-0.12194824,0.013366699
1735321802808,2024-12-27T17:50:02.808Z,18691,0.002319336,-0.11956787,0.022583008
1735321802815,2024-12-27T17:50:02.815Z,18698,0.0010986328,-0.12164307,0.028625488
1735321802823,2024-12-27T17:50:02.823Z,18706,0.0012817383,-0.12414551,0.030822754
1735321802831,2024-12-27T17:50:02.831Z,18714,0.0053710938,-0.12426758,0.015625
1735321802839,2024-12-27T17:50:02.839Z,18722,0.009277344,-0.11114502,0.011962891
1735321802846,2024-12-27T17:50:02.846Z,18729,0.008300781,-0.09307861,0.010131836
1735321802853,2024-12-27T17:50:02.853Z,18736,0.00390625,-0.09124756,0.005004883
1735321802860,2024-12-27T17:50:02.860Z,18743,-0.004699707,-0.11437988,0.007446289
1735321802868,2024-12-27T17:50:02.868Z,18751,-0.020202637,-0.14678955,0.008605957
1735321802875,2024-12-27T17:50:02.875Z,18758,-0.028198242,-0.16339111,-4.8828125E-4
1735321802883,2024-12-27T17:50:02.883Z,18766,-0.012451172,-0.159729,0.0021972656
1735321802898,2024-12-27T17:50:02.898Z,18781,0.003479004,-0.13092041,0.00579834
1735321802904,2024-12-27T17:50:02.904Z,18787,0.0010986328,-0.09539795,0.0028076172
1735321802911,2024-12-27T17:50:02.911Z,18794,0.019470215,-0.087646484,0.012451172
1735321802917,2024-12-27T17:50:02.917Z,18800,0.030822754,-0.099243164,0.015808105
1735321802937,2024-12-27T17:50:02.937Z,18820,0.011413574,-0.11230469,0.022155762
1735321802944,2024-12-27T17:50:02.944Z,18827,0.016174316,-0.13421631,0.027709961
1735321802951,2024-12-27T17:50:02.951Z,18834,0.004333496,-0.14361572,0.018615723
1735321802958,2024-12-27T17:50:02.958Z,18841,-0.0134887695,-0.13909912,0.013977051
1735321803028,2024-12-27T17:50:03.028Z,18911,-0.015014648,-0.13244629,0.008483887
1735321803035,2024-12-27T17:50:03.035Z,18918,-0.010437012,-0.12817383,0.013793945
1735321803042,2024-12-27T17:50:03.042Z,18925,-0.0056152344,-0.1251831,0.026550293
1735321803050,2024-12-27T17:50:03.050Z,18933,-0.004638672,-0.12408447,0.027893066
1735321803058,2024-12-27T17:50:03.058Z,18941,0.00793457,-0.11639404,0.025146484
1735321803065,2024-12-27T17:50:03.065Z,18948,0.027038574,-0.107299805,0.020324707
1735321803122,2024-12-27T17:50:03.122Z,19005,0.026245117,-0.10064697,0.023864746
1735321803129,2024-12-27T17:50:03.129Z,19012,0.015563965,-0.118774414,0.02911377
1735321803137,2024-12-27T17:50:03.137Z,19020,0.014831543,-0.13098145,0.023864746
1735321803144,2024-12-27T17:50:03.144Z,19027,0.004333496,-0.1161499,0.010620117
1735321803152,2024-12-27T17:50:03.152Z,19035,0.0036621094,-0.11468506,0.0033569336
1735321803167,2024-12-27T17:50:03.167Z,19050,0.0021362305,-0.12237549,0.006958008
1735321803208,2024-12-27T17:50:03.208Z,19091,-0.004699707,-0.12402344,0.013183594
1735321803215,2024-12-27T17:50:03.215Z,19098,0.012878418,-0.12786865,0.008911133
1735321803222,2024-12-27T17:50:03.222Z,19105,0.009460449,-0.12939453,-0.0010986328
1735321803230,2024-12-27T17:50:03.230Z,19113,0.016235352,-0.13323975,0.010559082
1735321803238,2024-12-27T17:50:03.238Z,19121,0.026000977,-0.12890625,0.01977539
1735321803245,2024-12-27T17:50:03.245Z,19128,0.023803711,-0.10119629,0.026184082
1735321803257,2024-12-27T17:50:03.257Z,19140,0.01373291,-0.10455322,0.015075684
1735321803264,2024-12-27T17:50:03.264Z,19147,0.0037231445,-0.11791992,0.01373291
1735321803272,2024-12-27T17:50:03.272Z,19155,0.011657715,-0.14001465,0.02166748
1735321803278,2024-12-27T17:50:03.278Z,19161,-0.0028076172,-0.14331055,0.035461426
1735321803285,2024-12-27T17:50:03.285Z,19168,0.0040283203,-0.12506104,0.044067383
1735321803348,2024-12-27T17:50:03.348Z,19231,0.032043457,-0.10571289,0.039123535
1735321803353,2024-12-27T17:50:03.353Z,19236,0.020812988,-0.112976074,0.04107666
1735321803365,2024-12-27T17:50:03.365Z,19248,0.008422852,-0.13409424,0.038879395
1735321803373,2024-12-27T17:50:03.373Z,19256,0.015991211,-0.14569092,0.030944824
1735321803381,2024-12-27T17:50:03.381Z,19264,0.021911621,-0.1282959,0.032226562
1735321803390,2024-12-27T17:50:03.390Z,19273,0.027282715,-0.10144043,0.034179688
1735321803398,2024-12-27T17:50:03.398Z,19281,0.022033691,-0.107055664,0.02960205
1735321803410,2024-12-27T17:50:03.410Z,19293,-9.1552734E-4,-0.12988281,0.031799316
1735321803422,2024-12-27T17:50:03.422Z,19305,0.016296387,-0.14642334,0.024902344
1735321803436,2024-12-27T17:50:03.436Z,19319,0.02746582,-0.13287354,0.03149414
1735321803445,2024-12-27T17:50:03.445Z,19328,0.022766113,-0.11230469,0.042785645
1735321803458,2024-12-27T17:50:03.458Z,19341,0.036987305,-0.11956787,0.042419434
1735321803462,2024-12-27T17:50:03.462Z,19345,0.033996582,-0.1081543,0.022094727
1735321803480,2024-12-27T17:50:03.480Z,19363,0.032714844,-0.105041504,0.03125
1735321803487,2024-12-27T17:50:03.487Z,19370,0.042663574,-0.11669922,0.03955078
1735321803495,2024-12-27T17:50:03.495Z,19378,0.031188965,-0.12573242,0.040161133
1735321803504,2024-12-27T17:50:03.504Z,19387,0.026489258,-0.13104248,0.041931152
1735321803511,2024-12-27T17:50:03.511Z,19394,0.030700684,-0.12799072,0.044067383
1735321803526,2024-12-27T17:50:03.526Z,19409,0.02178955,-0.11804199,0.047302246
1735321803567,2024-12-27T17:50:03.567Z,19450,0.025939941,-0.11608887,0.047729492
1735321803575,2024-12-27T17:50:03.575Z,19458,0.02166748,-0.12359619,0.056274414
1735321803578,2024-12-27T17:50:03.578Z,19461,0.025512695,-0.13360596,0.05682373
1735321803584,2024-12-27T17:50:03.584Z,19467,0.038146973,-0.13226318,0.04046631
1735321803592,2024-12-27T17:50:03.592Z,19475,0.032165527,-0.11364746,0.042907715
1735321803615,2024-12-27T17:50:03.615Z,19498,0.055480957,-0.10632324,0.048706055
1735321803618,2024-12-27T17:50:03.618Z,19501,0.061767578,-0.11151123,0.048034668
1735321803626,2024-12-27T17:50:03.626Z,19509,0.06524658,-0.11779785,0.049072266
1735321803633,2024-12-27T17:50:03.633Z,19516,0.0657959,-0.11663818,0.038330078
1735321803641,2024-12-27T17:50:03.641Z,19524,0.044067383,-0.1159668,0.03253174
1735321803648,2024-12-27T17:50:03.648Z,19531,0.03741455,-0.11706543,0.04168701
1735321803662,2024-12-27T17:50:03.662Z,19545,0.035583496,-0.12908936,0.04284668
1735321803670,2024-12-27T17:50:03.670Z,19553,0.035705566,-0.14001465,0.045715332
1735321803674,2024-12-27T17:50:03.674Z,19557,0.016723633,-0.11993408,0.04345703
1735321803682,2024-12-27T17:50:03.682Z,19565,0.045288086,-0.12109375,0.06036377
1735321803690,2024-12-27T17:50:03.690Z,19573,0.040893555,-0.11199951,0.07055664
1735321803697,2024-12-27T17:50:03.697Z,19580,0.06817627,-0.11999512,0.064697266
1735321803707,2024-12-27T17:50:03.707Z,19590,0.08227539,-0.10845947,0.07330322
1735321803714,2024-12-27T17:50:03.714Z,19597,0.061279297,-0.093811035,0.064819336
1735321803721,2024-12-27T17:50:03.721Z,19604,0.056030273,-0.10644531,0.04547119
1735321803729,2024-12-27T17:50:03.729Z,19612,0.052490234,-0.124816895,0.041625977
1735321803736,2024-12-27T17:50:03.736Z,19619,0.047180176,-0.12939453,0.042785645
1735321803792,2024-12-27T17:50:03.792Z,19675,0.0345459,-0.1260376,0.046936035
1735321803846,2024-12-27T17:50:03.846Z,19729,0.026184082,-0.12261963,0.059387207
1735321803856,2024-12-27T17:50:03.856Z,19739,0.025390625,-0.11907959,0.066467285
1735321803867,2024-12-27T17:50:03.867Z,19750,0.03186035,-0.12145996,0.05419922
1735321803877,2024-12-27T17:50:03.877Z,19760,0.027832031,-0.1217041,0.042114258
1735321803887,2024-12-27T17:50:03.887Z,19770,0.038513184,-0.113098145,0.03668213
1735321803897,2024-12-27T17:50:03.897Z,19780,0.0423584,-0.10845947,0.04534912
1735321803906,2024-12-27T17:50:03.906Z,19789,0.038208008,-0.11291504,0.057373047
1735321803914,2024-12-27T17:50:03.914Z,19797,0.047607422,-0.105773926,0.05090332
1735321803922,2024-12-27T17:50:03.922Z,19805,0.06719971,-0.08013916,0.045654297
1735321803930,2024-12-27T17:50:03.930Z,19813,0.070251465,-0.07373047,0.03942871
1735321803938,2024-12-27T17:50:03.938Z,19821,0.061401367,-0.10614014,0.034118652
1735321803942,2024-12-27T17:50:03.942Z,19825,0.0390625,-0.114746094,0.039123535
1735321803946,2024-12-27T17:50:03.946Z,19829,0.03161621,-0.13665771,0.05255127
1735321803953,2024-12-27T17:50:03.953Z,19836,0.023864746,-0.12689209,0.04650879
1735321803961,2024-12-27T17:50:03.961Z,19844,0.027038574,-0.1015625,0.045898438
1735321803969,2024-12-27T17:50:03.969Z,19852,0.034606934,-0.093933105,0.057861328
1735321803977,2024-12-27T17:50:03.977Z,19860,0.045043945,-0.09875488,0.06121826
1735321803984,2024-12-27T17:50:03.984Z,19867,0.057373047,-0.12030029,0.055419922
1735321803992,2024-12-27T17:50:03.992Z,19875,0.059509277,-0.1270752,0.059387207
1735321803999,2024-12-27T17:50:03.999Z,19882,0.053649902,-0.1149292,0.058776855
1735321804020,2024-12-27T17:50:04.020Z,19903,0.053527832,-0.11224365,0.054138184
1735321804028,2024-12-27T17:50:04.028Z,19911,0.04083252,-0.10064697,0.047973633
1735321804035,2024-12-27T17:50:04.035Z,19918,0.039367676,-0.08843994,0.047424316
1735321804043,2024-12-27T17:50:04.043Z,19926,0.04901123,-0.080078125,0.059265137
1735321804053,2024-12-27T17:50:04.053Z,19936,0.059143066,-0.09863281,0.06286621
1735321804062,2024-12-27T17:50:04.062Z,19945,0.053344727,-0.13549805,0.055847168
1735321804069,2024-12-27T17:50:04.069Z,19952,0.030029297,-0.13952637,0.03955078
1735321804077,2024-12-27T17:50:04.077Z,19960,0.017150879,-0.101989746,0.027038574
1735321804106,2024-12-27T17:50:04.106Z,19989,0.028259277,-0.07879639,0.039245605
1735321804113,2024-12-27T17:50:04.113Z,19996,0.04107666,-0.08477783,0.06286621
1735321804121,2024-12-27T17:50:04.121Z,20004,0.042114258,-0.10070801,0.061584473
1735321804158,2024-12-27T17:50:04.158Z,20041,0.04949951,-0.12860107,0.061035156
1735321804166,2024-12-27T17:50:04.166Z,20049,0.043518066,-0.14428711,0.054504395
1735321804175,2024-12-27T17:50:04.175Z,20058,0.036254883,-0.13317871,0.043029785
1735321804182,2024-12-27T17:50:04.182Z,20065,0.026794434,-0.11206055,0.03930664
1735321804198,2024-12-27T17:50:04.198Z,20081,0.031433105,-0.103637695,0.04522705
1735321804210,2024-12-27T17:50:04.210Z,20093,0.054382324,-0.104003906,0.06317139
1735321804217,2024-12-27T17:50:04.217Z,20100,0.057373047,-0.10760498,0.06677246
1735321804226,2024-12-27T17:50:04.226Z,20109,0.046447754,-0.12298584,0.05102539
1735321804234,2024-12-27T17:50:04.234Z,20117,0.041137695,-0.12597656,0.047790527
1735321804242,2024-12-27T17:50:04.242Z,20125,0.041870117,-0.11468506,0.049194336
1735321804250,2024-12-27T17:50:04.250Z,20133,0.035461426,-0.10852051,0.039978027
1735321804287,2024-12-27T17:50:04.287Z,20170,0.04473877,-0.10406494,0.053894043
1735321804294,2024-12-27T17:50:04.294Z,20177,0.04925537,-0.11621094,0.05053711
1735321804300,2024-12-27T17:50:04.300Z,20183,0.042175293,-0.12884521,0.045166016
1735321804308,2024-12-27T17:50:04.308Z,20191,0.026184082,-0.118896484,0.03881836
1735321804317,2024-12-27T17:50:04.317Z,20200,0.029296875,-0.10205078,0.036376953
1735321804325,2024-12-27T17:50:04.325Z,20208,0.03564453,-0.09814453,0.03479004
1735321804382,2024-12-27T17:50:04.382Z,20265,0.038330078,-0.103515625,0.040649414
1735321804392,2024-12-27T17:50:04.392Z,20275,0.036621094,-0.11743164,0.041503906
1735321804403,2024-12-27T17:50:04.403Z,20286,0.038513184,-0.12963867,0.042175293
1735321804425,2024-12-27T17:50:04.425Z,20308,0.035705566,-0.12194824,0.03894043
1735321804433,2024-12-27T17:50:04.433Z,20316,0.0289917,-0.10784912,0.03375244
1735321804440,2024-12-27T17:50:04.440Z,20323,0.03173828,-0.10357666,0.031066895
1735321804444,2024-12-27T17:50:04.444Z,20327,0.026428223,-0.10040283,0.033447266
1735321804453,2024-12-27T17:50:04.453Z,20336,0.037841797,-0.115112305,0.048583984
1735321804461,2024-12-27T17:50:04.461Z,20344,0.03527832,-0.13323975,0.0524292
1735321804558,2024-12-27T17:50:04.558Z,20441,0.028503418,-0.13397217,0.045837402
1735321804569,2024-12-27T17:50:04.569Z,20452,0.026123047,-0.11633301,0.03967285
1735321804607,2024-12-27T17:50:04.607Z,20490,0.02508545,-0.093688965,0.044067383
1735321804614,2024-12-27T17:50:04.614Z,20497,0.030151367,-0.14147949,0.055419922
1735321804651,2024-12-27T17:50:04.651Z,20534,0.03765869,-0.12072754,0.055358887
1735321804668,2024-12-27T17:50:04.668Z,20551,0.032409668,-0.10168457,0.04876709
1735321804680,2024-12-27T17:50:04.680Z,20563,0.022033691,-0.09429932,0.032287598
1735321804685,2024-12-27T17:50:04.685Z,20568,0.018371582,-0.089904785,0.024353027
1735321804696,2024-12-27T17:50:04.696Z,20579,0.027404785,-0.09991455,0.034301758
1735321804705,2024-12-27T17:50:04.705Z,20588,0.039367676,-0.13183594,0.035095215
1735321804714,2024-12-27T17:50:04.714Z,20597,0.0345459,-0.14624023,0.034423828
1735321804721,2024-12-27T17:50:04.721Z,20604,0.022155762,-0.12017822,0.034973145
1735321804729,2024-12-27T17:50:04.729Z,20612,0.02178955,-0.1361084,0.037597656
1735321804733,2024-12-27T17:50:04.733Z,20616,0.019042969,-0.11578369,0.027770996
1735321804739,2024-12-27T17:50:04.739Z,20622,0.016357422,-0.10455322,0.023498535
1735321804747,2024-12-27T17:50:04.747Z,20630,0.025024414,-0.14941406,0.044677734
1735321804830,2024-12-27T17:50:04.830Z,20713,0.021972656,-0.13006592,0.032592773
1735321804834,2024-12-27T17:50:04.834Z,20717,0.014465332,-0.08660889,0.027770996
1735321804841,2024-12-27T17:50:04.841Z,20724,0.020568848,-0.11608887,0.03918457
1735321804847,2024-12-27T17:50:04.847Z,20730,0.023986816,-0.14190674,0.044128418
1735321804853,2024-12-27T17:50:04.853Z,20736,0.01965332,-0.14111328,0.034484863
1735321804879,2024-12-27T17:50:04.879Z,20762,0.014038086,-0.120788574,0.024047852
1735321804889,2024-12-27T17:50:04.889Z,20772,0.005065918,-0.093444824,0.024414062
1735321804898,2024-12-27T17:50:04.898Z,20781,0.0018920898,-0.092041016,0.023986816
1735321804907,2024-12-27T17:50:04.907Z,20790,0.00970459,-0.12188721,0.02709961
1735321804915,2024-12-27T17:50:04.915Z,20798,0.013427734,-0.14593506,0.03656006
1735321804924,2024-12-27T17:50:04.924Z,20807,0.017578125,-0.13970947,0.034851074
1735321804931,2024-12-27T17:50:04.931Z,20814,0.011291504,-0.12615967,0.0234375
1735321804938,2024-12-27T17:50:04.938Z,20821,0.013000488,-0.11206055,0.016845703
1735321804966,2024-12-27T17:50:04.966Z,20849,0.0064697266,-0.10852051,0.012573242
1735321804973,2024-12-27T17:50:04.973Z,20856,0.0072631836,-0.10675049,0.021606445
1735321804981,2024-12-27T17:50:04.981Z,20864,0.012268066,-0.10949707,0.029785156
1735321804990,2024-12-27T17:50:04.990Z,20873,0.015930176,-0.11456299,0.035583496
1735321804999,2024-12-27T17:50:04.999Z,20882,0.009765625,-0.1159668,0.03729248
1735321805008,2024-12-27T17:50:05.008Z,20891,0.0038452148,-0.120666504,0.027404785
1735321805016,2024-12-27T17:50:05.016Z,20899,-7.9345703E-4,-0.123168945,0.017211914
1735321805055,2024-12-27T17:50:05.055Z,20938,-0.008544922,-0.11810303,0.013000488
1735321805063,2024-12-27T17:50:05.063Z,20946,-0.0056762695,-0.12017822,0.010681152
1735321805071,2024-12-27T17:50:05.071Z,20954,0.0010375977,-0.1251831,0.014038086
1735321805190,2024-12-27T17:50:05.190Z,21073,1.8310547E-4,-0.12561035,0.021911621
1735321805282,2024-12-27T17:50:05.282Z,21165,0.0067749023,-0.13879395,0.021728516
1735321805292,2024-12-27T17:50:05.292Z,21175,0.005065918,-0.13800049,0.0146484375
1735321805302,2024-12-27T17:50:05.302Z,21185,0.008178711,-0.12451172,0.010681152
1735321805312,2024-12-27T17:50:05.312Z,21195,0.011413574,-0.11444092,0.0067749023
1735321805322,2024-12-27T17:50:05.322Z,21205,0.0138549805,-0.11065674,0.015197754
1735321805333,2024-12-27T17:50:05.333Z,21216,0.022766113,-0.11206055,0.02545166
1735321805372,2024-12-27T17:50:05.372Z,21255,0.021911621,-0.11529541,0.026367188
1735321805387,2024-12-27T17:50:05.387Z,21270,-0.007507324,-0.12426758,0.01751709
1735321805396,2024-12-27T17:50:05.396Z,21279,-0.008300781,-0.124694824,0.0146484375
1735321805404,2024-12-27T17:50:05.404Z,21287,-0.0034179688,-0.12200928,0.013122559
1735321805413,2024-12-27T17:50:05.413Z,21296,6.713867E-4,-0.11444092,0.015686035
1735321805417,2024-12-27T17:50:05.417Z,21300,0.015136719,-0.13116455,0.017028809
1735321805421,2024-12-27T17:50:05.421Z,21304,0.0036010742,-0.11993408,0.019165039
1735321805427,2024-12-27T17:50:05.427Z,21310,-0.003479004,-0.11663818,0.015075684
1735321805436,2024-12-27T17:50:05.436Z,21319,-0.008911133,-0.12133789,0.016662598
1735321805445,2024-12-27T17:50:05.445Z,21328,-0.005065918,-0.13244629,0.011413574
1735321805456,2024-12-27T17:50:05.456Z,21339,-0.0012817383,-0.13378906,0.011657715
1735321805464,2024-12-27T17:50:05.464Z,21347,-0.0026245117,-0.12963867,0.015563965
1735321805470,2024-12-27T17:50:05.470Z,21353,-0.0033569336,-0.12805176,0.016662598
1735321805478,2024-12-27T17:50:05.478Z,21361,0.0048217773,-0.1282959,-0.0032958984
1735321805487,2024-12-27T17:50:05.487Z,21370,0.005126953,-0.12402344,-0.0044555664
1735321805496,2024-12-27T17:50:05.496Z,21379,-0.004760742,-0.112854004,0.005065918
1735321805510,2024-12-27T17:50:05.510Z,21393,-0.0040893555,-0.11444092,0.013671875
1735321805516,2024-12-27T17:50:05.516Z,21399,0.005065918,-0.1293335,0.011657715
1735321805523,2024-12-27T17:50:05.523Z,21406,0.0010375977,-0.12823486,0.007751465
1735321805530,2024-12-27T17:50:05.530Z,21413,-0.007385254,-0.11798096,0.0037231445
1735321805537,2024-12-27T17:50:05.537Z,21420,-0.0021362305,-0.11682129,0.0072631836
1735321805547,2024-12-27T17:50:05.547Z,21430,0.006958008,-0.110961914,0.01977539
1735321805550,2024-12-27T17:50:05.550Z,21433,-0.0030517578,-0.09887695,0.023925781
1735321805557,2024-12-27T17:50:05.557Z,21440,-0.008728027,-0.10308838,0.022766113
1735321805564,2024-12-27T17:50:05.564Z,21447,-0.0061035156,-0.118774414,0.020935059
1735321805570,2024-12-27T17:50:05.570Z,21453,-0.010925293,-0.121276855,0.016235352
1735321805577,2024-12-27T17:50:05.577Z,21460,-0.01361084,-0.120666504,0.016357422
1735321805592,2024-12-27T17:50:05.592Z,21475,-0.009094238,-0.12701416,0.018554688
1735321805599,2024-12-27T17:50:05.599Z,21482,-0.0048828125,-0.12701416,0.016174316
1735321805606,2024-12-27T17:50:05.606Z,21489,-0.0057373047,-0.12054443,0.0067749023
1735321805642,2024-12-27T17:50:05.642Z,21525,-0.0078125,-0.119506836,-9.1552734E-4
1735321805651,2024-12-27T17:50:05.651Z,21534,-0.008483887,-0.12719727,-1.2207031E-4
1735321805657,2024-12-27T17:50:05.657Z,21540,-0.0071411133,-0.13397217,7.9345703E-4
1735321805664,2024-12-27T17:50:05.664Z,21547,-0.008422852,-0.13049316,-6.1035156E-5
1735321805672,2024-12-27T17:50:05.672Z,21555,0.0044555664,-0.12548828,4.8828125E-4
1735321805682,2024-12-27T17:50:05.682Z,21565,0.013793945,-0.1184082,-0.0018310547
1735321805688,2024-12-27T17:50:05.688Z,21571,0.007507324,-0.10913086,-0.0045776367
1735321805695,2024-12-27T17:50:05.695Z,21578,0.0049438477,-0.1104126,-0.001953125
1735321805702,2024-12-27T17:50:05.702Z,21585,0.005004883,-0.119262695,0.004333496
1735321805708,2024-12-27T17:50:05.708Z,21591,0.0026855469,-0.12097168,0.0072631836
1735321805715,2024-12-27T17:50:05.715Z,21598,-0.0015258789,-0.11480713,0.008361816
1735321805730,2024-12-27T17:50:05.730Z,21613,-0.005554199,-0.11480713,0.012756348
1735321805736,2024-12-27T17:50:05.736Z,21619,-0.0060424805,-0.121276855,0.011047363
1735321805744,2024-12-27T17:50:05.744Z,21627,-0.0048217773,-0.12585449,0.009460449
1735321805752,2024-12-27T17:50:05.752Z,21635,-0.010925293,-0.119018555,0.0071411133
1735321805775,2024-12-27T17:50:05.775Z,21658,-0.016479492,-0.1126709,0.0060424805
1735321805782,2024-12-27T17:50:05.782Z,21665,-0.008972168,-0.119018555,0.012268066
1735321805788,2024-12-27T17:50:05.788Z,21671,-0.0076904297,-0.124694824,0.014282227
1735321805795,2024-12-27T17:50:05.795Z,21678,-0.0072021484,-0.123413086,0.013122559
1735321805802,2024-12-27T17:50:05.802Z,21685,-0.004760742,-0.11779785,0.012145996
1735321805817,2024-12-27T17:50:05.817Z,21700,-0.0063476562,-0.115356445,0.0071411133
1735321805823,2024-12-27T17:50:05.823Z,21706,0.0021972656,-0.1239624,0.0056762695
1735321805831,2024-12-27T17:50:05.831Z,21714,0.0076904297,-0.12628174,0.0018920898
1735321805837,2024-12-27T17:50:05.837Z,21720,0.0017089844,-0.12023926,-9.765625E-4
1735321805844,2024-12-27T17:50:05.844Z,21727,-0.0012207031,-0.11767578,-1.2207031E-4
1735321805851,2024-12-27T17:50:05.851Z,21734,-0.0030517578,-0.11669922,5.493164E-4
1735321805868,2024-12-27T17:50:05.868Z,21751,-0.0031738281,-0.12298584,0.0040893555
1735321805873,2024-12-27T17:50:05.873Z,21756,0.0040283203,-0.1373291,0.0040283203
1735321805880,2024-12-27T17:50:05.880Z,21763,0.0057373047,-0.13519287,-0.0022583008
1735321805887,2024-12-27T17:50:05.887Z,21770,0.0071411133,-0.11669922,6.1035156E-4
1735321805894,2024-12-27T17:50:05.894Z,21777,0.0064697266,-0.10443115,-0.0017089844
1735321805907,2024-12-27T17:50:05.907Z,21790,0.0016479492,-0.10217285,0.0
1735321805914,2024-12-27T17:50:05.914Z,21797,0.0016479492,-0.11224365,0.008544922
1735321805921,2024-12-27T17:50:05.921Z,21804,0.0061035156,-0.1282959,0.012268066
1735321805928,2024-12-27T17:50:05.928Z,21811,0.0022583008,-0.1293335,0.013061523
1735321805936,2024-12-27T17:50:05.936Z,21819,-0.0036010742,-0.12030029,0.009277344
1735321805944,2024-12-27T17:50:05.944Z,21827,-0.009094238,-0.117004395,1.2207031E-4
1735321806002,2024-12-27T17:50:06.002Z,21885,-0.009460449,-0.11975098,-0.003479004
1735321806008,2024-12-27T17:50:06.008Z,21891,-0.008300781,-0.12408447,-9.765625E-4
1735321806015,2024-12-27T17:50:06.015Z,21898,-0.006225586,-0.12402344,0.0064086914
1735321806021,2024-12-27T17:50:06.021Z,21904,-0.005065918,-0.12261963,0.012634277
1735321806028,2024-12-27T17:50:06.028Z,21911,-2.4414062E-4,-0.12213135,0.012145996
1735321806042,2024-12-27T17:50:06.042Z,21925,-0.0029296875,-0.12109375,0.0028076172
1735321806049,2024-12-27T17:50:06.049Z,21932,4.272461E-4,-0.12701416,-2.4414062E-4
1735321806055,2024-12-27T17:50:06.055Z,21938,0.0048828125,-0.12902832,0.0056152344
1735321806062,2024-12-27T17:50:06.062Z,21945,0.005859375,-0.12121582,0.0064697266
1735321806070,2024-12-27T17:50:06.070Z,21953,0.00970459,-0.1159668,0.0068359375
1735321806078,2024-12-27T17:50:06.078Z,21961,0.004211426,-0.1138916,0.0068969727
1735321806094,2024-12-27T17:50:06.094Z,21977,0.0,-0.12030029,0.0064697266
1735321806102,2024-12-27T17:50:06.102Z,21985,0.00390625,-0.13000488,0.0079956055
1735321806109,2024-12-27T17:50:06.109Z,21992,0.003112793,-0.12994385,0.006286621
1735321806115,2024-12-27T17:50:06.115Z,21998,0.0010375977,-0.1239624,0.005126953
1735321806122,2024-12-27T17:50:06.122Z,22005,3.6621094E-4,-0.119384766,0.0025024414
1735321806179,2024-12-27T17:50:06.179Z,22062,-0.0014038086,-0.117126465,0.0040893555
1735321806186,2024-12-27T17:50:06.186Z,22069,-0.0041503906,-0.11456299,0.0059814453
1735321806194,2024-12-27T17:50:06.194Z,22077,-0.010437012,-0.11627197,0.003967285
1735321806201,2024-12-27T17:50:06.201Z,22084,-0.010314941,-0.12670898,0.0063476562
1735321806209,2024-12-27T17:50:06.209Z,22092,-0.006713867,-0.13232422,0.009399414
1735321806217,2024-12-27T17:50:06.217Z,22100,-0.004760742,-0.12487793,0.011474609
1735321806225,2024-12-27T17:50:06.225Z,22108,-0.0067749023,-0.111694336,0.0099487305
1735321806320,2024-12-27T17:50:06.320Z,22203,-0.0076904297,-0.10803223,0.0029907227
1735321806328,2024-12-27T17:50:06.328Z,22211,-3.0517578E-4,-0.111328125,0.0026245117
1735321806336,2024-12-27T17:50:06.336Z,22219,0.005004883,-0.11553955,0.00390625
1735321806346,2024-12-27T17:50:06.346Z,22229,0.005432129,-0.12023926,0.0075683594
1735321806356,2024-12-27T17:50:06.356Z,22239,0.0025634766,-0.12512207,0.010253906
1735321806366,2024-12-27T17:50:06.366Z,22249,0.0016479492,-0.12988281,0.010070801
1735321806375,2024-12-27T17:50:06.375Z,22258,0.004638672,-0.1329956,0.0038452148
1735321806384,2024-12-27T17:50:06.384Z,22267,0.0078125,-0.1307373,-0.0018920898
1735321806403,2024-12-27T17:50:06.403Z,22286,0.0022583008,-0.12524414,-0.0048217773
1735321806501,2024-12-27T17:50:06.501Z,22384,3.0517578E-4,-0.12036133,-0.0017089844
1735321806510,2024-12-27T17:50:06.510Z,22393,0.0072021484,-0.12402344,0.0017089844
1735321806514,2024-12-27T17:50:06.514Z,22397,0.011291504,-0.13366699,0.008361816
1735321806518,2024-12-27T17:50:06.518Z,22401,0.0078125,-0.11907959,0.0038452148
1735321806527,2024-12-27T17:50:06.527Z,22410,0.0059814453,-0.11999512,0.0049438477
1735321806536,2024-12-27T17:50:06.536Z,22419,0.007507324,-0.12286377,0.007873535
1735321806544,2024-12-27T17:50:06.544Z,22427,0.0056762695,-0.12658691,0.01159668
1735321806552,2024-12-27T17:50:06.552Z,22435,0.0025634766,-0.12438965,0.010925293
1735321806561,2024-12-27T17:50:06.561Z,22444,0.005859375,-0.120910645,0.0068969727
1735321806569,2024-12-27T17:50:06.569Z,22452,0.0068359375,-0.11730957,0.0025634766
1735321806578,2024-12-27T17:50:06.578Z,22461,1.8310547E-4,-0.115722656,-1.2207031E-4
1735321806586,2024-12-27T17:50:06.586Z,22469,-0.0041503906,-0.121276855,9.1552734E-4
1735321806590,2024-12-27T17:50:06.590Z,22473,1.2207031E-4,-0.1295166,0.0020751953
1735321806594,2024-12-27T17:50:06.594Z,22477,0.00793457,-0.12036133,0.0072631836
1735321806602,2024-12-27T17:50:06.602Z,22485,0.008117676,-0.11633301,0.009216309
1735321806608,2024-12-27T17:50:06.608Z,22491,0.010986328,-0.113220215,0.005859375
1735321806615,2024-12-27T17:50:06.615Z,22498,0.012023926,-0.11621094,-0.0017089844
1735321806621,2024-12-27T17:50:06.621Z,22504,0.009460449,-0.12084961,-0.004699707
1735321806630,2024-12-27T17:50:06.630Z,22513,0.0038452148,-0.12243652,-0.0048217773
1735321806637,2024-12-27T17:50:06.637Z,22520,0.0013427734,-0.12921143,-0.003479004
1735321806644,2024-12-27T17:50:06.644Z,22527,0.003967285,-0.13690186,3.6621094E-4
1735321806652,2024-12-27T17:50:06.652Z,22535,0.006225586,-0.13665771,3.0517578E-4
1735321806657,2024-12-27T17:50:06.657Z,22540,0.010681152,-0.13012695,0.0030517578
1735321806671,2024-12-27T17:50:06.671Z,22554,0.012634277,-0.12005615,0.0067749023
1735321806678,2024-12-27T17:50:06.678Z,22561,0.008605957,-0.11065674,0.0056152344
1735321806720,2024-12-27T17:50:06.720Z,22603,0.009521484,-0.113098145,0.007873535
1735321806727,2024-12-27T17:50:06.727Z,22610,0.013244629,-0.12371826,0.012817383
1735321806734,2024-12-27T17:50:06.734Z,22617,0.016357422,-0.12768555,0.016174316
1735321806741,2024-12-27T17:50:06.741Z,22624,0.017150879,-0.12158203,0.018249512
1735321806748,2024-12-27T17:50:06.748Z,22631,0.014587402,-0.115234375,0.016784668
1735321806853,2024-12-27T17:50:06.853Z,22736,0.013366699,-0.115722656,0.01361084
1735321806861,2024-12-27T17:50:06.861Z,22744,0.010498047,-0.11529541,0.012451172
1735321806869,2024-12-27T17:50:06.869Z,22752,0.008666992,-0.12005615,0.008972168
1735321806877,2024-12-27T17:50:06.877Z,22760,0.01184082,-0.12963867,0.011657715
1735321806887,2024-12-27T17:50:06.887Z,22770,0.013061523,-0.13128662,0.010437012
1735321806896,2024-12-27T17:50:06.896Z,22779,0.012573242,-0.12738037,0.010253906
1735321806905,2024-12-27T17:50:06.905Z,22788,0.012023926,-0.120666504,0.013244629
1735321806914,2024-12-27T17:50:06.914Z,22797,0.011108398,-0.115478516,0.0072631836
1735321806923,2024-12-27T17:50:06.923Z,22806,0.012878418,-0.11480713,0.0020751953
1735321806931,2024-12-27T17:50:06.931Z,22814,0.014831543,-0.11706543,0.0026245117
1735321806938,2024-12-27T17:50:06.938Z,22821,0.014038086,-0.119018555,0.0038452148
1735321806947,2024-12-27T17:50:06.947Z,22830,0.013305664,-0.121520996,0.005859375
1735321806951,2024-12-27T17:50:06.951Z,22834,0.0134887695,-0.12408447,0.011108398
1735321806958,2024-12-27T17:50:06.958Z,22841,0.019165039,-0.121520996,0.0138549805
1735321806965,2024-12-27T17:50:06.965Z,22848,0.018066406,-0.11328125,0.01159668
1735321806988,2024-12-27T17:50:06.988Z,22871,0.013305664,-0.109313965,0.0087890625
1735321806996,2024-12-27T17:50:06.996Z,22879,0.0119018555,-0.11199951,0.008728027
1735321807002,2024-12-27T17:50:07.002Z,22885,0.015258789,-0.117126465,0.009094238
1735321807009,2024-12-27T17:50:07.009Z,22892,0.020996094,-0.12194824,0.011230469
1735321807018,2024-12-27T17:50:07.018Z,22901,0.022155762,-0.12017822,0.012512207
1735321807081,2024-12-27T17:50:07.081Z,22964,0.020324707,-0.11639404,0.012207031
1735321807088,2024-12-27T17:50:07.088Z,22971,0.016845703,-0.11657715,0.008666992
1735321807096,2024-12-27T17:50:07.096Z,22979,0.015686035,-0.11987305,0.0099487305
1735321807104,2024-12-27T17:50:07.104Z,22987,0.015991211,-0.12005615,0.0126953125
1735321807112,2024-12-27T17:50:07.112Z,22995,0.018615723,-0.120910645,0.0107421875
1735321807119,2024-12-27T17:50:07.119Z,23002,0.021362305,-0.122680664,0.013061523
1735321807126,2024-12-27T17:50:07.126Z,23009,0.018310547,-0.122558594,0.011474609
1735321807133,2024-12-27T17:50:07.133Z,23016,0.018920898,-0.123413086,0.013061523
1735321807139,2024-12-27T17:50:07.139Z,23022,0.024963379,-0.12194824,0.017944336
1735321807146,2024-12-27T17:50:07.146Z,23029,0.024475098,-0.11853027,0.019165039
1735321807153,2024-12-27T17:50:07.153Z,23036,0.016357422,-0.115112305,0.016113281
1735321807168,2024-12-27T17:50:07.168Z,23051,0.011962891,-0.117370605,0.010620117
1735321807172,2024-12-27T17:50:07.172Z,23055,0.017944336,-0.1204834,0.014892578
1735321807175,2024-12-27T17:50:07.175Z,23058,0.0178833,-0.11590576,0.018188477
1735321807182,2024-12-27T17:50:07.182Z,23065,0.01953125,-0.11425781,0.014709473
1735321807188,2024-12-27T17:50:07.188Z,23071,0.023010254,-0.11706543,0.010986328
1735321807194,2024-12-27T17:50:07.194Z,23077,0.020629883,-0.11846924,0.008605957
1735321807200,2024-12-27T17:50:07.200Z,23083,0.018188477,-0.12017822,0.008605957
1735321807220,2024-12-27T17:50:07.220Z,23103,0.022338867,-0.11828613,0.013549805
1735321807225,2024-12-27T17:50:07.225Z,23108,0.023376465,-0.11187744,0.012878418
1735321807232,2024-12-27T17:50:07.232Z,23115,0.020507812,-0.10992432,0.013122559
1735321807237,2024-12-27T17:50:07.237Z,23120,0.018676758,-0.113464355,0.014892578
1735321807243,2024-12-27T17:50:07.243Z,23126,0.020568848,-0.12023926,0.016052246
1735321807256,2024-12-27T17:50:07.256Z,23139,0.01928711,-0.1227417,0.013549805
1735321807262,2024-12-27T17:50:07.262Z,23145,0.014587402,-0.12158203,0.010314941
1735321807268,2024-12-27T17:50:07.268Z,23151,0.013671875,-0.11804199,0.013000488
1735321807274,2024-12-27T17:50:07.274Z,23157,0.01763916,-0.11450195,0.018188477
1735321807280,2024-12-27T17:50:07.280Z,23163,0.022827148,-0.113342285,0.022460938
1735321807286,2024-12-27T17:50:07.286Z,23169,0.022583008,-0.11505127,0.01953125
1735321807304,2024-12-27T17:50:07.304Z,23187,0.022155762,-0.11895752,0.017333984
1735321807311,2024-12-27T17:50:07.311Z,23194,0.02166748,-0.12231445,0.020690918
1735321807349,2024-12-27T17:50:07.349Z,23232,0.022155762,-0.12335205,0.02142334
1735321807356,2024-12-27T17:50:07.356Z,23239,0.025146484,-0.12121582,0.022033691
1735321807364,2024-12-27T17:50:07.364Z,23247,0.02758789,-0.117004395,0.025146484
1735321807372,2024-12-27T17:50:07.372Z,23255,0.026611328,-0.11468506,0.02154541
1735321807379,2024-12-27T17:50:07.379Z,23262,0.02532959,-0.116760254,0.020935059
1735321807386,2024-12-27T17:50:07.386Z,23269,0.023071289,-0.119628906,0.01940918
1735321807395,2024-12-27T17:50:07.395Z,23278,0.022766113,-0.120910645,0.017822266
1735321807402,2024-12-27T17:50:07.402Z,23285,0.024597168,-0.121032715,0.020629883
1735321807409,2024-12-27T17:50:07.409Z,23292,0.021911621,-0.11932373,0.024291992
1735321807417,2024-12-27T17:50:07.417Z,23300,0.015014648,-0.11584473,0.022583008
1735321807423,2024-12-27T17:50:07.423Z,23306,0.014526367,-0.11462402,0.020141602
1735321807439,2024-12-27T17:50:07.439Z,23322,0.013183594,-0.11407471,0.016357422
1735321807446,2024-12-27T17:50:07.446Z,23329,0.012573242,-0.11480713,0.012939453
1735321807452,2024-12-27T17:50:07.452Z,23335,0.01361084,-0.11401367,0.013305664
1735321807458,2024-12-27T17:50:07.458Z,23341,0.016540527,-0.11352539,0.012390137
1735321807464,2024-12-27T17:50:07.464Z,23347,0.022338867,-0.11590576,0.013061523
1735321807470,2024-12-27T17:50:07.470Z,23353,0.02734375,-0.117370605,0.014892578
1735321807532,2024-12-27T17:50:07.532Z,23415,0.028198242,-0.11694336,0.014465332
1735321807537,2024-12-27T17:50:07.537Z,23420,0.024536133,-0.11608887,0.012084961
1735321807543,2024-12-27T17:50:07.543Z,23426,0.022827148,-0.11773682,0.011657715
1735321807548,2024-12-27T17:50:07.548Z,23431,0.022949219,-0.12017822,0.011047363
1735321807554,2024-12-27T17:50:07.554Z,23437,0.02508545,-0.12042236,0.013000488
1735321807573,2024-12-27T17:50:07.573Z,23456,0.027404785,-0.11779785,0.013366699
1735321807580,2024-12-27T17:50:07.580Z,23463,0.027404785,-0.11633301,0.011047363
1735321807590,2024-12-27T17:50:07.590Z,23473,0.024353027,-0.117614746,0.011352539
1735321807600,2024-12-27T17:50:07.600Z,23483,0.025024414,-0.120910645,0.014038086
1735321807607,2024-12-27T17:50:07.607Z,23490,0.022033691,-0.121398926,0.011169434
1735321807615,2024-12-27T17:50:07.615Z,23498,0.01727295,-0.120666504,0.0068969727
1735321807621,2024-12-27T17:50:07.621Z,23504,0.017028809,-0.121520996,0.007751465
1735321807627,2024-12-27T17:50:07.627Z,23510,0.021484375,-0.12109375,0.012023926
1735321807633,2024-12-27T17:50:07.633Z,23516,0.025146484,-0.11785889,0.014282227
1735321807639,2024-12-27T17:50:07.639Z,23522,0.023986816,-0.11553955,0.012329102
1735321807645,2024-12-27T17:50:07.645Z,23528,0.021728516,-0.11541748,0.013061523
1735321807662,2024-12-27T17:50:07.662Z,23545,0.022521973,-0.11755371,0.016540527
1735321807668,2024-12-27T17:50:07.668Z,23551,0.024230957,-0.11932373,0.021118164
1735321807710,2024-12-27T17:50:07.710Z,23593,0.02557373,-0.119262695,0.022399902
1735321807717,2024-12-27T17:50:07.717Z,23600,0.024291992,-0.11859131,0.01953125
1735321807723,2024-12-27T17:50:07.723Z,23606,0.024291992,-0.11907959,0.019897461
1735321807729,2024-12-27T17:50:07.729Z,23612,0.027893066,-0.1184082,0.025146484
1735321807751,2024-12-27T17:50:07.751Z,23634,0.02734375,-0.11444092,0.02532959
1735321807799,2024-12-27T17:50:07.799Z,23682,0.02520752,-0.111694336,0.024780273
1735321807807,2024-12-27T17:50:07.807Z,23690,0.024230957,-0.11254883,0.02319336
1735321807814,2024-12-27T17:50:07.814Z,23697,0.026062012,-0.11871338,0.023010254
1735321807822,2024-12-27T17:50:07.822Z,23705,0.026062012,-0.12371826,0.022827148
1735321807829,2024-12-27T17:50:07.829Z,23712,0.026245117,-0.12414551,0.024414062
1735321807837,2024-12-27T17:50:07.837Z,23720,0.026245117,-0.12121582,0.022460938
1735321807849,2024-12-27T17:50:07.849Z,23732,0.020263672,-0.115600586,0.017578125
1735321807857,2024-12-27T17:50:07.857Z,23740,0.018371582,-0.111816406,0.016296387
1735321807865,2024-12-27T17:50:07.865Z,23748,0.021362305,-0.111083984,0.019958496
1735321807872,2024-12-27T17:50:07.872Z,23755,0.01751709,-0.10949707,0.018188477
1735321807878,2024-12-27T17:50:07.878Z,23761,0.014831543,-0.11010742,0.015075684
1735321807890,2024-12-27T17:50:07.890Z,23773,0.023986816,-0.11053467,0.006652832
1735321807896,2024-12-27T17:50:07.896Z,23779,0.023925781,-0.10845947,0.0072631836
1735321807903,2024-12-27T17:50:07.903Z,23786,0.022644043,-0.10845947,0.012023926
1735321807909,2024-12-27T17:50:07.909Z,23792,0.022399902,-0.11151123,0.009643555
1735321807916,2024-12-27T17:50:07.916Z,23799,0.024353027,-0.11303711,0.0079956055
1735321807978,2024-12-27T17:50:07.978Z,23861,0.01776123,-0.10784912,0.0051879883
1735321807985,2024-12-27T17:50:07.985Z,23868,0.010070801,-0.10418701,0.006713867
1735321807993,2024-12-27T17:50:07.993Z,23876,0.012634277,-0.10809326,0.013061523
1735321808001,2024-12-27T17:50:08.001Z,23884,0.018432617,-0.11657715,0.017028809
1735321808009,2024-12-27T17:50:08.009Z,23892,0.02142334,-0.1217041,0.018859863
1735321808016,2024-12-27T17:50:08.016Z,23899,0.02520752,-0.11999512,0.019165039
1735321808025,2024-12-27T17:50:08.025Z,23908,0.027709961,-0.1182251,0.02557373
1735321808032,2024-12-27T17:50:08.032Z,23915,0.023376465,-0.119384766,0.029785156
1735321808039,2024-12-27T17:50:08.039Z,23922,0.020935059,-0.11859131,0.030944824
1735321808045,2024-12-27T17:50:08.045Z,23928,0.023742676,-0.11480713,0.026123047
1735321808052,2024-12-27T17:50:08.052Z,23935,0.014160156,-0.11413574,0.020507812
1735321808066,2024-12-27T17:50:08.066Z,23949,0.019165039,-0.1138916,0.02368164
1735321808114,2024-12-27T17:50:08.114Z,23997,0.02520752,-0.111083984,0.025390625
1735321808121,2024-12-27T17:50:08.121Z,24004,0.01953125,-0.111328125,0.022338867
1735321808158,2024-12-27T17:50:08.158Z,24041,0.020690918,-0.12036133,0.017089844
1735321808167,2024-12-27T17:50:08.167Z,24050,0.014953613,-0.120788574,0.016662598
1735321808177,2024-12-27T17:50:08.177Z,24060,0.00579834,-0.11187744,0.01953125
1735321808184,2024-12-27T17:50:08.184Z,24067,0.0043945312,-0.10449219,0.011962891
1735321808192,2024-12-27T17:50:08.192Z,24075,0.0078125,-0.10601807,0.00579834
1735321808200,2024-12-27T17:50:08.200Z,24083,0.010986328,-0.11138916,0.012145996
1735321808207,2024-12-27T17:50:08.207Z,24090,0.009277344,-0.11553955,0.011352539
1735321808214,2024-12-27T17:50:08.214Z,24097,0.008605957,-0.11895752,0.010253906
1735321808221,2024-12-27T17:50:08.221Z,24104,0.023376465,-0.11999512,0.012207031
1735321808226,2024-12-27T17:50:08.226Z,24109,0.029663086,-0.11553955,0.005554199
1735321808229,2024-12-27T17:50:08.229Z,24112,0.016479492,-0.1048584,0.005554199
1735321808236,2024-12-27T17:50:08.236Z,24119,0.018066406,-0.11199951,0.0060424805
1735321808253,2024-12-27T17:50:08.253Z,24136,0.017700195,-0.12188721,0.0079956055
1735321808259,2024-12-27T17:50:08.259Z,24142,0.022216797,-0.1239624,0.008728027
1735321808265,2024-12-27T17:50:08.265Z,24148,0.01586914,-0.119140625,0.008972168
1735321808271,2024-12-27T17:50:08.271Z,24154,0.013916016,-0.11218262,0.012451172
1735321808277,2024-12-27T17:50:08.277Z,24160,0.0115356445,-0.1083374,0.018676758
1735321808292,2024-12-27T17:50:08.292Z,24175,0.012084961,-0.11016846,0.0138549805
1735321808299,2024-12-27T17:50:08.299Z,24182,0.009399414,-0.11364746,0.0025634766
1735321808307,2024-12-27T17:50:08.307Z,24190,0.01159668,-0.11419678,-0.0017089844
1735321808313,2024-12-27T17:50:08.313Z,24196,0.01586914,-0.109191895,1.8310547E-4
1735321808319,2024-12-27T17:50:08.319Z,24202,0.012145996,-0.10760498,0.0025024414
1735321808325,2024-12-27T17:50:08.325Z,24208,0.00390625,-0.1081543,0.0028686523
1735321808340,2024-12-27T17:50:08.340Z,24223,0.011230469,-0.10961914,-0.0021362305
1735321808346,2024-12-27T17:50:08.346Z,24229,0.016418457,-0.11437988,-0.0057373047
1735321808352,2024-12-27T17:50:08.352Z,24235,0.010864258,-0.113098145,-0.009033203
1735321808358,2024-12-27T17:50:08.358Z,24241,0.0073242188,-0.11199951,-0.010131836
1735321808364,2024-12-27T17:50:08.364Z,24247,0.012878418,-0.11633301,-0.0078125
1735321808384,2024-12-27T17:50:08.384Z,24267,0.014953613,-0.11566162,-0.008728027
1735321808391,2024-12-27T17:50:08.391Z,24274,0.018310547,-0.11187744,-0.005065918
1735321808396,2024-12-27T17:50:08.396Z,24279,0.01739502,-0.113220215,-0.0040893555
1735321808404,2024-12-27T17:50:08.404Z,24287,0.007019043,-0.118774414,-0.005859375
1735321808410,2024-12-27T17:50:08.410Z,24293,0.0015869141,-0.1227417,-0.0056152344
1735321808427,2024-12-27T17:50:08.427Z,24310,0.013305664,-0.12683105,-0.0026245117
1735321808478,2024-12-27T17:50:08.478Z,24361,0.020996094,-0.12524414,0.0010986328
1735321808485,2024-12-27T17:50:08.485Z,24368,0.021972656,-0.12005615,0.0010986328
1735321808492,2024-12-27T17:50:08.492Z,24375,0.016540527,-0.11590576,0.001159668
1735321808500,2024-12-27T17:50:08.500Z,24383,0.010925293,-0.11450195,0.0026245117
1735321808508,2024-12-27T17:50:08.508Z,24391,0.0056152344,-0.11669922,0.004333496
1735321808518,2024-12-27T17:50:08.518Z,24401,0.0079956055,-0.123291016,0.0030517578
1735321808524,2024-12-27T17:50:08.524Z,24407,0.016479492,-0.12738037,0.0021362305
1735321808531,2024-12-27T17:50:08.531Z,24414,0.01184082,-0.12384033,0.005126953
1735321808537,2024-12-27T17:50:08.537Z,24420,0.008911133,-0.12225342,0.01171875
1735321808543,2024-12-27T17:50:08.543Z,24426,0.010009766,-0.1239624,0.0138549805
1735321808550,2024-12-27T17:50:08.550Z,24433,0.0017700195,-0.11651611,0.004638672
1735321808566,2024-12-27T17:50:08.566Z,24449,8.544922E-4,-0.10247803,0.0032348633
1735321808572,2024-12-27T17:50:08.572Z,24455,0.012756348,-0.101379395,0.014221191
1735321808578,2024-12-27T17:50:08.578Z,24461,0.014221191,-0.11224365,0.0154418945
1735321808585,2024-12-27T17:50:08.585Z,24468,0.010192871,-0.12213135,0.013183594
1735321808590,2024-12-27T17:50:08.590Z,24473,0.0025024414,-0.118774414,0.007873535
1735321808606,2024-12-27T17:50:08.606Z,24489,-0.008605957,-0.11401367,-6.1035156E-5
1735321808611,2024-12-27T17:50:08.611Z,24494,0.0015258789,-0.121154785,0.003112793
1735321808617,2024-12-27T17:50:08.617Z,24500,0.0020141602,-0.12957764,0.0033569336
1735321808623,2024-12-27T17:50:08.623Z,24506,-0.011169434,-0.12878418,-7.324219E-4
1735321808633,2024-12-27T17:50:08.633Z,24516,-0.0037841797,-0.13244629,-0.002746582
1735321808648,2024-12-27T17:50:08.648Z,24531,0.007080078,-0.13885498,0.0017089844
1735321808710,2024-12-27T17:50:08.710Z,24593,0.009033203,-0.13293457,0.006713867
1735321808725,2024-12-27T17:50:08.725Z,24608,0.010375977,-0.114746094,0.005004883
1735321808754,2024-12-27T17:50:08.754Z,24637,0.0045776367,-0.10253906,-0.0018310547
1735321808767,2024-12-27T17:50:08.767Z,24650,0.007751465,-0.1081543,-0.0032958984
1735321808781,2024-12-27T17:50:08.781Z,24664,0.010131836,-0.11791992,0.0015869141
1735321808796,2024-12-27T17:50:08.796Z,24679,0.0037841797,-0.124816895,0.007385254
1735321808808,2024-12-27T17:50:08.808Z,24691,0.0030517578,-0.13128662,0.0067749023
1735321808819,2024-12-27T17:50:08.819Z,24702,0.001159668,-0.12963867,0.0034179688
1735321808827,2024-12-27T17:50:08.827Z,24710,-0.005554199,-0.11608887,0.005554199
1735321808835,2024-12-27T17:50:08.835Z,24718,-0.009460449,-0.10986328,0.004760742
1735321808842,2024-12-27T17:50:08.842Z,24725,-0.011108398,-0.11291504,0.010864258
1735321808849,2024-12-27T17:50:08.849Z,24732,-0.005065918,-0.11395264,0.014892578
1735321808856,2024-12-27T17:50:08.856Z,24739,-0.0025634766,-0.1184082,0.01763916
1735321808859,2024-12-27T17:50:08.859Z,24742,-0.008972168,-0.13293457,0.021850586
1735321808866,2024-12-27T17:50:08.866Z,24749,0.0021362305,-0.1383667,0.021850586
1735321808872,2024-12-27T17:50:08.872Z,24755,0.0030517578,-0.11431885,0.014892578
1735321808877,2024-12-27T17:50:08.877Z,24760,0.0012207031,-0.099731445,0.010009766
1735321808884,2024-12-27T17:50:08.884Z,24767,0.010803223,-0.10760498,0.009033203
1735321808889,2024-12-27T17:50:08.889Z,24772,0.015136719,-0.1171875,0.01361084
1735321808896,2024-12-27T17:50:08.896Z,24779,0.002380371,-0.122924805,0.006652832
1735321808921,2024-12-27T17:50:08.921Z,24804,-0.0071411133,-0.1352539,-1.8310547E-4
1735321808927,2024-12-27T17:50:08.927Z,24810,-0.003479004,-0.14819336,-0.0012817383
1735321808934,2024-12-27T17:50:08.934Z,24817,0.007019043,-0.14587402,-0.0010986328
1735321808941,2024-12-27T17:50:08.941Z,24824,-0.0012207031,-0.12005615,-0.009338379
1735321808947,2024-12-27T17:50:08.947Z,24830,-0.0036010742,-0.10064697,-0.0053100586
1735321808954,2024-12-27T17:50:08.954Z,24837,0.01574707,-0.10797119,0.0048217773
1735321808970,2024-12-27T17:50:08.970Z,24853,0.01184082,-0.12005615,0.008361816
1735321808976,2024-12-27T17:50:08.976Z,24859,-0.0017700195,-0.12561035,0.0099487305
1735321808982,2024-12-27T17:50:08.982Z,24865,-0.005065918,-0.13079834,0.010681152
1735321808989,2024-12-27T17:50:08.989Z,24872,-0.0032348633,-0.13250732,0.015380859
1735321808994,2024-12-27T17:50:08.994Z,24877,0.008056641,-0.119384766,0.020568848
1735321809012,2024-12-27T17:50:09.012Z,24895,0.0049438477,-0.10522461,0.021972656
1735321809018,2024-12-27T17:50:09.018Z,24901,-1.2207031E-4,-0.10681152,0.026794434
1735321809060,2024-12-27T17:50:09.060Z,24943,0.0043945312,-0.10913086,0.032287598
1735321809149,2024-12-27T17:50:09.149Z,25032,0.0067749023,-0.10882568,0.034118652
1735321809157,2024-12-27T17:50:09.157Z,25040,0.0038452148,-0.12866211,0.027648926
1735321809165,2024-12-27T17:50:09.165Z,25048,-0.0032958984,-0.15045166,0.013244629
1735321809173,2024-12-27T17:50:09.173Z,25056,-0.010681152,-0.14752197,0.007507324
1735321809181,2024-12-27T17:50:09.181Z,25064,0.0072631836,-0.12451172,0.016967773
1735321809198,2024-12-27T17:50:09.198Z,25081,0.012817383,-0.10021973,0.013183594
1735321809207,2024-12-27T17:50:09.207Z,25090,0.009887695,-0.107055664,0.012084961
1735321809216,2024-12-27T17:50:09.216Z,25099,0.019226074,-0.12945557,0.012145996
1735321809229,2024-12-27T17:50:09.229Z,25112,0.018188477,-0.13195801,0.010681152
1735321809239,2024-12-27T17:50:09.239Z,25122,0.0073242188,-0.12359619,0.010986328
1735321809248,2024-12-27T17:50:09.248Z,25131,-0.004638672,-0.13122559,0.0056762695
1735321809255,2024-12-27T17:50:09.255Z,25138,-0.0065307617,-0.13702393,0.006652832
1735321809258,2024-12-27T17:50:09.258Z,25141,-0.003112793,-0.13287354,0.025512695
1735321809264,2024-12-27T17:50:09.264Z,25147,-0.008239746,-0.14434814,0.015319824
1735321809285,2024-12-27T17:50:09.285Z,25168,0.0013427734,-0.1359253,0.009094238
1735321809292,2024-12-27T17:50:09.292Z,25175,3.0517578E-4,-0.113586426,0.007507324
1735321809298,2024-12-27T17:50:09.298Z,25181,0.010009766,-0.10083008,0.009094238
1735321809302,2024-12-27T17:50:09.302Z,25185,0.015563965,-0.11254883,0.013183594
1735321809309,2024-12-27T17:50:09.309Z,25192,0.007385254,-0.117492676,0.015258789
1735321809315,2024-12-27T17:50:09.315Z,25198,0.013671875,-0.123413086,0.024658203
1735321809329,2024-12-27T17:50:09.329Z,25212,0.020385742,-0.13623047,0.026306152
1735321809336,2024-12-27T17:50:09.336Z,25219,0.016723633,-0.13604736,0.02532959
1735321809342,2024-12-27T17:50:09.342Z,25225,0.012023926,-0.12176514,0.027038574
1735321809348,2024-12-27T17:50:09.348Z,25231,0.016052246,-0.11767578,0.0289917
1735321809354,2024-12-27T17:50:09.354Z,25237,0.01965332,-0.12408447,0.038879395
1735321809417,2024-12-27T17:50:09.417Z,25300,0.019592285,-0.13397217,0.043395996
1735321809424,2024-12-27T17:50:09.424Z,25307,0.014770508,-0.13580322,0.031311035
1735321809429,2024-12-27T17:50:09.429Z,25312,0.017700195,-0.12805176,0.034362793
1735321809434,2024-12-27T17:50:09.434Z,25317,0.031921387,-0.11633301,0.041992188
1735321809440,2024-12-27T17:50:09.440Z,25323,0.038146973,-0.105773926,0.03326416
1735321809445,2024-12-27T17:50:09.445Z,25328,0.030395508,-0.103393555,0.035705566
1735321809466,2024-12-27T17:50:09.466Z,25349,0.02368164,-0.114990234,0.042236328
1735321809473,2024-12-27T17:50:09.473Z,25356,0.012329102,-0.13067627,0.035888672
1735321809480,2024-12-27T17:50:09.480Z,25363,0.015380859,-0.13745117,0.022583008
1735321809487,2024-12-27T17:50:09.487Z,25370,0.015625,-0.13330078,0.018737793
1735321809493,2024-12-27T17:50:09.493Z,25376,0.008056641,-0.124694824,0.021362305
1735321809602,2024-12-27T17:50:09.602Z,25485,-0.0020751953,-0.115112305,0.024658203
1735321809605,2024-12-27T17:50:09.605Z,25488,0.059143066,-0.11651611,0.042053223
1735321809611,2024-12-27T17:50:09.611Z,25494,0.05493164,-0.09899902,0.046875
1735321809619,2024-12-27T17:50:09.619Z,25502,0.032714844,-0.099975586,0.044921875
1735321809627,2024-12-27T17:50:09.627Z,25510,0.036499023,-0.123046875,0.038513184
1735321809644,2024-12-27T17:50:09.644Z,25527,0.036132812,-0.1350708,0.03753662
1735321809658,2024-12-27T17:50:09.658Z,25541,0.01928711,-0.12683105,0.031982422
1735321809671,2024-12-27T17:50:09.671Z,25554,0.017944336,-0.12042236,0.030700684
1735321809684,2024-12-27T17:50:09.684Z,25567,0.016540527,-0.12011719,0.04321289
1735321809693,2024-12-27T17:50:09.693Z,25576,0.014465332,-0.12573242,0.0423584
1735321809700,2024-12-27T17:50:09.700Z,25583,0.0061035156,-0.12188721,0.034606934
1735321809732,2024-12-27T17:50:09.732Z,25615,0.0107421875,-0.11999512,0.030578613
1735321809737,2024-12-27T17:50:09.737Z,25620,0.022338867,-0.13153076,0.031799316
1735321809745,2024-12-27T17:50:09.745Z,25628,0.014343262,-0.13317871,0.037353516
1735321809753,2024-12-27T17:50:09.753Z,25636,0.023864746,-0.123046875,0.0435791
1735321809760,2024-12-27T17:50:09.760Z,25643,0.03515625,-0.116882324,0.06427002
1735321809767,2024-12-27T17:50:09.767Z,25650,0.044006348,-0.124572754,0.07714844
1735321809871,2024-12-27T17:50:09.871Z,25754,0.04498291,-0.12322998,0.07348633
1735321809884,2024-12-27T17:50:09.884Z,25767,0.041931152,-0.11694336,0.056762695
1735321809898,2024-12-27T17:50:09.898Z,25781,0.04345703,-0.11816406,0.0524292
1735321809907,2024-12-27T17:50:09.907Z,25790,0.048828125,-0.11999512,0.0546875
1735321809916,2024-12-27T17:50:09.916Z,25799,0.047058105,-0.124938965,0.06665039
1735321810005,2024-12-27T17:50:10.005Z,25888,0.05126953,-0.13256836,0.070251465
1735321810020,2024-12-27T17:50:10.020Z,25903,0.031188965,-0.123535156,0.017944336
1735321810036,2024-12-27T17:50:10.036Z,25919,0.039916992,-0.1204834,0.026000977
1735321810051,2024-12-27T17:50:10.051Z,25934,0.039489746,-0.11682129,0.0524292
1735321810151,2024-12-27T17:50:10.151Z,26034,0.028564453,-0.12310791,0.051818848
1735321810168,2024-12-27T17:50:10.168Z,26051,0.035217285,-0.12896729,0.04949951
1735321810183,2024-12-27T17:50:10.183Z,26066,0.0423584,-0.11651611,0.0635376
1735321810187,2024-12-27T17:50:10.187Z,26070,0.03387451,-0.091796875,0.02722168
1735321810196,2024-12-27T17:50:10.196Z,26079,0.03564453,-0.09643555,0.03717041
1735321810206,2024-12-27T17:50:10.206Z,26089,0.033996582,-0.10882568,0.034973145
1735321810215,2024-12-27T17:50:10.215Z,26098,0.030273438,-0.12561035,0.030090332
1735321810224,2024-12-27T17:50:10.224Z,26107,0.038208008,-0.12664795,0.04449463
1735321810228,2024-12-27T17:50:10.228Z,26111,0.03894043,-0.087890625,0.052001953
1735321810231,2024-12-27T17:50:10.231Z,26114,0.04272461,-0.1182251,0.06506348
1735321810241,2024-12-27T17:50:10.241Z,26124,0.04510498,-0.11340332,0.06274414
1735321810330,2024-12-27T17:50:10.330Z,26213,0.036254883,-0.095458984,0.06109619
1735321810372,2024-12-27T17:50:10.372Z,26255,0.031066895,-0.09283447,0.056396484
1735321810378,2024-12-27T17:50:10.378Z,26261,0.03302002,-0.10321045,0.047668457
1735321810390,2024-12-27T17:50:10.390Z,26273,0.033447266,-0.120910645,0.050964355
1735321810400,2024-12-27T17:50:10.400Z,26283,0.040039062,-0.13232422,0.054992676
1735321810410,2024-12-27T17:50:10.410Z,26293,0.030395508,-0.124938965,0.05859375
1735321810420,2024-12-27T17:50:10.420Z,26303,0.023742676,-0.11218262,0.061767578
1735321810454,2024-12-27T17:50:10.454Z,26337,0.028442383,-0.118774414,0.057006836
1735321810463,2024-12-27T17:50:10.463Z,26346,0.033081055,-0.11987305,0.0501709
1735321810472,2024-12-27T17:50:10.472Z,26355,0.02722168,-0.10614014,0.0390625
1735321810476,2024-12-27T17:50:10.476Z,26359,0.02142334,-0.10223389,0.038330078
1735321810484,2024-12-27T17:50:10.484Z,26367,0.020690918,-0.113098145,0.043151855
1735321810494,2024-12-27T17:50:10.494Z,26377,0.03161621,-0.14141846,0.036254883
1735321810545,2024-12-27T17:50:10.545Z,26428,0.02166748,-0.09863281,0.033813477
1735321810554,2024-12-27T17:50:10.554Z,26437,0.030395508,-0.11193848,0.042236328
1735321810563,2024-12-27T17:50:10.563Z,26446,0.029541016,-0.12982178,0.053710938
1735321810572,2024-12-27T17:50:10.572Z,26455,0.020019531,-0.13745117,0.049804688
1735321810581,2024-12-27T17:50:10.581Z,26464,0.013183594,-0.13562012,0.035827637
1735321810590,2024-12-27T17:50:10.590Z,26473,0.0178833,-0.122924805,0.033569336
1735321810599,2024-12-27T17:50:10.599Z,26482,0.020080566,-0.10290527,0.03302002
1735321810603,2024-12-27T17:50:10.603Z,26486,0.03161621,-0.13330078,0.046813965
1735321810611,2024-12-27T17:50:10.611Z,26494,0.023132324,-0.1262207,0.034240723
1735321810619,2024-12-27T17:50:10.619Z,26502,0.014099121,-0.118774414,0.015075684
1735321810627,2024-12-27T17:50:10.627Z,26510,0.012573242,-0.10876465,0.018310547
1735321810634,2024-12-27T17:50:10.634Z,26517,0.0126953125,-0.09844971,0.028503418
1735321810640,2024-12-27T17:50:10.640Z,26523,0.019042969,-0.10534668,0.03692627
1735321810643,2024-12-27T17:50:10.643Z,26526,0.013793945,-0.103027344,0.03967285
1735321810649,2024-12-27T17:50:10.649Z,26532,0.015686035,-0.11853027,0.035705566
1735321810655,2024-12-27T17:50:10.655Z,26538,0.01574707,-0.1340332,0.025939941
1735321810661,2024-12-27T17:50:10.661Z,26544,0.012512207,-0.12872314,0.020690918
1735321810676,2024-12-27T17:50:10.676Z,26559,0.014770508,-0.1227417,0.022827148
1735321810727,2024-12-27T17:50:10.727Z,26610,0.01373291,-0.123168945,0.030212402
1735321810734,2024-12-27T17:50:10.734Z,26617,0.0095825195,-0.11627197,0.034851074
1735321810742,2024-12-27T17:50:10.742Z,26625,0.011962891,-0.11260986,0.034118652
1735321810748,2024-12-27T17:50:10.748Z,26631,0.009338379,-0.11993408,0.026855469
1735321810756,2024-12-27T17:50:10.756Z,26639,0.009216309,-0.13079834,0.023498535
1735321810767,2024-12-27T17:50:10.767Z,26650,0.014099121,-0.13586426,0.023620605
1735321810773,2024-12-27T17:50:10.773Z,26656,0.012939453,-0.12463379,0.02947998
1735321810780,2024-12-27T17:50:10.780Z,26663,0.008850098,-0.10974121,0.035888672
1735321810813,2024-12-27T17:50:10.813Z,26696,0.008850098,-0.10900879,0.037231445
1735321810821,2024-12-27T17:50:10.821Z,26704,0.012268066,-0.111450195,0.030700684
1735321810827,2024-12-27T17:50:10.827Z,26710,0.014282227,-0.11254883,0.027832031
1735321810834,2024-12-27T17:50:10.834Z,26717,0.010498047,-0.11755371,0.030151367
1735321810842,2024-12-27T17:50:10.842Z,26725,0.011047363,-0.11639404,0.028320312
1735321810848,2024-12-27T17:50:10.848Z,26731,0.008422852,-0.11602783,0.02911377
1735321810859,2024-12-27T17:50:10.859Z,26742,0.010986328,-0.11706543,0.02935791
1735321810865,2024-12-27T17:50:10.865Z,26748,0.013061523,-0.119384766,0.024841309
1735321810870,2024-12-27T17:50:10.870Z,26753,0.0073242188,-0.116760254,0.02142334
1735321810876,2024-12-27T17:50:10.876Z,26759,0.0015258789,-0.11431885,0.0146484375
1735321810880,2024-12-27T17:50:10.880Z,26763,0.0051879883,-0.12768555,0.0072631836
1735321810902,2024-12-27T17:50:10.902Z,26785,0.003540039,-0.14074707,0.007019043
1735321810905,2024-12-27T17:50:10.905Z,26788,0.0053100586,-0.1383667,0.014526367
1735321810911,2024-12-27T17:50:10.911Z,26794,0.0037231445,-0.119018555,0.022277832
1735321810916,2024-12-27T17:50:10.916Z,26799,0.0026855469,-0.10925293,0.024414062
1735321810922,2024-12-27T17:50:10.922Z,26805,4.272461E-4,-0.115600586,0.019592285
1735321810928,2024-12-27T17:50:10.928Z,26811,0.002380371,-0.12438965,0.016174316
1735321810946,2024-12-27T17:50:10.946Z,26829,0.010803223,-0.1251831,0.014526367
1735321810951,2024-12-27T17:50:10.951Z,26834,0.0053710938,-0.1204834,0.015808105
1735321810957,2024-12-27T17:50:10.957Z,26840,0.0040893555,-0.11151123,0.025878906
1735321810963,2024-12-27T17:50:10.963Z,26846,0.013183594,-0.10253906,0.034057617
1735321810968,2024-12-27T17:50:10.968Z,26851,0.012390137,-0.09918213,0.03668213
1735321810973,2024-12-27T17:50:10.973Z,26856,0.0044555664,-0.105407715,0.032165527
1735321811042,2024-12-27T17:50:11.042Z,26925,0.0072021484,-0.12011719,0.025024414
1735321811047,2024-12-27T17:50:11.047Z,26930,0.0076904297,-0.1262207,0.019958496
1735321811052,2024-12-27T17:50:11.052Z,26935,0.0048828125,-0.119140625,0.017700195
1735321811057,2024-12-27T17:50:11.057Z,26940,7.324219E-4,-0.11242676,0.015136719
1735321811062,2024-12-27T17:50:11.062Z,26945,9.765625E-4,-0.11444092,0.015197754
1735321811083,2024-12-27T17:50:11.083Z,26966,0.004699707,-0.12054443,0.01550293
1735321811091,2024-12-27T17:50:11.091Z,26974,0.0030517578,-0.1262207,0.010986328
1735321811098,2024-12-27T17:50:11.098Z,26981,4.8828125E-4,-0.122802734,0.010437012
1735321811106,2024-12-27T17:50:11.106Z,26989,-6.1035156E-4,-0.12188721,0.011657715
1735321811117,2024-12-27T17:50:11.117Z,27000,6.713867E-4,-0.12561035,0.01159668
1735321811123,2024-12-27T17:50:11.123Z,27006,-0.0022583008,-0.12854004,0.0063476562
1735321811130,2024-12-27T17:50:11.130Z,27013,-5.493164E-4,-0.13061523,0.005065918
1735321811136,2024-12-27T17:50:11.136Z,27019,0.004333496,-0.12658691,0.008300781
1735321811143,2024-12-27T17:50:11.143Z,27026,0.002380371,-0.1159668,0.012084961
1735321811149,2024-12-27T17:50:11.149Z,27032,2.4414062E-4,-0.1161499,0.017578125
1735321811173,2024-12-27T17:50:11.173Z,27056,0.0075683594,-0.12359619,0.02178955
1735321811179,2024-12-27T17:50:11.179Z,27062,0.012878418,-0.12432861,0.019836426
1735321811185,2024-12-27T17:50:11.185Z,27068,0.0076904297,-0.12011719,0.01574707
1735321811192,2024-12-27T17:50:11.192Z,27075,0.001953125,-0.121520996,0.012329102
1735321811199,2024-12-27T17:50:11.199Z,27082,-7.9345703E-4,-0.12768555,0.010070801
1735321811205,2024-12-27T17:50:11.205Z,27088,0.0045166016,-0.12634277,0.021484375
1735321811221,2024-12-27T17:50:11.221Z,27104,0.008361816,-0.12023926,0.029663086
1735321811227,2024-12-27T17:50:11.227Z,27110,0.009399414,-0.119262695,0.026733398
1735321811233,2024-12-27T17:50:11.233Z,27116,0.007507324,-0.11871338,0.021972656
1735321811239,2024-12-27T17:50:11.239Z,27122,0.0017700195,-0.11608887,0.014892578
1735321811245,2024-12-27T17:50:11.245Z,27128,-0.0018920898,-0.11932373,0.0041503906
1735321811261,2024-12-27T17:50:11.261Z,27144,-0.006958008,-0.12438965,0.0031738281
1735321811267,2024-12-27T17:50:11.267Z,27150,-0.007873535,-0.11981201,0.014404297
1735321811273,2024-12-27T17:50:11.273Z,27156,3.6621094E-4,-0.11920166,0.019958496
1735321811279,2024-12-27T17:50:11.279Z,27162,0.007507324,-0.12249756,0.024902344
1735321811285,2024-12-27T17:50:11.285Z,27168,0.0012207031,-0.11895752,0.017333984
1735321811291,2024-12-27T17:50:11.291Z,27174,-0.003967285,-0.11602783,0.005554199
1735321811356,2024-12-27T17:50:11.356Z,27239,-0.005493164,-0.11920166,0.002319336
1735321811362,2024-12-27T17:50:11.362Z,27245,-0.008728027,-0.12200928,0.0041503906
1735321811368,2024-12-27T17:50:11.368Z,27251,-0.005859375,-0.12438965,0.0061035156
1735321811375,2024-12-27T17:50:11.375Z,27258,0.002319336,-0.13024902,0.0126953125
1735321811381,2024-12-27T17:50:11.381Z,27264,0.0017700195,-0.13024902,0.016357422
1735321811396,2024-12-27T17:50:11.396Z,27279,-0.0029907227,-0.12365723,0.01373291
1735321811402,2024-12-27T17:50:11.402Z,27285,0.0028686523,-0.117492676,0.010375977
1735321811409,2024-12-27T17:50:11.409Z,27292,2.4414062E-4,-0.11236572,0.008483887
1735321811415,2024-12-27T17:50:11.415Z,27298,-0.0048217773,-0.111572266,0.012145996
1735321811421,2024-12-27T17:50:11.421Z,27304,4.8828125E-4,-0.119384766,0.01373291
1735321811427,2024-12-27T17:50:11.427Z,27310,0.002746582,-0.12390137,0.014892578
1735321811492,2024-12-27T17:50:11.492Z,27375,-0.0010986328,-0.12084961,0.012207031
1735321811498,2024-12-27T17:50:11.498Z,27381,-0.0032958984,-0.11828613,0.0072021484
1735321811503,2024-12-27T17:50:11.503Z,27386,-0.0048828125,-0.11566162,0.008972168
1735321811509,2024-12-27T17:50:11.509Z,27392,-0.007080078,-0.11193848,0.01184082
1735321811515,2024-12-27T17:50:11.515Z,27398,-0.0049438477,-0.117370605,0.010620117
1735321811577,2024-12-27T17:50:11.577Z,27460,-0.0053710938,-0.12438965,0.010864258
1735321811584,2024-12-27T17:50:11.584Z,27467,-0.0026245117,-0.12463379,0.011291504
1735321811590,2024-12-27T17:50:11.590Z,27473,-4.8828125E-4,-0.12689209,0.010437012
1735321811596,2024-12-27T17:50:11.596Z,27479,-0.0041503906,-0.13110352,0.01159668
1735321811601,2024-12-27T17:50:11.601Z,27484,-0.0026245117,-0.13146973,0.011047363
1735321811622,2024-12-27T17:50:11.622Z,27505,4.8828125E-4,-0.12335205,0.01373291
1735321811629,2024-12-27T17:50:11.629Z,27512,-0.0061035156,-0.12145996,0.014831543
1735321811632,2024-12-27T17:50:11.632Z,27515,-0.0037231445,-0.12890625,0.016723633
1735321811639,2024-12-27T17:50:11.639Z,27522,0.0056762695,-0.13269043,0.020019531
1735321811646,2024-12-27T17:50:11.646Z,27529,0.008605957,-0.13513184,0.017089844
1735321811653,2024-12-27T17:50:11.653Z,27536,-0.0021972656,-0.13427734,0.0040893555
1735321811670,2024-12-27T17:50:11.670Z,27553,-0.004333496,-0.12432861,9.765625E-4
1735321811677,2024-12-27T17:50:11.677Z,27560,0.0049438477,-0.12133789,0.0115356445
1735321811684,2024-12-27T17:50:11.684Z,27567,0.009765625,-0.11694336,0.0099487305
1735321811691,2024-12-27T17:50:11.691Z,27574,0.0073242188,-0.117370605,0.006652832
1735321811698,2024-12-27T17:50:11.698Z,27581,0.001159668,-0.12121582,0.0076904297
1735321811704,2024-12-27T17:50:11.704Z,27587,-0.0025634766,-0.11828613,0.008544922
1735321811711,2024-12-27T17:50:11.711Z,27594,-0.006713867,-0.11468506,0.0063476562
1735321811762,2024-12-27T17:50:11.762Z,27645,-0.008361816,-0.11773682,0.008605957
1735321811769,2024-12-27T17:50:11.769Z,27652,-0.0075683594,-0.1237793,0.009155273
1735321811776,2024-12-27T17:50:11.776Z,27659,-0.005859375,-0.12817383,0.009521484
1735321811782,2024-12-27T17:50:11.782Z,27665,-0.0021362305,-0.12554932,0.009338379
1735321811792,2024-12-27T17:50:11.792Z,27675,0.0014648438,-0.1182251,0.010009766
1735321811802,2024-12-27T17:50:11.802Z,27685,-0.0053710938,-0.11621094,0.00982666
1735321811811,2024-12-27T17:50:11.811Z,27694,-0.008056641,-0.119628906,0.0044555664
1735321811819,2024-12-27T17:50:11.819Z,27702,-0.0053100586,-0.11999512,0.0015258789
1735321811826,2024-12-27T17:50:11.826Z,27709,-0.0012207031,-0.11816406,0.005126953
1735321811838,2024-12-27T17:50:11.838Z,27721,5.493164E-4,-0.11975098,0.0075683594
1735321811845,2024-12-27T17:50:11.845Z,27728,0.0025024414,-0.12017822,0.010620117
1735321811851,2024-12-27T17:50:11.851Z,27734,0.005432129,-0.11785889,0.002319336
1735321811856,2024-12-27T17:50:11.856Z,27739,0.0032348633,-0.113708496,0.002746582
1735321811861,2024-12-27T17:50:11.861Z,27744,-6.1035156E-5,-0.11364746,0.004211426
1735321811867,2024-12-27T17:50:11.867Z,27750,-0.0014648438,-0.119140625,0.003479004
1735321811874,2024-12-27T17:50:11.874Z,27757,0.0026245117,-0.12591553,0.006286621
1735321811892,2024-12-27T17:50:11.892Z,27775,0.005004883,-0.1303711,0.0061035156
1735321811898,2024-12-27T17:50:11.898Z,27781,0.0037841797,-0.13189697,0.001159668
1735321811904,2024-12-27T17:50:11.904Z,27787,9.765625E-4,-0.12896729,-0.0014648438
1735321811910,2024-12-27T17:50:11.910Z,27793,0.0018920898,-0.123168945,0.0012207031
1735321811915,2024-12-27T17:50:11.915Z,27798,-6.713867E-4,-0.12017822,0.0032348633
1735321811921,2024-12-27T17:50:11.921Z,27804,-0.0032348633,-0.122924805,0.007751465
1735321811943,2024-12-27T17:50:11.943Z,27826,-0.0014038086,-0.12750244,0.009338379
1735321811948,2024-12-27T17:50:11.948Z,27831,0.0028076172,-0.12597656,0.0052490234
1735321811953,2024-12-27T17:50:11.953Z,27836,0.0025634766,-0.12109375,0.0043945312
1735321811959,2024-12-27T17:50:11.959Z,27842,0.0018310547,-0.11987305,0.0053100586
1735321811965,2024-12-27T17:50:11.965Z,27848,0.0028686523,-0.119384766,0.0064697266
1735321811980,2024-12-27T17:50:11.980Z,27863,0.0021362305,-0.11785889,0.0099487305
1735321811986,2024-12-27T17:50:11.986Z,27869,0.0021972656,-0.12182617,0.012451172
1735321811992,2024-12-27T17:50:11.992Z,27875,0.0021362305,-0.12506104,0.011108398
1735321811997,2024-12-27T17:50:11.997Z,27880,-7.9345703E-4,-0.123291016,0.00793457
1735321812003,2024-12-27T17:50:12.003Z,27886,9.1552734E-4,-0.12219238,0.0076293945
1735321812008,2024-12-27T17:50:12.008Z,27891,0.004211426,-0.12249756,0.009033203
1735321812030,2024-12-27T17:50:12.030Z,27913,0.001953125,-0.12249756,0.008178711
1735321812036,2024-12-27T17:50:12.036Z,27919,0.0024414062,-0.11981201,0.010620117
1735321812042,2024-12-27T17:50:12.042Z,27925,0.008544922,-0.112854004,0.015625
1735321812049,2024-12-27T17:50:12.049Z,27932,8.544922E-4,-0.10992432,0.011047363
1735321812054,2024-12-27T17:50:12.054Z,27937,-5.493164E-4,-0.12347412,0.005004883
1735321812073,2024-12-27T17:50:12.073Z,27956,0.006591797,-0.13500977,0.001953125
1735321812079,2024-12-27T17:50:12.079Z,27962,0.0060424805,-0.1296997,1.2207031E-4
1735321812085,2024-12-27T17:50:12.085Z,27968,6.1035156E-4,-0.123168945,8.544922E-4
1735321812090,2024-12-27T17:50:12.090Z,27973,-0.006225586,-0.123168945,-0.005859375
1735321812116,2024-12-27T17:50:12.116Z,27999,-0.006164551,-0.1262207,-0.0043945312
1735321812123,2024-12-27T17:50:12.123Z,28006,-0.0030517578,-0.12939453,8.544922E-4
1735321812129,2024-12-27T17:50:12.129Z,28012,-0.002380371,-0.13201904,-9.765625E-4
1735321812135,2024-12-27T17:50:12.135Z,28018,-0.0029296875,-0.12506104,-6.713867E-4
1735321812141,2024-12-27T17:50:12.141Z,28024,-0.0065307617,-0.11621094,-0.0014648438
1735321812161,2024-12-27T17:50:12.161Z,28044,6.1035156E-5,-0.11706543,8.544922E-4
1735321812167,2024-12-27T17:50:12.167Z,28050,0.006958008,-0.119628906,0.0063476562
1735321812174,2024-12-27T17:50:12.174Z,28057,0.006225586,-0.115600586,0.011230469
1735321812180,2024-12-27T17:50:12.180Z,28063,0.0052490234,-0.111450195,0.014465332
1735321812207,2024-12-27T17:50:12.207Z,28090,0.0040893555,-0.113220215,0.012451172
1735321812213,2024-12-27T17:50:12.213Z,28096,0.0056152344,-0.11804199,0.012634277
1735321812219,2024-12-27T17:50:12.219Z,28102,0.0053100586,-0.121398926,0.012817383
1735321812226,2024-12-27T17:50:12.226Z,28109,0.007446289,-0.12640381,0.012634277
1735321812232,2024-12-27T17:50:12.232Z,28115,0.008850098,-0.12799072,0.009277344
1735321812252,2024-12-27T17:50:12.252Z,28135,0.0064086914,-0.124938965,0.0036621094
1735321812260,2024-12-27T17:50:12.260Z,28143,0.0010986328,-0.12408447,0.0015869141
1735321812266,2024-12-27T17:50:12.266Z,28149,-0.0024414062,-0.12597656,0.0028686523
1735321812272,2024-12-27T17:50:12.272Z,28155,-4.272461E-4,-0.12841797,0.0056152344
1735321812296,2024-12-27T17:50:12.296Z,28179,0.001953125,-0.1272583,0.006958008
1735321812302,2024-12-27T17:50:12.302Z,28185,0.003540039,-0.12689209,0.0078125
1735321812309,2024-12-27T17:50:12.309Z,28192,0.0071411133,-0.12927246,0.0059814453
1735321812315,2024-12-27T17:50:12.315Z,28198,0.006652832,-0.12860107,-4.8828125E-4
1735321812341,2024-12-27T17:50:12.341Z,28224,0.0041503906,-0.12561035,-0.0010375977
1735321812347,2024-12-27T17:50:12.347Z,28230,0.0056152344,-0.122558594,0.003112793
1735321812353,2024-12-27T17:50:12.353Z,28236,0.0079956055,-0.12237549,0.0057373047
1735321812360,2024-12-27T17:50:12.360Z,28243,0.008056641,-0.12438965,0.008300781
1735321812366,2024-12-27T17:50:12.366Z,28249,0.0076904297,-0.1270752,0.011291504
1735321812385,2024-12-27T17:50:12.385Z,28268,0.01184082,-0.12786865,0.012023926
1735321812391,2024-12-27T17:50:12.391Z,28274,0.0138549805,-0.12402344,0.00982666
1735321812479,2024-12-27T17:50:12.479Z,28362,0.0076904297,-0.11804199,0.008300781
1735321812492,2024-12-27T17:50:12.492Z,28375,0.0053710938,-0.11975098,0.006164551
1735321812505,2024-12-27T17:50:12.505Z,28388,0.006286621,-0.12530518,0.0038452148
1735321812519,2024-12-27T17:50:12.519Z,28402,0.0049438477,-0.12548828,0.006164551
1735321812528,2024-12-27T17:50:12.528Z,28411,0.0048828125,-0.123291016,0.008666992
1735321812536,2024-12-27T17:50:12.536Z,28419,0.0068359375,-0.12347412,0.0095825195
1735321812572,2024-12-27T17:50:12.572Z,28455,0.009216309,-0.12298584,0.007751465
1735321812581,2024-12-27T17:50:12.581Z,28464,0.007019043,-0.123291016,0.0021362305
1735321812590,2024-12-27T17:50:12.590Z,28473,0.0072021484,-0.12384033,0.0029296875
1735321812599,2024-12-27T17:50:12.599Z,28482,0.010925293,-0.1239624,0.0029907227
1735321812607,2024-12-27T17:50:12.607Z,28490,0.010803223,-0.120666504,0.0021362305
1735321812616,2024-12-27T17:50:12.616Z,28499,0.0048217773,-0.119628906,0.0010375977
1735321812623,2024-12-27T17:50:12.623Z,28506,0.006958008,-0.12573242,0.0029907227
1735321812630,2024-12-27T17:50:12.630Z,28513,0.009521484,-0.12841797,0.004211426
1735321812637,2024-12-27T17:50:12.637Z,28520,0.009277344,-0.12438965,0.0043945312
1735321812643,2024-12-27T17:50:12.643Z,28526,0.01739502,-0.11639404,0.010986328
1735321812649,2024-12-27T17:50:12.649Z,28532,0.015991211,-0.10681152,0.010864258
1735321812660,2024-12-27T17:50:12.660Z,28543,0.0015258789,-0.12017822,0.008850098
1735321812666,2024-12-27T17:50:12.666Z,28549,0.005554199,-0.12097168,0.010986328
1735321812671,2024-12-27T17:50:12.671Z,28554,0.004760742,-0.11987305,0.011474609
1735321812676,2024-12-27T17:50:12.676Z,28559,0.0036010742,-0.11804199,0.008911133
1735321812681,2024-12-27T17:50:12.681Z,28564,0.0064697266,-0.11895752,0.006652832
1735321812703,2024-12-27T17:50:12.703Z,28586,0.009887695,-0.1204834,0.004699707
1735321812709,2024-12-27T17:50:12.709Z,28592,0.008728027,-0.119018555,0.008300781
1735321812715,2024-12-27T17:50:12.715Z,28598,0.0068359375,-0.1184082,0.010803223
1735321812720,2024-12-27T17:50:12.720Z,28603,0.014038086,-0.123168945,0.012268066
1735321812726,2024-12-27T17:50:12.726Z,28609,0.020385742,-0.12512207,0.015014648
1735321812746,2024-12-27T17:50:12.746Z,28629,0.018127441,-0.12390137,0.0138549805
1735321812751,2024-12-27T17:50:12.751Z,28634,0.018005371,-0.12530518,0.013366699
1735321812757,2024-12-27T17:50:12.757Z,28640,0.019836426,-0.12408447,0.012512207
1735321812762,2024-12-27T17:50:12.762Z,28645,0.021972656,-0.12030029,0.013061523
1735321812768,2024-12-27T17:50:12.768Z,28651,0.020874023,-0.11791992,0.012878418
1735321812773,2024-12-27T17:50:12.773Z,28656,0.018127441,-0.11755371,0.01171875
1735321812794,2024-12-27T17:50:12.794Z,28677,0.014404297,-0.1182251,0.012207031
1735321812800,2024-12-27T17:50:12.800Z,28683,0.012634277,-0.12182617,0.013183594
1735321812806,2024-12-27T17:50:12.806Z,28689,0.0138549805,-0.123413086,0.011291504
1735321812812,2024-12-27T17:50:12.812Z,28695,0.0115356445,-0.12036133,0.009460449
1735321812817,2024-12-27T17:50:12.817Z,28700,0.009155273,-0.11993408,0.012145996
1735321812837,2024-12-27T17:50:12.837Z,28720,0.011962891,-0.121154785,0.014099121
1735321812843,2024-12-27T17:50:12.843Z,28726,0.010925293,-0.12121582,0.013244629
1735321812849,2024-12-27T17:50:12.849Z,28732,0.008361816,-0.120788574,0.013793945
1735321812854,2024-12-27T17:50:12.854Z,28737,0.0061035156,-0.116882324,0.012512207
1735321812860,2024-12-27T17:50:12.860Z,28743,0.0053100586,-0.11584473,0.009155273
1735321812866,2024-12-27T17:50:12.866Z,28749,0.007873535,-0.119018555,0.011962891
1735321812883,2024-12-27T17:50:12.883Z,28766,0.009765625,-0.12164307,0.014953613
1735321812931,2024-12-27T17:50:12.931Z,28814,0.015258789,-0.12475586,0.01727295
1735321812938,2024-12-27T17:50:12.938Z,28821,0.02154541,-0.12164307,0.01727295
1735321812945,2024-12-27T17:50:12.945Z,28828,0.018493652,-0.115234375,0.0099487305
1735321812951,2024-12-27T17:50:12.951Z,28834,0.012390137,-0.111694336,0.0049438477
1735321812981,2024-12-27T17:50:12.981Z,28864,0.012512207,-0.1138916,0.0026855469
1735321812988,2024-12-27T17:50:12.988Z,28871,0.01940918,-0.119628906,0.0041503906
1735321812995,2024-12-27T17:50:12.995Z,28878,0.02331543,-0.12219238,0.0064697266
1735321813002,2024-12-27T17:50:13.002Z,28885,0.022094727,-0.12219238,0.004760742
1735321813009,2024-12-27T17:50:13.009Z,28892,0.02166748,-0.12164307,0.0043945312
1735321813017,2024-12-27T17:50:13.017Z,28900,0.01727295,-0.119506836,0.001953125
1735321813024,2024-12-27T17:50:13.024Z,28907,0.017211914,-0.11993408,6.713867E-4
1735321813030,2024-12-27T17:50:13.030Z,28913,0.017700195,-0.119384766,0.0020141602
1735321813036,2024-12-27T17:50:13.036Z,28919,0.014892578,-0.117614746,0.0015258789
1735321813043,2024-12-27T17:50:13.043Z,28926,0.014709473,-0.11791992,0.0061035156
1735321813061,2024-12-27T17:50:13.061Z,28944,0.014099121,-0.11651611,0.0087890625
1735321813066,2024-12-27T17:50:13.066Z,28949,0.013183594,-0.11407471,0.009460449
1735321813072,2024-12-27T17:50:13.072Z,28955,0.014099121,-0.11578369,0.010559082
1735321813078,2024-12-27T17:50:13.078Z,28961,0.018249512,-0.12011719,0.012817383
1735321813084,2024-12-27T17:50:13.084Z,28967,0.0211792,-0.12084961,0.013366699
1735321813089,2024-12-27T17:50:13.089Z,28972,0.019104004,-0.119506836,0.011962891
1735321813110,2024-12-27T17:50:13.110Z,28993,0.018188477,-0.11859131,0.012756348
1735321813116,2024-12-27T17:50:13.116Z,28999,0.015319824,-0.11553955,0.012084961
1735321813121,2024-12-27T17:50:13.121Z,29004,0.0126953125,-0.11328125,0.011657715
1735321813126,2024-12-27T17:50:13.126Z,29009,0.018432617,-0.114990234,0.0138549805
1735321813132,2024-12-27T17:50:13.132Z,29015,0.02355957,-0.11590576,0.012451172
1735321813152,2024-12-27T17:50:13.152Z,29035,0.023071289,-0.11779785,0.012451172
1735321813159,2024-12-27T17:50:13.159Z,29042,0.022949219,-0.120666504,0.014160156
1735321813165,2024-12-27T17:50:13.165Z,29048,0.024230957,-0.1194458,0.012817383
1735321813176,2024-12-27T17:50:13.176Z,29059,0.018554688,-0.11456299,0.008178711
1735321813196,2024-12-27T17:50:13.196Z,29079,0.014892578,-0.11407471,0.005432129
1735321813202,2024-12-27T17:50:13.202Z,29085,0.01940918,-0.11468506,0.008361816
1735321813207,2024-12-27T17:50:13.207Z,29090,0.02331543,-0.11383057,0.008605957
1735321813288,2024-12-27T17:50:13.288Z,29171,0.022155762,-0.11395264,0.0078125
1735321813295,2024-12-27T17:50:13.295Z,29178,0.019592285,-0.11419678,0.008117676
1735321813302,2024-12-27T17:50:13.302Z,29185,0.016967773,-0.116882324,0.007507324
1735321813310,2024-12-27T17:50:13.310Z,29193,0.018493652,-0.12176514,0.006652832
1735321813333,2024-12-27T17:50:13.333Z,29216,0.022460938,-0.123413086,0.009338379
1735321813340,2024-12-27T17:50:13.340Z,29223,0.023742676,-0.12133789,0.00970459
1735321813349,2024-12-27T17:50:13.349Z,29232,0.020874023,-0.121032715,0.010803223
1735321813356,2024-12-27T17:50:13.356Z,29239,0.019348145,-0.12036133,0.01361084
1735321813364,2024-12-27T17:50:13.364Z,29247,0.01977539,-0.12042236,0.015136719
1735321813371,2024-12-27T17:50:13.371Z,29254,0.020812988,-0.121276855,0.017578125
1735321813380,2024-12-27T17:50:13.380Z,29263,0.020080566,-0.119506836,0.018737793
1735321813386,2024-12-27T17:50:13.386Z,29269,0.01977539,-0.118896484,0.020446777
1735321813392,2024-12-27T17:50:13.392Z,29275,0.022949219,-0.11883545,0.02178955
1735321813398,2024-12-27T17:50:13.398Z,29281,0.02331543,-0.1194458,0.019042969
1735321813403,2024-12-27T17:50:13.403Z,29286,0.019958496,-0.120910645,0.018066406
1735321813421,2024-12-27T17:50:13.421Z,29304,0.018615723,-0.12261963,0.022949219
1735321813428,2024-12-27T17:50:13.428Z,29311,0.019836426,-0.124816895,0.023925781
1735321813433,2024-12-27T17:50:13.433Z,29316,0.020935059,-0.1262207,0.021728516
1735321813438,2024-12-27T17:50:13.438Z,29321,0.023498535,-0.12579346,0.020935059
1735321813444,2024-12-27T17:50:13.444Z,29327,0.021972656,-0.12145996,0.018798828
1735321813450,2024-12-27T17:50:13.450Z,29333,0.018371582,-0.11608887,0.019897461
1735321813469,2024-12-27T17:50:13.469Z,29352,0.020874023,-0.11352539,0.02368164
1735321813475,2024-12-27T17:50:13.475Z,29358,0.025268555,-0.115478516,0.021362305
1735321813481,2024-12-27T17:50:13.481Z,29364,0.025878906,-0.11663818,0.017822266
1735321813486,2024-12-27T17:50:13.486Z,29369,0.025939941,-0.11462402,0.014465332
1735321813491,2024-12-27T17:50:13.491Z,29374,0.02532959,-0.113464355,0.008605957
1735321813511,2024-12-27T17:50:13.511Z,29394,0.022583008,-0.11553955,0.007080078
1735321813518,2024-12-27T17:50:13.518Z,29401,0.023071289,-0.11834717,0.0075683594
1735321813524,2024-12-27T17:50:13.524Z,29407,0.026428223,-0.11779785,0.009765625
1735321813530,2024-12-27T17:50:13.530Z,29413,0.023864746,-0.114746094,0.010498047
1735321813535,2024-12-27T17:50:13.535Z,29418,0.018249512,-0.10992432,0.009643555
1735321813540,2024-12-27T17:50:13.540Z,29423,0.015808105,-0.1026001,0.009887695
1735321813560,2024-12-27T17:50:13.560Z,29443,0.014282227,-0.10437012,0.008178711
1735321813566,2024-12-27T17:50:13.566Z,29449,0.019470215,-0.11657715,0.0071411133
1735321813571,2024-12-27T17:50:13.571Z,29454,0.022216797,-0.12347412,0.012268066
1735321813577,2024-12-27T17:50:13.577Z,29460,0.023498535,-0.123046875,0.014953613
1735321813582,2024-12-27T17:50:13.582Z,29465,0.022399902,-0.118774414,0.016296387
1735321813601,2024-12-27T17:50:13.601Z,29484,0.020568848,-0.116760254,0.01586914
1735321813608,2024-12-27T17:50:13.608Z,29491,0.02520752,-0.1171875,0.014770508
1735321813616,2024-12-27T17:50:13.616Z,29499,0.030761719,-0.115356445,0.017089844
1735321813627,2024-12-27T17:50:13.627Z,29510,0.024353027,-0.109436035,0.015991211
1735321813638,2024-12-27T17:50:13.638Z,29521,0.014831543,-0.105285645,0.0068359375
1735321813649,2024-12-27T17:50:13.649Z,29532,0.01586914,-0.11340332,0.0060424805
1735321813695,2024-12-27T17:50:13.695Z,29578,0.02355957,-0.12835693,0.011962891
1735321813712,2024-12-27T17:50:13.712Z,29595,0.023925781,-0.13470459,0.012329102
1735321813727,2024-12-27T17:50:13.727Z,29610,0.023498535,-0.12896729,0.015563965
1735321813737,2024-12-27T17:50:13.737Z,29620,0.026306152,-0.1204834,0.019897461
1735321813746,2024-12-27T17:50:13.746Z,29629,0.033203125,-0.11340332,0.020568848
1735321813755,2024-12-27T17:50:13.755Z,29638,0.032958984,-0.10620117,0.020385742
1735321813763,2024-12-27T17:50:13.763Z,29646,0.020141602,-0.09893799,0.016601562
1735321813771,2024-12-27T17:50:13.771Z,29654,0.009216309,-0.09075928,0.016479492
1735321813782,2024-12-27T17:50:13.782Z,29665,0.009643555,-0.09112549,0.01776123
1735321813788,2024-12-27T17:50:13.788Z,29671,0.014953613,-0.10131836,0.015930176
1735321813795,2024-12-27T17:50:13.795Z,29678,0.016479492,-0.11608887,0.013122559
1735321813802,2024-12-27T17:50:13.802Z,29685,0.023254395,-0.12524414,0.011230469
1735321813807,2024-12-27T17:50:13.807Z,29690,0.030090332,-0.12573242,0.009033203
1735321813813,2024-12-27T17:50:13.813Z,29696,0.028869629,-0.11505127,0.0099487305
1735321813832,2024-12-27T17:50:13.832Z,29715,0.016967773,-0.10229492,0.008605957
1735321813838,2024-12-27T17:50:13.838Z,29721,0.010314941,-0.099365234,0.012329102
1735321813849,2024-12-27T17:50:13.849Z,29732,0.01965332,-0.1026001,0.018188477
1735321813854,2024-12-27T17:50:13.854Z,29737,0.027954102,-0.10626221,0.01928711
1735321813860,2024-12-27T17:50:13.860Z,29743,0.026123047,-0.10961914,0.0146484375
1735321813871,2024-12-27T17:50:13.871Z,29754,0.023071289,-0.11407471,0.014770508
1735321813877,2024-12-27T17:50:13.877Z,29760,0.019348145,-0.12005615,0.01159668
1735321813883,2024-12-27T17:50:13.883Z,29766,0.017822266,-0.11987305,0.012084961
1735321813888,2024-12-27T17:50:13.888Z,29771,0.015319824,-0.11206055,0.013000488
1735321813893,2024-12-27T17:50:13.893Z,29776,0.011779785,-0.10192871,0.013427734
1735321813898,2024-12-27T17:50:13.898Z,29781,0.013366699,-0.09362793,0.015075684
1735321813919,2024-12-27T17:50:13.919Z,29802,0.013549805,-0.09051514,0.011657715
1735321813924,2024-12-27T17:50:13.924Z,29807,0.013793945,-0.09655762,0.0053710938
1735321813929,2024-12-27T17:50:13.929Z,29812,0.012817383,-0.10479736,0.008422852
1735321813934,2024-12-27T17:50:13.934Z,29817,0.0075683594,-0.10430908,0.0045166016
1735321813939,2024-12-27T17:50:13.939Z,29822,0.005065918,-0.105529785,-0.0015869141
1735321813962,2024-12-27T17:50:13.962Z,29845,0.011291504,-0.11437988,0.0018920898
1735321813968,2024-12-27T17:50:13.968Z,29851,0.017944336,-0.121398926,0.0020751953
1735321813974,2024-12-27T17:50:13.974Z,29857,0.022521973,-0.12182617,0.0014038086
1735321813980,2024-12-27T17:50:13.980Z,29863,0.018676758,-0.113342285,-0.0029907227
1735321814006,2024-12-27T17:50:14.006Z,29889,0.013977051,-0.1071167,-0.005004883
1735321814012,2024-12-27T17:50:14.012Z,29895,0.012329102,-0.10412598,-5.493164E-4
1735321814057,2024-12-27T17:50:14.057Z,29940,0.013183594,-0.109558105,0.002319336
1735321814065,2024-12-27T17:50:14.065Z,29948,0.022583008,-0.121154785,0.0095825195
1735321814072,2024-12-27T17:50:14.072Z,29955,0.02734375,-0.12585449,0.011474609
1735321814078,2024-12-27T17:50:14.078Z,29961,0.027160645,-0.12145996,0.0040893555
1735321814098,2024-12-27T17:50:14.098Z,29981,0.021118164,-0.11395264,0.007873535
1735321814105,2024-12-27T17:50:14.105Z,29988,0.016235352,-0.11175537,0.013671875
1735321814112,2024-12-27T17:50:14.112Z,29995,0.015258789,-0.115356445,0.014404297
1735321814119,2024-12-27T17:50:14.119Z,30002,0.010559082,-0.12121582,0.013793945
1735321814125,2024-12-27T17:50:14.125Z,30008,0.010131836,-0.1251831,0.0119018555
1735321814132,2024-12-27T17:50:14.132Z,30015,0.015563965,-0.125,0.015136719
1735321814144,2024-12-27T17:50:14.144Z,30027,0.019836426,-0.120910645,0.013366699
1735321814150,2024-12-27T17:50:14.150Z,30033,0.016418457,-0.11071777,0.0076904297
1735321814155,2024-12-27T17:50:14.155Z,30038,0.0060424805,-0.11071777,0.0040283203
1735321814186,2024-12-27T17:50:14.186Z,30069,0.0028686523,-0.11602783,0.0030517578
1735321814192,2024-12-27T17:50:14.192Z,30075,0.005432129,-0.12426758,0.010986328
1735321814198,2024-12-27T17:50:14.198Z,30081,0.010803223,-0.122558594,0.018981934
1735321814204,2024-12-27T17:50:14.204Z,30087,0.0154418945,-0.1149292,0.011413574
1735321814209,2024-12-27T17:50:14.209Z,30092,0.012817383,-0.11102295,0.0048217773
1735321814216,2024-12-27T17:50:14.216Z,30099,0.0021362305,-0.107543945,-0.0040283203
1735321814283,2024-12-27T17:50:14.283Z,30166,0.0025024414,-0.10772705,-0.009521484
1735321814290,2024-12-27T17:50:14.290Z,30173,0.008728027,-0.10949707,-9.1552734E-4
1735321814297,2024-12-27T17:50:14.297Z,30180,0.0025634766,-0.114990234,0.003540039
1735321814303,2024-12-27T17:50:14.303Z,30186,0.005065918,-0.12646484,-0.0025634766
1735321814311,2024-12-27T17:50:14.311Z,30194,0.0099487305,-0.13739014,-0.0033569336
1735321814322,2024-12-27T17:50:14.322Z,30205,0.0045166016,-0.14105225,-0.004211426
1735321814331,2024-12-27T17:50:14.331Z,30214,0.0020751953,-0.13275146,-0.0056152344
1735321814339,2024-12-27T17:50:14.339Z,30222,0.0031738281,-0.116882324,0.0021972656
1735321814347,2024-12-27T17:50:14.347Z,30230,0.008666992,-0.11047363,0.009155273
1735321814354,2024-12-27T17:50:14.354Z,30237,0.015258789,-0.11651611,0.008666992
1735321814360,2024-12-27T17:50:14.360Z,30243,0.013366699,-0.11627197,0.007507324
1735321814369,2024-12-27T17:50:14.369Z,30252,0.008178711,-0.11779785,0.008117676
1735321814376,2024-12-27T17:50:14.376Z,30259,0.008178711,-0.124572754,0.0033569336
1735321814381,2024-12-27T17:50:14.381Z,30264,0.0057373047,-0.11895752,1.8310547E-4
1735321814386,2024-12-27T17:50:14.386Z,30269,8.544922E-4,-0.11022949,0.0013427734
1735321814391,2024-12-27T17:50:14.391Z,30274,-0.002319336,-0.11328125,-3.0517578E-4
1735321814414,2024-12-27T17:50:14.414Z,30297,0.0068969727,-0.11871338,0.002319336
1735321814419,2024-12-27T17:50:14.419Z,30302,0.007751465,-0.11956787,0.0060424805
1735321814425,2024-12-27T17:50:14.425Z,30308,-0.0079956055,-0.122680664,0.0061035156
1735321814431,2024-12-27T17:50:14.431Z,30314,-0.0061035156,-0.13684082,0.0049438477
1735321814437,2024-12-27T17:50:14.437Z,30320,0.0057373047,-0.13641357,0.0036621094
1735321814441,2024-12-27T17:50:14.441Z,30324,0.010681152,-0.11743164,0.013000488
1735321814458,2024-12-27T17:50:14.458Z,30341,0.010681152,-0.10522461,0.011779785
1735321814464,2024-12-27T17:50:14.464Z,30347,0.0048217773,-0.105895996,0.004699707
1735321814470,2024-12-27T17:50:14.470Z,30353,0.005859375,-0.10925293,0.009521484
1735321814475,2024-12-27T17:50:14.475Z,30358,0.0036621094,-0.11260986,0.014526367
1735321814481,2024-12-27T17:50:14.481Z,30364,-0.007385254,-0.13482666,0.00793457
1735321814504,2024-12-27T17:50:14.504Z,30387,-0.011352539,-0.14929199,0.0037231445
1735321814511,2024-12-27T17:50:14.511Z,30394,-0.009338379,-0.13787842,0.0015258789
1735321814517,2024-12-27T17:50:14.517Z,30400,-0.005554199,-0.12408447,0.0056762695
1735321814527,2024-12-27T17:50:14.527Z,30410,-0.006286621,-0.122680664,0.010620117
1735321814532,2024-12-27T17:50:14.532Z,30415,0.0,-0.12408447,0.009033203
1735321814549,2024-12-27T17:50:14.549Z,30432,0.01159668,-0.124938965,0.010620117
1735321814553,2024-12-27T17:50:14.553Z,30436,0.016967773,-0.12207031,0.015625
1735321814558,2024-12-27T17:50:14.558Z,30441,0.015563965,-0.11016846,0.020446777
1735321814564,2024-12-27T17:50:14.564Z,30447,0.002319336,-0.10461426,0.013549805
1735321814569,2024-12-27T17:50:14.569Z,30452,-1.2207031E-4,-0.11767578,0.0067749023
1735321814638,2024-12-27T17:50:14.638Z,30521,-0.00592041,-0.12945557,0.0064086914
1735321814643,2024-12-27T17:50:14.643Z,30526,-0.008728027,-0.12963867,0.022216797
1735321814648,2024-12-27T17:50:14.648Z,30531,-0.008300781,-0.13421631,0.026916504
1735321814681,2024-12-27T17:50:14.681Z,30564,-0.011413574,-0.14624023,0.0138549805
1735321814688,2024-12-27T17:50:14.688Z,30571,-3.6621094E-4,-0.13305664,0.0053100586
1735321814695,2024-12-27T17:50:14.695Z,30578,0.019470215,-0.10424805,0.008605957
1735321814702,2024-12-27T17:50:14.702Z,30585,0.016540527,-0.08453369,0.01940918
1735321814726,2024-12-27T17:50:14.726Z,30609,0.0030517578,-0.08856201,0.011413574
1735321814732,2024-12-27T17:50:14.732Z,30615,9.1552734E-4,-0.1138916,0.009643555
1735321814740,2024-12-27T17:50:14.740Z,30623,0.012573242,-0.13372803,0.006164551
1735321814746,2024-12-27T17:50:14.746Z,30629,0.008544922,-0.13787842,0.0031738281
1735321814770,2024-12-27T17:50:14.770Z,30653,-0.010498047,-0.1482544,0.0072021484
1735321814776,2024-12-27T17:50:14.776Z,30659,-0.010009766,-0.16485596,0.0018310547
1735321814866,2024-12-27T17:50:14.866Z,30749,0.004699707,-0.14764404,-0.0075683594
1735321814877,2024-12-27T17:50:14.877Z,30760,0.012145996,-0.09942627,0.0048828125
1735321814890,2024-12-27T17:50:14.890Z,30773,0.009399414,-0.08465576,0.0072021484
1735321814899,2024-12-27T17:50:14.899Z,30782,0.01361084,-0.10888672,0.01763916
1735321814911,2024-12-27T17:50:14.911Z,30794,0.0076293945,-0.13000488,0.025817871
1735321814920,2024-12-27T17:50:14.920Z,30803,1.2207031E-4,-0.13195801,0.022277832
1735321814927,2024-12-27T17:50:14.927Z,30810,0.004638672,-0.13269043,0.020080566
1735321814934,2024-12-27T17:50:14.934Z,30817,-0.006591797,-0.13049316,0.013366699
1735321814941,2024-12-27T17:50:14.941Z,30824,-0.0022583008,-0.120666504,0.010375977
1735321815000,2024-12-27T17:50:15Z,30883,0.0051879883,-0.107666016,0.015075684
1735321815013,2024-12-27T17:50:15.013Z,30896,0.014709473,-0.109069824,0.023742676
1735321815025,2024-12-27T17:50:15.025Z,30908,0.017333984,-0.1295166,0.022888184
1735321815032,2024-12-27T17:50:15.032Z,30915,0.00982666,-0.09454346,0.011352539
1735321815045,2024-12-27T17:50:15.045Z,30928,0.0040283203,-0.11230469,0.020507812
1735321815053,2024-12-27T17:50:15.053Z,30936,0.005432129,-0.1395874,0.029418945
1735321815060,2024-12-27T17:50:15.060Z,30943,0.010620117,-0.14605713,0.034851074
1735321815064,2024-12-27T17:50:15.064Z,30947,0.010437012,-0.13427734,0.027709961
1735321815071,2024-12-27T17:50:15.071Z,30954,0.0056152344,-0.113586426,0.026184082
1735321815078,2024-12-27T17:50:15.078Z,30961,-5.493164E-4,-0.10491943,0.025390625
1735321815086,2024-12-27T17:50:15.086Z,30969,0.023803711,-0.119140625,0.02935791
1735321815092,2024-12-27T17:50:15.092Z,30975,0.041137695,-0.124694824,0.041992188
1735321815098,2024-12-27T17:50:15.098Z,30981,0.022827148,-0.106933594,0.042114258
1735321815101,2024-12-27T17:50:15.101Z,30984,-0.0021362305,-0.12548828,0.022338867
1735321815107,2024-12-27T17:50:15.107Z,30990,-3.0517578E-4,-0.12225342,0.014770508
1735321815112,2024-12-27T17:50:15.112Z,30995,-0.0032348633,-0.12347412,0.0087890625
1735321815131,2024-12-27T17:50:15.131Z,31014,0.0057373047,-0.119628906,0.012145996
1735321815134,2024-12-27T17:50:15.134Z,31017,0.019165039,-0.11401367,0.018920898
1735321815180,2024-12-27T17:50:15.180Z,31063,0.025146484,-0.11431885,0.02947998
1735321815186,2024-12-27T17:50:15.186Z,31069,0.032348633,-0.11999512,0.029785156
1735321815192,2024-12-27T17:50:15.192Z,31075,0.03265381,-0.12011719,0.0345459
1735321815197,2024-12-27T17:50:15.197Z,31080,0.03375244,-0.12817383,0.028015137
1735321815202,2024-12-27T17:50:15.202Z,31085,0.038391113,-0.13208008,0.024475098
1735321815223,2024-12-27T17:50:15.223Z,31106,0.023742676,-0.109436035,0.03881836
1735321815229,2024-12-27T17:50:15.229Z,31112,0.030761719,-0.10870361,0.04675293
1735321815270,2024-12-27T17:50:15.270Z,31153,0.050720215,-0.11828613,0.052612305
1735321815314,2024-12-27T17:50:15.314Z,31197,0.040771484,-0.11584473,0.047546387
1735321815365,2024-12-27T17:50:15.365Z,31248,0.029724121,-0.11706543,0.034606934
1735321815377,2024-12-27T17:50:15.377Z,31260,0.028869629,-0.12182617,0.029907227
1735321815390,2024-12-27T17:50:15.390Z,31273,0.030883789,-0.12335205,0.045715332
1735321815398,2024-12-27T17:50:15.398Z,31281,0.026550293,-0.1352539,0.04949951
1735321815407,2024-12-27T17:50:15.407Z,31290,0.01751709,-0.1328125,0.041503906
1735321815415,2024-12-27T17:50:15.415Z,31298,0.02154541,-0.1251831,0.027832031
1735321815424,2024-12-27T17:50:15.424Z,31307,0.023254395,-0.11773682,0.034240723
1735321815431,2024-12-27T17:50:15.431Z,31314,0.03656006,-0.118774414,0.05407715
1735321815442,2024-12-27T17:50:15.442Z,31325,0.05340576,-0.12579346,0.050842285
1735321815449,2024-12-27T17:50:15.449Z,31332,0.030944824,-0.13067627,0.056274414
1735321815454,2024-12-27T17:50:15.454Z,31337,0.033447266,-0.12872314,0.06878662
1735321815457,2024-12-27T17:50:15.457Z,31340,0.025878906,-0.12524414,0.05126953
1735321815460,2024-12-27T17:50:15.460Z,31343,0.057739258,-0.11114502,0.064575195
1735321815465,2024-12-27T17:50:15.465Z,31348,0.054382324,-0.11682129,0.05505371
1735321815471,2024-12-27T17:50:15.471Z,31354,0.04711914,-0.12371826,0.038391113
1735321815491,2024-12-27T17:50:15.491Z,31374,0.04876709,-0.13458252,0.024719238
1735321815496,2024-12-27T17:50:15.496Z,31379,0.045532227,-0.13116455,0.019958496
1735321815502,2024-12-27T17:50:15.502Z,31385,0.044006348,-0.11767578,0.033325195
1735321815508,2024-12-27T17:50:15.508Z,31391,0.03967285,-0.111206055,0.046813965
1735321815539,2024-12-27T17:50:15.539Z,31422,0.032958984,-0.12597656,0.046813965
1735321815545,2024-12-27T17:50:15.545Z,31428,0.027893066,-0.12921143,0.047729492
1735321815551,2024-12-27T17:50:15.551Z,31434,0.047180176,-0.11431885,0.054504395
1735321815556,2024-12-27T17:50:15.556Z,31439,0.039916992,-0.11010742,0.05267334
1735321815563,2024-12-27T17:50:15.563Z,31446,0.03778076,-0.115356445,0.05810547
1735321815585,2024-12-27T17:50:15.585Z,31468,0.039245605,-0.10559082,0.07019043
1735321815591,2024-12-27T17:50:15.591Z,31474,0.032287598,-0.10211182,0.07122803
1735321815597,2024-12-27T17:50:15.597Z,31480,0.032348633,-0.11621094,0.0637207
1735321815604,2024-12-27T17:50:15.604Z,31487,0.037109375,-0.119018555,0.039367676
1735321815609,2024-12-27T17:50:15.609Z,31492,0.03765869,-0.1081543,0.0087890625
1735321815628,2024-12-27T17:50:15.628Z,31511,0.030273438,-0.09613037,0.032226562
1735321815634,2024-12-27T17:50:15.634Z,31517,0.047912598,-0.11590576,0.049316406
1735321815639,2024-12-27T17:50:15.639Z,31522,0.051574707,-0.13250732,0.040283203
1735321815645,2024-12-27T17:50:15.645Z,31528,0.047912598,-0.11376953,0.033569336
1735321815670,2024-12-27T17:50:15.670Z,31553,0.048461914,-0.09118652,0.038879395
1735321815676,2024-12-27T17:50:15.676Z,31559,0.045410156,-0.10559082,0.039855957
1735321815682,2024-12-27T17:50:15.682Z,31565,0.030639648,-0.12915039,0.042053223
1735321815688,2024-12-27T17:50:15.688Z,31571,0.030273438,-0.12438965,0.047546387
1735321815693,2024-12-27T17:50:15.693Z,31576,0.025817871,-0.103027344,0.057373047
1735321815698,2024-12-27T17:50:15.698Z,31581,0.012329102,-0.09576416,0.064208984
1735321815718,2024-12-27T17:50:15.718Z,31601,0.03186035,-0.103393555,0.07501221
1735321815723,2024-12-27T17:50:15.723Z,31606,0.06298828,-0.10583496,0.07867432
1735321815728,2024-12-27T17:50:15.728Z,31611,0.044433594,-0.1060791,0.054626465
1735321815734,2024-12-27T17:50:15.734Z,31617,0.021606445,-0.10028076,0.034484863
1735321815739,2024-12-27T17:50:15.739Z,31622,0.038757324,-0.094055176,0.05078125
1735321815762,2024-12-27T17:50:15.762Z,31645,0.050476074,-0.10546875,0.058044434
1735321815768,2024-12-27T17:50:15.768Z,31651,0.042114258,-0.120910645,0.04675293
1735321815773,2024-12-27T17:50:15.773Z,31656,0.03930664,-0.11248779,0.051696777
1735321815778,2024-12-27T17:50:15.778Z,31661,0.05053711,-0.10412598,0.04711914
1735321815783,2024-12-27T17:50:15.783Z,31666,0.046081543,-0.107666016,0.034240723
1735321815789,2024-12-27T17:50:15.789Z,31672,0.029296875,-0.109802246,0.039489746
1735321815808,2024-12-27T17:50:15.808Z,31691,0.030273438,-0.117248535,0.039855957
1735321815814,2024-12-27T17:50:15.814Z,31697,0.04095459,-0.12420654,0.04083252
1735321815819,2024-12-27T17:50:15.819Z,31702,0.03161621,-0.1105957,0.04949951
1735321815900,2024-12-27T17:50:15.900Z,31783,0.035583496,-0.10644531,0.05822754
1735321815906,2024-12-27T17:50:15.906Z,31789,0.032836914,-0.111328125,0.053771973
1735321815911,2024-12-27T17:50:15.911Z,31794,0.028503418,-0.1104126,0.050598145
1735321815916,2024-12-27T17:50:15.916Z,31799,0.03729248,-0.09692383,0.053527832
1735321815921,2024-12-27T17:50:15.921Z,31804,0.04711914,-0.10424805,0.04711914
1735321815926,2024-12-27T17:50:15.926Z,31809,0.04058838,-0.119628906,0.0524292
1735321815946,2024-12-27T17:50:15.946Z,31829,0.030700684,-0.12237549,0.05657959
1735321815951,2024-12-27T17:50:15.951Z,31834,0.043273926,-0.13061523,0.0579834
1735321815957,2024-12-27T17:50:15.957Z,31840,0.047180176,-0.12561035,0.055908203
1735321815964,2024-12-27T17:50:15.964Z,31847,0.039978027,-0.1105957,0.05053711
1735321815970,2024-12-27T17:50:15.970Z,31853,0.035705566,-0.11376953,0.044555664
1735321816034,2024-12-27T17:50:16.034Z,31917,0.03918457,-0.13275146,0.04425049
1735321816037,2024-12-27T17:50:16.037Z,31920,0.030395508,-0.14300537,0.05444336
1735321816044,2024-12-27T17:50:16.044Z,31927,0.030334473,-0.12963867,0.0569458
1735321816051,2024-12-27T17:50:16.051Z,31934,0.037719727,-0.10284424,0.06237793
1735321816057,2024-12-27T17:50:16.057Z,31940,0.043518066,-0.08892822,0.062805176
1735321816063,2024-12-27T17:50:16.063Z,31946,0.037109375,-0.10229492,0.052856445
1735321816123,2024-12-27T17:50:16.123Z,32006,0.030029297,-0.12054443,0.03942871
1735321816131,2024-12-27T17:50:16.131Z,32014,0.03942871,-0.13391113,0.039245605
1735321816139,2024-12-27T17:50:16.139Z,32022,0.034484863,-0.13098145,0.045898438
1735321816146,2024-12-27T17:50:16.146Z,32029,0.022033691,-0.12249756,0.040649414
1735321816154,2024-12-27T17:50:16.154Z,32037,0.029724121,-0.11584473,0.044128418
1735321816161,2024-12-27T17:50:16.161Z,32044,0.031311035,-0.1003418,0.04260254
1735321816217,2024-12-27T17:50:16.217Z,32100,0.037353516,-0.13494873,0.045715332
1735321816227,2024-12-27T17:50:16.227Z,32110,0.01763916,-0.14367676,0.03173828
1735321816237,2024-12-27T17:50:16.237Z,32120,0.014465332,-0.13800049,0.023864746
1735321816246,2024-12-27T17:50:16.246Z,32129,0.016662598,-0.11401367,0.042297363
1735321816256,2024-12-27T17:50:16.256Z,32139,0.024597168,-0.09057617,0.0491333
1735321816305,2024-12-27T17:50:16.305Z,32188,0.029724121,-0.09539795,0.04559326
1735321816310,2024-12-27T17:50:16.310Z,32193,0.004699707,-0.13079834,0.022705078
1735321816322,2024-12-27T17:50:16.322Z,32205,0.009155273,-0.12957764,0.03491211
1735321816334,2024-12-27T17:50:16.334Z,32217,0.027404785,-0.11669922,0.047180176
1735321816344,2024-12-27T17:50:16.344Z,32227,0.0357666,-0.1204834,0.041015625
1735321816354,2024-12-27T17:50:16.354Z,32237,0.031433105,-0.1295166,0.03692627
1735321816361,2024-12-27T17:50:16.361Z,32244,0.024902344,-0.123046875,0.03375244
1735321816365,2024-12-27T17:50:16.365Z,32248,0.018249512,-0.1282959,0.021850586
1735321816391,2024-12-27T17:50:16.391Z,32274,0.015380859,-0.13372803,0.019592285
1735321816398,2024-12-27T17:50:16.398Z,32281,0.014587402,-0.11669922,0.028076172
1735321816407,2024-12-27T17:50:16.407Z,32290,0.020080566,-0.10974121,0.029846191
1735321816413,2024-12-27T17:50:16.413Z,32296,0.016662598,-0.10876465,0.026672363
1735321816420,2024-12-27T17:50:16.420Z,32303,0.01751709,-0.10131836,0.02947998
1735321816423,2024-12-27T17:50:16.423Z,32306,0.0119018555,-0.13079834,0.026916504
1735321816439,2024-12-27T17:50:16.439Z,32322,0.022399902,-0.1274414,0.030517578
1735321816445,2024-12-27T17:50:16.445Z,32328,0.01763916,-0.10839844,0.035339355
1735321816451,2024-12-27T17:50:16.451Z,32334,0.008911133,-0.097595215,0.029663086
1735321816457,2024-12-27T17:50:16.457Z,32340,0.009155273,-0.10406494,0.019470215
1735321816462,2024-12-27T17:50:16.462Z,32345,0.006591797,-0.111816406,0.016784668
1735321816528,2024-12-27T17:50:16.528Z,32411,0.004333496,-0.12188721,0.013366699
1735321816535,2024-12-27T17:50:16.535Z,32418,0.016235352,-0.10900879,0.03515625
1735321816541,2024-12-27T17:50:16.541Z,32424,0.0052490234,-0.096069336,0.025390625
1735321816547,2024-12-27T17:50:16.547Z,32430,-9.1552734E-4,-0.09387207,0.032226562
1735321816554,2024-12-27T17:50:16.554Z,32437,1.8310547E-4,-0.10687256,0.036193848
1735321816561,2024-12-27T17:50:16.561Z,32444,0.009033203,-0.12817383,0.03137207
1735321816576,2024-12-27T17:50:16.576Z,32459,0.016723633,-0.13537598,0.032714844
1735321816583,2024-12-27T17:50:16.583Z,32466,0.0014648438,-0.12384033,0.027770996
1735321816589,2024-12-27T17:50:16.589Z,32472,-0.010803223,-0.115112305,0.018981934
1735321816595,2024-12-27T17:50:16.595Z,32478,0.002380371,-0.1159668,0.021118164
1735321816601,2024-12-27T17:50:16.601Z,32484,0.011474609,-0.11383057,0.020507812
1735321816616,2024-12-27T17:50:16.616Z,32499,0.0056762695,-0.10900879,0.01776123
1735321816619,2024-12-27T17:50:16.619Z,32502,0.016174316,-0.11444092,0.019958496
1735321816625,2024-12-27T17:50:16.625Z,32508,0.009216309,-0.10925293,0.020385742
1735321816631,2024-12-27T17:50:16.631Z,32514,3.6621094E-4,-0.115722656,0.018554688
1735321816637,2024-12-27T17:50:16.637Z,32520,-0.010314941,-0.12701416,0.006958008
1735321816641,2024-12-27T17:50:16.641Z,32524,-0.009338379,-0.13061523,0.015991211
1735321816666,2024-12-27T17:50:16.666Z,32549,-0.0012207031,-0.12866211,0.024108887
1735321816672,2024-12-27T17:50:16.672Z,32555,0.0075683594,-0.12683105,0.024902344
1735321816677,2024-12-27T17:50:16.677Z,32560,-7.324219E-4,-0.12237549,0.02709961
1735321816682,2024-12-27T17:50:16.682Z,32565,-0.0036010742,-0.1227417,0.028564453
1735321816688,2024-12-27T17:50:16.688Z,32571,-0.0041503906,-0.12841797,0.020202637
1735321816693,2024-12-27T17:50:16.693Z,32576,-0.0029296875,-0.12976074,0.0107421875
1735321816708,2024-12-27T17:50:16.708Z,32591,2.4414062E-4,-0.123291016,0.012390137
1735321816713,2024-12-27T17:50:16.713Z,32596,0.008483887,-0.11779785,0.018127441
1735321816719,2024-12-27T17:50:16.719Z,32602,0.013793945,-0.11431885,0.023864746
1735321816725,2024-12-27T17:50:16.725Z,32608,0.00982666,-0.113342285,0.021850586
1735321816751,2024-12-27T17:50:16.751Z,32634,0.011779785,-0.121398926,0.018127441
1735321816757,2024-12-27T17:50:16.757Z,32640,0.0064697266,-0.12384033,0.011413574
1735321816762,2024-12-27T17:50:16.762Z,32645,-0.00390625,-0.11981201,0.004699707
1735321816767,2024-12-27T17:50:16.767Z,32650,-0.006286621,-0.122558594,4.8828125E-4
1735321816772,2024-12-27T17:50:16.772Z,32655,-0.0029296875,-0.12548828,0.0056762695
1735321816797,2024-12-27T17:50:16.797Z,32680,0.003112793,-0.122558594,0.011047363
1735321816804,2024-12-27T17:50:16.804Z,32687,0.0063476562,-0.11633301,0.016174316
1735321816810,2024-12-27T17:50:16.810Z,32693,0.007385254,-0.11035156,0.021911621
1735321816816,2024-12-27T17:50:16.816Z,32699,0.005493164,-0.11242676,0.020324707
1735321816822,2024-12-27T17:50:16.822Z,32705,-0.0052490234,-0.12359619,0.012390137
1735321816827,2024-12-27T17:50:16.827Z,32710,-0.01159668,-0.13549805,0.012207031
1735321816843,2024-12-27T17:50:16.843Z,32726,-0.015258789,-0.14074707,0.010375977
1735321816849,2024-12-27T17:50:16.849Z,32732,-0.01184082,-0.13110352,0.013793945
1735321816855,2024-12-27T17:50:16.855Z,32738,0.0032348633,-0.11450195,0.02166748
1735321816861,2024-12-27T17:50:16.861Z,32744,0.009765625,-0.109436035,0.02319336
1735321816866,2024-12-27T17:50:16.866Z,32749,0.0028076172,-0.115600586,0.022644043
1735321816889,2024-12-27T17:50:16.889Z,32772,-0.0017700195,-0.1227417,0.01928711
1735321816896,2024-12-27T17:50:16.896Z,32779,-0.0064086914,-0.12475586,0.010925293
1735321816902,2024-12-27T17:50:16.902Z,32785,-0.0028686523,-0.1251831,0.009155273
1735321816907,2024-12-27T17:50:16.907Z,32790,0.0045166016,-0.12683105,0.0107421875
1735321816931,2024-12-27T17:50:16.931Z,32814,0.009765625,-0.11743164,0.015197754
1735321816936,2024-12-27T17:50:16.936Z,32819,0.010681152,-0.099487305,0.014587402
1735321816942,2024-12-27T17:50:16.942Z,32825,0.0033569336,-0.0970459,0.01184082
1735321816948,2024-12-27T17:50:16.948Z,32831,0.0021972656,-0.11657715,0.012390137
1735321816953,2024-12-27T17:50:16.953Z,32836,4.8828125E-4,-0.13598633,0.010131836
1735321817022,2024-12-27T17:50:17.022Z,32905,-0.0032958984,-0.13891602,0.008911133
1735321817029,2024-12-27T17:50:17.029Z,32912,-0.0072021484,-0.12542725,0.006225586
1735321817034,2024-12-27T17:50:17.034Z,32917,-0.018432617,-0.11260986,0.002319336
1735321817039,2024-12-27T17:50:17.039Z,32922,-0.020690918,-0.11303711,0.0015869141
1735321817044,2024-12-27T17:50:17.044Z,32927,-0.015380859,-0.12402344,0.0051879883
1735321817049,2024-12-27T17:50:17.049Z,32932,-0.009765625,-0.13018799,0.012573242
1735321817075,2024-12-27T17:50:17.075Z,32958,-0.0049438477,-0.13012695,0.014282227
1735321817080,2024-12-27T17:50:17.080Z,32963,0.0026245117,-0.12573242,0.015991211
1735321817086,2024-12-27T17:50:17.086Z,32969,0.010620117,-0.1149292,0.018981934
1735321817094,2024-12-27T17:50:17.094Z,32977,0.0064086914,-0.10522461,0.011169434
1735321817100,2024-12-27T17:50:17.100Z,32983,6.713867E-4,-0.1081543,0.005493164
1735321817112,2024-12-27T17:50:17.112Z,32995,9.765625E-4,-0.11682129,0.010375977
1735321817117,2024-12-27T17:50:17.117Z,33000,0.0026855469,-0.12371826,0.011413574
1735321817123,2024-12-27T17:50:17.123Z,33006,-3.6621094E-4,-0.12359619,0.011779785
1735321817128,2024-12-27T17:50:17.128Z,33011,-0.0079956055,-0.12384033,0.011047363
1735321817133,2024-12-27T17:50:17.133Z,33016,-0.004272461,-0.12719727,0.010437012
1735321817139,2024-12-27T17:50:17.139Z,33022,-0.0021972656,-0.124694824,0.0057373047
1735321817160,2024-12-27T17:50:17.160Z,33043,-0.009643555,-0.115722656,0.0024414062
1735321817166,2024-12-27T17:50:17.166Z,33049,-0.012939453,-0.11218262,0.007507324
1735321817171,2024-12-27T17:50:17.171Z,33054,-0.010192871,-0.11981201,0.012207031
1735321817176,2024-12-27T17:50:17.176Z,33059,-0.010314941,-0.13043213,0.013000488
1735321817180,2024-12-27T17:50:17.180Z,33063,-0.012329102,-0.1375122,0.012756348
1735321817201,2024-12-27T17:50:17.201Z,33084,-0.0075683594,-0.13696289,0.011291504
1735321817207,2024-12-27T17:50:17.207Z,33090,-0.0060424805,-0.12896729,0.0037231445
1735321817212,2024-12-27T17:50:17.212Z,33095,-0.0056762695,-0.12072754,0.004211426
1735321817218,2024-12-27T17:50:17.218Z,33101,-0.003112793,-0.11413574,0.011108398
1735321817246,2024-12-27T17:50:17.246Z,33129,0.0032348633,-0.113708496,0.013366699
1735321817252,2024-12-27T17:50:17.252Z,33135,0.008483887,-0.119140625,0.013305664
1735321817258,2024-12-27T17:50:17.258Z,33141,0.0075683594,-0.125,0.008666992
1735321817263,2024-12-27T17:50:17.263Z,33146,0.0073242188,-0.12884521,5.493164E-4
1735321817269,2024-12-27T17:50:17.269Z,33152,0.0078125,-0.12597656,-0.004699707
1735321817292,2024-12-27T17:50:17.292Z,33175,0.004760742,-0.1161499,-0.001159668
1735321817297,2024-12-27T17:50:17.297Z,33180,0.0033569336,-0.116882324,0.0021972656
1735321817303,2024-12-27T17:50:17.303Z,33186,-0.002319336,-0.12243652,0.0020141602
1735321817309,2024-12-27T17:50:17.309Z,33192,-0.005859375,-0.12432861,0.0048217773
1735321817336,2024-12-27T17:50:17.336Z,33219,-0.009338379,-0.12927246,0.0029296875
1735321817342,2024-12-27T17:50:17.342Z,33225,-0.011047363,-0.13482666,0.0010986328
1735321817348,2024-12-27T17:50:17.348Z,33231,-0.014526367,-0.13354492,-0.0024414062
1735321817353,2024-12-27T17:50:17.353Z,33236,-0.01171875,-0.12597656,1.8310547E-4
1735321817359,2024-12-27T17:50:17.359Z,33242,-0.009338379,-0.117492676,0.0061035156
1735321817380,2024-12-27T17:50:17.380Z,33263,-0.008300781,-0.115234375,0.01159668
1735321817386,2024-12-27T17:50:17.386Z,33269,-0.004272461,-0.11663818,0.01574707
1735321817392,2024-12-27T17:50:17.392Z,33275,-0.004638672,-0.11529541,0.017089844
1735321817397,2024-12-27T17:50:17.397Z,33280,-0.0036621094,-0.119018555,0.016662598
1735321817427,2024-12-27T17:50:17.427Z,33310,0.0036621094,-0.12487793,0.0126953125
1735321817433,2024-12-27T17:50:17.433Z,33316,0.006958008,-0.12249756,0.01159668
1735321817440,2024-12-27T17:50:17.440Z,33323,0.0056762695,-0.10638428,0.014526367
1735321817446,2024-12-27T17:50:17.446Z,33329,1.2207031E-4,-0.09411621,0.012756348
1735321817472,2024-12-27T17:50:17.472Z,33355,0.0037841797,-0.10449219,0.015930176
1735321817478,2024-12-27T17:50:17.478Z,33361,0.0052490234,-0.121154785,0.014831543
1735321817485,2024-12-27T17:50:17.485Z,33368,-0.0015258789,-0.12695312,0.012390137
1735321817492,2024-12-27T17:50:17.492Z,33375,-0.0057373047,-0.124938965,0.008850098
1735321817498,2024-12-27T17:50:17.498Z,33381,-0.00579834,-0.1217041,0.004211426
1735321817517,2024-12-27T17:50:17.517Z,33400,-0.008544922,-0.11846924,0.005004883
1735321817523,2024-12-27T17:50:17.523Z,33406,-0.012268066,-0.12036133,0.006652832
1735321817529,2024-12-27T17:50:17.529Z,33412,-0.012512207,-0.12915039,0.0032958984
1735321817534,2024-12-27T17:50:17.534Z,33417,-0.009277344,-0.1394043,1.8310547E-4
1735321817563,2024-12-27T17:50:17.563Z,33446,-0.006958008,-0.14068604,0.0012207031
1735321817569,2024-12-27T17:50:17.569Z,33452,-0.001159668,-0.12866211,0.007507324
1735321817577,2024-12-27T17:50:17.577Z,33460,-0.0048217773,-0.11468506,0.0037231445
1735321817610,2024-12-27T17:50:17.610Z,33493,-0.0028076172,-0.10839844,0.0028686523
1735321817615,2024-12-27T17:50:17.615Z,33498,0.0051879883,-0.11053467,0.004211426
1735321817621,2024-12-27T17:50:17.621Z,33504,0.008239746,-0.12121582,0.002319336
1735321817657,2024-12-27T17:50:17.657Z,33540,0.009033203,-0.12432861,0.0015869141
1735321817664,2024-12-27T17:50:17.664Z,33547,0.0064697266,-0.121154785,-0.0012207031
1735321817671,2024-12-27T17:50:17.671Z,33554,0.011169434,-0.12451172,0.004699707
1735321817678,2024-12-27T17:50:17.678Z,33561,0.008117676,-0.12426758,0.0045776367
1735321817685,2024-12-27T17:50:17.685Z,33568,0.0057373047,-0.11999512,-3.6621094E-4
1735321817696,2024-12-27T17:50:17.696Z,33579,-3.6621094E-4,-0.12426758,-0.0045776367
1735321817706,2024-12-27T17:50:17.706Z,33589,-0.009887695,-0.13128662,-0.0072631836
1735321817712,2024-12-27T17:50:17.712Z,33595,-0.0134887695,-0.13208008,-0.0045776367
1735321817717,2024-12-27T17:50:17.717Z,33600,-0.0087890625,-0.13232422,0.0041503906
1735321817723,2024-12-27T17:50:17.723Z,33606,-0.0032958984,-0.12750244,0.0099487305
1735321817743,2024-12-27T17:50:17.743Z,33626,0.002746582,-0.11871338,0.014282227
1735321817749,2024-12-27T17:50:17.749Z,33632,0.008361816,-0.11566162,0.014221191
1735321817754,2024-12-27T17:50:17.754Z,33637,-0.0010375977,-0.11682129,0.005493164
1735321817790,2024-12-27T17:50:17.790Z,33673,-0.009521484,-0.120666504,0.0015869141
1735321817796,2024-12-27T17:50:17.796Z,33679,-3.6621094E-4,-0.12658691,0.0043945312
1735321817803,2024-12-27T17:50:17.803Z,33686,0.0053710938,-0.12420654,0.010864258
1735321817810,2024-12-27T17:50:17.810Z,33693,0.0037231445,-0.11468506,0.013549805
1735321817816,2024-12-27T17:50:17.816Z,33699,0.007446289,-0.11151123,0.012512207
1735321817832,2024-12-27T17:50:17.832Z,33715,0.011108398,-0.11468506,0.0059814453
1735321817840,2024-12-27T17:50:17.840Z,33723,0.007873535,-0.116760254,-0.0012207031
1735321817846,2024-12-27T17:50:17.846Z,33729,-3.0517578E-4,-0.11804199,-0.0079956055
1735321817853,2024-12-27T17:50:17.853Z,33736,-0.0032958984,-0.11920166,-0.0056762695
1735321817859,2024-12-27T17:50:17.859Z,33742,-0.004760742,-0.118896484,-0.0032958984
1735321817865,2024-12-27T17:50:17.865Z,33748,-0.003112793,-0.121276855,0.0010986328
1735321817879,2024-12-27T17:50:17.879Z,33762,6.713867E-4,-0.12310791,-3.0517578E-4
1735321817884,2024-12-27T17:50:17.884Z,33767,1.2207031E-4,-0.12121582,-0.004760742
1735321817922,2024-12-27T17:50:17.922Z,33805,-8.544922E-4,-0.12084961,-0.002746582
1735321817928,2024-12-27T17:50:17.928Z,33811,-9.1552734E-4,-0.12219238,-0.0033569336
1735321817935,2024-12-27T17:50:17.935Z,33818,-0.0014038086,-0.12164307,-0.0030517578
1735321817942,2024-12-27T17:50:17.942Z,33825,-0.0033569336,-0.12286377,5.493164E-4
1735321817948,2024-12-27T17:50:17.948Z,33831,-0.0036621094,-0.12799072,0.0036621094
1735321817954,2024-12-27T17:50:17.954Z,33837,0.0045166016,-0.13323975,0.01184082
1735321818013,2024-12-27T17:50:18.013Z,33896,0.012878418,-0.13018799,0.012817383
1735321818020,2024-12-27T17:50:18.020Z,33903,0.013793945,-0.12298584,0.0060424805
1735321818026,2024-12-27T17:50:18.026Z,33909,0.013916016,-0.12036133,0.0073242188
1735321818032,2024-12-27T17:50:18.032Z,33915,0.015014648,-0.12060547,0.009643555
