Timestamp (ms),ISO DateTime,Elapsed Time (ms),Acceleration X,Acceleration Y,Acceleration Z
1725721371286,2024-09-07T15:02:51.286Z,474403,0.4008789,-0.8270874,0.30438232
1725721371344,2024-09-07T15:02:51.344Z,474461,0.39117432,-0.82244873,0.3015747
1725721371394,2024-09-07T15:02:51.394Z,474511,0.39093018,-0.8265991,0.321167
1725721371434,2024-09-07T15:02:51.434Z,474551,0.39697266,-0.8222656,0.33703613
1725721371471,2024-09-07T15:02:51.471Z,474588,0.4088745,-0.817749,0.32800293
1725721371508,2024-09-07T15:02:51.508Z,474625,0.4121704,-0.8179321,0.3236084
1725721371544,2024-09-07T15:02:51.544Z,474661,0.4154663,-0.83148193,0.34094238
1725721371603,2024-09-07T15:02:51.603Z,474720,0.42980957,-0.8345337,0.35406494
1725721371690,2024-09-07T15:02:51.690Z,474807,0.42266846,-0.8204956,0.33325195
1725721371744,2024-09-07T15:02:51.744Z,474861,0.40795898,-0.82110596,0.31799316
1725721371781,2024-09-07T15:02:51.781Z,474898,0.39990234,-0.8167114,0.30517578
1725721371817,2024-09-07T15:02:51.817Z,474934,0.39379883,-0.79174805,0.26916504
1725721371852,2024-09-07T15:02:51.852Z,474969,0.3867798,-0.8013916,0.32995605
1725721371888,2024-09-07T15:02:51.888Z,475005,0.37445068,-0.8093262,0.28723145
1725721371922,2024-09-07T15:02:51.922Z,475039,0.35064697,-0.7798462,0.22845459
1725721371957,2024-09-07T15:02:51.957Z,475074,0.30718994,-0.7861328,0.22717285
1725721371994,2024-09-07T15:02:51.994Z,475111,0.35595703,-0.85632324,0.27282715
1725721372031,2024-09-07T15:02:52.031Z,475148,0.35144043,-0.79815674,0.25238037
1725721372075,2024-09-07T15:02:52.075Z,475192,0.30059814,-0.7546997,0.23968506
1725721372114,2024-09-07T15:02:52.114Z,475231,0.33190918,-0.86047363,0.26556396
1725721372148,2024-09-07T15:02:52.148Z,475265,0.32409668,-0.89038086,0.25811768
1725721372185,2024-09-07T15:02:52.185Z,475302,0.33648682,-0.7817993,0.24456787
1725721372224,2024-09-07T15:02:52.224Z,475341,0.3319702,-0.8106079,0.2647705
1725721372260,2024-09-07T15:02:52.260Z,475377,0.29278564,-0.8013916,0.2770996
1725721372298,2024-09-07T15:02:52.298Z,475415,0.30773926,-0.85998535,0.24517822
1725721372331,2024-09-07T15:02:52.331Z,475448,0.28851318,-0.84576416,0.21850586
1725721372363,2024-09-07T15:02:52.363Z,475480,0.2902832,-0.8401489,0.20904541
1725721372401,2024-09-07T15:02:52.401Z,475518,0.30584717,-0.90844727,0.23614502
1725721372437,2024-09-07T15:02:52.437Z,475554,0.29541016,-0.8571167,0.20452881
1725721372479,2024-09-07T15:02:52.479Z,475596,0.2886963,-0.9020996,0.22583008
1725721372512,2024-09-07T15:02:52.512Z,475629,0.27801514,-0.8222046,0.18066406
1725721372545,2024-09-07T15:02:52.545Z,475662,0.34851074,-0.8644409,0.14294434
1725721372581,2024-09-07T15:02:52.581Z,475698,0.31237793,-0.7953491,0.081970215
1725721372623,2024-09-07T15:02:52.623Z,475740,0.22058105,-0.869751,0.022460938
1725721372669,2024-09-07T15:02:52.669Z,475786,0.20581055,-0.9407959,0.14575195
1725721372707,2024-09-07T15:02:52.707Z,475824,0.269104,-0.916626,0.23730469
1725721372743,2024-09-07T15:02:52.743Z,475860,0.27252197,-0.9092407,0.14837646
1725721372776,2024-09-07T15:02:52.776Z,475893,0.29449463,-0.8527832,0.14050293
1725721372812,2024-09-07T15:02:52.812Z,475929,0.2888794,-0.87323,0.18469238
1725721372848,2024-09-07T15:02:52.848Z,475965,0.33068848,-0.8951416,0.16021729
1725721372898,2024-09-07T15:02:52.898Z,476015,0.3562622,-0.8625488,0.19580078
1725721372947,2024-09-07T15:02:52.947Z,476064,0.36547852,-0.9824219,0.2477417
1725721372982,2024-09-07T15:02:52.982Z,476099,0.3251953,-0.94958496,0.18908691
1725721373034,2024-09-07T15:02:53.034Z,476151,0.39172363,-0.9857178,0.16467285
1725721373073,2024-09-07T15:02:53.073Z,476190,0.42126465,-0.8289795,0.15362549
1725721373107,2024-09-07T15:02:53.107Z,476224,0.51586914,-0.97058105,0.25073242
1725721373165,2024-09-07T15:02:53.165Z,476282,0.526001,-0.9639282,0.25372314
1725721373199,2024-09-07T15:02:53.199Z,476316,0.5111084,-1.043335,0.29656982
1725721373231,2024-09-07T15:02:53.231Z,476348,0.56036377,-0.967041,0.28863525
1725721373270,2024-09-07T15:02:53.270Z,476387,0.6124878,-0.9355469,0.20117188
1725721373305,2024-09-07T15:02:53.305Z,476422,0.53881836,-1.0383301,0.053588867
1725721373344,2024-09-07T15:02:53.344Z,476461,0.44610596,-1.0072021,0.040283203
1725721373388,2024-09-07T15:02:53.388Z,476505,0.5338135,-0.8864746,0.23498535
1725721373464,2024-09-07T15:02:53.464Z,476581,0.45495605,-0.92681885,0.19384766
1725721373502,2024-09-07T15:02:53.502Z,476619,0.46557617,-0.92181396,0.16320801
1725721373536,2024-09-07T15:02:53.536Z,476653,0.5576172,-0.83569336,0.24993896
1725721373573,2024-09-07T15:02:53.573Z,476690,0.54919434,-0.9501953,0.31573486
1725721373606,2024-09-07T15:02:53.606Z,476723,0.39416504,-1.078125,0.21002197
1725721373644,2024-09-07T15:02:53.644Z,476761,0.5899048,-0.8692627,0.27661133
1725721373678,2024-09-07T15:02:53.678Z,476795,0.5085449,-0.9002075,0.19903564
1725721373714,2024-09-07T15:02:53.714Z,476831,0.5020752,-0.9345093,0.20428467
1725721373754,2024-09-07T15:02:53.754Z,476871,0.47943115,-1.1097412,0.16882324
1725721373797,2024-09-07T15:02:53.797Z,476914,0.42767334,-0.87976074,0.07159424
1725721373842,2024-09-07T15:02:53.842Z,476959,0.48046875,-0.95410156,0.13580322
1725721373889,2024-09-07T15:02:53.889Z,477006,0.3743286,-1.0151978,0.0826416
1725721373929,2024-09-07T15:02:53.929Z,477046,0.38391113,-0.8377075,0.215271
1725721373963,2024-09-07T15:02:53.963Z,477080,0.2574463,-0.9938965,0.13098145
1725721374003,2024-09-07T15:02:54.003Z,477120,0.23358154,-0.8404541,0.2423706
1725721374038,2024-09-07T15:02:54.038Z,477155,0.1697998,-0.9064331,0.2142334
1725721374075,2024-09-07T15:02:54.075Z,477192,0.27508545,-0.92974854,0.27105713
1725721374112,2024-09-07T15:02:54.112Z,477229,0.23065186,-0.82891846,0.26989746
1725721374154,2024-09-07T15:02:54.154Z,477271,0.23669434,-0.89678955,0.21948242
1725721374199,2024-09-07T15:02:54.199Z,477316,0.23303223,-0.89416504,0.24255371
1725721374243,2024-09-07T15:02:54.243Z,477360,0.22406006,-0.8759155,0.22076416
1725721374291,2024-09-07T15:02:54.291Z,477408,0.28027344,-0.892395,0.20251465
1725721374336,2024-09-07T15:02:54.336Z,477453,0.35150146,-0.7333374,0.26086426
1725721374373,2024-09-07T15:02:54.373Z,477490,0.30322266,-0.9456177,0.23474121
1725721374410,2024-09-07T15:02:54.410Z,477527,0.328125,-0.84588623,0.23010254
1725721374447,2024-09-07T15:02:54.447Z,477564,0.31427002,-0.9350586,0.20507812
1725721374480,2024-09-07T15:02:54.480Z,477597,0.3550415,-0.9397583,0.2539673
1725721374516,2024-09-07T15:02:54.516Z,477633,0.36993408,-0.83483887,0.22113037
1725721374561,2024-09-07T15:02:54.561Z,477678,0.34698486,-0.7972412,0.18023682
1725721374603,2024-09-07T15:02:54.603Z,477720,0.3427124,-0.9234009,0.20111084
1725721374648,2024-09-07T15:02:54.648Z,477765,0.34118652,-0.85791016,0.25115967
1725721374694,2024-09-07T15:02:54.694Z,477811,0.3085327,-0.8796997,0.30426025
1725721374793,2024-09-07T15:02:54.793Z,477910,0.2659912,-0.8036499,0.2699585
1725721374833,2024-09-07T15:02:54.833Z,477950,0.2855835,-0.84954834,0.262146
1725721374883,2024-09-07T15:02:54.883Z,478000,0.2939453,-0.78741455,0.20220947
1725721374915,2024-09-07T15:02:54.915Z,478032,0.25860596,-0.7791748,0.23773193
1725721374948,2024-09-07T15:02:54.948Z,478065,0.26904297,-0.7809448,0.17236328
1725721374981,2024-09-07T15:02:54.981Z,478098,0.3640747,-0.8267822,0.17077637
1725721375014,2024-09-07T15:02:55.014Z,478131,0.3031006,-0.805542,0.2121582
1725721375055,2024-09-07T15:02:55.055Z,478172,0.36663818,-0.80145264,0.33215332
1725721375094,2024-09-07T15:02:55.094Z,478211,0.46398926,-0.8658447,0.3994751
1725721375128,2024-09-07T15:02:55.128Z,478245,0.43414307,-0.8208618,0.35302734
1725721375162,2024-09-07T15:02:55.162Z,478279,0.4505005,-0.8000488,0.31671143
1725721375198,2024-09-07T15:02:55.198Z,478315,0.4744873,-0.8464966,0.35827637
1725721375232,2024-09-07T15:02:55.232Z,478349,0.4105835,-0.81347656,0.35479736
1725721375271,2024-09-07T15:02:55.271Z,478388,0.36968994,-0.7878418,0.324646
1725721375307,2024-09-07T15:02:55.307Z,478424,0.32214355,-0.7456665,0.2750244
1725721375346,2024-09-07T15:02:55.346Z,478463,0.35473633,-0.76068115,0.27355957
1725721375386,2024-09-07T15:02:55.386Z,478503,0.37091064,-0.7938843,0.26361084
1725721375421,2024-09-07T15:02:55.421Z,478538,0.33654785,-0.7766113,0.24310303
1725721375462,2024-09-07T15:02:55.462Z,478579,0.42364502,-0.9064331,0.32562256
1725721375506,2024-09-07T15:02:55.506Z,478623,0.4043579,-0.8587036,0.31970215
1725721375552,2024-09-07T15:02:55.552Z,478669,0.4197998,-0.81347656,0.24658203
1725721375598,2024-09-07T15:02:55.598Z,478715,0.4463501,-0.76226807,0.24273682
1725721375636,2024-09-07T15:02:55.636Z,478753,0.44152832,-0.7424927,0.20831299
1725721375669,2024-09-07T15:02:55.669Z,478786,0.3729248,-0.8222046,0.25665283
1725721375713,2024-09-07T15:02:55.713Z,478830,0.3242798,-0.77246094,0.3139038
1725721375757,2024-09-07T15:02:55.757Z,478874,0.23571777,-0.7189331,0.3571167
1725721375791,2024-09-07T15:02:55.791Z,478908,0.29956055,-0.83428955,0.35723877
1725721375828,2024-09-07T15:02:55.828Z,478945,0.31481934,-0.75897217,0.27630615
1725721375864,2024-09-07T15:02:55.864Z,478981,0.37280273,-0.87927246,0.22564697
1725721375961,2024-09-07T15:02:55.961Z,479078,0.40966797,-0.7548828,0.20703125
1725721376000,2024-09-07T15:02:56Z,479117,0.4022827,-0.81207275,0.27734375
1725721376034,2024-09-07T15:02:56.034Z,479151,0.36254883,-0.84454346,0.29779053
1725721376070,2024-09-07T15:02:56.070Z,479187,0.3482666,-0.8482666,0.277771
1725721376106,2024-09-07T15:02:56.106Z,479223,0.29742432,-0.8293457,0.31518555
1725721376140,2024-09-07T15:02:56.140Z,479257,0.27246094,-0.82647705,0.35058594
1725721376186,2024-09-07T15:02:56.186Z,479303,0.25238037,-0.9343262,0.18237305
1725721376218,2024-09-07T15:02:56.218Z,479335,0.25421143,-0.7876587,0.1149292
1725721376253,2024-09-07T15:02:56.253Z,479370,0.21679688,-0.88391113,0.08190918
1725721376286,2024-09-07T15:02:56.286Z,479403,0.28070068,-0.73553467,0.049560547
1725721376321,2024-09-07T15:02:56.321Z,479438,0.22503662,-0.86291504,0.012023926
1725721376361,2024-09-07T15:02:56.361Z,479478,0.26281738,-0.8779297,0.08544922
1725721376403,2024-09-07T15:02:56.403Z,479520,0.3149414,-0.88848877,0.14837646
1725721376449,2024-09-07T15:02:56.449Z,479566,0.32836914,-0.9501953,0.2019043
1725721376483,2024-09-07T15:02:56.483Z,479600,0.34197998,-0.9981079,0.28302002
1725721376518,2024-09-07T15:02:56.518Z,479635,0.45074463,-0.99786377,0.3046875
1725721376557,2024-09-07T15:02:56.557Z,479674,0.3908081,-0.9206543,0.26531982
1725721376593,2024-09-07T15:02:56.593Z,479710,0.43652344,-0.95129395,0.28985596
1725721376643,2024-09-07T15:02:56.643Z,479760,0.30596924,-0.8959961,0.21295166
1725721376678,2024-09-07T15:02:56.678Z,479795,0.32348633,-0.9337158,0.22930908
1725721376719,2024-09-07T15:02:56.719Z,479836,0.35235596,-0.85424805,0.1638794
1725721376764,2024-09-07T15:02:56.764Z,479881,0.31671143,-1.0140381,0.1885376
1725721376808,2024-09-07T15:02:56.808Z,479925,0.36761475,-0.958374,0.21600342
1725721376856,2024-09-07T15:02:56.856Z,479973,0.50842285,-0.9732666,0.16137695
1725721376891,2024-09-07T15:02:56.891Z,480008,0.52941895,-0.97088623,0.14642334
1725721376928,2024-09-07T15:02:56.928Z,480045,0.6038208,-0.94299316,0.101501465
1725721376966,2024-09-07T15:02:56.966Z,480083,0.41937256,-1.0286865,0.059936523
1725721377002,2024-09-07T15:02:57.002Z,480119,0.38476562,-1.0587158,0.108947754
1725721377034,2024-09-07T15:02:57.034Z,480151,0.5392456,-1.0531006,0.2397461
1725721377085,2024-09-07T15:02:57.085Z,480202,0.56433105,-0.88934326,0.21966553
1725721377122,2024-09-07T15:02:57.122Z,480239,0.4515381,-0.9992676,0.19396973
1725721377169,2024-09-07T15:02:57.169Z,480286,0.41400146,-0.91693115,0.17059326
1725721377222,2024-09-07T15:02:57.222Z,480339,0.48571777,-0.8249512,0.2539673
1725721377261,2024-09-07T15:02:57.261Z,480378,0.43151855,-0.9378662,0.1762085
1725721377296,2024-09-07T15:02:57.296Z,480413,0.383667,-0.9470215,0.0871582
1725721377328,2024-09-07T15:02:57.328Z,480445,0.41326904,-0.9176636,0.16430664
1725721377364,2024-09-07T15:02:57.364Z,480481,0.43017578,-0.8965454,0.25616455
1725721377400,2024-09-07T15:02:57.400Z,480517,0.3774414,-0.90667725,0.24780273
1725721377435,2024-09-07T15:02:57.435Z,480552,0.32800293,-0.9785156,0.30877686
1725721377530,2024-09-07T15:02:57.530Z,480647,0.41064453,-0.8955078,0.3980713
1725721377573,2024-09-07T15:02:57.573Z,480690,0.3795166,-1.0135498,0.24194336
1725721377621,2024-09-07T15:02:57.621Z,480738,0.4015503,-0.8502197,0.14752197
1725721377654,2024-09-07T15:02:57.654Z,480771,0.32495117,-1.0654297,0.1081543
1725721377686,2024-09-07T15:02:57.686Z,480803,0.25842285,-0.85736084,0.12774658
1725721377723,2024-09-07T15:02:57.723Z,480840,0.1987915,-0.99005127,0.18939209
1725721377763,2024-09-07T15:02:57.763Z,480880,0.25421143,-0.8998413,0.18054199
1725721377798,2024-09-07T15:02:57.798Z,480915,0.2612915,-0.75909424,0.13562012
1725721377835,2024-09-07T15:02:57.835Z,480952,0.3511963,-0.9074707,0.20239258
1725721377870,2024-09-07T15:02:57.870Z,480987,0.27496338,-0.92303467,0.1270752
1725721377902,2024-09-07T15:02:57.902Z,481019,0.16558838,-1.0131226,0.107177734
1725721377939,2024-09-07T15:02:57.939Z,481056,0.13616943,-0.986145,0.12792969
1725721377979,2024-09-07T15:02:57.979Z,481096,0.21386719,-0.88482666,0.18322754
1725721378021,2024-09-07T15:02:58.021Z,481138,0.3352661,-0.8054199,0.19689941
1725721378074,2024-09-07T15:02:58.074Z,481191,0.25683594,-0.8916626,0.15698242
1725721378115,2024-09-07T15:02:58.115Z,481232,0.25024414,-1.0020752,0.18157959
1725721378153,2024-09-07T15:02:58.153Z,481270,0.30096436,-0.8557739,0.20819092
1725721378195,2024-09-07T15:02:58.195Z,481312,0.24841309,-1.0499878,0.19598389
1725721378229,2024-09-07T15:02:58.229Z,481346,0.24829102,-0.9277344,0.19476318
1725721378264,2024-09-07T15:02:58.264Z,481381,0.2850952,-1.0146484,0.25061035
1725721378305,2024-09-07T15:02:58.305Z,481422,0.28448486,-0.91296387,0.2019043
1725721378339,2024-09-07T15:02:58.339Z,481456,0.30566406,-0.901001,0.19158936
1725721378383,2024-09-07T15:02:58.383Z,481500,0.24804688,-0.81311035,0.18157959
1725721378431,2024-09-07T15:02:58.431Z,481548,0.26934814,-0.96624756,0.22143555
1725721378478,2024-09-07T15:02:58.478Z,481595,0.23675537,-0.90722656,0.13867188
1725721378524,2024-09-07T15:02:58.524Z,481641,0.206604,-0.8479004,0.18487549
1725721378562,2024-09-07T15:02:58.562Z,481679,0.23815918,-0.8793335,0.22131348
1725721378596,2024-09-07T15:02:58.596Z,481713,0.23632812,-0.8008423,0.23968506
1725721378630,2024-09-07T15:02:58.630Z,481747,0.31280518,-0.92767334,0.27685547
1725721378672,2024-09-07T15:02:58.672Z,481789,0.31604004,-0.84210205,0.23809814
1725721378707,2024-09-07T15:02:58.707Z,481824,0.2999878,-0.84680176,0.25793457
1725721378744,2024-09-07T15:02:58.744Z,481861,0.3092041,-0.8855591,0.26342773
1725721378788,2024-09-07T15:02:58.788Z,481905,0.31207275,-0.8820801,0.24102783
1725721378836,2024-09-07T15:02:58.836Z,481953,0.32843018,-0.8696289,0.29052734
1725721378883,2024-09-07T15:02:58.883Z,482000,0.32806396,-0.8798828,0.30877686
1725721378936,2024-09-07T15:02:58.936Z,482053,0.3574829,-0.8373413,0.30426025
1725721378972,2024-09-07T15:02:58.972Z,482089,0.3587036,-0.8206787,0.3163452
1725721379010,2024-09-07T15:02:59.010Z,482127,0.3770752,-0.8466797,0.3209839
1725721379049,2024-09-07T15:02:59.049Z,482166,0.3522339,-0.8179321,0.25811768
1725721379083,2024-09-07T15:02:59.083Z,482200,0.3505249,-0.83825684,0.27624512
1725721379116,2024-09-07T15:02:59.116Z,482233,0.3244629,-0.79589844,0.24005127
1725721379149,2024-09-07T15:02:59.149Z,482266,0.36505127,-0.7625122,0.26678467
1725721379194,2024-09-07T15:02:59.194Z,482311,0.38067627,-0.7648926,0.27392578
1725721379290,2024-09-07T15:02:59.290Z,482407,0.34405518,-0.77697754,0.24645996
1725721379325,2024-09-07T15:02:59.325Z,482442,0.3597412,-0.80914307,0.26983643
1725721379360,2024-09-07T15:02:59.360Z,482477,0.37597656,-0.8354492,0.30004883
1725721379396,2024-09-07T15:02:59.396Z,482513,0.3935547,-0.8323364,0.33312988
1725721379443,2024-09-07T15:02:59.443Z,482560,0.395813,-0.84350586,0.36566162
1725721379477,2024-09-07T15:02:59.477Z,482594,0.35247803,-0.8222656,0.33288574
1725721379512,2024-09-07T15:02:59.512Z,482629,0.35620117,-0.7609253,0.32354736
1725721379546,2024-09-07T15:02:59.546Z,482663,0.38287354,-0.8134155,0.2682495
1725721379580,2024-09-07T15:02:59.580Z,482697,0.34259033,-0.8102417,0.22839355
1725721379618,2024-09-07T15:02:59.618Z,482735,0.36810303,-0.8441162,0.2286377
1725721379660,2024-09-07T15:02:59.660Z,482777,0.3475952,-0.826355,0.24084473
1725721379693,2024-09-07T15:02:59.693Z,482810,0.3609619,-0.8138428,0.23388672
1725721379735,2024-09-07T15:02:59.735Z,482852,0.31622314,-0.7340088,0.22937012
1725721379779,2024-09-07T15:02:59.779Z,482896,0.29418945,-0.8305664,0.24261475
1725721379815,2024-09-07T15:02:59.815Z,482932,0.31121826,-0.8737793,0.2512207
1725721379863,2024-09-07T15:02:59.863Z,482980,0.29473877,-0.87506104,0.25048828
1725721379897,2024-09-07T15:02:59.897Z,483014,0.3270874,-0.8342285,0.27575684
1725721379932,2024-09-07T15:02:59.932Z,483049,0.300354,-0.76434326,0.22625732
1725721379964,2024-09-07T15:02:59.964Z,483081,0.32788086,-0.7860718,0.27197266
1725721380005,2024-09-07T15:03:00.005Z,483122,0.3199463,-0.8722534,0.2536621
1725721380049,2024-09-07T15:03:00.049Z,483166,0.27630615,-0.84368896,0.22833252
1725721380093,2024-09-07T15:03:00.093Z,483210,0.28790283,-0.9260254,0.28393555
1725721380140,2024-09-07T15:03:00.140Z,483257,0.23962402,-0.8411255,0.21795654
1725721380183,2024-09-07T15:03:00.183Z,483300,0.28179932,-0.8120117,0.1720581
1725721380239,2024-09-07T15:03:00.239Z,483356,0.2678833,-0.8569946,0.12701416
1725721380274,2024-09-07T15:03:00.274Z,483391,0.19598389,-0.940979,0.038635254
1725721380322,2024-09-07T15:03:00.322Z,483439,0.18798828,-0.8811035,0.0013427734
1725721380365,2024-09-07T15:03:00.365Z,483482,0.18133545,-0.85388184,0.08758545
1725721380403,2024-09-07T15:03:00.403Z,483520,0.17608643,-0.9803467,0.093933105
1725721380442,2024-09-07T15:03:00.442Z,483559,0.28198242,-0.8796997,0.12780762
1725721380476,2024-09-07T15:03:00.476Z,483593,0.3673706,-0.8659668,0.16455078
1725721380513,2024-09-07T15:03:00.513Z,483630,0.34118652,-0.9031372,0.20080566
1725721380547,2024-09-07T15:03:00.547Z,483664,0.3079834,-0.927124,0.17053223
1725721380587,2024-09-07T15:03:00.587Z,483704,0.3729248,-1.0089722,0.1921997
1725721380634,2024-09-07T15:03:00.634Z,483751,0.38781738,-0.96118164,0.14569092
1725721380670,2024-09-07T15:03:00.670Z,483787,0.42712402,-0.93414307,0.16638184
1725721380704,2024-09-07T15:03:00.704Z,483821,0.43145752,-0.99993896,0.23931885
1725721380738,2024-09-07T15:03:00.738Z,483855,0.39904785,-0.92315674,0.26782227
1725721380783,2024-09-07T15:03:00.783Z,483900,0.38812256,-0.98321533,0.3701172
1725721380819,2024-09-07T15:03:00.819Z,483936,0.43847656,-0.911499,0.3196411
1725721380907,2024-09-07T15:03:00.907Z,484024,0.47454834,-1.0305176,0.29559326
1725721380943,2024-09-07T15:03:00.943Z,484060,0.4501953,-0.98742676,0.1741333
1725721380977,2024-09-07T15:03:00.977Z,484094,0.54315186,-0.9244995,0.14575195
1725721381011,2024-09-07T15:03:01.011Z,484128,0.42315674,-0.9213257,0.074401855
1725721381046,2024-09-07T15:03:01.046Z,484163,0.4557495,-1.1005859,0.12585449
1725721381079,2024-09-07T15:03:01.079Z,484196,0.51727295,-0.9401245,0.17938232
1725721381118,2024-09-07T15:03:01.118Z,484235,0.5,-0.9069214,0.15026855
1725721381158,2024-09-07T15:03:01.158Z,484275,0.47198486,-0.861145,0.18115234
1725721381192,2024-09-07T15:03:01.192Z,484309,0.4805298,-0.95318604,0.21252441
1725721381230,2024-09-07T15:03:01.230Z,484347,0.4331665,-1.0136108,0.22216797
1725721381276,2024-09-07T15:03:01.276Z,484393,0.46081543,-0.92596436,0.28424072
1725721381312,2024-09-07T15:03:01.312Z,484429,0.43060303,-0.94073486,0.19281006
1725721381354,2024-09-07T15:03:01.354Z,484471,0.45587158,-0.90600586,0.2019043
1725721381398,2024-09-07T15:03:01.398Z,484515,0.4276123,-0.95428467,0.21801758
1725721381451,2024-09-07T15:03:01.451Z,484568,0.33270264,-0.8572998,0.17913818
1725721381490,2024-09-07T15:03:01.490Z,484607,0.3005371,-0.92352295,0.23278809
1725721381524,2024-09-07T15:03:01.524Z,484641,0.31274414,-0.95910645,0.2929077
1725721381559,2024-09-07T15:03:01.559Z,484676,0.3414917,-0.8900757,0.28155518
1725721381593,2024-09-07T15:03:01.593Z,484710,0.31903076,-1.0082397,0.20574951
1725721381629,2024-09-07T15:03:01.629Z,484746,0.3546753,-0.87579346,0.22802734
1725721381678,2024-09-07T15:03:01.678Z,484795,0.3439331,-0.94573975,0.21142578
1725721381714,2024-09-07T15:03:01.714Z,484831,0.26971436,-0.8678589,0.18603516
1725721381759,2024-09-07T15:03:01.759Z,484876,0.23706055,-0.9640503,0.18572998
1725721381803,2024-09-07T15:03:01.803Z,484920,0.21777344,-0.9077759,0.14202881
1725721381851,2024-09-07T15:03:01.851Z,484968,0.24298096,-0.99902344,0.2935791
1725721381896,2024-09-07T15:03:01.896Z,485013,0.21697998,-0.9022217,0.14819336
1725721381931,2024-09-07T15:03:01.931Z,485048,0.23156738,-0.9449463,0.17462158
1725721381965,2024-09-07T15:03:01.965Z,485082,0.2546997,-0.9432373,0.17907715
1725721381999,2024-09-07T15:03:01.999Z,485116,0.26464844,-0.9091797,0.17614746
1725721382037,2024-09-07T15:03:02.037Z,485154,0.25372314,-0.9232788,0.24133301
1725721382076,2024-09-07T15:03:02.076Z,485193,0.21331787,-0.8944092,0.23742676
1725721382120,2024-09-07T15:03:02.120Z,485237,0.21960449,-0.9332886,0.2631836
1725721382173,2024-09-07T15:03:02.173Z,485290,0.21783447,-0.9164429,0.2625122
1725721382211,2024-09-07T15:03:02.211Z,485328,0.17669678,-0.89575195,0.18798828
1725721382253,2024-09-07T15:03:02.253Z,485370,0.30322266,-0.88531494,0.31298828
1725721382303,2024-09-07T15:03:02.303Z,485420,0.25671387,-0.87976074,0.19989014
1725721382340,2024-09-07T15:03:02.340Z,485457,0.26184082,-0.8864746,0.18945312
1725721382374,2024-09-07T15:03:02.374Z,485491,0.24249268,-0.9105835,0.18518066
1725721382410,2024-09-07T15:03:02.410Z,485527,0.21685791,-0.8763428,0.17333984
1725721382446,2024-09-07T15:03:02.446Z,485563,0.2557373,-0.94384766,0.24816895
1725721382478,2024-09-07T15:03:02.478Z,485595,0.272583,-0.82232666,0.25628662
1725721382522,2024-09-07T15:03:02.522Z,485639,0.2711792,-0.8422241,0.29870605
1725721382589,2024-09-07T15:03:02.589Z,485706,0.2685547,-0.8190918,0.26690674
1725721382637,2024-09-07T15:03:02.637Z,485754,0.2816162,-0.887146,0.26690674
1725721382674,2024-09-07T15:03:02.674Z,485791,0.27716064,-0.82159424,0.24108887
1725721382706,2024-09-07T15:03:02.706Z,485823,0.3550415,-0.79956055,0.17852783
1725721382749,2024-09-07T15:03:02.749Z,485866,0.3383789,-0.85235596,0.23345947
1725721382783,2024-09-07T15:03:02.783Z,485900,0.3513794,-0.8782959,0.25616455
1725721382820,2024-09-07T15:03:02.820Z,485937,0.34606934,-0.86486816,0.2567749
1725721382853,2024-09-07T15:03:02.853Z,485970,0.37420654,-0.87750244,0.27581787
1725721382892,2024-09-07T15:03:02.892Z,486009,0.40075684,-0.8770752,0.31280518
1725721382928,2024-09-07T15:03:02.928Z,486045,0.413208,-0.8640747,0.31115723
1725721382976,2024-09-07T15:03:02.976Z,486093,0.41937256,-0.84436035,0.32910156
1725721383020,2024-09-07T15:03:03.020Z,486137,0.33929443,-0.79052734,0.29974365
1725721383068,2024-09-07T15:03:03.068Z,486185,0.35339355,-0.7876587,0.29742432
1725721383113,2024-09-07T15:03:03.113Z,486230,0.38134766,-0.7746582,0.28497314
1725721383154,2024-09-07T15:03:03.154Z,486271,0.33459473,-0.8131714,0.24078369
1725721383190,2024-09-07T15:03:03.190Z,486307,0.31707764,-0.793396,0.22930908
1725721383226,2024-09-07T15:03:03.226Z,486343,0.35473633,-0.80249023,0.20617676
1725721383261,2024-09-07T15:03:03.261Z,486378,0.3587036,-0.803772,0.22808838
1725721383296,2024-09-07T15:03:03.296Z,486413,0.3727417,-0.81689453,0.26019287
1725721383333,2024-09-07T15:03:03.333Z,486450,0.37835693,-0.8123169,0.25146484
1725721383381,2024-09-07T15:03:03.381Z,486498,0.45751953,-0.86779785,0.27911377
1725721383428,2024-09-07T15:03:03.428Z,486545,0.4345703,-0.83825684,0.3322754
1725721383470,2024-09-07T15:03:03.470Z,486587,0.43255615,-0.8390503,0.33880615
1725721383524,2024-09-07T15:03:03.524Z,486641,0.41186523,-0.8272095,0.34851074
1725721383557,2024-09-07T15:03:03.557Z,486674,0.4088745,-0.8151245,0.3522339
1725721383596,2024-09-07T15:03:03.596Z,486713,0.3894043,-0.8413086,0.3267212
1725721383636,2024-09-07T15:03:03.636Z,486753,0.38116455,-0.83306885,0.31671143
1725721383671,2024-09-07T15:03:03.671Z,486788,0.3548584,-0.7828369,0.2578125
1725721383703,2024-09-07T15:03:03.703Z,486820,0.38830566,-0.84161377,0.31658936
1725721383736,2024-09-07T15:03:03.736Z,486853,0.32922363,-0.8206787,0.2602539
1725721383787,2024-09-07T15:03:03.787Z,486904,0.31756592,-0.7970581,0.26611328
1725721383828,2024-09-07T15:03:03.828Z,486945,0.3571167,-0.8082886,0.28125
1725721383878,2024-09-07T15:03:03.878Z,486995,0.33459473,-0.82281494,0.28326416
1725721383917,2024-09-07T15:03:03.917Z,487034,0.35284424,-0.8485718,0.29022217
1725721383966,2024-09-07T15:03:03.966Z,487083,0.32629395,-0.8477783,0.24163818
1725721384019,2024-09-07T15:03:04.019Z,487136,0.2946167,-0.842041,0.20227051
1725721384055,2024-09-07T15:03:04.055Z,487172,0.34222412,-0.8560791,0.22943115
1725721384090,2024-09-07T15:03:04.090Z,487207,0.31445312,-0.8588867,0.20629883
1725721384129,2024-09-07T15:03:04.129Z,487246,0.289917,-0.84887695,0.17114258
1725721384163,2024-09-07T15:03:04.163Z,487280,0.28070068,-0.8815918,0.18585205
1725721384279,2024-09-07T15:03:04.279Z,487396,0.23638916,-0.8240967,0.17407227
1725721384342,2024-09-07T15:03:04.342Z,487459,0.2814331,-0.8740845,0.21411133
1725721384376,2024-09-07T15:03:04.376Z,487493,0.19671631,-0.80493164,0.13763428
1725721384409,2024-09-07T15:03:04.409Z,487526,0.2850952,-0.8999634,0.19885254
1725721384445,2024-09-07T15:03:04.445Z,487562,0.25463867,-0.8637085,0.11456299
1725721384481,2024-09-07T15:03:04.481Z,487598,0.22137451,-0.82855225,0.12640381
1725721384527,2024-09-07T15:03:04.527Z,487644,0.24859619,-0.91638184,0.171875
1725721384563,2024-09-07T15:03:04.563Z,487680,0.293396,-0.86865234,0.12188721
1725721384597,2024-09-07T15:03:04.597Z,487714,0.27331543,-0.8491821,0.13555908
1725721384630,2024-09-07T15:03:04.630Z,487747,0.24658203,-0.89593506,0.1954956
1725721384665,2024-09-07T15:03:04.665Z,487782,0.22277832,-0.85113525,0.17578125
1725721384700,2024-09-07T15:03:04.700Z,487817,0.2616577,-0.8717041,0.1295166
1725721384735,2024-09-07T15:03:04.735Z,487852,0.26293945,-0.9282837,0.12768555
1725721384780,2024-09-07T15:03:04.780Z,487897,0.26019287,-0.9401245,0.13482666
1725721384816,2024-09-07T15:03:04.816Z,487933,0.335083,-0.9423828,0.13952637
1725721384850,2024-09-07T15:03:04.850Z,487967,0.33502197,-0.92926025,0.07977295
1725721384884,2024-09-07T15:03:04.884Z,488001,0.40368652,-1.0181885,0.17584229
1725721384927,2024-09-07T15:03:04.927Z,488044,0.44317627,-1.0854492,0.18896484
1725721384974,2024-09-07T15:03:04.974Z,488091,0.49365234,-0.91619873,0.21020508
1725721385007,2024-09-07T15:03:05.007Z,488124,0.46069336,-1.0105591,0.2010498
1725721385043,2024-09-07T15:03:05.043Z,488160,0.3718872,-1.0095215,0.10076904
1725721385079,2024-09-07T15:03:05.079Z,488196,0.41394043,-0.9590454,0.06561279
1725721385116,2024-09-07T15:03:05.116Z,488233,0.43084717,-0.9014282,0.09802246
1725721385151,2024-09-07T15:03:05.151Z,488268,0.42993164,-0.96032715,0.15710449
1725721385182,2024-09-07T15:03:05.182Z,488299,0.5028076,-0.89819336,0.23150635
1725721385224,2024-09-07T15:03:05.224Z,488341,0.43041992,-0.9317627,0.115356445
1725721385270,2024-09-07T15:03:05.270Z,488387,0.4640503,-0.928772,0.13879395
1725721385302,2024-09-07T15:03:05.302Z,488419,0.5310669,-0.9746094,0.20355225
1725721385348,2024-09-07T15:03:05.348Z,488465,0.50231934,-0.96710205,0.2444458
1725721385384,2024-09-07T15:03:05.384Z,488501,0.44866943,-0.9916382,0.22064209
1725721385420,2024-09-07T15:03:05.420Z,488537,0.53515625,-0.8654175,0.18792725
1725721385453,2024-09-07T15:03:05.453Z,488570,0.5015259,-0.9869385,0.15863037
1725721385493,2024-09-07T15:03:05.493Z,488610,0.48077393,-0.96136475,0.16534424
1725721385538,2024-09-07T15:03:05.538Z,488655,0.4696045,-1.0219116,0.17803955
1725721385588,2024-09-07T15:03:05.588Z,488705,0.50531006,-0.8602295,0.15527344
1725721385630,2024-09-07T15:03:05.630Z,488747,0.4821167,-0.9519043,0.24163818
1725721385675,2024-09-07T15:03:05.675Z,488792,0.4055786,-0.95336914,0.20202637
1725721385710,2024-09-07T15:03:05.710Z,488827,0.40911865,-0.93963623,0.2559204
1725721385746,2024-09-07T15:03:05.746Z,488863,0.34240723,-0.9771118,0.18878174
1725721385777,2024-09-07T15:03:05.777Z,488894,0.35107422,-0.8779907,0.18255615
1725721385829,2024-09-07T15:03:05.829Z,488946,0.33441162,-0.9483032,0.20703125
1725721385868,2024-09-07T15:03:05.868Z,488985,0.35772705,-0.8838501,0.2541504
1725721385905,2024-09-07T15:03:05.905Z,489022,0.2468872,-0.9607544,0.087646484
1725721385947,2024-09-07T15:03:05.947Z,489064,0.21246338,-0.8999634,0.14129639
1725721385988,2024-09-07T15:03:05.988Z,489105,0.28112793,-0.9460449,0.19580078
1725721386034,2024-09-07T15:03:06.034Z,489151,0.28479004,-0.86621094,0.19116211
1725721386077,2024-09-07T15:03:06.077Z,489194,0.2578125,-0.9459839,0.14929199
1725721386114,2024-09-07T15:03:06.114Z,489231,0.19049072,-0.9376221,0.09442139
1725721386149,2024-09-07T15:03:06.149Z,489266,0.22698975,-1.0089722,0.14526367
1725721386186,2024-09-07T15:03:06.186Z,489303,0.24707031,-0.7921753,0.14190674
1725721386224,2024-09-07T15:03:06.224Z,489341,0.33953857,-0.9121094,0.21575928
1725721386267,2024-09-07T15:03:06.267Z,489384,0.25006104,-0.8353882,0.16992188
1725721386305,2024-09-07T15:03:06.305Z,489422,0.22436523,-0.9786377,0.15045166
1725721386349,2024-09-07T15:03:06.349Z,489466,0.20239258,-0.902771,0.14257812
1725721386392,2024-09-07T15:03:06.392Z,489509,0.24713135,-0.98236084,0.19525146
1725721386447,2024-09-07T15:03:06.447Z,489564,0.2164917,-0.8717041,0.16937256
1725721386533,2024-09-07T15:03:06.533Z,489650,0.25042725,-0.9313965,0.22528076
1725721386564,2024-09-07T15:03:06.564Z,489681,0.24951172,-0.8731079,0.20007324
1725721386603,2024-09-07T15:03:06.603Z,489720,0.2770996,-0.8723755,0.23254395
1725721386645,2024-09-07T15:03:06.645Z,489762,0.23626709,-0.9399414,0.2131958
1725721386682,2024-09-07T15:03:06.682Z,489799,0.23565674,-0.8821411,0.21105957
1725721386718,2024-09-07T15:03:06.718Z,489835,0.26184082,-0.91833496,0.20788574
1725721386760,2024-09-07T15:03:06.760Z,489877,0.25354004,-0.85668945,0.19702148
1725721386807,2024-09-07T15:03:06.807Z,489924,0.29797363,-0.9284668,0.20861816
1725721386838,2024-09-07T15:03:06.838Z,489955,0.28082275,-0.8691406,0.17132568
1725721386879,2024-09-07T15:03:06.879Z,489996,0.28930664,-0.8963623,0.16204834
1725721386911,2024-09-07T15:03:06.911Z,490028,0.31243896,-0.87475586,0.1940918
1725721386949,2024-09-07T15:03:06.949Z,490066,0.32263184,-0.8132324,0.22521973
1725721386985,2024-09-07T15:03:06.985Z,490102,0.33709717,-0.85943604,0.24188232
1725721387022,2024-09-07T15:03:07.022Z,490139,0.32305908,-0.8691406,0.23291016
1725721387060,2024-09-07T15:03:07.060Z,490177,0.36138916,-0.8757324,0.30090332
1725721387095,2024-09-07T15:03:07.095Z,490212,0.35723877,-0.8633423,0.30895996
1725721387133,2024-09-07T15:03:07.133Z,490250,0.3361206,-0.8265381,0.33538818
1725721387177,2024-09-07T15:03:07.177Z,490294,0.3703003,-0.83966064,0.38659668
1725721387211,2024-09-07T15:03:07.211Z,490328,0.35333252,-0.8027954,0.33117676
1725721387251,2024-09-07T15:03:07.251Z,490368,0.34631348,-0.8074341,0.29144287
1725721387292,2024-09-07T15:03:07.292Z,490409,0.35681152,-0.7831421,0.2479248
1725721387340,2024-09-07T15:03:07.340Z,490457,0.3788452,-0.7872925,0.24560547
1725721387373,2024-09-07T15:03:07.373Z,490490,0.3444214,-0.7952881,0.18322754
1725721387404,2024-09-07T15:03:07.404Z,490521,0.35583496,-0.7965698,0.19256592
1725721387442,2024-09-07T15:03:07.442Z,490559,0.3656006,-0.8165283,0.22735596
1725721387480,2024-09-07T15:03:07.480Z,490597,0.38006592,-0.83477783,0.26605225
1725721387519,2024-09-07T15:03:07.519Z,490636,0.4126587,-0.84381104,0.33587646
1725721387565,2024-09-07T15:03:07.565Z,490682,0.40020752,-0.8326416,0.36169434
1725721387611,2024-09-07T15:03:07.611Z,490728,0.37420654,-0.83807373,0.36395264
1725721387657,2024-09-07T15:03:07.657Z,490774,0.38427734,-0.836792,0.36883545
1725721387699,2024-09-07T15:03:07.699Z,490816,0.39294434,-0.84198,0.3701172
1725721387743,2024-09-07T15:03:07.743Z,490860,0.40698242,-0.852478,0.34521484
1725721387789,2024-09-07T15:03:07.789Z,490906,0.41412354,-0.82476807,0.29748535
1725721387827,2024-09-07T15:03:07.827Z,490944,0.3986206,-0.8487549,0.23718262
1725721387862,2024-09-07T15:03:07.862Z,490979,0.38861084,-0.861145,0.21746826
1725721387896,2024-09-07T15:03:07.896Z,491013,0.39587402,-0.85998535,0.19140625
1725721387938,2024-09-07T15:03:07.938Z,491055,0.37756348,-0.83374023,0.21350098
1725721387974,2024-09-07T15:03:07.974Z,491091,0.32354736,-0.80474854,0.23632812
1725721388013,2024-09-07T15:03:08.013Z,491130,0.33361816,-0.84539795,0.2744751
1725721388073,2024-09-07T15:03:08.073Z,491190,0.3036499,-0.79730225,0.21289062
1725721388109,2024-09-07T15:03:08.109Z,491226,0.33172607,-0.8407593,0.26934814
1725721388148,2024-09-07T15:03:08.148Z,491265,0.35687256,-0.8571167,0.25805664
1725721388271,2024-09-07T15:03:08.271Z,491388,0.34265137,-0.8706665,0.23217773
1725721388321,2024-09-07T15:03:08.321Z,491438,0.3493042,-0.85131836,0.30096436
1725721388361,2024-09-07T15:03:08.361Z,491478,0.35516357,-0.73657227,0.24780273
1725721388399,2024-09-07T15:03:08.399Z,491516,0.38745117,-0.79559326,0.2921753
1725721388433,2024-09-07T15:03:08.433Z,491550,0.33148193,-0.8347168,0.28393555
1725721388468,2024-09-07T15:03:08.468Z,491585,0.29077148,-0.91485596,0.27954102
1725721388507,2024-09-07T15:03:08.507Z,491624,0.25378418,-0.8262329,0.26019287
1725721388539,2024-09-07T15:03:08.539Z,491656,0.25048828,-0.82696533,0.24432373
1725721388573,2024-09-07T15:03:08.573Z,491690,0.30664062,-0.79437256,0.277771
1725721388623,2024-09-07T15:03:08.623Z,491740,0.32104492,-0.7989502,0.24493408
1725721388659,2024-09-07T15:03:08.659Z,491776,0.24853516,-0.75115967,0.14672852
1725721388694,2024-09-07T15:03:08.694Z,491811,0.303833,-0.9546509,0.18963623
1725721388728,2024-09-07T15:03:08.728Z,491845,0.23223877,-0.9440918,0.13110352
1725721388760,2024-09-07T15:03:08.760Z,491877,0.26263428,-0.9067383,0.18292236
1725721388797,2024-09-07T15:03:08.797Z,491914,0.29589844,-0.80895996,0.20318604
1725721388835,2024-09-07T15:03:08.835Z,491952,0.2543335,-0.9057617,0.12109375
1725721388869,2024-09-07T15:03:08.869Z,491986,0.22399902,-0.8803711,0.1048584
1725721388901,2024-09-07T15:03:08.901Z,492018,0.29400635,-0.87768555,0.11987305
1725721388934,2024-09-07T15:03:08.934Z,492051,0.26055908,-0.89282227,0.11804199
1725721388971,2024-09-07T15:03:08.971Z,492088,0.25457764,-0.87158203,0.14733887
1725721389015,2024-09-07T15:03:09.015Z,492132,0.27978516,-0.85717773,0.17993164
1725721389053,2024-09-07T15:03:09.053Z,492170,0.22766113,-0.9057007,0.1762085
1725721389085,2024-09-07T15:03:09.085Z,492202,0.32592773,-0.911499,0.18688965
1725721389120,2024-09-07T15:03:09.120Z,492237,0.31774902,-0.90826416,0.1749878
1725721389158,2024-09-07T15:03:09.158Z,492275,0.32043457,-0.9489136,0.17779541
1725721389192,2024-09-07T15:03:09.192Z,492309,0.3314209,-0.95129395,0.14672852
1725721389226,2024-09-07T15:03:09.226Z,492343,0.33343506,-0.9644165,0.19995117
1725721389320,2024-09-07T15:03:09.320Z,492437,0.3638916,-0.95526123,0.23443604
1725721389351,2024-09-07T15:03:09.351Z,492468,0.34484863,-0.888916,0.16583252
1725721389384,2024-09-07T15:03:09.384Z,492501,0.43481445,-0.89953613,0.17437744
1725721389422,2024-09-07T15:03:09.422Z,492539,0.4621582,-0.95599365,0.1951294
1725721389464,2024-09-07T15:03:09.464Z,492581,0.4671631,-0.99316406,0.20788574
1725721389519,2024-09-07T15:03:09.519Z,492636,0.4477539,-0.97558594,0.19799805
1725721389553,2024-09-07T15:03:09.553Z,492670,0.50927734,-0.95513916,0.16851807
1725721389587,2024-09-07T15:03:09.587Z,492704,0.4724121,-0.95770264,0.13720703
1725721389622,2024-09-07T15:03:09.622Z,492739,0.4656372,-0.9547119,0.10852051
1725721389659,2024-09-07T15:03:09.659Z,492776,0.5531006,-0.88952637,0.09082031
1725721389694,2024-09-07T15:03:09.694Z,492811,0.44250488,-0.98431396,0.04949951
1725721389730,2024-09-07T15:03:09.730Z,492847,0.586853,-1.0001831,0.21960449
1725721389771,2024-09-07T15:03:09.771Z,492888,0.53448486,-0.92626953,0.24871826
1725721389814,2024-09-07T15:03:09.814Z,492931,0.5515747,-0.9779663,0.22473145
1725721389863,2024-09-07T15:03:09.863Z,492980,0.53009033,-0.88061523,0.20458984
1725721389899,2024-09-07T15:03:09.899Z,493016,0.49450684,-0.9956665,0.19897461
1725721389943,2024-09-07T15:03:09.943Z,493060,0.4831543,-0.8944092,0.28637695
1725721389979,2024-09-07T15:03:09.979Z,493096,0.48797607,-1.0298462,0.25561523
1725721390010,2024-09-07T15:03:10.010Z,493127,0.46002197,-0.84851074,0.15924072
1725721390045,2024-09-07T15:03:10.045Z,493162,0.38934326,-0.9138794,0.18811035
1725721390084,2024-09-07T15:03:10.084Z,493201,0.4173584,-0.85235596,0.13580322
1725721390128,2024-09-07T15:03:10.128Z,493245,0.4428711,-0.9428711,0.20495605
1725721390174,2024-09-07T15:03:10.174Z,493291,0.2845459,-0.8737793,0.115722656
1725721390218,2024-09-07T15:03:10.218Z,493335,0.38226318,-1.0336304,0.17919922
1725721390266,2024-09-07T15:03:10.266Z,493383,0.34576416,-0.901062,0.16534424
1725721390310,2024-09-07T15:03:10.310Z,493427,0.3418579,-0.9719238,0.17803955
1725721390345,2024-09-07T15:03:10.345Z,493462,0.25689697,-0.94122314,0.20684814
1725721390384,2024-09-07T15:03:10.384Z,493501,0.20855713,-0.9152832,0.15264893
1725721390428,2024-09-07T15:03:10.428Z,493545,0.29278564,-0.8805542,0.258667
1725721390497,2024-09-07T15:03:10.497Z,493614,0.19012451,-0.88946533,0.1897583
1725721390553,2024-09-07T15:03:10.553Z,493670,0.21307373,-0.8482666,0.23937988
1725721390599,2024-09-07T15:03:10.599Z,493716,0.22027588,-0.92541504,0.15142822
1725721390637,2024-09-07T15:03:10.637Z,493754,0.22906494,-0.8894043,0.109680176
1725721390669,2024-09-07T15:03:10.669Z,493786,0.22802734,-0.93133545,0.07397461
1725721390707,2024-09-07T15:03:10.707Z,493824,0.24633789,-0.8920288,0.12384033
1725721390747,2024-09-07T15:03:10.747Z,493864,0.21453857,-0.9272461,0.19146729
1725721390779,2024-09-07T15:03:10.779Z,493896,0.22991943,-0.923645,0.25280762
1725721390821,2024-09-07T15:03:10.821Z,493938,0.23669434,-1.0001221,0.29309082
1725721390863,2024-09-07T15:03:10.863Z,493980,0.27331543,-0.9399414,0.26190186
1725721390899,2024-09-07T15:03:10.899Z,494016,0.31341553,-0.8949585,0.25360107
1725721390932,2024-09-07T15:03:10.932Z,494049,0.28857422,-0.92474365,0.21087646
1725721390968,2024-09-07T15:03:10.968Z,494085,0.22949219,-0.9564209,0.18463135
1725721391003,2024-09-07T15:03:11.003Z,494120,0.22912598,-0.9619751,0.19207764
1725721391038,2024-09-07T15:03:11.038Z,494155,0.2319336,-0.8812866,0.21356201
1725721391077,2024-09-07T15:03:11.077Z,494194,0.20617676,-0.8547363,0.23944092
1725721391116,2024-09-07T15:03:11.116Z,494233,0.24932861,-0.9202881,0.30560303
1725721391153,2024-09-07T15:03:11.153Z,494270,0.30645752,-0.9057007,0.31518555
1725721391187,2024-09-07T15:03:11.187Z,494304,0.3026123,-0.87994385,0.2253418
1725721391224,2024-09-07T15:03:11.224Z,494341,0.33483887,-0.8404541,0.17358398
1725721391259,2024-09-07T15:03:11.259Z,494376,0.37963867,-0.8440552,0.14807129
1725721391346,2024-09-07T15:03:11.346Z,494463,0.37353516,-0.8643799,0.2053833
1725721391383,2024-09-07T15:03:11.383Z,494500,0.31707764,-0.8237915,0.21972656
1725721391419,2024-09-07T15:03:11.419Z,494536,0.35809326,-0.77801514,0.2925415
1725721391456,2024-09-07T15:03:11.456Z,494573,0.36749268,-0.76794434,0.32958984
1725721391490,2024-09-07T15:03:11.490Z,494607,0.30126953,-0.7398071,0.27661133
1725721391524,2024-09-07T15:03:11.524Z,494641,0.2935791,-0.78393555,0.26434326
1725721391659,2024-09-07T15:03:11.659Z,494776,0.27923584,-0.7182007,0.26989746
1725721391689,2024-09-07T15:03:11.689Z,494806,0.3635254,-0.7407837,0.26763916
1725721391720,2024-09-07T15:03:11.720Z,494837,0.3642578,-0.75775146,0.2659912
1725721391762,2024-09-07T15:03:11.762Z,494879,0.37994385,-0.78692627,0.30975342
1725721391807,2024-09-07T15:03:11.807Z,494924,0.42114258,-0.8173218,0.34240723
1725721391842,2024-09-07T15:03:11.842Z,494959,0.4440918,-0.840271,0.35534668
1725721391876,2024-09-07T15:03:11.876Z,494993,0.4677124,-0.8345337,0.38659668
1725721391910,2024-09-07T15:03:11.910Z,495027,0.4428711,-0.8153076,0.39416504
1725721391945,2024-09-07T15:03:11.945Z,495062,0.42132568,-0.8026123,0.38232422
1725721413765,2024-09-07T15:03:33.765Z,516882,0.38830566,-0.8377075,0.32800293
1725721413820,2024-09-07T15:03:33.820Z,516937,0.39611816,-0.8432617,0.32006836
1725721413872,2024-09-07T15:03:33.872Z,516989,0.38116455,-0.8352661,0.31982422
1725721413919,2024-09-07T15:03:33.919Z,517036,0.37908936,-0.8405762,0.3317871
1725721413961,2024-09-07T15:03:33.961Z,517078,0.37786865,-0.83636475,0.33312988
1725721414002,2024-09-07T15:03:34.002Z,517119,0.37628174,-0.84277344,0.33563232
1725721414041,2024-09-07T15:03:34.041Z,517158,0.36260986,-0.83514404,0.30444336
1725721414080,2024-09-07T15:03:34.080Z,517197,0.3604126,-0.83929443,0.28552246
1725721414119,2024-09-07T15:03:34.119Z,517236,0.37316895,-0.8378906,0.2755127
1725721414167,2024-09-07T15:03:34.167Z,517284,0.36297607,-0.8374634,0.2659912
1725721414206,2024-09-07T15:03:34.206Z,517323,0.33148193,-0.83935547,0.26849365
1725721414242,2024-09-07T15:03:34.242Z,517359,0.35565186,-0.8465576,0.33795166
1725721414287,2024-09-07T15:03:34.287Z,517404,0.3508911,-0.7897339,0.38165283
1725721414325,2024-09-07T15:03:34.325Z,517442,0.2935791,-0.7959595,0.3873291
1725721414362,2024-09-07T15:03:34.362Z,517479,0.3303833,-0.8052368,0.3779297
1725721414401,2024-09-07T15:03:34.401Z,517518,0.34838867,-0.80755615,0.3173828
1725721414440,2024-09-07T15:03:34.440Z,517557,0.3322754,-0.817688,0.2982788
1725721414478,2024-09-07T15:03:34.478Z,517595,0.27838135,-0.7635498,0.17333984
1725721414538,2024-09-07T15:03:34.538Z,517655,0.27111816,-0.84069824,0.18823242
1725721414579,2024-09-07T15:03:34.579Z,517696,0.28759766,-0.833313,0.21087646
1725721414617,2024-09-07T15:03:34.617Z,517734,0.23248291,-0.78479004,0.23553467
1725721414660,2024-09-07T15:03:34.660Z,517777,0.2345581,-0.847229,0.2444458
1725721414695,2024-09-07T15:03:34.695Z,517812,0.27478027,-0.7805786,0.2548828
1725721414733,2024-09-07T15:03:34.733Z,517850,0.32977295,-0.8143921,0.2791748
1725721414772,2024-09-07T15:03:34.772Z,517889,0.29370117,-0.86486816,0.260437
1725721414809,2024-09-07T15:03:34.809Z,517926,0.26153564,-0.78985596,0.22393799
1725721414846,2024-09-07T15:03:34.846Z,517963,0.32269287,-0.9039917,0.2756958
1725721414888,2024-09-07T15:03:34.888Z,518005,0.25500488,-0.9760742,0.26727295
1725721414932,2024-09-07T15:03:34.932Z,518049,0.2619629,-0.85284424,0.20007324
1725721414970,2024-09-07T15:03:34.970Z,518087,0.28448486,-0.8012085,0.18359375
1725721415011,2024-09-07T15:03:35.011Z,518128,0.21820068,-0.8909302,0.18395996
1725721415056,2024-09-07T15:03:35.056Z,518173,0.20758057,-0.8596802,0.13531494
1725721415095,2024-09-07T15:03:35.095Z,518212,0.15771484,-0.7918701,0.13110352
1725721415131,2024-09-07T15:03:35.131Z,518248,0.15063477,-0.87109375,0.13977051
1725721415169,2024-09-07T15:03:35.169Z,518286,0.12054443,-0.91400146,0.04260254
1725721415208,2024-09-07T15:03:35.208Z,518325,0.2243042,-0.97650146,0.122558594
1725721415243,2024-09-07T15:03:35.243Z,518360,0.22979736,-0.97216797,0.16027832
1725721415285,2024-09-07T15:03:35.285Z,518402,0.25280762,-0.8951416,0.17584229
1725721415334,2024-09-07T15:03:35.334Z,518451,0.31188965,-0.9012451,0.19348145
1725721415372,2024-09-07T15:03:35.372Z,518489,0.3612671,-1.0198975,0.17303467
1725721415415,2024-09-07T15:03:35.415Z,518532,0.4019165,-1.098877,0.21820068
1725721415455,2024-09-07T15:03:35.455Z,518572,0.40496826,-0.9963379,0.2579956
1725721415498,2024-09-07T15:03:35.498Z,518615,0.328125,-1.0056763,0.27160645
1725721415538,2024-09-07T15:03:35.538Z,518655,0.4616089,-0.9081421,0.23565674
1725721415580,2024-09-07T15:03:35.580Z,518697,0.4229126,-0.9713745,0.16485596
1725721415619,2024-09-07T15:03:35.619Z,518736,0.26538086,-1.1022339,0.11431885
1725721415656,2024-09-07T15:03:35.656Z,518773,0.3782959,-1.0653687,0.1473999
1725721415698,2024-09-07T15:03:35.698Z,518815,0.44989014,-0.9456177,0.21081543
1725721415749,2024-09-07T15:03:35.749Z,518866,0.38116455,-1.0289917,0.11206055
1725721415790,2024-09-07T15:03:35.790Z,518907,0.41046143,-1.0340576,0.11456299
1725721415827,2024-09-07T15:03:35.827Z,518944,0.41571045,-0.9873657,0.12023926
1725721415867,2024-09-07T15:03:35.867Z,518984,0.45880127,-1.0046387,0.2010498
1725721415909,2024-09-07T15:03:35.909Z,519026,0.41973877,-0.98376465,0.25982666
1725721415947,2024-09-07T15:03:35.947Z,519064,0.33813477,-0.96221924,0.25634766
1725721415992,2024-09-07T15:03:35.992Z,519109,0.42095947,-0.8781738,0.28497314
1725721416031,2024-09-07T15:03:36.031Z,519148,0.3944702,-0.88690186,0.20196533
1725721416070,2024-09-07T15:03:36.070Z,519187,0.35968018,-1.0269165,0.12432861
1725721416111,2024-09-07T15:03:36.111Z,519228,0.34320068,-0.96875,0.1015625
1725721416157,2024-09-07T15:03:36.157Z,519274,0.38104248,-0.9849243,0.13916016
1725721416204,2024-09-07T15:03:36.204Z,519321,0.31011963,-0.9888916,0.13995361
1725721416242,2024-09-07T15:03:36.242Z,519359,0.34783936,-0.9071045,0.21972656
1725721416282,2024-09-07T15:03:36.282Z,519399,0.33099365,-0.97369385,0.23278809
1725721416326,2024-09-07T15:03:36.326Z,519443,0.3128662,-0.89556885,0.17279053
1725721416362,2024-09-07T15:03:36.362Z,519479,0.29626465,-1.0118408,0.17712402
1725721416400,2024-09-07T15:03:36.400Z,519517,0.29840088,-0.9433594,0.17840576
1725721416438,2024-09-07T15:03:36.438Z,519555,0.30981445,-0.9520874,0.22357178
1725721416476,2024-09-07T15:03:36.476Z,519593,0.222229,-0.9970703,0.19952393
1725721416516,2024-09-07T15:03:36.516Z,519633,0.25775146,-0.9638672,0.17266846
1725721416565,2024-09-07T15:03:36.565Z,519682,0.25671387,-0.8851929,0.23242188
1725721416611,2024-09-07T15:03:36.611Z,519728,0.25195312,-0.9532471,0.22125244
1725721416661,2024-09-07T15:03:36.661Z,519778,0.26293945,-0.8574829,0.16125488
1725721416699,2024-09-07T15:03:36.699Z,519816,0.2029419,-1.0026855,0.15673828
1725721416738,2024-09-07T15:03:36.738Z,519855,0.18487549,-1.0001831,0.14831543
1725721416777,2024-09-07T15:03:36.777Z,519894,0.2166748,-0.9404907,0.18103027
1725721416817,2024-09-07T15:03:36.817Z,519934,0.24298096,-0.91186523,0.24468994
1725721416856,2024-09-07T15:03:36.856Z,519973,0.2694702,-0.9176636,0.3031006
1725721416899,2024-09-07T15:03:36.899Z,520016,0.21478271,-0.86486816,0.29455566
1725721416941,2024-09-07T15:03:36.941Z,520058,0.22241211,-0.91619873,0.3093872
1725721416983,2024-09-07T15:03:36.983Z,520100,0.17797852,-0.9682007,0.2401123
1725721417040,2024-09-07T15:03:37.040Z,520157,0.2263794,-0.8787842,0.22039795
1725721417084,2024-09-07T15:03:37.084Z,520201,0.21905518,-0.8685303,0.19281006
1725721417122,2024-09-07T15:03:37.122Z,520239,0.2331543,-0.8310547,0.17547607
1725721417157,2024-09-07T15:03:37.157Z,520274,0.24853516,-0.8902588,0.19561768
1725721417196,2024-09-07T15:03:37.196Z,520313,0.22857666,-0.8744507,0.2243042
1725721417234,2024-09-07T15:03:37.234Z,520351,0.21032715,-0.8777466,0.25012207
1725721417273,2024-09-07T15:03:37.273Z,520390,0.19104004,-0.8477783,0.27459717
1725721417313,2024-09-07T15:03:37.313Z,520430,0.2453003,-0.9298706,0.30114746
1725721417348,2024-09-07T15:03:37.348Z,520465,0.25964355,-0.8442993,0.23443604
1725721417386,2024-09-07T15:03:37.386Z,520503,0.27947998,-0.8673706,0.2333374
1725721417431,2024-09-07T15:03:37.431Z,520548,0.2946167,-0.87854004,0.22283936
1725721417471,2024-09-07T15:03:37.471Z,520588,0.29730225,-0.873291,0.22857666
1725721417510,2024-09-07T15:03:37.510Z,520627,0.31304932,-0.885437,0.25738525
1725721417552,2024-09-07T15:03:37.552Z,520669,0.26885986,-0.85302734,0.28771973
1725721417592,2024-09-07T15:03:37.592Z,520709,0.2805786,-0.8591919,0.319458
1725721417635,2024-09-07T15:03:37.635Z,520752,0.303833,-0.8165283,0.3574829
1725721417675,2024-09-07T15:03:37.675Z,520792,0.3034668,-0.84210205,0.32824707
1725721417712,2024-09-07T15:03:37.712Z,520829,0.362854,-0.8684082,0.30322266
1725721417754,2024-09-07T15:03:37.754Z,520871,0.42041016,-0.8781738,0.32281494
1725721417795,2024-09-07T15:03:37.795Z,520912,0.34924316,-0.8234253,0.31030273
1725721417841,2024-09-07T15:03:37.841Z,520958,0.31427002,-0.7766113,0.28881836
1725721417888,2024-09-07T15:03:37.888Z,521005,0.32165527,-0.83929443,0.34594727
1725721417927,2024-09-07T15:03:37.927Z,521044,0.30151367,-0.7996216,0.32836914
1725721417969,2024-09-07T15:03:37.969Z,521086,0.28753662,-0.7885132,0.262146
1725721418006,2024-09-07T15:03:38.006Z,521123,0.29333496,-0.79644775,0.2869873
1725721418045,2024-09-07T15:03:38.045Z,521162,0.3355713,-0.8013916,0.31640625
1725721418086,2024-09-07T15:03:38.086Z,521203,0.3363037,-0.79382324,0.3157959
1725721418127,2024-09-07T15:03:38.127Z,521244,0.37072754,-0.83740234,0.31695557
1725721418165,2024-09-07T15:03:38.165Z,521282,0.4017334,-0.861084,0.34857178
1725721418202,2024-09-07T15:03:38.202Z,521319,0.39489746,-0.883728,0.37512207
1725721418252,2024-09-07T15:03:38.252Z,521369,0.38171387,-0.8434448,0.35510254
1725721418293,2024-09-07T15:03:38.293Z,521410,0.35388184,-0.7969971,0.32312012
1725721418332,2024-09-07T15:03:38.332Z,521449,0.34942627,-0.836792,0.32391357
1725721418376,2024-09-07T15:03:38.376Z,521493,0.33587646,-0.85046387,0.3307495
1725721418416,2024-09-07T15:03:38.416Z,521533,0.25335693,-0.7922363,0.3203125
1725721418455,2024-09-07T15:03:38.455Z,521572,0.24890137,-0.82733154,0.29449463
1725721418494,2024-09-07T15:03:38.494Z,521611,0.31018066,-0.7930298,0.23547363
1725721418532,2024-09-07T15:03:38.532Z,521649,0.33538818,-0.81585693,0.25195312
1725721418567,2024-09-07T15:03:38.567Z,521684,0.29589844,-0.84375,0.22906494
1725721418609,2024-09-07T15:03:38.609Z,521726,0.2991333,-0.76068115,0.29107666
1725721418652,2024-09-07T15:03:38.652Z,521769,0.29589844,-0.82818604,0.288208
1725721418700,2024-09-07T15:03:38.700Z,521817,0.3092041,-0.7991333,0.21844482
1725721418737,2024-09-07T15:03:38.737Z,521854,0.30413818,-0.84991455,0.23376465
1725721418779,2024-09-07T15:03:38.779Z,521896,0.21466064,-0.82366943,0.19903564
1725721418820,2024-09-07T15:03:38.820Z,521937,0.22821045,-0.8467407,0.22210693
1725721418858,2024-09-07T15:03:38.858Z,521975,0.24957275,-0.8786621,0.23913574
1725721418899,2024-09-07T15:03:38.899Z,522016,0.23382568,-0.8720093,0.24597168
1725721418937,2024-09-07T15:03:38.937Z,522054,0.2998047,-0.9633179,0.25860596
1725721418974,2024-09-07T15:03:38.974Z,522091,0.21966553,-0.8970947,0.2845459
1725721419014,2024-09-07T15:03:39.014Z,522131,0.21270752,-0.94866943,0.2477417
1725721419064,2024-09-07T15:03:39.064Z,522181,0.18713379,-0.89501953,0.17315674
1725721419103,2024-09-07T15:03:39.103Z,522220,0.21331787,-0.80255127,0.090270996
1725721419142,2024-09-07T15:03:39.142Z,522259,0.21221924,-0.8461304,0.07495117
1725721419181,2024-09-07T15:03:39.181Z,522298,0.19268799,-0.86450195,0.027709961
1725721419216,2024-09-07T15:03:39.216Z,522333,0.16571045,-0.80944824,0.03100586
1725721419257,2024-09-07T15:03:39.257Z,522374,0.1819458,-0.8792114,0.0803833
1725721419296,2024-09-07T15:03:39.296Z,522413,0.24206543,-0.928772,0.1817627
1725721419336,2024-09-07T15:03:39.336Z,522453,0.24560547,-0.96429443,0.25616455
1725721419374,2024-09-07T15:03:39.374Z,522491,0.19146729,-0.95184326,0.21185303
1725721419412,2024-09-07T15:03:39.412Z,522529,0.26342773,-0.9526367,0.22418213
1725721419455,2024-09-07T15:03:39.455Z,522572,0.29022217,-0.9957886,0.17907715
1725721419506,2024-09-07T15:03:39.506Z,522623,0.33758545,-0.97802734,0.13964844
1725721419543,2024-09-07T15:03:39.543Z,522660,0.35113525,-0.99658203,0.04559326
1725721419583,2024-09-07T15:03:39.583Z,522700,0.3579712,-1.0049438,0.037597656
1725721419625,2024-09-07T15:03:39.625Z,522742,0.4083252,-1.0578003,0.06524658
1725721419665,2024-09-07T15:03:39.665Z,522782,0.45629883,-1.0250854,0.15661621
1725721419701,2024-09-07T15:03:39.701Z,522818,0.43139648,-1.0567017,0.21142578
1725721419743,2024-09-07T15:03:39.743Z,522860,0.4179077,-1.0211792,0.21917725
1725721419783,2024-09-07T15:03:39.783Z,522900,0.4907837,-1.005127,0.20343018
1725721419824,2024-09-07T15:03:39.824Z,522941,0.4307251,-1.0395508,0.046447754
1725721419872,2024-09-07T15:03:39.872Z,522989,0.37487793,-1.1429443,0.02368164
1725721419910,2024-09-07T15:03:39.910Z,523027,0.37768555,-1.0549927,0.07904053
1725721419946,2024-09-07T15:03:39.946Z,523063,0.32769775,-0.89404297,0.13824463
1725721419987,2024-09-07T15:03:39.987Z,523104,0.37738037,-0.8571167,0.206604
1725721420029,2024-09-07T15:03:40.029Z,523146,0.33416748,-0.9571533,0.16503906
1725721420101,2024-09-07T15:03:40.101Z,523218,0.3656006,-1.078125,0.12701416
1725721420146,2024-09-07T15:03:40.146Z,523263,0.3624878,-0.949646,0.109313965
1725721420187,2024-09-07T15:03:40.187Z,523304,0.34222412,-1.0001831,0.040893555
1725721420226,2024-09-07T15:03:40.226Z,523343,0.35583496,-0.9661255,0.099853516
1725721420274,2024-09-07T15:03:40.274Z,523391,0.3279419,-1.0216675,0.14782715
1725721420319,2024-09-07T15:03:40.319Z,523436,0.3458252,-0.89312744,0.23303223
1725721420377,2024-09-07T15:03:40.377Z,523494,0.3491211,-0.91693115,0.22229004
1725721420417,2024-09-07T15:03:40.417Z,523534,0.34350586,-0.92285156,0.14709473
1725721420458,2024-09-07T15:03:40.458Z,523575,0.23162842,-0.91638184,0.11999512
1725721420501,2024-09-07T15:03:40.501Z,523618,0.25946045,-1.022644,0.15527344
1725721420538,2024-09-07T15:03:40.538Z,523655,0.28759766,-0.93865967,0.09954834
1725721420582,2024-09-07T15:03:40.582Z,523699,0.30908203,-0.9937134,0.13781738
1725721420621,2024-09-07T15:03:40.621Z,523738,0.31903076,-0.9815674,0.11682129
1725721420666,2024-09-07T15:03:40.666Z,523783,0.23913574,-0.9941406,0.09277344
1725721420703,2024-09-07T15:03:40.703Z,523820,0.2199707,-0.927063,0.08807373
1725721420745,2024-09-07T15:03:40.745Z,523862,0.17327881,-0.9543457,0.16229248
1725721420794,2024-09-07T15:03:40.794Z,523911,0.16290283,-0.96069336,0.14245605
1725721420838,2024-09-07T15:03:40.838Z,523955,0.19012451,-0.9766846,0.19049072
1725721420880,2024-09-07T15:03:40.880Z,523997,0.15460205,-0.9030762,0.17889404
1725721420916,2024-09-07T15:03:40.916Z,524033,0.21618652,-0.8984375,0.18878174
1725721420956,2024-09-07T15:03:40.956Z,524073,0.22583008,-0.89404297,0.18920898
1725721420993,2024-09-07T15:03:40.993Z,524110,0.19818115,-0.89123535,0.19897461
1725721421034,2024-09-07T15:03:41.034Z,524151,0.1696167,-0.9650879,0.19335938
1725721421074,2024-09-07T15:03:41.074Z,524191,0.13861084,-1.0029297,0.12884521
1725721421110,2024-09-07T15:03:41.110Z,524227,0.21203613,-0.9569702,0.16986084
1725721421153,2024-09-07T15:03:41.153Z,524270,0.21496582,-0.8359375,0.16290283
1725721421206,2024-09-07T15:03:41.206Z,524323,0.2659912,-0.85162354,0.18450928
1725721421243,2024-09-07T15:03:41.243Z,524360,0.23602295,-0.90405273,0.20452881
1725721421284,2024-09-07T15:03:41.284Z,524401,0.18048096,-0.9451294,0.18920898
1725721421322,2024-09-07T15:03:41.322Z,524439,0.18493652,-0.9831543,0.17993164
1725721421359,2024-09-07T15:03:41.359Z,524476,0.21276855,-0.9515381,0.20532227
1725721421398,2024-09-07T15:03:41.398Z,524515,0.22302246,-0.9104614,0.21154785
1725721421435,2024-09-07T15:03:41.435Z,524552,0.27697754,-0.9324341,0.24975586
1725721421473,2024-09-07T15:03:41.473Z,524590,0.24414062,-0.8668823,0.2166748
1725721421517,2024-09-07T15:03:41.517Z,524634,0.21844482,-0.8612671,0.18634033
1725721421558,2024-09-07T15:03:41.558Z,524675,0.20288086,-0.9008789,0.19451904
1725721421604,2024-09-07T15:03:41.604Z,524721,0.23425293,-0.80596924,0.20227051
1725721421645,2024-09-07T15:03:41.645Z,524762,0.24542236,-0.904541,0.2267456
1725721421688,2024-09-07T15:03:41.688Z,524805,0.23101807,-0.8452759,0.2218628
1725721421727,2024-09-07T15:03:41.727Z,524844,0.30133057,-0.9100952,0.2703247
1725721421770,2024-09-07T15:03:41.770Z,524887,0.30169678,-0.9152832,0.31243896
1725721421814,2024-09-07T15:03:41.814Z,524931,0.30096436,-0.8717041,0.34606934
1725721421854,2024-09-07T15:03:41.854Z,524971,0.3430786,-0.9387207,0.39508057
1725721421894,2024-09-07T15:03:41.894Z,525011,0.31750488,-0.84558105,0.35784912
1725721421935,2024-09-07T15:03:41.935Z,525052,0.34429932,-0.87371826,0.31152344
1725721421976,2024-09-07T15:03:41.976Z,525093,0.35601807,-0.8899536,0.3092041
1725721422021,2024-09-07T15:03:42.021Z,525138,0.338562,-0.86206055,0.27478027
1725721422067,2024-09-07T15:03:42.067Z,525184,0.30511475,-0.8125,0.22515869
1725721422110,2024-09-07T15:03:42.110Z,525227,0.29370117,-0.80877686,0.22491455
1725721422150,2024-09-07T15:03:42.150Z,525267,0.28631592,-0.78637695,0.2609253
1725721422191,2024-09-07T15:03:42.191Z,525308,0.28125,-0.7960205,0.26464844
1725721422227,2024-09-07T15:03:42.227Z,525344,0.291687,-0.8161621,0.26800537
1725721422269,2024-09-07T15:03:42.269Z,525386,0.3590088,-0.8300781,0.26348877
1725721422307,2024-09-07T15:03:42.307Z,525424,0.36138916,-0.8250122,0.2616577
1725721422346,2024-09-07T15:03:42.346Z,525463,0.3600464,-0.8100586,0.25738525
1725721422386,2024-09-07T15:03:42.386Z,525503,0.37841797,-0.8168335,0.29327393
1725721422434,2024-09-07T15:03:42.434Z,525551,0.3670044,-0.8637085,0.33544922
1725721422476,2024-09-07T15:03:42.476Z,525593,0.38031006,-0.88397217,0.3668213
1725721422512,2024-09-07T15:03:42.512Z,525629,0.36779785,-0.8908081,0.37548828
1725721422549,2024-09-07T15:03:42.549Z,525666,0.34777832,-0.854126,0.32458496
1725721422589,2024-09-07T15:03:42.589Z,525706,0.3618164,-0.82598877,0.32299805
1725721422629,2024-09-07T15:03:42.629Z,525746,0.33251953,-0.83795166,0.28625488
1725721422673,2024-09-07T15:03:42.673Z,525790,0.3272705,-0.8265991,0.25946045
1725721422710,2024-09-07T15:03:42.710Z,525827,0.24932861,-0.80877686,0.2286377
1725721422750,2024-09-07T15:03:42.750Z,525867,0.23864746,-0.8470459,0.2510376
1725721422792,2024-09-07T15:03:42.792Z,525909,0.30181885,-0.8007202,0.24401855
1725721422828,2024-09-07T15:03:42.828Z,525945,0.34924316,-0.8279419,0.26116943
1725721422886,2024-09-07T15:03:42.886Z,526003,0.30645752,-0.74853516,0.22875977
1725721422925,2024-09-07T15:03:42.925Z,526042,0.3287964,-0.8210449,0.23199463
1725721422962,2024-09-07T15:03:42.962Z,526079,0.34729004,-0.9008789,0.20361328
1725721423003,2024-09-07T15:03:43.003Z,526120,0.24359131,-0.8319702,0.17932129
1725721423039,2024-09-07T15:03:43.039Z,526156,0.28344727,-0.88830566,0.19262695
1725721423084,2024-09-07T15:03:43.084Z,526201,0.2444458,-0.81799316,0.21130371
1725721423122,2024-09-07T15:03:43.122Z,526239,0.20526123,-0.82977295,0.2672119
1725721423161,2024-09-07T15:03:43.161Z,526278,0.21270752,-0.8086548,0.3045044
1725721423209,2024-09-07T15:03:43.209Z,526326,0.22729492,-0.79278564,0.24621582
1725721423245,2024-09-07T15:03:43.245Z,526362,0.18267822,-0.8418579,0.2300415
1725721423297,2024-09-07T15:03:43.297Z,526414,0.2290039,-0.9188843,0.230896
1725721423334,2024-09-07T15:03:43.334Z,526451,0.23010254,-0.90289307,0.16223145
1725721423375,2024-09-07T15:03:43.375Z,526492,0.19140625,-0.8501587,0.1026001
1725721423412,2024-09-07T15:03:43.412Z,526529,0.22753906,-0.89678955,0.14819336
1725721423451,2024-09-07T15:03:43.451Z,526568,0.24047852,-0.96588135,0.111572266
1725721423489,2024-09-07T15:03:43.489Z,526606,0.23614502,-0.8798218,0.116882324
1725721423530,2024-09-07T15:03:43.530Z,526647,0.24432373,-0.91137695,0.14221191
1725721423567,2024-09-07T15:03:43.567Z,526684,0.2631836,-0.96881104,0.15185547
1725721423610,2024-09-07T15:03:43.610Z,526727,0.2487793,-0.947937,0.17529297
1725721423647,2024-09-07T15:03:43.647Z,526764,0.21679688,-0.96313477,0.17340088
1725721423705,2024-09-07T15:03:43.705Z,526822,0.24066162,-0.9658203,0.2142334
1725721423744,2024-09-07T15:03:43.744Z,526861,0.27301025,-1.0444946,0.15612793
1725721423781,2024-09-07T15:03:43.781Z,526898,0.25280762,-0.99108887,0.089904785
1725721423826,2024-09-07T15:03:43.826Z,526943,0.32537842,-0.9061279,0.13079834
1725721423865,2024-09-07T15:03:43.865Z,526982,0.27929688,-0.97216797,0.114746094
1725721423908,2024-09-07T15:03:43.908Z,527025,0.3209839,-0.9558716,0.12432861
1725721423946,2024-09-07T15:03:43.946Z,527063,0.34655762,-0.9451904,0.07305908
1725721423989,2024-09-07T15:03:43.989Z,527106,0.37408447,-0.9904175,0.13372803
1725721424028,2024-09-07T15:03:44.028Z,527145,0.4055786,-1.0494995,0.17370605
1725721424065,2024-09-07T15:03:44.065Z,527182,0.42382812,-1.0814209,0.24438477
1725721424116,2024-09-07T15:03:44.116Z,527233,0.39178467,-1.093811,0.21374512
1725721424157,2024-09-07T15:03:44.157Z,527274,0.43121338,-1.1489258,0.28710938
1725721424199,2024-09-07T15:03:44.199Z,527316,0.43182373,-1.0455322,0.24810791
1725721424235,2024-09-07T15:03:44.235Z,527352,0.43463135,-1.0575562,0.16625977
1725721424279,2024-09-07T15:03:44.279Z,527396,0.36920166,-0.9691162,0.049316406
1725721424315,2024-09-07T15:03:44.315Z,527432,0.35003662,-0.90753174,0.03125
1725721424355,2024-09-07T15:03:44.355Z,527472,0.37268066,-0.90893555,0.055541992
1725721424402,2024-09-07T15:03:44.402Z,527519,0.3475952,-0.9685669,0.109191895
1725721424444,2024-09-07T15:03:44.444Z,527561,0.29785156,-0.94317627,0.15124512
1725721424480,2024-09-07T15:03:44.480Z,527597,0.32733154,-0.91748047,0.18273926
1725721424539,2024-09-07T15:03:44.539Z,527656,0.3314209,-0.98687744,0.19317627
1725721424579,2024-09-07T15:03:44.579Z,527696,0.34985352,-0.97247314,0.22027588
1725721424618,2024-09-07T15:03:44.618Z,527735,0.3137207,-0.9332886,0.19696045
1725721424660,2024-09-07T15:03:44.660Z,527777,0.31140137,-0.9540405,0.21679688
1725721424698,2024-09-07T15:03:44.698Z,527815,0.28173828,-1.0184326,0.21295166
1725721424740,2024-09-07T15:03:44.740Z,527857,0.2658081,-0.9169922,0.16320801
1725721424778,2024-09-07T15:03:44.778Z,527895,0.27575684,-0.9935303,0.18493652
1725721424818,2024-09-07T15:03:44.818Z,527935,0.24780273,-0.9414673,0.16149902
1725721424861,2024-09-07T15:03:44.861Z,527978,0.21551514,-0.9283447,0.124816895
1725721424904,2024-09-07T15:03:44.904Z,528021,0.22064209,-0.94226074,0.1519165
1725721424956,2024-09-07T15:03:44.956Z,528073,0.22064209,-0.9779663,0.15509033
1725721424997,2024-09-07T15:03:44.997Z,528114,0.17425537,-0.9472046,0.13122559
1725721425033,2024-09-07T15:03:45.033Z,528150,0.19885254,-0.9429321,0.1876831
1725721425074,2024-09-07T15:03:45.074Z,528191,0.20550537,-0.946228,0.21099854
1725721425120,2024-09-07T15:03:45.120Z,528237,0.16271973,-0.96276855,0.18334961
1725721425160,2024-09-07T15:03:45.160Z,528277,0.15771484,-0.8571167,0.15863037
1725721425201,2024-09-07T15:03:45.201Z,528318,0.2635498,-0.94506836,0.21368408
1725721425243,2024-09-07T15:03:45.243Z,528360,0.21960449,-0.93847656,0.1572876
1725721425280,2024-09-07T15:03:45.280Z,528397,0.20928955,-0.9838867,0.22857666
1725721425321,2024-09-07T15:03:45.321Z,528438,0.19366455,-0.98065186,0.1875
1725721425365,2024-09-07T15:03:45.365Z,528482,0.16723633,-0.87823486,0.18164062
1725721425413,2024-09-07T15:03:45.413Z,528530,0.16088867,-0.94091797,0.17401123
1725721425450,2024-09-07T15:03:45.450Z,528567,0.12963867,-0.96435547,0.1716919
1725721425491,2024-09-07T15:03:45.491Z,528608,0.14337158,-0.98986816,0.17266846
1725721425529,2024-09-07T15:03:45.529Z,528646,0.17980957,-0.90075684,0.17492676
1725721425568,2024-09-07T15:03:45.568Z,528685,0.23754883,-0.8512573,0.22009277
1725721425610,2024-09-07T15:03:45.610Z,528727,0.2399292,-0.8395996,0.22613525
1725721425646,2024-09-07T15:03:45.646Z,528763,0.23364258,-0.94470215,0.23449707
1725721425684,2024-09-07T15:03:45.684Z,528801,0.21966553,-0.90753174,0.22296143
1725721425730,2024-09-07T15:03:45.730Z,528847,0.21069336,-0.97247314,0.24523926
1725721425780,2024-09-07T15:03:45.780Z,528897,0.20336914,-0.9401245,0.22125244
1725721425820,2024-09-07T15:03:45.820Z,528937,0.21508789,-0.9259033,0.23181152
1725721425860,2024-09-07T15:03:45.860Z,528977,0.21765137,-0.9550171,0.2310791
1725721425899,2024-09-07T15:03:45.899Z,529016,0.26013184,-0.9338989,0.24591064
1725721425936,2024-09-07T15:03:45.936Z,529053,0.27349854,-0.880188,0.23699951
1725721425980,2024-09-07T15:03:45.980Z,529097,0.24084473,-0.8070679,0.21032715
1725721426021,2024-09-07T15:03:46.021Z,529138,0.28979492,-0.8099365,0.2341919
1725721426060,2024-09-07T15:03:46.060Z,529177,0.2876587,-0.8260498,0.20550537
1725721426099,2024-09-07T15:03:46.099Z,529216,0.31524658,-0.8408203,0.2199707
1725721426135,2024-09-07T15:03:46.135Z,529252,0.27746582,-0.8557739,0.22991943
1725721426180,2024-09-07T15:03:46.180Z,529297,0.27630615,-0.92303467,0.3008423
1725721426231,2024-09-07T15:03:46.231Z,529348,0.2331543,-0.89056396,0.31591797
1725721426269,2024-09-07T15:03:46.269Z,529386,0.27593994,-0.84198,0.32409668
1725721426311,2024-09-07T15:03:46.311Z,529428,0.36468506,-0.80200195,0.36236572
1725721426348,2024-09-07T15:03:46.348Z,529465,0.36138916,-0.8343506,0.33618164
1725721426384,2024-09-07T15:03:46.384Z,529501,0.3260498,-0.85632324,0.3083496
1725721426427,2024-09-07T15:03:46.427Z,529544,0.35736084,-0.8731079,0.32537842
1725721426469,2024-09-07T15:03:46.469Z,529586,0.3270874,-0.8383789,0.30133057
1725721426506,2024-09-07T15:03:46.506Z,529623,0.30273438,-0.8618164,0.2612915
1725721426542,2024-09-07T15:03:46.542Z,529659,0.291687,-0.86138916,0.24603271
1725721426595,2024-09-07T15:03:46.595Z,529712,0.32720947,-0.8297119,0.23999023
1725721426631,2024-09-07T15:03:46.631Z,529748,0.33673096,-0.8296509,0.21331787
1725721426668,2024-09-07T15:03:46.668Z,529785,0.3303833,-0.8154297,0.19555664
1725721426708,2024-09-07T15:03:46.708Z,529825,0.3477173,-0.8529053,0.2208252
1725721426751,2024-09-07T15:03:46.751Z,529868,0.35351562,-0.8741455,0.2567749
1725721426792,2024-09-07T15:03:46.792Z,529909,0.3544922,-0.87060547,0.29296875
1725721426830,2024-09-07T15:03:46.830Z,529947,0.35351562,-0.8643799,0.32019043
1725721426870,2024-09-07T15:03:46.870Z,529987,0.33374023,-0.8578491,0.33654785
1725721426907,2024-09-07T15:03:46.907Z,530024,0.3305664,-0.845459,0.32092285
1725721426947,2024-09-07T15:03:46.947Z,530064,0.33392334,-0.82873535,0.31774902
1725721426986,2024-09-07T15:03:46.986Z,530103,0.36816406,-0.87231445,0.34039307
1725721427040,2024-09-07T15:03:47.040Z,530157,0.3065796,-0.84002686,0.29907227
1725721427078,2024-09-07T15:03:47.078Z,530195,0.32965088,-0.854126,0.29760742
1725721427119,2024-09-07T15:03:47.119Z,530236,0.35766602,-0.836792,0.2913208
1725721427157,2024-09-07T15:03:47.157Z,530274,0.32562256,-0.833374,0.23699951
1725721427195,2024-09-07T15:03:47.195Z,530312,0.30163574,-0.822937,0.21496582
1725721427234,2024-09-07T15:03:47.234Z,530351,0.29962158,-0.8602295,0.30603027
1725721427270,2024-09-07T15:03:47.270Z,530387,0.3024292,-0.8510742,0.29260254
1725721427307,2024-09-07T15:03:47.307Z,530424,0.2652588,-0.80029297,0.30169678
1725721427350,2024-09-07T15:03:47.350Z,530467,0.33721924,-0.88201904,0.29156494
1725721427387,2024-09-07T15:03:47.387Z,530504,0.27215576,-0.79571533,0.23651123
1725721427434,2024-09-07T15:03:47.434Z,530551,0.230896,-0.805542,0.20159912
1725721427469,2024-09-07T15:03:47.469Z,530586,0.23535156,-0.8395386,0.19000244
1725721427510,2024-09-07T15:03:47.510Z,530627,0.10882568,-0.83795166,0.17462158
1725721427550,2024-09-07T15:03:47.550Z,530667,0.17303467,-0.9314575,0.17590332
1725721427590,2024-09-07T15:03:47.590Z,530707,0.21929932,-0.8320923,0.18499756
1725721427629,2024-09-07T15:03:47.629Z,530746,0.2514038,-0.8635864,0.2276001
1725721427668,2024-09-07T15:03:47.668Z,530785,0.34051514,-0.8510742,0.24493408
1725721427704,2024-09-07T15:03:47.704Z,530821,0.30395508,-0.9164429,0.23638916
1725721427742,2024-09-07T15:03:47.742Z,530859,0.25750732,-0.91571045,0.19781494
1725721427782,2024-09-07T15:03:47.782Z,530899,0.24584961,-0.8369751,0.14526367
1725721427840,2024-09-07T15:03:47.840Z,530957,0.24206543,-0.9060669,0.14404297
1725721427877,2024-09-07T15:03:47.877Z,530994,0.19415283,-0.9387207,0.089782715
1725721427920,2024-09-07T15:03:47.920Z,531037,0.14105225,-0.9359741,0.080322266
1725721427960,2024-09-07T15:03:47.960Z,531077,0.11254883,-0.88275146,0.08111572
1725721428000,2024-09-07T15:03:48Z,531117,0.16015625,-0.9059448,0.11114502
1725721428039,2024-09-07T15:03:48.039Z,531156,0.24584961,-0.85162354,0.13873291
1725721428082,2024-09-07T15:03:48.082Z,531199,0.2175293,-0.944397,0.1461792
1725721428120,2024-09-07T15:03:48.120Z,531237,0.2574463,-0.9244385,0.17816162
1725721428156,2024-09-07T15:03:48.156Z,531273,0.27947998,-0.96313477,0.25854492
1725721428199,2024-09-07T15:03:48.199Z,531316,0.28930664,-1.0150146,0.30334473
1725721428251,2024-09-07T15:03:48.251Z,531368,0.3258667,-0.94781494,0.26934814
1725721428288,2024-09-07T15:03:48.288Z,531405,0.2993164,-0.9567871,0.13879395
1725721428333,2024-09-07T15:03:48.333Z,531450,0.33258057,-0.9547119,0.055664062
1725721428370,2024-09-07T15:03:48.370Z,531487,0.38433838,-1.0117188,0.041809082
1725721428409,2024-09-07T15:03:48.409Z,531526,0.3125,-1.0474243,-0.023620605
1725721428447,2024-09-07T15:03:48.447Z,531564,0.3425293,-1.0924072,0.009765625
1725721428487,2024-09-07T15:03:48.487Z,531604,0.3614502,-1.0227051,0.049621582
1725721428525,2024-09-07T15:03:48.525Z,531642,0.4312744,-1.119812,0.097351074
1725721428570,2024-09-07T15:03:48.570Z,531687,0.45855713,-1.1120605,0.1307373
1725721428613,2024-09-07T15:03:48.613Z,531730,0.42877197,-1.1205444,0.14630127
1725721428665,2024-09-07T15:03:48.665Z,531782,0.4142456,-1.0343628,0.15319824
1725721428705,2024-09-07T15:03:48.705Z,531822,0.3937378,-1.0670166,0.13165283
1725721428744,2024-09-07T15:03:48.744Z,531861,0.42388916,-0.9945679,0.16687012
1725721428782,2024-09-07T15:03:48.782Z,531899,0.37426758,-0.991272,0.15039062
1725721428823,2024-09-07T15:03:48.823Z,531940,0.37469482,-0.9934082,0.114868164
1725721428861,2024-09-07T15:03:48.861Z,531978,0.34960938,-0.9747925,0.092041016
1725721428897,2024-09-07T15:03:48.897Z,532014,0.33563232,-0.99108887,0.08856201
1725721428934,2024-09-07T15:03:48.934Z,532051,0.2520752,-0.97869873,0.0803833
1725721428974,2024-09-07T15:03:48.974Z,532091,0.34246826,-0.97076416,0.16265869
1725721429017,2024-09-07T15:03:49.017Z,532134,0.27801514,-0.8777466,0.12506104
1725721429070,2024-09-07T15:03:49.070Z,532187,0.25750732,-0.9194336,0.17694092
1725721429108,2024-09-07T15:03:49.108Z,532225,0.26849365,-1.0188599,0.190979
1725721429146,2024-09-07T15:03:49.146Z,532263,0.20568848,-0.9049072,0.10076904
1725721429189,2024-09-07T15:03:49.189Z,532306,0.2052002,-1.0368042,0.14428711
1725721429224,2024-09-07T15:03:49.224Z,532341,0.18035889,-0.91467285,0.16467285
1725721429266,2024-09-07T15:03:49.266Z,532383,0.27667236,-0.91467285,0.26275635
1725721429304,2024-09-07T15:03:49.304Z,532421,0.25421143,-0.9277344,0.1640625
1725721429341,2024-09-07T15:03:49.341Z,532458,0.20605469,-0.9468384,0.11755371
1725721429381,2024-09-07T15:03:49.381Z,532498,0.1798706,-0.99108887,0.10882568
1725721429424,2024-09-07T15:03:49.424Z,532541,0.16833496,-0.9891968,0.10662842
1725721429468,2024-09-07T15:03:49.468Z,532585,0.22351074,-0.8442383,0.18432617
1725721429514,2024-09-07T15:03:49.514Z,532631,0.21356201,-0.8913574,0.22869873
1725721429552,2024-09-07T15:03:49.552Z,532669,0.15692139,-0.9203491,0.22375488
1725721429592,2024-09-07T15:03:49.592Z,532709,0.1404419,-0.96710205,0.19732666
1725721429633,2024-09-07T15:03:49.633Z,532750,0.17602539,-0.9724121,0.20831299
1725721429669,2024-09-07T15:03:49.669Z,532786,0.19476318,-0.9118042,0.20593262
1725721429705,2024-09-07T15:03:49.705Z,532822,0.20532227,-0.8800049,0.21392822
1725721429745,2024-09-07T15:03:49.745Z,532862,0.22161865,-0.8825073,0.23522949
1725721429786,2024-09-07T15:03:49.786Z,532903,0.2010498,-0.93969727,0.16589355
1725721429824,2024-09-07T15:03:49.824Z,532941,0.21392822,-0.9387207,0.115478516
1725721429871,2024-09-07T15:03:49.871Z,532988,0.23468018,-1.0057373,0.15979004
1725721429911,2024-09-07T15:03:49.911Z,533028,0.24133301,-0.9590454,0.14190674
1725721429950,2024-09-07T15:03:49.950Z,533067,0.2678833,-0.85528564,0.17828369
1725721429988,2024-09-07T15:03:49.988Z,533105,0.26879883,-0.8773804,0.21820068
1725721430023,2024-09-07T15:03:50.023Z,533140,0.23840332,-0.9022217,0.21490479
1725721430062,2024-09-07T15:03:50.062Z,533179,0.23016357,-0.88916016,0.21118164
1725721430102,2024-09-07T15:03:50.102Z,533219,0.2084961,-0.87683105,0.2277832
1725721430142,2024-09-07T15:03:50.142Z,533259,0.20922852,-0.88165283,0.23297119
1725721430183,2024-09-07T15:03:50.183Z,533300,0.2241211,-0.888855,0.23352051
1725721430224,2024-09-07T15:03:50.224Z,533341,0.26281738,-0.8931885,0.22546387
1725721430260,2024-09-07T15:03:50.260Z,533377,0.26690674,-0.8845825,0.20385742
1725721430318,2024-09-07T15:03:50.318Z,533435,0.29864502,-0.9029541,0.20269775
1725721430358,2024-09-07T15:03:50.358Z,533475,0.3511963,-0.8901367,0.2310791
1725721430401,2024-09-07T15:03:50.401Z,533518,0.35113525,-0.8623657,0.2546997
1725721430442,2024-09-07T15:03:50.442Z,533559,0.3463745,-0.8151245,0.29870605
1725721430482,2024-09-07T15:03:50.482Z,533599,0.3526001,-0.81677246,0.3511963
1725721430519,2024-09-07T15:03:50.519Z,533636,0.3086548,-0.7628174,0.29058838
1725721430557,2024-09-07T15:03:50.557Z,533674,0.32159424,-0.7756958,0.30981445
1725721430595,2024-09-07T15:03:50.595Z,533712,0.3293457,-0.81066895,0.3050537
1725721430635,2024-09-07T15:03:50.635Z,533752,0.2919922,-0.7619629,0.2578125
1725721430674,2024-09-07T15:03:50.674Z,533791,0.2718506,-0.7720337,0.24090576
1725721430724,2024-09-07T15:03:50.724Z,533841,0.3098755,-0.8634033,0.27374268
1725721430764,2024-09-07T15:03:50.764Z,533881,0.35772705,-0.9069824,0.28082275
1725721430805,2024-09-07T15:03:50.805Z,533922,0.38269043,-0.8885498,0.26416016
1725721430845,2024-09-07T15:03:50.845Z,533962,0.39666748,-0.87841797,0.2925415
1725721430881,2024-09-07T15:03:50.881Z,533998,0.39489746,-0.8737793,0.28485107
1725721430919,2024-09-07T15:03:50.919Z,534036,0.40081787,-0.86712646,0.2956543
1725721430960,2024-09-07T15:03:50.960Z,534077,0.40631104,-0.87731934,0.31726074
1725721430995,2024-09-07T15:03:50.995Z,534112,0.37902832,-0.86798096,0.30096436
1725721431033,2024-09-07T15:03:51.033Z,534150,0.35412598,-0.8577881,0.31481934
1725721431075,2024-09-07T15:03:51.075Z,534192,0.33099365,-0.8635254,0.302063
1725721431127,2024-09-07T15:03:51.127Z,534244,0.29803467,-0.83551025,0.27770996
1725721431163,2024-09-07T15:03:51.163Z,534280,0.31359863,-0.84558105,0.2626953
1725721431205,2024-09-07T15:03:51.205Z,534322,0.33483887,-0.87023926,0.2529297
1725721431242,2024-09-07T15:03:51.242Z,534359,0.3312378,-0.8668213,0.2364502
1725721431283,2024-09-07T15:03:51.283Z,534400,0.3201294,-0.8605957,0.23046875
1725721431321,2024-09-07T15:03:51.321Z,534438,0.3383789,-0.88134766,0.26965332
1725721431359,2024-09-07T15:03:51.359Z,534476,0.37194824,-0.8915405,0.27801514
1725721431401,2024-09-07T15:03:51.401Z,534518,0.3600464,-0.833313,0.2593994
1725721431442,2024-09-07T15:03:51.442Z,534559,0.38256836,-0.8300171,0.3005371
1725721431479,2024-09-07T15:03:51.479Z,534596,0.3340454,-0.84729004,0.3262329
1725721431528,2024-09-07T15:03:51.528Z,534645,0.32885742,-0.88861084,0.3555298
1725721431566,2024-09-07T15:03:51.566Z,534683,0.32659912,-0.819397,0.30133057
1725721431607,2024-09-07T15:03:51.607Z,534724,0.33496094,-0.82873535,0.29431152
1725721431647,2024-09-07T15:03:51.647Z,534764,0.36846924,-0.84332275,0.246521
1725721431686,2024-09-07T15:03:51.686Z,534803,0.335083,-0.819397,0.25732422
1725721431724,2024-09-07T15:03:51.724Z,534841,0.2623291,-0.77612305,0.26281738
1725721431771,2024-09-07T15:03:51.771Z,534888,0.2479248,-0.80944824,0.26245117
1725721431808,2024-09-07T15:03:51.808Z,534925,0.25280762,-0.87475586,0.21990967
1725721431845,2024-09-07T15:03:51.845Z,534962,0.1550293,-0.85961914,0.18701172
1725721431880,2024-09-07T15:03:51.880Z,534997,0.2468872,-0.8416748,0.14190674
1725721431929,2024-09-07T15:03:51.929Z,535046,0.26470947,-0.8689575,0.15667725
1725721431977,2024-09-07T15:03:51.977Z,535094,0.29077148,-0.8430176,0.2487793
1725721432019,2024-09-07T15:03:52.019Z,535136,0.31420898,-0.8230591,0.2454834
1725721432066,2024-09-07T15:03:52.066Z,535183,0.28527832,-0.8518677,0.24090576
1725721432105,2024-09-07T15:03:52.105Z,535222,0.2975464,-0.89575195,0.26593018
1725721432147,2024-09-07T15:03:52.147Z,535264,0.21899414,-0.89764404,0.27148438
1725721432189,2024-09-07T15:03:52.189Z,535306,0.22973633,-0.84161377,0.19177246
1725721432229,2024-09-07T15:03:52.229Z,535346,0.21710205,-0.90356445,0.19616699
1725721432267,2024-09-07T15:03:52.267Z,535384,0.21881104,-0.8062744,0.1326294
1725721432310,2024-09-07T15:03:52.310Z,535427,0.23480225,-0.79785156,0.074157715
1725721432362,2024-09-07T15:03:52.362Z,535479,0.22949219,-0.9122925,0.12890625
1725721432410,2024-09-07T15:03:52.410Z,535527,0.19494629,-0.9380493,0.14105225
1725721432455,2024-09-07T15:03:52.455Z,535572,0.25006104,-0.8822632,0.1831665
1725721432503,2024-09-07T15:03:52.503Z,535620,0.27819824,-0.9472656,0.1560669
1725721432546,2024-09-07T15:03:52.546Z,535663,0.25054932,-1.0062256,0.11816406
1725721432589,2024-09-07T15:03:52.589Z,535706,0.2692871,-0.98217773,0.1361084
1725721432630,2024-09-07T15:03:52.630Z,535747,0.25506592,-0.9440918,0.034057617
1725721432674,2024-09-07T15:03:52.674Z,535791,0.2043457,-0.9499512,0.03552246
1725721432715,2024-09-07T15:03:52.715Z,535832,0.16790771,-1.0439453,-0.01727295
1725721432761,2024-09-07T15:03:52.761Z,535878,0.23724365,-1.0361938,0.06512451
1725721432804,2024-09-07T15:03:52.804Z,535921,0.29473877,-0.9987793,0.07763672
1725721432858,2024-09-07T15:03:52.858Z,535975,0.31658936,-0.9765625,0.14758301
1725721432896,2024-09-07T15:03:52.896Z,536013,0.28302002,-1.0943604,0.1538086
1725721432941,2024-09-07T15:03:52.941Z,536058,0.31481934,-0.9788208,0.25616455
1725721432981,2024-09-07T15:03:52.981Z,536098,0.41046143,-1.0162964,0.22711182
1725721433017,2024-09-07T15:03:53.017Z,536134,0.48779297,-0.9605713,0.09954834
1725721433054,2024-09-07T15:03:53.054Z,536171,0.44958496,-0.9204712,0.1628418
1725721433097,2024-09-07T15:03:53.097Z,536214,0.45422363,-0.93481445,0.21228027
1725721433138,2024-09-07T15:03:53.138Z,536255,0.39379883,-0.99749756,0.14697266
1725721433177,2024-09-07T15:03:53.177Z,536294,0.3824463,-0.9760132,0.10272217
1725721433218,2024-09-07T15:03:53.218Z,536335,0.4482422,-0.9475708,0.035583496
1725721433266,2024-09-07T15:03:53.266Z,536383,0.41558838,-1.0515137,0.105163574
1725721433305,2024-09-07T15:03:53.305Z,536422,0.37738037,-1.0644531,0.15075684
1725721433344,2024-09-07T15:03:53.344Z,536461,0.5363159,-0.94207764,0.22766113
1725721433383,2024-09-07T15:03:53.383Z,536500,0.3937378,-0.92614746,0.11828613
1725721433423,2024-09-07T15:03:53.423Z,536540,0.3908081,-1.0175781,0.17608643
1725721433460,2024-09-07T15:03:53.460Z,536577,0.32635498,-0.95410156,0.22088623
1725721433502,2024-09-07T15:03:53.502Z,536619,0.41253662,-0.9229126,0.23059082
1725721433539,2024-09-07T15:03:53.539Z,536656,0.3656006,-0.8692627,0.21478271
1725721433578,2024-09-07T15:03:53.578Z,536695,0.3418579,-0.9345093,0.1751709
1725721433621,2024-09-07T15:03:53.621Z,536738,0.27197266,-0.8782959,0.120910645
1725721433677,2024-09-07T15:03:53.677Z,536794,0.26879883,-0.9753418,0.19110107
1725721433717,2024-09-07T15:03:53.717Z,536834,0.25933838,-0.95422363,0.12359619
1725721433758,2024-09-07T15:03:53.758Z,536875,0.2199707,-0.940979,0.105651855
1725721433795,2024-09-07T15:03:53.795Z,536912,0.26818848,-0.97491455,0.16680908
1725721433836,2024-09-07T15:03:53.836Z,536953,0.26879883,-0.9881592,0.15887451
1725721433875,2024-09-07T15:03:53.875Z,536992,0.2411499,-0.9494629,0.13787842
1725721433917,2024-09-07T15:03:53.917Z,537034,0.2803955,-0.9718628,0.14312744
1725721433957,2024-09-07T15:03:53.957Z,537074,0.24346924,-1.0112915,0.10357666
1725721433998,2024-09-07T15:03:53.998Z,537115,0.16748047,-0.91363525,0.12921143
1725721434033,2024-09-07T15:03:54.033Z,537150,0.17181396,-0.94854736,0.14764404
1725721434081,2024-09-07T15:03:54.081Z,537198,0.19244385,-0.9840698,0.12634277
1725721434117,2024-09-07T15:03:54.117Z,537234,0.20770264,-0.9871216,0.14343262
1725721434160,2024-09-07T15:03:54.160Z,537277,0.20147705,-1.0129395,0.15570068
1725721434199,2024-09-07T15:03:54.199Z,537316,0.18365479,-0.9827881,0.16571045
1725721434234,2024-09-07T15:03:54.234Z,537351,0.23266602,-0.91534424,0.18469238
1725721434276,2024-09-07T15:03:54.276Z,537393,0.16223145,-0.92840576,0.15930176
1725721434316,2024-09-07T15:03:54.316Z,537433,0.13421631,-0.93927,0.112854004
1725721434355,2024-09-07T15:03:54.355Z,537472,0.14526367,-0.98742676,0.14501953
1725721434393,2024-09-07T15:03:54.393Z,537510,0.14025879,-0.9046631,0.13305664
1725721434433,2024-09-07T15:03:54.433Z,537550,0.18133545,-0.9217529,0.15808105
1725721434485,2024-09-07T15:03:54.485Z,537602,0.14593506,-0.9418335,0.13189697
1725721434536,2024-09-07T15:03:54.536Z,537653,0.1696167,-0.9614258,0.15844727
1725721434573,2024-09-07T15:03:54.573Z,537690,0.20892334,-0.9658203,0.15539551
1725721434614,2024-09-07T15:03:54.614Z,537731,0.22460938,-0.90338135,0.14569092
1725721434654,2024-09-07T15:03:54.654Z,537771,0.24597168,-0.93170166,0.15081787
1725721434692,2024-09-07T15:03:54.692Z,537809,0.23718262,-0.9538574,0.18170166
1725721434731,2024-09-07T15:03:54.731Z,537848,0.20648193,-0.987854,0.14916992
1725721434767,2024-09-07T15:03:54.767Z,537884,0.26013184,-0.9503174,0.20367432
1725721434804,2024-09-07T15:03:54.804Z,537921,0.2267456,-0.8753052,0.14941406
1725721434847,2024-09-07T15:03:54.847Z,537964,0.2619629,-0.85546875,0.14056396
1725721434893,2024-09-07T15:03:54.893Z,538010,0.25982666,-0.86590576,0.12896729
1725721434933,2024-09-07T15:03:54.933Z,538050,0.2411499,-0.8870239,0.121154785
1725721434968,2024-09-07T15:03:54.968Z,538085,0.2578125,-0.9194946,0.13586426
1725721435011,2024-09-07T15:03:55.011Z,538128,0.27520752,-0.92559814,0.18969727
1725721435051,2024-09-07T15:03:55.051Z,538168,0.27178955,-0.86468506,0.24450684
1725721435087,2024-09-07T15:03:55.087Z,538204,0.3104248,-0.8303833,0.2775879
1725721435128,2024-09-07T15:03:55.128Z,538245,0.30566406,-0.7904053,0.30859375
1725721435167,2024-09-07T15:03:55.167Z,538284,0.29748535,-0.77319336,0.27160645
1725721435205,2024-09-07T15:03:55.205Z,538322,0.29815674,-0.8018799,0.22546387
1725721435243,2024-09-07T15:03:55.243Z,538360,0.36517334,-0.8554077,0.25604248
1725721435302,2024-09-07T15:03:55.302Z,538419,0.32617188,-0.7970581,0.21905518
1725721435336,2024-09-07T15:03:55.336Z,538453,0.29962158,-0.80493164,0.22070312
1725721435376,2024-09-07T15:03:55.376Z,538493,0.3413086,-0.8362427,0.23962402
1725721435415,2024-09-07T15:03:55.415Z,538532,0.36108398,-0.83532715,0.23651123
1725721435452,2024-09-07T15:03:55.452Z,538569,0.39294434,-0.8789673,0.24707031
1725721435489,2024-09-07T15:03:55.489Z,538606,0.39923096,-0.87945557,0.28326416
1725721435530,2024-09-07T15:03:55.530Z,538647,0.37786865,-0.8581543,0.28759766
1725721576739,2024-09-07T15:06:16.739Z,679856,0.17120361,0.9411621,0.2894287
1725721576790,2024-09-07T15:06:16.790Z,679907,0.16174316,0.9573364,0.27661133
1725721576838,2024-09-07T15:06:16.838Z,679955,0.16369629,0.9454956,0.27996826
1725721576885,2024-09-07T15:06:16.885Z,680002,0.15930176,0.9475708,0.28918457
1725721576930,2024-09-07T15:06:16.930Z,680047,0.15594482,0.954834,0.28607178
1725721576978,2024-09-07T15:06:16.978Z,680095,0.15301514,0.94818115,0.29003906
1725721577019,2024-09-07T15:06:17.019Z,680136,0.15759277,0.9446411,0.2909546
1725721577058,2024-09-07T15:06:17.058Z,680175,0.1505127,0.94714355,0.29211426
1725721577110,2024-09-07T15:06:17.110Z,680227,0.16235352,0.9638672,0.29089355
1725721577151,2024-09-07T15:06:17.151Z,680268,0.15637207,0.967041,0.30474854
1725721577194,2024-09-07T15:06:17.194Z,680311,0.1720581,0.9561157,0.29089355
1725721577237,2024-09-07T15:06:17.237Z,680354,0.16607666,0.9139404,0.26843262
1725721577298,2024-09-07T15:06:17.298Z,680415,0.16558838,0.90478516,0.24700928
1725721577340,2024-09-07T15:06:17.340Z,680457,0.17285156,0.9369507,0.27996826
1725721577383,2024-09-07T15:06:17.383Z,680500,0.17687988,0.9718628,0.2956543
1725721577425,2024-09-07T15:06:17.425Z,680542,0.18341064,0.9816284,0.28186035
1725721577470,2024-09-07T15:06:17.470Z,680587,0.16119385,0.9671631,0.2548828
1725721577509,2024-09-07T15:06:17.509Z,680626,0.13250732,0.96087646,0.22949219
1725721577555,2024-09-07T15:06:17.555Z,680672,0.12298584,0.9312744,0.28131104
1725721577599,2024-09-07T15:06:17.599Z,680716,0.12652588,0.9176636,0.2687378
1725721577643,2024-09-07T15:06:17.643Z,680760,0.15045166,0.9406738,0.24761963
1725721577698,2024-09-07T15:06:17.698Z,680815,0.17138672,0.96362305,0.22973633
1725721577738,2024-09-07T15:06:17.738Z,680855,0.1373291,0.9555664,0.25
1725721577782,2024-09-07T15:06:17.782Z,680899,0.15246582,0.96240234,0.24133301
1725721577825,2024-09-07T15:06:17.825Z,680942,0.1539917,0.9526367,0.2503662
1725721577869,2024-09-07T15:06:17.869Z,680986,0.1560669,0.95166016,0.24908447
1725721577911,2024-09-07T15:06:17.911Z,681028,0.13116455,0.95928955,0.20477295
1725721577955,2024-09-07T15:06:17.955Z,681072,0.14892578,0.94763184,0.19226074
1725721577994,2024-09-07T15:06:17.994Z,681111,0.11627197,0.95288086,0.17468262
1725721578034,2024-09-07T15:06:18.034Z,681151,0.10205078,0.9735718,0.17224121
1725721578077,2024-09-07T15:06:18.077Z,681194,0.10192871,0.97540283,0.14953613
1725721578137,2024-09-07T15:06:18.137Z,681254,0.09729004,0.96777344,0.17236328
1725721578186,2024-09-07T15:06:18.186Z,681303,0.13763428,0.9623413,0.15075684
1725721578232,2024-09-07T15:06:18.232Z,681349,0.08935547,0.9394531,0.14367676
1725721578278,2024-09-07T15:06:18.278Z,681395,0.066833496,0.9692383,0.10223389
1725721578321,2024-09-07T15:06:18.321Z,681438,0.070617676,0.9882202,0.08746338
1725721578361,2024-09-07T15:06:18.361Z,681478,0.10913086,0.9876709,0.08850098
1725721578404,2024-09-07T15:06:18.404Z,681521,0.07434082,0.9777832,0.09234619
1725721578449,2024-09-07T15:06:18.449Z,681566,0.093444824,0.9934082,0.05505371
1725721578494,2024-09-07T15:06:18.494Z,681611,0.081726074,1.0164185,0.04888916
1725721578546,2024-09-07T15:06:18.546Z,681663,0.038391113,1.013794,0.030944824
1725721578591,2024-09-07T15:06:18.591Z,681708,0.048583984,1.0247803,0.036010742
1725721578638,2024-09-07T15:06:18.638Z,681755,0.053222656,1.0412598,0.05218506
1725721578681,2024-09-07T15:06:18.681Z,681798,0.043640137,1.0267334,0.040771484
1725721578725,2024-09-07T15:06:18.725Z,681842,0.036621094,0.9961548,0.07165527
1725721578766,2024-09-07T15:06:18.766Z,681883,0.06866455,0.9951782,0.026855469
1725721578807,2024-09-07T15:06:18.807Z,681924,0.10412598,0.9578247,0.02758789
1725721578852,2024-09-07T15:06:18.852Z,681969,0.06976318,0.9556885,0.036315918
1725721578897,2024-09-07T15:06:18.897Z,682014,0.018859863,0.99902344,-0.05871582
1725721578949,2024-09-07T15:06:18.949Z,682066,0.08001709,1.0310059,-0.023132324
1725721578995,2024-09-07T15:06:18.995Z,682112,0.047668457,1.0316772,0.004211426
1725721579040,2024-09-07T15:06:19.040Z,682157,0.060302734,1.0214844,-0.040100098
1725721579084,2024-09-07T15:06:19.084Z,682201,0.052856445,0.9949951,0.022583008
1725721579128,2024-09-07T15:06:19.128Z,682245,0.06768799,1.0055542,-0.008850098
1725721579169,2024-09-07T15:06:19.169Z,682286,0.0625,1.029602,-0.02154541
1725721579212,2024-09-07T15:06:19.212Z,682329,0.10614014,1.0411987,0.066467285
1725721579254,2024-09-07T15:06:19.254Z,682371,0.072387695,0.9977417,-0.0048217773
1725721579296,2024-09-07T15:06:19.296Z,682413,0.0871582,0.928833,-0.01171875
1725721579349,2024-09-07T15:06:19.349Z,682466,0.12609863,0.97979736,-0.07080078
1725721579389,2024-09-07T15:06:19.389Z,682506,0.11230469,1.0258179,0.014099121
1725721579438,2024-09-07T15:06:19.438Z,682555,0.06707764,1.0304565,-0.11853027
1725721579477,2024-09-07T15:06:19.477Z,682594,0.08093262,0.93395996,-0.0501709
1725721579521,2024-09-07T15:06:19.521Z,682638,0.0690918,1.0737915,-0.030944824
1725721579562,2024-09-07T15:06:19.562Z,682679,0.028686523,1.0678711,-0.058654785
1725721579608,2024-09-07T15:06:19.608Z,682725,0.08642578,1.03125,-0.06738281
1725721579651,2024-09-07T15:06:19.651Z,682768,0.033813477,1.0117798,-0.002319336
1725721579694,2024-09-07T15:06:19.694Z,682811,0.04473877,1.0055542,-0.09863281
1725721579739,2024-09-07T15:06:19.739Z,682856,0.025634766,0.97332764,-0.057006836
1725721579792,2024-09-07T15:06:19.792Z,682909,0.042541504,1.0020752,-0.03765869
1725721579840,2024-09-07T15:06:19.840Z,682957,-6.1035156E-4,1.0651855,-3.0517578E-4
1725721579889,2024-09-07T15:06:19.889Z,683006,0.039794922,0.9854126,0.0335083
1725721579933,2024-09-07T15:06:19.933Z,683050,0.08074951,0.96850586,-0.047851562
1725721579974,2024-09-07T15:06:19.974Z,683091,0.005126953,1.0360718,-0.032470703
1725721580015,2024-09-07T15:06:20.015Z,683132,0.028564453,1.0217896,-0.12145996
1725721580060,2024-09-07T15:06:20.060Z,683177,0.042663574,0.99823,-0.118896484
1725721580099,2024-09-07T15:06:20.099Z,683216,0.03253174,1.0784912,-0.06555176
1725721580145,2024-09-07T15:06:20.145Z,683262,0.017028809,1.0629883,-0.021911621
1725721580192,2024-09-07T15:06:20.192Z,683309,0.059326172,1.0063477,-0.07678223
1725721580238,2024-09-07T15:06:20.238Z,683355,0.06719971,0.9973755,-0.010559082
1725721580281,2024-09-07T15:06:20.281Z,683398,0.041381836,0.9989624,0.05633545
1725721580323,2024-09-07T15:06:20.323Z,683440,0.055419922,1.0159302,-0.012512207
1725721580372,2024-09-07T15:06:20.372Z,683489,0.06286621,1.0307007,-0.028808594
1725721580418,2024-09-07T15:06:20.418Z,683535,0.021911621,1.0501709,-0.047546387
1725721580464,2024-09-07T15:06:20.464Z,683581,0.057861328,1.0405273,-0.036071777
1725721580507,2024-09-07T15:06:20.507Z,683624,0.048217773,1.0424805,-0.037963867
1725721580550,2024-09-07T15:06:20.550Z,683667,0.0028076172,1.0528564,-0.0579834
1725721580598,2024-09-07T15:06:20.598Z,683715,0.036865234,1.0657349,-0.05316162
1725721580649,2024-09-07T15:06:20.649Z,683766,0.031677246,1.0626831,0.0071411133
1725721580699,2024-09-07T15:06:20.699Z,683816,0.03729248,1.0620117,0.05291748
1725721580745,2024-09-07T15:06:20.745Z,683862,0.031799316,1.0405884,0.044921875
1725721580791,2024-09-07T15:06:20.791Z,683908,0.042419434,1.0463867,7.9345703E-4
1725721580831,2024-09-07T15:06:20.831Z,683948,0.03363037,1.0426025,0.009155273
1725721580877,2024-09-07T15:06:20.877Z,683994,0.032104492,1.0352173,0.032592773
1725721580921,2024-09-07T15:06:20.921Z,684038,0.024414062,1.0339355,0.025939941
1725721580967,2024-09-07T15:06:20.967Z,684084,0.043151855,1.0532837,-0.016479492
1725721581026,2024-09-07T15:06:21.026Z,684143,0.045654297,1.0481567,-0.04815674
1725721581070,2024-09-07T15:06:21.070Z,684187,0.030517578,1.0285034,0.0021362305
1725721581113,2024-09-07T15:06:21.113Z,684230,0.008361816,1.0218506,0.0014648438
1725721581159,2024-09-07T15:06:21.159Z,684276,0.03277588,1.0268555,0.03100586
1725721581203,2024-09-07T15:06:21.203Z,684320,0.048034668,1.0276489,0.03753662
1725721581247,2024-09-07T15:06:21.247Z,684364,-0.005126953,1.0426025,0.0068359375
1725721581293,2024-09-07T15:06:21.293Z,684410,0.01763916,1.0421753,-0.032714844
1725721581338,2024-09-07T15:06:21.338Z,684455,0.04498291,1.0206299,-0.07873535
1725721581382,2024-09-07T15:06:21.382Z,684499,0.035705566,0.9805298,0.059814453
1725721581424,2024-09-07T15:06:21.424Z,684541,0.04675293,1.0161743,-0.028076172
1725721581483,2024-09-07T15:06:21.483Z,684600,0.04498291,1.0157471,-0.07318115
1725721581527,2024-09-07T15:06:21.527Z,684644,0.041625977,1.0049438,-0.02960205
1725721581571,2024-09-07T15:06:21.571Z,684688,0.055725098,0.99957275,0.015136719
1725721581610,2024-09-07T15:06:21.610Z,684727,0.015197754,1.0130005,0.036621094
1725721581653,2024-09-07T15:06:21.653Z,684770,0.0345459,1.0093384,0.06097412
1725721581697,2024-09-07T15:06:21.697Z,684814,0.03552246,1.0075073,0.10223389
1725721581738,2024-09-07T15:06:21.738Z,684855,0.05517578,1.0518799,0.06585693
1725721581784,2024-09-07T15:06:21.784Z,684901,0.046020508,1.0333252,0.031799316
1725721581828,2024-09-07T15:06:21.828Z,684945,0.052124023,1.0060425,-0.008056641
1725721581888,2024-09-07T15:06:21.888Z,685005,0.057373047,1.0015259,0.031188965
1725721581931,2024-09-07T15:06:21.931Z,685048,0.06390381,0.9867554,0.070007324
1725721581977,2024-09-07T15:06:21.977Z,685094,0.07495117,0.9827881,0.022521973
1725721582016,2024-09-07T15:06:22.016Z,685133,0.016235352,0.9546509,0.058898926
1725721582063,2024-09-07T15:06:22.063Z,685180,0.06958008,0.99938965,0.05883789
1725721582103,2024-09-07T15:06:22.103Z,685220,0.05114746,0.9991455,0.09313965
1725721582147,2024-09-07T15:06:22.147Z,685264,0.05505371,1.0205078,0.021972656
1725721582190,2024-09-07T15:06:22.190Z,685307,0.040039062,0.99346924,0.060302734
1725721582232,2024-09-07T15:06:22.232Z,685349,0.07891846,0.99694824,0.09893799
1725721582281,2024-09-07T15:06:22.281Z,685398,0.07501221,1.0026245,0.08782959
1725721582335,2024-09-07T15:06:22.335Z,685452,0.06890869,0.99871826,0.052734375
1725721582379,2024-09-07T15:06:22.379Z,685496,0.06762695,0.98779297,0.07043457
1725721582427,2024-09-07T15:06:22.427Z,685544,0.08117676,0.9664917,0.09411621
1725721582474,2024-09-07T15:06:22.474Z,685591,0.07019043,0.972229,0.13793945
1725721582516,2024-09-07T15:06:22.516Z,685633,0.06738281,0.9949951,0.19970703
1725721582557,2024-09-07T15:06:22.557Z,685674,0.07562256,1.0029297,0.17578125
1725721582604,2024-09-07T15:06:22.604Z,685721,0.033996582,0.9867554,0.11981201
1725721582653,2024-09-07T15:06:22.653Z,685770,0.09906006,0.9750366,0.13653564
1725721582703,2024-09-07T15:06:22.703Z,685820,0.08709717,0.9483032,0.16796875
1725721582745,2024-09-07T15:06:22.745Z,685862,0.089538574,0.9700928,0.14227295
1725721582789,2024-09-07T15:06:22.789Z,685906,0.1161499,0.9505005,0.17559814
1725721582831,2024-09-07T15:06:22.831Z,685948,0.113098145,0.97717285,0.19055176
1725721582871,2024-09-07T15:06:22.871Z,685988,0.08947754,0.97875977,0.18328857
1725721582916,2024-09-07T15:06:22.916Z,686033,0.1350708,0.95526123,0.19299316
1725721582963,2024-09-07T15:06:22.963Z,686080,0.13684082,0.93011475,0.18170166
1725721583011,2024-09-07T15:06:23.011Z,686128,0.11956787,0.9222412,0.1784668
1725721583052,2024-09-07T15:06:23.052Z,686169,0.12963867,0.9188843,0.21289062
1725721583096,2024-09-07T15:06:23.096Z,686213,0.114868164,0.9507446,0.20373535
1725721583153,2024-09-07T15:06:23.153Z,686270,0.07928467,0.97662354,0.18267822
1725721583197,2024-09-07T15:06:23.197Z,686314,0.09564209,0.97088623,0.22912598
1725721583244,2024-09-07T15:06:23.244Z,686361,0.10308838,0.9661255,0.23547363
1725721583287,2024-09-07T15:06:23.287Z,686404,0.107788086,0.98187256,0.20507812
1725721583331,2024-09-07T15:06:23.331Z,686448,0.109436035,0.9633179,0.19421387
1725721583377,2024-09-07T15:06:23.377Z,686494,0.12963867,0.9486084,0.20172119
1725721583418,2024-09-07T15:06:23.418Z,686535,0.13867188,0.96520996,0.2006836
1725721583463,2024-09-07T15:06:23.463Z,686580,0.13244629,0.9863281,0.2144165
1725721583510,2024-09-07T15:06:23.510Z,686627,0.12322998,0.99194336,0.22143555
1725721583566,2024-09-07T15:06:23.566Z,686683,0.119506836,0.9885254,0.20495605
1725721583614,2024-09-07T15:06:23.614Z,686731,0.12017822,0.987854,0.20996094
1725721583652,2024-09-07T15:06:23.652Z,686769,0.10491943,0.9840088,0.20489502
1725721583697,2024-09-07T15:06:23.697Z,686814,0.09259033,0.97698975,0.20788574
1725721583742,2024-09-07T15:06:23.742Z,686859,0.107299805,0.98516846,0.21936035
1725721583784,2024-09-07T15:06:23.784Z,686901,0.09881592,0.99591064,0.23883057
1725721583828,2024-09-07T15:06:23.828Z,686945,0.09643555,0.99053955,0.21173096
1725721583874,2024-09-07T15:06:23.874Z,686991,0.097717285,0.9673462,0.20666504
1725721583919,2024-09-07T15:06:23.919Z,687036,0.103027344,0.9573364,0.20562744
1725721583969,2024-09-07T15:06:23.969Z,687086,0.10443115,0.9645386,0.21496582
1725721584033,2024-09-07T15:06:24.033Z,687150,0.10119629,0.97039795,0.21374512
1725721584072,2024-09-07T15:06:24.072Z,687189,0.09906006,0.9760132,0.21252441
1725721584117,2024-09-07T15:06:24.117Z,687234,0.10180664,0.9602051,0.18658447
1725721584161,2024-09-07T15:06:24.161Z,687278,0.08508301,0.9523926,0.1619873
1725721584206,2024-09-07T15:06:24.206Z,687323,0.072631836,0.94750977,0.1663208
1725721584248,2024-09-07T15:06:24.248Z,687365,0.09820557,0.9656372,0.17541504
1725721584293,2024-09-07T15:06:24.293Z,687410,0.10974121,1.0031738,0.18597412
1725721584336,2024-09-07T15:06:24.336Z,687453,0.0869751,0.99993896,0.18078613
1725721584378,2024-09-07T15:06:24.378Z,687495,0.08959961,0.9924927,0.15148926
1725721584433,2024-09-07T15:06:24.433Z,687550,0.066711426,0.9595947,0.16668701
1725721584474,2024-09-07T15:06:24.474Z,687591,0.08312988,0.95080566,0.1739502
1725721584518,2024-09-07T15:06:24.518Z,687635,0.10925293,0.9852905,0.16253662
1725721584565,2024-09-07T15:06:24.565Z,687682,0.06414795,0.9901123,0.1463623
1725721584605,2024-09-07T15:06:24.605Z,687722,0.05041504,0.98895264,0.09118652
1725721584650,2024-09-07T15:06:24.650Z,687767,0.048583984,0.9750366,0.07531738
1725721584697,2024-09-07T15:06:24.697Z,687814,0.07531738,0.97406006,0.11871338
1725721584738,2024-09-07T15:06:24.738Z,687855,0.062072754,1.005188,0.10614014
1725721584788,2024-09-07T15:06:24.788Z,687905,0.056274414,1.003418,0.09869385
1725721584834,2024-09-07T15:06:24.834Z,687951,0.0637207,0.98553467,0.07897949
1725721584887,2024-09-07T15:06:24.887Z,688004,0.059570312,0.96899414,0.0725708
1725721584929,2024-09-07T15:06:24.929Z,688046,0.07110596,0.9732666,0.039978027
1725721584972,2024-09-07T15:06:24.972Z,688089,0.02142334,0.9523926,0.061035156
1725721585019,2024-09-07T15:06:25.019Z,688136,0.041870117,0.9783325,-0.008300781
1725721585059,2024-09-07T15:06:25.059Z,688176,0.059631348,1.0119019,0.020751953
1725721585102,2024-09-07T15:06:25.102Z,688219,0.033203125,1.0126343,0.06707764
1725721585146,2024-09-07T15:06:25.146Z,688263,0.049865723,1.0128174,0.012512207
1725721585186,2024-09-07T15:06:25.186Z,688303,0.04260254,0.993103,0.0076904297
1725721585240,2024-09-07T15:06:25.240Z,688357,0.058898926,0.9779663,0.022644043
1725721585283,2024-09-07T15:06:25.283Z,688400,0.030334473,0.9935303,0.027526855
1725721585326,2024-09-07T15:06:25.326Z,688443,0.04095459,1.0324707,-0.028442383
1725721585368,2024-09-07T15:06:25.368Z,688485,0.01928711,1.0385132,-0.01739502
1725721585414,2024-09-07T15:06:25.414Z,688531,0.043945312,1.0274048,-0.022033691
1725721585454,2024-09-07T15:06:25.454Z,688571,0.047729492,1.0012817,-0.054870605
1725721585499,2024-09-07T15:06:25.499Z,688616,0.042297363,0.97442627,-0.032226562
1725721585537,2024-09-07T15:06:25.537Z,688654,0.048706055,0.9899292,-0.03967285
1725721585584,2024-09-07T15:06:25.584Z,688701,0.012634277,1.0159912,-0.019104004
1725721585628,2024-09-07T15:06:25.628Z,688745,0.017578125,1.081604,-0.008117676
1725721585685,2024-09-07T15:06:25.685Z,688802,0.049804688,1.043335,0.030944824
1725721585731,2024-09-07T15:06:25.731Z,688848,0.028015137,0.9902954,0.018981934
1725721585769,2024-09-07T15:06:25.769Z,688886,0.053344727,0.96777344,-0.026489258
1725721585811,2024-09-07T15:06:25.811Z,688928,0.04107666,0.96520996,0.0052490234
1725721585857,2024-09-07T15:06:25.857Z,688974,0.049438477,1.0055542,-0.017700195
1725721585902,2024-09-07T15:06:25.902Z,689019,-9.765625E-4,1.0126343,-0.004211426
1725721585941,2024-09-07T15:06:25.941Z,689058,0.024230957,1.0247803,-0.08691406
1725721585987,2024-09-07T15:06:25.987Z,689104,-0.032470703,0.97424316,-0.081604004
1725721586026,2024-09-07T15:06:26.026Z,689143,0.005432129,1.0194702,-0.114990234
1725721586082,2024-09-07T15:06:26.082Z,689199,0.015380859,1.0161743,-0.07824707
1725721586127,2024-09-07T15:06:26.127Z,689244,0.0072021484,1.0200195,-0.05847168
1725721586174,2024-09-07T15:06:26.174Z,689291,-5.493164E-4,1.0475464,-0.12072754
1725721586222,2024-09-07T15:06:26.222Z,689339,0.02923584,1.0639648,-0.040771484
1725721586266,2024-09-07T15:06:26.266Z,689383,0.040283203,1.0446777,-0.070129395
1725721586310,2024-09-07T15:06:26.310Z,689427,0.049987793,1.0429077,-0.028259277
1725721586352,2024-09-07T15:06:26.352Z,689469,0.014831543,1.0661621,-0.022949219
1725721586396,2024-09-07T15:06:26.396Z,689513,0.029052734,1.0236206,-0.07299805
1725721586442,2024-09-07T15:06:26.442Z,689559,0.017333984,1.0196533,-0.08178711
1725721586486,2024-09-07T15:06:26.486Z,689603,-0.005432129,1.0361328,-0.08477783
1725721586540,2024-09-07T15:06:26.540Z,689657,0.014709473,1.0515137,-0.06726074
1725721586588,2024-09-07T15:06:26.588Z,689705,0.00579834,1.0466919,-0.057556152
1725721586627,2024-09-07T15:06:26.627Z,689744,0.0026855469,1.019043,-0.071899414
1725721586672,2024-09-07T15:06:26.672Z,689789,0.011047363,1.0396118,-0.05718994
1725721586713,2024-09-07T15:06:26.713Z,689830,0.007080078,1.0574341,-0.029846191
1725721586755,2024-09-07T15:06:26.755Z,689872,0.017089844,1.064331,-0.057128906
1725721586798,2024-09-07T15:06:26.798Z,689915,0.034118652,1.0591431,-0.055419922
1725721586841,2024-09-07T15:06:26.841Z,689958,0.028198242,1.0596924,-0.056152344
1725721586891,2024-09-07T15:06:26.891Z,690008,0.008605957,1.0354004,-0.028198242
1725721586939,2024-09-07T15:06:26.939Z,690056,0.022338867,1.0318604,-0.04058838
1725721586982,2024-09-07T15:06:26.982Z,690099,0.0368042,1.046875,-0.041381836
1725721587023,2024-09-07T15:06:27.023Z,690140,0.0041503906,1.0460815,-0.063964844
1725721587073,2024-09-07T15:06:27.073Z,690190,0.012939453,1.0498657,-0.038879395
1725721587117,2024-09-07T15:06:27.117Z,690234,0.0048828125,1.041687,-0.013366699
1725721587159,2024-09-07T15:06:27.159Z,690276,-0.0053710938,1.0339966,-0.021057129
1725721587202,2024-09-07T15:06:27.202Z,690319,0.011657715,1.0256958,-0.0154418945
1725721587245,2024-09-07T15:06:27.245Z,690362,0.0026855469,1.0480347,-0.053527832
1725721587288,2024-09-07T15:06:27.288Z,690405,0.023498535,1.045044,-0.07446289
1725721587345,2024-09-07T15:06:27.345Z,690462,0.039733887,1.0043335,-0.0072631836
1725721587395,2024-09-07T15:06:27.395Z,690512,0.024047852,1.0418091,-0.043640137
1725721587438,2024-09-07T15:06:27.438Z,690555,0.008605957,1.0359497,-0.11633301
1725721587484,2024-09-07T15:06:27.484Z,690601,-0.0015869141,1.0015259,-0.09106445
1725721587525,2024-09-07T15:06:27.525Z,690642,0.025024414,1.0142212,-0.05596924
1725721587570,2024-09-07T15:06:27.570Z,690687,0.0045166016,1.0221558,-0.03918457
1725721587614,2024-09-07T15:06:27.614Z,690731,0.01361084,1.0264893,-0.020935059
1725721587660,2024-09-07T15:06:27.660Z,690777,0.008483887,1.0300903,-0.022094727
1725721587706,2024-09-07T15:06:27.706Z,690823,0.023132324,1.020874,-0.032043457
1725721587759,2024-09-07T15:06:27.759Z,690876,-0.010925293,1.012146,-0.026245117
1725721587803,2024-09-07T15:06:27.803Z,690920,0.010864258,0.99560547,-0.01776123
1725721587841,2024-09-07T15:06:27.841Z,690958,0.04473877,0.97473145,0.022888184
1725721587891,2024-09-07T15:06:27.891Z,691008,0.03857422,1.0012817,0.00592041
1725721587930,2024-09-07T15:06:27.930Z,691047,0.036071777,1.0143433,0.0056762695
1725721587972,2024-09-07T15:06:27.972Z,691089,0.033081055,1.0123291,0.0026245117
1725721588011,2024-09-07T15:06:28.011Z,691128,0.01763916,1.0010986,0.020568848
1725721588060,2024-09-07T15:06:28.060Z,691177,0.03967285,1.008667,0.036743164
1725721588105,2024-09-07T15:06:28.105Z,691222,0.0256958,1.0080566,0.020874023
1725721588155,2024-09-07T15:06:28.155Z,691272,0.038024902,0.99053955,0.009155273
1725721588206,2024-09-07T15:06:28.206Z,691323,0.0335083,0.97650146,0.003540039
1725721588251,2024-09-07T15:06:28.251Z,691368,0.030944824,0.9780884,0.030334473
1725721588290,2024-09-07T15:06:28.290Z,691407,0.019226074,0.98376465,0.05267334
1725721588337,2024-09-07T15:06:28.337Z,691454,0.023010254,0.9885254,0.07043457
1725721588376,2024-09-07T15:06:28.376Z,691493,0.039978027,0.98443604,0.08929443
1725721588424,2024-09-07T15:06:28.424Z,691541,0.0134887695,0.9962158,0.09301758
1725721588467,2024-09-07T15:06:28.467Z,691584,0.06982422,1.0234985,0.09240723
1725721588508,2024-09-07T15:06:28.508Z,691625,0.041381836,1.0129395,0.0982666
1725721588560,2024-09-07T15:06:28.560Z,691677,0.029907227,0.9836426,0.0859375
1725721588610,2024-09-07T15:06:28.610Z,691727,0.05883789,0.9815674,0.11230469
1725721588653,2024-09-07T15:06:28.653Z,691770,0.06555176,0.9935303,0.13256836
1725721588697,2024-09-07T15:06:28.697Z,691814,0.07092285,0.9932251,0.12182617
1725721588740,2024-09-07T15:06:28.740Z,691857,0.09686279,0.98553467,0.1484375
1725721588788,2024-09-07T15:06:28.788Z,691905,0.083984375,0.9816284,0.1864624
1725721588831,2024-09-07T15:06:28.831Z,691948,0.037841797,0.97991943,0.16815186
1725721588877,2024-09-07T15:06:28.877Z,691994,0.0579834,0.98101807,0.13189697
1725721588920,2024-09-07T15:06:28.920Z,692037,0.051635742,0.95770264,0.12902832
1725721588967,2024-09-07T15:06:28.967Z,692084,0.07849121,0.95996094,0.16204834
1725721589015,2024-09-07T15:06:29.015Z,692132,0.07531738,0.9655762,0.18707275
1725721589062,2024-09-07T15:06:29.062Z,692179,0.09655762,0.9627075,0.21002197
1725721589108,2024-09-07T15:06:29.108Z,692225,0.0836792,0.94348145,0.20922852
1725721589151,2024-09-07T15:06:29.151Z,692268,0.09564209,0.9713135,0.19610596
1725721589197,2024-09-07T15:06:29.197Z,692314,0.1105957,0.95770264,0.22631836
1725721589241,2024-09-07T15:06:29.241Z,692358,0.09039307,0.9656372,0.18310547
1725721589280,2024-09-07T15:06:29.280Z,692397,0.088134766,0.94696045,0.1940918
1725721589324,2024-09-07T15:06:29.324Z,692441,0.091674805,0.9415283,0.222229
1725721589367,2024-09-07T15:06:29.367Z,692484,0.08428955,0.94958496,0.21020508
1725721589419,2024-09-07T15:06:29.419Z,692536,0.089660645,0.9534912,0.21508789
1725721589460,2024-09-07T15:06:29.460Z,692577,0.105407715,0.991333,0.20135498
1725721589502,2024-09-07T15:06:29.502Z,692619,0.08874512,1.0183105,0.20605469
1725721589549,2024-09-07T15:06:29.549Z,692666,0.09075928,1.0147705,0.2043457
1725721589595,2024-09-07T15:06:29.595Z,692712,0.103637695,0.9937744,0.22589111
1725721589638,2024-09-07T15:06:29.638Z,692755,0.09313965,0.9782715,0.19927979
1725721589680,2024-09-07T15:06:29.680Z,692797,0.08984375,0.9651489,0.19763184
1725721589725,2024-09-07T15:06:29.725Z,692842,0.09185791,0.9713745,0.19921875
1725721589770,2024-09-07T15:06:29.770Z,692887,0.099121094,0.9779053,0.20904541
1725721589812,2024-09-07T15:06:29.812Z,692929,0.08831787,0.9901123,0.2121582
1725721589871,2024-09-07T15:06:29.871Z,692988,0.08782959,0.989624,0.20471191
1725721589917,2024-09-07T15:06:29.917Z,693034,0.10559082,0.9812622,0.20275879
1725721589961,2024-09-07T15:06:29.961Z,693078,0.1015625,0.9651489,0.203125
1725721590005,2024-09-07T15:06:30.005Z,693122,0.1003418,0.9536133,0.20532227
1725721590051,2024-09-07T15:06:30.051Z,693168,0.09301758,0.967041,0.19732666
1725721590092,2024-09-07T15:06:30.092Z,693209,0.08630371,0.9847412,0.2140503
1725721590134,2024-09-07T15:06:30.134Z,693251,0.09246826,0.9888916,0.21575928
1725721590180,2024-09-07T15:06:30.180Z,693297,0.08642578,0.97753906,0.20684814
1725721590227,2024-09-07T15:06:30.227Z,693344,0.08782959,0.9840698,0.19116211
1725721590276,2024-09-07T15:06:30.276Z,693393,0.075927734,0.9918213,0.19537354
1725721590323,2024-09-07T15:06:30.323Z,693440,0.066711426,0.97772217,0.1671753
1725721590370,2024-09-07T15:06:30.370Z,693487,0.0602417,0.961853,0.14929199
1725721590413,2024-09-07T15:06:30.413Z,693530,0.07409668,0.9505005,0.1697998
1725721590460,2024-09-07T15:06:30.460Z,693577,0.10449219,0.9711304,0.19451904
1725721590501,2024-09-07T15:06:30.501Z,693618,0.068725586,0.9761963,0.21478271
1725721590543,2024-09-07T15:06:30.543Z,693660,0.09423828,0.984375,0.21148682
1725721590582,2024-09-07T15:06:30.582Z,693699,0.09039307,0.998291,0.15899658
1725721590629,2024-09-07T15:06:30.629Z,693746,0.078063965,0.99627686,0.16253662
1725721590671,2024-09-07T15:06:30.671Z,693788,0.06402588,1.010315,0.12554932
1725721590733,2024-09-07T15:06:30.733Z,693850,0.052246094,0.98950195,0.101867676
1725721590777,2024-09-07T15:06:30.777Z,693894,0.03289795,0.96795654,0.11053467
1725721590820,2024-09-07T15:06:30.820Z,693937,0.06298828,0.97052,0.13574219
1725721590863,2024-09-07T15:06:30.863Z,693980,0.05090332,0.9723511,0.13214111
1725721590904,2024-09-07T15:06:30.904Z,694021,0.062194824,0.9572754,0.1459961
1725721590950,2024-09-07T15:06:30.950Z,694067,0.05206299,0.9650879,0.10913086
1725721590990,2024-09-07T15:06:30.990Z,694107,0.032165527,1.0045776,0.07366943
1725721591039,2024-09-07T15:06:31.039Z,694156,0.051940918,0.9935303,0.08679199
1725721591081,2024-09-07T15:06:31.081Z,694198,0.04748535,0.9814453,0.056640625
1725721591134,2024-09-07T15:06:31.134Z,694251,0.06677246,0.9871216,0.028198242
1725721591177,2024-09-07T15:06:31.177Z,694294,0.037231445,1.0002441,0.07183838
1725721591221,2024-09-07T15:06:31.221Z,694338,0.029724121,1.0253906,0.06970215
1725721591268,2024-09-07T15:06:31.268Z,694385,0.057800293,1.0154419,0.020629883
1725721591313,2024-09-07T15:06:31.313Z,694430,0.03137207,0.9852905,0.026611328
1725721591352,2024-09-07T15:06:31.352Z,694469,0.08129883,1.00177,0.023925781
1725721591395,2024-09-07T15:06:31.395Z,694512,0.052124023,0.9850464,0.012939453
1725721591436,2024-09-07T15:06:31.436Z,694553,0.030151367,0.97088623,8.544922E-4
1725721591476,2024-09-07T15:06:31.476Z,694593,0.06414795,1.0078735,-0.032409668
1725721591528,2024-09-07T15:06:31.528Z,694645,0.029174805,1.0026245,0.020568848
1725721591578,2024-09-07T15:06:31.578Z,694695,0.053833008,1.0293579,-0.06048584
1725721591619,2024-09-07T15:06:31.619Z,694736,0.026611328,1.0249634,-0.0040283203
1725721591670,2024-09-07T15:06:31.670Z,694787,0.060180664,1.0443726,-0.030395508
1725721591717,2024-09-07T15:06:31.717Z,694834,0.034484863,1.050293,-0.03479004
1725721591761,2024-09-07T15:06:31.761Z,694878,0.056030273,1.0325928,-0.038330078
1725721591804,2024-09-07T15:06:31.804Z,694921,0.09680176,0.98187256,-0.07348633
1725721591848,2024-09-07T15:06:31.848Z,694965,0.023376465,0.9310303,0.011657715
1725721591894,2024-09-07T15:06:31.894Z,695011,0.06500244,0.98638916,-0.10797119
1725721591946,2024-09-07T15:06:31.946Z,695063,0.033325195,0.9951172,-0.018493652
1725721591987,2024-09-07T15:06:31.987Z,695104,0.07745361,1.0151367,-0.049682617
1725721592027,2024-09-07T15:06:32.027Z,695144,0.019592285,0.98480225,-0.04876709
1725721592077,2024-09-07T15:06:32.077Z,695194,0.0038452148,0.9765625,-0.022338867
1725721592126,2024-09-07T15:06:32.126Z,695243,0.02758789,1.0020142,-0.08074951
1725721592170,2024-09-07T15:06:32.170Z,695287,0.013000488,1.0375366,-0.055908203
1725721592227,2024-09-07T15:06:32.227Z,695344,0.010253906,0.99627686,-0.09411621
1725721592276,2024-09-07T15:06:32.276Z,695393,0.0022583008,0.9869995,-0.13348389
1725721592413,2024-09-07T15:06:32.413Z,695530,-0.0289917,1.0288696,-0.082092285
1725721592504,2024-09-07T15:06:32.504Z,695621,0.036987305,1.0697632,-0.084228516
1725721592569,2024-09-07T15:06:32.569Z,695686,-0.006652832,1.0438843,-0.10888672
1725721592614,2024-09-07T15:06:32.614Z,695731,0.0033569336,1.0461426,-0.1328125
1725721592658,2024-09-07T15:06:32.658Z,695775,-0.009765625,1.0508423,-0.15802002
1725721592700,2024-09-07T15:06:32.700Z,695817,-0.06311035,1.0216064,-0.1003418
1725721592747,2024-09-07T15:06:32.747Z,695864,0.027404785,1.0310059,-0.08959961
1725721592785,2024-09-07T15:06:32.785Z,695902,-0.027832031,0.9961548,-0.07824707
1725721592826,2024-09-07T15:06:32.826Z,695943,-0.007507324,1.0315552,-0.1251831
1725721592870,2024-09-07T15:06:32.870Z,695987,-0.02130127,1.0169067,-0.13214111
1725721592912,2024-09-07T15:06:32.912Z,696029,-0.008728027,1.0436401,-0.1204834
1725721592963,2024-09-07T15:06:32.963Z,696080,-0.010375977,1.0597534,-0.13653564
1725721593011,2024-09-07T15:06:33.011Z,696128,0.016540527,1.046875,-0.13220215
1725721593057,2024-09-07T15:06:33.057Z,696174,0.0030517578,1.0550537,-0.10449219
1725721593101,2024-09-07T15:06:33.101Z,696218,-0.015136719,1.0905762,-0.094177246
1725721593140,2024-09-07T15:06:33.140Z,696257,-7.9345703E-4,1.0551758,-0.11425781
1725721593190,2024-09-07T15:06:33.190Z,696307,0.013916016,1.0342407,-0.09716797
1725721593229,2024-09-07T15:06:33.229Z,696346,-0.026123047,1.0112915,-0.07989502
1725721593279,2024-09-07T15:06:33.279Z,696396,-0.015686035,0.9971924,-0.1027832
1725721593321,2024-09-07T15:06:33.321Z,696438,-0.03363037,1.00354,-0.08856201
1725721593368,2024-09-07T15:06:33.368Z,696485,-0.051635742,0.9970093,-0.083862305
1725721593424,2024-09-07T15:06:33.424Z,696541,-0.012145996,1.0046387,-0.10369873
1725721593469,2024-09-07T15:06:33.469Z,696586,-0.034851074,1.0228882,-0.10284424
1725721593511,2024-09-07T15:06:33.511Z,696628,-0.06359863,1.0423584,-0.09460449
1725721593554,2024-09-07T15:06:33.554Z,696671,-0.010131836,1.0541382,-0.052978516
1725721593598,2024-09-07T15:06:33.598Z,696715,-0.036010742,1.0569458,-0.023376465
1725721593645,2024-09-07T15:06:33.645Z,696762,-0.019226074,1.046814,-0.04046631
1725721593687,2024-09-07T15:06:33.687Z,696804,-0.025512695,1.05896,-0.08258057
1725721593727,2024-09-07T15:06:33.727Z,696844,-0.01928711,1.0597534,-0.062316895
1725721593769,2024-09-07T15:06:33.769Z,696886,-0.020080566,1.0323486,-0.030578613
1725721593819,2024-09-07T15:06:33.819Z,696936,-0.026367188,1.0213013,-0.03161621
1725721593862,2024-09-07T15:06:33.862Z,696979,0.0044555664,1.0301514,-0.050109863
1725721593906,2024-09-07T15:06:33.906Z,697023,-0.0040893555,1.0268555,-0.059753418
1725721593946,2024-09-07T15:06:33.946Z,697063,-0.035583496,1.0067749,-0.016418457
1725721593989,2024-09-07T15:06:33.989Z,697106,-0.01361084,1.0394287,-0.05407715
1725721594034,2024-09-07T15:06:34.034Z,697151,-0.024230957,1.043457,-0.10424805
1725721594074,2024-09-07T15:06:34.074Z,697191,0.005432129,1.0186768,-0.12371826
1725721594120,2024-09-07T15:06:34.120Z,697237,0.0010375977,0.9911499,-0.019104004
1725721594164,2024-09-07T15:06:34.164Z,697281,0.0028686523,1.0067139,-0.027709961
1725721594210,2024-09-07T15:06:34.210Z,697327,0.012451172,1.008667,-0.08618164
1725721594273,2024-09-07T15:06:34.273Z,697390,-0.0048217773,1.005188,-0.019226074
1725721594317,2024-09-07T15:06:34.317Z,697434,-0.009521484,1.0418701,0.00793457
1725721594356,2024-09-07T15:06:34.356Z,697473,0.014770508,1.0300903,-0.0051879883
1725721594400,2024-09-07T15:06:34.400Z,697517,0.006713867,1.015686,-0.03918457
1725721594446,2024-09-07T15:06:34.446Z,697563,0.010986328,0.99694824,9.1552734E-4
1725721594487,2024-09-07T15:06:34.487Z,697604,0.008911133,0.9949341,0.05609131
1725721594535,2024-09-07T15:06:34.535Z,697652,0.019470215,1.0269775,-0.0014648438
1725721594574,2024-09-07T15:06:34.574Z,697691,0.0029907227,1.0233765,-0.024291992
1725721594624,2024-09-07T15:06:34.624Z,697741,0.008544922,1.0266724,0.014221191
1725721594663,2024-09-07T15:06:34.663Z,697780,0.04711914,1.0162354,0.067993164
1725721594705,2024-09-07T15:06:34.705Z,697822,0.030456543,0.9901123,0.11187744
1725721594746,2024-09-07T15:06:34.746Z,697863,0.0063476562,0.98651123,0.07086182
1725721594792,2024-09-07T15:06:34.792Z,697909,0.028076172,1.0078735,0.06616211
1725721594835,2024-09-07T15:06:34.835Z,697952,0.010620117,1.0085449,0.04284668
1725721594877,2024-09-07T15:06:34.877Z,697994,0.009521484,1.0150757,0.06451416
1725721594922,2024-09-07T15:06:34.922Z,698039,0.048950195,1.0112915,0.07336426
1725721594961,2024-09-07T15:06:34.961Z,698078,0.0390625,0.9661865,0.0848999
1725721595011,2024-09-07T15:06:35.011Z,698128,0.032409668,0.98095703,0.12805176
1725721595071,2024-09-07T15:06:35.071Z,698188,0.043395996,1.0079956,0.1126709
1725721595113,2024-09-07T15:06:35.113Z,698230,0.046447754,1.0100098,0.10882568
1725721595156,2024-09-07T15:06:35.156Z,698273,0.034606934,0.98358154,0.11016846
1725721595202,2024-09-07T15:06:35.202Z,698319,0.046813965,0.9755249,0.08947754
1725721595256,2024-09-07T15:06:35.256Z,698373,0.091796875,0.96447754,0.14123535
1725721595300,2024-09-07T15:06:35.300Z,698417,0.05432129,0.9595947,0.20996094
1725721595340,2024-09-07T15:06:35.340Z,698457,0.028808594,0.95983887,0.20153809
1725721595389,2024-09-07T15:06:35.389Z,698506,0.04937744,0.9824829,0.20996094
1725721595432,2024-09-07T15:06:35.432Z,698549,0.021606445,1.0068359,0.17437744
1725721595488,2024-09-07T15:06:35.488Z,698605,0.025268555,0.994751,0.12591553
1725721595530,2024-09-07T15:06:35.530Z,698647,0.08959961,0.9743042,0.16345215
1725721595571,2024-09-07T15:06:35.571Z,698688,0.07507324,0.9857788,0.21087646
1725721595617,2024-09-07T15:06:35.617Z,698734,0.078308105,0.9923096,0.18493652
1725721595663,2024-09-07T15:06:35.663Z,698780,0.066223145,0.9916992,0.17333984
1725721595705,2024-09-07T15:06:35.705Z,698822,0.07281494,0.97613525,0.19195557
1725721595749,2024-09-07T15:06:35.749Z,698866,0.072631836,0.9472656,0.22003174
1725721595794,2024-09-07T15:06:35.794Z,698911,0.06378174,0.94555664,0.21740723
1725721595838,2024-09-07T15:06:35.838Z,698955,0.048461914,0.93029785,0.21679688
1725721595892,2024-09-07T15:06:35.892Z,699009,0.06628418,0.93096924,0.20935059
1725721595945,2024-09-07T15:06:35.945Z,699062,0.10473633,0.9584961,0.21026611
1725721595992,2024-09-07T15:06:35.992Z,699109,0.095703125,0.9470215,0.22338867
1725721596036,2024-09-07T15:06:36.036Z,699153,0.11779785,0.9468994,0.21282959
1725721596084,2024-09-07T15:06:36.084Z,699201,0.11206055,0.9505615,0.2109375
1725721596126,2024-09-07T15:06:36.126Z,699243,0.111572266,0.95684814,0.20092773
1725721596170,2024-09-07T15:06:36.170Z,699287,0.121276855,0.9588623,0.19909668
1725721596223,2024-09-07T15:06:36.223Z,699340,0.13781738,0.9793091,0.2230835
1725721596268,2024-09-07T15:06:36.268Z,699385,0.140625,0.9857178,0.23742676
1725721596319,2024-09-07T15:06:36.319Z,699436,0.12609863,0.99090576,0.19659424
1725721596358,2024-09-07T15:06:36.358Z,699475,0.104003906,0.99731445,0.19940186
1725721596405,2024-09-07T15:06:36.405Z,699522,0.10675049,0.9842529,0.22802734
1725721596444,2024-09-07T15:06:36.444Z,699561,0.08874512,0.9658203,0.20904541
1725721596489,2024-09-07T15:06:36.489Z,699606,0.08660889,0.967041,0.22351074
1725721596538,2024-09-07T15:06:36.538Z,699655,0.07946777,0.97784424,0.24060059
1725721596582,2024-09-07T15:06:36.582Z,699699,0.06359863,0.9771118,0.23132324
1725721596626,2024-09-07T15:06:36.626Z,699743,0.07904053,0.9793091,0.23797607
1725721596667,2024-09-07T15:06:36.667Z,699784,0.064697266,0.97424316,0.24316406
1725721596711,2024-09-07T15:06:36.711Z,699828,0.07556152,0.972229,0.22875977
1725721596771,2024-09-07T15:06:36.771Z,699888,0.06964111,0.9667969,0.20758057
1725721596819,2024-09-07T15:06:36.819Z,699936,0.06262207,0.97888184,0.2053833
1725721596862,2024-09-07T15:06:36.862Z,699979,0.07940674,0.9769287,0.20953369
1725721596908,2024-09-07T15:06:36.908Z,700025,0.08483887,0.98065186,0.22229004
1725721596950,2024-09-07T15:06:36.950Z,700067,0.08959961,0.9918823,0.22332764
1725721596996,2024-09-07T15:06:36.996Z,700113,0.077697754,0.975708,0.23516846
1725721597046,2024-09-07T15:06:37.046Z,700163,0.08544922,0.95495605,0.22912598
1725721597092,2024-09-07T15:06:37.092Z,700209,0.09490967,0.94903564,0.22668457
1725721597132,2024-09-07T15:06:37.132Z,700249,0.080200195,0.9581909,0.20214844
1725721597185,2024-09-07T15:06:37.185Z,700302,0.070617676,0.97125244,0.19006348
1725721597226,2024-09-07T15:06:37.226Z,700343,0.06768799,0.96728516,0.1784668
1725721597272,2024-09-07T15:06:37.272Z,700389,0.06524658,0.9616089,0.1720581
1725721597314,2024-09-07T15:06:37.314Z,700431,0.040222168,0.96728516,0.13842773
1725721597358,2024-09-07T15:06:37.358Z,700475,0.06329346,0.9715576,0.1539917
1725721597400,2024-09-07T15:06:37.400Z,700517,0.064575195,0.97332764,0.19244385
1725721597444,2024-09-07T15:06:37.444Z,700561,0.054260254,0.9996338,0.13763428
1725721597485,2024-09-07T15:06:37.485Z,700602,0.062072754,1.0003052,0.13781738
1725721597527,2024-09-07T15:06:37.527Z,700644,0.039794922,0.98236084,0.13964844
1725721597580,2024-09-07T15:06:37.580Z,700697,0.038757324,1.0130615,0.09851074
1725721597636,2024-09-07T15:06:37.636Z,700753,0.06524658,0.993103,0.14367676
1725721597678,2024-09-07T15:06:37.678Z,700795,0.07525635,1.0006104,0.11071777
1725721597723,2024-09-07T15:06:37.723Z,700840,0.055480957,0.98309326,0.07006836
1725721597763,2024-09-07T15:06:37.763Z,700880,0.05908203,0.96362305,0.069885254
1725721597810,2024-09-07T15:06:37.810Z,700927,0.041503906,0.94940186,0.066589355
1725721597851,2024-09-07T15:06:37.851Z,700968,0.061767578,0.96569824,-0.003967285
1725721597896,2024-09-07T15:06:37.896Z,701013,0.024353027,0.9733887,0.06439209
1725721597940,2024-09-07T15:06:37.940Z,701057,0.03527832,0.9951782,0.03265381
1725721597994,2024-09-07T15:06:37.994Z,701111,0.054382324,1.0177002,0.04144287
1725721598036,2024-09-07T15:06:38.036Z,701153,0.05596924,1.0361328,0.06451416
1725721598080,2024-09-07T15:06:38.080Z,701197,0.041748047,0.9871216,0.024475098
1725721598126,2024-09-07T15:06:38.126Z,701243,0.08685303,0.93969727,0.038208008
1725721598169,2024-09-07T15:06:38.169Z,701286,0.08428955,0.9349365,0.004211426
1725721598214,2024-09-07T15:06:38.214Z,701331,0.048217773,0.9719238,-0.047668457
1725721598259,2024-09-07T15:06:38.259Z,701376,0.024780273,1.0337524,-0.047546387
1725721598299,2024-09-07T15:06:38.299Z,701416,0.0012207031,1.0682983,-0.07501221
1725721598351,2024-09-07T15:06:38.351Z,701468,0.037353516,1.0911255,-0.008361816
1725721598397,2024-09-07T15:06:38.397Z,701514,0.08685303,1.0804443,-0.026550293
1725721598457,2024-09-07T15:06:38.457Z,701574,-1.2207031E-4,0.9639282,-0.027709961
1725721598497,2024-09-07T15:06:38.497Z,701614,0.05822754,0.9793701,-0.05230713
