Timestamp (ms),ISO DateTime,Elapsed Time (ms),Acceleration X,Acceleration Y,Acceleration Z
1735323133677,2024-12-27T18:12:13.677Z,230979,0.019104004,0.1194458,0.036193848
1735323133694,2024-12-27T18:12:13.694Z,230996,0.018249512,0.1204834,0.03540039
1735323133708,2024-12-27T18:12:13.708Z,231010,0.019226074,0.12182617,0.034973145
1735323133721,2024-12-27T18:12:13.721Z,231023,0.021484375,0.12261963,0.034729004
1735323133733,2024-12-27T18:12:13.733Z,231035,0.02130127,0.12182617,0.03503418
1735323133745,2024-12-27T18:12:13.745Z,231047,0.020507812,0.12017822,0.034301758
1735323133755,2024-12-27T18:12:13.755Z,231057,0.020751953,0.11981201,0.033935547
1735323133766,2024-12-27T18:12:13.766Z,231068,0.020568848,0.120788574,0.034362793
1735323133776,2024-12-27T18:12:13.776Z,231078,0.01965332,0.120910645,0.0345459
1735323133785,2024-12-27T18:12:13.785Z,231087,0.018676758,0.1194458,0.034851074
1735323133794,2024-12-27T18:12:13.794Z,231096,0.019104004,0.117492676,0.03527832
1735323133801,2024-12-27T18:12:13.801Z,231103,0.020690918,0.117248535,0.033996582
1735323133809,2024-12-27T18:12:13.809Z,231111,0.02130127,0.11956787,0.03289795
1735323133818,2024-12-27T18:12:13.818Z,231120,0.020629883,0.12030029,0.032287598
1735323133827,2024-12-27T18:12:13.827Z,231129,0.020446777,0.119262695,0.03265381
1735323133835,2024-12-27T18:12:13.835Z,231137,0.019958496,0.11828613,0.03387451
1735323133842,2024-12-27T18:12:13.842Z,231144,0.019958496,0.11767578,0.034606934
1735323133851,2024-12-27T18:12:13.851Z,231153,0.020141602,0.1182251,0.0345459
1735323133859,2024-12-27T18:12:13.859Z,231161,0.020385742,0.118774414,0.033447266
1735323133867,2024-12-27T18:12:13.867Z,231169,0.020141602,0.118896484,0.032714844
1735323133876,2024-12-27T18:12:13.876Z,231178,0.019165039,0.11920166,0.033447266
1735323133884,2024-12-27T18:12:13.884Z,231186,0.018798828,0.11871338,0.03363037
1735323133891,2024-12-27T18:12:13.891Z,231193,0.019165039,0.119018555,0.032958984
1735323133900,2024-12-27T18:12:13.900Z,231202,0.020446777,0.121154785,0.03149414
1735323133908,2024-12-27T18:12:13.908Z,231210,0.020629883,0.12219238,0.032043457
1735323133918,2024-12-27T18:12:13.918Z,231220,0.020690918,0.11956787,0.033691406
1735323133926,2024-12-27T18:12:13.926Z,231228,0.020141602,0.1182251,0.03527832
1735323133941,2024-12-27T18:12:13.941Z,231243,0.018676758,0.11932373,0.036865234
1735323133953,2024-12-27T18:12:13.953Z,231255,0.018066406,0.11956787,0.03881836
1735323133964,2024-12-27T18:12:13.964Z,231266,0.018798828,0.11779785,0.038146973
1735323133976,2024-12-27T18:12:13.976Z,231278,0.020202637,0.11755371,0.034606934
1735323133991,2024-12-27T18:12:13.991Z,231293,0.022216797,0.12017822,0.03137207
1735323134000,2024-12-27T18:12:14Z,231302,0.021728516,0.120788574,0.027832031
1735323134009,2024-12-27T18:12:14.009Z,231311,0.019592285,0.11975098,0.02746582
1735323134017,2024-12-27T18:12:14.017Z,231319,0.018005371,0.12005615,0.027770996
1735323134027,2024-12-27T18:12:14.027Z,231329,0.017944336,0.11932373,0.030700684
1735323134037,2024-12-27T18:12:14.037Z,231339,0.019897461,0.11730957,0.034729004
1735323134048,2024-12-27T18:12:14.048Z,231350,0.020324707,0.117004395,0.036621094
1735323134059,2024-12-27T18:12:14.059Z,231361,0.01953125,0.11755371,0.0357666
1735323134068,2024-12-27T18:12:14.068Z,231370,0.020996094,0.11859131,0.033996582
1735323134077,2024-12-27T18:12:14.077Z,231379,0.0256958,0.119384766,0.032043457
1735323134087,2024-12-27T18:12:14.087Z,231389,0.028564453,0.121520996,0.030151367
1735323134097,2024-12-27T18:12:14.097Z,231399,0.024841309,0.12194824,0.030395508
1735323134105,2024-12-27T18:12:14.105Z,231407,0.020996094,0.1194458,0.03387451
1735323134115,2024-12-27T18:12:14.115Z,231417,0.019592285,0.1194458,0.0357666
1735323134125,2024-12-27T18:12:14.125Z,231427,0.018493652,0.11956787,0.03479004
1735323134139,2024-12-27T18:12:14.139Z,231441,0.01739502,0.118774414,0.03326416
1735323134156,2024-12-27T18:12:14.156Z,231458,0.019104004,0.118652344,0.03125
1735323134167,2024-12-27T18:12:14.167Z,231469,0.022033691,0.11981201,0.030578613
1735323134178,2024-12-27T18:12:14.178Z,231480,0.02520752,0.12225342,0.031066895
1735323134187,2024-12-27T18:12:14.187Z,231489,0.026916504,0.12445068,0.03161621
1735323134196,2024-12-27T18:12:14.196Z,231498,0.024719238,0.122802734,0.03277588
1735323134207,2024-12-27T18:12:14.207Z,231509,0.02166748,0.11834717,0.034057617
1735323134216,2024-12-27T18:12:14.216Z,231518,0.019226074,0.11669922,0.034484863
1735323134227,2024-12-27T18:12:14.227Z,231529,0.019714355,0.11834717,0.03302002
1735323134236,2024-12-27T18:12:14.236Z,231538,0.022155762,0.11956787,0.029663086
1735323134245,2024-12-27T18:12:14.245Z,231547,0.021362305,0.119506836,0.02923584
1735323134254,2024-12-27T18:12:14.254Z,231556,0.020996094,0.1204834,0.0289917
1735323134301,2024-12-27T18:12:14.301Z,231603,0.022216797,0.1217041,0.029296875
1735323134310,2024-12-27T18:12:14.310Z,231612,0.021911621,0.12237549,0.031799316
1735323134319,2024-12-27T18:12:14.319Z,231621,0.02130127,0.12054443,0.03363037
1735323134329,2024-12-27T18:12:14.329Z,231631,0.021362305,0.11779785,0.034301758
1735323134337,2024-12-27T18:12:14.337Z,231639,0.019836426,0.11730957,0.033325195
1735323134347,2024-12-27T18:12:14.347Z,231649,0.017944336,0.119018555,0.03137207
1735323134354,2024-12-27T18:12:14.354Z,231656,0.01953125,0.11999512,0.030456543
1735323134363,2024-12-27T18:12:14.363Z,231665,0.02142334,0.12121582,0.031677246
1735323134371,2024-12-27T18:12:14.371Z,231673,0.018737793,0.12121582,0.03137207
1735323134380,2024-12-27T18:12:14.380Z,231682,0.015930176,0.119506836,0.030090332
1735323134388,2024-12-27T18:12:14.388Z,231690,0.018310547,0.118652344,0.026611328
1735323134396,2024-12-27T18:12:14.396Z,231698,0.018493652,0.11920166,0.026123047
1735323134435,2024-12-27T18:12:14.435Z,231737,0.023498535,0.11816406,0.028625488
1735323134443,2024-12-27T18:12:14.443Z,231745,0.027038574,0.117492676,0.031677246
1735323134451,2024-12-27T18:12:14.451Z,231753,0.024658203,0.11743164,0.035888672
1735323134460,2024-12-27T18:12:14.460Z,231762,0.022766113,0.1159668,0.040405273
1735323134469,2024-12-27T18:12:14.469Z,231771,0.020568848,0.11450195,0.03955078
1735323134478,2024-12-27T18:12:14.478Z,231780,0.02130127,0.113708496,0.03564453
1735323134488,2024-12-27T18:12:14.488Z,231790,0.02508545,0.11444092,0.032958984
1735323134498,2024-12-27T18:12:14.498Z,231800,0.026550293,0.11621094,0.03173828
1735323134507,2024-12-27T18:12:14.507Z,231809,0.026611328,0.11621094,0.030334473
1735323134516,2024-12-27T18:12:14.516Z,231818,0.027954102,0.11541748,0.030151367
1735323134526,2024-12-27T18:12:14.526Z,231828,0.027648926,0.11431885,0.029052734
1735323134535,2024-12-27T18:12:14.535Z,231837,0.025024414,0.113098145,0.02911377
1735323134544,2024-12-27T18:12:14.544Z,231846,0.024291992,0.11254883,0.029541016
1735323134555,2024-12-27T18:12:14.555Z,231857,0.02355957,0.113098145,0.030639648
1735323134563,2024-12-27T18:12:14.563Z,231865,0.025146484,0.113098145,0.032836914
1735323134570,2024-12-27T18:12:14.570Z,231872,0.023498535,0.11260986,0.032592773
1735323134577,2024-12-27T18:12:14.577Z,231879,0.022277832,0.11224365,0.030822754
1735323134583,2024-12-27T18:12:14.583Z,231885,0.026245117,0.110839844,0.029663086
1735323134591,2024-12-27T18:12:14.591Z,231893,0.027282715,0.109191895,0.030517578
1735323134599,2024-12-27T18:12:14.599Z,231901,0.024108887,0.10852051,0.031433105
1735323134609,2024-12-27T18:12:14.609Z,231911,0.024291992,0.11047363,0.03149414
1735323134617,2024-12-27T18:12:14.617Z,231919,0.025512695,0.11383057,0.029663086
1735323134625,2024-12-27T18:12:14.625Z,231927,0.023925781,0.11462402,0.027648926
1735323134636,2024-12-27T18:12:14.636Z,231938,0.02368164,0.112976074,0.027038574
1735323134650,2024-12-27T18:12:14.650Z,231952,0.024597168,0.11212158,0.027282715
1735323134659,2024-12-27T18:12:14.659Z,231961,0.02355957,0.11248779,0.028747559
1735323134668,2024-12-27T18:12:14.668Z,231970,0.023010254,0.11413574,0.030029297
1735323134675,2024-12-27T18:12:14.675Z,231977,0.023803711,0.11663818,0.02935791
1735323134682,2024-12-27T18:12:14.682Z,231984,0.02368164,0.1171875,0.027893066
1735323134690,2024-12-27T18:12:14.690Z,231992,0.02355957,0.11578369,0.026245117
1735323134698,2024-12-27T18:12:14.698Z,232000,0.023376465,0.11407471,0.02545166
1735323134707,2024-12-27T18:12:14.707Z,232009,0.024291992,0.11376953,0.025817871
1735323134713,2024-12-27T18:12:14.713Z,232015,0.023620605,0.11553955,0.026672363
1735323134721,2024-12-27T18:12:14.721Z,232023,0.019348145,0.11773682,0.029174805
1735323134729,2024-12-27T18:12:14.729Z,232031,0.021057129,0.11828613,0.031433105
1735323134736,2024-12-27T18:12:14.736Z,232038,0.023376465,0.11730957,0.03137207
1735323134745,2024-12-27T18:12:14.745Z,232047,0.021362305,0.115600586,0.028381348
1735323134753,2024-12-27T18:12:14.753Z,232055,0.021362305,0.1138916,0.02520752
1735323134761,2024-12-27T18:12:14.761Z,232063,0.020874023,0.11364746,0.022766113
1735323134768,2024-12-27T18:12:14.768Z,232070,0.02178955,0.114746094,0.022155762
1735323134775,2024-12-27T18:12:14.775Z,232077,0.024353027,0.11578369,0.023376465
1735323134796,2024-12-27T18:12:14.796Z,232098,0.022888184,0.11602783,0.026428223
1735323134803,2024-12-27T18:12:14.803Z,232105,0.01965332,0.11584473,0.028686523
1735323134812,2024-12-27T18:12:14.812Z,232114,0.018737793,0.11590576,0.029724121
1735323134820,2024-12-27T18:12:14.820Z,232122,0.0211792,0.1149292,0.028930664
1735323134828,2024-12-27T18:12:14.828Z,232130,0.022277832,0.113098145,0.028564453
1735323134841,2024-12-27T18:12:14.841Z,232143,0.021972656,0.11407471,0.027832031
1735323134849,2024-12-27T18:12:14.849Z,232151,0.020202637,0.113464355,0.02746582
1735323134856,2024-12-27T18:12:14.856Z,232158,0.018737793,0.111694336,0.027893066
1735323134865,2024-12-27T18:12:14.865Z,232167,0.018310547,0.11071777,0.025939941
1735323134885,2024-12-27T18:12:14.885Z,232187,0.015930176,0.11193848,0.024108887
1735323134894,2024-12-27T18:12:14.894Z,232196,0.016723633,0.11431885,0.024169922
1735323134901,2024-12-27T18:12:14.901Z,232203,0.01953125,0.11663818,0.024414062
1735323134909,2024-12-27T18:12:14.909Z,232211,0.01940918,0.11621094,0.024414062
1735323134917,2024-12-27T18:12:14.917Z,232219,0.021484375,0.11193848,0.024902344
1735323134930,2024-12-27T18:12:14.930Z,232232,0.022277832,0.11004639,0.025146484
1735323134938,2024-12-27T18:12:14.938Z,232240,0.0211792,0.11199951,0.02532959
1735323134948,2024-12-27T18:12:14.948Z,232250,0.019042969,0.11303711,0.026855469
1735323134955,2024-12-27T18:12:14.955Z,232257,0.01751709,0.112976074,0.02520752
1735323134975,2024-12-27T18:12:14.975Z,232277,0.01727295,0.11303711,0.024780273
1735323134982,2024-12-27T18:12:14.982Z,232284,0.020263672,0.11395264,0.024597168
1735323134989,2024-12-27T18:12:14.989Z,232291,0.020141602,0.11608887,0.02368164
1735323134996,2024-12-27T18:12:14.996Z,232298,0.018737793,0.117370605,0.021240234
1735323135006,2024-12-27T18:12:15.006Z,232308,0.02130127,0.117126465,0.022155762
1735323135020,2024-12-27T18:12:15.020Z,232322,0.020812988,0.11608887,0.024108887
1735323135029,2024-12-27T18:12:15.029Z,232331,0.019714355,0.1159668,0.026489258
1735323135039,2024-12-27T18:12:15.039Z,232341,0.018188477,0.11730957,0.026611328
1735323135048,2024-12-27T18:12:15.048Z,232350,0.013977051,0.11584473,0.022888184
1735323135067,2024-12-27T18:12:15.067Z,232369,0.013061523,0.11584473,0.021057129
1735323135075,2024-12-27T18:12:15.075Z,232377,0.0178833,0.118652344,0.021118164
1735323135085,2024-12-27T18:12:15.085Z,232387,0.020324707,0.12042236,0.022155762
1735323135093,2024-12-27T18:12:15.093Z,232395,0.01940918,0.11993408,0.024169922
1735323135114,2024-12-27T18:12:15.114Z,232416,0.01751709,0.118774414,0.02545166
1735323135123,2024-12-27T18:12:15.123Z,232425,0.014953613,0.11810303,0.022583008
1735323135131,2024-12-27T18:12:15.131Z,232433,0.016723633,0.11773682,0.020996094
1735323135139,2024-12-27T18:12:15.139Z,232441,0.019470215,0.11755371,0.021240234
1735323135148,2024-12-27T18:12:15.148Z,232450,0.018920898,0.11791992,0.020202637
1735323135156,2024-12-27T18:12:15.156Z,232458,0.019897461,0.11932373,0.020996094
1735323135165,2024-12-27T18:12:15.165Z,232467,0.01928711,0.11999512,0.022583008
1735323135172,2024-12-27T18:12:15.172Z,232474,0.016906738,0.11981201,0.022094727
1735323135182,2024-12-27T18:12:15.182Z,232484,0.01586914,0.121398926,0.020568848
1735323135202,2024-12-27T18:12:15.202Z,232504,0.016418457,0.121398926,0.020019531
1735323135212,2024-12-27T18:12:15.212Z,232514,0.017944336,0.12084961,0.019042969
1735323135220,2024-12-27T18:12:15.220Z,232522,0.01940918,0.12121582,0.020263672
1735323135230,2024-12-27T18:12:15.230Z,232532,0.020263672,0.12231445,0.021972656
1735323135240,2024-12-27T18:12:15.240Z,232542,0.020568848,0.122802734,0.0211792
1735323135253,2024-12-27T18:12:15.253Z,232555,0.017822266,0.121520996,0.021606445
1735323135260,2024-12-27T18:12:15.260Z,232562,0.014831543,0.12164307,0.022399902
1735323135268,2024-12-27T18:12:15.268Z,232570,0.013000488,0.123168945,0.021362305
1735323135279,2024-12-27T18:12:15.279Z,232581,0.014831543,0.12219238,0.019104004
1735323135293,2024-12-27T18:12:15.293Z,232595,0.018249512,0.12286377,0.016357422
1735323135302,2024-12-27T18:12:15.302Z,232604,0.019042969,0.12615967,0.015808105
1735323135315,2024-12-27T18:12:15.315Z,232617,0.018981934,0.12762451,0.017456055
1735323135325,2024-12-27T18:12:15.325Z,232627,0.018981934,0.12591553,0.020202637
1735323135332,2024-12-27T18:12:15.332Z,232634,0.016052246,0.1237793,0.023254395
1735323135339,2024-12-27T18:12:15.339Z,232641,0.012878418,0.1227417,0.022521973
1735323135348,2024-12-27T18:12:15.348Z,232650,0.013671875,0.12438965,0.018615723
1735323135355,2024-12-27T18:12:15.355Z,232657,0.019348145,0.1262207,0.01928711
1735323135362,2024-12-27T18:12:15.362Z,232664,0.020690918,0.12579346,0.020751953
1735323135380,2024-12-27T18:12:15.380Z,232682,0.017150879,0.123413086,0.018676758
1735323135388,2024-12-27T18:12:15.388Z,232690,0.018005371,0.12335205,0.019592285
1735323135396,2024-12-27T18:12:15.396Z,232698,0.022033691,0.124694824,0.023925781
1735323135426,2024-12-27T18:12:15.426Z,232728,0.02331543,0.12548828,0.026794434
1735323135433,2024-12-27T18:12:15.433Z,232735,0.018920898,0.12561035,0.025146484
1735323135440,2024-12-27T18:12:15.440Z,232742,0.0146484375,0.12542725,0.02166748
1735323135451,2024-12-27T18:12:15.451Z,232753,0.011657715,0.12561035,0.018249512
1735323135459,2024-12-27T18:12:15.459Z,232761,0.012756348,0.124938965,0.016296387
1735323135470,2024-12-27T18:12:15.470Z,232772,0.01586914,0.12506104,0.014953613
1735323135479,2024-12-27T18:12:15.479Z,232781,0.016723633,0.124694824,0.01373291
1735323135489,2024-12-27T18:12:15.489Z,232791,0.01751709,0.12408447,0.015563965
1735323135498,2024-12-27T18:12:15.498Z,232800,0.019470215,0.12432861,0.019897461
1735323135507,2024-12-27T18:12:15.507Z,232809,0.020263672,0.12506104,0.022583008
1735323135517,2024-12-27T18:12:15.517Z,232819,0.019836426,0.124816895,0.024597168
1735323135525,2024-12-27T18:12:15.525Z,232827,0.018554688,0.1251831,0.026489258
1735323135536,2024-12-27T18:12:15.536Z,232838,0.015014648,0.124694824,0.024108887
1735323135544,2024-12-27T18:12:15.544Z,232846,0.013977051,0.12237549,0.020751953
1735323135567,2024-12-27T18:12:15.567Z,232869,0.016662598,0.12237549,0.01940918
1735323135574,2024-12-27T18:12:15.574Z,232876,0.017089844,0.12384033,0.018005371
1735323135583,2024-12-27T18:12:15.583Z,232885,0.018127441,0.12463379,0.018432617
1735323135592,2024-12-27T18:12:15.592Z,232894,0.020263672,0.12597656,0.019836426
1735323135601,2024-12-27T18:12:15.601Z,232903,0.020568848,0.12701416,0.019714355
1735323135609,2024-12-27T18:12:15.609Z,232911,0.015319824,0.12646484,0.019836426
1735323135617,2024-12-27T18:12:15.617Z,232919,0.012756348,0.12432861,0.019470215
1735323135625,2024-12-27T18:12:15.625Z,232927,0.014282227,0.123535156,0.018188477
1735323135633,2024-12-27T18:12:15.633Z,232935,0.015014648,0.12451172,0.01928711
1735323135641,2024-12-27T18:12:15.641Z,232943,0.016601562,0.12536621,0.01977539
1735323135650,2024-12-27T18:12:15.650Z,232952,0.018005371,0.12646484,0.020141602
1735323135656,2024-12-27T18:12:15.656Z,232958,0.017456055,0.12628174,0.022338867
1735323135663,2024-12-27T18:12:15.663Z,232965,0.018371582,0.125,0.022277832
1735323135671,2024-12-27T18:12:15.671Z,232973,0.01940918,0.12438965,0.020874023
1735323135699,2024-12-27T18:12:15.699Z,233001,0.017333984,0.12426758,0.01953125
1735323135705,2024-12-27T18:12:15.705Z,233007,0.015563965,0.12384033,0.016967773
1735323135711,2024-12-27T18:12:15.711Z,233013,0.01727295,0.12536621,0.015380859
1735323135719,2024-12-27T18:12:15.719Z,233021,0.017456055,0.12786865,0.017822266
1735323135740,2024-12-27T18:12:15.740Z,233042,0.01727295,0.12756348,0.021911621
1735323135747,2024-12-27T18:12:15.747Z,233049,0.019836426,0.12695312,0.023864746
1735323135754,2024-12-27T18:12:15.754Z,233056,0.019348145,0.12597656,0.023132324
1735323135762,2024-12-27T18:12:15.762Z,233064,0.017456055,0.1251831,0.02178955
1735323135770,2024-12-27T18:12:15.770Z,233072,0.016906738,0.1262207,0.018554688
1735323135786,2024-12-27T18:12:15.786Z,233088,0.016052246,0.12695312,0.018249512
1735323135793,2024-12-27T18:12:15.793Z,233095,0.014221191,0.12554932,0.01940918
1735323135801,2024-12-27T18:12:15.801Z,233103,0.014160156,0.124572754,0.019226074
1735323135807,2024-12-27T18:12:15.807Z,233109,0.01763916,0.12512207,0.017944336
1735323135831,2024-12-27T18:12:15.831Z,233133,0.021118164,0.12670898,0.01965332
1735323135840,2024-12-27T18:12:15.840Z,233142,0.020385742,0.12719727,0.018737793
1735323135847,2024-12-27T18:12:15.847Z,233149,0.0178833,0.12670898,0.019104004
1735323135854,2024-12-27T18:12:15.854Z,233156,0.0178833,0.12634277,0.020935059
1735323135861,2024-12-27T18:12:15.861Z,233163,0.018554688,0.12664795,0.021911621
1735323135877,2024-12-27T18:12:15.877Z,233179,0.016723633,0.12609863,0.023376465
1735323135886,2024-12-27T18:12:15.886Z,233188,0.016540527,0.12402344,0.024597168
1735323135897,2024-12-27T18:12:15.897Z,233199,0.018005371,0.12390137,0.01940918
1735323135904,2024-12-27T18:12:15.904Z,233206,0.018005371,0.1251831,0.018005371
1735323135920,2024-12-27T18:12:15.920Z,233222,0.015808105,0.12567139,0.019348145
1735323135929,2024-12-27T18:12:15.929Z,233231,0.014099121,0.12530518,0.016784668
1735323135938,2024-12-27T18:12:15.938Z,233240,0.015136719,0.12554932,0.015319824
1735323135949,2024-12-27T18:12:15.949Z,233251,0.017456055,0.12658691,0.017333984
1735323135964,2024-12-27T18:12:15.964Z,233266,0.018188477,0.12567139,0.020263672
1735323135972,2024-12-27T18:12:15.972Z,233274,0.018432617,0.12451172,0.022583008
1735323135982,2024-12-27T18:12:15.982Z,233284,0.018676758,0.12371826,0.02368164
1735323135989,2024-12-27T18:12:15.989Z,233291,0.016479492,0.12231445,0.023071289
1735323135998,2024-12-27T18:12:15.998Z,233300,0.014343262,0.12207031,0.01940918
1735323136011,2024-12-27T18:12:16.011Z,233313,0.013671875,0.12298584,0.015014648
1735323136018,2024-12-27T18:12:16.018Z,233320,0.015930176,0.12298584,0.015258789
1735323136027,2024-12-27T18:12:16.027Z,233329,0.017150879,0.122924805,0.018859863
1735323136035,2024-12-27T18:12:16.035Z,233337,0.019226074,0.12335205,0.020874023
1735323136056,2024-12-27T18:12:16.056Z,233358,0.019348145,0.122802734,0.021972656
1735323136063,2024-12-27T18:12:16.063Z,233365,0.016662598,0.12194824,0.023254395
1735323136073,2024-12-27T18:12:16.073Z,233375,0.017089844,0.12145996,0.020263672
1735323136080,2024-12-27T18:12:16.080Z,233382,0.015625,0.121520996,0.018188477
1735323136088,2024-12-27T18:12:16.088Z,233390,0.013183594,0.12225342,0.016601562
1735323136099,2024-12-27T18:12:16.099Z,233401,0.0134887695,0.12310791,0.015563965
1735323136150,2024-12-27T18:12:16.150Z,233452,0.015930176,0.12322998,0.017211914
1735323136156,2024-12-27T18:12:16.156Z,233458,0.017089844,0.12322998,0.018981934
1735323136164,2024-12-27T18:12:16.164Z,233466,0.01751709,0.12286377,0.01977539
1735323136171,2024-12-27T18:12:16.171Z,233473,0.018615723,0.12188721,0.021728516
1735323136181,2024-12-27T18:12:16.181Z,233483,0.018798828,0.12335205,0.022888184
1735323136191,2024-12-27T18:12:16.191Z,233493,0.014770508,0.1239624,0.021118164
1735323136200,2024-12-27T18:12:16.200Z,233502,0.014221191,0.1239624,0.018920898
1735323136207,2024-12-27T18:12:16.207Z,233509,0.016784668,0.12658691,0.019104004
1735323136216,2024-12-27T18:12:16.216Z,233518,0.015380859,0.12719727,0.01977539
1735323136223,2024-12-27T18:12:16.223Z,233525,0.014404297,0.124938965,0.017822266
1735323136230,2024-12-27T18:12:16.230Z,233532,0.016418457,0.12506104,0.0178833
1735323136238,2024-12-27T18:12:16.238Z,233540,0.018737793,0.12670898,0.018981934
1735323136245,2024-12-27T18:12:16.245Z,233547,0.017822266,0.12554932,0.019165039
1735323136252,2024-12-27T18:12:16.252Z,233554,0.015808105,0.124694824,0.01940918
1735323136261,2024-12-27T18:12:16.261Z,233563,0.0146484375,0.12591553,0.019592285
1735323136269,2024-12-27T18:12:16.269Z,233571,0.0146484375,0.12628174,0.021118164
1735323136280,2024-12-27T18:12:16.280Z,233582,0.015563965,0.1274414,0.022033691
1735323136287,2024-12-27T18:12:16.287Z,233589,0.016967773,0.12854004,0.022460938
1735323136298,2024-12-27T18:12:16.298Z,233600,0.016601562,0.1281128,0.02154541
1735323136305,2024-12-27T18:12:16.305Z,233607,0.01550293,0.12683105,0.019042969
1735323136311,2024-12-27T18:12:16.311Z,233613,0.015625,0.1270752,0.018737793
1735323136325,2024-12-27T18:12:16.325Z,233627,0.016296387,0.12652588,0.0178833
1735323136332,2024-12-27T18:12:16.332Z,233634,0.015563965,0.12536621,0.017211914
1735323136338,2024-12-27T18:12:16.338Z,233640,0.015014648,0.12487793,0.018371582
1735323136345,2024-12-27T18:12:16.345Z,233647,0.016113281,0.12542725,0.018737793
1735323136371,2024-12-27T18:12:16.371Z,233673,0.017822266,0.12677002,0.019836426
1735323136378,2024-12-27T18:12:16.378Z,233680,0.018615723,0.1281128,0.022644043
1735323136386,2024-12-27T18:12:16.386Z,233688,0.018066406,0.12554932,0.022644043
1735323136394,2024-12-27T18:12:16.394Z,233696,0.018371582,0.12506104,0.020996094
1735323136401,2024-12-27T18:12:16.401Z,233703,0.016174316,0.12658691,0.021118164
1735323136418,2024-12-27T18:12:16.418Z,233720,0.015197754,0.1260376,0.0211792
1735323136431,2024-12-27T18:12:16.431Z,233733,0.01550293,0.12561035,0.01940918
1735323136438,2024-12-27T18:12:16.438Z,233740,0.015380859,0.12536621,0.018127441
1735323136445,2024-12-27T18:12:16.445Z,233747,0.016113281,0.12512207,0.018432617
1735323136461,2024-12-27T18:12:16.461Z,233763,0.018249512,0.12628174,0.02142334
1735323136469,2024-12-27T18:12:16.469Z,233771,0.018066406,0.12585449,0.019714355
1735323136476,2024-12-27T18:12:16.476Z,233778,0.015686035,0.12554932,0.016235352
1735323136483,2024-12-27T18:12:16.483Z,233785,0.015075684,0.12542725,0.016174316
1735323136491,2024-12-27T18:12:16.491Z,233793,0.0146484375,0.12420654,0.018005371
1735323136504,2024-12-27T18:12:16.504Z,233806,0.01550293,0.12426758,0.02142334
1735323136511,2024-12-27T18:12:16.511Z,233813,0.017333984,0.12652588,0.023803711
1735323136519,2024-12-27T18:12:16.519Z,233821,0.01727295,0.12585449,0.023071289
1735323136525,2024-12-27T18:12:16.525Z,233827,0.017211914,0.12390137,0.023071289
1735323136550,2024-12-27T18:12:16.550Z,233852,0.01727295,0.1237793,0.021057129
1735323136558,2024-12-27T18:12:16.558Z,233860,0.017089844,0.12420654,0.019226074
1735323136565,2024-12-27T18:12:16.565Z,233867,0.016906738,0.12597656,0.018798828
1735323136573,2024-12-27T18:12:16.573Z,233875,0.017089844,0.12664795,0.01940918
1735323136580,2024-12-27T18:12:16.580Z,233882,0.016784668,0.12634277,0.020263672
1735323136596,2024-12-27T18:12:16.596Z,233898,0.016906738,0.12780762,0.01977539
1735323136604,2024-12-27T18:12:16.604Z,233906,0.0154418945,0.12695312,0.018859863
1735323136612,2024-12-27T18:12:16.612Z,233914,0.014404297,0.12689209,0.01928711
1735323136620,2024-12-27T18:12:16.620Z,233922,0.014404297,0.12677002,0.019836426
1735323136643,2024-12-27T18:12:16.643Z,233945,0.016235352,0.12634277,0.019714355
1735323136651,2024-12-27T18:12:16.651Z,233953,0.017211914,0.128479,0.019348145
1735323136658,2024-12-27T18:12:16.658Z,233960,0.016174316,0.12762451,0.018432617
1735323136665,2024-12-27T18:12:16.665Z,233967,0.01586914,0.12597656,0.019348145
1735323136685,2024-12-27T18:12:16.685Z,233987,0.015686035,0.12677002,0.021118164
1735323136692,2024-12-27T18:12:16.692Z,233994,0.016540527,0.12677002,0.023132324
1735323136699,2024-12-27T18:12:16.699Z,234001,0.018005371,0.12677002,0.02319336
1735323136706,2024-12-27T18:12:16.706Z,234008,0.016784668,0.12774658,0.02154541
1735323136713,2024-12-27T18:12:16.713Z,234015,0.016296387,0.12677002,0.020263672
1735323136731,2024-12-27T18:12:16.731Z,234033,0.016845703,0.12689209,0.01928711
1735323136740,2024-12-27T18:12:16.740Z,234042,0.016967773,0.1262207,0.019836426
1735323136751,2024-12-27T18:12:16.751Z,234053,0.016052246,0.12530518,0.021362305
1735323136759,2024-12-27T18:12:16.759Z,234061,0.0154418945,0.12579346,0.020446777
1735323136776,2024-12-27T18:12:16.776Z,234078,0.014465332,0.12762451,0.020202637
1735323136783,2024-12-27T18:12:16.783Z,234085,0.015319824,0.12792969,0.021118164
1735323136791,2024-12-27T18:12:16.791Z,234093,0.016967773,0.1272583,0.02130127
1735323136799,2024-12-27T18:12:16.799Z,234101,0.016418457,0.12768555,0.022521973
1735323136808,2024-12-27T18:12:16.808Z,234110,0.015991211,0.1270752,0.023620605
1735323136820,2024-12-27T18:12:16.820Z,234122,0.016235352,0.124938965,0.022338867
1735323136828,2024-12-27T18:12:16.828Z,234130,0.01586914,0.12530518,0.019958496
1735323136837,2024-12-27T18:12:16.837Z,234139,0.014038086,0.12542725,0.01977539
1735323136844,2024-12-27T18:12:16.844Z,234146,0.0138549805,0.12530518,0.02130127
1735323136865,2024-12-27T18:12:16.865Z,234167,0.015136719,0.12792969,0.022644043
1735323136872,2024-12-27T18:12:16.872Z,234174,0.016296387,0.12866211,0.022949219
1735323136880,2024-12-27T18:12:16.880Z,234182,0.017150879,0.12774658,0.022583008
1735323136887,2024-12-27T18:12:16.887Z,234189,0.016418457,0.12823486,0.02142334
1735323136893,2024-12-27T18:12:16.893Z,234195,0.015014648,0.12750244,0.020812988
1735323136910,2024-12-27T18:12:16.910Z,234212,0.013549805,0.12609863,0.021240234
1735323136918,2024-12-27T18:12:16.918Z,234220,0.013427734,0.12585449,0.020507812
1735323136925,2024-12-27T18:12:16.925Z,234227,0.014709473,0.12585449,0.020935059
1735323136934,2024-12-27T18:12:16.934Z,234236,0.016784668,0.12609863,0.022644043
1735323136955,2024-12-27T18:12:16.955Z,234257,0.016540527,0.12792969,0.024353027
1735323136963,2024-12-27T18:12:16.963Z,234265,0.016296387,0.1272583,0.02532959
1735323136972,2024-12-27T18:12:16.972Z,234274,0.016906738,0.12670898,0.025268555
1735323136979,2024-12-27T18:12:16.979Z,234281,0.015808105,0.1281128,0.023620605
1735323137001,2024-12-27T18:12:17.001Z,234303,0.01586914,0.12835693,0.022583008
1735323137009,2024-12-27T18:12:17.009Z,234311,0.0146484375,0.12805176,0.019958496
1735323137016,2024-12-27T18:12:17.016Z,234318,0.013549805,0.12792969,0.018554688
1735323137022,2024-12-27T18:12:17.022Z,234324,0.014343262,0.12908936,0.021850586
1735323137029,2024-12-27T18:12:17.029Z,234331,0.016174316,0.13012695,0.024597168
1735323137045,2024-12-27T18:12:17.045Z,234347,0.017456055,0.13171387,0.025024414
1735323137053,2024-12-27T18:12:17.053Z,234355,0.018615723,0.13421631,0.024902344
1735323137059,2024-12-27T18:12:17.059Z,234361,0.01763916,0.13568115,0.024353027
1735323137065,2024-12-27T18:12:17.065Z,234367,0.017944336,0.13446045,0.020507812
1735323137090,2024-12-27T18:12:17.090Z,234392,0.017700195,0.13397217,0.017700195
1735323137097,2024-12-27T18:12:17.097Z,234399,0.016662598,0.13647461,0.020996094
1735323137104,2024-12-27T18:12:17.104Z,234406,0.017028809,0.13867188,0.02508545
1735323137113,2024-12-27T18:12:17.113Z,234415,0.016601562,0.13928223,0.02758789
1735323137119,2024-12-27T18:12:17.119Z,234421,0.016174316,0.13781738,0.031066895
1735323137138,2024-12-27T18:12:17.138Z,234440,0.016723633,0.13934326,0.028503418
1735323137145,2024-12-27T18:12:17.145Z,234447,0.016479492,0.14349365,0.022216797
1735323137152,2024-12-27T18:12:17.152Z,234454,0.016723633,0.1472168,0.020446777
1735323137158,2024-12-27T18:12:17.158Z,234460,0.018615723,0.14709473,0.018310547
1735323137182,2024-12-27T18:12:17.182Z,234484,0.018005371,0.14630127,0.017150879
1735323137189,2024-12-27T18:12:17.189Z,234491,0.01751709,0.14544678,0.020202637
1735323137194,2024-12-27T18:12:17.194Z,234496,0.018310547,0.14477539,0.024536133
1735323137201,2024-12-27T18:12:17.201Z,234503,0.017700195,0.1449585,0.02734375
1735323137207,2024-12-27T18:12:17.207Z,234509,0.015991211,0.14404297,0.026916504
1735323137225,2024-12-27T18:12:17.225Z,234527,0.018371582,0.14404297,0.024902344
1735323137232,2024-12-27T18:12:17.232Z,234534,0.021606445,0.14672852,0.024414062
1735323137239,2024-12-27T18:12:17.239Z,234541,0.021118164,0.14776611,0.024230957
1735323137245,2024-12-27T18:12:17.245Z,234547,0.01928711,0.14678955,0.023071289
1735323137272,2024-12-27T18:12:17.272Z,234574,0.019042969,0.14385986,0.022705078
1735323137281,2024-12-27T18:12:17.281Z,234583,0.019592285,0.14276123,0.021118164
1735323137288,2024-12-27T18:12:17.288Z,234590,0.017822266,0.14508057,0.020385742
1735323137293,2024-12-27T18:12:17.293Z,234595,0.015686035,0.14520264,0.020812988
1735323137315,2024-12-27T18:12:17.315Z,234617,0.018920898,0.14349365,0.02142334
1735323137324,2024-12-27T18:12:17.324Z,234626,0.020324707,0.14355469,0.024353027
1735323137333,2024-12-27T18:12:17.333Z,234635,0.01776123,0.14123535,0.027709961
1735323137343,2024-12-27T18:12:17.343Z,234645,0.015991211,0.14031982,0.024108887
1735323137352,2024-12-27T18:12:17.352Z,234654,0.016845703,0.14178467,0.020874023
1735323137361,2024-12-27T18:12:17.361Z,234663,0.019592285,0.14245605,0.020996094
1735323137367,2024-12-27T18:12:17.367Z,234669,0.021362305,0.14208984,0.019165039
1735323137376,2024-12-27T18:12:17.376Z,234678,0.021240234,0.1418457,0.019897461
1735323137384,2024-12-27T18:12:17.384Z,234686,0.02130127,0.13903809,0.024658203
1735323137450,2024-12-27T18:12:17.450Z,234752,0.019897461,0.13549805,0.026184082
1735323137457,2024-12-27T18:12:17.457Z,234759,0.016967773,0.13531494,0.022888184
1735323137463,2024-12-27T18:12:17.463Z,234765,0.014953613,0.137146,0.018920898
1735323137470,2024-12-27T18:12:17.470Z,234772,0.01776123,0.137146,0.018676758
1735323137477,2024-12-27T18:12:17.477Z,234779,0.019104004,0.13690186,0.019470215
1735323137483,2024-12-27T18:12:17.483Z,234785,0.016845703,0.13604736,0.020385742
1735323137500,2024-12-27T18:12:17.500Z,234802,0.018676758,0.1359253,0.019592285
1735323137507,2024-12-27T18:12:17.507Z,234809,0.018310547,0.1373291,0.01751709
1735323137514,2024-12-27T18:12:17.514Z,234816,0.017089844,0.13745117,0.019348145
1735323137521,2024-12-27T18:12:17.521Z,234823,0.018127441,0.1348877,0.022216797
1735323137527,2024-12-27T18:12:17.527Z,234829,0.018859863,0.13098145,0.02178955
1735323137540,2024-12-27T18:12:17.540Z,234842,0.018554688,0.12841797,0.019958496
1735323137547,2024-12-27T18:12:17.547Z,234849,0.016174316,0.12701416,0.016784668
1735323137553,2024-12-27T18:12:17.553Z,234855,0.016540527,0.12701416,0.013305664
1735323137560,2024-12-27T18:12:17.560Z,234862,0.01965332,0.12872314,0.016601562
1735323137566,2024-12-27T18:12:17.566Z,234868,0.02154541,0.12854004,0.01953125
1735323137572,2024-12-27T18:12:17.572Z,234874,0.01965332,0.12786865,0.021484375
1735323137589,2024-12-27T18:12:17.589Z,234891,0.018737793,0.1281128,0.02178955
1735323137596,2024-12-27T18:12:17.596Z,234898,0.017456055,0.12487793,0.020568848
1735323137603,2024-12-27T18:12:17.603Z,234905,0.015258789,0.12097168,0.019897461
1735323137609,2024-12-27T18:12:17.609Z,234911,0.013244629,0.11999512,0.015991211
1735323137615,2024-12-27T18:12:17.615Z,234917,0.01373291,0.11968994,0.013793945
1735323137630,2024-12-27T18:12:17.630Z,234932,0.016662598,0.119506836,0.01574707
1735323137637,2024-12-27T18:12:17.637Z,234939,0.017700195,0.1194458,0.017578125
1735323137653,2024-12-27T18:12:17.653Z,234955,0.020141602,0.1194458,0.01965332
1735323137659,2024-12-27T18:12:17.659Z,234961,0.02355957,0.12072754,0.018981934
1735323137666,2024-12-27T18:12:17.666Z,234968,0.02355957,0.12182617,0.017700195
1735323137674,2024-12-27T18:12:17.674Z,234976,0.020874023,0.11993408,0.017150879
1735323137682,2024-12-27T18:12:17.682Z,234984,0.016845703,0.11791992,0.019348145
1735323137693,2024-12-27T18:12:17.693Z,234995,0.011474609,0.11730957,0.020996094
1735323137701,2024-12-27T18:12:17.701Z,235003,0.01171875,0.115356445,0.019042969
1735323137723,2024-12-27T18:12:17.723Z,235025,0.017456055,0.11505127,0.016235352
1735323137729,2024-12-27T18:12:17.729Z,235031,0.019958496,0.11669922,0.01550293
1735323137736,2024-12-27T18:12:17.736Z,235038,0.018981934,0.11694336,0.015258789
1735323137744,2024-12-27T18:12:17.744Z,235046,0.018859863,0.117614746,0.014892578
1735323137752,2024-12-27T18:12:17.752Z,235054,0.018737793,0.11895752,0.015136719
1735323137765,2024-12-27T18:12:17.765Z,235067,0.01751709,0.11785889,0.018859863
1735323137771,2024-12-27T18:12:17.771Z,235073,0.01550293,0.115600586,0.020812988
1735323137780,2024-12-27T18:12:17.780Z,235082,0.013671875,0.11352539,0.020690918
1735323137787,2024-12-27T18:12:17.787Z,235089,0.013916016,0.11224365,0.021118164
1735323137810,2024-12-27T18:12:17.810Z,235112,0.015808105,0.11279297,0.018615723
1735323137819,2024-12-27T18:12:17.819Z,235121,0.01751709,0.11352539,0.016113281
1735323137829,2024-12-27T18:12:17.829Z,235131,0.019042969,0.113464355,0.0154418945
1735323137838,2024-12-27T18:12:17.838Z,235140,0.017456055,0.11187744,0.0146484375
1735323137844,2024-12-27T18:12:17.844Z,235146,0.015197754,0.11065674,0.014831543
1735323137856,2024-12-27T18:12:17.856Z,235158,0.015686035,0.11138916,0.016906738
1735323137865,2024-12-27T18:12:17.865Z,235167,0.016357422,0.11230469,0.020141602
1735323137872,2024-12-27T18:12:17.872Z,235174,0.018676758,0.11077881,0.023132324
1735323137879,2024-12-27T18:12:17.879Z,235181,0.021362305,0.11029053,0.024841309
1735323137902,2024-12-27T18:12:17.902Z,235204,0.019897461,0.11230469,0.024414062
1735323137909,2024-12-27T18:12:17.909Z,235211,0.019592285,0.11376953,0.022888184
1735323137917,2024-12-27T18:12:17.917Z,235219,0.019592285,0.11553955,0.019714355
1735323137925,2024-12-27T18:12:17.925Z,235227,0.016296387,0.115234375,0.018066406
1735323137947,2024-12-27T18:12:17.947Z,235249,0.010253906,0.11248779,0.018859863
1735323137956,2024-12-27T18:12:17.956Z,235258,0.010314941,0.11016846,0.019226074
1735323137967,2024-12-27T18:12:17.967Z,235269,0.016784668,0.11248779,0.018066406
1735323137977,2024-12-27T18:12:17.977Z,235279,0.01953125,0.11663818,0.01550293
1735323137983,2024-12-27T18:12:17.983Z,235285,0.017822266,0.117614746,0.014770508
1735323137989,2024-12-27T18:12:17.989Z,235291,0.017700195,0.11743164,0.016845703
1735323137995,2024-12-27T18:12:17.995Z,235297,0.019226074,0.11621094,0.020324707
1735323138001,2024-12-27T18:12:18.001Z,235303,0.018554688,0.113342285,0.02557373
1735323138009,2024-12-27T18:12:18.009Z,235311,0.015991211,0.1104126,0.03137207
1735323138035,2024-12-27T18:12:18.035Z,235337,0.014282227,0.11029053,0.029663086
1735323138041,2024-12-27T18:12:18.041Z,235343,0.016052246,0.11273193,0.022399902
1735323138047,2024-12-27T18:12:18.047Z,235349,0.020385742,0.11517334,0.017211914
1735323138053,2024-12-27T18:12:18.053Z,235355,0.02154541,0.11810303,0.016906738
1735323138059,2024-12-27T18:12:18.059Z,235361,0.021850586,0.12023926,0.016601562
1735323138080,2024-12-27T18:12:18.080Z,235382,0.022338867,0.12072754,0.018005371
1735323138087,2024-12-27T18:12:18.087Z,235389,0.020324707,0.11975098,0.022460938
1735323138093,2024-12-27T18:12:18.093Z,235395,0.016906738,0.11584473,0.026977539
1735323138100,2024-12-27T18:12:18.100Z,235402,0.013366699,0.11053467,0.028076172
1735323138126,2024-12-27T18:12:18.126Z,235428,0.013366699,0.10870361,0.02734375
1735323138133,2024-12-27T18:12:18.133Z,235435,0.014282227,0.111816406,0.023010254
1735323138140,2024-12-27T18:12:18.140Z,235442,0.0146484375,0.11517334,0.01763916
1735323138146,2024-12-27T18:12:18.146Z,235448,0.0178833,0.1159668,0.018066406
1735323138154,2024-12-27T18:12:18.154Z,235456,0.016784668,0.11633301,0.021057129
1735323138170,2024-12-27T18:12:18.170Z,235472,0.015991211,0.11682129,0.022949219
1735323138177,2024-12-27T18:12:18.177Z,235479,0.020019531,0.116882324,0.0234375
1735323138183,2024-12-27T18:12:18.183Z,235485,0.018432617,0.11431885,0.025756836
1735323138190,2024-12-27T18:12:18.190Z,235492,0.0134887695,0.11016846,0.026977539
1735323138216,2024-12-27T18:12:18.216Z,235518,0.015258789,0.10839844,0.025939941
1735323138307,2024-12-27T18:12:18.307Z,235609,0.018432617,0.10882568,0.025817871
1735323138315,2024-12-27T18:12:18.315Z,235617,0.01739502,0.109069824,0.022399902
1735323138321,2024-12-27T18:12:18.321Z,235623,0.015197754,0.11016846,0.022033691
1735323138328,2024-12-27T18:12:18.328Z,235630,0.015136719,0.11407471,0.02508545
1735323138336,2024-12-27T18:12:18.336Z,235638,0.019592285,0.117614746,0.026123047
1735323138343,2024-12-27T18:12:18.343Z,235645,0.020385742,0.11846924,0.026367188
1735323138357,2024-12-27T18:12:18.357Z,235659,0.016418457,0.11590576,0.028137207
1735323138364,2024-12-27T18:12:18.364Z,235666,0.01928711,0.112976074,0.030700684
1735323138371,2024-12-27T18:12:18.371Z,235673,0.019958496,0.111206055,0.028503418
1735323138377,2024-12-27T18:12:18.377Z,235679,0.012390137,0.109191895,0.024230957
1735323138383,2024-12-27T18:12:18.383Z,235685,0.013244629,0.11151123,0.02368164
1735323138394,2024-12-27T18:12:18.394Z,235696,0.018493652,0.11621094,0.023254395
1735323138398,2024-12-27T18:12:18.398Z,235700,0.016296387,0.115722656,0.025939941
1735323138405,2024-12-27T18:12:18.405Z,235707,0.013244629,0.11480713,0.028076172
1735323138412,2024-12-27T18:12:18.412Z,235714,0.015991211,0.11828613,0.027648926
1735323138420,2024-12-27T18:12:18.420Z,235722,0.017944336,0.11810303,0.028686523
1735323138426,2024-12-27T18:12:18.426Z,235728,0.016723633,0.11468506,0.029174805
1735323138440,2024-12-27T18:12:18.440Z,235742,0.016845703,0.112854004,0.027282715
1735323138446,2024-12-27T18:12:18.446Z,235748,0.017333984,0.11206055,0.026855469
1735323138453,2024-12-27T18:12:18.453Z,235755,0.0146484375,0.11224365,0.026306152
1735323138460,2024-12-27T18:12:18.460Z,235762,0.016906738,0.1138916,0.028686523
1735323138466,2024-12-27T18:12:18.466Z,235768,0.021484375,0.11517334,0.03161621
1735323138472,2024-12-27T18:12:18.472Z,235774,0.019897461,0.115356445,0.031677246
1735323138489,2024-12-27T18:12:18.489Z,235791,0.018737793,0.117370605,0.028198242
1735323138496,2024-12-27T18:12:18.496Z,235798,0.01953125,0.11920166,0.026855469
1735323138503,2024-12-27T18:12:18.503Z,235805,0.016906738,0.11694336,0.026245117
1735323138509,2024-12-27T18:12:18.509Z,235811,0.013366699,0.1149292,0.02355957
1735323138516,2024-12-27T18:12:18.516Z,235818,0.013916016,0.11627197,0.024353027
1735323138532,2024-12-27T18:12:18.532Z,235834,0.01751709,0.11993408,0.02545166
1735323138540,2024-12-27T18:12:18.540Z,235842,0.019226074,0.12072754,0.028320312
1735323138545,2024-12-27T18:12:18.545Z,235847,0.01751709,0.11871338,0.032714844
1735323138552,2024-12-27T18:12:18.552Z,235854,0.016296387,0.11804199,0.034484863
1735323138558,2024-12-27T18:12:18.558Z,235860,0.018188477,0.11804199,0.03161621
1735323138564,2024-12-27T18:12:18.564Z,235866,0.017944336,0.11694336,0.028686523
1735323138577,2024-12-27T18:12:18.577Z,235879,0.015075684,0.11590576,0.026672363
1735323138584,2024-12-27T18:12:18.584Z,235886,0.016174316,0.11578369,0.026672363
1735323138592,2024-12-27T18:12:18.592Z,235894,0.017944336,0.1171875,0.028564453
1735323138601,2024-12-27T18:12:18.601Z,235903,0.019836426,0.118774414,0.029846191
1735323138609,2024-12-27T18:12:18.609Z,235911,0.021728516,0.11804199,0.0289917
1735323138628,2024-12-27T18:12:18.628Z,235930,0.022888184,0.11425781,0.03149414
1735323138637,2024-12-27T18:12:18.637Z,235939,0.020446777,0.10998535,0.031066895
1735323138645,2024-12-27T18:12:18.645Z,235947,0.013916016,0.10882568,0.027404785
1735323138651,2024-12-27T18:12:18.651Z,235953,0.013244629,0.11065674,0.025939941
1735323138667,2024-12-27T18:12:18.667Z,235969,0.018005371,0.111572266,0.026733398
1735323138674,2024-12-27T18:12:18.674Z,235976,0.020202637,0.11468506,0.030456543
1735323138682,2024-12-27T18:12:18.682Z,235984,0.019592285,0.117248535,0.03302002
1735323138688,2024-12-27T18:12:18.688Z,235990,0.021606445,0.11376953,0.03326416
1735323138695,2024-12-27T18:12:18.695Z,235997,0.02368164,0.11291504,0.033447266
1735323138711,2024-12-27T18:12:18.711Z,236013,0.018920898,0.11419678,0.03186035
1735323138720,2024-12-27T18:12:18.720Z,236022,0.01361084,0.113342285,0.029541016
1735323138726,2024-12-27T18:12:18.726Z,236028,0.014404297,0.11407471,0.026550293
1735323138733,2024-12-27T18:12:18.733Z,236035,0.015319824,0.114990234,0.022460938
1735323138756,2024-12-27T18:12:18.756Z,236058,0.016845703,0.11657715,0.024108887
1735323138764,2024-12-27T18:12:18.764Z,236066,0.018981934,0.11981201,0.03125
1735323138771,2024-12-27T18:12:18.771Z,236073,0.020874023,0.12072754,0.036743164
1735323138778,2024-12-27T18:12:18.778Z,236080,0.022583008,0.11999512,0.038330078
1735323138785,2024-12-27T18:12:18.785Z,236087,0.02178955,0.11743164,0.036499023
1735323138800,2024-12-27T18:12:18.800Z,236102,0.018249512,0.114990234,0.03338623
1735323138807,2024-12-27T18:12:18.807Z,236109,0.012390137,0.11669922,0.026855469
1735323138816,2024-12-27T18:12:18.816Z,236118,0.0115356445,0.12158203,0.024230957
1735323138824,2024-12-27T18:12:18.824Z,236126,0.015930176,0.12524414,0.026428223
1735323138845,2024-12-27T18:12:18.845Z,236147,0.020080566,0.12158203,0.030578613
1735323138851,2024-12-27T18:12:18.851Z,236153,0.020629883,0.11920166,0.036010742
1735323138858,2024-12-27T18:12:18.858Z,236160,0.018432617,0.12036133,0.03643799
1735323138865,2024-12-27T18:12:18.865Z,236167,0.016662598,0.12023926,0.034057617
1735323138890,2024-12-27T18:12:18.890Z,236192,0.017700195,0.12017822,0.030883789
1735323138897,2024-12-27T18:12:18.897Z,236199,0.015625,0.119506836,0.027709961
1735323138904,2024-12-27T18:12:18.904Z,236206,0.013305664,0.120910645,0.026000977
1735323138910,2024-12-27T18:12:18.910Z,236212,0.014831543,0.121398926,0.025146484
1735323138917,2024-12-27T18:12:18.917Z,236219,0.018249512,0.12017822,0.027160645
1735323138936,2024-12-27T18:12:18.936Z,236238,0.019836426,0.11956787,0.029907227
1735323138943,2024-12-27T18:12:18.943Z,236245,0.019470215,0.11853027,0.03326416
1735323138951,2024-12-27T18:12:18.951Z,236253,0.018737793,0.11651611,0.034973145
1735323138958,2024-12-27T18:12:18.958Z,236260,0.017578125,0.11437988,0.03479004
1735323138981,2024-12-27T18:12:18.981Z,236283,0.016357422,0.11529541,0.032409668
1735323138989,2024-12-27T18:12:18.989Z,236291,0.017150879,0.11975098,0.028564453
1735323138995,2024-12-27T18:12:18.995Z,236297,0.018432617,0.121276855,0.028808594
1735323139002,2024-12-27T18:12:19.002Z,236304,0.018249512,0.119628906,0.030334473
1735323139009,2024-12-27T18:12:19.009Z,236311,0.017089844,0.11743164,0.031066895
1735323139025,2024-12-27T18:12:19.025Z,236327,0.016540527,0.11657715,0.030151367
1735323139032,2024-12-27T18:12:19.032Z,236334,0.018188477,0.11755371,0.031433105
1735323139039,2024-12-27T18:12:19.039Z,236341,0.018554688,0.119262695,0.03363037
1735323139046,2024-12-27T18:12:19.046Z,236348,0.018249512,0.12005615,0.034118652
1735323139073,2024-12-27T18:12:19.073Z,236375,0.018493652,0.11956787,0.03186035
1735323139079,2024-12-27T18:12:19.079Z,236381,0.018920898,0.118774414,0.030090332
1735323139086,2024-12-27T18:12:19.086Z,236388,0.018676758,0.11956787,0.030395508
1735323139093,2024-12-27T18:12:19.093Z,236395,0.018737793,0.121398926,0.030761719
1735323139099,2024-12-27T18:12:19.099Z,236401,0.019836426,0.12072754,0.032836914
1735323139115,2024-12-27T18:12:19.115Z,236417,0.020263672,0.119628906,0.034057617
1735323139122,2024-12-27T18:12:19.122Z,236424,0.018432617,0.1184082,0.032836914
1735323139129,2024-12-27T18:12:19.129Z,236431,0.017700195,0.119384766,0.029541016
1735323139136,2024-12-27T18:12:19.136Z,236438,0.01953125,0.12261963,0.028137207
1735323139163,2024-12-27T18:12:19.163Z,236465,0.019165039,0.122680664,0.028747559
1735323139172,2024-12-27T18:12:19.172Z,236474,0.016906738,0.12072754,0.029968262
1735323139178,2024-12-27T18:12:19.178Z,236480,0.018615723,0.11871338,0.031921387
1735323139187,2024-12-27T18:12:19.187Z,236489,0.019958496,0.118652344,0.033081055
1735323139206,2024-12-27T18:12:19.206Z,236508,0.01953125,0.118896484,0.03375244
1735323139213,2024-12-27T18:12:19.213Z,236515,0.020385742,0.11956787,0.034301758
1735323139220,2024-12-27T18:12:19.220Z,236522,0.021850586,0.119384766,0.034118652
1735323139228,2024-12-27T18:12:19.228Z,236530,0.020263672,0.1194458,0.03265381
1735323139234,2024-12-27T18:12:19.234Z,236536,0.01940918,0.1194458,0.03125
1735323139251,2024-12-27T18:12:19.251Z,236553,0.018493652,0.118896484,0.02935791
1735323139260,2024-12-27T18:12:19.260Z,236562,0.017089844,0.11907959,0.028564453
1735323139266,2024-12-27T18:12:19.266Z,236568,0.018249512,0.12036133,0.02935791
1735323139274,2024-12-27T18:12:19.274Z,236576,0.019470215,0.12121582,0.029724121
1735323139295,2024-12-27T18:12:19.295Z,236597,0.01940918,0.12042236,0.031677246
1735323139302,2024-12-27T18:12:19.302Z,236604,0.018920898,0.11853027,0.033569336
1735323139312,2024-12-27T18:12:19.312Z,236614,0.019042969,0.11798096,0.034729004
1735323139321,2024-12-27T18:12:19.321Z,236623,0.01776123,0.12054443,0.0335083
1735323139326,2024-12-27T18:12:19.326Z,236628,0.016845703,0.12158203,0.03100586
1735323139340,2024-12-27T18:12:19.340Z,236642,0.019714355,0.12005615,0.030029297
1735323139347,2024-12-27T18:12:19.347Z,236649,0.01965332,0.11920166,0.031433105
1735323139354,2024-12-27T18:12:19.354Z,236656,0.017333984,0.11883545,0.031921387
1735323139360,2024-12-27T18:12:19.360Z,236662,0.018127441,0.119628906,0.031677246
1735323139387,2024-12-27T18:12:19.387Z,236689,0.018676758,0.12023926,0.031982422
1735323139393,2024-12-27T18:12:19.393Z,236695,0.018737793,0.118652344,0.032714844
1735323139400,2024-12-27T18:12:19.400Z,236702,0.018310547,0.116882324,0.032470703
1735323139407,2024-12-27T18:12:19.407Z,236709,0.018432617,0.116760254,0.032409668
1735323139414,2024-12-27T18:12:19.414Z,236716,0.017150879,0.116882324,0.03326416
1735323139430,2024-12-27T18:12:19.430Z,236732,0.017089844,0.11657715,0.033325195
1735323139437,2024-12-27T18:12:19.437Z,236739,0.018920898,0.11779785,0.030761719
1735323139444,2024-12-27T18:12:19.444Z,236746,0.019226074,0.11816406,0.027954102
1735323139450,2024-12-27T18:12:19.450Z,236752,0.01928711,0.11743164,0.027526855
1735323139475,2024-12-27T18:12:19.475Z,236777,0.018798828,0.11608887,0.027832031
1735323139481,2024-12-27T18:12:19.481Z,236783,0.017578125,0.115722656,0.029968262
1735323139489,2024-12-27T18:12:19.489Z,236791,0.018005371,0.115478516,0.030761719
1735323139495,2024-12-27T18:12:19.495Z,236797,0.019836426,0.114990234,0.031677246
1735323139520,2024-12-27T18:12:19.520Z,236822,0.019042969,0.11553955,0.032348633
1735323139527,2024-12-27T18:12:19.527Z,236829,0.019042969,0.11578369,0.029724121
1735323139534,2024-12-27T18:12:19.534Z,236836,0.01953125,0.114868164,0.02758789
1735323139541,2024-12-27T18:12:19.541Z,236843,0.01977539,0.11376953,0.027526855
1735323139548,2024-12-27T18:12:19.548Z,236850,0.017944336,0.113098145,0.02758789
1735323139565,2024-12-27T18:12:19.565Z,236867,0.016967773,0.11193848,0.026855469
1735323139573,2024-12-27T18:12:19.573Z,236875,0.016479492,0.113464355,0.027404785
1735323139583,2024-12-27T18:12:19.583Z,236885,0.016967773,0.11383057,0.025756836
1735323139591,2024-12-27T18:12:19.591Z,236893,0.019714355,0.11248779,0.02508545
1735323139610,2024-12-27T18:12:19.610Z,236912,0.022155762,0.11242676,0.025817871
1735323139617,2024-12-27T18:12:19.617Z,236919,0.02142334,0.11230469,0.027832031
1735323139624,2024-12-27T18:12:19.624Z,236926,0.02142334,0.1126709,0.029785156
1735323139630,2024-12-27T18:12:19.630Z,236932,0.020812988,0.11383057,0.029296875
1735323139637,2024-12-27T18:12:19.637Z,236939,0.0178833,0.11364746,0.02520752
1735323139655,2024-12-27T18:12:19.655Z,236957,0.01739502,0.11230469,0.02319336
1735323139661,2024-12-27T18:12:19.661Z,236963,0.020385742,0.11340332,0.022888184
1735323139668,2024-12-27T18:12:19.668Z,236970,0.018676758,0.11590576,0.024597168
1735323139675,2024-12-27T18:12:19.675Z,236977,0.016967773,0.115722656,0.0256958
1735323139703,2024-12-27T18:12:19.703Z,237005,0.018920898,0.115234375,0.02709961
1735323139710,2024-12-27T18:12:19.710Z,237012,0.020202637,0.11468506,0.026306152
1735323139717,2024-12-27T18:12:19.717Z,237019,0.018371582,0.113464355,0.024291992
1735323139725,2024-12-27T18:12:19.725Z,237027,0.01977539,0.11621094,0.02520752
1735323139732,2024-12-27T18:12:19.732Z,237034,0.02130127,0.11804199,0.025817871
1735323139744,2024-12-27T18:12:19.744Z,237046,0.01928711,0.11480713,0.024291992
1735323139751,2024-12-27T18:12:19.751Z,237053,0.01739502,0.11291504,0.022399902
1735323139758,2024-12-27T18:12:19.758Z,237060,0.018859863,0.11517334,0.021057129
1735323139764,2024-12-27T18:12:19.764Z,237066,0.020507812,0.11682129,0.02319336
1735323139789,2024-12-27T18:12:19.789Z,237091,0.018310547,0.11401367,0.022521973
1735323139795,2024-12-27T18:12:19.795Z,237097,0.01763916,0.113708496,0.020935059
1735323139801,2024-12-27T18:12:19.801Z,237103,0.018859863,0.11755371,0.023254395
1735323139808,2024-12-27T18:12:19.808Z,237110,0.020507812,0.115234375,0.024780273
1735323139835,2024-12-27T18:12:19.835Z,237137,0.019470215,0.11291504,0.026611328
1735323139842,2024-12-27T18:12:19.842Z,237144,0.019042969,0.11407471,0.026855469
1735323139850,2024-12-27T18:12:19.850Z,237152,0.016845703,0.1126709,0.02319336
1735323139858,2024-12-27T18:12:19.858Z,237160,0.014587402,0.11279297,0.020263672
1735323139865,2024-12-27T18:12:19.865Z,237167,0.018371582,0.11755371,0.020690918
1735323139880,2024-12-27T18:12:19.880Z,237182,0.022705078,0.121032715,0.023376465
1735323139886,2024-12-27T18:12:19.886Z,237188,0.020996094,0.11810303,0.022460938
1735323139893,2024-12-27T18:12:19.893Z,237195,0.018005371,0.113220215,0.020263672
1735323139899,2024-12-27T18:12:19.899Z,237201,0.01763916,0.11248779,0.020629883
1735323139926,2024-12-27T18:12:19.926Z,237228,0.015136719,0.11340332,0.021240234
1735323139932,2024-12-27T18:12:19.932Z,237234,0.013549805,0.11364746,0.019104004
1735323139940,2024-12-27T18:12:19.940Z,237242,0.017028809,0.11859131,0.021606445
1735323139949,2024-12-27T18:12:19.949Z,237251,0.020019531,0.119140625,0.023925781
1735323139962,2024-12-27T18:12:19.962Z,237264,0.020019531,0.11364746,0.023376465
1735323139970,2024-12-27T18:12:19.970Z,237272,0.021606445,0.11291504,0.023254395
1735323139977,2024-12-27T18:12:19.977Z,237279,0.020324707,0.11798096,0.023742676
1735323139984,2024-12-27T18:12:19.984Z,237286,0.01751709,0.11785889,0.0211792
1735323139991,2024-12-27T18:12:19.991Z,237293,0.0178833,0.116882324,0.020812988
1735323140014,2024-12-27T18:12:20.014Z,237316,0.017700195,0.11993408,0.019897461
1735323140021,2024-12-27T18:12:20.021Z,237323,0.017333984,0.12213135,0.01977539
1735323140027,2024-12-27T18:12:20.027Z,237329,0.019836426,0.122680664,0.021240234
1735323140032,2024-12-27T18:12:20.032Z,237334,0.019042969,0.12072754,0.019714355
1735323140039,2024-12-27T18:12:20.039Z,237341,0.017028809,0.11816406,0.016906738
1735323140064,2024-12-27T18:12:20.064Z,237366,0.01574707,0.119506836,0.016662598
1735323140077,2024-12-27T18:12:20.077Z,237379,0.01574707,0.12188721,0.018554688
1735323140090,2024-12-27T18:12:20.090Z,237392,0.0178833,0.12463379,0.01965332
1735323140098,2024-12-27T18:12:20.098Z,237400,0.019348145,0.12713623,0.022399902
1735323140107,2024-12-27T18:12:20.107Z,237409,0.020446777,0.12677002,0.023742676
1735323140113,2024-12-27T18:12:20.113Z,237415,0.02142334,0.123535156,0.020690918
1735323140120,2024-12-27T18:12:20.120Z,237422,0.020751953,0.12213135,0.018493652
1735323140127,2024-12-27T18:12:20.127Z,237429,0.018005371,0.122558594,0.016784668
1735323140151,2024-12-27T18:12:20.151Z,237453,0.015319824,0.123535156,0.015686035
1735323140157,2024-12-27T18:12:20.157Z,237459,0.0146484375,0.12359619,0.016967773
1735323140163,2024-12-27T18:12:20.163Z,237465,0.016113281,0.12213135,0.018066406
1735323140169,2024-12-27T18:12:20.169Z,237471,0.0178833,0.12072754,0.016479492
1735323140176,2024-12-27T18:12:20.176Z,237478,0.020507812,0.121154785,0.016540527
1735323140196,2024-12-27T18:12:20.196Z,237498,0.021362305,0.12225342,0.01940918
1735323140203,2024-12-27T18:12:20.203Z,237505,0.021850586,0.12310791,0.02142334
1735323140210,2024-12-27T18:12:20.210Z,237512,0.02178955,0.122802734,0.022094727
1735323140216,2024-12-27T18:12:20.216Z,237518,0.019836426,0.121398926,0.020996094
1735323140240,2024-12-27T18:12:20.240Z,237542,0.015319824,0.1194458,0.016662598
1735323140246,2024-12-27T18:12:20.246Z,237548,0.012878418,0.11853027,0.013061523
1735323140253,2024-12-27T18:12:20.253Z,237555,0.014343262,0.11920166,0.010986328
1735323140260,2024-12-27T18:12:20.260Z,237562,0.015808105,0.11981201,0.010803223
1735323140266,2024-12-27T18:12:20.266Z,237568,0.017456055,0.12005615,0.013061523
1735323140285,2024-12-27T18:12:20.285Z,237587,0.021850586,0.11956787,0.015991211
1735323140292,2024-12-27T18:12:20.292Z,237594,0.023254395,0.119506836,0.019958496
1735323140297,2024-12-27T18:12:20.297Z,237599,0.020996094,0.11907959,0.02154541
1735323140304,2024-12-27T18:12:20.304Z,237606,0.018493652,0.11846924,0.02178955
1735323140332,2024-12-27T18:12:20.332Z,237634,0.016845703,0.119018555,0.020080566
1735323140339,2024-12-27T18:12:20.339Z,237641,0.0178833,0.12030029,0.016357422
1735323140345,2024-12-27T18:12:20.345Z,237647,0.0178833,0.12060547,0.012756348
1735323140351,2024-12-27T18:12:20.351Z,237653,0.014831543,0.119506836,0.010131836
1735323140357,2024-12-27T18:12:20.357Z,237659,0.016601562,0.119018555,0.010986328
1735323140376,2024-12-27T18:12:20.376Z,237678,0.021850586,0.120666504,0.012390137
1735323140382,2024-12-27T18:12:20.382Z,237684,0.020996094,0.121032715,0.013000488
1735323140389,2024-12-27T18:12:20.389Z,237691,0.018676758,0.120666504,0.015625
1735323140396,2024-12-27T18:12:20.396Z,237698,0.019226074,0.120666504,0.018798828
1735323140423,2024-12-27T18:12:20.423Z,237725,0.017944336,0.12158203,0.01727295
1735323140429,2024-12-27T18:12:20.429Z,237731,0.016540527,0.12243652,0.0138549805
1735323140436,2024-12-27T18:12:20.436Z,237738,0.016601562,0.12261963,0.012084961
1735323140443,2024-12-27T18:12:20.443Z,237745,0.01977539,0.1237793,0.010986328
1735323140464,2024-12-27T18:12:20.464Z,237766,0.021118164,0.12408447,0.011962891
1735323140470,2024-12-27T18:12:20.470Z,237772,0.018615723,0.12384033,0.013244629
1735323140477,2024-12-27T18:12:20.477Z,237779,0.018859863,0.1251831,0.015380859
1735323140483,2024-12-27T18:12:20.483Z,237785,0.01977539,0.124816895,0.015197754
1735323140491,2024-12-27T18:12:20.491Z,237793,0.01763916,0.12182617,0.014221191
1735323140509,2024-12-27T18:12:20.509Z,237811,0.015136719,0.122802734,0.01184082
1735323140515,2024-12-27T18:12:20.515Z,237817,0.017150879,0.124572754,0.010314941
1735323140521,2024-12-27T18:12:20.521Z,237823,0.018493652,0.12335205,0.011047363
1735323140527,2024-12-27T18:12:20.527Z,237829,0.017456055,0.12237549,0.011779785
1735323140554,2024-12-27T18:12:20.554Z,237856,0.019470215,0.12213135,0.013000488
1735323140603,2024-12-27T18:12:20.603Z,237905,0.02130127,0.12237549,0.014892578
1735323140616,2024-12-27T18:12:20.616Z,237918,0.020690918,0.122558594,0.016601562
1735323140632,2024-12-27T18:12:20.632Z,237934,0.018676758,0.123046875,0.019042969
1735323140645,2024-12-27T18:12:20.645Z,237947,0.017822266,0.122680664,0.016906738
1735323140658,2024-12-27T18:12:20.658Z,237960,0.017456055,0.122558594,0.011657715
1735323140669,2024-12-27T18:12:20.669Z,237971,0.016662598,0.12414551,0.0068969727
1735323140678,2024-12-27T18:12:20.678Z,237980,0.0178833,0.12408447,0.0073242188
1735323140685,2024-12-27T18:12:20.685Z,237987,0.020935059,0.12384033,0.011474609
1735323140693,2024-12-27T18:12:20.693Z,237995,0.01928711,0.12347412,0.01361084
1735323140703,2024-12-27T18:12:20.703Z,238005,0.015625,0.12243652,0.012207031
1735323140711,2024-12-27T18:12:20.711Z,238013,0.013671875,0.12261963,0.009399414
1735323140716,2024-12-27T18:12:20.716Z,238018,0.015808105,0.123535156,0.009765625
1735323140721,2024-12-27T18:12:20.721Z,238023,0.020385742,0.12414551,0.009643555
1735323140728,2024-12-27T18:12:20.728Z,238030,0.01928711,0.12347412,0.010131836
1735323140734,2024-12-27T18:12:20.734Z,238036,0.018249512,0.12225342,0.011230469
1735323140741,2024-12-27T18:12:20.741Z,238043,0.01965332,0.12237549,0.012084961
1735323140750,2024-12-27T18:12:20.750Z,238052,0.020080566,0.122802734,0.013122559
1735323140756,2024-12-27T18:12:20.756Z,238058,0.019226074,0.12158203,0.0134887695
1735323140762,2024-12-27T18:12:20.762Z,238064,0.017700195,0.12176514,0.0126953125
1735323140767,2024-12-27T18:12:20.767Z,238069,0.016662598,0.123413086,0.013305664
1735323140773,2024-12-27T18:12:20.773Z,238075,0.01739502,0.12158203,0.012756348
1735323140781,2024-12-27T18:12:20.781Z,238083,0.018310547,0.12060547,0.011779785
1735323140786,2024-12-27T18:12:20.786Z,238088,0.018798828,0.122924805,0.011352539
1735323140826,2024-12-27T18:12:20.826Z,238128,0.021240234,0.12432861,0.010192871
1735323140833,2024-12-27T18:12:20.833Z,238135,0.019897461,0.123168945,0.008972168
1735323140840,2024-12-27T18:12:20.840Z,238142,0.018371582,0.12188721,0.010803223
1735323140847,2024-12-27T18:12:20.847Z,238149,0.018127441,0.1227417,0.011108398
1735323140853,2024-12-27T18:12:20.853Z,238155,0.016784668,0.12512207,0.009765625
1735323140860,2024-12-27T18:12:20.860Z,238162,0.016723633,0.1251831,0.0119018555
1735323140873,2024-12-27T18:12:20.873Z,238175,0.0178833,0.123535156,0.0134887695
1735323140879,2024-12-27T18:12:20.879Z,238181,0.018249512,0.12347412,0.012512207
1735323140884,2024-12-27T18:12:20.884Z,238186,0.018310547,0.12634277,0.012329102
1735323140890,2024-12-27T18:12:20.890Z,238192,0.018432617,0.12750244,0.010253906
1735323140896,2024-12-27T18:12:20.896Z,238198,0.019165039,0.12609863,0.009521484
1735323140915,2024-12-27T18:12:20.915Z,238217,0.019042969,0.12591553,0.0099487305
1735323140920,2024-12-27T18:12:20.920Z,238222,0.017456055,0.12585449,0.008911133
1735323140926,2024-12-27T18:12:20.926Z,238228,0.017456055,0.12463379,0.008239746
1735323140932,2024-12-27T18:12:20.932Z,238234,0.017578125,0.124816895,0.0107421875
1735323140938,2024-12-27T18:12:20.938Z,238240,0.018798828,0.124938965,0.01171875
1735323140960,2024-12-27T18:12:20.960Z,238262,0.018066406,0.1251831,0.010986328
1735323140967,2024-12-27T18:12:20.967Z,238269,0.018432617,0.1260376,0.010803223
1735323140974,2024-12-27T18:12:20.974Z,238276,0.019470215,0.12634277,0.0119018555
1735323140980,2024-12-27T18:12:20.980Z,238282,0.018798828,0.12597656,0.011962891
1735323140986,2024-12-27T18:12:20.986Z,238288,0.016906738,0.12512207,0.011291504
1735323141005,2024-12-27T18:12:21.005Z,238307,0.017211914,0.12426758,0.011108398
1735323141011,2024-12-27T18:12:21.011Z,238313,0.017944336,0.12548828,0.011352539
1735323141017,2024-12-27T18:12:21.017Z,238319,0.016784668,0.12774658,0.0107421875
1735323141024,2024-12-27T18:12:21.024Z,238326,0.015930176,0.12664795,0.008972168
1735323141050,2024-12-27T18:12:21.050Z,238352,0.016906738,0.12567139,0.009216309
1735323141056,2024-12-27T18:12:21.056Z,238358,0.01940918,0.12640381,0.011962891
1735323141062,2024-12-27T18:12:21.062Z,238364,0.019592285,0.12670898,0.01171875
1735323141068,2024-12-27T18:12:21.068Z,238370,0.018066406,0.12683105,0.010559082
1735323141094,2024-12-27T18:12:21.094Z,238396,0.01751709,0.1272583,0.010375977
1735323141104,2024-12-27T18:12:21.104Z,238406,0.017028809,0.12805176,0.010559082
1735323141111,2024-12-27T18:12:21.111Z,238413,0.016174316,0.12878418,0.010437012
1735323141117,2024-12-27T18:12:21.117Z,238419,0.016540527,0.12841797,0.010314941
1735323141124,2024-12-27T18:12:21.124Z,238426,0.018615723,0.12713623,0.010437012
1735323141140,2024-12-27T18:12:21.140Z,238442,0.020629883,0.12780762,0.011962891
1735323141148,2024-12-27T18:12:21.148Z,238450,0.020446777,0.12878418,0.011779785
1735323141154,2024-12-27T18:12:21.154Z,238456,0.018310547,0.1293335,0.01184082
1735323141161,2024-12-27T18:12:21.161Z,238463,0.016113281,0.13110352,0.011047363
1735323141184,2024-12-27T18:12:21.184Z,238486,0.017211914,0.12994385,0.010192871
1735323141192,2024-12-27T18:12:21.192Z,238494,0.019104004,0.12860107,0.008911133
1735323141198,2024-12-27T18:12:21.198Z,238500,0.015930176,0.1305542,0.0053100586
1735323141205,2024-12-27T18:12:21.205Z,238507,0.016113281,0.13098145,0.0053100586
1735323141213,2024-12-27T18:12:21.213Z,238515,0.019958496,0.12957764,0.0099487305
1735323141229,2024-12-27T18:12:21.229Z,238531,0.018676758,0.12878418,0.012084961
1735323141235,2024-12-27T18:12:21.235Z,238537,0.017211914,0.1281128,0.0126953125
1735323141241,2024-12-27T18:12:21.241Z,238543,0.016357422,0.12805176,0.013183594
1735323141246,2024-12-27T18:12:21.246Z,238548,0.016052246,0.12982178,0.013000488
1735323141276,2024-12-27T18:12:21.276Z,238578,0.017028809,0.13153076,0.01361084
1735323141283,2024-12-27T18:12:21.283Z,238585,0.019592285,0.13061523,0.013061523
1735323141289,2024-12-27T18:12:21.289Z,238591,0.021057129,0.12939453,0.012023926
1735323141299,2024-12-27T18:12:21.299Z,238601,0.019714355,0.12915039,0.0099487305
1735323141305,2024-12-27T18:12:21.305Z,238607,0.016052246,0.12884521,0.007507324
1735323141320,2024-12-27T18:12:21.320Z,238622,0.015380859,0.13024902,0.008728027
1735323141327,2024-12-27T18:12:21.327Z,238629,0.0178833,0.1307373,0.009155273
1735323141333,2024-12-27T18:12:21.333Z,238635,0.018493652,0.13098145,0.009033203
1735323141338,2024-12-27T18:12:21.338Z,238640,0.016723633,0.1326294,0.010986328
1735323141366,2024-12-27T18:12:21.366Z,238668,0.018493652,0.13116455,0.012878418
1735323141372,2024-12-27T18:12:21.372Z,238674,0.020996094,0.12939453,0.0138549805
1735323141378,2024-12-27T18:12:21.378Z,238680,0.018676758,0.13134766,0.012817383
1735323141384,2024-12-27T18:12:21.384Z,238686,0.014404297,0.13195801,0.011657715
1735323141410,2024-12-27T18:12:21.410Z,238712,0.015686035,0.13061523,0.010864258
1735323141416,2024-12-27T18:12:21.416Z,238718,0.018798828,0.13165283,0.010437012
1735323141423,2024-12-27T18:12:21.423Z,238725,0.017211914,0.13311768,0.011779785
1735323141430,2024-12-27T18:12:21.430Z,238732,0.0178833,0.1303711,0.011657715
1735323141436,2024-12-27T18:12:21.436Z,238738,0.01977539,0.13067627,0.012573242
1735323141455,2024-12-27T18:12:21.455Z,238757,0.019592285,0.13244629,0.012573242
1735323141461,2024-12-27T18:12:21.461Z,238763,0.0178833,0.13098145,0.009155273
1735323141466,2024-12-27T18:12:21.466Z,238768,0.016540527,0.13031006,0.0076904297
1735323141472,2024-12-27T18:12:21.472Z,238774,0.016418457,0.12994385,0.010192871
1735323141501,2024-12-27T18:12:21.501Z,238803,0.016845703,0.12945557,0.013183594
1735323141508,2024-12-27T18:12:21.508Z,238810,0.017150879,0.1295166,0.014526367
1735323141514,2024-12-27T18:12:21.514Z,238816,0.019836426,0.1307373,0.016784668
1735323141520,2024-12-27T18:12:21.520Z,238822,0.021484375,0.13183594,0.016906738
1735323141527,2024-12-27T18:12:21.527Z,238829,0.018920898,0.13079834,0.015014648
1735323141545,2024-12-27T18:12:21.545Z,238847,0.01550293,0.1293335,0.010925293
1735323141551,2024-12-27T18:12:21.551Z,238853,0.014099121,0.1307373,0.007080078
1735323141557,2024-12-27T18:12:21.557Z,238859,0.014770508,0.13018799,0.0053100586
1735323141564,2024-12-27T18:12:21.564Z,238866,0.017700195,0.12805176,0.005859375
1735323141591,2024-12-27T18:12:21.591Z,238893,0.01940918,0.12841797,0.010314941
1735323141597,2024-12-27T18:12:21.597Z,238899,0.020141602,0.13061523,0.016235352
1735323141604,2024-12-27T18:12:21.604Z,238906,0.021362305,0.13031006,0.020812988
1735323141613,2024-12-27T18:12:21.613Z,238915,0.021728516,0.13018799,0.019592285
1735323141622,2024-12-27T18:12:21.622Z,238924,0.01739502,0.13006592,0.014343262
1735323141636,2024-12-27T18:12:21.636Z,238938,0.0146484375,0.12902832,0.01184082
1735323141643,2024-12-27T18:12:21.643Z,238945,0.01586914,0.12713623,0.008544922
1735323141650,2024-12-27T18:12:21.650Z,238952,0.016052246,0.1274414,0.0075683594
1735323141656,2024-12-27T18:12:21.656Z,238958,0.019470215,0.13092041,0.012023926
1735323141680,2024-12-27T18:12:21.680Z,238982,0.023803711,0.13250732,0.0178833
1735323141726,2024-12-27T18:12:21.726Z,239028,0.022888184,0.13049316,0.01965332
1735323141733,2024-12-27T18:12:21.733Z,239035,0.018798828,0.12854004,0.015808105
1735323141739,2024-12-27T18:12:21.739Z,239041,0.01574707,0.1295166,0.013977051
1735323141748,2024-12-27T18:12:21.748Z,239050,0.014892578,0.13006592,0.012268066
1735323141762,2024-12-27T18:12:21.762Z,239064,0.016235352,0.1296997,0.011169434
1735323141768,2024-12-27T18:12:21.768Z,239070,0.020080566,0.1305542,0.0134887695
1735323141777,2024-12-27T18:12:21.777Z,239079,0.021850586,0.13134766,0.0146484375
1735323141782,2024-12-27T18:12:21.782Z,239084,0.021484375,0.13189697,0.013366699
1735323141788,2024-12-27T18:12:21.788Z,239090,0.020996094,0.1303711,0.014404297
1735323141794,2024-12-27T18:12:21.794Z,239096,0.019470215,0.12939453,0.016845703
1735323141798,2024-12-27T18:12:21.798Z,239100,0.018981934,0.1293335,0.019104004
1735323141814,2024-12-27T18:12:21.814Z,239116,0.018310547,0.13024902,0.019897461
1735323141819,2024-12-27T18:12:21.819Z,239121,0.018676758,0.13220215,0.016357422
1735323141824,2024-12-27T18:12:21.824Z,239126,0.020690918,0.13256836,0.013671875
1735323141829,2024-12-27T18:12:21.829Z,239131,0.0211792,0.13238525,0.012939453
1735323141836,2024-12-27T18:12:21.836Z,239138,0.021911621,0.13330078,0.014404297
1735323141842,2024-12-27T18:12:21.842Z,239144,0.020202637,0.13458252,0.01574707
1735323141863,2024-12-27T18:12:21.863Z,239165,0.016784668,0.13494873,0.0146484375
1735323141872,2024-12-27T18:12:21.872Z,239174,0.016418457,0.13421631,0.014770508
1735323141878,2024-12-27T18:12:21.878Z,239180,0.018981934,0.13330078,0.016113281
1735323141883,2024-12-27T18:12:21.883Z,239185,0.022155762,0.13397217,0.018493652
1735323141905,2024-12-27T18:12:21.905Z,239207,0.02166748,0.13616943,0.018554688
1735323141911,2024-12-27T18:12:21.911Z,239213,0.019958496,0.13781738,0.016540527
1735323141917,2024-12-27T18:12:21.917Z,239219,0.019042969,0.13787842,0.014465332
1735323141922,2024-12-27T18:12:21.922Z,239224,0.018981934,0.13848877,0.01361084
1735323141928,2024-12-27T18:12:21.928Z,239230,0.01940918,0.14025879,0.012145996
1735323141951,2024-12-27T18:12:21.951Z,239253,0.020751953,0.13861084,0.013366699
1735323141958,2024-12-27T18:12:21.958Z,239260,0.022949219,0.13537598,0.015930176
1735323141965,2024-12-27T18:12:21.965Z,239267,0.021118164,0.1359253,0.016662598
1735323141972,2024-12-27T18:12:21.972Z,239274,0.019165039,0.13702393,0.018066406
1735323141995,2024-12-27T18:12:21.995Z,239297,0.020019531,0.13983154,0.018005371
1735323142002,2024-12-27T18:12:22.002Z,239304,0.022277832,0.14227295,0.015930176
1735323142008,2024-12-27T18:12:22.008Z,239310,0.022277832,0.14416504,0.016784668
1735323142017,2024-12-27T18:12:22.017Z,239319,0.020263672,0.14178467,0.01727295
1735323142041,2024-12-27T18:12:22.041Z,239343,0.019836426,0.13848877,0.016296387
1735323142048,2024-12-27T18:12:22.048Z,239350,0.018615723,0.13952637,0.01550293
1735323142057,2024-12-27T18:12:22.057Z,239359,0.017944336,0.14093018,0.014221191
1735323142065,2024-12-27T18:12:22.065Z,239367,0.021057129,0.14251709,0.014831543
1735323142073,2024-12-27T18:12:22.073Z,239375,0.023620605,0.14465332,0.018432617
1735323142085,2024-12-27T18:12:22.085Z,239387,0.020446777,0.14331055,0.019897461
1735323142093,2024-12-27T18:12:22.093Z,239395,0.018249512,0.14038086,0.017150879
1735323142101,2024-12-27T18:12:22.101Z,239403,0.019348145,0.13867188,0.01574707
1735323142108,2024-12-27T18:12:22.108Z,239410,0.02154541,0.14031982,0.01550293
1735323142131,2024-12-27T18:12:22.131Z,239433,0.020996094,0.1428833,0.015563965
1735323142136,2024-12-27T18:12:22.136Z,239438,0.020874023,0.1437378,0.015991211
1735323142143,2024-12-27T18:12:22.143Z,239445,0.021240234,0.14355469,0.017822266
1735323142149,2024-12-27T18:12:22.149Z,239451,0.021118164,0.14123535,0.020324707
1735323142154,2024-12-27T18:12:22.154Z,239456,0.022521973,0.13946533,0.020996094
1735323142175,2024-12-27T18:12:22.175Z,239477,0.01940918,0.14031982,0.016540527
1735323142183,2024-12-27T18:12:22.183Z,239485,0.015808105,0.1416626,0.012207031
1735323142189,2024-12-27T18:12:22.189Z,239491,0.017456055,0.14257812,0.011352539
1735323142195,2024-12-27T18:12:22.195Z,239497,0.019836426,0.14227295,0.0126953125
1735323142219,2024-12-27T18:12:22.219Z,239521,0.021972656,0.14123535,0.014709473
1735323142225,2024-12-27T18:12:22.225Z,239527,0.022216797,0.14172363,0.016723633
1735323142232,2024-12-27T18:12:22.232Z,239534,0.020202637,0.14257812,0.01928711
1735323142237,2024-12-27T18:12:22.237Z,239539,0.019958496,0.13995361,0.020019531
1735323142244,2024-12-27T18:12:22.244Z,239546,0.018188477,0.13690186,0.018432617
1735323142264,2024-12-27T18:12:22.264Z,239566,0.016296387,0.1362915,0.015319824
1735323142270,2024-12-27T18:12:22.270Z,239572,0.01776123,0.13800049,0.015380859
1735323142276,2024-12-27T18:12:22.276Z,239578,0.020080566,0.13806152,0.015380859
1735323142283,2024-12-27T18:12:22.283Z,239585,0.020690918,0.13781738,0.016052246
1735323142309,2024-12-27T18:12:22.309Z,239611,0.020385742,0.13739014,0.017578125
1735323142315,2024-12-27T18:12:22.315Z,239617,0.018676758,0.13421631,0.017211914
1735323142321,2024-12-27T18:12:22.321Z,239623,0.017333984,0.13134766,0.014465332
1735323142328,2024-12-27T18:12:22.328Z,239630,0.016174316,0.13232422,0.0138549805
1735323142358,2024-12-27T18:12:22.358Z,239660,0.015075684,0.13372803,0.0134887695
1735323142364,2024-12-27T18:12:22.364Z,239666,0.015930176,0.13134766,0.012756348
1735323142371,2024-12-27T18:12:22.371Z,239673,0.01928711,0.12982178,0.0119018555
1735323142378,2024-12-27T18:12:22.378Z,239680,0.020690918,0.12921143,0.013305664
1735323142384,2024-12-27T18:12:22.384Z,239686,0.020935059,0.12658691,0.018188477
1735323142400,2024-12-27T18:12:22.400Z,239702,0.021484375,0.12347412,0.020629883
1735323142406,2024-12-27T18:12:22.406Z,239708,0.020935059,0.124938965,0.018310547
1735323142413,2024-12-27T18:12:22.413Z,239715,0.019897461,0.12713623,0.016357422
1735323142419,2024-12-27T18:12:22.419Z,239721,0.017578125,0.12475586,0.015136719
1735323142445,2024-12-27T18:12:22.445Z,239747,0.013549805,0.121276855,0.011291504
1735323142451,2024-12-27T18:12:22.451Z,239753,0.014587402,0.12164307,0.010803223
1735323142458,2024-12-27T18:12:22.458Z,239760,0.018798828,0.12530518,0.012756348
1735323142464,2024-12-27T18:12:22.464Z,239766,0.020080566,0.1262207,0.01550293
1735323142473,2024-12-27T18:12:22.473Z,239775,0.020141602,0.123046875,0.016784668
1735323142493,2024-12-27T18:12:22.493Z,239795,0.019470215,0.12011719,0.016662598
1735323142502,2024-12-27T18:12:22.502Z,239804,0.016418457,0.11932373,0.015380859
1735323142509,2024-12-27T18:12:22.509Z,239811,0.013793945,0.11993408,0.011962891
1735323142516,2024-12-27T18:12:22.516Z,239818,0.016967773,0.12121582,0.01171875
1735323142535,2024-12-27T18:12:22.535Z,239837,0.020507812,0.12384033,0.015319824
1735323142542,2024-12-27T18:12:22.542Z,239844,0.018676758,0.12365723,0.016418457
1735323142548,2024-12-27T18:12:22.548Z,239850,0.017700195,0.121276855,0.0146484375
1735323142554,2024-12-27T18:12:22.554Z,239856,0.020812988,0.12023926,0.013549805
1735323142561,2024-12-27T18:12:22.561Z,239863,0.020507812,0.12023926,0.012207031
1735323142581,2024-12-27T18:12:22.581Z,239883,0.01751709,0.121032715,0.01159668
1735323142591,2024-12-27T18:12:22.591Z,239893,0.017089844,0.12084961,0.01373291
1735323142597,2024-12-27T18:12:22.597Z,239899,0.018798828,0.11810303,0.015075684
1735323142606,2024-12-27T18:12:22.606Z,239908,0.019104004,0.11651611,0.014953613
1735323142629,2024-12-27T18:12:22.629Z,239931,0.019165039,0.118652344,0.014953613
1735323142636,2024-12-27T18:12:22.636Z,239938,0.018188477,0.12036133,0.014099121
1735323142647,2024-12-27T18:12:22.647Z,239949,0.018432617,0.11981201,0.012878418
1735323142653,2024-12-27T18:12:22.653Z,239955,0.019714355,0.11791992,0.013061523
1735323142669,2024-12-27T18:12:22.669Z,239971,0.018676758,0.11682129,0.013793945
1735323142674,2024-12-27T18:12:22.674Z,239976,0.01586914,0.117126465,0.014221191
1735323142682,2024-12-27T18:12:22.682Z,239984,0.01928711,0.11755371,0.017028809
1735323142690,2024-12-27T18:12:22.690Z,239992,0.022644043,0.11920166,0.018859863
1735323142697,2024-12-27T18:12:22.697Z,239999,0.020751953,0.11798096,0.016479492
1735323142714,2024-12-27T18:12:22.714Z,240016,0.01776123,0.11450195,0.014038086
1735323142719,2024-12-27T18:12:22.719Z,240021,0.01776123,0.113098145,0.012145996
1735323142725,2024-12-27T18:12:22.725Z,240027,0.018249512,0.11566162,0.011474609
1735323142730,2024-12-27T18:12:22.730Z,240032,0.017211914,0.119140625,0.012023926
1735323142759,2024-12-27T18:12:22.759Z,240061,0.01940918,0.12084961,0.014404297
1735323142765,2024-12-27T18:12:22.765Z,240067,0.02178955,0.11968994,0.018371582
1735323142770,2024-12-27T18:12:22.770Z,240072,0.022216797,0.11602783,0.020568848
1735323142777,2024-12-27T18:12:22.777Z,240079,0.020568848,0.113098145,0.021728516
1735323142783,2024-12-27T18:12:22.783Z,240085,0.019348145,0.113098145,0.020690918
1735323142804,2024-12-27T18:12:22.804Z,240106,0.015197754,0.11584473,0.018615723
1735323142810,2024-12-27T18:12:22.810Z,240112,0.012878418,0.11828613,0.014099121
1735323142817,2024-12-27T18:12:22.817Z,240119,0.01586914,0.11791992,0.009033203
1735323142823,2024-12-27T18:12:22.823Z,240125,0.020080566,0.117248535,0.009887695
1735323142850,2024-12-27T18:12:22.850Z,240152,0.023925781,0.1184082,0.015625
1735323142856,2024-12-27T18:12:22.856Z,240158,0.02355957,0.11798096,0.019226074
1735323142863,2024-12-27T18:12:22.863Z,240165,0.021850586,0.115600586,0.019348145
1735323142869,2024-12-27T18:12:22.869Z,240171,0.020812988,0.114746094,0.019958496
1735323142875,2024-12-27T18:12:22.875Z,240177,0.022155762,0.11425781,0.01940918
1735323142894,2024-12-27T18:12:22.894Z,240196,0.02166748,0.113098145,0.020080566
1735323142899,2024-12-27T18:12:22.899Z,240201,0.019348145,0.11303711,0.021362305
1735323142905,2024-12-27T18:12:22.905Z,240207,0.019348145,0.114746094,0.017822266
1735323142911,2024-12-27T18:12:22.911Z,240213,0.021728516,0.11791992,0.014770508
1735323142939,2024-12-27T18:12:22.939Z,240241,0.022827148,0.12176514,0.016052246
1735323142945,2024-12-27T18:12:22.945Z,240247,0.020874023,0.12023926,0.018188477
1735323142950,2024-12-27T18:12:22.950Z,240252,0.017700195,0.11352539,0.019714355
1735323142956,2024-12-27T18:12:22.956Z,240258,0.014953613,0.1081543,0.018371582
1735323142985,2024-12-27T18:12:22.985Z,240287,0.01727295,0.10736084,0.016845703
1735323142991,2024-12-27T18:12:22.991Z,240293,0.02142334,0.11090088,0.014465332
1735323142998,2024-12-27T18:12:22.998Z,240300,0.021850586,0.11505127,0.012817383
1735323143004,2024-12-27T18:12:23.004Z,240306,0.024536133,0.11682129,0.017822266
1735323143010,2024-12-27T18:12:23.010Z,240312,0.02734375,0.1182251,0.023864746
1735323143030,2024-12-27T18:12:23.030Z,240332,0.024658203,0.11816406,0.025268555
1735323143038,2024-12-27T18:12:23.038Z,240340,0.021362305,0.114746094,0.026489258
1735323143045,2024-12-27T18:12:23.045Z,240347,0.01776123,0.11077881,0.026000977
1735323143052,2024-12-27T18:12:23.052Z,240354,0.01550293,0.10760498,0.01965332
1735323143074,2024-12-27T18:12:23.074Z,240376,0.016784668,0.105529785,0.016967773
1735323143080,2024-12-27T18:12:23.080Z,240382,0.016723633,0.10638428,0.014343262
1735323143086,2024-12-27T18:12:23.086Z,240388,0.014465332,0.109191895,0.016906738
1735323143095,2024-12-27T18:12:23.095Z,240397,0.02154541,0.113586426,0.021911621
1735323143106,2024-12-27T18:12:23.106Z,240408,0.027648926,0.117492676,0.023742676
1735323143123,2024-12-27T18:12:23.123Z,240425,0.026672363,0.11743164,0.024963379
1735323143134,2024-12-27T18:12:23.134Z,240436,0.02130127,0.11462402,0.026367188
1735323143140,2024-12-27T18:12:23.140Z,240442,0.017578125,0.11230469,0.029418945
1735323143147,2024-12-27T18:12:23.147Z,240449,0.01977539,0.11022949,0.027770996
1735323143257,2024-12-27T18:12:23.257Z,240559,0.028503418,0.10571289,0.023010254
1735323143263,2024-12-27T18:12:23.263Z,240565,0.032470703,0.10357666,0.017822266
1735323143269,2024-12-27T18:12:23.269Z,240571,0.027770996,0.107788086,0.014282227
1735323143276,2024-12-27T18:12:23.276Z,240578,0.024963379,0.11175537,0.016479492
1735323143283,2024-12-27T18:12:23.283Z,240585,0.025817871,0.11352539,0.023986816
1735323143289,2024-12-27T18:12:23.289Z,240591,0.02947998,0.11541748,0.027404785
1735323143305,2024-12-27T18:12:23.305Z,240607,0.028381348,0.113342285,0.028076172
1735323143313,2024-12-27T18:12:23.313Z,240615,0.024108887,0.10949707,0.031433105
1735323143321,2024-12-27T18:12:23.321Z,240623,0.02331543,0.109069824,0.031677246
1735323143328,2024-12-27T18:12:23.328Z,240630,0.023620605,0.110839844,0.02947998
1735323143335,2024-12-27T18:12:23.335Z,240637,0.026428223,0.11053467,0.023864746
1735323143344,2024-12-27T18:12:23.344Z,240646,0.022827148,0.11419678,0.021057129
1735323143395,2024-12-27T18:12:23.395Z,240697,0.023925781,0.11456299,0.024230957
1735323143409,2024-12-27T18:12:23.409Z,240711,0.024108887,0.11260986,0.026489258
1735323143417,2024-12-27T18:12:23.417Z,240719,0.02319336,0.1126709,0.031677246
1735323143425,2024-12-27T18:12:23.425Z,240727,0.021728516,0.117370605,0.033447266
1735323143430,2024-12-27T18:12:23.430Z,240732,0.025512695,0.11633301,0.031677246
1735323143438,2024-12-27T18:12:23.438Z,240740,0.02722168,0.11291504,0.028808594
1735323143443,2024-12-27T18:12:23.443Z,240745,0.025512695,0.11273193,0.025939941
1735323143449,2024-12-27T18:12:23.449Z,240751,0.024414062,0.11273193,0.021362305
1735323143453,2024-12-27T18:12:23.453Z,240755,0.02557373,0.113220215,0.022949219
1735323143460,2024-12-27T18:12:23.460Z,240762,0.026489258,0.11236572,0.027893066
1735323143465,2024-12-27T18:12:23.465Z,240767,0.02545166,0.1116333,0.03302002
1735323143481,2024-12-27T18:12:23.481Z,240783,0.022949219,0.113464355,0.032165527
1735323143488,2024-12-27T18:12:23.488Z,240790,0.022399902,0.11242676,0.026367188
1735323143494,2024-12-27T18:12:23.494Z,240796,0.02319336,0.11425781,0.0211792
1735323143500,2024-12-27T18:12:23.500Z,240802,0.025939941,0.11657715,0.021850586
1735323143507,2024-12-27T18:12:23.507Z,240809,0.02709961,0.115234375,0.022033691
1735323143514,2024-12-27T18:12:23.514Z,240816,0.026306152,0.11175537,0.026306152
1735323143528,2024-12-27T18:12:23.528Z,240830,0.024169922,0.10992432,0.03149414
1735323143535,2024-12-27T18:12:23.535Z,240837,0.022827148,0.10821533,0.034606934
1735323143540,2024-12-27T18:12:23.540Z,240842,0.021972656,0.109680176,0.034301758
1735323143545,2024-12-27T18:12:23.545Z,240847,0.023376465,0.11151123,0.029296875
1735323143551,2024-12-27T18:12:23.551Z,240853,0.0256958,0.11248779,0.02557373
1735323143572,2024-12-27T18:12:23.572Z,240874,0.02545166,0.11529541,0.026245117
1735323143578,2024-12-27T18:12:23.578Z,240880,0.026000977,0.1161499,0.026306152
1735323143585,2024-12-27T18:12:23.585Z,240887,0.027770996,0.114746094,0.029907227
1735323143592,2024-12-27T18:12:23.592Z,240894,0.027404785,0.11456299,0.03253174
1735323143598,2024-12-27T18:12:23.598Z,240900,0.024047852,0.113098145,0.030761719
1735323143604,2024-12-27T18:12:23.604Z,240906,0.022277832,0.110961914,0.030761719
1735323143618,2024-12-27T18:12:23.618Z,240920,0.021118164,0.112976074,0.030212402
1735323143624,2024-12-27T18:12:23.624Z,240926,0.020996094,0.1184082,0.028686523
1735323143629,2024-12-27T18:12:23.629Z,240931,0.025024414,0.121276855,0.028869629
1735323143635,2024-12-27T18:12:23.635Z,240937,0.025634766,0.119384766,0.027832031
1735323143640,2024-12-27T18:12:23.640Z,240942,0.024475098,0.11669922,0.028564453
1735323143660,2024-12-27T18:12:23.660Z,240962,0.024780273,0.117614746,0.032409668
1735323143666,2024-12-27T18:12:23.666Z,240968,0.025817871,0.119262695,0.03375244
1735323143671,2024-12-27T18:12:23.671Z,240973,0.024963379,0.11975098,0.032958984
1735323143676,2024-12-27T18:12:23.676Z,240978,0.02178955,0.1194458,0.031555176
1735323143682,2024-12-27T18:12:23.682Z,240984,0.022277832,0.11669922,0.028442383
1735323143705,2024-12-27T18:12:23.705Z,241007,0.023986816,0.11364746,0.024902344
1735323143712,2024-12-27T18:12:23.712Z,241014,0.02319336,0.114990234,0.026428223
1735323143718,2024-12-27T18:12:23.718Z,241020,0.023620605,0.1184082,0.031066895
1735323143729,2024-12-27T18:12:23.729Z,241031,0.024963379,0.119628906,0.03277588
1735323143739,2024-12-27T18:12:23.739Z,241041,0.02545166,0.119384766,0.034362793
1735323143754,2024-12-27T18:12:23.754Z,241056,0.024658203,0.11730957,0.03375244
1735323143763,2024-12-27T18:12:23.763Z,241065,0.02142334,0.114746094,0.031311035
1735323143769,2024-12-27T18:12:23.769Z,241071,0.019165039,0.11444092,0.02935791
1735323143776,2024-12-27T18:12:23.776Z,241078,0.02154541,0.11541748,0.028381348
1735323143795,2024-12-27T18:12:23.795Z,241097,0.023376465,0.11578369,0.028625488
1735323143802,2024-12-27T18:12:23.802Z,241104,0.02355957,0.11694336,0.031982422
1735323143808,2024-12-27T18:12:23.808Z,241110,0.022766113,0.118896484,0.034729004
1735323143815,2024-12-27T18:12:23.815Z,241117,0.02355957,0.11816406,0.036315918
1735323143821,2024-12-27T18:12:23.821Z,241123,0.024719238,0.117370605,0.03527832
1735323143884,2024-12-27T18:12:23.884Z,241186,0.022155762,0.11755371,0.030639648
1735323143895,2024-12-27T18:12:23.895Z,241197,0.016113281,0.11608887,0.02911377
1735323143905,2024-12-27T18:12:23.905Z,241207,0.017028809,0.115112305,0.027832031
1735323143911,2024-12-27T18:12:23.911Z,241213,0.020874023,0.116882324,0.030151367
1735323143917,2024-12-27T18:12:23.917Z,241219,0.021728516,0.117370605,0.030700684
1735323143924,2024-12-27T18:12:23.924Z,241226,0.022338867,0.11590576,0.030639648
1735323143934,2024-12-27T18:12:23.934Z,241236,0.02331543,0.1171875,0.032287598
1735323143939,2024-12-27T18:12:23.939Z,241241,0.023132324,0.11907959,0.034851074
1735323143945,2024-12-27T18:12:23.945Z,241247,0.02166748,0.1184082,0.035095215
1735323143952,2024-12-27T18:12:23.952Z,241254,0.020690918,0.11590576,0.034851074
1735323143957,2024-12-27T18:12:23.957Z,241259,0.019836426,0.114868164,0.034240723
1735323143975,2024-12-27T18:12:23.975Z,241277,0.020629883,0.116760254,0.03149414
1735323143983,2024-12-27T18:12:23.983Z,241285,0.020263672,0.11798096,0.03100586
1735323143989,2024-12-27T18:12:23.989Z,241291,0.018371582,0.11779785,0.03277588
1735323143996,2024-12-27T18:12:23.996Z,241298,0.01928711,0.11791992,0.034240723
1735323144003,2024-12-27T18:12:24.003Z,241305,0.018920898,0.118896484,0.03326416
1735323144010,2024-12-27T18:12:24.010Z,241312,0.018371582,0.12011719,0.032287598
1735323144023,2024-12-27T18:12:24.023Z,241325,0.018432617,0.118896484,0.030639648
1735323144028,2024-12-27T18:12:24.028Z,241330,0.018005371,0.11627197,0.030578613
1735323144033,2024-12-27T18:12:24.033Z,241335,0.017944336,0.115112305,0.03137207
1735323144038,2024-12-27T18:12:24.038Z,241340,0.018310547,0.11401367,0.031066895
1735323144043,2024-12-27T18:12:24.043Z,241345,0.018859863,0.11395264,0.03137207
1735323144065,2024-12-27T18:12:24.065Z,241367,0.019042969,0.11437988,0.032226562
1735323144071,2024-12-27T18:12:24.071Z,241373,0.018127441,0.11425781,0.03253174
1735323144077,2024-12-27T18:12:24.077Z,241379,0.018066406,0.11376953,0.03253174
1735323144083,2024-12-27T18:12:24.083Z,241385,0.019958496,0.11401367,0.031433105
1735323144111,2024-12-27T18:12:24.111Z,241413,0.019348145,0.11608887,0.029663086
1735323144118,2024-12-27T18:12:24.118Z,241420,0.01928711,0.11553955,0.030761719
1735323144124,2024-12-27T18:12:24.124Z,241426,0.020996094,0.113586426,0.033691406
1735323144129,2024-12-27T18:12:24.129Z,241431,0.01977539,0.11187744,0.032836914
1735323144135,2024-12-27T18:12:24.135Z,241437,0.016296387,0.11077881,0.032104492
1735323144154,2024-12-27T18:12:24.154Z,241456,0.016052246,0.11175537,0.033081055
1735323144159,2024-12-27T18:12:24.159Z,241461,0.018432617,0.11553955,0.03173828
1735323144166,2024-12-27T18:12:24.166Z,241468,0.019348145,0.118774414,0.030578613
1735323144171,2024-12-27T18:12:24.171Z,241473,0.01953125,0.11883545,0.029418945
1735323144200,2024-12-27T18:12:24.200Z,241502,0.01965332,0.11743164,0.030761719
1735323144205,2024-12-27T18:12:24.205Z,241507,0.018493652,0.11645508,0.032958984
1735323144211,2024-12-27T18:12:24.211Z,241513,0.0178833,0.116882324,0.03149414
1735323144218,2024-12-27T18:12:24.218Z,241520,0.017456055,0.11956787,0.029846191
1735323144247,2024-12-27T18:12:24.247Z,241549,0.01776123,0.12023926,0.02935791
1735323144253,2024-12-27T18:12:24.253Z,241555,0.017822266,0.11828613,0.027404785
1735323144259,2024-12-27T18:12:24.259Z,241561,0.01928711,0.11859131,0.027770996
1735323144266,2024-12-27T18:12:24.266Z,241568,0.018493652,0.12023926,0.02935791
1735323144272,2024-12-27T18:12:24.272Z,241574,0.018127441,0.11883545,0.03253174
1735323144289,2024-12-27T18:12:24.289Z,241591,0.017456055,0.11743164,0.033203125
1735323144296,2024-12-27T18:12:24.296Z,241598,0.015686035,0.11694336,0.03125
1735323144302,2024-12-27T18:12:24.302Z,241604,0.015136719,0.1171875,0.02935791
1735323144308,2024-12-27T18:12:24.308Z,241610,0.015380859,0.11834717,0.029663086
1735323144335,2024-12-27T18:12:24.335Z,241637,0.01739502,0.11755371,0.030151367
1735323144341,2024-12-27T18:12:24.341Z,241643,0.017150879,0.11621094,0.028320312
1735323144348,2024-12-27T18:12:24.348Z,241650,0.017944336,0.117126465,0.026367188
1735323144354,2024-12-27T18:12:24.354Z,241656,0.021057129,0.11755371,0.02709961
1735323144359,2024-12-27T18:12:24.359Z,241661,0.020019531,0.11663818,0.029052734
1735323144379,2024-12-27T18:12:24.379Z,241681,0.018005371,0.115722656,0.032592773
1735323144385,2024-12-27T18:12:24.385Z,241687,0.01727295,0.11505127,0.033813477
1735323144390,2024-12-27T18:12:24.390Z,241692,0.016296387,0.11431885,0.032714844
1735323144397,2024-12-27T18:12:24.397Z,241699,0.016540527,0.115356445,0.02947998
1735323144424,2024-12-27T18:12:24.424Z,241726,0.018005371,0.118652344,0.02557373
1735323144430,2024-12-27T18:12:24.430Z,241732,0.018920898,0.11956787,0.024291992
1735323144436,2024-12-27T18:12:24.436Z,241738,0.017822266,0.11859131,0.024902344
1735323144440,2024-12-27T18:12:24.440Z,241742,0.0178833,0.11773682,0.027160645
1735323144447,2024-12-27T18:12:24.447Z,241749,0.018920898,0.119628906,0.028259277
1735323144469,2024-12-27T18:12:24.469Z,241771,0.017456055,0.12176514,0.030029297
1735323144474,2024-12-27T18:12:24.474Z,241776,0.015563965,0.11816406,0.030517578
1735323144481,2024-12-27T18:12:24.481Z,241783,0.014770508,0.113220215,0.028381348
1735323144486,2024-12-27T18:12:24.486Z,241788,0.016357422,0.11578369,0.024841309
1735323144515,2024-12-27T18:12:24.515Z,241817,0.018615723,0.123413086,0.025390625
1735323144520,2024-12-27T18:12:24.520Z,241822,0.01928711,0.1251831,0.028747559
1735323144525,2024-12-27T18:12:24.525Z,241827,0.018310547,0.11993408,0.029907227
1735323144532,2024-12-27T18:12:24.532Z,241834,0.018066406,0.117126465,0.02947998
1735323144561,2024-12-27T18:12:24.561Z,241863,0.017578125,0.1184082,0.028625488
1735323144568,2024-12-27T18:12:24.568Z,241870,0.016296387,0.119628906,0.027160645
1735323144574,2024-12-27T18:12:24.574Z,241876,0.016235352,0.12030029,0.0256958
1735323144581,2024-12-27T18:12:24.581Z,241883,0.016845703,0.120666504,0.02545166
1735323144587,2024-12-27T18:12:24.587Z,241889,0.016784668,0.11981201,0.025146484
1735323144605,2024-12-27T18:12:24.605Z,241907,0.01751709,0.1182251,0.025390625
1735323144611,2024-12-27T18:12:24.611Z,241913,0.018127441,0.117248535,0.026794434
1735323144617,2024-12-27T18:12:24.617Z,241919,0.016662598,0.11779785,0.028320312
1735323144623,2024-12-27T18:12:24.623Z,241925,0.01727295,0.11920166,0.028625488
1735323144652,2024-12-27T18:12:24.652Z,241954,0.018859863,0.12023926,0.026977539
1735323144695,2024-12-27T18:12:24.695Z,241997,0.018737793,0.11798096,0.026489258
1735323144702,2024-12-27T18:12:24.702Z,242004,0.015808105,0.11444092,0.026550293
1735323144709,2024-12-27T18:12:24.709Z,242011,0.013916016,0.11407471,0.022827148
1735323144716,2024-12-27T18:12:24.716Z,242018,0.01751709,0.11846924,0.0211792
1735323144722,2024-12-27T18:12:24.722Z,242024,0.021606445,0.1237793,0.02166748
1735323144728,2024-12-27T18:12:24.728Z,242030,0.019104004,0.122802734,0.0234375
1735323144743,2024-12-27T18:12:24.743Z,242045,0.017456055,0.117126465,0.02508545
1735323144751,2024-12-27T18:12:24.751Z,242053,0.01751709,0.11437988,0.026855469
1735323144757,2024-12-27T18:12:24.757Z,242059,0.01550293,0.11468506,0.026245117
1735323144764,2024-12-27T18:12:24.764Z,242066,0.013000488,0.11694336,0.022277832
1735323144771,2024-12-27T18:12:24.771Z,242073,0.012451172,0.120666504,0.020751953
1735323144785,2024-12-27T18:12:24.785Z,242087,0.014892578,0.12042236,0.022216797
1735323144791,2024-12-27T18:12:24.791Z,242093,0.016662598,0.11730957,0.020324707
1735323144797,2024-12-27T18:12:24.797Z,242099,0.018249512,0.1161499,0.019226074
1735323144803,2024-12-27T18:12:24.803Z,242105,0.019348145,0.117492676,0.022277832
1735323144809,2024-12-27T18:12:24.809Z,242111,0.019958496,0.11834717,0.023986816
1735323144815,2024-12-27T18:12:24.815Z,242117,0.019165039,0.12005615,0.023803711
1735323144836,2024-12-27T18:12:24.836Z,242138,0.016113281,0.121276855,0.024169922
1735323144842,2024-12-27T18:12:24.842Z,242144,0.0154418945,0.11987305,0.022338867
1735323144848,2024-12-27T18:12:24.848Z,242150,0.01739502,0.118896484,0.019897461
1735323144855,2024-12-27T18:12:24.855Z,242157,0.0178833,0.118896484,0.018859863
1735323144860,2024-12-27T18:12:24.860Z,242162,0.016296387,0.12011719,0.017150879
1735323144875,2024-12-27T18:12:24.875Z,242177,0.016174316,0.12219238,0.015075684
1735323144882,2024-12-27T18:12:24.882Z,242184,0.01727295,0.12231445,0.016540527
1735323144888,2024-12-27T18:12:24.888Z,242190,0.016174316,0.12030029,0.018188477
1735323144893,2024-12-27T18:12:24.893Z,242195,0.014404297,0.119506836,0.020324707
1735323144920,2024-12-27T18:12:24.920Z,242222,0.016601562,0.11981201,0.019836426
1735323144925,2024-12-27T18:12:24.925Z,242227,0.020812988,0.120788574,0.020385742
1735323144932,2024-12-27T18:12:24.932Z,242234,0.021118164,0.121276855,0.020690918
1735323144939,2024-12-27T18:12:24.939Z,242241,0.017456055,0.12084961,0.019470215
1735323144964,2024-12-27T18:12:24.964Z,242266,0.014465332,0.11981201,0.019592285
1735323144970,2024-12-27T18:12:24.970Z,242272,0.014831543,0.11828613,0.018005371
1735323144975,2024-12-27T18:12:24.975Z,242277,0.016052246,0.120666504,0.016235352
1735323144983,2024-12-27T18:12:24.983Z,242285,0.014892578,0.123291016,0.014526367
1735323144991,2024-12-27T18:12:24.991Z,242293,0.015258789,0.121276855,0.012634277
1735323145011,2024-12-27T18:12:25.011Z,242313,0.01763916,0.11816406,0.012512207
1735323145019,2024-12-27T18:12:25.019Z,242321,0.018554688,0.11968994,0.013793945
1735323145024,2024-12-27T18:12:25.024Z,242326,0.018371582,0.12158203,0.017150879
1735323145032,2024-12-27T18:12:25.032Z,242334,0.01763916,0.12145996,0.018737793
1735323145054,2024-12-27T18:12:25.054Z,242356,0.017089844,0.12121582,0.018981934
1735323145060,2024-12-27T18:12:25.060Z,242362,0.01586914,0.120666504,0.019104004
1735323145067,2024-12-27T18:12:25.067Z,242369,0.015258789,0.11932373,0.016357422
1735323145072,2024-12-27T18:12:25.072Z,242374,0.015258789,0.11846924,0.013366699
1735323145078,2024-12-27T18:12:25.078Z,242380,0.015686035,0.11932373,0.01373291
1735323145100,2024-12-27T18:12:25.100Z,242402,0.01751709,0.119628906,0.015258789
1735323145106,2024-12-27T18:12:25.106Z,242408,0.019042969,0.118774414,0.015319824
1735323145112,2024-12-27T18:12:25.112Z,242414,0.018554688,0.11871338,0.015258789
1735323145118,2024-12-27T18:12:25.118Z,242420,0.018127441,0.11895752,0.01574707
1735323145144,2024-12-27T18:12:25.144Z,242446,0.016601562,0.11920166,0.016296387
1735323145151,2024-12-27T18:12:25.151Z,242453,0.01550293,0.12005615,0.015625
1735323145156,2024-12-27T18:12:25.156Z,242458,0.016723633,0.12182617,0.014587402
1735323145163,2024-12-27T18:12:25.163Z,242465,0.017700195,0.12207031,0.012878418
1735323145189,2024-12-27T18:12:25.189Z,242491,0.018005371,0.121276855,0.012878418
1735323145194,2024-12-27T18:12:25.194Z,242496,0.018493652,0.11975098,0.013061523
1735323145201,2024-12-27T18:12:25.201Z,242503,0.01727295,0.1194458,0.01184082
1735323145207,2024-12-27T18:12:25.207Z,242509,0.016662598,0.11956787,0.012329102
1735323145212,2024-12-27T18:12:25.212Z,242514,0.01776123,0.12017822,0.012939453
1735323145234,2024-12-27T18:12:25.234Z,242536,0.01739502,0.12231445,0.013427734
1735323145239,2024-12-27T18:12:25.239Z,242541,0.015625,0.1237793,0.014892578
1735323145245,2024-12-27T18:12:25.245Z,242547,0.0154418945,0.12408447,0.014770508
1735323145252,2024-12-27T18:12:25.252Z,242554,0.016540527,0.122558594,0.014038086
1735323145281,2024-12-27T18:12:25.281Z,242583,0.018737793,0.12164307,0.013671875
1735323145287,2024-12-27T18:12:25.287Z,242589,0.018859863,0.12109375,0.012939453
1735323145292,2024-12-27T18:12:25.292Z,242594,0.016967773,0.12176514,0.011169434
1735323145298,2024-12-27T18:12:25.298Z,242600,0.016784668,0.122802734,0.010681152
1735323145305,2024-12-27T18:12:25.305Z,242607,0.018005371,0.122802734,0.011352539
1735323145324,2024-12-27T18:12:25.324Z,242626,0.017822266,0.12286377,0.013122559
1735323145330,2024-12-27T18:12:25.330Z,242632,0.01550293,0.124694824,0.013793945
1735323145336,2024-12-27T18:12:25.336Z,242638,0.015258789,0.12445068,0.012451172
1735323145343,2024-12-27T18:12:25.343Z,242645,0.018737793,0.12371826,0.012084961
1735323145369,2024-12-27T18:12:25.369Z,242671,0.019836426,0.1237793,0.013549805
1735323145374,2024-12-27T18:12:25.374Z,242676,0.018859863,0.12402344,0.015380859
1735323145380,2024-12-27T18:12:25.380Z,242682,0.018188477,0.123535156,0.014709473
1735323145387,2024-12-27T18:12:25.387Z,242689,0.018249512,0.12261963,0.013061523
1735323145395,2024-12-27T18:12:25.395Z,242697,0.018615723,0.12164307,0.012145996
1735323145415,2024-12-27T18:12:25.415Z,242717,0.017333984,0.12322998,0.011779785
1735323145421,2024-12-27T18:12:25.421Z,242723,0.015991211,0.12390137,0.010559082
1735323145464,2024-12-27T18:12:25.464Z,242766,0.016479492,0.12347412,0.010314941
1735323145478,2024-12-27T18:12:25.478Z,242780,0.017150879,0.122924805,0.009094238
1735323145488,2024-12-27T18:12:25.488Z,242790,0.016784668,0.12261963,0.008605957
1735323145507,2024-12-27T18:12:25.507Z,242809,0.016540527,0.12261963,0.009338379
1735323145512,2024-12-27T18:12:25.512Z,242814,0.017456055,0.12207031,0.011169434
1735323145519,2024-12-27T18:12:25.519Z,242821,0.0178833,0.120666504,0.012634277
1735323145527,2024-12-27T18:12:25.527Z,242829,0.016479492,0.12030029,0.012390137
1735323145534,2024-12-27T18:12:25.534Z,242836,0.017944336,0.12249756,0.013244629
1735323145551,2024-12-27T18:12:25.551Z,242853,0.019592285,0.12414551,0.013305664
1735323145558,2024-12-27T18:12:25.558Z,242860,0.01953125,0.12365723,0.013000488
1735323145565,2024-12-27T18:12:25.565Z,242867,0.019104004,0.123291016,0.012573242
1735323145572,2024-12-27T18:12:25.572Z,242874,0.018249512,0.12310791,0.012451172
1735323145577,2024-12-27T18:12:25.577Z,242879,0.01776123,0.12207031,0.008972168
1735323145583,2024-12-27T18:12:25.583Z,242885,0.01751709,0.122924805,0.0061035156
1735323145601,2024-12-27T18:12:25.601Z,242903,0.017333984,0.12475586,0.0076904297
1735323145610,2024-12-27T18:12:25.610Z,242912,0.01727295,0.12408447,0.0107421875
1735323145616,2024-12-27T18:12:25.616Z,242918,0.018554688,0.12243652,0.012268066
1735323145622,2024-12-27T18:12:25.622Z,242924,0.018737793,0.122680664,0.012878418
1735323145628,2024-12-27T18:12:25.628Z,242930,0.017578125,0.122924805,0.013366699
1735323145641,2024-12-27T18:12:25.641Z,242943,0.018310547,0.12213135,0.012573242
1735323145649,2024-12-27T18:12:25.649Z,242951,0.019104004,0.12261963,0.009765625
1735323145656,2024-12-27T18:12:25.656Z,242958,0.018615723,0.12451172,0.008178711
1735323145661,2024-12-27T18:12:25.661Z,242963,0.016723633,0.123413086,0.007446289
1735323145666,2024-12-27T18:12:25.666Z,242968,0.017089844,0.121154785,0.009338379
1735323145685,2024-12-27T18:12:25.685Z,242987,0.018737793,0.1217041,0.011962891
1735323145691,2024-12-27T18:12:25.691Z,242993,0.018371582,0.12359619,0.012878418
1735323145696,2024-12-27T18:12:25.696Z,242998,0.018127441,0.12432861,0.013183594
1735323145702,2024-12-27T18:12:25.702Z,243004,0.020812988,0.12506104,0.013244629
1735323145707,2024-12-27T18:12:25.707Z,243009,0.019958496,0.12634277,0.010620117
1735323145730,2024-12-27T18:12:25.730Z,243032,0.016235352,0.12634277,0.0068969727
1735323145736,2024-12-27T18:12:25.736Z,243038,0.016113281,0.125,0.006652832
1735323145741,2024-12-27T18:12:25.741Z,243043,0.020263672,0.12426758,0.009033203
1735323145747,2024-12-27T18:12:25.747Z,243049,0.018798828,0.12646484,0.008728027
1735323145774,2024-12-27T18:12:25.774Z,243076,0.01776123,0.1282959,0.008483887
1735323145820,2024-12-27T18:12:25.820Z,243122,0.020019531,0.12854004,0.011779785
1735323145827,2024-12-27T18:12:25.827Z,243129,0.020507812,0.12921143,0.011291504
1735323145834,2024-12-27T18:12:25.834Z,243136,0.019165039,0.12896729,0.011169434
1735323145842,2024-12-27T18:12:25.842Z,243144,0.020141602,0.1305542,0.012817383
1735323145848,2024-12-27T18:12:25.848Z,243150,0.019226074,0.13238525,0.0119018555
1735323145855,2024-12-27T18:12:25.855Z,243157,0.016540527,0.1315918,0.008544922
1735323145870,2024-12-27T18:12:25.870Z,243172,0.016662598,0.12902832,0.005432129
1735323145875,2024-12-27T18:12:25.875Z,243177,0.018493652,0.12915039,0.0051879883
1735323145882,2024-12-27T18:12:25.882Z,243184,0.018310547,0.13067627,0.007507324
1735323145888,2024-12-27T18:12:25.888Z,243190,0.017700195,0.1315918,0.008666992
1735323145893,2024-12-27T18:12:25.893Z,243195,0.01751709,0.13171387,0.010925293
1735323145909,2024-12-27T18:12:25.909Z,243211,0.018493652,0.13104248,0.013183594
1735323145955,2024-12-27T18:12:25.955Z,243257,0.018554688,0.12982178,0.012268066
1735323145961,2024-12-27T18:12:25.961Z,243263,0.01739502,0.13006592,0.01159668
1735323145966,2024-12-27T18:12:25.966Z,243268,0.016967773,0.13012695,0.010375977
1735323145971,2024-12-27T18:12:25.971Z,243273,0.016540527,0.12835693,0.0075683594
1735323145976,2024-12-27T18:12:25.976Z,243278,0.01586914,0.12689209,0.0064086914
1735323145983,2024-12-27T18:12:25.983Z,243285,0.015075684,0.1274414,0.006713867
1735323146005,2024-12-27T18:12:26.005Z,243307,0.018737793,0.12774658,0.008361816
1735323146013,2024-12-27T18:12:26.013Z,243315,0.021057129,0.1282959,0.010864258
1735323146019,2024-12-27T18:12:26.019Z,243321,0.019165039,0.1274414,0.012878418
1735323146025,2024-12-27T18:12:26.025Z,243327,0.018859863,0.1281128,0.013122559
1735323146032,2024-12-27T18:12:26.032Z,243334,0.019470215,0.12921143,0.011779785
1735323146044,2024-12-27T18:12:26.044Z,243346,0.0178833,0.12750244,0.009887695
1735323146054,2024-12-27T18:12:26.054Z,243356,0.01586914,0.124938965,0.008300781
1735323146060,2024-12-27T18:12:26.060Z,243362,0.014770508,0.12567139,0.0064086914
1735323146069,2024-12-27T18:12:26.069Z,243371,0.016723633,0.12646484,0.0063476562
1735323146075,2024-12-27T18:12:26.075Z,243377,0.01940918,0.1281128,0.008056641
1735323146080,2024-12-27T18:12:26.080Z,243382,0.018737793,0.13012695,0.009765625
1735323146092,2024-12-27T18:12:26.092Z,243394,0.018249512,0.12872314,0.010925293
1735323146097,2024-12-27T18:12:26.097Z,243399,0.01940918,0.12768555,0.012023926
1735323146103,2024-12-27T18:12:26.103Z,243405,0.01965332,0.12823486,0.012451172
1735323146109,2024-12-27T18:12:26.109Z,243411,0.016296387,0.1274414,0.010253906
1735323146115,2024-12-27T18:12:26.115Z,243417,0.013061523,0.1293335,0.0075683594
1735323146136,2024-12-27T18:12:26.136Z,243438,0.016601562,0.13079834,0.0076904297
1735323146141,2024-12-27T18:12:26.141Z,243443,0.020629883,0.13061523,0.009155273
1735323146146,2024-12-27T18:12:26.146Z,243448,0.020324707,0.13085938,0.009277344
1735323146152,2024-12-27T18:12:26.152Z,243454,0.018615723,0.13092041,0.009521484
1735323146157,2024-12-27T18:12:26.157Z,243459,0.01928711,0.1296997,0.0107421875
1735323146180,2024-12-27T18:12:26.180Z,243482,0.018188477,0.12768555,0.009216309
1735323146186,2024-12-27T18:12:26.186Z,243488,0.015380859,0.12908936,0.009277344
1735323146192,2024-12-27T18:12:26.192Z,243494,0.016479492,0.13061523,0.008605957
1735323146197,2024-12-27T18:12:26.197Z,243499,0.016662598,0.12988281,0.0076293945
1735323146225,2024-12-27T18:12:26.225Z,243527,0.016967773,0.13067627,0.008605957
1735323146231,2024-12-27T18:12:26.231Z,243533,0.01928711,0.13061523,0.00982666
1735323146238,2024-12-27T18:12:26.238Z,243540,0.019897461,0.12976074,0.010192871
1735323146243,2024-12-27T18:12:26.243Z,243545,0.0178833,0.13024902,0.008728027
1735323146249,2024-12-27T18:12:26.249Z,243551,0.017456055,0.12994385,0.008605957
1735323146269,2024-12-27T18:12:26.269Z,243571,0.018005371,0.12890625,0.009155273
1735323146274,2024-12-27T18:12:26.274Z,243576,0.017028809,0.12792969,0.010375977
1735323146280,2024-12-27T18:12:26.280Z,243582,0.017333984,0.12854004,0.0107421875
1735323146286,2024-12-27T18:12:26.286Z,243588,0.018249512,0.12957764,0.009338379
1735323146315,2024-12-27T18:12:26.315Z,243617,0.018920898,0.12896729,0.007751465
1735323146321,2024-12-27T18:12:26.321Z,243623,0.018615723,0.13012695,0.008544922
1735323146326,2024-12-27T18:12:26.326Z,243628,0.020080566,0.13165283,0.010070801
1735323146332,2024-12-27T18:12:26.332Z,243634,0.01953125,0.13049316,0.010131836
1735323146337,2024-12-27T18:12:26.337Z,243639,0.016479492,0.13006592,0.010559082
1735323146360,2024-12-27T18:12:26.360Z,243662,0.016906738,0.12957764,0.0107421875
1735323146366,2024-12-27T18:12:26.366Z,243668,0.016601562,0.1281128,0.0078125
1735323146372,2024-12-27T18:12:26.372Z,243674,0.0178833,0.1293335,0.0061035156
1735323146378,2024-12-27T18:12:26.378Z,243680,0.018188477,0.13189697,0.0065307617
1735323146406,2024-12-27T18:12:26.406Z,243708,0.018432617,0.1326294,0.008850098
1735323146413,2024-12-27T18:12:26.413Z,243715,0.021057129,0.13171387,0.012084961
1735323146420,2024-12-27T18:12:26.420Z,243722,0.020751953,0.13110352,0.013122559
1735323146428,2024-12-27T18:12:26.428Z,243730,0.020141602,0.1317749,0.013183594
1735323146450,2024-12-27T18:12:26.450Z,243752,0.019104004,0.1329956,0.013244629
1735323146456,2024-12-27T18:12:26.456Z,243758,0.018737793,0.13330078,0.010559082
1735323146463,2024-12-27T18:12:26.463Z,243765,0.019042969,0.13415527,0.009521484
1735323146470,2024-12-27T18:12:26.470Z,243772,0.018066406,0.13482666,0.0076904297
1735323146476,2024-12-27T18:12:26.476Z,243778,0.01977539,0.13555908,0.008056641
1735323146494,2024-12-27T18:12:26.494Z,243796,0.020874023,0.13708496,0.010437012
1735323146502,2024-12-27T18:12:26.502Z,243804,0.020568848,0.13867188,0.012207031
1735323146509,2024-12-27T18:12:26.509Z,243811,0.022277832,0.1408081,0.012512207
1735323146516,2024-12-27T18:12:26.516Z,243818,0.020812988,0.13970947,0.012817383
1735323146539,2024-12-27T18:12:26.539Z,243841,0.018920898,0.13793945,0.013244629
1735323146544,2024-12-27T18:12:26.544Z,243846,0.019958496,0.13897705,0.013000488
1735323146550,2024-12-27T18:12:26.550Z,243852,0.020263672,0.14123535,0.012145996
1735323146556,2024-12-27T18:12:26.556Z,243858,0.020202637,0.14147949,0.009460449
1735323146561,2024-12-27T18:12:26.561Z,243863,0.020141602,0.14398193,0.0060424805
1735323146585,2024-12-27T18:12:26.585Z,243887,0.018554688,0.14648438,0.006164551
1735323146590,2024-12-27T18:12:26.590Z,243892,0.018737793,0.14434814,0.010253906
1735323146596,2024-12-27T18:12:26.596Z,243898,0.022583008,0.14196777,0.012939453
1735323146629,2024-12-27T18:12:26.629Z,243931,0.022277832,0.14343262,0.015258789
1735323146636,2024-12-27T18:12:26.636Z,243938,0.021240234,0.14324951,0.016113281
1735323146643,2024-12-27T18:12:26.643Z,243945,0.02154541,0.14221191,0.016052246
1735323146648,2024-12-27T18:12:26.648Z,243950,0.021362305,0.14282227,0.014587402
1735323146655,2024-12-27T18:12:26.655Z,243957,0.021606445,0.1449585,0.013427734
1735323146660,2024-12-27T18:12:26.660Z,243962,0.022460938,0.14593506,0.011962891
1735323146678,2024-12-27T18:12:26.678Z,243980,0.020568848,0.14508057,0.008605957
1735323146684,2024-12-27T18:12:26.684Z,243986,0.019104004,0.14343262,0.007751465
1735323146688,2024-12-27T18:12:26.688Z,243990,0.017333984,0.14208984,0.011230469
1735323146693,2024-12-27T18:12:26.693Z,243995,0.017822266,0.13867188,0.013977051
1735323146719,2024-12-27T18:12:26.719Z,244021,0.020385742,0.14025879,0.014404297
1735323146724,2024-12-27T18:12:26.724Z,244026,0.021118164,0.14508057,0.014526367
1735323146766,2024-12-27T18:12:26.766Z,244068,0.022094727,0.14447021,0.015625
1735323146772,2024-12-27T18:12:26.772Z,244074,0.023010254,0.14172363,0.014465332
1735323146778,2024-12-27T18:12:26.778Z,244080,0.022277832,0.14105225,0.013061523
1735323146785,2024-12-27T18:12:26.785Z,244087,0.020263672,0.14038086,0.012268066
1735323146791,2024-12-27T18:12:26.791Z,244093,0.018005371,0.13830566,0.0107421875
1735323146797,2024-12-27T18:12:26.797Z,244099,0.018371582,0.13946533,0.010253906
1735323146813,2024-12-27T18:12:26.813Z,244115,0.019958496,0.14227295,0.012023926
1735323146820,2024-12-27T18:12:26.820Z,244122,0.020324707,0.14245605,0.014160156
1735323146826,2024-12-27T18:12:26.826Z,244128,0.022338867,0.13977051,0.016174316
1735323146832,2024-12-27T18:12:26.832Z,244134,0.022216797,0.1375122,0.016174316
1735323146838,2024-12-27T18:12:26.838Z,244140,0.018981934,0.13543701,0.012329102
1735323146854,2024-12-27T18:12:26.854Z,244156,0.018005371,0.13720703,0.010009766
1735323146859,2024-12-27T18:12:26.859Z,244161,0.019165039,0.1404419,0.011352539
1735323146865,2024-12-27T18:12:26.865Z,244167,0.01965332,0.13946533,0.012512207
1735323146871,2024-12-27T18:12:26.871Z,244173,0.0211792,0.137146,0.013671875
1735323146876,2024-12-27T18:12:26.876Z,244178,0.022766113,0.1373291,0.015197754
1735323146901,2024-12-27T18:12:26.901Z,244203,0.021850586,0.1373291,0.015380859
1735323146907,2024-12-27T18:12:26.907Z,244209,0.020874023,0.1373291,0.014953613
1735323146912,2024-12-27T18:12:26.912Z,244214,0.019104004,0.13586426,0.014404297
1735323146918,2024-12-27T18:12:26.918Z,244220,0.020568848,0.13433838,0.012756348
1735323146944,2024-12-27T18:12:26.944Z,244246,0.020202637,0.13696289,0.012023926
1735323146951,2024-12-27T18:12:26.951Z,244253,0.018676758,0.137146,0.010925293
1735323146957,2024-12-27T18:12:26.957Z,244259,0.018981934,0.1352539,0.010925293
1735323146962,2024-12-27T18:12:26.962Z,244264,0.018188477,0.13531494,0.012390137
1735323146969,2024-12-27T18:12:26.969Z,244271,0.018310547,0.13391113,0.012268066
1735323146990,2024-12-27T18:12:26.990Z,244292,0.020507812,0.13208008,0.012573242
1735323146995,2024-12-27T18:12:26.995Z,244297,0.020202637,0.13232422,0.013183594
1735323147001,2024-12-27T18:12:27.001Z,244303,0.019897461,0.13085938,0.014343262
1735323147007,2024-12-27T18:12:27.007Z,244309,0.021057129,0.12927246,0.01586914
1735323147035,2024-12-27T18:12:27.035Z,244337,0.020568848,0.12878418,0.014892578
1735323147042,2024-12-27T18:12:27.042Z,244344,0.018615723,0.12945557,0.012268066
1735323147048,2024-12-27T18:12:27.048Z,244350,0.018188477,0.12988281,0.011779785
1735323147056,2024-12-27T18:12:27.056Z,244358,0.01977539,0.1272583,0.0126953125
1735323147061,2024-12-27T18:12:27.061Z,244363,0.020874023,0.12524414,0.0119018555
1735323147080,2024-12-27T18:12:27.080Z,244382,0.019897461,0.12664795,0.011108398
1735323147088,2024-12-27T18:12:27.088Z,244390,0.019592285,0.12628174,0.012390137
1735323147093,2024-12-27T18:12:27.093Z,244395,0.020019531,0.122802734,0.015136719
1735323147100,2024-12-27T18:12:27.100Z,244402,0.020324707,0.12054443,0.018066406
1735323147125,2024-12-27T18:12:27.125Z,244427,0.019958496,0.120788574,0.016052246
1735323147131,2024-12-27T18:12:27.131Z,244433,0.019592285,0.1237793,0.013977051
1735323147137,2024-12-27T18:12:27.137Z,244439,0.019042969,0.12609863,0.0134887695
1735323147144,2024-12-27T18:12:27.144Z,244446,0.018005371,0.12365723,0.011413574
1735323147170,2024-12-27T18:12:27.170Z,244472,0.018066406,0.12036133,0.011962891
1735323147177,2024-12-27T18:12:27.177Z,244479,0.019470215,0.12036133,0.013916016
1735323147183,2024-12-27T18:12:27.183Z,244485,0.01763916,0.12182617,0.012390137
1735323147190,2024-12-27T18:12:27.190Z,244492,0.017211914,0.12213135,0.009521484
1735323147197,2024-12-27T18:12:27.197Z,244499,0.020019531,0.12145996,0.0095825195
1735323147214,2024-12-27T18:12:27.214Z,244516,0.020568848,0.12023926,0.011413574
1735323147221,2024-12-27T18:12:27.221Z,244523,0.020202637,0.1182251,0.012878418
1735323147228,2024-12-27T18:12:27.228Z,244530,0.018798828,0.1182251,0.011962891
1735323147234,2024-12-27T18:12:27.234Z,244536,0.018920898,0.12054443,0.011657715
1735323147259,2024-12-27T18:12:27.259Z,244561,0.020080566,0.12231445,0.012634277
1735323147264,2024-12-27T18:12:27.264Z,244566,0.021118164,0.12060547,0.013793945
1735323147270,2024-12-27T18:12:27.270Z,244572,0.019470215,0.11987305,0.01373291
1735323147275,2024-12-27T18:12:27.275Z,244577,0.018920898,0.118896484,0.012756348
1735323147280,2024-12-27T18:12:27.280Z,244582,0.020446777,0.11798096,0.012817383
1735323147307,2024-12-27T18:12:27.307Z,244609,0.01977539,0.11785889,0.010803223
1735323147316,2024-12-27T18:12:27.316Z,244618,0.019226074,0.11853027,0.010131836
1735323147359,2024-12-27T18:12:27.359Z,244661,0.020751953,0.11871338,0.012329102
1735323147370,2024-12-27T18:12:27.370Z,244672,0.020080566,0.11871338,0.011962891
1735323147381,2024-12-27T18:12:27.381Z,244683,0.018493652,0.11846924,0.010009766
1735323147391,2024-12-27T18:12:27.391Z,244693,0.02166748,0.119262695,0.009399414
1735323147400,2024-12-27T18:12:27.400Z,244702,0.020874023,0.12145996,0.009338379
1735323147408,2024-12-27T18:12:27.408Z,244710,0.019165039,0.12145996,0.011108398
1735323147417,2024-12-27T18:12:27.417Z,244719,0.020324707,0.120788574,0.015258789
1735323147430,2024-12-27T18:12:27.430Z,244732,0.021057129,0.11853027,0.017333984
1735323147436,2024-12-27T18:12:27.436Z,244738,0.019897461,0.11834717,0.013916016
1735323147441,2024-12-27T18:12:27.441Z,244743,0.018371582,0.121032715,0.009887695
1735323147447,2024-12-27T18:12:27.447Z,244749,0.020446777,0.12176514,0.0099487305
1735323147453,2024-12-27T18:12:27.453Z,244755,0.020507812,0.12030029,0.012023926
1735323147459,2024-12-27T18:12:27.459Z,244761,0.019226074,0.119628906,0.013305664
1735323147463,2024-12-27T18:12:27.463Z,244765,0.019958496,0.12200928,0.013061523
1735323147469,2024-12-27T18:12:27.469Z,244771,0.020568848,0.1239624,0.013977051
1735323147486,2024-12-27T18:12:27.486Z,244788,0.019042969,0.12390137,0.013305664
1735323147493,2024-12-27T18:12:27.493Z,244795,0.018859863,0.11987305,0.0107421875
1735323147500,2024-12-27T18:12:27.500Z,244802,0.01739502,0.11450195,0.0095825195
1735323147507,2024-12-27T18:12:27.507Z,244809,0.016540527,0.11242676,0.010559082
1735323147512,2024-12-27T18:12:27.512Z,244814,0.01763916,0.11425781,0.012207031
1735323147530,2024-12-27T18:12:27.530Z,244832,0.018188477,0.11663818,0.014099121
1735323147536,2024-12-27T18:12:27.536Z,244838,0.019226074,0.117370605,0.015686035
1735323147542,2024-12-27T18:12:27.542Z,244844,0.02130127,0.1159668,0.017944336
1735323147547,2024-12-27T18:12:27.547Z,244849,0.023071289,0.115356445,0.019958496
1735323147574,2024-12-27T18:12:27.574Z,244876,0.022277832,0.11450195,0.01763916
1735323147580,2024-12-27T18:12:27.580Z,244882,0.021850586,0.11230469,0.018432617
1735323147586,2024-12-27T18:12:27.586Z,244888,0.0211792,0.11102295,0.0154418945
1735323147592,2024-12-27T18:12:27.592Z,244894,0.018798828,0.11199951,0.010498047
1735323147597,2024-12-27T18:12:27.597Z,244899,0.01751709,0.113342285,0.009460449
1735323147621,2024-12-27T18:12:27.621Z,244923,0.019042969,0.11315918,0.012878418
1735323147627,2024-12-27T18:12:27.627Z,244929,0.01977539,0.11260986,0.016113281
1735323147633,2024-12-27T18:12:27.633Z,244935,0.018737793,0.11383057,0.018066406
1735323147640,2024-12-27T18:12:27.640Z,244942,0.018859863,0.11608887,0.019348145
1735323147663,2024-12-27T18:12:27.663Z,244965,0.019165039,0.11645508,0.018188477
1735323147670,2024-12-27T18:12:27.670Z,244972,0.019165039,0.11364746,0.018859863
1735323147677,2024-12-27T18:12:27.677Z,244979,0.019714355,0.11126709,0.01965332
1735323147683,2024-12-27T18:12:27.683Z,244985,0.020141602,0.11273193,0.018249512
1735323147688,2024-12-27T18:12:27.688Z,244990,0.021057129,0.11462402,0.017150879
1735323147709,2024-12-27T18:12:27.709Z,245011,0.021057129,0.11279297,0.01977539
1735323147716,2024-12-27T18:12:27.716Z,245018,0.01739502,0.11022949,0.019592285
1735323147722,2024-12-27T18:12:27.722Z,245024,0.013549805,0.11065674,0.016601562
1735323147727,2024-12-27T18:12:27.727Z,245029,0.015075684,0.111816406,0.017089844
1735323147754,2024-12-27T18:12:27.754Z,245056,0.019714355,0.11303711,0.01965332
1735323147759,2024-12-27T18:12:27.759Z,245061,0.022705078,0.11364746,0.021118164
1735323147765,2024-12-27T18:12:27.765Z,245067,0.022949219,0.112854004,0.022949219
1735323147771,2024-12-27T18:12:27.771Z,245073,0.023986816,0.11199951,0.023925781
1735323147803,2024-12-27T18:12:27.803Z,245105,0.022827148,0.11193848,0.023132324
1735323147809,2024-12-27T18:12:27.809Z,245111,0.01928711,0.11151123,0.021057129
1735323147814,2024-12-27T18:12:27.814Z,245116,0.017578125,0.11212158,0.02130127
1735323147820,2024-12-27T18:12:27.820Z,245122,0.017333984,0.11303711,0.020080566
1735323147827,2024-12-27T18:12:27.827Z,245129,0.021057129,0.11224365,0.01928711
1735323147844,2024-12-27T18:12:27.844Z,245146,0.024536133,0.11303711,0.021057129
1735323147850,2024-12-27T18:12:27.850Z,245152,0.02368164,0.115112305,0.024597168
1735323147856,2024-12-27T18:12:27.856Z,245158,0.023742676,0.11627197,0.026977539
1735323147862,2024-12-27T18:12:27.862Z,245164,0.023376465,0.11566162,0.02722168
1735323147891,2024-12-27T18:12:27.891Z,245193,0.022460938,0.113708496,0.026916504
1735323147898,2024-12-27T18:12:27.898Z,245200,0.020812988,0.113098145,0.0256958
1735323147905,2024-12-27T18:12:27.905Z,245207,0.018310547,0.11529541,0.022644043
1735323147912,2024-12-27T18:12:27.912Z,245214,0.017456055,0.11645508,0.019958496
1735323147919,2024-12-27T18:12:27.919Z,245221,0.020812988,0.11633301,0.022644043
1735323147934,2024-12-27T18:12:27.934Z,245236,0.024353027,0.11590576,0.027038574
1735323147941,2024-12-27T18:12:27.941Z,245243,0.022216797,0.11541748,0.025939941
1735323147947,2024-12-27T18:12:27.947Z,245249,0.020202637,0.11657715,0.024719238
1735323147952,2024-12-27T18:12:27.952Z,245254,0.022277832,0.117614746,0.024841309
1735323147979,2024-12-27T18:12:27.979Z,245281,0.023498535,0.11706543,0.026123047
1735323147985,2024-12-27T18:12:27.985Z,245287,0.022399902,0.11773682,0.026367188
1735323147991,2024-12-27T18:12:27.991Z,245293,0.021728516,0.11846924,0.024841309
1735323147996,2024-12-27T18:12:27.996Z,245298,0.02154541,0.11828613,0.026123047
1735323148002,2024-12-27T18:12:28.002Z,245304,0.02130127,0.11578369,0.027709961
1735323148025,2024-12-27T18:12:28.025Z,245327,0.022949219,0.11425781,0.028259277
1735323148030,2024-12-27T18:12:28.030Z,245332,0.022460938,0.1159668,0.026489258
1735323148035,2024-12-27T18:12:28.035Z,245337,0.020141602,0.11779785,0.024536133
1735323148041,2024-12-27T18:12:28.041Z,245343,0.020751953,0.11798096,0.02520752
1735323148070,2024-12-27T18:12:28.070Z,245372,0.022888184,0.11602783,0.028259277
1735323148075,2024-12-27T18:12:28.075Z,245377,0.02319336,0.11407471,0.028381348
1735323148080,2024-12-27T18:12:28.080Z,245382,0.02319336,0.11566162,0.0256958
1735323148086,2024-12-27T18:12:28.086Z,245388,0.022277832,0.118896484,0.023620605
1735323148114,2024-12-27T18:12:28.114Z,245416,0.020935059,0.11785889,0.026489258
1735323148121,2024-12-27T18:12:28.121Z,245423,0.021850586,0.115112305,0.030700684
1735323148128,2024-12-27T18:12:28.128Z,245430,0.021606445,0.11395264,0.028930664
1735323148134,2024-12-27T18:12:28.134Z,245436,0.021606445,0.11627197,0.025939941
1735323148140,2024-12-27T18:12:28.140Z,245442,0.022216797,0.11828613,0.024719238
1735323148159,2024-12-27T18:12:28.159Z,245461,0.020874023,0.11663818,0.025939941
1735323148165,2024-12-27T18:12:28.165Z,245467,0.019348145,0.11431885,0.026489258
1735323148171,2024-12-27T18:12:28.171Z,245473,0.021240234,0.11407471,0.027526855
1735323148177,2024-12-27T18:12:28.177Z,245479,0.022399902,0.11590576,0.026550293
1735323148205,2024-12-27T18:12:28.205Z,245507,0.022583008,0.11798096,0.025512695
1735323148211,2024-12-27T18:12:28.211Z,245513,0.02368164,0.1171875,0.02545166
1735323148216,2024-12-27T18:12:28.216Z,245518,0.024047852,0.11871338,0.028015137
1735323148223,2024-12-27T18:12:28.223Z,245525,0.02319336,0.11981201,0.030700684
1735323148230,2024-12-27T18:12:28.230Z,245532,0.020996094,0.11480713,0.031188965
1735323148249,2024-12-27T18:12:28.249Z,245551,0.01727295,0.11303711,0.028259277
1735323148254,2024-12-27T18:12:28.254Z,245556,0.016418457,0.115234375,0.026306152
1735323148262,2024-12-27T18:12:28.262Z,245564,0.019042969,0.115722656,0.022888184
1735323148268,2024-12-27T18:12:28.268Z,245570,0.020507812,0.115478516,0.022155762
1735323148294,2024-12-27T18:12:28.294Z,245596,0.021728516,0.11694336,0.026062012
1735323148300,2024-12-27T18:12:28.300Z,245602,0.023803711,0.11791992,0.02935791
1735323148306,2024-12-27T18:12:28.306Z,245608,0.026611328,0.11645508,0.030883789
1735323148312,2024-12-27T18:12:28.312Z,245614,0.02557373,0.11578369,0.03466797
1735323148317,2024-12-27T18:12:28.317Z,245619,0.019470215,0.11364746,0.031311035
1735323148339,2024-12-27T18:12:28.339Z,245641,0.014099121,0.11254883,0.023925781
1735323148345,2024-12-27T18:12:28.345Z,245647,0.015686035,0.11407471,0.020690918
1735323148351,2024-12-27T18:12:28.351Z,245653,0.018798828,0.11621094,0.020812988
1735323148357,2024-12-27T18:12:28.357Z,245659,0.020629883,0.11834717,0.023620605
1735323148385,2024-12-27T18:12:28.385Z,245687,0.022155762,0.11785889,0.02923584
1735323148392,2024-12-27T18:12:28.392Z,245694,0.022521973,0.11437988,0.032714844
1735323148397,2024-12-27T18:12:28.397Z,245699,0.022521973,0.110961914,0.032836914
1735323148403,2024-12-27T18:12:28.403Z,245705,0.023010254,0.114746094,0.033447266
1735323148430,2024-12-27T18:12:28.430Z,245732,0.02154541,0.117126465,0.028808594
1735323148437,2024-12-27T18:12:28.437Z,245739,0.020080566,0.115478516,0.023986816
1735323148443,2024-12-27T18:12:28.443Z,245745,0.018005371,0.116882324,0.022216797
1735323148447,2024-12-27T18:12:28.447Z,245749,0.018249512,0.12011719,0.023742676
1735323148452,2024-12-27T18:12:28.452Z,245754,0.022521973,0.11871338,0.02947998
1735323148474,2024-12-27T18:12:28.474Z,245776,0.02154541,0.11590576,0.03186035
1735323148521,2024-12-27T18:12:28.521Z,245823,0.018981934,0.11566162,0.03289795
1735323148528,2024-12-27T18:12:28.528Z,245830,0.018920898,0.11883545,0.03387451
1735323148536,2024-12-27T18:12:28.536Z,245838,0.020812988,0.11846924,0.031677246
1735323148543,2024-12-27T18:12:28.543Z,245845,0.021118164,0.11682129,0.028320312
1735323148551,2024-12-27T18:12:28.551Z,245853,0.020812988,0.118896484,0.026184082
1735323148557,2024-12-27T18:12:28.557Z,245859,0.021972656,0.12036133,0.02722168
1735323148567,2024-12-27T18:12:28.567Z,245869,0.01965332,0.120910645,0.028930664
1735323148573,2024-12-27T18:12:28.573Z,245875,0.01751709,0.1217041,0.029174805
1735323148578,2024-12-27T18:12:28.578Z,245880,0.018676758,0.12145996,0.027954102
1735323148582,2024-12-27T18:12:28.582Z,245884,0.021240234,0.121032715,0.029663086
1735323148587,2024-12-27T18:12:28.587Z,245889,0.020690918,0.118774414,0.030029297
1735323148610,2024-12-27T18:12:28.610Z,245912,0.018249512,0.117492676,0.030456543
1735323148615,2024-12-27T18:12:28.615Z,245917,0.01776123,0.11883545,0.030578613
1735323148621,2024-12-27T18:12:28.621Z,245923,0.020263672,0.12084961,0.029418945
1735323148626,2024-12-27T18:12:28.626Z,245928,0.022766113,0.12261963,0.028808594
1735323148642,2024-12-27T18:12:28.642Z,245944,0.02178955,0.121032715,0.028869629
1735323148655,2024-12-27T18:12:28.655Z,245957,0.019042969,0.117248535,0.02722168
1735323148667,2024-12-27T18:12:28.667Z,245969,0.017944336,0.117248535,0.025146484
1735323148677,2024-12-27T18:12:28.677Z,245979,0.020263672,0.11846924,0.02520752
1735323148689,2024-12-27T18:12:28.689Z,245991,0.020507812,0.11804199,0.026123047
1735323148700,2024-12-27T18:12:28.700Z,246002,0.019104004,0.11798096,0.029296875
1735323148707,2024-12-27T18:12:28.707Z,246009,0.021057129,0.11730957,0.031188965
1735323148715,2024-12-27T18:12:28.715Z,246017,0.021484375,0.1159668,0.027709961
1735323148721,2024-12-27T18:12:28.721Z,246023,0.022521973,0.115478516,0.023376465
1735323148727,2024-12-27T18:12:28.727Z,246029,0.020507812,0.11621094,0.021972656
1735323148748,2024-12-27T18:12:28.748Z,246050,0.015808105,0.115478516,0.020690918
1735323148757,2024-12-27T18:12:28.757Z,246059,0.019348145,0.116882324,0.02520752
1735323148762,2024-12-27T18:12:28.762Z,246064,0.024169922,0.117126465,0.031433105
