Timestamp (ms),ISO DateTime,Elapsed Time (ms),Acceleration X,Acceleration Y,Acceleration Z
1725950396312,2024-09-10T06:39:56.312Z,101095,-0.09338379,0.9907837,-0.07946777
1725950396347,2024-09-10T06:39:56.347Z,101130,-0.10070801,1.0084229,-0.08544922
1725950396393,2024-09-10T06:39:56.393Z,101176,-0.09222412,1.0093994,-0.08416748
1725950396437,2024-09-10T06:39:56.437Z,101220,-0.09118652,1.006958,-0.08843994
1725950396483,2024-09-10T06:39:56.483Z,101266,-0.09667969,0.9985962,-0.092041016
1725950396528,2024-09-10T06:39:56.528Z,101311,-0.09643555,0.9962158,-0.088134766
1725950396573,2024-09-10T06:39:56.573Z,101356,-0.10437012,0.99975586,-0.08929443
1725950396623,2024-09-10T06:39:56.623Z,101406,-0.097351074,1.0044556,-0.091430664
1725950396669,2024-09-10T06:39:56.669Z,101452,-0.10284424,1.0062256,-0.10119629
1725950396715,2024-09-10T06:39:56.715Z,101498,-0.11029053,1.0095825,-0.10784912
1725950396758,2024-09-10T06:39:56.758Z,101541,-0.10662842,0.9991455,-0.10650635
1725950396784,2024-09-10T06:39:56.784Z,101567,-0.10443115,0.99365234,-0.11407471
1725950396805,2024-09-10T06:39:56.805Z,101588,-0.109191895,0.99108887,-0.109069824
1725950396847,2024-09-10T06:39:56.847Z,101630,-0.109191895,0.9953613,-0.107910156
1725950396893,2024-09-10T06:39:56.893Z,101676,-0.10827637,1.0047607,-0.111450195
1725950396937,2024-09-10T06:39:56.937Z,101720,-0.11450195,1.0077515,-0.11755371
1725950396982,2024-09-10T06:39:56.982Z,101765,-0.117248535,0.9953003,-0.117492676
1725950397030,2024-09-10T06:39:57.030Z,101813,-0.10131836,0.9915161,-0.11639404
1725950397073,2024-09-10T06:39:57.073Z,101856,-0.10241699,0.9915161,-0.118774414
1725950397118,2024-09-10T06:39:57.118Z,101901,-0.105651855,0.9840698,-0.12390137
1725950397163,2024-09-10T06:39:57.163Z,101946,-0.10772705,0.97924805,-0.1184082
1725950397186,2024-09-10T06:39:57.186Z,101969,-0.10107422,0.98760986,-0.12548828
1725950397203,2024-09-10T06:39:57.203Z,101986,-0.101135254,0.9985962,-0.13104248
1725950397248,2024-09-10T06:39:57.248Z,102031,-0.11053467,1.0057983,-0.14685059
1725950397299,2024-09-10T06:39:57.299Z,102082,-0.11151123,1.0044556,-0.1550293
1725950397348,2024-09-10T06:39:57.348Z,102131,-0.11791992,0.99005127,-0.16137695
1725950397393,2024-09-10T06:39:57.393Z,102176,-0.10662842,0.9904175,-0.15979004
1725950397435,2024-09-10T06:39:57.435Z,102218,-0.1161499,0.9849243,-0.16247559
1725950397475,2024-09-10T06:39:57.475Z,102258,-0.11871338,0.9836426,-0.1661377
1725950397523,2024-09-10T06:39:57.523Z,102306,-0.11480713,0.97320557,-0.16503906
1725950397569,2024-09-10T06:39:57.569Z,102352,-0.10247803,0.9738159,-0.17199707
1725950397595,2024-09-10T06:39:57.595Z,102378,-0.1071167,0.9920044,-0.18707275
1725950397611,2024-09-10T06:39:57.611Z,102394,-0.11773682,0.9859009,-0.20489502
1725950397659,2024-09-10T06:39:57.659Z,102442,-0.11785889,0.9772949,-0.2111206
1725950397706,2024-09-10T06:39:57.706Z,102489,-0.12567139,0.95947266,-0.20306396
1725950397748,2024-09-10T06:39:57.748Z,102531,-0.08770752,0.9545288,-0.2163086
1725950397791,2024-09-10T06:39:57.791Z,102574,-0.10308838,0.9524536,-0.21691895
1725950397838,2024-09-10T06:39:57.838Z,102621,-0.12384033,0.94970703,-0.2265625
1725950397884,2024-09-10T06:39:57.884Z,102667,-0.09020996,0.96655273,-0.22338867
1725950397931,2024-09-10T06:39:57.931Z,102714,-0.09667969,0.98083496,-0.24243164
1725950397974,2024-09-10T06:39:57.974Z,102757,-0.108947754,0.97943115,-0.23687744
1725950398019,2024-09-10T06:39:58.019Z,102802,-0.103637695,0.97143555,-0.23840332
1725950398044,2024-09-10T06:39:58.044Z,102827,-0.103027344,0.979126,-0.23522949
1725950398067,2024-09-10T06:39:58.067Z,102850,-0.10522461,0.97888184,-0.24804688
1725950398107,2024-09-10T06:39:58.107Z,102890,-0.10797119,0.9758301,-0.25708008
1725950398152,2024-09-10T06:39:58.152Z,102935,-0.12011719,0.97351074,-0.2703247
1725950398198,2024-09-10T06:39:58.198Z,102981,-0.11248779,0.9572754,-0.2626953
1725950398247,2024-09-10T06:39:58.247Z,103030,-0.11413574,0.95635986,-0.2659912
1725950398291,2024-09-10T06:39:58.291Z,103074,-0.11578369,0.96051025,-0.27929688
1725950398332,2024-09-10T06:39:58.332Z,103115,-0.122924805,0.97180176,-0.28955078
1725950398377,2024-09-10T06:39:58.377Z,103160,-0.109680176,0.98583984,-0.29541016
1725950398425,2024-09-10T06:39:58.425Z,103208,-0.1305542,0.9847412,-0.29864502
1725950398451,2024-09-10T06:39:58.451Z,103234,-0.121154785,0.97314453,-0.28979492
1725950398470,2024-09-10T06:39:58.470Z,103253,-0.10406494,0.97088623,-0.26861572
1725950398516,2024-09-10T06:39:58.516Z,103299,-0.09185791,0.96728516,-0.26141357
1725950398557,2024-09-10T06:39:58.557Z,103340,-0.09613037,0.9666748,-0.28607178
1725950398604,2024-09-10T06:39:58.604Z,103387,-0.097595215,0.9663696,-0.28460693
1725950398647,2024-09-10T06:39:58.647Z,103430,-0.101501465,0.9626465,-0.288208
1725950398691,2024-09-10T06:39:58.691Z,103474,-0.10028076,0.9550171,-0.28997803
1725950398739,2024-09-10T06:39:58.739Z,103522,-0.103271484,0.9699707,-0.29510498
1725950398783,2024-09-10T06:39:58.783Z,103566,-0.12121582,0.9605713,-0.31323242
1725950398828,2024-09-10T06:39:58.828Z,103611,-0.103393555,0.96173096,-0.30969238
1725950398854,2024-09-10T06:39:58.854Z,103637,-0.109680176,0.9655762,-0.31878662
1725950398877,2024-09-10T06:39:58.877Z,103660,-0.11730957,0.9645386,-0.31604004
1725950398911,2024-09-10T06:39:58.911Z,103694,-0.10681152,0.961853,-0.30847168
1725950398965,2024-09-10T06:39:58.965Z,103748,-0.10058594,0.96276855,-0.3022461
1725950399008,2024-09-10T06:39:59.008Z,103791,-0.099365234,0.9649048,-0.30786133
1725950399054,2024-09-10T06:39:59.054Z,103837,-0.09820557,0.9515381,-0.30303955
1725950399098,2024-09-10T06:39:59.098Z,103881,-0.08709717,0.95825195,-0.3045044
1725950399143,2024-09-10T06:39:59.143Z,103926,-0.07952881,0.96588135,-0.28955078
1725950399189,2024-09-10T06:39:59.189Z,103972,-0.088012695,0.96209717,-0.3067627
1725950399234,2024-09-10T06:39:59.234Z,104017,-0.08984375,0.9637451,-0.30615234
1725950399280,2024-09-10T06:39:59.280Z,104063,-0.09698486,0.947937,-0.2962036
1725950399303,2024-09-10T06:39:59.303Z,104086,-0.06970215,0.9645386,-0.3154297
1725950399320,2024-09-10T06:39:59.320Z,104103,-0.10180664,0.96606445,-0.31115723
1725950399369,2024-09-10T06:39:59.369Z,104152,-0.10571289,0.95391846,-0.32366943
1725950399413,2024-09-10T06:39:59.413Z,104196,-0.07757568,0.96240234,-0.31011963
1725950399460,2024-09-10T06:39:59.460Z,104243,-0.090270996,0.9688721,-0.31658936
1725950399503,2024-09-10T06:39:59.503Z,104286,-0.103515625,0.9526367,-0.33007812
1725950399547,2024-09-10T06:39:59.547Z,104330,-0.08581543,0.9428711,-0.3314209
1725950399593,2024-09-10T06:39:59.593Z,104376,-0.09075928,0.93951416,-0.3302002
1725950399641,2024-09-10T06:39:59.641Z,104424,-0.0736084,0.9579468,-0.3310547
1725950399685,2024-09-10T06:39:59.685Z,104468,-0.091430664,0.9528198,-0.3307495
1725950399711,2024-09-10T06:39:59.711Z,104494,-0.09350586,0.9523926,-0.33770752
1725950399730,2024-09-10T06:39:59.730Z,104513,-0.07891846,0.9595337,-0.32763672
1725950399768,2024-09-10T06:39:59.768Z,104551,-0.08673096,0.9694214,-0.3284912
1725950399818,2024-09-10T06:39:59.818Z,104601,-0.09484863,0.9581299,-0.34301758
1725950399865,2024-09-10T06:39:59.865Z,104648,-0.090026855,0.9484863,-0.33691406
1725950399915,2024-09-10T06:39:59.915Z,104698,-0.08917236,0.94537354,-0.32330322
1725950399956,2024-09-10T06:39:59.956Z,104739,-0.08074951,0.95410156,-0.3227539
1725950399998,2024-09-10T06:39:59.998Z,104781,-0.08880615,0.95477295,-0.33947754
1725950400042,2024-09-10T06:40:00.042Z,104825,-0.099975586,0.96099854,-0.3381958
1725950400087,2024-09-10T06:40:00.087Z,104870,-0.091918945,0.96984863,-0.33966064
1725950400112,2024-09-10T06:40:00.112Z,104895,-0.094055176,0.97314453,-0.3477173
1725950400135,2024-09-10T06:40:00.135Z,104918,-0.09710693,0.97888184,-0.34088135
1725950400176,2024-09-10T06:40:00.176Z,104959,-0.1026001,0.980896,-0.32330322
1725950400224,2024-09-10T06:40:00.224Z,105007,-0.09918213,0.97784424,-0.3397827
1725950400270,2024-09-10T06:40:00.270Z,105053,-0.10876465,0.97924805,-0.34887695
1725950400313,2024-09-10T06:40:00.313Z,105096,-0.10748291,0.98498535,-0.33563232
1725950400361,2024-09-10T06:40:00.361Z,105144,-0.103027344,0.9819336,-0.3324585
1725950400403,2024-09-10T06:40:00.403Z,105186,-0.11102295,0.9769287,-0.3248291
1725950400449,2024-09-10T06:40:00.449Z,105232,-0.10272217,0.97979736,-0.33770752
1725950400495,2024-09-10T06:40:00.495Z,105278,-0.113220215,0.9793701,-0.32641602
1725950400540,2024-09-10T06:40:00.540Z,105323,-0.10534668,0.9859619,-0.33270264
1725950400568,2024-09-10T06:40:00.568Z,105351,-0.10308838,0.98291016,-0.32806396
1725950400591,2024-09-10T06:40:00.591Z,105374,-0.10522461,0.9894409,-0.33569336
1725950400624,2024-09-10T06:40:00.624Z,105407,-0.11022949,0.99694824,-0.33355713
1725950400676,2024-09-10T06:40:00.676Z,105459,-0.10583496,1.0137329,-0.33599854
1725950400717,2024-09-10T06:40:00.717Z,105500,-0.105407715,1.0248413,-0.33392334
1725950400763,2024-09-10T06:40:00.763Z,105546,-0.11816406,1.0167847,-0.3322754
1725950400809,2024-09-10T06:40:00.809Z,105592,-0.119018555,1.00177,-0.33398438
1725950400851,2024-09-10T06:40:00.851Z,105634,-0.10870361,0.9974365,-0.32250977
1725950400897,2024-09-10T06:40:00.897Z,105680,-0.11151123,0.99401855,-0.31079102
1725950400949,2024-09-10T06:40:00.949Z,105732,-0.12145996,0.9849243,-0.31817627
1725950400974,2024-09-10T06:40:00.974Z,105757,-0.11871338,0.9765625,-0.31451416
1725950400992,2024-09-10T06:40:00.992Z,105775,-0.114990234,0.9738159,-0.30010986
1725950401032,2024-09-10T06:40:01.032Z,105815,-0.105895996,0.97491455,-0.29437256
1725950401079,2024-09-10T06:40:01.079Z,105862,-0.11248779,0.9701538,-0.2965088
1725950401125,2024-09-10T06:40:01.125Z,105908,-0.112854004,0.95983887,-0.29205322
1725950401168,2024-09-10T06:40:01.168Z,105951,-0.11029053,0.9425659,-0.22930908
1725950401213,2024-09-10T06:40:01.213Z,105996,-0.1730957,0.9626465,-0.1326294
1725950401263,2024-09-10T06:40:01.263Z,106046,-0.10015869,0.989563,-0.29779053
1725950401302,2024-09-10T06:40:01.302Z,106085,-0.107543945,0.9680176,-0.33129883
1725950401348,2024-09-10T06:40:01.348Z,106131,-0.13812256,0.9696655,-0.29364014
1725950401372,2024-09-10T06:40:01.372Z,106155,-0.13122559,0.97802734,-0.30126953
1725950401395,2024-09-10T06:40:01.395Z,106178,-0.13250732,0.9779053,-0.30584717
1725950401437,2024-09-10T06:40:01.437Z,106220,-0.11437988,0.96954346,-0.31280518
1725950401482,2024-09-10T06:40:01.482Z,106265,-0.12957764,0.9498291,-0.30462646
1725950401529,2024-09-10T06:40:01.529Z,106312,-0.12384033,0.94384766,-0.29187012
1725950401573,2024-09-10T06:40:01.573Z,106356,-0.1182251,0.94281006,-0.29327393
1725950401618,2024-09-10T06:40:01.618Z,106401,-0.10858154,0.96307373,-0.29595947
1725950401663,2024-09-10T06:40:01.663Z,106446,-0.10797119,0.97943115,-0.2709961
1725950401709,2024-09-10T06:40:01.709Z,106492,-0.13739014,0.97143555,-0.27062988
1725950401752,2024-09-10T06:40:01.752Z,106535,-0.08917236,0.99560547,-0.22814941
1725950401798,2024-09-10T06:40:01.798Z,106581,-0.093444824,1.0063477,-0.20300293
1725950401823,2024-09-10T06:40:01.823Z,106606,-0.09954834,1.0216675,-0.24682617
1725950401846,2024-09-10T06:40:01.846Z,106629,-0.10321045,1.0068359,-0.3048706
1725950401887,2024-09-10T06:40:01.887Z,106670,-0.0949707,1.0015259,-0.30578613
1725950401932,2024-09-10T06:40:01.932Z,106715,-0.086242676,0.99798584,-0.30926514
1725950401978,2024-09-10T06:40:01.978Z,106761,-0.08251953,0.9841919,-0.28997803
1725950402023,2024-09-10T06:40:02.023Z,106806,-0.07519531,0.97839355,-0.2697754
1725950402069,2024-09-10T06:40:02.069Z,106852,-0.074401855,0.9779663,-0.2244873
1725950402113,2024-09-10T06:40:02.113Z,106896,-0.099731445,0.97265625,-0.2119751
1725950402158,2024-09-10T06:40:02.158Z,106941,-0.10491943,0.97094727,-0.19903564
1725950402203,2024-09-10T06:40:02.203Z,106986,-0.09454346,0.982666,-0.2000122
1725950402228,2024-09-10T06:40:02.228Z,107011,-0.088378906,0.9747925,-0.21350098
1725950402252,2024-09-10T06:40:02.252Z,107035,-0.0949707,0.9555054,-0.2442627
1725950402292,2024-09-10T06:40:02.292Z,107075,-0.09490967,0.95147705,-0.24310303
1725950402337,2024-09-10T06:40:02.337Z,107120,-0.08984375,0.95410156,-0.23535156
1725950402382,2024-09-10T06:40:02.382Z,107165,-0.07952881,0.94226074,-0.21777344
1725950402429,2024-09-10T06:40:02.429Z,107212,-0.09423828,0.9331665,-0.20941162
1725950402475,2024-09-10T06:40:02.475Z,107258,-0.09899902,0.9539795,-0.18585205
1725950402523,2024-09-10T06:40:02.523Z,107306,-0.093933105,0.9800415,-0.17755127
1725950402562,2024-09-10T06:40:02.562Z,107345,-0.08911133,0.9815674,-0.1329956
1725950402608,2024-09-10T06:40:02.608Z,107391,-0.10681152,0.97979736,-0.16156006
1725950402627,2024-09-10T06:40:02.627Z,107410,-0.09655762,0.9994507,-0.1453247
1725950402647,2024-09-10T06:40:02.647Z,107430,-0.10394287,1.0126343,-0.14782715
1725950402693,2024-09-10T06:40:02.693Z,107476,-0.09411621,1.0142212,-0.14953613
1725950402737,2024-09-10T06:40:02.737Z,107520,-0.098083496,0.982666,-0.1482544
1725950402789,2024-09-10T06:40:02.789Z,107572,-0.083618164,0.9667969,-0.15167236
1725950402832,2024-09-10T06:40:02.832Z,107615,-0.088378906,0.9602661,-0.14544678
1725950402875,2024-09-10T06:40:02.875Z,107658,-0.06518555,0.9694214,-0.15551758
1725950402921,2024-09-10T06:40:02.921Z,107704,-0.09838867,0.9595947,-0.15454102
1725950402970,2024-09-10T06:40:02.970Z,107753,-0.08026123,0.9855957,-0.15063477
1725950403013,2024-09-10T06:40:03.013Z,107796,-0.10229492,0.9830322,-0.10638428
1725950403056,2024-09-10T06:40:03.056Z,107839,-0.07421875,1.0080566,-0.10241699
1725950403078,2024-09-10T06:40:03.078Z,107861,-0.13366699,0.9968872,-0.07507324
1725950403104,2024-09-10T06:40:03.104Z,107887,-0.105895996,0.98724365,-0.071899414
1725950403147,2024-09-10T06:40:03.147Z,107930,-0.12835693,0.9692993,-0.056518555
1725950403191,2024-09-10T06:40:03.191Z,107974,-0.061401367,0.99072266,-0.07409668
1725950403238,2024-09-10T06:40:03.238Z,108021,-0.11224365,0.9834595,-0.05505371
1725950403283,2024-09-10T06:40:03.283Z,108066,-0.09552002,1.0012207,-0.08660889
1725950403327,2024-09-10T06:40:03.327Z,108110,-0.10638428,0.9915161,-0.08758545
1725950403371,2024-09-10T06:40:03.371Z,108154,-0.09362793,1.0001221,-0.04437256
1725950403419,2024-09-10T06:40:03.419Z,108202,-0.08428955,0.970459,-0.064819336
1725950403463,2024-09-10T06:40:03.463Z,108246,-0.08288574,1.0004883,-0.05206299
1725950403487,2024-09-10T06:40:03.487Z,108270,-0.09484863,0.9945679,-0.057006836
1725950403511,2024-09-10T06:40:03.511Z,108294,-0.09777832,0.9851074,-0.052001953
1725950403552,2024-09-10T06:40:03.552Z,108335,-0.10491943,1.007019,-0.030029297
1725950403598,2024-09-10T06:40:03.598Z,108381,-0.11151123,0.996521,-0.036743164
1725950403642,2024-09-10T06:40:03.642Z,108425,-0.114990234,0.99749756,-0.029052734
1725950403689,2024-09-10T06:40:03.689Z,108472,-0.103515625,0.99957275,-0.02142334
1725950403733,2024-09-10T06:40:03.733Z,108516,-0.11694336,0.9953613,-0.0178833
1725950403779,2024-09-10T06:40:03.779Z,108562,-0.10595703,0.9724121,-0.041748047
1725950403823,2024-09-10T06:40:03.823Z,108606,-0.113586426,0.9710083,-0.076416016
1725950403870,2024-09-10T06:40:03.870Z,108653,-0.11022949,1.0090942,-0.06866455
1725950403895,2024-09-10T06:40:03.895Z,108678,-0.119140625,1.0385132,-0.046325684
1725950403913,2024-09-10T06:40:03.913Z,108696,-0.093688965,1.0308838,-0.04284668
1725950403953,2024-09-10T06:40:03.953Z,108736,-0.07922363,1.0219116,-0.048095703
1725950404003,2024-09-10T06:40:04.003Z,108786,-0.057128906,1.0231323,-0.03253174
1725950404047,2024-09-10T06:40:04.047Z,108830,-0.061462402,1.0059814,-0.053527832
1725950404093,2024-09-10T06:40:04.093Z,108876,-0.07110596,1.0366211,-0.053344727
1725950404137,2024-09-10T06:40:04.137Z,108920,-0.073791504,1.0307007,-0.07885742
1725950404181,2024-09-10T06:40:04.181Z,108964,-0.103149414,0.95806885,-0.026611328
1725950404228,2024-09-10T06:40:04.228Z,109011,-0.091430664,0.95062256,-0.04333496
1725950404319,2024-09-10T06:40:04.319Z,109102,-0.1083374,0.96673584,-0.06591797
1725950404345,2024-09-10T06:40:04.345Z,109128,-0.11437988,1.0158081,-0.07702637
1725950404364,2024-09-10T06:40:04.364Z,109147,-0.10223389,1.0547485,-0.1359253
1725950404380,2024-09-10T06:40:04.380Z,109163,-0.119506836,1.0122681,-0.08258057
1725950404404,2024-09-10T06:40:04.404Z,109187,-0.08569336,1.0526733,-0.09033203
1725950404452,2024-09-10T06:40:04.452Z,109235,-0.10809326,1.0314331,-0.09362793
1725950404497,2024-09-10T06:40:04.497Z,109280,-0.113586426,0.97473145,-0.060546875
1725950404542,2024-09-10T06:40:04.542Z,109325,-0.07763672,0.9580078,-0.064453125
1725950404588,2024-09-10T06:40:04.588Z,109371,-0.070617676,0.94421387,-0.04547119
1725950404633,2024-09-10T06:40:04.633Z,109416,-0.07501221,0.9463501,-0.059631348
1725950404679,2024-09-10T06:40:04.679Z,109462,-0.06854248,0.98791504,-0.08453369
1725950404724,2024-09-10T06:40:04.724Z,109507,-0.075927734,1.0142212,-0.105285645
1725950404751,2024-09-10T06:40:04.751Z,109534,-0.09112549,1.0306396,-0.11755371
1725950404777,2024-09-10T06:40:04.777Z,109560,-0.09692383,1.0170288,-0.11773682
1725950404807,2024-09-10T06:40:04.807Z,109590,-0.0904541,1.0012817,-0.091918945
1725950404857,2024-09-10T06:40:04.857Z,109640,-0.092041016,0.9970703,-0.09411621
1725950404908,2024-09-10T06:40:04.908Z,109691,-0.10168457,0.9902954,-0.097839355
1725950404946,2024-09-10T06:40:04.946Z,109729,-0.09100342,0.9937744,-0.11175537
1725950404991,2024-09-10T06:40:04.991Z,109774,-0.092041016,1.0002441,-0.12219238
1725950405037,2024-09-10T06:40:05.037Z,109820,-0.09454346,1.0133667,-0.14318848
1725950405085,2024-09-10T06:40:05.085Z,109868,-0.09442139,1.0056152,-0.14581299
1725950405128,2024-09-10T06:40:05.128Z,109911,-0.09741211,0.9963379,-0.13476562
1725950405150,2024-09-10T06:40:05.150Z,109933,-0.08526611,0.998291,-0.13323975
1725950405170,2024-09-10T06:40:05.170Z,109953,-0.10272217,0.9894409,-0.1272583
1725950405217,2024-09-10T06:40:05.217Z,110000,-0.09240723,0.9979248,-0.1352539
1725950405261,2024-09-10T06:40:05.261Z,110044,-0.108947754,0.9916992,-0.14501953
1725950405308,2024-09-10T06:40:05.308Z,110091,-0.107177734,0.99243164,-0.15167236
1725950405353,2024-09-10T06:40:05.353Z,110136,-0.10333252,0.98321533,-0.15802002
1725950405396,2024-09-10T06:40:05.396Z,110179,-0.09313965,0.99768066,-0.16009521
1725950405449,2024-09-10T06:40:05.449Z,110232,-0.11401367,0.99487305,-0.17388916
1725950405489,2024-09-10T06:40:05.489Z,110272,-0.0793457,0.98272705,-0.18530273
1725950405533,2024-09-10T06:40:05.533Z,110316,-0.124816895,0.96569824,-0.17358398
1725950405555,2024-09-10T06:40:05.555Z,110338,-0.07409668,0.9763794,-0.17974854
1725950405573,2024-09-10T06:40:05.573Z,110356,-0.10559082,0.9672241,-0.18200684
1725950405621,2024-09-10T06:40:05.621Z,110404,-0.08856201,0.99853516,-0.19659424
1725950405667,2024-09-10T06:40:05.667Z,110450,-0.12133789,0.9892578,-0.19659424
1725950405713,2024-09-10T06:40:05.713Z,110496,-0.10656738,0.99658203,-0.20776367
1725950405757,2024-09-10T06:40:05.757Z,110540,-0.09625244,0.991272,-0.20544434
1725950405803,2024-09-10T06:40:05.803Z,110586,-0.10809326,0.9684448,-0.21459961
1725950405846,2024-09-10T06:40:05.846Z,110629,-0.093444824,0.95043945,-0.21551514
1725950405894,2024-09-10T06:40:05.894Z,110677,-0.10870361,0.95147705,-0.23638916
1725950405938,2024-09-10T06:40:05.938Z,110721,-0.10998535,0.9515381,-0.2290039
1725950405983,2024-09-10T06:40:05.983Z,110766,-0.11364746,0.96868896,-0.22680664
1725950406006,2024-09-10T06:40:06.006Z,110789,-0.093566895,0.97491455,-0.22167969
1725950406023,2024-09-10T06:40:06.023Z,110806,-0.1105957,0.97753906,-0.23632812
1725950406072,2024-09-10T06:40:06.072Z,110855,-0.10455322,1.0038452,-0.25354004
1725950406117,2024-09-10T06:40:06.117Z,110900,-0.10571289,0.99902344,-0.25933838
1725950406208,2024-09-10T06:40:06.208Z,110991,-0.11437988,0.9702759,-0.25634766
1725950406235,2024-09-10T06:40:06.235Z,111018,-0.10430908,0.972229,-0.25567627
1725950406260,2024-09-10T06:40:06.260Z,111043,-0.10064697,0.9766846,-0.25634766
1725950406293,2024-09-10T06:40:06.293Z,111076,-0.10925293,0.98254395,-0.27490234
1725950406342,2024-09-10T06:40:06.342Z,111125,-0.1083374,0.9678345,-0.26757812
1725950406387,2024-09-10T06:40:06.387Z,111170,-0.10357666,0.97491455,-0.2791748
1725950406409,2024-09-10T06:40:06.409Z,111192,-0.09613037,0.9642334,-0.276062
1725950406428,2024-09-10T06:40:06.428Z,111211,-0.104003906,0.949646,-0.2803955
1725950406478,2024-09-10T06:40:06.478Z,111261,-0.08544922,0.95477295,-0.2897339
1725950406522,2024-09-10T06:40:06.522Z,111305,-0.09991455,0.940979,-0.288208
1725950406568,2024-09-10T06:40:06.568Z,111351,-0.088256836,0.9562378,-0.293396
1725950406613,2024-09-10T06:40:06.613Z,111396,-0.10467529,0.9569092,-0.30023193
1725950406656,2024-09-10T06:40:06.656Z,111439,-0.09326172,0.9641113,-0.30096436
1725950406703,2024-09-10T06:40:06.703Z,111486,-0.10015869,0.9674072,-0.3092041
1725950406748,2024-09-10T06:40:06.748Z,111531,-0.0960083,0.96661377,-0.2962036
1725950406793,2024-09-10T06:40:06.793Z,111576,-0.097839355,0.9569702,-0.3126831
1725950406816,2024-09-10T06:40:06.816Z,111599,-0.105285645,0.95184326,-0.3164673
1725950406839,2024-09-10T06:40:06.839Z,111622,-0.09429932,0.96759033,-0.31427002
1725950406882,2024-09-10T06:40:06.882Z,111665,-0.101501465,0.96588135,-0.3227539
1725950406930,2024-09-10T06:40:06.930Z,111713,-0.10876465,0.95892334,-0.33312988
1725950406974,2024-09-10T06:40:06.974Z,111757,-0.11645508,0.9449463,-0.3110962
1725950407018,2024-09-10T06:40:07.018Z,111801,-0.095458984,0.94085693,-0.3109131
1725950407065,2024-09-10T06:40:07.065Z,111848,-0.09967041,0.9343872,-0.32092285
1725950407108,2024-09-10T06:40:07.108Z,111891,-0.10839844,0.92803955,-0.3145752
1725950407154,2024-09-10T06:40:07.154Z,111937,-0.08392334,0.949646,-0.30767822
1725950407198,2024-09-10T06:40:07.198Z,111981,-0.10357666,0.94366455,-0.31323242
1725950407244,2024-09-10T06:40:07.244Z,112027,-0.093322754,0.95251465,-0.3133545
1725950407270,2024-09-10T06:40:07.270Z,112053,-0.11126709,0.947937,-0.302063
1725950407332,2024-09-10T06:40:07.332Z,112115,-0.084350586,0.96258545,-0.307312
1725950407356,2024-09-10T06:40:07.356Z,112139,-0.09991455,0.95947266,-0.3189087
1725950407374,2024-09-10T06:40:07.374Z,112157,-0.078186035,0.9812622,-0.30413818
1725950407421,2024-09-10T06:40:07.421Z,112204,-0.09991455,0.9678345,-0.31451416
1725950407468,2024-09-10T06:40:07.468Z,112251,-0.09686279,0.9532471,-0.32080078
1725950407512,2024-09-10T06:40:07.512Z,112295,-0.097839355,0.9501343,-0.30786133
1725950407558,2024-09-10T06:40:07.558Z,112341,-0.08129883,0.9567871,-0.30975342
1725950407604,2024-09-10T06:40:07.604Z,112387,-0.09655762,0.94885254,-0.31463623
1725950407649,2024-09-10T06:40:07.649Z,112432,-0.087646484,0.95428467,-0.32598877
1725950407673,2024-09-10T06:40:07.673Z,112456,-0.09655762,0.95043945,-0.32250977
1725950407697,2024-09-10T06:40:07.697Z,112480,-0.085876465,0.9597168,-0.31835938
1725950407736,2024-09-10T06:40:07.736Z,112519,-0.097229004,0.95562744,-0.32196045
1725950407782,2024-09-10T06:40:07.782Z,112565,-0.08795166,0.96203613,-0.3267212
1725950407827,2024-09-10T06:40:07.827Z,112610,-0.09613037,0.96710205,-0.3347168
1725950407872,2024-09-10T06:40:07.872Z,112655,-0.09631348,0.97351074,-0.34118652
1725950407916,2024-09-10T06:40:07.916Z,112699,-0.09552002,0.97436523,-0.32873535
1725950407960,2024-09-10T06:40:07.960Z,112743,-0.0925293,0.98083496,-0.33935547
1725950408006,2024-09-10T06:40:08.006Z,112789,-0.10797119,0.979187,-0.34204102
1725950408051,2024-09-10T06:40:08.051Z,112834,-0.09844971,0.9920044,-0.35058594
1725950408075,2024-09-10T06:40:08.075Z,112858,-0.10632324,0.9807739,-0.3366089
1725950408095,2024-09-10T06:40:08.095Z,112878,-0.0970459,0.98443604,-0.34375
1725950408141,2024-09-10T06:40:08.141Z,112924,-0.107299805,0.9741211,-0.33270264
1725950408186,2024-09-10T06:40:08.186Z,112969,-0.10266113,0.9703369,-0.34692383
1725950408232,2024-09-10T06:40:08.232Z,113015,-0.10498047,0.9642334,-0.3468628
1725950408278,2024-09-10T06:40:08.278Z,113061,-0.10064697,0.95843506,-0.33758545
1725950408323,2024-09-10T06:40:08.323Z,113106,-0.09698486,0.9555054,-0.34350586
1725950408369,2024-09-10T06:40:08.369Z,113152,-0.099121094,0.9678345,-0.35443115
1725950408412,2024-09-10T06:40:08.412Z,113195,-0.099243164,0.9928589,-0.3557129
1725950408472,2024-09-10T06:40:08.472Z,113255,-0.11248779,1.0032959,-0.36413574
1725950408549,2024-09-10T06:40:08.549Z,113332,-0.10601807,1.0144653,-0.3517456
1725950408575,2024-09-10T06:40:08.575Z,113358,-0.11480713,1.0075073,-0.3557129
1725950408593,2024-09-10T06:40:08.593Z,113376,-0.10467529,1.0110474,-0.3564453
1725950408610,2024-09-10T06:40:08.610Z,113393,-0.10876465,1.0117798,-0.34448242
1725950408642,2024-09-10T06:40:08.642Z,113425,-0.12335205,1.0014038,-0.3482666
1725950408681,2024-09-10T06:40:08.681Z,113464,-0.124816895,0.9762573,-0.3378296
1725950408727,2024-09-10T06:40:08.727Z,113510,-0.11090088,0.9694824,-0.33184814
1725950408772,2024-09-10T06:40:08.772Z,113555,-0.09643555,0.979126,-0.333313
1725950408816,2024-09-10T06:40:08.816Z,113599,-0.114990234,0.9779053,-0.31414795
1725950408862,2024-09-10T06:40:08.862Z,113645,-0.13238525,0.96466064,-0.30828857
1725950408909,2024-09-10T06:40:08.909Z,113692,-0.09954834,0.982605,-0.2929077
1725950408933,2024-09-10T06:40:08.933Z,113716,-0.10308838,0.98168945,-0.3048706
1725950408951,2024-09-10T06:40:08.951Z,113734,-0.11785889,0.97094727,-0.31774902
1725950409043,2024-09-10T06:40:09.043Z,113826,-0.11340332,0.9593506,-0.31451416
1725950409067,2024-09-10T06:40:09.067Z,113850,-0.11517334,0.9495239,-0.28485107
1725950409083,2024-09-10T06:40:09.083Z,113866,-0.13763428,0.9560547,-0.25427246
1725950409134,2024-09-10T06:40:09.134Z,113917,-0.11431885,0.9611206,-0.28381348
1725950409180,2024-09-10T06:40:09.180Z,113963,-0.101989746,0.95892334,-0.3034668
1725950409223,2024-09-10T06:40:09.223Z,114006,-0.10900879,0.9539795,-0.29089355
1725950409267,2024-09-10T06:40:09.267Z,114050,-0.111572266,0.9594116,-0.29516602
1725950409314,2024-09-10T06:40:09.314Z,114097,-0.113098145,0.9793091,-0.2786255
1725950409337,2024-09-10T06:40:09.337Z,114120,-0.10083008,0.9998779,-0.26470947
1725950409359,2024-09-10T06:40:09.359Z,114142,-0.10961914,1.0089111,-0.26135254
1725950409401,2024-09-10T06:40:09.401Z,114184,-0.10345459,1.012207,-0.26611328
1725950409447,2024-09-10T06:40:09.447Z,114230,-0.10858154,1.0026245,-0.27770996
1725950409491,2024-09-10T06:40:09.491Z,114274,-0.097717285,0.9926758,-0.2644043
1725950409539,2024-09-10T06:40:09.539Z,114322,-0.10461426,0.98968506,-0.26470947
1725950409581,2024-09-10T06:40:09.581Z,114364,-0.09490967,0.97424316,-0.27398682
1725950409628,2024-09-10T06:40:09.628Z,114411,-0.08728027,0.9580078,-0.27423096
1725950409672,2024-09-10T06:40:09.672Z,114455,-0.07922363,0.9585571,-0.25878906
1725950409717,2024-09-10T06:40:09.717Z,114500,-0.07489014,0.95928955,-0.25720215
1725950409764,2024-09-10T06:40:09.764Z,114547,-0.06945801,0.9713745,-0.24963379
1725950409787,2024-09-10T06:40:09.787Z,114570,-0.074279785,0.98168945,-0.2454834
1725950409810,2024-09-10T06:40:09.810Z,114593,-0.09387207,0.99420166,-0.23950195
1725950409851,2024-09-10T06:40:09.851Z,114634,-0.08728027,0.9976196,-0.2296753
1725950409897,2024-09-10T06:40:09.897Z,114680,-0.082336426,1.0007935,-0.22784424
1725950409942,2024-09-10T06:40:09.942Z,114725,-0.08001709,0.99664307,-0.25335693
1725950409989,2024-09-10T06:40:09.989Z,114772,-0.07861328,0.98791504,-0.25958252
1725950410034,2024-09-10T06:40:10.034Z,114817,-0.091308594,0.980896,-0.26019287
1725950410078,2024-09-10T06:40:10.078Z,114861,-0.09967041,0.967041,-0.26281738
1725950410124,2024-09-10T06:40:10.124Z,114907,-0.073913574,0.98480225,-0.24224854
1725950410169,2024-09-10T06:40:10.169Z,114952,-0.10900879,0.9810791,-0.21807861
1725950410191,2024-09-10T06:40:10.191Z,114974,-0.07305908,0.98950195,-0.23852539
1725950410209,2024-09-10T06:40:10.209Z,114992,-0.121154785,0.97210693,-0.2288208
1725950410303,2024-09-10T06:40:10.303Z,115086,-0.09277344,0.9780884,-0.22766113
1725950410327,2024-09-10T06:40:10.327Z,115110,-0.10296631,0.9688721,-0.20690918
1725950410344,2024-09-10T06:40:10.344Z,115127,-0.10058594,0.97088623,-0.1998291
1725950410393,2024-09-10T06:40:10.393Z,115176,-0.1005249,0.97528076,-0.20166016
1725950410436,2024-09-10T06:40:10.436Z,115219,-0.11993408,0.9776001,-0.1977539
1725950410484,2024-09-10T06:40:10.484Z,115267,-0.117370605,0.98217773,-0.19647217
1725950410528,2024-09-10T06:40:10.528Z,115311,-0.10205078,0.97839355,-0.19012451
1725950410573,2024-09-10T06:40:10.573Z,115356,-0.1005249,0.9890747,-0.16271973
1725950410597,2024-09-10T06:40:10.597Z,115380,-0.120910645,0.97576904,-0.17279053
1725950410620,2024-09-10T06:40:10.620Z,115403,-0.105895996,0.98272705,-0.17340088
1725950410662,2024-09-10T06:40:10.662Z,115445,-0.10418701,0.9814453,-0.15100098
1725950410708,2024-09-10T06:40:10.708Z,115491,-0.09539795,0.97332764,-0.14959717
1725950410754,2024-09-10T06:40:10.754Z,115537,-0.09246826,0.961853,-0.13934326
1725950410798,2024-09-10T06:40:10.798Z,115581,-0.09655762,0.94854736,-0.12738037
1725950410843,2024-09-10T06:40:10.843Z,115626,-0.083618164,0.9569702,-0.13458252
1725950410892,2024-09-10T06:40:10.892Z,115675,-0.08630371,0.96643066,-0.11517334
1725950410933,2024-09-10T06:40:10.933Z,115716,-0.081848145,0.97802734,-0.10614014
1725950410978,2024-09-10T06:40:10.978Z,115761,-0.08703613,0.9743042,-0.09472656
1725950411024,2024-09-10T06:40:11.024Z,115807,-0.1015625,0.9824219,-0.09899902
1725950411045,2024-09-10T06:40:11.045Z,115828,-0.09875488,0.98291016,-0.067993164
1725950411064,2024-09-10T06:40:11.064Z,115847,-0.105285645,0.9957886,-0.03753662
1725950411111,2024-09-10T06:40:11.111Z,115894,-0.10357666,1.0008545,-0.0234375
1725950411159,2024-09-10T06:40:11.159Z,115942,-0.10620117,0.99816895,-0.017822266
1725950411202,2024-09-10T06:40:11.202Z,115985,-0.08709717,0.99591064,-0.033569336
1725950411246,2024-09-10T06:40:11.246Z,116029,-0.08441162,0.98968506,-0.064941406
1725950411291,2024-09-10T06:40:11.291Z,116074,-0.07928467,0.9968872,-0.06628418
1725950411337,2024-09-10T06:40:11.337Z,116120,-0.09869385,0.99468994,-0.07940674
1725950411429,2024-09-10T06:40:11.429Z,116212,-0.09777832,0.9857178,-0.08734131
1725950411456,2024-09-10T06:40:11.456Z,116239,-0.10192871,0.9821167,-0.06311035
1725950411477,2024-09-10T06:40:11.477Z,116260,-0.10882568,0.9771118,-0.059692383
1725950411516,2024-09-10T06:40:11.516Z,116299,-0.120910645,0.9925537,-0.05847168
1725950411535,2024-09-10T06:40:11.535Z,116318,-0.12237549,1.013855,-0.049804688
1725950411559,2024-09-10T06:40:11.559Z,116342,-0.11682129,1.0140991,-0.05847168
1725950411606,2024-09-10T06:40:11.606Z,116389,-0.109558105,1.0015869,-0.06866455
1725950411652,2024-09-10T06:40:11.652Z,116435,-0.11352539,0.99279785,-0.07421875
1725950411696,2024-09-10T06:40:11.696Z,116479,-0.11767578,0.9873657,-0.083984375
1725950411743,2024-09-10T06:40:11.743Z,116526,-0.117004395,0.9873047,-0.09454346
1725950411789,2024-09-10T06:40:11.789Z,116572,-0.11505127,0.9869995,-0.103271484
1725950411835,2024-09-10T06:40:11.835Z,116618,-0.12286377,0.9891968,-0.1083374
1725950411858,2024-09-10T06:40:11.858Z,116641,-0.1237793,0.9897461,-0.10839844
1725950411880,2024-09-10T06:40:11.880Z,116663,-0.11627197,0.9846802,-0.115234375
1725950411921,2024-09-10T06:40:11.921Z,116704,-0.11352539,0.9770508,-0.112976074
1725950411967,2024-09-10T06:40:11.967Z,116750,-0.10394287,0.9616089,-0.13122559
1725950412011,2024-09-10T06:40:12.011Z,116794,-0.10083008,0.95635986,-0.14440918
1725950412057,2024-09-10T06:40:12.057Z,116840,-0.09814453,0.9672241,-0.14501953
1725950412103,2024-09-10T06:40:12.103Z,116886,-0.09490967,0.97631836,-0.16320801
1725950412147,2024-09-10T06:40:12.147Z,116930,-0.11798096,0.96875,-0.17883301
1725950412198,2024-09-10T06:40:12.198Z,116981,-0.09472656,0.9711304,-0.18591309
1725950412237,2024-09-10T06:40:12.237Z,117020,-0.12774658,0.95617676,-0.19970703
1725950412284,2024-09-10T06:40:12.284Z,117067,-0.109436035,0.977417,-0.22039795
1725950412311,2024-09-10T06:40:12.311Z,117094,-0.12615967,0.97924805,-0.21240234
1725950412337,2024-09-10T06:40:12.337Z,117120,-0.1239624,0.9939575,-0.22937012
1725950412374,2024-09-10T06:40:12.374Z,117157,-0.12677002,0.98291016,-0.22058105
1725950412417,2024-09-10T06:40:12.417Z,117200,-0.12872314,0.97283936,-0.23919678
1725950412463,2024-09-10T06:40:12.463Z,117246,-0.11218262,0.9686279,-0.25720215
1725950412509,2024-09-10T06:40:12.509Z,117292,-0.11578369,0.9827881,-0.24761963
1725950412556,2024-09-10T06:40:12.556Z,117339,-0.120788574,0.99835205,-0.2588501
1725950412597,2024-09-10T06:40:12.597Z,117380,-0.1260376,0.9830322,-0.26678467
1725950412642,2024-09-10T06:40:12.642Z,117425,-0.14208984,0.9818115,-0.276062
1725950412692,2024-09-10T06:40:12.692Z,117475,-0.115722656,0.99890137,-0.272583
1725950412718,2024-09-10T06:40:12.718Z,117501,-0.13250732,0.9916992,-0.27496338
1725950412741,2024-09-10T06:40:12.741Z,117524,-0.14727783,0.96936035,-0.27923584
1725950412775,2024-09-10T06:40:12.775Z,117558,-0.1350708,0.9560547,-0.28277588
1725950412822,2024-09-10T06:40:12.822Z,117605,-0.11975098,0.9547119,-0.26611328
1725950412868,2024-09-10T06:40:12.868Z,117651,-0.13909912,0.9484253,-0.27178955
1725950412914,2024-09-10T06:40:12.914Z,117697,-0.11645508,0.9451294,-0.27990723
1725950412960,2024-09-10T06:40:12.960Z,117743,-0.11254883,0.9515991,-0.29748535
1725950413006,2024-09-10T06:40:13.006Z,117789,-0.123168945,0.95233154,-0.2930298
1725950413049,2024-09-10T06:40:13.049Z,117832,-0.1260376,0.93914795,-0.30004883
1725950413092,2024-09-10T06:40:13.092Z,117875,-0.121276855,0.9440918,-0.3133545
1725950413115,2024-09-10T06:40:13.115Z,117898,-0.11694336,0.93011475,-0.3083496
1725950413133,2024-09-10T06:40:13.133Z,117916,-0.122558594,0.9328613,-0.32470703
1725950413183,2024-09-10T06:40:13.183Z,117966,-0.13317871,0.9326172,-0.32281494
1725950413229,2024-09-10T06:40:13.229Z,118012,-0.12548828,0.95007324,-0.32818604
1725950413274,2024-09-10T06:40:13.274Z,118057,-0.12615967,0.96606445,-0.32330322
1725950413319,2024-09-10T06:40:13.319Z,118102,-0.13256836,0.9651489,-0.29077148
1725950413361,2024-09-10T06:40:13.361Z,118144,-0.1394043,0.9647217,-0.31774902
1725950413409,2024-09-10T06:40:13.409Z,118192,-0.10827637,0.9884033,-0.28570557
1725950413454,2024-09-10T06:40:13.454Z,118237,-0.11859131,0.99658203,-0.2954712
1725950413499,2024-09-10T06:40:13.499Z,118282,-0.12731934,0.9848633,-0.31207275
1725950413540,2024-09-10T06:40:13.540Z,118323,-0.12390137,0.9730835,-0.29278564
1725950413564,2024-09-10T06:40:13.564Z,118347,-0.115600586,0.96765137,-0.28271484
1725950413586,2024-09-10T06:40:13.586Z,118369,-0.12487793,0.96014404,-0.28155518
1725950413626,2024-09-10T06:40:13.626Z,118409,-0.13043213,0.958313,-0.2960205
1725950413676,2024-09-10T06:40:13.676Z,118459,-0.1239624,0.95788574,-0.29284668
1725950413722,2024-09-10T06:40:13.722Z,118505,-0.15124512,0.9466553,-0.28826904
1725950413767,2024-09-10T06:40:13.767Z,118550,-0.12695312,0.9561157,-0.29431152
1725950413813,2024-09-10T06:40:13.813Z,118596,-0.13513184,0.96813965,-0.30548096
1725950413857,2024-09-10T06:40:13.857Z,118640,-0.14611816,0.9714966,-0.30993652
1725950413903,2024-09-10T06:40:13.903Z,118686,-0.15393066,0.97247314,-0.30218506
1725950413949,2024-09-10T06:40:13.949Z,118732,-0.12915039,0.9862671,-0.2944336
1725950413972,2024-09-10T06:40:13.972Z,118755,-0.14770508,0.97979736,-0.3081665
1725950413994,2024-09-10T06:40:13.994Z,118777,-0.14886475,0.9663086,-0.30560303
1725950414035,2024-09-10T06:40:14.035Z,118818,-0.14459229,0.9527588,-0.29089355
1725950414082,2024-09-10T06:40:14.082Z,118865,-0.12896729,0.95928955,-0.30023193
1725950414128,2024-09-10T06:40:14.128Z,118911,-0.13317871,0.9621582,-0.3046875
1725950414173,2024-09-10T06:40:14.173Z,118956,-0.13574219,0.9674072,-0.31072998
1725950414217,2024-09-10T06:40:14.217Z,119000,-0.14587402,0.96551514,-0.3112793
1725950414262,2024-09-10T06:40:14.262Z,119045,-0.1381836,0.9644165,-0.31237793
1725950414308,2024-09-10T06:40:14.308Z,119091,-0.13787842,0.97198486,-0.29223633
1725950414353,2024-09-10T06:40:14.353Z,119136,-0.13269043,0.9763794,-0.29858398
1725950414377,2024-09-10T06:40:14.377Z,119160,-0.124572754,0.9784546,-0.30169678
1725950414393,2024-09-10T06:40:14.393Z,119176,-0.12695312,0.982666,-0.30706787
1725950414444,2024-09-10T06:40:14.444Z,119227,-0.12182617,0.9842529,-0.30511475
1725950414487,2024-09-10T06:40:14.487Z,119270,-0.1217041,0.9710083,-0.30859375
1725950414533,2024-09-10T06:40:14.533Z,119316,-0.123168945,0.9661865,-0.3112793
1725950414577,2024-09-10T06:40:14.577Z,119360,-0.1303711,0.9729004,-0.31921387
1725950414621,2024-09-10T06:40:14.621Z,119404,-0.1282959,0.9782715,-0.32128906
1725950414667,2024-09-10T06:40:14.667Z,119450,-0.13421631,0.97247314,-0.32641602
1725950414713,2024-09-10T06:40:14.713Z,119496,-0.13354492,0.95996094,-0.31713867
1725950414757,2024-09-10T06:40:14.757Z,119540,-0.13079834,0.9578247,-0.31970215
1725950414803,2024-09-10T06:40:14.803Z,119586,-0.14593506,0.9519043,-0.3206787
1725950414830,2024-09-10T06:40:14.830Z,119613,-0.140625,0.95874023,-0.32873535
1725950414854,2024-09-10T06:40:14.854Z,119637,-0.14276123,0.9594116,-0.30914307
1725950414892,2024-09-10T06:40:14.892Z,119675,-0.13745117,0.9616699,-0.32055664
1725950414936,2024-09-10T06:40:14.936Z,119719,-0.14923096,0.9522705,-0.3170166
1725950414984,2024-09-10T06:40:14.984Z,119767,-0.14385986,0.9553833,-0.31048584
1725950415029,2024-09-10T06:40:15.029Z,119812,-0.13604736,0.9602051,-0.31591797
1725950415073,2024-09-10T06:40:15.073Z,119856,-0.14508057,0.9534912,-0.30426025
1725950415117,2024-09-10T06:40:15.117Z,119900,-0.14331055,0.9465332,-0.29315186
1725950415162,2024-09-10T06:40:15.162Z,119945,-0.1404419,0.9399414,-0.29162598
1725950415208,2024-09-10T06:40:15.208Z,119991,-0.13708496,0.9366455,-0.2991333
1725950415233,2024-09-10T06:40:15.233Z,120016,-0.13934326,0.93774414,-0.31030273
1725950415258,2024-09-10T06:40:15.258Z,120041,-0.13824463,0.9399414,-0.30822754
1725950415296,2024-09-10T06:40:15.296Z,120079,-0.13287354,0.9406128,-0.32720947
1725950415344,2024-09-10T06:40:15.344Z,120127,-0.13134766,0.95269775,-0.32617188
1725950415386,2024-09-10T06:40:15.386Z,120169,-0.13977051,0.95880127,-0.3310547
1725950415431,2024-09-10T06:40:15.431Z,120214,-0.1362915,0.970459,-0.3363037
1725950415480,2024-09-10T06:40:15.480Z,120263,-0.13824463,0.96881104,-0.3151245
1725950415523,2024-09-10T06:40:15.523Z,120306,-0.121520996,0.9789429,-0.3371582
1725950415568,2024-09-10T06:40:15.568Z,120351,-0.14758301,0.9977417,-0.3632202
1725950415612,2024-09-10T06:40:15.612Z,120395,-0.1519165,1.0236206,-0.3366089
1725950415636,2024-09-10T06:40:15.636Z,120419,-0.13696289,1.0496826,-0.33642578
1725950415658,2024-09-10T06:40:15.658Z,120441,-0.15197754,1.0429688,-0.33691406
1725950415701,2024-09-10T06:40:15.701Z,120484,-0.15350342,1.0441895,-0.36132812
1725950415749,2024-09-10T06:40:15.749Z,120532,-0.16467285,1.0305176,-0.36090088
1725950415792,2024-09-10T06:40:15.792Z,120575,-0.12939453,1.0499268,-0.3232422
1725950415838,2024-09-10T06:40:15.838Z,120621,-0.13433838,1.0338135,-0.3287964
1725950415883,2024-09-10T06:40:15.883Z,120666,-0.15661621,1.0183716,-0.34851074
1725950415929,2024-09-10T06:40:15.929Z,120712,-0.14593506,1.0036621,-0.33398438
1725950415972,2024-09-10T06:40:15.972Z,120755,-0.1293335,1.0131836,-0.2952881
1725950416017,2024-09-10T06:40:16.017Z,120800,-0.12677002,0.9995117,-0.28240967
1725950416063,2024-09-10T06:40:16.063Z,120846,-0.14440918,0.986145,-0.2980957
1725950416088,2024-09-10T06:40:16.088Z,120871,-0.13140869,1.0012817,-0.28009033
1725950416114,2024-09-10T06:40:16.114Z,120897,-0.14746094,0.9937134,-0.26983643
1725950416152,2024-09-10T06:40:16.152Z,120935,-0.13305664,0.99017334,-0.28955078
1725950416196,2024-09-10T06:40:16.196Z,120979,-0.1295166,0.96032715,-0.27972412
1725950416241,2024-09-10T06:40:16.241Z,121024,-0.12463379,0.96136475,-0.26379395
1725950416286,2024-09-10T06:40:16.286Z,121069,-0.13085938,0.95440674,-0.274292
1725950416340,2024-09-10T06:40:16.340Z,121123,-0.12219238,0.9664917,-0.2802124
1725950416379,2024-09-10T06:40:16.379Z,121162,-0.10491943,0.9489746,-0.24475098
1725950416422,2024-09-10T06:40:16.422Z,121205,-0.11993408,0.9208374,-0.24316406
1725950416467,2024-09-10T06:40:16.467Z,121250,-0.1060791,0.93573,-0.22521973
1725950416489,2024-09-10T06:40:16.489Z,121272,-0.11682129,0.9232178,-0.22540283
1725950416523,2024-09-10T06:40:16.523Z,121306,-0.11621094,0.92785645,-0.23693848
1725950416556,2024-09-10T06:40:16.556Z,121339,-0.10882568,0.9371338,-0.22375488
1725950416601,2024-09-10T06:40:16.601Z,121384,-0.10144043,0.96295166,-0.19958496
1725950416647,2024-09-10T06:40:16.647Z,121430,-0.08190918,1.0029907,-0.20141602
1725950416694,2024-09-10T06:40:16.694Z,121477,-0.10101318,1.0008545,-0.19543457
1725950416737,2024-09-10T06:40:16.737Z,121520,-0.08331299,1.0036011,-0.19934082
1725950416782,2024-09-10T06:40:16.782Z,121565,-0.07928467,0.99194336,-0.17785645
1725950416839,2024-09-10T06:40:16.839Z,121622,-0.06817627,1.0012207,-0.1842041
1725950416876,2024-09-10T06:40:16.876Z,121659,-0.08276367,0.991333,-0.18151855
1725950416902,2024-09-10T06:40:16.902Z,121685,-0.038330078,0.99279785,-0.18200684
1725950416924,2024-09-10T06:40:16.924Z,121707,-0.061584473,0.97631836,-0.17077637
1725950416962,2024-09-10T06:40:16.962Z,121745,-0.04724121,0.9744873,-0.19140625
1725950417007,2024-09-10T06:40:17.007Z,121790,-0.06756592,0.96655273,-0.14013672
1725950417053,2024-09-10T06:40:17.053Z,121836,-0.058288574,0.9465332,-0.13793945
1725950417098,2024-09-10T06:40:17.098Z,121881,-0.0078125,0.95977783,-0.1161499
1725950417142,2024-09-10T06:40:17.142Z,121925,-0.058166504,0.96850586,-0.073913574
1725950417187,2024-09-10T06:40:17.187Z,121970,-0.04449463,0.98760986,-0.105041504
1725950417234,2024-09-10T06:40:17.234Z,122017,-0.04901123,1.0044556,-0.093322754
1725950417279,2024-09-10T06:40:17.279Z,122062,-0.043823242,1.0212402,-0.07873535
1725950417323,2024-09-10T06:40:17.323Z,122106,-0.07165527,0.99468994,-0.07910156
1725950417346,2024-09-10T06:40:17.346Z,122129,-0.036987305,0.9869385,-0.074523926
1725950417380,2024-09-10T06:40:17.380Z,122163,-0.03100586,0.9793701,-0.051452637
1725950417413,2024-09-10T06:40:17.413Z,122196,-0.03729248,0.97161865,-0.035217285
1725950417470,2024-09-10T06:40:17.470Z,122253,-0.020629883,0.9796753,-0.024536133
1725950417512,2024-09-10T06:40:17.512Z,122295,-0.02709961,0.98498535,-0.034851074
1725950417550,2024-09-10T06:40:17.550Z,122333,-0.023254395,0.97143555,-0.03967285
1725950417593,2024-09-10T06:40:17.593Z,122376,0.0010375977,0.9748535,-0.018005371
1725950417637,2024-09-10T06:40:17.637Z,122420,-0.04260254,0.9862671,0.019226074
1725950417683,2024-09-10T06:40:17.683Z,122466,-0.029907227,0.97528076,0.009155273
1725950417729,2024-09-10T06:40:17.729Z,122512,-0.018920898,0.9880371,0.020935059
1725950417755,2024-09-10T06:40:17.755Z,122538,-0.031982422,1.0042114,0.011169434
1725950417783,2024-09-10T06:40:17.783Z,122566,-0.022827148,0.9815674,7.9345703E-4
1725950417812,2024-09-10T06:40:17.812Z,122595,-0.022155762,0.98669434,0.0045776367
1725950417860,2024-09-10T06:40:17.860Z,122643,-0.013793945,0.9619751,0.017578125
1725950417908,2024-09-10T06:40:17.908Z,122691,-0.0036010742,0.9622803,0.021362305
1725950417951,2024-09-10T06:40:17.951Z,122734,-0.020568848,0.99279785,0.014953613
1725950417998,2024-09-10T06:40:17.998Z,122781,-0.039611816,1.0085449,0.013366699
1725950418040,2024-09-10T06:40:18.040Z,122823,-0.03540039,1.019165,0.032287598
1725950418088,2024-09-10T06:40:18.088Z,122871,-0.018005371,1.0025024,0.026000977
1725950418136,2024-09-10T06:40:18.136Z,122919,-0.017578125,0.9957886,0.029296875
1725950418158,2024-09-10T06:40:18.158Z,122941,-0.0146484375,0.9857178,0.04449463
1725950418175,2024-09-10T06:40:18.175Z,122958,-0.018920898,1.001831,0.028869629
1725950418220,2024-09-10T06:40:18.220Z,123003,-0.019042969,1.0337524,0.025024414
1725950418266,2024-09-10T06:40:18.266Z,123049,-0.0234375,1.0195923,0.01751709
1725950418310,2024-09-10T06:40:18.310Z,123093,-0.014282227,0.9984741,-0.0072631836
1725950418357,2024-09-10T06:40:18.357Z,123140,-0.023742676,0.9805298,0.010437012
1725950418402,2024-09-10T06:40:18.402Z,123185,-0.01739502,0.94714355,0.028503418
1725950418447,2024-09-10T06:40:18.447Z,123230,0.020263672,0.94854736,0.0076293945
1725950418490,2024-09-10T06:40:18.490Z,123273,-0.034240723,0.9977417,-0.04321289
1725950418541,2024-09-10T06:40:18.541Z,123324,0.0059814453,1.008606,-0.003540039
1725950418564,2024-09-10T06:40:18.564Z,123347,-0.036193848,1.0506592,0.018859863
1725950418587,2024-09-10T06:40:18.587Z,123370,-0.013244629,1.0463867,-0.014038086
1725950418627,2024-09-10T06:40:18.627Z,123410,-0.027832031,1.0100098,0.0064086914
1725950418670,2024-09-10T06:40:18.670Z,123453,0.040222168,1.0037842,-0.04522705
1725950418718,2024-09-10T06:40:18.718Z,123501,-0.02960205,0.9845581,-0.057495117
1725950418761,2024-09-10T06:40:18.761Z,123544,-0.011230469,0.9838867,-0.097473145
1725950418808,2024-09-10T06:40:18.808Z,123591,-0.046569824,0.972229,-0.06665039
1725950418853,2024-09-10T06:40:18.853Z,123636,-0.015319824,0.99591064,-0.07196045
1725950418897,2024-09-10T06:40:18.897Z,123680,-0.07092285,1.0170288,-0.07019043
1725950418943,2024-09-10T06:40:18.943Z,123726,-0.062683105,1.0049438,-0.06732178
1725950418989,2024-09-10T06:40:18.989Z,123772,-0.05908203,0.9882202,-0.0947876
1725950419014,2024-09-10T06:40:19.014Z,123797,-0.06378174,0.97454834,-0.099853516
1725950419038,2024-09-10T06:40:19.038Z,123821,-0.06109619,0.975647,-0.121398926
1725950419075,2024-09-10T06:40:19.075Z,123858,-0.068115234,0.96380615,-0.1437378
1725950419123,2024-09-10T06:40:19.123Z,123906,-0.12640381,0.9532471,-0.15753174
1725950419169,2024-09-10T06:40:19.169Z,123952,-0.041503906,1.0115356,-0.18597412
1725950419213,2024-09-10T06:40:19.213Z,123996,-0.12017822,0.993042,-0.15686035
1725950419258,2024-09-10T06:40:19.258Z,124041,-0.13421631,1.0042114,-0.18096924
1725950419303,2024-09-10T06:40:19.303Z,124086,-0.0647583,1.0080566,-0.18701172
1725950419348,2024-09-10T06:40:19.348Z,124131,-0.10394287,0.9828491,-0.18139648
1725950419395,2024-09-10T06:40:19.395Z,124178,-0.07122803,1.0046997,-0.19909668
1725950419419,2024-09-10T06:40:19.419Z,124202,-0.11517334,0.9873657,-0.21618652
1725950419443,2024-09-10T06:40:19.443Z,124226,-0.081726074,0.9694824,-0.21716309
1725950419481,2024-09-10T06:40:19.481Z,124264,-0.11383057,0.93292236,-0.20928955
1725950419526,2024-09-10T06:40:19.526Z,124309,-0.082336426,0.9442749,-0.21185303
1725950419572,2024-09-10T06:40:19.572Z,124355,-0.10223389,0.9398804,-0.22497559
1725950419618,2024-09-10T06:40:19.618Z,124401,-0.09509277,0.97436523,-0.2565918
1725950419664,2024-09-10T06:40:19.664Z,124447,-0.12957764,0.9536133,-0.25372314
1725950419709,2024-09-10T06:40:19.709Z,124492,-0.107055664,0.95874023,-0.2654419
1725950419755,2024-09-10T06:40:19.755Z,124538,-0.09887695,0.954834,-0.2565918
1725950419798,2024-09-10T06:40:19.798Z,124581,-0.10626221,0.9538574,-0.27545166
1725950419822,2024-09-10T06:40:19.822Z,124605,-0.1060791,0.9564209,-0.28564453
1725950419845,2024-09-10T06:40:19.845Z,124628,-0.113586426,0.9562988,-0.2876587
1725950419885,2024-09-10T06:40:19.885Z,124668,-0.12628174,0.95214844,-0.29248047
1725950419932,2024-09-10T06:40:19.932Z,124715,-0.095703125,0.9928589,-0.29455566
1725950419976,2024-09-10T06:40:19.976Z,124759,-0.13922119,0.9760742,-0.2855835
1725950420023,2024-09-10T06:40:20.023Z,124806,-0.109802246,0.991272,-0.29388428
1725950420067,2024-09-10T06:40:20.067Z,124850,-0.12207031,0.9848633,-0.30444336
1725950420113,2024-09-10T06:40:20.113Z,124896,-0.15759277,0.9841919,-0.28985596
1725950420159,2024-09-10T06:40:20.159Z,124942,-0.12701416,0.994812,-0.28857422
1725950420204,2024-09-10T06:40:20.204Z,124987,-0.13598633,0.9859619,-0.29241943
1725950420249,2024-09-10T06:40:20.249Z,125032,-0.12750244,0.98358154,-0.30023193
1725950420272,2024-09-10T06:40:20.272Z,125055,-0.13391113,0.9690552,-0.30474854
1725950420290,2024-09-10T06:40:20.290Z,125073,-0.1437378,0.9671631,-0.30950928
1725950420339,2024-09-10T06:40:20.339Z,125122,-0.13482666,0.9793701,-0.29486084
1725950420384,2024-09-10T06:40:20.384Z,125167,-0.1404419,0.98205566,-0.2929077
1725950420425,2024-09-10T06:40:20.425Z,125208,-0.14685059,0.9924927,-0.30212402
1725950420473,2024-09-10T06:40:20.473Z,125256,-0.1463623,0.9807129,-0.30029297
1725950420518,2024-09-10T06:40:20.518Z,125301,-0.15454102,0.9744873,-0.30426025
1725950420564,2024-09-10T06:40:20.564Z,125347,-0.15374756,0.9680176,-0.3060913
1725950420611,2024-09-10T06:40:20.611Z,125394,-0.14520264,0.96881104,-0.3001709
1725950420657,2024-09-10T06:40:20.657Z,125440,-0.14624023,0.970459,-0.30743408
1725950420682,2024-09-10T06:40:20.682Z,125465,-0.15588379,0.96899414,-0.30871582
1725950420698,2024-09-10T06:40:20.698Z,125481,-0.15338135,0.9659424,-0.30841064
1725950420740,2024-09-10T06:40:20.740Z,125523,-0.14685059,0.9541626,-0.3015747
1725950420787,2024-09-10T06:40:20.787Z,125570,-0.14916992,0.9626465,-0.3079834
1725950420832,2024-09-10T06:40:20.832Z,125615,-0.14508057,0.98095703,-0.30822754
1725950420881,2024-09-10T06:40:20.881Z,125664,-0.14385986,0.99713135,-0.32769775
1725950420923,2024-09-10T06:40:20.923Z,125706,-0.14855957,1.0058594,-0.33685303
1725950420969,2024-09-10T06:40:20.969Z,125752,-0.14074707,1.0214233,-0.32781982
1725950421012,2024-09-10T06:40:21.012Z,125795,-0.14715576,1.024292,-0.31115723
1725950421057,2024-09-10T06:40:21.057Z,125840,-0.15216064,1.0029907,-0.3128662
1725950421081,2024-09-10T06:40:21.081Z,125864,-0.15631104,0.9828491,-0.31604004
1725950421103,2024-09-10T06:40:21.103Z,125886,-0.14953613,0.97058105,-0.30291748
1725950421147,2024-09-10T06:40:21.147Z,125930,-0.14318848,0.97454834,-0.30078125
1725950421192,2024-09-10T06:40:21.192Z,125975,-0.14263916,0.98010254,-0.31469727
1725950421238,2024-09-10T06:40:21.238Z,126021,-0.15325928,0.9939575,-0.3098755
1725950421283,2024-09-10T06:40:21.283Z,126066,-0.15930176,0.9993286,-0.31622314
1725950421327,2024-09-10T06:40:21.327Z,126110,-0.15704346,0.9998779,-0.30596924
1725950421373,2024-09-10T06:40:21.373Z,126156,-0.15264893,1.0109863,-0.31115723
1725950421418,2024-09-10T06:40:21.418Z,126201,-0.16412354,0.99420166,-0.3143921
1725950421463,2024-09-10T06:40:21.463Z,126246,-0.13653564,1.0023193,-0.31695557
1725950421508,2024-09-10T06:40:21.508Z,126291,-0.14196777,1.0060425,-0.29516602
1725950421531,2024-09-10T06:40:21.531Z,126314,-0.14788818,0.9985962,-0.30340576
1725950421549,2024-09-10T06:40:21.549Z,126332,-0.15582275,0.9984741,-0.30529785
1725950421597,2024-09-10T06:40:21.597Z,126380,-0.14941406,1.0032349,-0.28814697
1725950421643,2024-09-10T06:40:21.643Z,126426,-0.14160156,0.9805908,-0.24511719
1725950421690,2024-09-10T06:40:21.690Z,126473,-0.20324707,1.0079956,-0.16912842
1725950421733,2024-09-10T06:40:21.733Z,126516,-0.14160156,1.0333862,-0.28063965
1725950421777,2024-09-10T06:40:21.777Z,126560,-0.15600586,1.0095215,-0.3184204
1725950421826,2024-09-10T06:40:21.826Z,126609,-0.15124512,1.0062866,-0.27398682
1725950421873,2024-09-10T06:40:21.873Z,126656,-0.15838623,0.98602295,-0.27630615
1725950421912,2024-09-10T06:40:21.912Z,126695,-0.14581299,0.98339844,-0.26080322
1725950421937,2024-09-10T06:40:21.937Z,126720,-0.13769531,0.99487305,-0.25427246
1725950421954,2024-09-10T06:40:21.954Z,126737,-0.122680664,0.99835205,-0.24182129
1725950422001,2024-09-10T06:40:22.001Z,126784,-0.14422607,0.98895264,-0.24853516
1725950422046,2024-09-10T06:40:22.046Z,126829,-0.15661621,0.9680786,-0.2331543
1725950422092,2024-09-10T06:40:22.092Z,126875,-0.13043213,0.96173096,-0.21643066
1725950422138,2024-09-10T06:40:22.138Z,126921,-0.14483643,0.94818115,-0.21081543
1725950422182,2024-09-10T06:40:22.182Z,126965,-0.1529541,0.9495239,-0.20574951
1725950422228,2024-09-10T06:40:22.228Z,127011,-0.15301514,0.94750977,-0.19726562
1725950422271,2024-09-10T06:40:22.271Z,127054,-0.14978027,0.93792725,-0.18719482
1725950422317,2024-09-10T06:40:22.317Z,127100,-0.1270752,0.9501953,-0.18200684
1725950422341,2024-09-10T06:40:22.341Z,127124,-0.15325928,0.9498291,-0.18328857
1725950422364,2024-09-10T06:40:22.364Z,127147,-0.15753174,0.96917725,-0.1651001
1725950422408,2024-09-10T06:40:22.408Z,127191,-0.14697266,0.9727173,-0.15441895
1725950422451,2024-09-10T06:40:22.451Z,127234,-0.15753174,0.9645996,-0.18914795
1725950422499,2024-09-10T06:40:22.499Z,127282,-0.14984131,0.9767456,-0.16290283
1725950422544,2024-09-10T06:40:22.544Z,127327,-0.14398193,0.9805908,-0.1428833
1725950422587,2024-09-10T06:40:22.587Z,127370,-0.13549805,0.9744873,-0.14074707
1725950422633,2024-09-10T06:40:22.633Z,127416,-0.12207031,0.9770508,-0.14904785
1725950422678,2024-09-10T06:40:22.678Z,127461,-0.11932373,0.970459,-0.14337158
1725950422723,2024-09-10T06:40:22.723Z,127506,-0.12121582,0.97216797,-0.14971924
1725950422767,2024-09-10T06:40:22.767Z,127550,-0.09753418,0.98791504,-0.14172363
1725950422789,2024-09-10T06:40:22.789Z,127572,-0.10723877,0.99139404,-0.13482666
1725950422809,2024-09-10T06:40:22.809Z,127592,-0.11407471,1.0065308,-0.11968994
1725950422857,2024-09-10T06:40:22.857Z,127640,-0.10888672,1.0015259,-0.11413574
1725950422903,2024-09-10T06:40:22.903Z,127686,-0.10101318,0.9834595,-0.10101318
1725950422949,2024-09-10T06:40:22.949Z,127732,-0.08062744,0.9801636,-0.08099365
1725950422993,2024-09-10T06:40:22.993Z,127776,-0.08734131,0.9691162,-0.07183838
1725950423037,2024-09-10T06:40:23.037Z,127820,-0.074523926,0.9776001,-0.062927246
1725950423080,2024-09-10T06:40:23.080Z,127863,-0.080566406,0.98535156,-0.0647583
1725950423128,2024-09-10T06:40:23.128Z,127911,-0.05633545,1.0041504,-0.029785156
1725950423180,2024-09-10T06:40:23.180Z,127963,-0.06274414,1.0248413,0.02709961
1725950423204,2024-09-10T06:40:23.204Z,127987,-0.058044434,1.0117798,0.024902344
1725950423225,2024-09-10T06:40:23.225Z,128008,-0.027648926,0.98706055,0.004760742
1725950423257,2024-09-10T06:40:23.257Z,128040,-0.010864258,0.9763794,-0.026062012
1725950423308,2024-09-10T06:40:23.308Z,128091,0.0015869141,0.94866943,-0.0435791
1725950423353,2024-09-10T06:40:23.353Z,128136,1.2207031E-4,0.92022705,-0.03778076
1725950423397,2024-09-10T06:40:23.397Z,128180,-0.023071289,0.90930176,-0.04522705
1725950423443,2024-09-10T06:40:23.443Z,128226,-0.0390625,0.93896484,-0.036621094
1725950423489,2024-09-10T06:40:23.489Z,128272,-0.07080078,1.0058594,-0.021362305
1725950423536,2024-09-10T06:40:23.536Z,128319,-0.11010742,1.0667725,-9.765625E-4
1725950423579,2024-09-10T06:40:23.579Z,128362,-0.11199951,1.0631104,-0.012390137
1725950423605,2024-09-10T06:40:23.605Z,128388,-0.068237305,1.0361938,-0.020629883
1725950423629,2024-09-10T06:40:23.629Z,128412,-0.033935547,1.0077515,-0.00592041
1725950423668,2024-09-10T06:40:23.668Z,128451,-0.038269043,0.977478,-0.031066895
1725950423713,2024-09-10T06:40:23.713Z,128496,-0.04296875,0.9647217,-0.05883789
1725950423758,2024-09-10T06:40:23.758Z,128541,-0.04876709,0.98010254,-0.049194336
1725950423801,2024-09-10T06:40:23.801Z,128584,-0.05493164,1.0023804,-0.028808594
1725950423847,2024-09-10T06:40:23.847Z,128630,-0.061279297,1.0325928,-0.007507324
1725950423892,2024-09-10T06:40:23.892Z,128675,-0.08703613,1.039856,-0.0056152344
1725950423936,2024-09-10T06:40:23.936Z,128719,-0.08013916,1.0316772,-0.020263672
1725950423982,2024-09-10T06:40:23.982Z,128765,-0.061035156,1.0087891,-0.018920898
1725950424028,2024-09-10T06:40:24.028Z,128811,-0.05230713,0.9935303,-0.035095215
1725950424051,2024-09-10T06:40:24.051Z,128834,-0.057861328,0.9890137,-0.059509277
1725950424075,2024-09-10T06:40:24.075Z,128858,-0.062194824,0.9940796,-0.058044434
1725950424117,2024-09-10T06:40:24.117Z,128900,-0.07623291,1.0096436,-0.040771484
1725950424164,2024-09-10T06:40:24.164Z,128947,-0.09490967,1.0142822,-0.032104492
1725950424207,2024-09-10T06:40:24.207Z,128990,-0.1105957,1.0228882,-0.03387451
1725950424253,2024-09-10T06:40:24.253Z,129036,-0.107788086,1.022522,-0.039916992
1725950424296,2024-09-10T06:40:24.296Z,129079,-0.09503174,1.0153198,-0.059326172
1725950424344,2024-09-10T06:40:24.344Z,129127,-0.09069824,1.003479,-0.066467285
1725950424382,2024-09-10T06:40:24.382Z,129165,-0.088134766,0.9979248,-0.0692749
1725950424426,2024-09-10T06:40:24.426Z,129209,-0.08758545,0.9897461,-0.061340332
1725950424439,2024-09-10T06:40:24.439Z,129222,-0.08758545,0.9932251,-0.05895996
1725950424471,2024-09-10T06:40:24.471Z,129254,-0.07873535,1.0028076,-0.05029297
1725950459303,2024-09-10T06:40:59.303Z,164086,-0.029174805,1.0436401,-0.046569824
1725950459345,2024-09-10T06:40:59.345Z,164128,-0.07220459,1.0839233,-0.042175293
1725950459393,2024-09-10T06:40:59.393Z,164176,-0.054626465,1.0593262,-0.07110596
1725950459414,2024-09-10T06:40:59.414Z,164197,-0.036987305,1.0130005,-0.039733887
1725950459436,2024-09-10T06:40:59.436Z,164219,-0.006713867,0.97509766,-0.037231445
1725950459482,2024-09-10T06:40:59.482Z,164265,0.013977051,0.96746826,-0.047851562
1725950459524,2024-09-10T06:40:59.524Z,164307,0.03326416,0.9885254,-0.06512451
1725950459578,2024-09-10T06:40:59.578Z,164361,0.015380859,0.9706421,-0.068237305
1725950459619,2024-09-10T06:40:59.619Z,164402,0.012023926,0.9972534,-0.07507324
1725950459665,2024-09-10T06:40:59.665Z,164448,-0.011230469,0.9970093,-0.0680542
1725950459711,2024-09-10T06:40:59.711Z,164494,-0.0234375,1.0147705,-0.06695557
1725950459755,2024-09-10T06:40:59.755Z,164538,-0.059936523,1.0333252,-0.070495605
1725950459802,2024-09-10T06:40:59.802Z,164585,-0.07141113,1.0430298,-0.09362793
1725950459830,2024-09-10T06:40:59.830Z,164613,-0.07519531,1.0186157,-0.08227539
1725950459853,2024-09-10T06:40:59.853Z,164636,-0.07336426,0.9907837,-0.08709717
1725950459886,2024-09-10T06:40:59.886Z,164669,-0.053649902,0.98913574,-0.0826416
1725950459932,2024-09-10T06:40:59.932Z,164715,-0.07421875,1.0002441,-0.07104492
1725950459977,2024-09-10T06:40:59.977Z,164760,-0.07598877,1.0025024,-0.088256836
1725950460023,2024-09-10T06:41:00.023Z,164806,-0.06286621,1.0032349,-0.089538574
1725950460070,2024-09-10T06:41:00.070Z,164853,-0.058654785,0.9904785,-0.07873535
1725950460117,2024-09-10T06:41:00.117Z,164900,-0.048706055,0.9973755,-0.074157715
1725950460161,2024-09-10T06:41:00.161Z,164944,-0.061828613,1.0029907,-0.07891846
1725950460207,2024-09-10T06:41:00.207Z,164990,-0.06866455,1.0087891,-0.083618164
1725950460234,2024-09-10T06:41:00.234Z,165017,-0.06329346,1.0028076,-0.0960083
1725950460257,2024-09-10T06:41:00.257Z,165040,-0.06530762,1.0023804,-0.10333252
1725950460291,2024-09-10T06:41:00.291Z,165074,-0.056030273,1.0100098,-0.11114502
1725950460341,2024-09-10T06:41:00.341Z,165124,-0.07849121,0.9970703,-0.103759766
1725950460388,2024-09-10T06:41:00.388Z,165171,-0.055419922,0.9923706,-0.114746094
1725950460427,2024-09-10T06:41:00.427Z,165210,-0.068237305,0.97247314,-0.105041504
1725950460476,2024-09-10T06:41:00.476Z,165259,-0.05682373,0.9805908,-0.11645508
1725950460565,2024-09-10T06:41:00.565Z,165348,-0.08190918,1.0078735,-0.13189697
1725950460598,2024-09-10T06:41:00.598Z,165381,-0.093933105,1.0153198,-0.13934326
1725950460621,2024-09-10T06:41:00.621Z,165404,-0.10412598,1.0031128,-0.14697266
1725950460651,2024-09-10T06:41:00.651Z,165434,-0.098083496,0.9848633,-0.13995361
1725950460667,2024-09-10T06:41:00.667Z,165450,-0.069885254,0.9992676,-0.12896729
1725950460695,2024-09-10T06:41:00.695Z,165478,-0.084472656,0.99975586,-0.13928223
1725950460742,2024-09-10T06:41:00.742Z,165525,-0.0847168,0.9928589,-0.15307617
1725950460789,2024-09-10T06:41:00.789Z,165572,-0.08215332,0.98535156,-0.16821289
1725950460836,2024-09-10T06:41:00.836Z,165619,-0.083740234,0.9840698,-0.17974854
1725950460884,2024-09-10T06:41:00.884Z,165667,-0.07318115,0.9916992,-0.18035889
1725950460927,2024-09-10T06:41:00.927Z,165710,-0.092163086,0.9824219,-0.20129395
1725950460967,2024-09-10T06:41:00.967Z,165750,-0.07122803,0.97198486,-0.19274902
1725950461017,2024-09-10T06:41:01.017Z,165800,-0.07836914,0.9683838,-0.19128418
1725950461063,2024-09-10T06:41:01.063Z,165846,-0.060913086,0.9794922,-0.20489502
1725950461088,2024-09-10T06:41:01.088Z,165871,-0.09613037,0.9660034,-0.20367432
1725950461109,2024-09-10T06:41:01.109Z,165892,-0.07336426,0.97753906,-0.20770264
1725950461146,2024-09-10T06:41:01.146Z,165929,-0.07409668,0.9713745,-0.19543457
1725950461195,2024-09-10T06:41:01.195Z,165978,-0.0758667,0.9769287,-0.22711182
1725950461287,2024-09-10T06:41:01.287Z,166070,-0.08856201,0.9760742,-0.23364258
1725950461326,2024-09-10T06:41:01.326Z,166109,-0.099365234,0.9650879,-0.23406982
1725950461350,2024-09-10T06:41:01.350Z,166133,-0.08148193,0.9715576,-0.23895264
1725950461371,2024-09-10T06:41:01.371Z,166154,-0.095336914,0.9546509,-0.24090576
1725950461417,2024-09-10T06:41:01.417Z,166200,-0.07977295,0.9847412,-0.26190186
1725950461466,2024-09-10T06:41:01.466Z,166249,-0.099243164,0.98651123,-0.26068115
1725950461492,2024-09-10T06:41:01.492Z,166275,-0.109558105,0.982605,-0.27313232
1725950461513,2024-09-10T06:41:01.513Z,166296,-0.103271484,0.97229004,-0.26593018
1725950461552,2024-09-10T06:41:01.552Z,166335,-0.09442139,0.9713135,-0.26428223
1725950461604,2024-09-10T06:41:01.604Z,166387,-0.09222412,0.9686279,-0.27166748
1725950461642,2024-09-10T06:41:01.642Z,166425,-0.103271484,0.963562,-0.27612305
1725950461692,2024-09-10T06:41:01.692Z,166475,-0.09686279,0.9707031,-0.2769165
1725950461737,2024-09-10T06:41:01.737Z,166520,-0.09503174,0.9786377,-0.2796631
1725950461777,2024-09-10T06:41:01.777Z,166560,-0.09686279,0.96917725,-0.2810669
1725950461829,2024-09-10T06:41:01.829Z,166612,-0.09442139,0.9779053,-0.28894043
1725950461866,2024-09-10T06:41:01.866Z,166649,-0.10430908,0.96691895,-0.2849121
1725950461917,2024-09-10T06:41:01.917Z,166700,-0.090148926,0.97906494,-0.28710938
1725950461951,2024-09-10T06:41:01.951Z,166734,-0.09991455,0.987854,-0.2915039
1725950461982,2024-09-10T06:41:01.982Z,166765,-0.101501465,0.9918823,-0.3088379
1725950462008,2024-09-10T06:41:02.008Z,166791,-0.107299805,0.9934082,-0.30255127
1725950462047,2024-09-10T06:41:02.047Z,166830,-0.099853516,0.9984741,-0.29083252
1725950462094,2024-09-10T06:41:02.094Z,166877,-0.11206055,0.99035645,-0.28948975
1725950462140,2024-09-10T06:41:02.140Z,166923,-0.10095215,0.9786377,-0.29644775
1725950462187,2024-09-10T06:41:02.187Z,166970,-0.10321045,0.9645386,-0.29400635
1725950462226,2024-09-10T06:41:02.226Z,167009,-0.109436035,0.94873047,-0.28948975
1725950462277,2024-09-10T06:41:02.277Z,167060,-0.10235596,0.94415283,-0.2836914
1725950462321,2024-09-10T06:41:02.321Z,167104,-0.11206055,0.93652344,-0.27807617
1725950462345,2024-09-10T06:41:02.345Z,167128,-0.10119629,0.946167,-0.29730225
1725950462371,2024-09-10T06:41:02.371Z,167154,-0.10760498,0.95196533,-0.30065918
1725950462407,2024-09-10T06:41:02.407Z,167190,-0.11248779,0.9577637,-0.30871582
1725950462451,2024-09-10T06:41:02.451Z,167234,-0.10748291,0.9651489,-0.3213501
1725950462498,2024-09-10T06:41:02.498Z,167281,-0.11053467,0.9515991,-0.31414795
1725950462548,2024-09-10T06:41:02.548Z,167331,-0.11126709,0.9552002,-0.31781006
1725950462587,2024-09-10T06:41:02.587Z,167370,-0.11395264,0.9439697,-0.3223877
1725950462640,2024-09-10T06:41:02.640Z,167423,-0.1105957,0.9506836,-0.32025146
1725950462677,2024-09-10T06:41:02.677Z,167460,-0.09869385,0.96295166,-0.3187256
1725950462727,2024-09-10T06:41:02.727Z,167510,-0.117492676,0.96032715,-0.32702637
1725950462754,2024-09-10T06:41:02.754Z,167537,-0.119506836,0.95928955,-0.32287598
1725950462776,2024-09-10T06:41:02.776Z,167559,-0.10394287,0.9692383,-0.31036377
1725950462814,2024-09-10T06:41:02.814Z,167597,-0.12506104,0.9534302,-0.32263184
1725950462861,2024-09-10T06:41:02.861Z,167644,-0.115600586,0.9468384,-0.3312378
1725950462907,2024-09-10T06:41:02.907Z,167690,-0.11248779,0.94189453,-0.32312012
1725950462952,2024-09-10T06:41:02.952Z,167735,-0.10247803,0.9468994,-0.31958008
1725950462994,2024-09-10T06:41:02.994Z,167777,-0.107421875,0.9470215,-0.32489014
1725950463039,2024-09-10T06:41:03.039Z,167822,-0.10430908,0.9456177,-0.32159424
1725950463084,2024-09-10T06:41:03.084Z,167867,-0.11871338,0.93829346,-0.33081055
1725950463150,2024-09-10T06:41:03.150Z,167933,-0.101379395,0.9437256,-0.32922363
1725950463179,2024-09-10T06:41:03.179Z,167962,-0.10406494,0.94836426,-0.3255005
1725950463196,2024-09-10T06:41:03.196Z,167979,-0.09643555,0.9684448,-0.3378296
1725950463216,2024-09-10T06:41:03.216Z,167999,-0.11077881,0.96307373,-0.33496094
1725950463263,2024-09-10T06:41:03.263Z,168046,-0.0947876,0.9725342,-0.32385254
1725950463308,2024-09-10T06:41:03.308Z,168091,-0.10467529,0.96954346,-0.32659912
1725950463353,2024-09-10T06:41:03.353Z,168136,-0.10644531,0.9737549,-0.333313
1725950463450,2024-09-10T06:41:03.450Z,168233,-0.12084961,0.95965576,-0.3461914
1725950463483,2024-09-10T06:41:03.483Z,168266,-0.107666016,0.9682617,-0.32336426
1725950463505,2024-09-10T06:41:03.505Z,168288,-0.10058594,0.96881104,-0.3110962
1725950463532,2024-09-10T06:41:03.532Z,168315,-0.124816895,0.9649658,-0.32366943
1725950463584,2024-09-10T06:41:03.584Z,168367,-0.111083984,0.9700928,-0.3248291
1725950463615,2024-09-10T06:41:03.615Z,168398,-0.1126709,0.9781494,-0.32409668
1725950463636,2024-09-10T06:41:03.636Z,168419,-0.10583496,0.97717285,-0.30596924
1725950463667,2024-09-10T06:41:03.667Z,168450,-0.11175537,0.9706421,-0.31781006
1725950463718,2024-09-10T06:41:03.718Z,168501,-0.1126709,0.9710083,-0.33203125
1725950463757,2024-09-10T06:41:03.757Z,168540,-0.12713623,0.96362305,-0.30462646
1725950463812,2024-09-10T06:41:03.812Z,168595,-0.10510254,0.9659424,-0.31237793
1725950463851,2024-09-10T06:41:03.851Z,168634,-0.113586426,0.9649048,-0.31420898
1725950463898,2024-09-10T06:41:03.898Z,168681,-0.11834717,0.97229004,-0.32055664
1725950463942,2024-09-10T06:41:03.942Z,168725,-0.11779785,0.9812012,-0.3102417
1725950463988,2024-09-10T06:41:03.988Z,168771,-0.11352539,0.9938965,-0.32122803
1725950464015,2024-09-10T06:41:04.015Z,168798,-0.119262695,0.99890137,-0.31781006
1725950464039,2024-09-10T06:41:04.039Z,168822,-0.12365723,1.0067749,-0.32781982
1725950464073,2024-09-10T06:41:04.073Z,168856,-0.120910645,1.0418091,-0.3310547
1725950464117,2024-09-10T06:41:04.117Z,168900,-0.12799072,1.0635376,-0.32806396
1725950464166,2024-09-10T06:41:04.166Z,168949,-0.12072754,1.0512085,-0.34448242
1725950464212,2024-09-10T06:41:04.212Z,168995,-0.10949707,1.0378418,-0.32666016
1725950464302,2024-09-10T06:41:04.302Z,169085,-0.11419678,1.0372314,-0.3255005
1725950464337,2024-09-10T06:41:04.337Z,169120,-0.10803223,1.0292969,-0.3104248
1725950464362,2024-09-10T06:41:04.362Z,169145,-0.11920166,1.0162354,-0.3180542
1725950464388,2024-09-10T06:41:04.388Z,169171,-0.10211182,1.0045776,-0.31524658
1725950464434,2024-09-10T06:41:04.434Z,169217,-0.1060791,0.97821045,-0.29663086
1725950464456,2024-09-10T06:41:04.456Z,169239,-0.09338379,0.96209717,-0.30975342
1725950464477,2024-09-10T06:41:04.477Z,169260,-0.09643555,0.94921875,-0.30541992
1725950464525,2024-09-10T06:41:04.525Z,169308,-0.10662842,0.9700928,-0.31555176
1725950464573,2024-09-10T06:41:04.573Z,169356,-0.09814453,0.9694214,-0.31011963
1725950464612,2024-09-10T06:41:04.612Z,169395,-0.109802246,0.9606323,-0.3007202
1725950464661,2024-09-10T06:41:04.661Z,169444,-0.11804199,0.94311523,-0.27404785
1725950464706,2024-09-10T06:41:04.706Z,169489,-0.1038208,0.9385376,-0.27313232
1725950464756,2024-09-10T06:41:04.756Z,169539,-0.13122559,0.9371338,-0.27600098
1725950464795,2024-09-10T06:41:04.795Z,169578,-0.1404419,0.9473877,-0.29156494
1725950464840,2024-09-10T06:41:04.840Z,169623,-0.12030029,0.9541626,-0.28131104
1725950464875,2024-09-10T06:41:04.875Z,169658,-0.12738037,0.96643066,-0.262146
1725950464893,2024-09-10T06:41:04.893Z,169676,-0.10845947,0.9786377,-0.23596191
1725950464926,2024-09-10T06:41:04.926Z,169709,-0.10809326,0.9720459,-0.21142578
1725950464970,2024-09-10T06:41:04.970Z,169753,-0.10797119,0.9772949,-0.24145508
1725950465021,2024-09-10T06:41:05.021Z,169804,-0.11907959,0.9747925,-0.24456787
1725950465065,2024-09-10T06:41:05.065Z,169848,-0.11193848,0.97088623,-0.25665283
1725950465110,2024-09-10T06:41:05.110Z,169893,-0.091430664,0.9614868,-0.2390747
1725950465155,2024-09-10T06:41:05.155Z,169938,-0.09082031,0.95825195,-0.22198486
1725950465198,2024-09-10T06:41:05.198Z,169981,-0.08770752,0.954895,-0.22418213
1725950465247,2024-09-10T06:41:05.247Z,170030,-0.11352539,0.9645386,-0.23449707
1725950465274,2024-09-10T06:41:05.274Z,170057,-0.103271484,0.96881104,-0.2164917
1725950465295,2024-09-10T06:41:05.295Z,170078,-0.10321045,0.96533203,-0.2076416
1725950465377,2024-09-10T06:41:05.377Z,170160,-0.10107422,0.96691895,-0.21844482
1725950465394,2024-09-10T06:41:05.394Z,170177,-0.11053467,0.9523926,-0.21173096
1725950465422,2024-09-10T06:41:05.422Z,170205,-0.11242676,0.9630127,-0.21203613
1725950465472,2024-09-10T06:41:05.472Z,170255,-0.10662842,0.9758911,-0.20440674
1725950465513,2024-09-10T06:41:05.513Z,170296,-0.11816406,0.9937134,-0.20935059
1725950465564,2024-09-10T06:41:05.564Z,170347,-0.11816406,0.99505615,-0.20178223
1725950465608,2024-09-10T06:41:05.608Z,170391,-0.105407715,0.99786377,-0.18914795
1725950465648,2024-09-10T06:41:05.648Z,170431,-0.1217041,0.9935913,-0.18548584
1725950465697,2024-09-10T06:41:05.697Z,170480,-0.10021973,0.98773193,-0.18304443
1725950465728,2024-09-10T06:41:05.728Z,170511,-0.10455322,0.9746704,-0.1743164
1725950465751,2024-09-10T06:41:05.751Z,170534,-0.076049805,0.9786377,-0.1550293
1725950465781,2024-09-10T06:41:05.781Z,170564,-0.07702637,0.9857178,-0.14477539
1725950465827,2024-09-10T06:41:05.827Z,170610,-0.08685303,0.9810791,-0.17999268
1725950465877,2024-09-10T06:41:05.877Z,170660,-0.07110596,0.98791504,-0.14898682
1725950465921,2024-09-10T06:41:05.921Z,170704,-0.05529785,0.9887085,-0.13574219
1725950465967,2024-09-10T06:41:05.967Z,170750,-0.05859375,0.98236084,-0.12719727
1725950466010,2024-09-10T06:41:06.010Z,170793,-0.05206299,0.98046875,-0.10614014
1725950466051,2024-09-10T06:41:06.051Z,170834,-0.042053223,0.9868164,-0.10662842
1725950466100,2024-09-10T06:41:06.100Z,170883,-0.064941406,0.9852295,-0.11578369
1725950466136,2024-09-10T06:41:06.136Z,170919,-0.027770996,0.99645996,-0.1295166
1725950466157,2024-09-10T06:41:06.157Z,170940,-0.051208496,0.98773193,-0.10797119
1725950466185,2024-09-10T06:41:06.185Z,170968,-0.027404785,0.9918213,-0.13061523
1725950466232,2024-09-10T06:41:06.232Z,171015,-0.052368164,0.99328613,-0.1038208
1725950466279,2024-09-10T06:41:06.279Z,171062,-0.053344727,0.9926758,-0.095336914
1725950466326,2024-09-10T06:41:06.326Z,171109,-0.049865723,0.9784546,-0.089538574
1725950466417,2024-09-10T06:41:06.417Z,171200,-0.06085205,0.9683838,-0.08319092
1725950466450,2024-09-10T06:41:06.450Z,171233,-0.074401855,0.967041,-0.061401367
1725950466471,2024-09-10T06:41:06.471Z,171254,-0.061157227,0.9603882,-0.064697266
1725950466502,2024-09-10T06:41:06.502Z,171285,-0.056640625,0.97052,-0.060913086
1725950466519,2024-09-10T06:41:06.519Z,171302,-0.06262207,0.97595215,-0.061035156
1725950466545,2024-09-10T06:41:06.545Z,171328,-0.05480957,0.98132324,-0.113342285
1725950466592,2024-09-10T06:41:06.592Z,171375,-0.054504395,0.97857666,-0.11187744
1725950466644,2024-09-10T06:41:06.644Z,171427,-0.05859375,0.9803467,-0.11004639
1725950466689,2024-09-10T06:41:06.689Z,171472,-0.080566406,0.96795654,-0.11352539
1725950466728,2024-09-10T06:41:06.728Z,171511,-0.07720947,0.9817505,-0.10961914
1725950466776,2024-09-10T06:41:06.776Z,171559,-0.08868408,0.9871826,-0.121032715
1725950466820,2024-09-10T06:41:06.820Z,171603,-0.088378906,1.0006714,-0.12298584
1725950466867,2024-09-10T06:41:06.867Z,171650,-0.10107422,1.0100708,-0.13903809
1725950466910,2024-09-10T06:41:06.910Z,171693,-0.09075928,1.0067139,-0.16241455
1725950466956,2024-09-10T06:41:06.956Z,171739,-0.0960083,0.9915161,-0.15899658
1725950466988,2024-09-10T06:41:06.988Z,171771,-0.093688965,0.97631836,-0.15985107
1725950467010,2024-09-10T06:41:07.010Z,171793,-0.078186035,0.975647,-0.17980957
1725950467040,2024-09-10T06:41:07.040Z,171823,-0.097473145,0.9733887,-0.1796875
1725950467087,2024-09-10T06:41:07.087Z,171870,-0.08093262,0.96313477,-0.20147705
1725950467132,2024-09-10T06:41:07.132Z,171915,-0.12322998,0.9337158,-0.21722412
1725950467183,2024-09-10T06:41:07.183Z,171966,-0.076416016,0.9656372,-0.22180176
1725950467222,2024-09-10T06:41:07.222Z,172005,-0.10003662,0.98913574,-0.19580078
1725950467271,2024-09-10T06:41:07.271Z,172054,-0.1083374,0.9851074,-0.23175049
1725950467316,2024-09-10T06:41:07.316Z,172099,-0.10839844,0.97161865,-0.234375
1725950467361,2024-09-10T06:41:07.361Z,172144,-0.10632324,0.9819336,-0.23736572
1725950467388,2024-09-10T06:41:07.388Z,172171,-0.10876465,0.96881104,-0.23065186
1725950467410,2024-09-10T06:41:07.410Z,172193,-0.10070801,0.97558594,-0.2479248
1725950467447,2024-09-10T06:41:07.447Z,172230,-0.11883545,0.9581909,-0.2506714
1725950467496,2024-09-10T06:41:07.496Z,172279,-0.11895752,0.9812622,-0.2487793
1725950467541,2024-09-10T06:41:07.541Z,172324,-0.10858154,0.9991455,-0.20367432
1725950467586,2024-09-10T06:41:07.586Z,172369,-0.10888672,0.9647217,-0.32391357
1725950467631,2024-09-10T06:41:07.631Z,172414,-0.13458252,0.960022,-0.321167
1725950467676,2024-09-10T06:41:07.676Z,172459,-0.12084961,0.97991943,-0.29589844
1725950467721,2024-09-10T06:41:07.721Z,172504,-0.11883545,0.9720459,-0.28668213
1725950467767,2024-09-10T06:41:07.767Z,172550,-0.12786865,0.944458,-0.2962036
1725950467801,2024-09-10T06:41:07.801Z,172584,-0.10913086,0.9373169,-0.29888916
1725950467834,2024-09-10T06:41:07.834Z,172617,-0.110961914,0.9534912,-0.2979126
1725950467856,2024-09-10T06:41:07.856Z,172639,-0.1239624,0.972229,-0.31262207
1725950467895,2024-09-10T06:41:07.895Z,172678,-0.12786865,0.97662354,-0.31549072
1725950467942,2024-09-10T06:41:07.942Z,172725,-0.124938965,0.98516846,-0.3085327
1725950467991,2024-09-10T06:41:07.991Z,172774,-0.14257812,0.987854,-0.30706787
1725950468032,2024-09-10T06:41:08.032Z,172815,-0.13824463,0.9963379,-0.3190918
1725950468081,2024-09-10T06:41:08.081Z,172864,-0.13702393,0.980896,-0.31396484
1725950468125,2024-09-10T06:41:08.125Z,172908,-0.14447021,0.9567871,-0.31488037
1725950468168,2024-09-10T06:41:08.168Z,172951,-0.1328125,0.9525757,-0.30389404
1725950468190,2024-09-10T06:41:08.190Z,172973,-0.12884521,0.9558716,-0.2977295
1725950468219,2024-09-10T06:41:08.219Z,173002,-0.14477539,0.94488525,-0.31158447
1725950468255,2024-09-10T06:41:08.255Z,173038,-0.14398193,0.9460449,-0.30639648
1725950468302,2024-09-10T06:41:08.302Z,173085,-0.15106201,0.96917725,-0.305542
1725950468347,2024-09-10T06:41:08.347Z,173130,-0.14892578,0.98651123,-0.29296875
1725950468397,2024-09-10T06:41:08.397Z,173180,-0.14276123,0.9786377,-0.26849365
1725950468440,2024-09-10T06:41:08.440Z,173223,-0.14099121,0.97442627,-0.29138184
1725950468487,2024-09-10T06:41:08.487Z,173270,-0.15942383,0.9577637,-0.27478027
1725950468533,2024-09-10T06:41:08.533Z,173316,-0.14331055,0.9530029,-0.26202393
1725950468572,2024-09-10T06:41:08.572Z,173355,-0.123168945,0.9734497,-0.24993896
1725950468667,2024-09-10T06:41:08.667Z,173450,-0.13146973,0.9925537,-0.24255371
1725950468697,2024-09-10T06:41:08.697Z,173480,-0.15161133,0.97821045,-0.2514038
1725950468719,2024-09-10T06:41:08.719Z,173502,-0.14300537,0.9696655,-0.25421143
1725950468750,2024-09-10T06:41:08.750Z,173533,-0.11077881,0.9893799,-0.23400879
1725950468766,2024-09-10T06:41:08.766Z,173549,-0.1352539,0.96881104,-0.25720215
1725950468795,2024-09-10T06:41:08.795Z,173578,-0.13903809,0.9638672,-0.2841797
1725950468893,2024-09-10T06:41:08.893Z,173676,-0.14141846,0.9594116,-0.26953125
1725950468928,2024-09-10T06:41:08.928Z,173711,-0.13995361,0.95666504,-0.2808838
1725950468949,2024-09-10T06:41:08.949Z,173732,-0.14355469,0.93963623,-0.27282715
1725950468976,2024-09-10T06:41:08.976Z,173759,-0.13586426,0.9390259,-0.28375244
1725950469022,2024-09-10T06:41:09.022Z,173805,-0.13519287,0.9505005,-0.28338623
1725950469041,2024-09-10T06:41:09.041Z,173824,-0.14727783,0.9564209,-0.27575684
1725950469065,2024-09-10T06:41:09.065Z,173848,-0.15289307,0.9633179,-0.28845215
1725950469111,2024-09-10T06:41:09.111Z,173894,-0.13964844,0.9761963,-0.2805786
1725950469160,2024-09-10T06:41:09.160Z,173943,-0.1515503,0.96698,-0.27459717
1725950469205,2024-09-10T06:41:09.205Z,173988,-0.15924072,0.9586792,-0.2789917
1725950469251,2024-09-10T06:41:09.251Z,174034,-0.15020752,0.96643066,-0.2828369
1725950469295,2024-09-10T06:41:09.295Z,174078,-0.14385986,0.9838867,-0.27679443
1725950469342,2024-09-10T06:41:09.342Z,174125,-0.17138672,0.9953003,-0.26879883
1725950469388,2024-09-10T06:41:09.388Z,174171,-0.16534424,1.0025635,-0.27716064
1725950469430,2024-09-10T06:41:09.430Z,174213,-0.15692139,1.0059204,-0.28479004
1725950469444,2024-09-10T06:41:09.444Z,174227,-0.16271973,0.99627686,-0.28686523
1725950469470,2024-09-10T06:41:09.470Z,174253,-0.16418457,0.9724121,-0.2944336
1725950469516,2024-09-10T06:41:09.516Z,174299,-0.14672852,0.9640503,-0.29205322
1725950469564,2024-09-10T06:41:09.564Z,174347,-0.14904785,0.9585571,-0.2906494
1725950469608,2024-09-10T06:41:09.608Z,174391,-0.14459229,0.95928955,-0.29431152
1725950469656,2024-09-10T06:41:09.656Z,174439,-0.14923096,0.97698975,-0.30456543
1725950469696,2024-09-10T06:41:09.696Z,174479,-0.15118408,0.9844971,-0.30462646
1725950469748,2024-09-10T06:41:09.748Z,174531,-0.15893555,0.9789429,-0.30621338
1725950469793,2024-09-10T06:41:09.793Z,174576,-0.15808105,0.9718628,-0.3106079
1725950469836,2024-09-10T06:41:09.836Z,174619,-0.16931152,0.9714966,-0.3069458
1725950469882,2024-09-10T06:41:09.882Z,174665,-0.16174316,0.98553467,-0.30163574
1725950469910,2024-09-10T06:41:09.910Z,174693,-0.16326904,1.005188,-0.31054688
1725950469932,2024-09-10T06:41:09.932Z,174715,-0.16925049,1.0049438,-0.30456543
1725950469967,2024-09-10T06:41:09.967Z,174750,-0.17333984,0.99749756,-0.30126953
1725950470060,2024-09-10T06:41:10.060Z,174843,-0.16583252,1.0161133,-0.31079102
1725950470090,2024-09-10T06:41:10.090Z,174873,-0.17114258,1.0180054,-0.3010254
1725950470111,2024-09-10T06:41:10.111Z,174894,-0.17333984,1.0350952,-0.31323242
1725950470146,2024-09-10T06:41:10.146Z,174929,-0.16656494,1.0274658,-0.28222656
1725950470239,2024-09-10T06:41:10.239Z,175022,-0.13616943,1.0054932,-0.25360107
1725950470268,2024-09-10T06:41:10.268Z,175051,-0.124938965,1.0036621,-0.22668457
1725950470294,2024-09-10T06:41:10.294Z,175077,-0.13140869,1.0071411,-0.22869873
1725950470313,2024-09-10T06:41:10.313Z,175096,-0.15441895,0.99383545,-0.22302246
1725950470331,2024-09-10T06:41:10.331Z,175114,-0.12213135,1.0079346,-0.23352051
1725950470372,2024-09-10T06:41:10.372Z,175155,-0.1083374,0.9915161,-0.18048096
1725950470416,2024-09-10T06:41:10.416Z,175199,-0.13122559,1.0064697,-0.15356445
1725950470464,2024-09-10T06:41:10.464Z,175247,-0.14648438,1.0206299,-0.18389893
1725950470511,2024-09-10T06:41:10.511Z,175294,-0.13336182,1.0239868,-0.20703125
1725950470555,2024-09-10T06:41:10.555Z,175338,-0.15216064,1.0084839,-0.22125244
1725950470602,2024-09-10T06:41:10.602Z,175385,-0.13745117,0.9967041,-0.21960449
1725950470648,2024-09-10T06:41:10.648Z,175431,-0.13879395,0.9741211,-0.18164062
1725950470687,2024-09-10T06:41:10.687Z,175470,-0.121520996,0.9819336,-0.18896484
1725950470710,2024-09-10T06:41:10.710Z,175493,-0.11151123,0.96380615,-0.19232178
1725950470732,2024-09-10T06:41:10.732Z,175515,-0.13342285,0.9625244,-0.19116211
1725950470777,2024-09-10T06:41:10.777Z,175560,-0.1307373,0.9667969,-0.15045166
1725950470822,2024-09-10T06:41:10.822Z,175605,-0.10217285,0.98876953,-0.12591553
1725950470873,2024-09-10T06:41:10.873Z,175656,-0.13470459,0.98687744,-0.12561035
1725950470918,2024-09-10T06:41:10.918Z,175701,-0.12463379,0.9899292,-0.13598633
1725950470957,2024-09-10T06:41:10.957Z,175740,-0.10821533,1.0007935,-0.16143799
1725950471005,2024-09-10T06:41:11.005Z,175788,-0.121154785,1.0028076,-0.17156982
1725950471057,2024-09-10T06:41:11.057Z,175840,-0.10662842,0.9882202,-0.16766357
1725950471093,2024-09-10T06:41:11.093Z,175876,-0.09539795,0.9897461,-0.20428467
1725950471145,2024-09-10T06:41:11.145Z,175928,-0.10058594,0.9852905,-0.19171143
1725950471172,2024-09-10T06:41:11.172Z,175955,-0.09338379,0.9928589,-0.18383789
1725950471192,2024-09-10T06:41:11.192Z,175975,-0.08691406,0.9868164,-0.16607666
1725950471226,2024-09-10T06:41:11.226Z,176009,-0.081970215,0.989624,-0.16638184
1725950471271,2024-09-10T06:41:11.271Z,176054,-0.091674805,0.9830322,-0.16766357
1725950471320,2024-09-10T06:41:11.320Z,176103,-0.08190918,0.9707031,-0.14544678
1725950471369,2024-09-10T06:41:11.369Z,176152,-0.080200195,0.9736328,-0.16351318
1725950471409,2024-09-10T06:41:11.409Z,176192,-0.09918213,0.9659424,-0.17388916
1725950471456,2024-09-10T06:41:11.456Z,176239,-0.09320068,0.9685669,-0.17407227
1725950471506,2024-09-10T06:41:11.506Z,176289,-0.09295654,1.0015259,-0.16369629
1725950471544,2024-09-10T06:41:11.544Z,176327,-0.09869385,1.015686,-0.13885498
1725950471567,2024-09-10T06:41:11.567Z,176350,-0.09466553,1.017273,-0.13922119
1725950471587,2024-09-10T06:41:11.587Z,176370,-0.101379395,1.0130615,-0.1361084
1725950471633,2024-09-10T06:41:11.633Z,176416,-0.070251465,1.0236816,-0.11047363
1725950471685,2024-09-10T06:41:11.685Z,176468,-0.073791504,1.0115967,-0.10845947
1725950471727,2024-09-10T06:41:11.727Z,176510,-0.081604004,0.9976196,-0.1295166
1725950471771,2024-09-10T06:41:11.771Z,176554,-0.05908203,0.98742676,-0.1472168
1725950471815,2024-09-10T06:41:11.815Z,176598,-0.06378174,0.9957886,-0.113586426
1725950471857,2024-09-10T06:41:11.857Z,176640,-0.06060791,0.9732666,-0.12237549
1725950471908,2024-09-10T06:41:11.908Z,176691,-0.024169922,0.9850464,-0.105895996
1725950471951,2024-09-10T06:41:11.951Z,176734,-0.04925537,0.9558716,-0.07244873
1725950471978,2024-09-10T06:41:11.978Z,176761,-0.009887695,0.94799805,-0.101135254
1725950472000,2024-09-10T06:41:12Z,176783,-0.038635254,0.9580078,-0.068481445
1725950472035,2024-09-10T06:41:12.035Z,176818,-0.03717041,0.9859619,-0.046203613
1725950472084,2024-09-10T06:41:12.084Z,176867,-0.024353027,0.9940796,-0.0647583
1725950472136,2024-09-10T06:41:12.136Z,176919,-0.042663574,0.99261475,-0.07647705
1725950472173,2024-09-10T06:41:12.173Z,176956,-0.058776855,0.99816895,-0.071777344
1725950472222,2024-09-10T06:41:12.222Z,177005,-0.03967285,0.9849243,-0.087890625
1725950472261,2024-09-10T06:41:12.261Z,177044,-0.031677246,0.9552002,-0.0758667
1725950472311,2024-09-10T06:41:12.311Z,177094,-0.035217285,0.9612427,-0.08673096
1725950472357,2024-09-10T06:41:12.357Z,177140,-0.0045776367,0.9604492,-0.072753906
1725950472400,2024-09-10T06:41:12.400Z,177183,-0.032836914,0.9613037,-0.06921387
1725950472421,2024-09-10T06:41:12.421Z,177204,0.004699707,1.0003662,-0.03704834
1725950472442,2024-09-10T06:41:12.442Z,177225,-0.025268555,0.98651123,-0.037475586
1725950472486,2024-09-10T06:41:12.486Z,177269,-0.0051879883,1.0101318,-0.03253174
1725950472539,2024-09-10T06:41:12.539Z,177322,-0.024841309,1.0135498,-0.0014648438
1725950472578,2024-09-10T06:41:12.578Z,177361,6.1035156E-4,1.0050659,-0.024719238
1725950472628,2024-09-10T06:41:12.628Z,177411,0.011169434,1.0030518,-0.06536865
1725950472674,2024-09-10T06:41:12.674Z,177457,-0.016723633,0.9784546,-0.06060791
1725950472711,2024-09-10T06:41:12.711Z,177494,-0.0068969727,0.9597168,-0.06329346
1725950472761,2024-09-10T06:41:12.761Z,177544,0.008850098,0.94189453,-0.07196045
1725950472807,2024-09-10T06:41:12.807Z,177590,-0.010070801,0.9449463,-0.07928467
1725950472836,2024-09-10T06:41:12.836Z,177619,-0.0072021484,0.97369385,-0.07696533
1725950472857,2024-09-10T06:41:12.857Z,177640,-0.010559082,0.99609375,-0.08239746
1725950472891,2024-09-10T06:41:12.891Z,177674,-0.028564453,1.0050049,-0.09967041
1725950472941,2024-09-10T06:41:12.941Z,177724,-0.050842285,1.013977,-0.10803223
1725950472988,2024-09-10T06:41:12.988Z,177771,-0.058166504,1.0043945,-0.10626221
1725950473028,2024-09-10T06:41:13.028Z,177811,-0.07574463,0.9942627,-0.13647461
1725950473076,2024-09-10T06:41:13.076Z,177859,-0.07171631,0.97528076,-0.13513184
1725950473122,2024-09-10T06:41:13.122Z,177905,-0.06628418,0.97613525,-0.14038086
1725950473164,2024-09-10T06:41:13.164Z,177947,-0.08459473,0.9842529,-0.14154053
1725950473207,2024-09-10T06:41:13.207Z,177990,-0.083618164,0.99468994,-0.17132568
1725950473222,2024-09-10T06:41:13.222Z,178005,-0.11053467,0.96502686,-0.16400146
1725950473251,2024-09-10T06:41:13.251Z,178034,-0.079711914,0.986145,-0.16247559
1725950473297,2024-09-10T06:41:13.297Z,178080,-0.08465576,0.9970703,-0.17340088
1725950473345,2024-09-10T06:41:13.345Z,178128,-0.12030029,0.9928589,-0.18634033
1725950473387,2024-09-10T06:41:13.387Z,178170,-0.13232422,0.98602295,-0.22961426
1725950473433,2024-09-10T06:41:13.433Z,178216,-0.11590576,0.9466553,-0.18676758
1725950473484,2024-09-10T06:41:13.484Z,178267,-0.09436035,0.98046875,-0.18499756
1725950473521,2024-09-10T06:41:13.521Z,178304,-0.11651611,0.9666748,-0.1887207
1725950473571,2024-09-10T06:41:13.571Z,178354,-0.11743164,0.97180176,-0.22241211
1725950473612,2024-09-10T06:41:13.612Z,178395,-0.12927246,0.9526367,-0.22796631
1725950473661,2024-09-10T06:41:13.661Z,178444,-0.09857178,0.9720459,-0.21398926
1725950473685,2024-09-10T06:41:13.685Z,178468,-0.09387207,0.9671631,-0.2144165
1725950473706,2024-09-10T06:41:13.706Z,178489,-0.10498047,0.9859619,-0.24176025
1725950473745,2024-09-10T06:41:13.745Z,178528,-0.10772705,1.0004883,-0.25201416
1725950473791,2024-09-10T06:41:13.791Z,178574,-0.14038086,0.9647827,-0.24414062
1725950473838,2024-09-10T06:41:13.838Z,178621,-0.068481445,1.0187378,-0.23284912
1725950473886,2024-09-10T06:41:13.886Z,178669,-0.1338501,0.9869385,-0.24902344
1725950473932,2024-09-10T06:41:13.932Z,178715,-0.15264893,0.94659424,-0.24853516
1725950473973,2024-09-10T06:41:13.973Z,178756,-0.08648682,0.9766846,-0.2331543
1725950474021,2024-09-10T06:41:14.021Z,178804,-0.113464355,1.0046387,-0.2208252
1725950474067,2024-09-10T06:41:14.067Z,178850,-0.13964844,1.0043945,-0.25958252
1725950474092,2024-09-10T06:41:14.092Z,178875,-0.15460205,0.9748535,-0.22399902
1725950474114,2024-09-10T06:41:14.114Z,178897,-0.10430908,0.9880371,-0.23028564
1725950474151,2024-09-10T06:41:14.151Z,178934,-0.13739014,0.991272,-0.23510742
1725950474202,2024-09-10T06:41:14.202Z,178985,-0.18017578,0.982666,-0.21588135
1725950474245,2024-09-10T06:41:14.245Z,179028,-0.13079834,1.0115356,-0.17803955
1725950474291,2024-09-10T06:41:14.291Z,179074,-0.14239502,1.0592041,-0.16711426
1725950474333,2024-09-10T06:41:14.333Z,179116,-0.16015625,1.0253296,-0.21539307
1725950474382,2024-09-10T06:41:14.382Z,179165,-0.14440918,0.96209717,-0.20892334
1725950474431,2024-09-10T06:41:14.431Z,179214,-0.120666504,0.9734497,-0.24304199
1725950474468,2024-09-10T06:41:14.468Z,179251,-0.119018555,0.99121094,-0.23718262
1725950474490,2024-09-10T06:41:14.490Z,179273,-0.1449585,0.9927368,-0.24163818
1725950474511,2024-09-10T06:41:14.511Z,179294,-0.14123535,0.9892578,-0.23846436
1725950474554,2024-09-10T06:41:14.554Z,179337,-0.14031982,0.97546387,-0.2345581
1725950474604,2024-09-10T06:41:14.604Z,179387,-0.13433838,0.98657227,-0.23461914
1725950474648,2024-09-10T06:41:14.648Z,179431,-0.14404297,0.9776001,-0.24261475
1725950474696,2024-09-10T06:41:14.696Z,179479,-0.15447998,0.96606445,-0.23675537
1725950474741,2024-09-10T06:41:14.741Z,179524,-0.1505127,0.95880127,-0.22003174
1725950474787,2024-09-10T06:41:14.787Z,179570,-0.14331055,0.9556885,-0.2163086
1725950474826,2024-09-10T06:41:14.826Z,179609,-0.12957764,0.9649048,-0.22265625
1725950474877,2024-09-10T06:41:14.877Z,179660,-0.14117432,0.9751587,-0.22875977
1725950474917,2024-09-10T06:41:14.917Z,179700,-0.15545654,0.98791504,-0.25427246
1725950474937,2024-09-10T06:41:14.937Z,179720,-0.15686035,0.9885864,-0.23760986
1725950474961,2024-09-10T06:41:14.961Z,179744,-0.14508057,0.98828125,-0.24450684
1725950475006,2024-09-10T06:41:15.006Z,179789,-0.14581299,0.98223877,-0.2399292
1725950475056,2024-09-10T06:41:15.056Z,179839,-0.14990234,0.982666,-0.25750732
1725950475098,2024-09-10T06:41:15.098Z,179881,-0.15136719,0.98443604,-0.25390625
1725950475147,2024-09-10T06:41:15.147Z,179930,-0.14581299,0.98413086,-0.25646973
1725950475192,2024-09-10T06:41:15.192Z,179975,-0.14758301,0.9686279,-0.2487793
1725950475239,2024-09-10T06:41:15.239Z,180022,-0.1404419,0.9685669,-0.2520752
1725950475279,2024-09-10T06:41:15.279Z,180062,-0.13195801,0.9838867,-0.24914551
1725950475343,2024-09-10T06:41:15.343Z,180126,-0.15625,0.9663696,-0.27752686
1725950475382,2024-09-10T06:41:15.382Z,180165,-0.15045166,0.95251465,-0.27130127
1725950475403,2024-09-10T06:41:15.403Z,180186,-0.14215088,0.963501,-0.25897217
1725950475422,2024-09-10T06:41:15.422Z,180205,-0.13812256,0.98254395,-0.26330566
1725950475455,2024-09-10T06:41:15.455Z,180238,-0.15655518,0.9871826,-0.2836914
1725950475504,2024-09-10T06:41:15.504Z,180287,-0.15783691,0.99090576,-0.28338623
1725950475549,2024-09-10T06:41:15.549Z,180332,-0.16168213,0.99139404,-0.27911377
1725950475593,2024-09-10T06:41:15.593Z,180376,-0.15136719,0.99816895,-0.272583
1725950475642,2024-09-10T06:41:15.642Z,180425,-0.1539917,1.0170288,-0.2748413
1725950475687,2024-09-10T06:41:15.687Z,180470,-0.15637207,1.038269,-0.28851318
1725950475732,2024-09-10T06:41:15.732Z,180515,-0.17504883,1.0576782,-0.2911377
1725950475757,2024-09-10T06:41:15.757Z,180540,-0.17138672,1.0622559,-0.28771973
1725950475779,2024-09-10T06:41:15.779Z,180562,-0.16821289,1.0673218,-0.2880249
1725950475815,2024-09-10T06:41:15.815Z,180598,-0.16564941,1.0484619,-0.28149414
1725950475866,2024-09-10T06:41:15.866Z,180649,-0.16955566,1.0206909,-0.27734375
1725950475910,2024-09-10T06:41:15.910Z,180693,-0.15063477,1.0029297,-0.27825928
1725950475957,2024-09-10T06:41:15.957Z,180740,-0.13891602,0.9838867,-0.2662964
1725950475998,2024-09-10T06:41:15.998Z,180781,-0.14550781,0.9614258,-0.2434082
1725950476047,2024-09-10T06:41:16.047Z,180830,-0.16485596,0.9655762,-0.20367432
1725950476092,2024-09-10T06:41:16.092Z,180875,-0.159729,0.9909668,-0.22332764
1725950476133,2024-09-10T06:41:16.133Z,180916,-0.18243408,0.9904785,-0.23388672
1725950476180,2024-09-10T06:41:16.180Z,180963,-0.18139648,1.0201416,-0.23828125
1725950476217,2024-09-10T06:41:16.217Z,181000,-0.12536621,0.9924927,-0.24597168
1725950476242,2024-09-10T06:41:16.242Z,181025,-0.12646484,0.97003174,-0.23693848
1725950476266,2024-09-10T06:41:16.266Z,181049,-0.13061523,0.96673584,-0.22027588
1725950476312,2024-09-10T06:41:16.312Z,181095,-0.11956787,0.94317627,-0.18621826
1725950476360,2024-09-10T06:41:16.360Z,181143,-0.11755371,0.9636841,-0.14031982
1725950476407,2024-09-10T06:41:16.407Z,181190,-0.1472168,0.9793091,-0.17016602
1725950476447,2024-09-10T06:41:16.447Z,181230,-0.128479,0.994751,-0.22662354
1725950476496,2024-09-10T06:41:16.496Z,181279,-0.1295166,0.9802246,-0.19604492
1725950476541,2024-09-10T06:41:16.541Z,181324,-0.11846924,0.9963989,-0.17462158
1725950476587,2024-09-10T06:41:16.587Z,181370,-0.12872314,1.015625,-0.18341064
1725950476612,2024-09-10T06:41:16.612Z,181395,-0.15283203,1.0218506,-0.19348145
1725950476632,2024-09-10T06:41:16.632Z,181415,-0.14007568,1.0197754,-0.19158936
1725950476670,2024-09-10T06:41:16.670Z,181453,-0.12738037,1.020935,-0.20489502
1725950476717,2024-09-10T06:41:16.717Z,181500,-0.15142822,0.9785156,-0.19805908
1725950476767,2024-09-10T06:41:16.767Z,181550,-0.13812256,0.9397583,-0.19366455
1725950476813,2024-09-10T06:41:16.813Z,181596,-0.124938965,0.93548584,-0.20355225
1725950476856,2024-09-10T06:41:16.856Z,181639,-0.11669922,0.95654297,-0.17150879
1725950476896,2024-09-10T06:41:16.896Z,181679,-0.14367676,0.9909668,-0.16949463
1725950476946,2024-09-10T06:41:16.946Z,181729,-0.14807129,1.026062,-0.14709473
1725950476987,2024-09-10T06:41:16.987Z,181770,-0.1348877,1.0424194,-0.1517334
1725950477007,2024-09-10T06:41:17.007Z,181790,-0.13580322,1.0187378,-0.1873169
1725950477031,2024-09-10T06:41:17.031Z,181814,-0.103027344,1.013794,-0.20233154
1725950477078,2024-09-10T06:41:17.078Z,181861,-0.13226318,0.9873657,-0.22125244
1725950477124,2024-09-10T06:41:17.124Z,181907,-0.12084961,0.97998047,-0.21447754
1725950477175,2024-09-10T06:41:17.175Z,181958,-0.08795166,0.9981079,-0.1963501
1725950477211,2024-09-10T06:41:17.211Z,181994,-0.10473633,0.9829712,-0.18463135
1725950477260,2024-09-10T06:41:17.260Z,182043,-0.09136963,0.9923096,-0.16845703
1725950477307,2024-09-10T06:41:17.307Z,182090,-0.11706543,0.989624,-0.18823242
1725950477347,2024-09-10T06:41:17.347Z,182130,-0.11633301,1.0044556,-0.16546631
1725950477397,2024-09-10T06:41:17.397Z,182180,-0.095703125,0.99853516,-0.15057373
1725950477438,2024-09-10T06:41:17.438Z,182221,-0.0993042,0.98638916,-0.15264893
1725950477460,2024-09-10T06:41:17.460Z,182243,-0.103393555,0.97143555,-0.15673828
1725950477482,2024-09-10T06:41:17.482Z,182265,-0.09857178,0.9822998,-0.17285156
1725950477527,2024-09-10T06:41:17.527Z,182310,-0.08898926,0.9902344,-0.14544678
1725950477572,2024-09-10T06:41:17.572Z,182355,-0.09649658,0.9904175,-0.18127441
1725950477617,2024-09-10T06:41:17.617Z,182400,-0.11859131,0.9857178,-0.15026855
1725950477666,2024-09-10T06:41:17.666Z,182449,-0.10168457,0.98205566,-0.13806152
1725950477708,2024-09-10T06:41:17.708Z,182491,-0.07196045,0.99017334,-0.122680664
1725950477757,2024-09-10T06:41:17.757Z,182540,-0.088256836,0.97265625,-0.117492676
1725950477800,2024-09-10T06:41:17.800Z,182583,-0.08581543,0.9750366,-0.121398926
1725950477847,2024-09-10T06:41:17.847Z,182630,-0.08770752,0.96875,-0.07513428
1725950477882,2024-09-10T06:41:17.882Z,182665,-0.0446167,0.9668579,-0.044311523
1725950477912,2024-09-10T06:41:17.912Z,182695,-0.087646484,0.94195557,-0.08111572
1725950477935,2024-09-10T06:41:17.935Z,182718,-0.04663086,0.9571533,-0.07287598
1725950477976,2024-09-10T06:41:17.976Z,182759,-0.06500244,0.9520874,-0.04437256
1725950478028,2024-09-10T06:41:18.028Z,182811,-0.06958008,0.9517822,-0.08526611
1725950478067,2024-09-10T06:41:18.067Z,182850,-0.053955078,0.9547119,-0.0993042
1725950478117,2024-09-10T06:41:18.117Z,182900,-0.057678223,0.9725952,-0.09075928
1725950478162,2024-09-10T06:41:18.162Z,182945,-0.043029785,0.97265625,-0.054992676
1725950478204,2024-09-10T06:41:18.204Z,182987,-0.050720215,0.98864746,-0.028625488
1725950478250,2024-09-10T06:41:18.250Z,183033,-0.057617188,1.0014648,-0.036132812
1725950478277,2024-09-10T06:41:18.277Z,183060,-0.07281494,0.9954834,-0.02758789
1725950478299,2024-09-10T06:41:18.299Z,183082,-0.085754395,1.00177,-0.041381836
1725950478335,2024-09-10T06:41:18.335Z,183118,-0.058044434,1.0011597,-0.05609131
1725950478382,2024-09-10T06:41:18.382Z,183165,-0.056396484,1.0005493,-0.06585693
1725950478432,2024-09-10T06:41:18.432Z,183215,-0.060913086,0.9996338,-0.080322266
1725950478473,2024-09-10T06:41:18.473Z,183256,-0.062927246,0.99609375,-0.08520508
1725950478521,2024-09-10T06:41:18.521Z,183304,-0.06060791,1.0028687,-0.08477783
1725950478567,2024-09-10T06:41:18.567Z,183350,-0.062927246,0.99871826,-0.0859375
1725950478607,2024-09-10T06:41:18.607Z,183390,-0.06542969,0.994812,-0.09307861
1725950478656,2024-09-10T06:41:18.656Z,183439,-0.07312012,0.9883423,-0.064453125
1725950478702,2024-09-10T06:41:18.702Z,183485,-0.07739258,0.98876953,-0.074035645
1725950478729,2024-09-10T06:41:18.729Z,183512,-0.06530762,0.9918213,-0.09039307
1725950478752,2024-09-10T06:41:18.752Z,183535,-0.07232666,0.9953003,-0.09124756
1725950478787,2024-09-10T06:41:18.787Z,183570,-0.076660156,0.9827881,-0.12854004
1725950478831,2024-09-10T06:41:18.831Z,183614,-0.06524658,0.9633179,-0.13885498
1725950478881,2024-09-10T06:41:18.881Z,183664,-0.05291748,0.9481201,-0.14007568
1725950478927,2024-09-10T06:41:18.927Z,183710,-0.06585693,0.95025635,-0.16949463
1725950478967,2024-09-10T06:41:18.967Z,183750,-0.091430664,0.9690552,-0.15106201
1725950479016,2024-09-10T06:41:19.016Z,183799,-0.058532715,1.0036011,-0.10992432
1725950479057,2024-09-10T06:41:19.057Z,183840,-0.07562256,1.0164185,-0.10620117
1725950479106,2024-09-10T06:41:19.106Z,183889,-0.03265381,1.020813,-0.13000488
1725950479132,2024-09-10T06:41:19.132Z,183915,-0.10797119,0.99005127,-0.094177246
1725950479160,2024-09-10T06:41:19.160Z,183943,-0.0725708,0.9671631,-0.093566895
1725950479190,2024-09-10T06:41:19.190Z,183973,-0.056396484,0.9849243,-0.13226318
1725950479239,2024-09-10T06:41:19.239Z,184022,-0.10961914,0.9822998,-0.1486206
1725950479282,2024-09-10T06:41:19.282Z,184065,-0.11218262,0.99346924,-0.1619873
1725950479330,2024-09-10T06:41:19.330Z,184113,-0.085632324,0.9923096,-0.17346191
1725950479377,2024-09-10T06:41:19.377Z,184160,-0.11639404,0.9924927,-0.17883301
1725950479422,2024-09-10T06:41:19.422Z,184205,-0.11035156,0.9797363,-0.17163086
1725950479469,2024-09-10T06:41:19.469Z,184252,-0.11633301,0.9694214,-0.17462158
1725950479508,2024-09-10T06:41:19.508Z,184291,-0.054016113,1.012207,-0.19934082
1725950479532,2024-09-10T06:41:19.532Z,184315,-0.16027832,0.9885864,-0.23291016
1725950479551,2024-09-10T06:41:19.551Z,184334,-0.12188721,0.9683838,-0.22973633
1725950479597,2024-09-10T06:41:19.597Z,184380,-0.09320068,0.9779663,-0.21984863
1725950479643,2024-09-10T06:41:19.643Z,184426,-0.11279297,0.98046875,-0.21905518
1725950479691,2024-09-10T06:41:19.691Z,184474,-0.12054443,0.98583984,-0.22503662
1725950479736,2024-09-10T06:41:19.736Z,184519,-0.12298584,0.9854126,-0.23083496
1725950479785,2024-09-10T06:41:19.785Z,184568,-0.09802246,1.0066528,-0.23669434
1725950479828,2024-09-10T06:41:19.828Z,184611,-0.13049316,0.9812012,-0.22961426
1725950479871,2024-09-10T06:41:19.871Z,184654,-0.091674805,0.99243164,-0.23339844
1725950479916,2024-09-10T06:41:19.916Z,184699,-0.13189697,0.9673462,-0.22406006
1725950479961,2024-09-10T06:41:19.961Z,184744,-0.10437012,0.9691162,-0.23553467
1725950479987,2024-09-10T06:41:19.987Z,184770,-0.13067627,0.96447754,-0.22564697
1725950480007,2024-09-10T06:41:20.007Z,184790,-0.10406494,0.9957886,-0.23217773
1725950480048,2024-09-10T06:41:20.048Z,184831,-0.15441895,0.98443604,-0.23284912
1725950480092,2024-09-10T06:41:20.092Z,184875,-0.09869385,0.99902344,-0.23547363
1725950480143,2024-09-10T06:41:20.143Z,184926,-0.16442871,0.9495239,-0.22906494
1725950480189,2024-09-10T06:41:20.189Z,184972,-0.10772705,0.9354248,-0.19885254
1725950480225,2024-09-10T06:41:20.225Z,185008,-0.0982666,0.9370117,-0.19793701
1725950480279,2024-09-10T06:41:20.279Z,185062,-0.13171387,0.9624634,-0.2277832
1725950480320,2024-09-10T06:41:20.320Z,185103,-0.14428711,0.96258545,-0.23596191
1725950480368,2024-09-10T06:41:20.368Z,185151,-0.1550293,0.9529419,-0.24102783
1725950480406,2024-09-10T06:41:20.406Z,185189,-0.12908936,0.94903564,-0.22747803
1725950480428,2024-09-10T06:41:20.428Z,185211,-0.13989258,0.94470215,-0.24255371
1725950480451,2024-09-10T06:41:20.451Z,185234,-0.12561035,0.973938,-0.2524414
1725950480495,2024-09-10T06:41:20.495Z,185278,-0.17407227,0.96569824,-0.25671387
1725950480561,2024-09-10T06:41:20.561Z,185344,-0.103393555,0.9970703,-0.26708984
1725950480589,2024-09-10T06:41:20.589Z,185372,-0.1538086,0.98272705,-0.25335693
1725950480632,2024-09-10T06:41:20.632Z,185415,-0.13531494,0.98895264,-0.26641846
1725950480680,2024-09-10T06:41:20.680Z,185463,-0.16119385,0.970459,-0.27593994
1725950480725,2024-09-10T06:41:20.725Z,185508,-0.14648438,0.9667969,-0.25720215
1725950480774,2024-09-10T06:41:20.774Z,185557,-0.12322998,0.97540283,-0.27148438
1725950480807,2024-09-10T06:41:20.807Z,185590,-0.14733887,0.9780884,-0.26452637
1725950480830,2024-09-10T06:41:20.830Z,185613,-0.12945557,0.99053955,-0.27734375
1725950480856,2024-09-10T06:41:20.856Z,185639,-0.18133545,0.9797363,-0.27520752
1725950480908,2024-09-10T06:41:20.908Z,185691,-0.11584473,1.0119019,-0.28009033
1725950480948,2024-09-10T06:41:20.948Z,185731,-0.14813232,1.0064087,-0.28027344
1725950481002,2024-09-10T06:41:21.002Z,185785,-0.15716553,1.0140381,-0.2935791
1725950481036,2024-09-10T06:41:21.036Z,185819,-0.16461182,0.99835205,-0.28582764
1725950481084,2024-09-10T06:41:21.084Z,185867,-0.14587402,0.9921875,-0.2923584
1725950481133,2024-09-10T06:41:21.133Z,185916,-0.13995361,0.9866333,-0.27624512
1725950481175,2024-09-10T06:41:21.175Z,185958,-0.14465332,0.98376465,-0.28186035
1725950481195,2024-09-10T06:41:21.195Z,185978,-0.13922119,0.98895264,-0.2897339
1725950481216,2024-09-10T06:41:21.216Z,185999,-0.1529541,0.9859009,-0.28448486
1725950481263,2024-09-10T06:41:21.263Z,186046,-0.15032959,0.99523926,-0.30004883
1725950481306,2024-09-10T06:41:21.306Z,186089,-0.14874268,1.0048218,-0.29937744
1725950481353,2024-09-10T06:41:21.353Z,186136,-0.14648438,1.0239258,-0.28796387
1725950481401,2024-09-10T06:41:21.401Z,186184,-0.16741943,1.0147705,-0.2810669
1725950481442,2024-09-10T06:41:21.442Z,186225,-0.14630127,1.0304565,-0.28424072
1725950481491,2024-09-10T06:41:21.491Z,186274,-0.17071533,1.0236816,-0.28588867
1725950481532,2024-09-10T06:41:21.532Z,186315,-0.1585083,1.0176392,-0.27618408
1725950481581,2024-09-10T06:41:21.581Z,186364,-0.14593506,1.0248413,-0.2958374
1725950481628,2024-09-10T06:41:21.628Z,186411,-0.14526367,1.0354004,-0.26281738
1725950481657,2024-09-10T06:41:21.657Z,186440,-0.14465332,1.045166,-0.25476074
1725950481679,2024-09-10T06:41:21.679Z,186462,-0.13165283,1.0512695,-0.2322998
1725950481758,2024-09-10T06:41:21.758Z,186541,-0.12164307,1.0526123,-0.21765137
1725950481777,2024-09-10T06:41:21.777Z,186560,-0.13415527,1.0245361,-0.2140503
1725950481802,2024-09-10T06:41:21.802Z,186585,-0.11407471,1.0202637,-0.18139648
1725950481851,2024-09-10T06:41:21.851Z,186634,-0.12231445,1.0096436,-0.15838623
1725950481892,2024-09-10T06:41:21.892Z,186675,-0.121154785,1.0148315,-0.1697998
1725950481941,2024-09-10T06:41:21.941Z,186724,-0.11364746,1.0171509,-0.18951416
1725950481988,2024-09-10T06:41:21.988Z,186771,-0.10131836,1.0198364,-0.18231201
1725950482028,2024-09-10T06:41:22.028Z,186811,-0.111083984,1.0140381,-0.16400146
1725950482050,2024-09-10T06:41:22.050Z,186833,-0.11956787,0.9996948,-0.18963623
1725950482084,2024-09-10T06:41:22.084Z,186867,-0.12835693,0.98217773,-0.20281982
1725950482115,2024-09-10T06:41:22.115Z,186898,-0.11846924,0.9857178,-0.19335938
1725950482163,2024-09-10T06:41:22.163Z,186946,-0.10479736,1.0046997,-0.18127441
1725950482205,2024-09-10T06:41:22.205Z,186988,-0.12390137,0.99572754,-0.20031738
1725950482259,2024-09-10T06:41:22.259Z,187042,-0.12701416,0.9885864,-0.19812012
1725950482297,2024-09-10T06:41:22.297Z,187080,-0.13110352,0.98724365,-0.1798706
1725950482346,2024-09-10T06:41:22.346Z,187129,-0.119018555,0.99694824,-0.17425537
1725950482394,2024-09-10T06:41:22.394Z,187177,-0.115356445,0.9949951,-0.16009521
1725950482433,2024-09-10T06:41:22.433Z,187216,-0.11273193,1.00531,-0.15637207
1725950482456,2024-09-10T06:41:22.456Z,187239,-0.1239624,1.0061646,-0.14855957
1725950482477,2024-09-10T06:41:22.477Z,187260,-0.10455322,1.0040894,-0.12573242
1725950482521,2024-09-10T06:41:22.521Z,187304,-0.09423828,0.99487305,-0.11907959
1725950482573,2024-09-10T06:41:22.573Z,187356,-0.09185791,0.9921875,-0.12805176
1725950482612,2024-09-10T06:41:22.612Z,187395,-0.088012695,1.0090332,-0.14227295
1725950482662,2024-09-10T06:41:22.662Z,187445,-0.11193848,0.99090576,-0.12988281
1725950482708,2024-09-10T06:41:22.708Z,187491,-0.06921387,0.9899292,-0.13763428
1725950482747,2024-09-10T06:41:22.747Z,187530,-0.07281494,0.96466064,-0.11016846
1725950482796,2024-09-10T06:41:22.796Z,187579,-0.06915283,0.9607544,-0.10699463
1725950482842,2024-09-10T06:41:22.842Z,187625,-0.07751465,0.94189453,-0.11578369
1725950482889,2024-09-10T06:41:22.889Z,187672,-0.047973633,0.9360962,-0.11016846
1725950482914,2024-09-10T06:41:22.914Z,187697,-0.043701172,0.9552002,-0.08691406
1725950482933,2024-09-10T06:41:22.933Z,187716,-0.07775879,0.97088623,-0.081848145
1725950482973,2024-09-10T06:41:22.973Z,187756,-0.051696777,1.00531,-0.11871338
1725950483019,2024-09-10T06:41:23.019Z,187802,-0.057006836,1.0029297,-0.078430176
1725950483065,2024-09-10T06:41:23.065Z,187848,-0.0637207,1.0025024,-0.053222656
1725950483116,2024-09-10T06:41:23.116Z,187899,-0.030212402,0.9869995,-0.06762695
1725950483154,2024-09-10T06:41:23.154Z,187937,-0.021728516,0.9807129,-0.041015625
1725950483197,2024-09-10T06:41:23.197Z,187980,-0.009216309,0.97961426,-0.013366699
1725950483246,2024-09-10T06:41:23.246Z,188029,-0.0051879883,0.96484375,-0.017211914
1725950483292,2024-09-10T06:41:23.292Z,188075,-0.0026245117,0.96221924,0.002380371
1725950483320,2024-09-10T06:41:23.320Z,188103,0.0025634766,0.9723511,0.012329102
1725950483341,2024-09-10T06:41:23.341Z,188124,-0.0049438477,0.9857788,0.03186035
1725950483375,2024-09-10T06:41:23.375Z,188158,-0.024353027,1.0043945,0.06756592
1725950483423,2024-09-10T06:41:23.423Z,188206,-0.024536133,1.0168457,0.058898926
1725950483478,2024-09-10T06:41:23.478Z,188261,-0.0016479492,1.0071411,0.055419922
1725950483513,2024-09-10T06:41:23.513Z,188296,-0.004638672,0.98339844,0.05517578
1725950483560,2024-09-10T06:41:23.560Z,188343,0.009033203,0.9511719,0.051818848
1725950483605,2024-09-10T06:41:23.605Z,188388,0.014282227,0.94366455,0.06311035
1725950483651,2024-09-10T06:41:23.651Z,188434,0.013793945,0.9572754,0.06225586
1725950483696,2024-09-10T06:41:23.696Z,188479,0.0031738281,0.9718628,0.064697266
1725950483723,2024-09-10T06:41:23.723Z,188506,-0.005126953,0.9904785,0.0914917
1725950483744,2024-09-10T06:41:23.744Z,188527,-0.008544922,0.9974365,0.08795166
1725950483782,2024-09-10T06:41:23.782Z,188565,0.0013427734,0.994812,0.058654785
1725950483826,2024-09-10T06:41:23.826Z,188609,0.0146484375,1.0045166,0.064331055
1725950483875,2024-09-10T06:41:23.875Z,188658,0.015380859,1.0057983,0.09124756
1725950483920,2024-09-10T06:41:23.920Z,188703,0.012939453,1.0082397,0.09967041
1725950483967,2024-09-10T06:41:23.967Z,188750,0.013061523,1.0024414,0.09979248
1725950484011,2024-09-10T06:41:24.011Z,188794,0.0178833,0.9968872,0.10803223
1725950484052,2024-09-10T06:41:24.052Z,188835,0.0134887695,0.9890137,0.12542725
1725950484104,2024-09-10T06:41:24.104Z,188887,5.493164E-4,0.9873047,0.096069336
1725950484142,2024-09-10T06:41:24.142Z,188925,-0.004211426,0.9994507,0.09173584
1725950484166,2024-09-10T06:41:24.166Z,188949,0.004211426,1.0179443,0.10803223
1725950484185,2024-09-10T06:41:24.185Z,188968,-0.0051879883,1.0268555,0.09655762
1725950484230,2024-09-10T06:41:24.230Z,189013,-0.005554199,1.0253906,0.05493164
1725950484278,2024-09-10T06:41:24.278Z,189061,-0.01159668,0.9941406,0.043701172
1725950484327,2024-09-10T06:41:24.327Z,189110,-0.009155273,0.9876709,0.021606445
1725950484368,2024-09-10T06:41:24.368Z,189151,-0.025756836,1.0006714,0.023620605
1725950484419,2024-09-10T06:41:24.419Z,189202,-0.019836426,1.0252686,0.02166748
1725950484458,2024-09-10T06:41:24.458Z,189241,-0.024719238,1.0124512,0.031921387
1725950484508,2024-09-10T06:41:24.508Z,189291,-0.03778076,1.0064697,0.019714355
1725950484552,2024-09-10T06:41:24.552Z,189335,-0.044311523,0.9890137,0.020690918
1725950484578,2024-09-10T06:41:24.578Z,189361,-0.05706787,0.984375,0.010131836
1725950484600,2024-09-10T06:41:24.600Z,189383,-0.044311523,0.99017334,0.01574707
1725950484635,2024-09-10T06:41:24.635Z,189418,-0.045837402,0.99853516,-0.013000488
1725950484683,2024-09-10T06:41:24.683Z,189466,-0.020629883,1.0114136,-0.03466797
1725950484731,2024-09-10T06:41:24.731Z,189514,-0.056152344,1.0189209,-0.04309082
1725950484778,2024-09-10T06:41:24.778Z,189561,-0.05999756,1.0288696,-0.048706055
1725950484818,2024-09-10T06:41:24.818Z,189601,-0.08416748,1.0258789,-0.024902344
1725950484864,2024-09-10T06:41:24.864Z,189647,-0.074157715,1.0391235,-0.009521484
1725950484910,2024-09-10T06:41:24.910Z,189693,-0.08337402,1.0354614,-2.4414062E-4
1725950484952,2024-09-10T06:41:24.952Z,189735,-0.07672119,1.0324097,0.0024414062
1725950484975,2024-09-10T06:41:24.975Z,189758,-0.09954834,1.0211182,-0.018737793
1725950484997,2024-09-10T06:41:24.997Z,189780,-0.07159424,1.0133667,-0.022216797
1725950485043,2024-09-10T06:41:25.043Z,189826,-0.09564209,1.010498,-0.045532227
1725950485090,2024-09-10T06:41:25.090Z,189873,-0.08648682,1.005249,-0.032287598
1725950485140,2024-09-10T06:41:25.140Z,189923,-0.088012695,0.9953613,-0.013671875
1725950485176,2024-09-10T06:41:25.176Z,189959,-0.09197998,0.9857178,-0.00390625
1725950485226,2024-09-10T06:41:25.226Z,190009,-0.06359863,0.9976196,0.012390137
1725950485271,2024-09-10T06:41:25.271Z,190054,-0.09020996,1.0083618,-0.00592041
1725950485311,2024-09-10T06:41:25.311Z,190094,-0.0647583,1.0203857,-0.0178833
1725950485379,2024-09-10T06:41:25.379Z,190162,-0.09527588,1.0273438,-0.016418457
1725950485404,2024-09-10T06:41:25.404Z,190187,-0.08642578,1.0360718,-0.011474609
1725950485423,2024-09-10T06:41:25.423Z,190206,-0.10064697,1.0220947,-0.0059814453
1725950485446,2024-09-10T06:41:25.446Z,190229,-0.0803833,1.0081787,0.0068969727
1725950485492,2024-09-10T06:41:25.492Z,190275,-0.057678223,1.0018921,-0.0021362305
1725950485536,2024-09-10T06:41:25.536Z,190319,-0.08270264,0.9855957,-0.015014648
1725950485587,2024-09-10T06:41:25.587Z,190370,-0.07220459,0.98638916,-0.016784668
1725950485630,2024-09-10T06:41:25.630Z,190413,-0.08868408,0.98291016,-0.014038086
1725950485673,2024-09-10T06:41:25.673Z,190456,-0.06744385,0.9767456,4.272461E-4
1725950485722,2024-09-10T06:41:25.722Z,190505,-0.06341553,0.9845581,3.0517578E-4
1725950485767,2024-09-10T06:41:25.767Z,190550,-0.06640625,0.9501343,-0.02508545
1725950485808,2024-09-10T06:41:25.808Z,190591,-0.08062744,0.95196533,-0.0119018555
1725950485830,2024-09-10T06:41:25.830Z,190613,-0.05102539,0.9807129,-0.03527832
1725950485852,2024-09-10T06:41:25.852Z,190635,-0.0715332,1.0059204,-0.033691406
1725950485897,2024-09-10T06:41:25.897Z,190680,-0.06488037,1.0131836,-0.05718994
1725950485943,2024-09-10T06:41:25.943Z,190726,-0.08642578,0.9887085,-0.073791504
1725950485991,2024-09-10T06:41:25.991Z,190774,-0.090148926,0.9694214,-0.078552246
1725950486032,2024-09-10T06:41:26.032Z,190815,-0.07684326,0.97924805,-0.07519531
1725950486083,2024-09-10T06:41:26.083Z,190866,-0.07952881,0.9949341,-0.03753662
1725950486122,2024-09-10T06:41:26.122Z,190905,-0.083496094,1.0181885,-0.06762695
1725950486172,2024-09-10T06:41:26.172Z,190955,-0.1027832,0.99053955,-0.0791626
1725950486213,2024-09-10T06:41:26.213Z,190996,-0.085876465,0.977478,-0.07385254
1725950486227,2024-09-10T06:41:26.227Z,191010,-0.10644531,0.9841919,-0.09063721
1725950486254,2024-09-10T06:41:26.254Z,191037,-0.06213379,0.9941406,-0.11639404
1725950486302,2024-09-10T06:41:26.302Z,191085,-0.12109375,0.975647,-0.13897705
1725950486349,2024-09-10T06:41:26.349Z,191132,-0.09698486,0.9828491,-0.15045166
1725950486393,2024-09-10T06:41:26.393Z,191176,-0.12731934,0.97491455,-0.14984131
1725950486443,2024-09-10T06:41:26.443Z,191226,-0.10650635,0.98217773,-0.14691162
1725950486486,2024-09-10T06:41:26.486Z,191269,-0.12756348,0.97735596,-0.15698242
1725950486528,2024-09-10T06:41:26.528Z,191311,-0.11981201,0.9660034,-0.15032959
1725950486576,2024-09-10T06:41:26.576Z,191359,-0.109069824,0.9953003,-0.15966797
1725950486620,2024-09-10T06:41:26.620Z,191403,-0.15393066,0.97613525,-0.1687622
1725950486668,2024-09-10T06:41:26.668Z,191451,-0.14111328,0.9766846,-0.18469238
1725950486694,2024-09-10T06:41:26.694Z,191477,-0.13287354,0.9784546,-0.17370605
1725950486717,2024-09-10T06:41:26.717Z,191500,-0.14343262,0.97491455,-0.16644287
1725950486751,2024-09-10T06:41:26.751Z,191534,-0.144104,0.9539795,-0.17456055
1725950486804,2024-09-10T06:41:26.804Z,191587,-0.13665771,0.9399414,-0.17303467
1725950486846,2024-09-10T06:41:26.846Z,191629,-0.12664795,0.956604,-0.16674805
1725950486894,2024-09-10T06:41:26.894Z,191677,-0.12042236,0.97821045,-0.17236328
1725950486933,2024-09-10T06:41:26.933Z,191716,-0.14672852,0.97424316,-0.18188477
1725950486981,2024-09-10T06:41:26.981Z,191764,-0.121520996,0.9805298,-0.20355225
1725950487026,2024-09-10T06:41:27.026Z,191809,-0.14776611,0.9711304,-0.22619629
1725950487072,2024-09-10T06:41:27.072Z,191855,-0.14031982,0.98431396,-0.2545166
1725950487098,2024-09-10T06:41:27.098Z,191881,-0.159729,0.9807129,-0.24987793
1725950487120,2024-09-10T06:41:27.120Z,191903,-0.12219238,1.0079956,-0.2579956
1725950487156,2024-09-10T06:41:27.156Z,191939,-0.14611816,1.0061646,-0.25860596
1725950487200,2024-09-10T06:41:27.200Z,191983,-0.1531372,1.027832,-0.24249268
1725950487248,2024-09-10T06:41:27.248Z,192031,-0.15130615,1.0219727,-0.23602295
1725950487298,2024-09-10T06:41:27.298Z,192081,-0.122558594,1.0249023,-0.2640381
1725950487340,2024-09-10T06:41:27.340Z,192123,-0.15924072,0.9942627,-0.2645874
1725950487387,2024-09-10T06:41:27.387Z,192170,-0.14465332,0.9874878,-0.25897217
1725950487427,2024-09-10T06:41:27.427Z,192210,-0.14416504,0.98669434,-0.260437
1725950487476,2024-09-10T06:41:27.476Z,192259,-0.16259766,1.0014038,-0.26190186
1725950487503,2024-09-10T06:41:27.503Z,192286,-0.17211914,1.0036011,-0.26757812
1725950487524,2024-09-10T06:41:27.524Z,192307,-0.1772461,1.0,-0.24761963
1725950487561,2024-09-10T06:41:27.561Z,192344,-0.16412354,1.0006714,-0.26141357
1725950487611,2024-09-10T06:41:27.611Z,192394,-0.17315674,0.9970093,-0.25738525
1725950487657,2024-09-10T06:41:27.657Z,192440,-0.16448975,0.9954834,-0.26000977
1725950487702,2024-09-10T06:41:27.702Z,192485,-0.15441895,0.9914551,-0.26379395
1725950487742,2024-09-10T06:41:27.742Z,192525,-0.16040039,1.0042114,-0.27227783
1725950487792,2024-09-10T06:41:27.792Z,192575,-0.17175293,1.0042725,-0.2758789
1725950487885,2024-09-10T06:41:27.885Z,192668,-0.16253662,1.0094604,-0.28271484
1725950487917,2024-09-10T06:41:27.917Z,192700,-0.16479492,1.0114136,-0.28710938
1725950487938,2024-09-10T06:41:27.938Z,192721,-0.16583252,0.9960327,-0.2857666
1725950487958,2024-09-10T06:41:27.958Z,192741,-0.16741943,0.9751587,-0.27850342
1725950487975,2024-09-10T06:41:27.975Z,192758,-0.15924072,0.9788208,-0.26879883
1725950488010,2024-09-10T06:41:28.010Z,192793,-0.15618896,0.9954834,-0.27844238
1725950488056,2024-09-10T06:41:28.056Z,192839,-0.16790771,0.98498535,-0.26898193
1725950488107,2024-09-10T06:41:28.107Z,192890,-0.17120361,0.9794922,-0.27355957
1725950488155,2024-09-10T06:41:28.155Z,192938,-0.16662598,0.9802246,-0.27148438
1725950488193,2024-09-10T06:41:28.193Z,192976,-0.16131592,0.9920044,-0.2548828
1725950488239,2024-09-10T06:41:28.239Z,193022,-0.16833496,1.010498,-0.2635498
1725950488335,2024-09-10T06:41:28.335Z,193118,-0.18359375,1.0140381,-0.25164795
1725950488365,2024-09-10T06:41:28.365Z,193148,-0.20025635,1.0301514,-0.22784424
1725950488387,2024-09-10T06:41:28.387Z,193170,-0.20159912,1.0443726,-0.24365234
1725950488407,2024-09-10T06:41:28.407Z,193190,-0.19268799,1.0447998,-0.22918701
1725950488425,2024-09-10T06:41:28.425Z,193208,-0.20031738,1.0300903,-0.21594238
1725950488461,2024-09-10T06:41:28.461Z,193244,-0.19799805,1.0110474,-0.2010498
1725950488506,2024-09-10T06:41:28.506Z,193289,-0.18939209,0.98809814,-0.18658447
1725950488554,2024-09-10T06:41:28.554Z,193337,-0.17590332,0.9664917,-0.19592285
1725950488597,2024-09-10T06:41:28.597Z,193380,-0.1373291,0.9694214,-0.2053833
1725950488646,2024-09-10T06:41:28.646Z,193429,-0.14379883,0.96661377,-0.18670654
1725950488692,2024-09-10T06:41:28.692Z,193475,-0.14611816,0.9589844,-0.19726562
1725950488736,2024-09-10T06:41:28.736Z,193519,-0.14910889,0.9673462,-0.18109131
1725950488759,2024-09-10T06:41:28.759Z,193542,-0.17626953,0.9998169,-0.12554932
1725950488780,2024-09-10T06:41:28.780Z,193563,-0.17706299,1.0211792,-0.1616211
1725950488821,2024-09-10T06:41:28.821Z,193604,-0.15704346,1.0145264,-0.20458984
1725950488873,2024-09-10T06:41:28.873Z,193656,-0.16046143,0.99993896,-0.17974854
1725950488912,2024-09-10T06:41:28.912Z,193695,-0.17279053,0.9920654,-0.13800049
1725950488961,2024-09-10T06:41:28.961Z,193744,-0.15905762,1.0019531,-0.1260376
1725950489008,2024-09-10T06:41:29.008Z,193791,-0.17004395,1.0074463,-0.1484375
1725950489048,2024-09-10T06:41:29.048Z,193831,-0.17199707,1.024292,-0.14758301
1725950489096,2024-09-10T06:41:29.096Z,193879,-0.1585083,1.0257568,-0.15142822
1725950489140,2024-09-10T06:41:29.140Z,193923,-0.15240479,1.0335693,-0.17260742
1725950489188,2024-09-10T06:41:29.188Z,193971,-0.13983154,1.0531616,-0.17181396
1725950489209,2024-09-10T06:41:29.209Z,193992,-0.14337158,1.0506592,-0.16436768
1725950489228,2024-09-10T06:41:29.228Z,194011,-0.13092041,1.034668,-0.16113281
1725950489271,2024-09-10T06:41:29.271Z,194054,-0.12738037,1.0117798,-0.15588379
1725950489318,2024-09-10T06:41:29.318Z,194101,-0.13574219,0.9873657,-0.15759277
1725950489365,2024-09-10T06:41:29.365Z,194148,-0.12731934,0.96588135,-0.14581299
1725950489411,2024-09-10T06:41:29.411Z,194194,-0.11114502,0.95843506,-0.13220215
1725950489457,2024-09-10T06:41:29.457Z,194240,-0.11065674,0.9625244,-0.13702393
1725950489520,2024-09-10T06:41:29.520Z,194303,-0.14257812,0.94903564,-0.14367676
1725950489545,2024-09-10T06:41:29.545Z,194328,-0.12738037,0.95788574,-0.13909912
1725950489586,2024-09-10T06:41:29.586Z,194369,-0.11743164,0.97058105,-0.0970459
1725950489606,2024-09-10T06:41:29.606Z,194389,-0.11975098,1.0048828,-0.09655762
1725950489632,2024-09-10T06:41:29.632Z,194415,-0.10321045,1.0386353,-0.06695557
1725950489676,2024-09-10T06:41:29.676Z,194459,-0.12133789,1.0231934,-0.06994629
1725950489725,2024-09-10T06:41:29.725Z,194508,-0.08880615,1.0072021,-0.09161377
1725950489773,2024-09-10T06:41:29.773Z,194556,-0.09649658,0.97088623,-0.12634277
1725950489815,2024-09-10T06:41:29.815Z,194598,-0.06951904,0.97094727,-0.1217041
1725950489857,2024-09-10T06:41:29.857Z,194640,-0.069885254,0.9569092,-0.13287354
1725950489907,2024-09-10T06:41:29.907Z,194690,-0.064331055,0.9572754,-0.13934326
1725950489953,2024-09-10T06:41:29.953Z,194736,-0.052124023,0.95861816,-0.08496094
1725950489992,2024-09-10T06:41:29.992Z,194775,-0.040283203,0.960083,-0.080322266
1725950490015,2024-09-10T06:41:30.015Z,194798,-0.040222168,0.9767456,-0.054748535
1725950490041,2024-09-10T06:41:30.041Z,194824,-0.05407715,0.9981079,-0.037597656
1725950490083,2024-09-10T06:41:30.083Z,194866,-0.036193848,1.0089111,0.0040283203
1725950490128,2024-09-10T06:41:30.128Z,194911,-0.048950195,1.0074463,-0.029418945
1725950490177,2024-09-10T06:41:30.177Z,194960,-0.058166504,0.9996948,-0.071777344
1725950490218,2024-09-10T06:41:30.218Z,195001,-0.056152344,1.0001221,-0.05316162
1725950490268,2024-09-10T06:41:30.268Z,195051,-0.037231445,0.9974365,-0.03515625
1725950490312,2024-09-10T06:41:30.312Z,195095,-0.0390625,0.9968262,0.0
1725950490354,2024-09-10T06:41:30.354Z,195137,-0.05810547,0.98724365,-0.010375977
1725950490402,2024-09-10T06:41:30.402Z,195185,-0.033691406,0.9801636,-0.0064086914
1725950490446,2024-09-10T06:41:30.446Z,195229,-0.046813965,0.9807129,0.013000488
1725950490472,2024-09-10T06:41:30.472Z,195255,-0.038513184,0.9677124,0.008911133
1725950490495,2024-09-10T06:41:30.495Z,195278,-0.034240723,0.9661865,-0.012084961
1725950490532,2024-09-10T06:41:30.532Z,195315,-0.060180664,0.9612427,-0.010559082
1725950490576,2024-09-10T06:41:30.576Z,195359,-0.06878662,0.9592285,-0.005432129
1725950490626,2024-09-10T06:41:30.626Z,195409,-0.07684326,0.96014404,0.0060424805
1725950490670,2024-09-10T06:41:30.670Z,195453,-0.08129883,0.9855957,0.0068359375
1725950490716,2024-09-10T06:41:30.716Z,195499,-0.08154297,1.0007324,0.017028809
1725950490760,2024-09-10T06:41:30.760Z,195543,-0.08850098,1.0061646,0.0099487305
1725950490804,2024-09-10T06:41:30.804Z,195587,-0.080322266,1.0249634,-0.005065918
1725950490845,2024-09-10T06:41:30.845Z,195628,-0.07159424,1.0385742,-0.003967285
1725950490865,2024-09-10T06:41:30.865Z,195648,-0.06549072,1.0236206,0.016113281
1725950490889,2024-09-10T06:41:30.889Z,195672,-0.059143066,1.0047607,0.022216797
1725950490937,2024-09-10T06:41:30.937Z,195720,-0.041992188,0.99316406,0.013427734
1725950490979,2024-09-10T06:41:30.979Z,195762,-0.020996094,1.0062866,0.018737793
