Timestamp (ms),ISO DateTime,Elapsed Time (ms),Acceleration X,Acceleration Y,Acceleration Z
1725699628141,2024-09-07T09:00:28.141Z,29440,0.09588623,0.97802734,0.20697021
1725699628185,2024-09-07T09:00:28.185Z,29484,0.09503174,0.9840698,0.20715332
1725699628228,2024-09-07T09:00:28.228Z,29527,0.082458496,0.9974365,0.17834473
1725699628273,2024-09-07T09:00:28.273Z,29572,0.10229492,0.9844971,0.20904541
1725699628319,2024-09-07T09:00:28.319Z,29618,0.08465576,0.98638916,0.17810059
1725699628370,2024-09-07T09:00:28.370Z,29669,0.09667969,0.99432373,0.17138672
1725699628390,2024-09-07T09:00:28.390Z,29689,0.083740234,0.98773193,0.19110107
1725699628412,2024-09-07T09:00:28.412Z,29711,0.09112549,0.99713135,0.1628418
1725699628460,2024-09-07T09:00:28.460Z,29759,0.09094238,0.9831543,0.18414307
1725699628504,2024-09-07T09:00:28.504Z,29803,0.0736084,0.9998779,0.15185547
1725699628551,2024-09-07T09:00:28.551Z,29850,0.09552002,0.9786377,0.19940186
1725699628599,2024-09-07T09:00:28.599Z,29898,0.06506348,0.99627686,0.13604736
1725699628641,2024-09-07T09:00:28.641Z,29940,0.06896973,0.9741211,0.16540527
1725699628736,2024-09-07T09:00:28.736Z,30035,0.08911133,0.98602295,0.15063477
1725699628768,2024-09-07T09:00:28.768Z,30067,0.057617188,0.9921875,0.14916992
1725699628794,2024-09-07T09:00:28.794Z,30093,0.083740234,0.99121094,0.1418457
1725699628821,2024-09-07T09:00:28.821Z,30120,0.072265625,0.9998169,0.12658691
1725699628843,2024-09-07T09:00:28.843Z,30142,0.07672119,0.99090576,0.124938965
1725699628864,2024-09-07T09:00:28.864Z,30163,0.06390381,0.9968262,0.12683105
1725699628910,2024-09-07T09:00:28.910Z,30209,0.093566895,0.9932251,0.099365234
1725699628955,2024-09-07T09:00:28.955Z,30254,0.06072998,0.9990845,0.093566895
1725699629002,2024-09-07T09:00:29.002Z,30301,0.058044434,0.9898071,0.13531494
1725699629044,2024-09-07T09:00:29.044Z,30343,0.0748291,0.9744873,0.109313965
1725699629089,2024-09-07T09:00:29.089Z,30388,0.047851562,0.98461914,0.075683594
1725699629134,2024-09-07T09:00:29.134Z,30433,0.05999756,0.9736328,0.07849121
1725699629180,2024-09-07T09:00:29.180Z,30479,0.047912598,1.0090942,0.024658203
1725699629226,2024-09-07T09:00:29.226Z,30525,0.038879395,0.9928589,0.06506348
1725699629247,2024-09-07T09:00:29.247Z,30546,0.05609131,1.0189209,0.015686035
1725699629275,2024-09-07T09:00:29.275Z,30574,0.03869629,0.9934082,0.048034668
1725699629314,2024-09-07T09:00:29.314Z,30613,0.036254883,0.98742676,0.03564453
1725699629360,2024-09-07T09:00:29.360Z,30659,0.04663086,0.98724365,0.030029297
1725699629408,2024-09-07T09:00:29.408Z,30707,0.03125,0.98272705,0.003479004
1725699629448,2024-09-07T09:00:29.448Z,30747,0.03277588,0.9794922,0.0010986328
1725699629491,2024-09-07T09:00:29.491Z,30790,0.044677734,0.99365234,-0.0048828125
1725699629540,2024-09-07T09:00:29.540Z,30839,0.034484863,0.9923096,-0.022644043
1725699629584,2024-09-07T09:00:29.584Z,30883,0.06652832,0.9852295,-0.010192871
1725699629628,2024-09-07T09:00:29.628Z,30927,0.055725098,1.0048828,-0.040039062
1725699629646,2024-09-07T09:00:29.646Z,30945,0.06628418,1.0094604,-0.022094727
1725699629672,2024-09-07T09:00:29.672Z,30971,0.052246094,1.0181885,-0.03387451
1725699629719,2024-09-07T09:00:29.719Z,31018,0.057922363,1.006958,-0.051818848
1725699629768,2024-09-07T09:00:29.768Z,31067,0.042907715,1.0163574,-0.057128906
1725699629855,2024-09-07T09:00:29.855Z,31154,0.03918457,1.0111084,-0.043701172
1725699629878,2024-09-07T09:00:29.878Z,31177,0.050231934,1.02948,-0.052612305
1725699629898,2024-09-07T09:00:29.898Z,31197,0.012878418,1.026123,-0.076171875
1725699629945,2024-09-07T09:00:29.945Z,31244,0.05114746,1.0322876,-0.056274414
1725699629989,2024-09-07T09:00:29.989Z,31288,0.022094727,1.0429688,-0.07562256
1725699630034,2024-09-07T09:00:30.034Z,31333,0.028015137,1.0534058,-0.09625244
1725699630052,2024-09-07T09:00:30.052Z,31351,0.0029296875,1.0337524,-0.07611084
1725699630077,2024-09-07T09:00:30.077Z,31376,0.010009766,1.0193481,-0.068359375
1725699630125,2024-09-07T09:00:30.125Z,31424,0.043762207,1.0046387,-0.0847168
1725699630169,2024-09-07T09:00:30.169Z,31468,0.014282227,0.98547363,-0.08721924
1725699630211,2024-09-07T09:00:30.211Z,31510,0.020751953,0.9834595,-0.07299805
1725699630261,2024-09-07T09:00:30.261Z,31560,0.045715332,0.9772949,-0.07507324
1725699630304,2024-09-07T09:00:30.304Z,31603,0.032226562,1.0098267,-0.119506836
1725699630351,2024-09-07T09:00:30.351Z,31650,0.007080078,0.9898071,-0.08959961
1725699630398,2024-09-07T09:00:30.398Z,31697,0.038269043,1.0162354,-0.1361084
1725699630438,2024-09-07T09:00:30.438Z,31737,0.026184082,1.0041504,-0.097595215
1725699630485,2024-09-07T09:00:30.485Z,31784,0.021057129,1.0126953,-0.10437012
1725699630505,2024-09-07T09:00:30.505Z,31804,0.04333496,1.0302734,-0.15240479
1725699630524,2024-09-07T09:00:30.524Z,31823,-0.008483887,0.99920654,-0.11968994
1725699630571,2024-09-07T09:00:30.571Z,31870,0.034851074,1.0075684,-0.13977051
1725699630615,2024-09-07T09:00:30.615Z,31914,0.022521973,1.0033569,-0.1560669
1725699630665,2024-09-07T09:00:30.665Z,31964,0.012390137,0.99993896,-0.11834717
1725699630709,2024-09-07T09:00:30.709Z,32008,0.026977539,1.00531,-0.15075684
1725699630756,2024-09-07T09:00:30.756Z,32055,0.006652832,1.0021362,-0.14654541
1725699630798,2024-09-07T09:00:30.798Z,32097,0.03338623,1.0222168,-0.13745117
1725699630842,2024-09-07T09:00:30.842Z,32141,0.015991211,1.000061,-0.14709473
1725699630889,2024-09-07T09:00:30.889Z,32188,0.030578613,1.0181274,-0.14611816
1725699630909,2024-09-07T09:00:30.909Z,32208,0.0072021484,1.0223389,-0.18664551
1725699630932,2024-09-07T09:00:30.932Z,32231,0.039611816,1.0250244,-0.1340332
1725699630988,2024-09-07T09:00:30.988Z,32287,0.038879395,1.0194092,-0.1899414
1725699631024,2024-09-07T09:00:31.024Z,32323,0.02154541,1.0257568,-0.144104
1725699631073,2024-09-07T09:00:31.073Z,32372,0.010986328,1.0194702,-0.17449951
1725699631116,2024-09-07T09:00:31.116Z,32415,0.037719727,1.0327148,-0.1730957
1725699631159,2024-09-07T09:00:31.159Z,32458,0.010498047,1.0089111,-0.14227295
1725699631209,2024-09-07T09:00:31.209Z,32508,0.022155762,1.0338745,-0.21240234
1725699631254,2024-09-07T09:00:31.254Z,32553,0.017028809,1.0065308,-0.12054443
1725699631295,2024-09-07T09:00:31.295Z,32594,0.007873535,1.0290527,-0.18829346
1725699631318,2024-09-07T09:00:31.318Z,32617,0.032226562,1.017456,-0.1552124
1725699631341,2024-09-07T09:00:31.341Z,32640,0.018249512,1.0126953,-0.14477539
1725699631384,2024-09-07T09:00:31.384Z,32683,0.008666992,1.0122681,-0.16308594
1725699631428,2024-09-07T09:00:31.428Z,32727,0.010864258,1.0113525,-0.16540527
1725699631474,2024-09-07T09:00:31.474Z,32773,0.035461426,1.0039062,-0.13739014
1725699631525,2024-09-07T09:00:31.525Z,32824,0.0045166016,1.0106201,-0.18707275
1725699631565,2024-09-07T09:00:31.565Z,32864,0.029663086,1.0111084,-0.15759277
1725699631608,2024-09-07T09:00:31.608Z,32907,0.013305664,1.0197144,-0.1652832
1725699631654,2024-09-07T09:00:31.654Z,32953,0.008178711,1.0161743,-0.16326904
1725699631698,2024-09-07T09:00:31.698Z,32997,0.009399414,1.0296631,-0.18005371
1725699631743,2024-09-07T09:00:31.743Z,33042,0.01739502,1.0210571,-0.16577148
1725699631765,2024-09-07T09:00:31.765Z,33064,0.0012207031,1.0083618,-0.15008545
1725699631788,2024-09-07T09:00:31.788Z,33087,0.002380371,1.0205078,-0.20214844
1725699631833,2024-09-07T09:00:31.833Z,33132,0.023498535,0.99713135,-0.15466309
1725699631881,2024-09-07T09:00:31.881Z,33180,-0.00982666,1.0598145,-0.21484375
1725699631923,2024-09-07T09:00:31.923Z,33222,0.030700684,1.0556641,-0.17590332
1725699631967,2024-09-07T09:00:31.967Z,33266,0.011657715,1.109436,-0.18634033
1725699632014,2024-09-07T09:00:32.014Z,33313,0.015563965,1.1433716,-0.19812012
1725699632060,2024-09-07T09:00:32.060Z,33359,0.010192871,1.125061,-0.175354
1725699632107,2024-09-07T09:00:32.107Z,33406,0.028076172,1.1481323,-0.18652344
1725699632149,2024-09-07T09:00:32.149Z,33448,0.036132812,1.1297607,-0.17175293
1725699632170,2024-09-07T09:00:32.170Z,33469,0.013305664,1.1182251,-0.15136719
1725699632191,2024-09-07T09:00:32.191Z,33490,0.056030273,1.1074829,-0.16699219
1725699632237,2024-09-07T09:00:32.237Z,33536,0.022033691,1.0761108,-0.105285645
1725699632284,2024-09-07T09:00:32.284Z,33583,0.032348633,1.1054688,-0.17230225
1725699632330,2024-09-07T09:00:32.330Z,33629,0.0075683594,1.0298462,-0.12823486
1725699632375,2024-09-07T09:00:32.375Z,33674,0.058654785,1.0648193,-0.111816406
1725699632418,2024-09-07T09:00:32.418Z,33717,0.021850586,0.9998169,-0.099609375
1725699632462,2024-09-07T09:00:32.462Z,33761,0.038513184,1.0299072,-0.13739014
1725699632509,2024-09-07T09:00:32.509Z,33808,0.012451172,0.9916992,-0.05731201
1725699632557,2024-09-07T09:00:32.557Z,33856,0.033935547,1.0193481,-0.1159668
1725699632581,2024-09-07T09:00:32.581Z,33880,0.060424805,0.9845581,-0.0048828125
1725699632604,2024-09-07T09:00:32.604Z,33903,0.022338867,0.96099854,-0.05987549
1725699632640,2024-09-07T09:00:32.640Z,33939,0.07446289,0.9942627,-0.048339844
1725699632693,2024-09-07T09:00:32.693Z,33992,0.026916504,0.9219971,0.033996582
1725699632732,2024-09-07T09:00:32.732Z,34031,0.016113281,0.9732666,-0.056396484
1725699632779,2024-09-07T09:00:32.779Z,34078,0.08343506,0.8956299,0.0881958
1725699632822,2024-09-07T09:00:32.822Z,34121,0.03881836,0.94641113,0.0024414062
1725699632866,2024-09-07T09:00:32.866Z,34165,0.060546875,0.87786865,0.11968994
1725699632911,2024-09-07T09:00:32.911Z,34210,0.051330566,0.9123535,0.009033203
1725699632960,2024-09-07T09:00:32.960Z,34259,0.08892822,0.8723755,0.15740967
1725699633006,2024-09-07T09:00:33.006Z,34305,0.058410645,0.9008789,0.08618164
1725699633031,2024-09-07T09:00:33.031Z,34330,0.06878662,0.8972168,0.14263916
1725699633050,2024-09-07T09:00:33.050Z,34349,0.057495117,0.9224243,0.10418701
1725699633090,2024-09-07T09:00:33.090Z,34389,0.064086914,0.94781494,0.17120361
1725699633138,2024-09-07T09:00:33.138Z,34437,0.04168701,0.92962646,0.19934082
1725699633184,2024-09-07T09:00:33.184Z,34483,0.10583496,0.93200684,0.237854
1725699633230,2024-09-07T09:00:33.230Z,34529,0.103759766,0.95806885,0.1706543
1725699633275,2024-09-07T09:00:33.275Z,34574,0.080566406,0.9937744,0.17303467
1725699633320,2024-09-07T09:00:33.320Z,34619,0.0925293,1.0241089,0.14282227
1725699633366,2024-09-07T09:00:33.366Z,34665,0.07800293,1.0343018,0.1829834
1725699633412,2024-09-07T09:00:33.412Z,34711,0.10333252,0.9974365,0.21313477
1725699633434,2024-09-07T09:00:33.434Z,34733,0.064453125,0.98461914,0.18127441
1725699633450,2024-09-07T09:00:33.450Z,34749,0.107543945,0.9567871,0.21612549
1725699633497,2024-09-07T09:00:33.497Z,34796,0.07678223,0.9511719,0.20269775
1725699633544,2024-09-07T09:00:33.544Z,34843,0.109436035,0.9729004,0.18188477
1725699633591,2024-09-07T09:00:33.591Z,34890,0.08654785,1.0068359,0.16137695
1725699633635,2024-09-07T09:00:33.635Z,34934,0.09313965,1.0048218,0.19335938
1725699633680,2024-09-07T09:00:33.680Z,34979,0.1015625,1.0246582,0.20501709
1725699633725,2024-09-07T09:00:33.725Z,35024,0.068237305,0.99261475,0.21166992
1725699633768,2024-09-07T09:00:33.768Z,35067,0.08050537,0.97735596,0.20715332
1725699633815,2024-09-07T09:00:33.815Z,35114,0.061035156,0.97839355,0.19921875
1725699633834,2024-09-07T09:00:33.834Z,35133,0.09088135,0.9821167,0.20892334
1725699633856,2024-09-07T09:00:33.856Z,35155,0.08148193,0.9894409,0.17736816
1725699633901,2024-09-07T09:00:33.901Z,35200,0.08239746,0.9893799,0.20031738
1725699633948,2024-09-07T09:00:33.948Z,35247,0.061828613,0.9879761,0.19189453
1725699633995,2024-09-07T09:00:33.995Z,35294,0.09820557,0.97784424,0.20214844
1725699634042,2024-09-07T09:00:34.042Z,35341,0.07824707,0.9838867,0.20806885
1725699634084,2024-09-07T09:00:34.084Z,35383,0.075683594,0.9649048,0.19354248
1725699634132,2024-09-07T09:00:34.132Z,35431,0.09942627,0.97662354,0.18713379
1725699634177,2024-09-07T09:00:34.177Z,35476,0.07775879,0.9812012,0.17266846
1725699634221,2024-09-07T09:00:34.221Z,35520,0.07800293,1.00177,0.1897583
1725699634264,2024-09-07T09:00:34.264Z,35563,0.11071777,0.991272,0.22772217
1725699634286,2024-09-07T09:00:34.286Z,35585,0.046875,0.99542236,0.16870117
1725699634308,2024-09-07T09:00:34.308Z,35607,0.09851074,1.0050659,0.23773193
1725699634352,2024-09-07T09:00:34.352Z,35651,0.04534912,0.99816895,0.15533447
1725699634399,2024-09-07T09:00:34.399Z,35698,0.10699463,0.9929199,0.21099854
1725699634446,2024-09-07T09:00:34.446Z,35745,0.06585693,0.9814453,0.15478516
1725699634490,2024-09-07T09:00:34.490Z,35789,0.06262207,0.9803467,0.1359253
1725699634537,2024-09-07T09:00:34.537Z,35836,0.062805176,0.97265625,0.1519165
1725699634580,2024-09-07T09:00:34.580Z,35879,0.08843994,0.9840088,0.14324951
1725699634623,2024-09-07T09:00:34.623Z,35922,0.045410156,0.97772217,0.12591553
1725699634672,2024-09-07T09:00:34.672Z,35971,0.07409668,0.9918823,0.14520264
1725699634692,2024-09-07T09:00:34.692Z,35991,0.06427002,0.9763794,0.11590576
1725699634711,2024-09-07T09:00:34.711Z,36010,0.057434082,0.9789429,0.08721924
1725699634754,2024-09-07T09:00:34.754Z,36053,0.062438965,0.9879761,0.085632324
1725699634806,2024-09-07T09:00:34.806Z,36105,0.033447266,0.99542236,0.044555664
1725699634850,2024-09-07T09:00:34.850Z,36149,0.051086426,1.0115356,0.06591797
1725699634897,2024-09-07T09:00:34.897Z,36196,0.059448242,1.0036621,0.0592041
1725699634941,2024-09-07T09:00:34.941Z,36240,0.01776123,0.9892578,0.043701172
1725699634986,2024-09-07T09:00:34.986Z,36285,0.058776855,1.0073242,0.05657959
1725699635030,2024-09-07T09:00:35.030Z,36329,0.044433594,0.98065186,0.041748047
1725699635079,2024-09-07T09:00:35.079Z,36378,0.05529785,1.0036621,0.04736328
1725699635102,2024-09-07T09:00:35.102Z,36401,0.014221191,0.9717407,-0.0024414062
1725699635118,2024-09-07T09:00:35.118Z,36417,0.002319336,0.9777832,-0.010070801
1725699635162,2024-09-07T09:00:35.162Z,36461,0.011413574,0.96661377,-0.027832031
1725699635209,2024-09-07T09:00:35.209Z,36508,0.04925537,0.96746826,-0.018920898
1725699635256,2024-09-07T09:00:35.256Z,36555,-0.014038086,0.9824829,-0.03881836
1725699635299,2024-09-07T09:00:35.299Z,36598,0.035888672,0.9824829,-0.024597168
1725699635344,2024-09-07T09:00:35.344Z,36643,0.042541504,0.9932251,-0.036376953
1725699635388,2024-09-07T09:00:35.388Z,36687,0.020141602,0.9970703,-0.036621094
1725699635436,2024-09-07T09:00:35.436Z,36735,0.0053100586,1.0128174,-0.084106445
1725699635484,2024-09-07T09:00:35.484Z,36783,-0.016601562,1.0325317,-0.095947266
1725699635506,2024-09-07T09:00:35.506Z,36805,-0.018371582,1.0253906,-0.068603516
1725699635523,2024-09-07T09:00:35.523Z,36822,0.031555176,1.0339355,-0.07128906
1725699635570,2024-09-07T09:00:35.570Z,36869,-0.010192871,1.0009766,-0.08496094
1725699635614,2024-09-07T09:00:35.614Z,36913,0.019348145,1.0247803,-0.09185791
1725699635659,2024-09-07T09:00:35.659Z,36958,0.013000488,0.9871826,-0.0657959
1725699635707,2024-09-07T09:00:35.707Z,37006,-0.0073242188,1.0092163,-0.123291016
1725699635753,2024-09-07T09:00:35.753Z,37052,0.026367188,0.99102783,-0.072509766
1725699635794,2024-09-07T09:00:35.794Z,37093,0.0017089844,1.020935,-0.1239624
1725699635835,2024-09-07T09:00:35.835Z,37134,-0.0032958984,1.0090942,-0.10046387
1725699635884,2024-09-07T09:00:35.884Z,37183,0.014099121,1.0383301,-0.13983154
1725699635930,2024-09-07T09:00:35.930Z,37229,-0.027160645,1.0119019,-0.121276855
1725699635950,2024-09-07T09:00:35.950Z,37249,0.011047363,1.0341797,-0.15808105
1725699635970,2024-09-07T09:00:35.970Z,37269,-0.00970459,1.0010376,-0.113220215
1725699636022,2024-09-07T09:00:36.022Z,37321,-0.038208008,1.012085,-0.19805908
1725699636064,2024-09-07T09:00:36.064Z,37363,0.047546387,0.9857178,-0.12158203
1725699636112,2024-09-07T09:00:36.112Z,37411,-0.0013427734,1.0048828,-0.17572021
1725699636200,2024-09-07T09:00:36.200Z,37499,-0.007751465,1.0042114,-0.16003418
1725699636227,2024-09-07T09:00:36.227Z,37526,-0.04711914,1.0172119,-0.18579102
1725699636247,2024-09-07T09:00:36.247Z,37546,0.038513184,1.0033569,-0.17889404
1725699636292,2024-09-07T09:00:36.292Z,37591,0.028320312,0.9990845,-0.14294434
1725699636337,2024-09-07T09:00:36.337Z,37636,0.04663086,1.0042114,-0.16705322
1725699636361,2024-09-07T09:00:36.361Z,37660,-0.018981934,1.0028076,-0.18572998
1725699636381,2024-09-07T09:00:36.381Z,37680,0.004760742,1.0194702,-0.19030762
1725699636427,2024-09-07T09:00:36.427Z,37726,0.029541016,1.02594,-0.17358398
1725699636468,2024-09-07T09:00:36.468Z,37767,0.047790527,1.0129395,-0.13928223
1725699636517,2024-09-07T09:00:36.517Z,37816,0.008117676,1.0159912,-0.17633057
1725699636555,2024-09-07T09:00:36.555Z,37854,0.035217285,1.0276489,-0.159729
1725699636604,2024-09-07T09:00:36.604Z,37903,-0.015136719,1.017456,-0.22467041
1725699636651,2024-09-07T09:00:36.651Z,37950,0.06323242,1.0270996,-0.13531494
1725699636692,2024-09-07T09:00:36.692Z,37991,-0.02130127,1.0061646,-0.17785645
1725699636741,2024-09-07T09:00:36.741Z,38040,0.03668213,1.0290527,-0.21307373
1725699636764,2024-09-07T09:00:36.764Z,38063,0.013793945,1.001831,-0.13439941
1725699636783,2024-09-07T09:00:36.783Z,38082,0.008422852,1.0119019,-0.1998291
1725699636827,2024-09-07T09:00:36.827Z,38126,0.039245605,1.027771,-0.18041992
1725699636875,2024-09-07T09:00:36.875Z,38174,0.012756348,1.0264282,-0.16571045
1725699636920,2024-09-07T09:00:36.920Z,38219,0.04058838,1.0322876,-0.20306396
1725699636962,2024-09-07T09:00:36.962Z,38261,0.006652832,1.0404663,-0.18475342
1725699637010,2024-09-07T09:00:37.010Z,38309,0.045837402,1.0341187,-0.20977783
1725699637053,2024-09-07T09:00:37.053Z,38352,-0.010253906,1.0394287,-0.19885254
1725699637099,2024-09-07T09:00:37.099Z,38398,0.040649414,1.0374146,-0.18292236
1725699637146,2024-09-07T09:00:37.146Z,38445,-0.009887695,1.0144043,-0.20788574
1725699637192,2024-09-07T09:00:37.192Z,38491,0.02545166,1.0332031,-0.19750977
1725699637216,2024-09-07T09:00:37.216Z,38515,-0.012207031,1.019165,-0.18804932
1725699637240,2024-09-07T09:00:37.240Z,38539,0.0038452148,1.0456543,-0.23620605
1725699637277,2024-09-07T09:00:37.277Z,38576,-2.4414062E-4,1.0321655,-0.17053223
1725699637335,2024-09-07T09:00:37.335Z,38634,0.008361816,1.0810547,-0.23913574
1725699637369,2024-09-07T09:00:37.369Z,38668,0.028381348,1.0831909,-0.13873291
1725699637414,2024-09-07T09:00:37.414Z,38713,1.2207031E-4,1.1412354,-0.2487793
1725699637460,2024-09-07T09:00:37.460Z,38759,0.041992188,1.1365356,-0.15356445
1725699637503,2024-09-07T09:00:37.503Z,38802,0.01776123,1.1456909,-0.2189331
1725699637550,2024-09-07T09:00:37.550Z,38849,0.042785645,1.1097412,-0.1381836
1725699637595,2024-09-07T09:00:37.595Z,38894,0.043029785,1.1246338,-0.14990234
1725699637617,2024-09-07T09:00:37.617Z,38916,0.028503418,1.0963135,-0.15930176
1725699637642,2024-09-07T09:00:37.642Z,38941,0.033203125,1.0897217,-0.15496826
1725699637683,2024-09-07T09:00:37.683Z,38982,0.032226562,1.0449219,-0.11254883
1725699637728,2024-09-07T09:00:37.728Z,39027,0.028381348,1.0367432,-0.12652588
1725699637777,2024-09-07T09:00:37.777Z,39076,0.03692627,1.0377197,-0.13256836
1725699637821,2024-09-07T09:00:37.821Z,39120,0.046447754,1.0048828,-0.036315918
1725699637864,2024-09-07T09:00:37.864Z,39163,0.015380859,1.0497437,-0.14654541
1725699637909,2024-09-07T09:00:37.909Z,39208,0.08581543,1.0128784,0.008361816
1725699637954,2024-09-07T09:00:37.954Z,39253,-0.0040893555,1.0292358,-0.13964844
1725699637999,2024-09-07T09:00:37.999Z,39298,0.075683594,0.97247314,0.047973633
1725699638016,2024-09-07T09:00:38.016Z,39315,0.03149414,0.9783325,-0.08892822
1725699638040,2024-09-07T09:00:38.040Z,39339,0.059814453,0.92352295,0.07006836
1725699638087,2024-09-07T09:00:38.087Z,39386,0.045959473,0.9393921,-0.03942871
1725699638133,2024-09-07T09:00:38.133Z,39432,0.049316406,0.8944092,0.069885254
1725699638178,2024-09-07T09:00:38.178Z,39477,0.079956055,0.8968506,0.06689453
1725699638227,2024-09-07T09:00:38.227Z,39526,0.04083252,0.89782715,0.045715332
1725699638268,2024-09-07T09:00:38.268Z,39567,0.049865723,0.8843994,0.09277344
1725699638317,2024-09-07T09:00:38.317Z,39616,0.0736084,0.8865967,0.11932373
1725699638361,2024-09-07T09:00:38.361Z,39660,0.11468506,0.9016113,0.10028076
1725699638406,2024-09-07T09:00:38.406Z,39705,0.09259033,0.91412354,0.17321777
1725699638451,2024-09-07T09:00:38.451Z,39750,0.1027832,0.91503906,0.12524414
1725699638474,2024-09-07T09:00:38.474Z,39773,0.119262695,0.95562744,0.1506958
1725699638493,2024-09-07T09:00:38.493Z,39792,0.10205078,0.9329834,0.13684082
1725699638539,2024-09-07T09:00:38.539Z,39838,0.11730957,0.94940186,0.16369629
1725699638588,2024-09-07T09:00:38.588Z,39887,0.11010742,0.93859863,0.20440674
1725699638632,2024-09-07T09:00:38.632Z,39931,0.10430908,0.942688,0.24798584
1725699638676,2024-09-07T09:00:38.676Z,39975,0.057556152,0.975708,0.19787598
1725699638720,2024-09-07T09:00:38.720Z,40019,0.14605713,0.96325684,0.29101562
1725699638765,2024-09-07T09:00:38.765Z,40064,0.09313965,0.98876953,0.16546631
1725699638811,2024-09-07T09:00:38.811Z,40110,0.12554932,0.9683838,0.20922852
1725699638856,2024-09-07T09:00:38.856Z,40155,0.10638428,0.9798584,0.17541504
1725699638879,2024-09-07T09:00:38.879Z,40178,0.14562988,0.98101807,0.23516846
1725699638900,2024-09-07T09:00:38.900Z,40199,0.09338379,0.98999023,0.22424316
1725699638942,2024-09-07T09:00:38.942Z,40241,0.09649658,0.98724365,0.2581787
1725699638992,2024-09-07T09:00:38.992Z,40291,0.10418701,1.0041504,0.24560547
1725699639033,2024-09-07T09:00:39.033Z,40332,0.1227417,0.9764404,0.22888184
1725699639080,2024-09-07T09:00:39.080Z,40379,0.07885742,1.0202026,0.17633057
1725699639125,2024-09-07T09:00:39.125Z,40424,0.12982178,0.9904175,0.22784424
1725699639171,2024-09-07T09:00:39.171Z,40470,0.099731445,0.98168945,0.20367432
1725699639216,2024-09-07T09:00:39.216Z,40515,0.08959961,0.96435547,0.21929932
1725699639262,2024-09-07T09:00:39.262Z,40561,0.09399414,0.96276855,0.22332764
1725699639286,2024-09-07T09:00:39.286Z,40585,0.09667969,0.9763794,0.2290039
1725699639310,2024-09-07T09:00:39.310Z,40609,0.10882568,0.9708252,0.21270752
1725699639348,2024-09-07T09:00:39.348Z,40647,0.084350586,0.996521,0.1651001
1725699639397,2024-09-07T09:00:39.397Z,40696,0.1194458,0.98046875,0.23706055
1725699639439,2024-09-07T09:00:39.439Z,40738,0.0826416,0.98358154,0.18847656
1725699639485,2024-09-07T09:00:39.485Z,40784,0.09161377,0.9674072,0.21118164
1725699639532,2024-09-07T09:00:39.532Z,40831,0.09564209,0.9737549,0.19848633
1725699639576,2024-09-07T09:00:39.576Z,40875,0.090026855,0.9711304,0.21453857
1725699639621,2024-09-07T09:00:39.621Z,40920,0.08868408,0.9857788,0.16571045
1725699639666,2024-09-07T09:00:39.666Z,40965,0.09875488,0.9928589,0.19036865
1725699639713,2024-09-07T09:00:39.713Z,41012,0.08343506,0.99224854,0.16339111
1725699639736,2024-09-07T09:00:39.736Z,41035,0.111450195,0.9866333,0.16241455
1725699639752,2024-09-07T09:00:39.752Z,41051,0.074035645,0.97821045,0.13891602
1725699639795,2024-09-07T09:00:39.795Z,41094,0.080566406,0.9822998,0.14013672
1725699639847,2024-09-07T09:00:39.847Z,41146,0.071777344,0.9918213,0.14312744
1725699639893,2024-09-07T09:00:39.893Z,41192,0.0670166,0.9996948,0.1404419
1725699639938,2024-09-07T09:00:39.938Z,41237,0.06793213,1.0030518,0.103637695
1725699639981,2024-09-07T09:00:39.981Z,41280,0.070007324,0.99005127,0.14935303
1725699640025,2024-09-07T09:00:40.025Z,41324,0.0703125,0.9807129,0.09515381
1725699640070,2024-09-07T09:00:40.070Z,41369,0.07196045,1.0012817,0.10217285
1725699640118,2024-09-07T09:00:40.118Z,41417,0.06951904,0.99591064,0.09954834
1725699640144,2024-09-07T09:00:40.144Z,41443,0.043823242,1.0125732,0.05041504
1725699640165,2024-09-07T09:00:40.165Z,41464,0.06536865,0.99365234,0.097717285
1725699640208,2024-09-07T09:00:40.208Z,41507,0.026428223,0.9956665,0.057006836
1725699640249,2024-09-07T09:00:40.249Z,41548,0.050964355,0.98602295,0.059814453
1725699640295,2024-09-07T09:00:40.295Z,41594,0.014709473,0.9938965,0.0021362305
1725699640344,2024-09-07T09:00:40.344Z,41643,0.053100586,0.9908447,0.06817627
1725699640387,2024-09-07T09:00:40.387Z,41686,0.008361816,0.99420166,0.009765625
1725699640433,2024-09-07T09:00:40.433Z,41732,0.0211792,0.98553467,0.0051879883
1725699640477,2024-09-07T09:00:40.477Z,41776,0.047912598,0.9717407,0.028930664
1725699640521,2024-09-07T09:00:40.521Z,41820,0.029052734,0.9835205,-0.012084961
1725699640544,2024-09-07T09:00:40.544Z,41843,0.0076904297,0.9911499,-0.015380859
1725699640566,2024-09-07T09:00:40.566Z,41865,0.036743164,1.0286865,-0.0234375
1725699640610,2024-09-07T09:00:40.610Z,41909,0.020324707,1.0164185,-0.0044555664
1725699640659,2024-09-07T09:00:40.659Z,41958,0.0015258789,1.0149536,-0.03265381
1725699640699,2024-09-07T09:00:40.699Z,41998,0.017944336,1.0009766,-0.038024902
1725699640743,2024-09-07T09:00:40.743Z,42042,0.016967773,0.9862671,-0.04437256
1725699640789,2024-09-07T09:00:40.789Z,42088,0.026489258,1.0030518,-0.042175293
1725699640835,2024-09-07T09:00:40.835Z,42134,0.0138549805,1.0141602,-0.0368042
1725699640883,2024-09-07T09:00:40.883Z,42182,0.026855469,1.0079956,-0.04638672
1725699640926,2024-09-07T09:00:40.926Z,42225,0.006164551,1.0126953,-0.05718994
1725699640968,2024-09-07T09:00:40.968Z,42267,0.055664062,1.0155029,-0.05126953
1725699640987,2024-09-07T09:00:40.987Z,42286,0.014343262,0.99102783,-0.05908203
1725699641010,2024-09-07T09:00:41.010Z,42309,0.031433105,1.0163574,-0.052490234
1725699641059,2024-09-07T09:00:41.059Z,42358,0.02746582,0.9939575,-0.04925537
1725699641104,2024-09-07T09:00:41.104Z,42403,-0.0076293945,1.001709,-0.09246826
1725699641151,2024-09-07T09:00:41.151Z,42450,0.047668457,0.98913574,-0.053100586
1725699641196,2024-09-07T09:00:41.196Z,42495,0.002319336,0.9972534,-0.11975098
1725699641241,2024-09-07T09:00:41.241Z,42540,-0.0015869141,0.9935913,-0.07373047
1725699641284,2024-09-07T09:00:41.284Z,42583,0.053894043,1.0266113,-0.12713623
1725699641330,2024-09-07T09:00:41.330Z,42629,-0.004333496,1.0010376,-0.10443115
1725699641418,2024-09-07T09:00:41.418Z,42717,0.014953613,1.0142822,-0.09753418
1725699641440,2024-09-07T09:00:41.440Z,42739,0.024719238,1.0059204,-0.14099121
1725699641459,2024-09-07T09:00:41.459Z,42758,0.033203125,1.0065308,-0.122680664
1725699641471,2024-09-07T09:00:41.471Z,42770,0.0036010742,1.0161133,-0.1293335
1725699641506,2024-09-07T09:00:41.506Z,42805,0.028137207,1.0349731,-0.1270752
1725699641555,2024-09-07T09:00:41.555Z,42854,0.0048217773,1.0251465,-0.15704346
1725699641600,2024-09-07T09:00:41.600Z,42899,0.050231934,1.0318604,-0.119506836
1725699641647,2024-09-07T09:00:41.647Z,42946,-0.005065918,1.0205078,-0.15789795
1725699641687,2024-09-07T09:00:41.687Z,42986,0.027832031,1.0166016,-0.11590576
1725699641734,2024-09-07T09:00:41.734Z,43033,0.05657959,1.0241699,-0.14001465
1725699641782,2024-09-07T09:00:41.782Z,43081,0.0045166016,1.0092163,-0.14404297
1725699641803,2024-09-07T09:00:41.803Z,43102,0.021057129,1.0413208,-0.16064453
1725699641821,2024-09-07T09:00:41.821Z,43120,0.02758789,1.012085,-0.119018555
1725699641869,2024-09-07T09:00:41.869Z,43168,0.026672363,1.0072021,-0.17675781
1725699641916,2024-09-07T09:00:41.916Z,43215,0.014404297,1.0128174,-0.16070557
1725699641960,2024-09-07T09:00:41.960Z,43259,0.01361084,1.0089111,-0.14172363
1725699642005,2024-09-07T09:00:42.005Z,43304,0.02545166,1.0075073,-0.17382812
1725699642051,2024-09-07T09:00:42.051Z,43350,0.026428223,1.0202026,-0.16955566
1725699642096,2024-09-07T09:00:42.096Z,43395,0.00390625,1.0090942,-0.1404419
1725699642142,2024-09-07T09:00:42.142Z,43441,1.2207031E-4,1.0186768,-0.18457031
1725699642185,2024-09-07T09:00:42.185Z,43484,0.040100098,1.0303345,-0.13909912
1725699642231,2024-09-07T09:00:42.231Z,43530,-0.0076293945,1.0249023,-0.16790771
1725699642250,2024-09-07T09:00:42.250Z,43549,-0.012878418,1.0507202,-0.18359375
1725699642272,2024-09-07T09:00:42.272Z,43571,0.011291504,1.039978,-0.16662598
1725699642326,2024-09-07T09:00:42.326Z,43625,0.0119018555,1.0293579,-0.15966797
1725699642362,2024-09-07T09:00:42.362Z,43661,-0.015075684,1.0489502,-0.18658447
1725699642406,2024-09-07T09:00:42.406Z,43705,-0.0052490234,1.0300903,-0.15911865
1725699642457,2024-09-07T09:00:42.457Z,43756,0.016113281,1.0483398,-0.16021729
1725699642498,2024-09-07T09:00:42.498Z,43797,0.010314941,1.0236816,-0.16156006
1725699642547,2024-09-07T09:00:42.547Z,43846,-5.493164E-4,1.0679321,-0.21539307
1725699642590,2024-09-07T09:00:42.590Z,43889,0.01184082,1.0601807,-0.15789795
1725699642637,2024-09-07T09:00:42.637Z,43936,-0.0038452148,1.088501,-0.20031738
1725699642655,2024-09-07T09:00:42.655Z,43954,0.041503906,1.1088867,-0.14764404
1725699642676,2024-09-07T09:00:42.676Z,43975,0.043701172,1.1479492,-0.23400879
1725699642722,2024-09-07T09:00:42.722Z,44021,0.0010986328,1.1429443,-0.1642456
1725699642769,2024-09-07T09:00:42.769Z,44068,0.04711914,1.1421509,-0.16101074
1725699642815,2024-09-07T09:00:42.815Z,44114,0.01184082,1.1641235,-0.19189453
1725699642860,2024-09-07T09:00:42.860Z,44159,0.0119018555,1.1280518,-0.16418457
1725699642907,2024-09-07T09:00:42.907Z,44206,0.040893555,1.1046143,-0.13647461
1725699642949,2024-09-07T09:00:42.949Z,44248,0.024597168,1.1033325,-0.11029053
1725699642994,2024-09-07T09:00:42.994Z,44293,-0.0038452148,1.0569458,-0.11468506
1725699643040,2024-09-07T09:00:43.040Z,44339,0.037902832,1.0797119,-0.1184082
1725699643060,2024-09-07T09:00:43.060Z,44359,0.01965332,0.98669434,-0.016479492
1725699643084,2024-09-07T09:00:43.084Z,44383,0.06439209,1.0222778,-0.10498047
1725699643129,2024-09-07T09:00:43.129Z,44428,0.009277344,0.9650879,-0.033935547
1725699643174,2024-09-07T09:00:43.174Z,44473,0.04083252,0.98254395,0.004272461
1725699643218,2024-09-07T09:00:43.218Z,44517,0.06750488,0.98065186,-0.04534912
1725699643267,2024-09-07T09:00:43.267Z,44566,0.047302246,0.9894409,-0.031311035
1725699643310,2024-09-07T09:00:43.310Z,44609,0.04534912,0.9581299,0.026672363
1725699643357,2024-09-07T09:00:43.357Z,44656,0.032104492,0.9803467,-0.0134887695
1725699643398,2024-09-07T09:00:43.398Z,44697,0.053649902,0.94036865,0.06970215
1725699643445,2024-09-07T09:00:43.445Z,44744,0.010986328,0.9425049,-0.025146484
1725699643490,2024-09-07T09:00:43.490Z,44789,0.043029785,0.9140625,0.11993408
1725699643511,2024-09-07T09:00:43.511Z,44810,0.061157227,0.89593506,0.055236816
1725699643532,2024-09-07T09:00:43.532Z,44831,0.032836914,0.86828613,0.10028076
1725699643579,2024-09-07T09:00:43.579Z,44878,0.066589355,0.8621826,0.1071167
1725699643624,2024-09-07T09:00:43.624Z,44923,0.09716797,0.8632202,0.15539551
1725699643670,2024-09-07T09:00:43.670Z,44969,0.095825195,0.86279297,0.17382812
1725699643713,2024-09-07T09:00:43.713Z,45012,0.11419678,0.8624878,0.19348145
1725699643760,2024-09-07T09:00:43.760Z,45059,0.055236816,0.9137573,0.1673584
1725699643807,2024-09-07T09:00:43.807Z,45106,0.116760254,0.9394531,0.30999756
1725699643854,2024-09-07T09:00:43.854Z,45153,0.09082031,0.9985962,0.18231201
1725699643897,2024-09-07T09:00:43.897Z,45196,0.1560669,0.9508667,0.2564087
1725699643923,2024-09-07T09:00:43.923Z,45222,0.13531494,1.0092773,0.18756104
1725699643944,2024-09-07T09:00:43.944Z,45243,0.11328125,0.9990845,0.18695068
1725699643983,2024-09-07T09:00:43.983Z,45282,0.10296631,1.0061035,0.18609619
1725699644028,2024-09-07T09:00:44.028Z,45327,0.08050537,0.96875,0.26794434
1725699644074,2024-09-07T09:00:44.074Z,45373,0.086242676,0.93408203,0.26861572
1725699644119,2024-09-07T09:00:44.119Z,45418,0.13360596,0.9315796,0.2489624
1725699644166,2024-09-07T09:00:44.166Z,45465,0.12506104,0.9390869,0.23156738
1725699644210,2024-09-07T09:00:44.210Z,45509,0.16296387,1.0064697,0.20062256
1725699644254,2024-09-07T09:00:44.254Z,45553,0.12695312,1.0128784,0.2819214
1725699644302,2024-09-07T09:00:44.302Z,45601,0.08972168,1.0142212,0.18914795
1725699644325,2024-09-07T09:00:44.325Z,45624,0.16723633,0.97216797,0.27178955
1725699644347,2024-09-07T09:00:44.347Z,45646,0.13092041,0.9691162,0.16186523
1725699644388,2024-09-07T09:00:44.388Z,45687,0.13287354,0.96990967,0.23809814
1725699644436,2024-09-07T09:00:44.436Z,45735,0.07574463,1.0171509,0.18865967
1725699644479,2024-09-07T09:00:44.479Z,45778,0.10644531,1.0115356,0.26391602
1725699644528,2024-09-07T09:00:44.528Z,45827,0.08526611,1.0040894,0.1850586
1725699644570,2024-09-07T09:00:44.570Z,45869,0.12072754,0.9627075,0.2333374
1725699644612,2024-09-07T09:00:44.612Z,45911,0.079589844,0.9472046,0.19592285
1725699644677,2024-09-07T09:00:44.677Z,45976,0.087890625,0.9647217,0.18688965
1725699644701,2024-09-07T09:00:44.701Z,46000,0.12194824,0.96362305,0.27331543
1725699644748,2024-09-07T09:00:44.748Z,46047,0.0637207,0.99316406,0.15386963
1725699644765,2024-09-07T09:00:44.765Z,46064,0.091796875,0.9864502,0.18127441
1725699644793,2024-09-07T09:00:44.793Z,46092,0.072509766,0.9970093,0.13342285
1725699644838,2024-09-07T09:00:44.838Z,46137,0.10522461,0.9767456,0.17510986
1725699644886,2024-09-07T09:00:44.886Z,46185,0.07080078,0.98913574,0.1293335
1725699644933,2024-09-07T09:00:44.933Z,46232,0.10028076,0.9874878,0.16326904
1725699644979,2024-09-07T09:00:44.979Z,46278,0.05999756,0.98254395,0.085998535
1725699645021,2024-09-07T09:00:45.021Z,46320,0.113464355,0.98706055,0.18133545
1725699645065,2024-09-07T09:00:45.065Z,46364,0.052246094,0.9924927,0.08227539
1725699645112,2024-09-07T09:00:45.112Z,46411,0.07281494,0.9890137,0.10882568
1725699645156,2024-09-07T09:00:45.156Z,46455,0.0881958,1.0019531,0.1083374
1725699645177,2024-09-07T09:00:45.177Z,46476,0.052978516,0.9989624,0.040649414
1725699645199,2024-09-07T09:00:45.199Z,46498,0.07537842,0.9779663,0.11651611
1725699645245,2024-09-07T09:00:45.245Z,46544,0.047912598,0.982666,0.02947998
1725699645295,2024-09-07T09:00:45.295Z,46594,0.07196045,0.95751953,0.036987305
1725699645334,2024-09-07T09:00:45.334Z,46633,0.07006836,0.9640503,0.084228516
1725699645382,2024-09-07T09:00:45.382Z,46681,0.015808105,0.9866333,-0.018676758
1725699645424,2024-09-07T09:00:45.424Z,46723,0.0413208,0.9876709,0.04840088
1725699645471,2024-09-07T09:00:45.471Z,46770,0.040405273,1.0024414,-0.029724121
1725699645514,2024-09-07T09:00:45.514Z,46813,0.0178833,1.0189209,-0.011474609
1725699645561,2024-09-07T09:00:45.561Z,46860,0.014160156,1.022644,0.002380371
1725699645582,2024-09-07T09:00:45.582Z,46881,0.055725098,1.020752,0.004211426
1725699645605,2024-09-07T09:00:45.605Z,46904,0.017456055,1.0112915,-0.03314209
1725699645649,2024-09-07T09:00:45.649Z,46948,0.046325684,1.0130615,-0.0051879883
1725699645695,2024-09-07T09:00:45.695Z,46994,0.004760742,1.0098267,-0.057128906
1725699645741,2024-09-07T09:00:45.741Z,47040,0.037963867,0.9994507,-0.004760742
1725699645788,2024-09-07T09:00:45.788Z,47087,0.017211914,1.0206909,-0.044189453
1725699645833,2024-09-07T09:00:45.833Z,47132,0.049438477,0.99432373,-0.016418457
1725699645881,2024-09-07T09:00:45.881Z,47180,0.0048217773,1.0183716,-0.09802246
1725699645921,2024-09-07T09:00:45.921Z,47220,0.036254883,1.0040283,-0.01574707
1725699645966,2024-09-07T09:00:45.966Z,47265,0.026672363,0.9828491,-0.074401855
1725699646009,2024-09-07T09:00:46.009Z,47308,0.010375977,0.9847412,-0.034973145
1725699646029,2024-09-07T09:00:46.029Z,47328,0.032104492,0.9812622,-0.062316895
1725699646054,2024-09-07T09:00:46.054Z,47353,0.02368164,0.9893799,-0.08721924
1725699646098,2024-09-07T09:00:46.098Z,47397,-0.008117676,0.9959717,-0.040771484
1725699646145,2024-09-07T09:00:46.145Z,47444,0.03466797,1.0143433,-0.06890869
1725699646192,2024-09-07T09:00:46.192Z,47491,-0.017211914,1.0115967,-0.1262207
1725699646233,2024-09-07T09:00:46.233Z,47532,0.043518066,1.0274048,-0.06866455
1725699646285,2024-09-07T09:00:46.285Z,47584,0.028930664,1.0096436,-0.06286621
1725699646324,2024-09-07T09:00:46.324Z,47623,-0.01373291,1.0117798,-0.12420654
1725699646367,2024-09-07T09:00:46.367Z,47666,0.018310547,1.0046997,-0.101257324
1725699646412,2024-09-07T09:00:46.412Z,47711,0.046203613,1.0007324,-0.08911133
1725699646430,2024-09-07T09:00:46.430Z,47729,0.006225586,1.0029297,-0.14276123
1725699646457,2024-09-07T09:00:46.457Z,47756,0.04473877,1.0320435,-0.07537842
1725699646505,2024-09-07T09:00:46.505Z,47804,-0.0037841797,1.0215454,-0.15814209
1725699646550,2024-09-07T09:00:46.550Z,47849,-0.0060424805,1.057251,-0.1381836
1725699646597,2024-09-07T09:00:46.597Z,47896,-0.01928711,1.0339355,-0.17608643
1725699646642,2024-09-07T09:00:46.642Z,47941,0.034729004,1.0439453,-0.10827637
1725699646686,2024-09-07T09:00:46.686Z,47985,0.012268066,1.0513916,-0.1383667
1725699646733,2024-09-07T09:00:46.733Z,48032,-0.02142334,1.0358887,-0.15203857
1725699646776,2024-09-07T09:00:46.776Z,48075,-0.012878418,1.0316772,-0.13519287
1725699646823,2024-09-07T09:00:46.823Z,48122,0.011657715,1.0354614,-0.15368652
1725699646844,2024-09-07T09:00:46.844Z,48143,-0.005493164,1.0217896,-0.13293457
1725699646865,2024-09-07T09:00:46.865Z,48164,-0.007751465,1.0380249,-0.1427002
1725699646907,2024-09-07T09:00:46.907Z,48206,-0.0045166016,1.0116577,-0.13201904
1725699646952,2024-09-07T09:00:46.952Z,48251,0.008178711,1.0125122,-0.1574707
1725699647003,2024-09-07T09:00:47.003Z,48302,-4.272461E-4,1.012207,-0.11968994
1725699647044,2024-09-07T09:00:47.044Z,48343,-0.008911133,1.02771,-0.16021729
1725699647089,2024-09-07T09:00:47.089Z,48388,0.01373291,1.0352173,-0.12194824
1725699647137,2024-09-07T09:00:47.137Z,48436,0.001159668,1.0447388,-0.159729
1725699647181,2024-09-07T09:00:47.181Z,48480,-0.011108398,1.0325317,-0.15270996
1725699647229,2024-09-07T09:00:47.229Z,48528,-0.004699707,1.062561,-0.16033936
1725699647268,2024-09-07T09:00:47.268Z,48567,-0.0075683594,1.0394897,-0.13824463
1725699647288,2024-09-07T09:00:47.288Z,48587,-0.020446777,1.0361938,-0.16320801
1725699647314,2024-09-07T09:00:47.314Z,48613,-0.00982666,1.0263672,-0.15203857
1725699647360,2024-09-07T09:00:47.360Z,48659,-0.0038452148,1.0244141,-0.14764404
1725699647403,2024-09-07T09:00:47.403Z,48702,-0.043762207,1.0193481,-0.18969727
1725699647452,2024-09-07T09:00:47.452Z,48751,0.015808105,1.0407104,-0.1418457
1725699647496,2024-09-07T09:00:47.496Z,48795,0.016967773,1.0838013,-0.21044922
1725699647540,2024-09-07T09:00:47.540Z,48839,-0.039794922,1.1390381,-0.18792725
1725699647584,2024-09-07T09:00:47.584Z,48883,0.039123535,1.1921997,-0.16119385
1725699647633,2024-09-07T09:00:47.633Z,48932,-0.009460449,1.170105,-0.21697998
1725699647673,2024-09-07T09:00:47.673Z,48972,-0.019714355,1.1628418,-0.18725586
1725699647692,2024-09-07T09:00:47.692Z,48991,0.026306152,1.1364746,-0.16906738
1725699647715,2024-09-07T09:00:47.715Z,49014,0.0025024414,1.1331177,-0.16259766
1725699647764,2024-09-07T09:00:47.764Z,49063,0.0017089844,1.0939331,-0.15441895
1725699647813,2024-09-07T09:00:47.813Z,49112,0.03100586,1.1222534,-0.17010498
1725699647856,2024-09-07T09:00:47.856Z,49155,-0.0063476562,1.069519,-0.119140625
1725699647902,2024-09-07T09:00:47.902Z,49201,0.021057129,1.0879517,-0.12237549
1725699647945,2024-09-07T09:00:47.945Z,49244,-0.009643555,1.0167847,-0.075805664
1725699647991,2024-09-07T09:00:47.991Z,49290,0.026794434,1.0311279,-0.11425781
1725699648036,2024-09-07T09:00:48.036Z,49335,0.03186035,1.003479,-0.044128418
1725699648083,2024-09-07T09:00:48.083Z,49382,0.01586914,0.9984131,-0.087768555
1725699648103,2024-09-07T09:00:48.103Z,49402,0.044677734,0.97442627,-0.0044555664
1725699648127,2024-09-07T09:00:48.127Z,49426,0.062072754,0.98083496,-0.061279297
1725699648167,2024-09-07T09:00:48.167Z,49466,0.025939941,0.93078613,0.03778076
1725699648214,2024-09-07T09:00:48.214Z,49513,0.035583496,0.9696655,-0.064331055
1725699648260,2024-09-07T09:00:48.260Z,49559,0.056518555,0.9220581,0.059936523
1725699648302,2024-09-07T09:00:48.302Z,49601,0.051635742,0.9495239,0.00982666
1725699648353,2024-09-07T09:00:48.353Z,49652,0.012512207,0.8795166,0.06427002
1725699648395,2024-09-07T09:00:48.395Z,49694,0.046875,0.9227905,0.09088135
1725699648437,2024-09-07T09:00:48.437Z,49736,0.018249512,0.8718872,0.05279541
1725699648481,2024-09-07T09:00:48.481Z,49780,0.07373047,0.88500977,0.1519165
1725699648528,2024-09-07T09:00:48.528Z,49827,0.046325684,0.9026489,0.08660889
1725699648544,2024-09-07T09:00:48.544Z,49843,0.09674072,0.9130249,0.16320801
1725699648570,2024-09-07T09:00:48.570Z,49869,0.059387207,0.92889404,0.15148926
1725699648617,2024-09-07T09:00:48.617Z,49916,0.08898926,0.93969727,0.22784424
1725699648665,2024-09-07T09:00:48.665Z,49964,0.054138184,0.9268799,0.19036865
1725699648713,2024-09-07T09:00:48.713Z,50012,0.095214844,0.93847656,0.22814941
1725699648756,2024-09-07T09:00:48.756Z,50055,0.059265137,0.93896484,0.18743896
1725699648801,2024-09-07T09:00:48.801Z,50100,0.06982422,0.9666748,0.1739502
1725699648846,2024-09-07T09:00:48.846Z,50145,0.11047363,0.979126,0.13977051
1725699648888,2024-09-07T09:00:48.888Z,50187,0.111328125,1.0073242,0.16937256
1725699648936,2024-09-07T09:00:48.936Z,50235,0.12036133,1.0015259,0.15393066
1725699648956,2024-09-07T09:00:48.956Z,50255,0.12060547,0.9614258,0.23443604
1725699648978,2024-09-07T09:00:48.978Z,50277,0.09753418,0.9493408,0.20202637
1725699649024,2024-09-07T09:00:49.024Z,50323,0.11682129,0.94592285,0.27423096
1725699649068,2024-09-07T09:00:49.068Z,50367,0.08270264,0.99035645,0.20983887
1725699649121,2024-09-07T09:00:49.121Z,50420,0.12231445,0.99645996,0.28015137
1725699649159,2024-09-07T09:00:49.159Z,50458,0.09753418,1.0210571,0.19976807
1725699649204,2024-09-07T09:00:49.204Z,50503,0.11590576,0.98931885,0.22692871
1725699649252,2024-09-07T09:00:49.252Z,50551,0.10626221,1.0018921,0.18005371
1725699649296,2024-09-07T09:00:49.296Z,50595,0.106933594,0.97473145,0.25823975
1725699649339,2024-09-07T09:00:49.339Z,50638,0.06628418,1.0124512,0.16564941
1725699649358,2024-09-07T09:00:49.358Z,50657,0.11480713,0.9852905,0.28259277
1725699649383,2024-09-07T09:00:49.383Z,50682,0.07550049,0.9991455,0.15118408
1725699649429,2024-09-07T09:00:49.429Z,50728,0.11663818,0.96533203,0.20855713
1725699649476,2024-09-07T09:00:49.476Z,50775,0.07519531,0.9751587,0.1716919
1725699649521,2024-09-07T09:00:49.521Z,50820,0.07519531,0.96954346,0.2276001
1725699649566,2024-09-07T09:00:49.566Z,50865,0.06390381,0.98309326,0.16912842
1725699649610,2024-09-07T09:00:49.610Z,50909,0.098083496,0.9604492,0.24694824
1725699649655,2024-09-07T09:00:49.655Z,50954,0.064575195,0.98028564,0.1642456
1725699649700,2024-09-07T09:00:49.700Z,50999,0.09295654,0.97052,0.17358398
1725699649744,2024-09-07T09:00:49.744Z,51043,0.055908203,0.9785156,0.17437744
1725699649766,2024-09-07T09:00:49.766Z,51065,0.059387207,0.9901123,0.15118408
1725699649797,2024-09-07T09:00:49.797Z,51096,0.08331299,0.98895264,0.15014648
1725699649835,2024-09-07T09:00:49.835Z,51134,0.090148926,0.9914551,0.15454102
1725699649880,2024-09-07T09:00:49.880Z,51179,0.06341553,0.9694214,0.13696289
1725699649925,2024-09-07T09:00:49.925Z,51224,0.051452637,0.97772217,0.121032715
1725699649970,2024-09-07T09:00:49.970Z,51269,0.08300781,0.9793091,0.14263916
1725699650016,2024-09-07T09:00:50.016Z,51315,0.0345459,0.98620605,0.0736084
1725699650064,2024-09-07T09:00:50.064Z,51363,0.0881958,1.0128174,0.11755371
1725699650106,2024-09-07T09:00:50.106Z,51405,0.04083252,0.9869385,0.09686279
1725699650149,2024-09-07T09:00:50.149Z,51448,0.06237793,1.0210571,0.04107666
1725699650197,2024-09-07T09:00:50.197Z,51496,0.051818848,0.994812,0.08312988
1725699650219,2024-09-07T09:00:50.219Z,51518,0.046142578,1.0092163,0.02532959
1725699650240,2024-09-07T09:00:50.240Z,51539,0.052490234,0.98651123,0.04083252
1725699650283,2024-09-07T09:00:50.283Z,51582,0.048828125,0.9805298,0.008178711
1725699650331,2024-09-07T09:00:50.331Z,51630,0.040893555,0.9743042,0.023010254
1725699650373,2024-09-07T09:00:50.373Z,51672,0.0052490234,0.9821167,-0.022583008
1725699650420,2024-09-07T09:00:50.420Z,51719,0.036315918,0.99884033,-0.0026855469
1725699650466,2024-09-07T09:00:50.466Z,51765,0.032592773,1.0022583,-0.015686035
1725699650510,2024-09-07T09:00:50.510Z,51809,0.02319336,1.0140991,-0.03564453
1725699650556,2024-09-07T09:00:50.556Z,51855,0.026489258,1.015625,-0.011047363
1725699650600,2024-09-07T09:00:50.600Z,51899,6.1035156E-5,1.0234985,-0.028442383
1725699650622,2024-09-07T09:00:50.622Z,51921,0.038513184,1.0175781,-0.06262207
1725699650644,2024-09-07T09:00:50.644Z,51943,0.020690918,1.0092163,-0.010070801
1725699650688,2024-09-07T09:00:50.688Z,51987,-0.021057129,0.9970093,-0.084350586
1725699650735,2024-09-07T09:00:50.735Z,52034,0.044067383,1.0081177,-0.035217285
1725699650784,2024-09-07T09:00:50.784Z,52083,-0.012023926,0.9859619,-0.08123779
1725699650826,2024-09-07T09:00:50.826Z,52125,0.014587402,0.9915161,-0.029052734
1725699650872,2024-09-07T09:00:50.872Z,52171,0.019897461,0.97631836,-0.06463623
1725699650912,2024-09-07T09:00:50.912Z,52211,-0.006286621,0.9772339,-0.0513916
1725699650959,2024-09-07T09:00:50.959Z,52258,0.011230469,0.98376465,-0.06976318
1725699651005,2024-09-07T09:00:51.005Z,52304,0.011108398,0.99224854,-0.07305908
1725699651023,2024-09-07T09:00:51.023Z,52322,0.0010986328,1.0193481,-0.07458496
1725699651049,2024-09-07T09:00:51.049Z,52348,0.011108398,1.0220947,-0.057739258
1725699651092,2024-09-07T09:00:51.092Z,52391,0.0021362305,1.0424805,-0.109313965
1725699651140,2024-09-07T09:00:51.140Z,52439,-0.011108398,1.0180054,-0.07104492
1725699651186,2024-09-07T09:00:51.186Z,52485,0.013061523,1.0203857,-0.08441162
1725699651230,2024-09-07T09:00:51.230Z,52529,-0.009765625,1.0371704,-0.07495117
1725699651276,2024-09-07T09:00:51.276Z,52575,0.0087890625,1.0321045,-0.11425781
1725699651320,2024-09-07T09:00:51.320Z,52619,-0.010375977,1.0271606,-0.06964111
1725699651366,2024-09-07T09:00:51.366Z,52665,0.0178833,1.0245972,-0.09338379
1725699651409,2024-09-07T09:00:51.409Z,52708,0.0068969727,1.0046387,-0.10644531
1725699651456,2024-09-07T09:00:51.456Z,52755,-0.014160156,0.99298096,-0.08239746
1725699651476,2024-09-07T09:00:51.476Z,52775,0.027282715,0.9979248,-0.122924805
1725699651497,2024-09-07T09:00:51.497Z,52796,0.011291504,1.0137329,-0.105163574
1725699651544,2024-09-07T09:00:51.544Z,52843,0.030883789,1.0118408,-0.07342529
1725699651591,2024-09-07T09:00:51.591Z,52890,-0.0061035156,1.0454102,-0.15344238
1725699651636,2024-09-07T09:00:51.636Z,52935,0.022216797,1.0118408,-0.06378174
1725699651682,2024-09-07T09:00:51.682Z,52981,0.013122559,1.0324707,-0.15759277
1725699651724,2024-09-07T09:00:51.724Z,53023,0.036743164,1.0239868,-0.07348633
1725699651773,2024-09-07T09:00:51.773Z,53072,-0.0017089844,1.0289917,-0.1305542
1725699651815,2024-09-07T09:00:51.815Z,53114,-0.0034179688,1.0263672,-0.10101318
1725699651858,2024-09-07T09:00:51.858Z,53157,6.1035156E-5,1.0189209,-0.1359253
1725699651875,2024-09-07T09:00:51.875Z,53174,0.03253174,1.0300903,-0.08190918
1725699651903,2024-09-07T09:00:51.903Z,53202,-0.018310547,1.0095825,-0.11999512
1725699651948,2024-09-07T09:00:51.948Z,53247,0.004699707,1.0427246,-0.13220215
1725699651994,2024-09-07T09:00:51.994Z,53293,0.011413574,1.019104,-0.08441162
1725699652041,2024-09-07T09:00:52.041Z,53340,0.002380371,1.0440674,-0.12719727
1725699652084,2024-09-07T09:00:52.084Z,53383,-0.008239746,1.0250854,-0.10668945
1725699652127,2024-09-07T09:00:52.127Z,53426,0.028503418,1.0457764,-0.15356445
1725699652175,2024-09-07T09:00:52.175Z,53474,0.0,1.0320435,-0.09454346
1725699652220,2024-09-07T09:00:52.220Z,53519,0.0026855469,1.0299683,-0.15570068
1725699652267,2024-09-07T09:00:52.267Z,53566,0.0026245117,1.0341187,-0.091918945
1725699652290,2024-09-07T09:00:52.290Z,53589,0.019714355,1.024353,-0.15527344
1725699652307,2024-09-07T09:00:52.307Z,53606,0.009399414,1.0215454,-0.10266113
1725699652352,2024-09-07T09:00:52.352Z,53651,6.713867E-4,1.02771,-0.1395874
1725699652401,2024-09-07T09:00:52.401Z,53700,-0.0051879883,1.0240479,-0.14978027
1725699652446,2024-09-07T09:00:52.446Z,53745,0.022155762,1.0188599,-0.09893799
1725699652487,2024-09-07T09:00:52.487Z,53786,-0.018066406,1.0148926,-0.15802002
1725699652535,2024-09-07T09:00:52.535Z,53834,-0.0036621094,1.0325928,-0.1281128
1725699652578,2024-09-07T09:00:52.578Z,53877,0.013000488,1.0198364,-0.17132568
1725699652624,2024-09-07T09:00:52.624Z,53923,-0.0256958,1.0577393,-0.16607666
1725699652672,2024-09-07T09:00:52.672Z,53971,0.018676758,1.0761719,-0.09777832
1725699652715,2024-09-07T09:00:52.715Z,54014,0.035217285,1.1393433,-0.18572998
1725699652741,2024-09-07T09:00:52.741Z,54040,0.059387207,1.1380615,-0.08569336
1725699652761,2024-09-07T09:00:52.761Z,54060,0.012634277,1.199646,-0.16900635
1725699652803,2024-09-07T09:00:52.803Z,54102,0.04675293,1.1485596,-0.107788086
1725699652849,2024-09-07T09:00:52.849Z,54148,0.043884277,1.1947632,-0.090148926
1725699652893,2024-09-07T09:00:52.893Z,54192,0.03656006,1.1571655,-0.17004395
1725699652940,2024-09-07T09:00:52.940Z,54239,0.021911621,1.1428223,-0.092041016
1725699652986,2024-09-07T09:00:52.986Z,54285,0.036499023,1.1160889,-0.1375122
1725699653030,2024-09-07T09:00:53.030Z,54329,0.046691895,1.1096802,-0.06982422
1725699653081,2024-09-07T09:00:53.081Z,54380,0.01361084,1.0873413,-0.13433838
1725699653118,2024-09-07T09:00:53.118Z,54417,0.030395508,1.0673828,-0.091308594
1725699653138,2024-09-07T09:00:53.138Z,54437,0.0115356445,1.0688477,-0.097351074
1725699653162,2024-09-07T09:00:53.162Z,54461,0.017944336,1.0335083,-0.04736328
1725699653208,2024-09-07T09:00:53.208Z,54507,0.019348145,1.0325928,-0.06677246
1725699653256,2024-09-07T09:00:53.256Z,54555,0.042419434,0.99035645,-0.041381836
1725699653298,2024-09-07T09:00:53.298Z,54597,0.030517578,0.9641113,-0.07055664
1725699653346,2024-09-07T09:00:53.346Z,54645,0.030517578,0.92211914,0.036499023
1725699653389,2024-09-07T09:00:53.389Z,54688,0.01550293,0.9440918,-0.05444336
1725699653436,2024-09-07T09:00:53.436Z,54735,0.047607422,0.888855,0.08441162
1725699653480,2024-09-07T09:00:53.480Z,54779,0.041503906,0.90838623,-0.016662598
1725699653528,2024-09-07T09:00:53.528Z,54827,0.0635376,0.8482666,0.123413086
1725699653551,2024-09-07T09:00:53.551Z,54850,0.045654297,0.89624023,-0.013305664
1725699653571,2024-09-07T09:00:53.571Z,54870,0.062316895,0.8602905,0.16607666
1725699653613,2024-09-07T09:00:53.613Z,54912,0.1081543,0.8829956,0.090026855
1725699653664,2024-09-07T09:00:53.664Z,54963,0.07824707,0.8721924,0.12243652
1725699653709,2024-09-07T09:00:53.709Z,55008,0.11773682,0.87054443,0.15368652
1725699653751,2024-09-07T09:00:53.751Z,55050,0.097961426,0.84265137,0.1828003
1725699653795,2024-09-07T09:00:53.795Z,55094,0.08428955,0.93463135,0.1138916
1725699653841,2024-09-07T09:00:53.841Z,55140,0.09539795,0.94000244,0.26794434
1725699653884,2024-09-07T09:00:53.884Z,55183,0.06890869,1.0048218,0.15301514
1725699653933,2024-09-07T09:00:53.933Z,55232,0.18560791,0.95983887,0.237854
1725699653979,2024-09-07T09:00:53.979Z,55278,0.12176514,0.9519043,0.10247803
1725699654004,2024-09-07T09:00:54.004Z,55303,0.15063477,0.95251465,0.21801758
1725699654032,2024-09-07T09:00:54.032Z,55331,0.097717285,0.9595337,0.2074585
1725699654065,2024-09-07T09:00:54.065Z,55364,0.07397461,0.9733887,0.21392822
1725699654109,2024-09-07T09:00:54.109Z,55408,0.115722656,0.9508667,0.30566406
1725699654155,2024-09-07T09:00:54.155Z,55454,0.12414551,0.9484863,0.23272705
1725699654202,2024-09-07T09:00:54.202Z,55501,0.15625,0.9586792,0.2659912
1725699654245,2024-09-07T09:00:54.245Z,55544,0.09613037,1.0154419,0.17767334
1725699654292,2024-09-07T09:00:54.292Z,55591,0.12597656,1.0050659,0.26586914
1725699654340,2024-09-07T09:00:54.340Z,55639,0.11090088,1.0147705,0.18756104
1725699654380,2024-09-07T09:00:54.380Z,55679,0.13659668,0.977417,0.23364258
1725699654400,2024-09-07T09:00:54.400Z,55699,0.13031006,0.9869995,0.21575928
1725699654422,2024-09-07T09:00:54.422Z,55721,0.10461426,0.99365234,0.22955322
1725699654469,2024-09-07T09:00:54.469Z,55768,0.0713501,1.012085,0.22296143
1725699654513,2024-09-07T09:00:54.513Z,55812,0.092285156,0.98553467,0.22137451
1725699654558,2024-09-07T09:00:54.558Z,55857,0.11834717,0.9741211,0.2276001
1725699654604,2024-09-07T09:00:54.604Z,55903,0.08984375,0.9873657,0.17907715
1725699654647,2024-09-07T09:00:54.647Z,55946,0.12506104,0.9818115,0.2199707
1725699654694,2024-09-07T09:00:54.694Z,55993,0.090026855,0.9890747,0.16821289
1725699654744,2024-09-07T09:00:54.744Z,56043,0.11437988,0.97717285,0.1772461
1725699654782,2024-09-07T09:00:54.782Z,56081,0.09197998,0.9841919,0.14794922
1725699654802,2024-09-07T09:00:54.802Z,56101,0.11859131,0.9869385,0.16088867
1725699654827,2024-09-07T09:00:54.827Z,56126,0.07757568,0.9696655,0.15478516
1725699654873,2024-09-07T09:00:54.873Z,56172,0.12567139,0.9871216,0.16149902
1725699654919,2024-09-07T09:00:54.919Z,56218,0.06726074,0.9974365,0.1116333
1725699654965,2024-09-07T09:00:54.965Z,56264,0.14324951,1.0057373,0.16888428
1725699655006,2024-09-07T09:00:55.006Z,56305,0.18756104,0.97509766,0.2841797
1725699655048,2024-09-07T09:00:55.048Z,56347,0.112976074,0.96276855,0.27850342
1725699655094,2024-09-07T09:00:55.094Z,56393,0.12475586,0.9977417,0.3499756
1725699655139,2024-09-07T09:00:55.139Z,56438,0.17102051,0.98791504,0.3053589
