Timestamp (ms),ISO DateTime,Elapsed Time (ms),Acceleration X,Acceleration Y,Acceleration Z
1734714740052,2024-12-20T17:12:20.052Z,190607,0.031982422,0.12005615,0.019226074
1734714740088,2024-12-20T17:12:20.088Z,190643,0.027954102,0.11920166,0.017944336
1734714740109,2024-12-20T17:12:20.109Z,190664,0.028564453,0.119506836,0.016296387
1734714740122,2024-12-20T17:12:20.122Z,190677,0.026916504,0.11853027,0.013549805
1734714740136,2024-12-20T17:12:20.136Z,190691,0.027404785,0.11920166,0.0115356445
1734714740153,2024-12-20T17:12:20.153Z,190708,0.028320312,0.121154785,0.009765625
1734714740166,2024-12-20T17:12:20.166Z,190721,0.029663086,0.12084961,0.009460449
1734714740176,2024-12-20T17:12:20.176Z,190731,0.030639648,0.12030029,0.012268066
1734714740187,2024-12-20T17:12:20.187Z,190742,0.029968262,0.12060547,0.016174316
1734714740197,2024-12-20T17:12:20.197Z,190752,0.030578613,0.119140625,0.01953125
1734714740207,2024-12-20T17:12:20.207Z,190762,0.02758789,0.11859131,0.020385742
1734714740215,2024-12-20T17:12:20.215Z,190770,0.028930664,0.1171875,0.018432617
1734714740224,2024-12-20T17:12:20.224Z,190779,0.033691406,0.11834717,0.013671875
1734714740231,2024-12-20T17:12:20.231Z,190786,0.02758789,0.12237549,0.011413574
1734714740239,2024-12-20T17:12:20.239Z,190794,0.024536133,0.12084961,0.011352539
1734714740248,2024-12-20T17:12:20.248Z,190803,0.028442383,0.11907959,0.014099121
1734714740257,2024-12-20T17:12:20.257Z,190812,0.02923584,0.12164307,0.016601562
1734714740266,2024-12-20T17:12:20.266Z,190821,0.025817871,0.12164307,0.015625
1734714740276,2024-12-20T17:12:20.276Z,190831,0.024536133,0.12145996,0.014465332
1734714740288,2024-12-20T17:12:20.288Z,190843,0.026916504,0.12121582,0.013977051
1734714740301,2024-12-20T17:12:20.301Z,190856,0.027648926,0.121276855,0.0134887695
1734714740310,2024-12-20T17:12:20.310Z,190865,0.028503418,0.121398926,0.0115356445
1734714740319,2024-12-20T17:12:20.319Z,190874,0.026489258,0.120788574,0.011474609
1734714740328,2024-12-20T17:12:20.328Z,190883,0.022888184,0.12158203,0.012878418
1734714740336,2024-12-20T17:12:20.336Z,190891,0.025817871,0.121032715,0.0134887695
1734714740344,2024-12-20T17:12:20.344Z,190899,0.028442383,0.1194458,0.014465332
1734714740355,2024-12-20T17:12:20.355Z,190910,0.028015137,0.11993408,0.0126953125
1734714740363,2024-12-20T17:12:20.363Z,190918,0.027160645,0.121032715,0.009887695
1734714740372,2024-12-20T17:12:20.372Z,190927,0.028137207,0.12097168,0.009460449
1734714740381,2024-12-20T17:12:20.381Z,190936,0.030639648,0.12017822,0.0115356445
1734714740391,2024-12-20T17:12:20.391Z,190946,0.029724121,0.119628906,0.012939453
1734714740402,2024-12-20T17:12:20.402Z,190957,0.025634766,0.1204834,0.013793945
1734714740411,2024-12-20T17:12:20.411Z,190966,0.026733398,0.12054443,0.0138549805
1734714740450,2024-12-20T17:12:20.450Z,191005,0.026550293,0.12072754,0.014221191
1734714740459,2024-12-20T17:12:20.459Z,191014,0.026977539,0.12060547,0.0134887695
1734714740470,2024-12-20T17:12:20.470Z,191025,0.03161621,0.119506836,0.012451172
1734714740478,2024-12-20T17:12:20.478Z,191033,0.032043457,0.12200928,0.013549805
1734714740488,2024-12-20T17:12:20.488Z,191043,0.032287598,0.12286377,0.014282227
1734714740496,2024-12-20T17:12:20.496Z,191051,0.033691406,0.12231445,0.01361084
1734714740504,2024-12-20T17:12:20.504Z,191059,0.027038574,0.1227417,0.012451172
1734714740514,2024-12-20T17:12:20.514Z,191069,0.026062012,0.12243652,0.012084961
1734714740524,2024-12-20T17:12:20.524Z,191079,0.024475098,0.12231445,0.011413574
1734714740533,2024-12-20T17:12:20.533Z,191088,0.02532959,0.12219238,0.010864258
1734714740542,2024-12-20T17:12:20.542Z,191097,0.029724121,0.123046875,0.009033203
1734714740550,2024-12-20T17:12:20.550Z,191105,0.030395508,0.122680664,0.008544922
1734714740558,2024-12-20T17:12:20.558Z,191113,0.031799316,0.11932373,0.011108398
1734714740568,2024-12-20T17:12:20.568Z,191123,0.032714844,0.12017822,0.012878418
1734714740579,2024-12-20T17:12:20.579Z,191134,0.031311035,0.12023926,0.014160156
1734714740588,2024-12-20T17:12:20.588Z,191143,0.028503418,0.12084961,0.0146484375
1734714740597,2024-12-20T17:12:20.597Z,191152,0.030090332,0.11968994,0.0134887695
1734714740605,2024-12-20T17:12:20.605Z,191160,0.031555176,0.12060547,0.0115356445
1734714740614,2024-12-20T17:12:20.614Z,191169,0.031433105,0.12194824,0.008544922
1734714740622,2024-12-20T17:12:20.622Z,191177,0.03125,0.12097168,0.0107421875
1734714740632,2024-12-20T17:12:20.632Z,191187,0.030700684,0.12054443,0.013305664
1734714740639,2024-12-20T17:12:20.639Z,191194,0.030700684,0.120788574,0.013061523
1734714740646,2024-12-20T17:12:20.646Z,191201,0.030334473,0.11981201,0.011169434
1734714740653,2024-12-20T17:12:20.653Z,191208,0.030517578,0.11846924,0.0099487305
1734714740659,2024-12-20T17:12:20.659Z,191214,0.035583496,0.119018555,0.00793457
1734714740666,2024-12-20T17:12:20.666Z,191221,0.036743164,0.11694336,0.009216309
1734714740674,2024-12-20T17:12:20.674Z,191229,0.031921387,0.12072754,0.014282227
1734714740681,2024-12-20T17:12:20.681Z,191236,0.034729004,0.1204834,0.020446777
1734714740689,2024-12-20T17:12:20.689Z,191244,0.030395508,0.12036133,0.023498535
1734714740697,2024-12-20T17:12:20.697Z,191252,0.025390625,0.119140625,0.020263672
1734714740717,2024-12-20T17:12:20.717Z,191272,0.026184082,0.12005615,0.016479492
1734714740725,2024-12-20T17:12:20.725Z,191280,0.028076172,0.120666504,0.01159668
1734714740732,2024-12-20T17:12:20.732Z,191287,0.032287598,0.11590576,0.0056152344
1734714740740,2024-12-20T17:12:20.740Z,191295,0.032043457,0.1161499,0.0036621094
1734714740762,2024-12-20T17:12:20.762Z,191317,0.029174805,0.11834717,0.004272461
1734714740769,2024-12-20T17:12:20.769Z,191324,0.031433105,0.11975098,0.009521484
1734714740778,2024-12-20T17:12:20.778Z,191333,0.035217285,0.12011719,0.0119018555
1734714740785,2024-12-20T17:12:20.785Z,191340,0.032714844,0.11975098,0.011657715
1734714740792,2024-12-20T17:12:20.792Z,191347,0.030090332,0.11999512,0.010925293
1734714740806,2024-12-20T17:12:20.806Z,191361,0.032226562,0.119018555,0.011047363
1734714740814,2024-12-20T17:12:20.814Z,191369,0.028503418,0.12145996,0.012817383
1734714740822,2024-12-20T17:12:20.822Z,191377,0.032287598,0.12225342,0.012878418
1734714740828,2024-12-20T17:12:20.828Z,191383,0.036865234,0.124572754,0.012817383
1734714740851,2024-12-20T17:12:20.851Z,191406,0.032592773,0.12573242,0.011047363
1734714740862,2024-12-20T17:12:20.862Z,191417,0.029846191,0.1239624,0.008850098
1734714740869,2024-12-20T17:12:20.869Z,191424,0.03100586,0.122680664,0.0067749023
1734714740879,2024-12-20T17:12:20.879Z,191434,0.028930664,0.12322998,0.0059814453
1734714740887,2024-12-20T17:12:20.887Z,191442,0.031188965,0.122680664,0.007873535
1734714740896,2024-12-20T17:12:20.896Z,191451,0.029296875,0.12249756,0.007873535
1734714740904,2024-12-20T17:12:20.904Z,191459,0.0289917,0.122924805,0.006164551
1734714740912,2024-12-20T17:12:20.912Z,191467,0.03100586,0.12213135,0.0037841797
1734714740920,2024-12-20T17:12:20.920Z,191475,0.032348633,0.12164307,0.00390625
1734714740944,2024-12-20T17:12:20.944Z,191499,0.028686523,0.12347412,0.0057373047
1734714740952,2024-12-20T17:12:20.952Z,191507,0.030273438,0.12322998,0.0087890625
1734714740962,2024-12-20T17:12:20.962Z,191517,0.03704834,0.11907959,0.013000488
1734714740970,2024-12-20T17:12:20.970Z,191525,0.05065918,0.11627197,0.016662598
1734714740977,2024-12-20T17:12:20.977Z,191532,0.046325684,0.119384766,0.014770508
1734714740985,2024-12-20T17:12:20.985Z,191540,0.028259277,0.11828613,0.014099121
1734714740995,2024-12-20T17:12:20.995Z,191550,0.024230957,0.121032715,0.010864258
1734714741008,2024-12-20T17:12:21.008Z,191563,0.021728516,0.12060547,0.0045776367
1734714741018,2024-12-20T17:12:21.018Z,191573,0.026855469,0.11590576,0.0014038086
1734714741031,2024-12-20T17:12:21.031Z,191586,0.030944824,0.118652344,0.0014038086
1734714741039,2024-12-20T17:12:21.039Z,191594,0.03491211,0.116760254,0.0036621094
1734714741047,2024-12-20T17:12:21.047Z,191602,0.0345459,0.115234375,0.008666992
1734714741055,2024-12-20T17:12:21.055Z,191610,0.035827637,0.1138916,0.011474609
1734714741076,2024-12-20T17:12:21.076Z,191631,0.03881836,0.11352539,0.014709473
1734714741085,2024-12-20T17:12:21.085Z,191640,0.035827637,0.11578369,0.019470215
1734714741092,2024-12-20T17:12:21.092Z,191647,0.031677246,0.11669922,0.017150879
1734714741100,2024-12-20T17:12:21.100Z,191655,0.02319336,0.1159668,0.010559082
1734714741109,2024-12-20T17:12:21.109Z,191664,0.025268555,0.11651611,0.007751465
1734714741167,2024-12-20T17:12:21.167Z,191722,0.03302002,0.11895752,0.006713867
1734714741176,2024-12-20T17:12:21.176Z,191731,0.035095215,0.115356445,0.004638672
1734714741184,2024-12-20T17:12:21.184Z,191739,0.03149414,0.1126709,0.005554199
1734714741194,2024-12-20T17:12:21.194Z,191749,0.03552246,0.11566162,0.0067749023
1734714741202,2024-12-20T17:12:21.202Z,191757,0.04168701,0.11730957,0.009460449
1734714741211,2024-12-20T17:12:21.211Z,191766,0.03491211,0.1184082,0.013122559
1734714741219,2024-12-20T17:12:21.219Z,191774,0.022949219,0.1217041,0.011108398
1734714741227,2024-12-20T17:12:21.227Z,191782,0.021728516,0.11895752,0.007873535
1734714741234,2024-12-20T17:12:21.234Z,191789,0.026123047,0.116882324,0.0060424805
1734714741242,2024-12-20T17:12:21.242Z,191797,0.027160645,0.12017822,0.005004883
1734714741250,2024-12-20T17:12:21.250Z,191805,0.029785156,0.119262695,0.003540039
1734714741258,2024-12-20T17:12:21.258Z,191813,0.030029297,0.118652344,0.006286621
1734714741268,2024-12-20T17:12:21.268Z,191823,0.031677246,0.11907959,0.011291504
1734714741276,2024-12-20T17:12:21.276Z,191831,0.030761719,0.11657715,0.012207031
1734714741286,2024-12-20T17:12:21.286Z,191841,0.03479004,0.11657715,0.010864258
1734714741295,2024-12-20T17:12:21.295Z,191850,0.033935547,0.121276855,0.0065307617
1734714741304,2024-12-20T17:12:21.304Z,191859,0.026123047,0.12060547,0.0034179688
1734714741311,2024-12-20T17:12:21.311Z,191866,0.02532959,0.11968994,0.0037231445
1734714741317,2024-12-20T17:12:21.317Z,191872,0.024414062,0.12060547,0.0032958984
1734714741325,2024-12-20T17:12:21.325Z,191880,0.024536133,0.117492676,0.0037841797
1734714741332,2024-12-20T17:12:21.332Z,191887,0.023742676,0.11846924,0.0038452148
1734714741339,2024-12-20T17:12:21.339Z,191894,0.028442383,0.12005615,0.0029907227
1734714741346,2024-12-20T17:12:21.346Z,191901,0.034973145,0.11682129,0.0031738281
1734714741355,2024-12-20T17:12:21.355Z,191910,0.03552246,0.1161499,0.003479004
1734714741363,2024-12-20T17:12:21.363Z,191918,0.03112793,0.1184082,0.003540039
1734714741370,2024-12-20T17:12:21.370Z,191925,0.024291992,0.12011719,0.0025634766
1734714741390,2024-12-20T17:12:21.390Z,191945,0.026672363,0.11834717,0.0028076172
1734714741398,2024-12-20T17:12:21.398Z,191953,0.029418945,0.11859131,0.0045166016
1734714741405,2024-12-20T17:12:21.405Z,191960,0.033691406,0.11553955,0.0068969727
1734714741415,2024-12-20T17:12:21.415Z,191970,0.035705566,0.11633301,0.006591797
1734714741423,2024-12-20T17:12:21.423Z,191978,0.03479004,0.12133789,0.0037231445
1734714741436,2024-12-20T17:12:21.436Z,191991,0.02709961,0.12133789,0.001953125
1734714741482,2024-12-20T17:12:21.482Z,192037,0.031921387,0.116760254,0.0037231445
1734714741491,2024-12-20T17:12:21.491Z,192046,0.02911377,0.12249756,0.0032958984
1734714741530,2024-12-20T17:12:21.530Z,192085,0.018249512,0.12390137,0.0015258789
1734714741538,2024-12-20T17:12:21.538Z,192093,0.031066895,0.11968994,0.002380371
1734714741548,2024-12-20T17:12:21.548Z,192103,0.040405273,0.12109375,0.0026855469
1734714741579,2024-12-20T17:12:21.579Z,192134,0.036621094,0.11779785,0.002746582
1734714741586,2024-12-20T17:12:21.586Z,192141,0.03125,0.11846924,0.002319336
1734714741595,2024-12-20T17:12:21.595Z,192150,0.026123047,0.121154785,-1.2207031E-4
1734714741603,2024-12-20T17:12:21.603Z,192158,0.022888184,0.11968994,-0.001953125
1734714741610,2024-12-20T17:12:21.610Z,192165,0.018554688,0.12060547,3.6621094E-4
1734714741617,2024-12-20T17:12:21.617Z,192172,0.024719238,0.120666504,0.0030517578
1734714741624,2024-12-20T17:12:21.624Z,192179,0.030761719,0.118652344,0.0029296875
1734714741632,2024-12-20T17:12:21.632Z,192187,0.036987305,0.11383057,0.003112793
1734714741666,2024-12-20T17:12:21.666Z,192221,0.041748047,0.11364746,0.0045776367
1734714741674,2024-12-20T17:12:21.674Z,192229,0.037597656,0.115356445,0.0061035156
1734714741683,2024-12-20T17:12:21.683Z,192238,0.03173828,0.11602783,0.0052490234
1734714741690,2024-12-20T17:12:21.690Z,192245,0.024658203,0.115600586,3.0517578E-4
1734714741699,2024-12-20T17:12:21.699Z,192254,0.02142334,0.114746094,-0.0040283203
1734714741707,2024-12-20T17:12:21.707Z,192262,0.03540039,0.116882324,-0.0022583008
1734714741717,2024-12-20T17:12:21.717Z,192272,0.03778076,0.11694336,4.8828125E-4
1734714741728,2024-12-20T17:12:21.728Z,192283,0.038391113,0.1105957,0.0017700195
1734714741737,2024-12-20T17:12:21.737Z,192292,0.033447266,0.11340332,0.0026855469
1734714741747,2024-12-20T17:12:21.747Z,192302,0.033691406,0.11883545,0.0018920898
1734714741757,2024-12-20T17:12:21.757Z,192312,0.030822754,0.120666504,-0.0017700195
1734714741771,2024-12-20T17:12:21.771Z,192326,0.0289917,0.11798096,-0.0037841797
1734714741779,2024-12-20T17:12:21.779Z,192334,0.030578613,0.11755371,-0.0034179688
1734714741790,2024-12-20T17:12:21.790Z,192345,0.028747559,0.119140625,-0.0017700195
1734714741798,2024-12-20T17:12:21.798Z,192353,0.026794434,0.11804199,-0.0010986328
1734714741805,2024-12-20T17:12:21.805Z,192360,0.030517578,0.11590576,-0.003112793
1734714741814,2024-12-20T17:12:21.814Z,192369,0.03692627,0.1194458,-0.0021362305
1734714741823,2024-12-20T17:12:21.823Z,192378,0.029541016,0.123535156,-0.0040283203
1734714741831,2024-12-20T17:12:21.831Z,192386,0.025939941,0.11895752,-0.007080078
1734714741841,2024-12-20T17:12:21.841Z,192396,0.02734375,0.12005615,-0.0064697266
1734714741848,2024-12-20T17:12:21.848Z,192403,0.025634766,0.12237549,-0.004699707
1734714741856,2024-12-20T17:12:21.856Z,192411,0.024719238,0.12005615,-0.003540039
1734714741865,2024-12-20T17:12:21.865Z,192420,0.02758789,0.12042236,-0.0014038086
1734714741873,2024-12-20T17:12:21.873Z,192428,0.03173828,0.120910645,0.0016479492
1734714741881,2024-12-20T17:12:21.881Z,192436,0.034057617,0.12042236,0.0036010742
1734714741889,2024-12-20T17:12:21.889Z,192444,0.032104492,0.12023926,0.0026245117
1734714741896,2024-12-20T17:12:21.896Z,192451,0.027404785,0.12286377,-0.0012817383
1734714741905,2024-12-20T17:12:21.905Z,192460,0.024963379,0.12664795,-0.00579834
1734714741913,2024-12-20T17:12:21.913Z,192468,0.021606445,0.12695312,-0.006713867
1734714741921,2024-12-20T17:12:21.921Z,192476,0.02734375,0.1239624,-0.005859375
1734714741931,2024-12-20T17:12:21.931Z,192486,0.034118652,0.12652588,-0.006164551
1734714741939,2024-12-20T17:12:21.939Z,192494,0.0256958,0.122802734,-0.006713867
1734714741946,2024-12-20T17:12:21.946Z,192501,0.030334473,0.11907959,-0.0044555664
1734714741953,2024-12-20T17:12:21.953Z,192508,0.03552246,0.12408447,-0.0037841797
1734714741960,2024-12-20T17:12:21.960Z,192515,0.03173828,0.12408447,-0.0033569336
1734714741968,2024-12-20T17:12:21.968Z,192523,0.024597168,0.12512207,-0.0032348633
1734714741981,2024-12-20T17:12:21.981Z,192536,0.021057129,0.12261963,-0.0041503906
1734714741989,2024-12-20T17:12:21.989Z,192544,0.020690918,0.121032715,-0.0051879883
1734714741997,2024-12-20T17:12:21.997Z,192552,0.020446777,0.12042236,-0.005432129
1734714742006,2024-12-20T17:12:22.006Z,192561,0.027709961,0.11773682,-0.003479004
1734714742014,2024-12-20T17:12:22.014Z,192569,0.031311035,0.11804199,-0.0034179688
1734714742024,2024-12-20T17:12:22.024Z,192579,0.024902344,0.11853027,-0.0049438477
1734714742032,2024-12-20T17:12:22.032Z,192587,0.02508545,0.115356445,-0.004333496
1734714742039,2024-12-20T17:12:22.039Z,192594,0.027038574,0.11834717,-0.0041503906
1734714742047,2024-12-20T17:12:22.047Z,192602,0.02758789,0.11810303,-0.006164551
1734714742054,2024-12-20T17:12:22.054Z,192609,0.024475098,0.117248535,-0.006164551
1734714742062,2024-12-20T17:12:22.062Z,192617,0.023620605,0.1171875,-0.004699707
1734714742070,2024-12-20T17:12:22.070Z,192625,0.027160645,0.117248535,-0.0043945312
1734714742078,2024-12-20T17:12:22.078Z,192633,0.030029297,0.11767578,-0.005065918
1734714742087,2024-12-20T17:12:22.087Z,192642,0.030456543,0.116882324,-0.0040283203
1734714742096,2024-12-20T17:12:22.096Z,192651,0.03137207,0.11462402,-0.0044555664
1734714742103,2024-12-20T17:12:22.103Z,192658,0.029052734,0.11846924,-0.008361816
1734714742111,2024-12-20T17:12:22.111Z,192666,0.022277832,0.12042236,-0.010437012
1734714742118,2024-12-20T17:12:22.118Z,192673,0.025146484,0.118774414,-0.010070801
1734714742126,2024-12-20T17:12:22.126Z,192681,0.025878906,0.121154785,-0.009765625
1734714742133,2024-12-20T17:12:22.133Z,192688,0.026306152,0.119506836,-0.00970459
1734714742140,2024-12-20T17:12:22.140Z,192695,0.033691406,0.1149292,-0.007751465
1734714742155,2024-12-20T17:12:22.155Z,192710,0.03942871,0.11669922,-0.0072021484
1734714742163,2024-12-20T17:12:22.163Z,192718,0.031188965,0.11999512,-0.009521484
1734714742171,2024-12-20T17:12:22.171Z,192726,0.026062012,0.121154785,-0.009216309
1734714742178,2024-12-20T17:12:22.178Z,192733,0.02545166,0.12213135,-0.008300781
1734714742200,2024-12-20T17:12:22.200Z,192755,0.022033691,0.12072754,-0.010253906
1734714742208,2024-12-20T17:12:22.208Z,192763,0.023254395,0.1194458,-0.011657715
1734714742215,2024-12-20T17:12:22.215Z,192770,0.028808594,0.11828613,-0.011108398
1734714742221,2024-12-20T17:12:22.221Z,192776,0.028869629,0.11883545,-0.013122559
1734714742228,2024-12-20T17:12:22.228Z,192783,0.022155762,0.11932373,-0.01550293
1734714742246,2024-12-20T17:12:22.246Z,192801,0.022216797,0.11633301,-0.0138549805
1734714742296,2024-12-20T17:12:22.296Z,192851,0.027648926,0.11859131,-0.010620117
1734714742304,2024-12-20T17:12:22.304Z,192859,0.02746582,0.12213135,-0.009460449
1734714742313,2024-12-20T17:12:22.313Z,192868,0.02142334,0.11968994,-0.007751465
1734714742322,2024-12-20T17:12:22.322Z,192877,0.020751953,0.11883545,-0.006652832
1734714742331,2024-12-20T17:12:22.331Z,192886,0.022155762,0.119018555,-0.009094238
1734714742382,2024-12-20T17:12:22.382Z,192937,0.024169922,0.1171875,-0.011352539
1734714742391,2024-12-20T17:12:22.391Z,192946,0.026245117,0.11956787,-0.012145996
1734714742399,2024-12-20T17:12:22.399Z,192954,0.026977539,0.12121582,-0.0134887695
1734714742409,2024-12-20T17:12:22.409Z,192964,0.02520752,0.12158203,-0.016052246
1734714742418,2024-12-20T17:12:22.418Z,192973,0.022399902,0.121520996,-0.014343262
1734714742427,2024-12-20T17:12:22.427Z,192982,0.022888184,0.1204834,-0.008483887
1734714742435,2024-12-20T17:12:22.435Z,192990,0.022338867,0.12109375,-0.0038452148
1734714742446,2024-12-20T17:12:22.446Z,193001,0.024047852,0.121032715,-0.0072021484
1734714742460,2024-12-20T17:12:22.460Z,193015,0.027770996,0.120788574,-0.012756348
1734714742467,2024-12-20T17:12:22.467Z,193022,0.023620605,0.123046875,-0.016296387
1734714742475,2024-12-20T17:12:22.475Z,193030,0.024841309,0.119140625,-0.016357422
1734714742482,2024-12-20T17:12:22.482Z,193037,0.02557373,0.12213135,-0.013916016
1734714742490,2024-12-20T17:12:22.490Z,193045,0.017150879,0.12573242,-0.012756348
1734714742496,2024-12-20T17:12:22.496Z,193051,0.018615723,0.123413086,-0.012756348
1734714742503,2024-12-20T17:12:22.503Z,193058,0.023376465,0.12188721,-0.012573242
1734714742511,2024-12-20T17:12:22.511Z,193066,0.024230957,0.11993408,-0.010375977
1734714742519,2024-12-20T17:12:22.519Z,193074,0.025634766,0.12005615,-0.006652832
1734714742526,2024-12-20T17:12:22.526Z,193081,0.027038574,0.11895752,-0.005859375
1734714742533,2024-12-20T17:12:22.533Z,193088,0.026916504,0.11645508,-0.0061035156
1734714742540,2024-12-20T17:12:22.540Z,193095,0.030029297,0.11932373,-0.009460449
1734714742548,2024-12-20T17:12:22.548Z,193103,0.025512695,0.12017822,-0.012268066
1734714742554,2024-12-20T17:12:22.554Z,193109,0.023010254,0.11767578,-0.0095825195
1734714742561,2024-12-20T17:12:22.561Z,193116,0.022766113,0.12133789,-0.008544922
1734714742612,2024-12-20T17:12:22.612Z,193167,0.024353027,0.11828613,-0.0107421875
1734714742656,2024-12-20T17:12:22.656Z,193211,0.024963379,0.115356445,-0.010925293
1734714742666,2024-12-20T17:12:22.666Z,193221,0.024780273,0.115600586,-0.008544922
1734714742675,2024-12-20T17:12:22.675Z,193230,0.025756836,0.11621094,-0.009033203
1734714742695,2024-12-20T17:12:22.695Z,193250,0.026184082,0.11816406,-0.010437012
1734714742704,2024-12-20T17:12:22.704Z,193259,0.024108887,0.11987305,-0.010192871
1734714742712,2024-12-20T17:12:22.712Z,193267,0.026062012,0.11767578,-0.008361816
1734714742720,2024-12-20T17:12:22.720Z,193275,0.027648926,0.117370605,-0.007507324
1734714742731,2024-12-20T17:12:22.731Z,193286,0.02911377,0.11706543,-0.008911133
1734714742738,2024-12-20T17:12:22.738Z,193293,0.026000977,0.119506836,-0.009155273
1734714742746,2024-12-20T17:12:22.746Z,193301,0.023803711,0.117248535,-0.008178711
1734714742754,2024-12-20T17:12:22.754Z,193309,0.023742676,0.116882324,-0.008605957
1734714742760,2024-12-20T17:12:22.760Z,193315,0.031433105,0.122558594,-0.011779785
1734714742788,2024-12-20T17:12:22.788Z,193343,0.030151367,0.122680664,-0.012207031
1734714742795,2024-12-20T17:12:22.795Z,193350,0.022949219,0.12219238,-0.011474609
1734714742803,2024-12-20T17:12:22.803Z,193358,0.024291992,0.12249756,-0.010559082
1734714742806,2024-12-20T17:12:22.806Z,193361,0.024536133,0.123168945,-0.009521484
1734714742813,2024-12-20T17:12:22.813Z,193368,0.024536133,0.123046875,-0.010925293
1734714742820,2024-12-20T17:12:22.820Z,193375,0.025390625,0.12463379,-0.013671875
1734714742883,2024-12-20T17:12:22.883Z,193438,0.030395508,0.122924805,-0.0146484375
1734714742889,2024-12-20T17:12:22.889Z,193444,0.029052734,0.12249756,-0.014953613
1734714742895,2024-12-20T17:12:22.895Z,193450,0.026245117,0.12451172,-0.014099121
1734714742901,2024-12-20T17:12:22.901Z,193456,0.023864746,0.12536621,-0.015014648
1734714742907,2024-12-20T17:12:22.907Z,193462,0.02130127,0.12451172,-0.013977051
1734714743013,2024-12-20T17:12:23.013Z,193568,0.022644043,0.1251831,-0.011291504
1734714743018,2024-12-20T17:12:23.018Z,193573,0.02746582,0.1237793,-0.007385254
1734714743058,2024-12-20T17:12:23.058Z,193613,0.031921387,0.123413086,-0.008972168
1734714743067,2024-12-20T17:12:23.067Z,193622,0.02960205,0.12438965,-0.014404297
1734714743160,2024-12-20T17:12:23.160Z,193715,0.023803711,0.122924805,-0.016296387
1734714743177,2024-12-20T17:12:23.177Z,193732,0.025512695,0.12237549,-0.015075684
1734714743190,2024-12-20T17:12:23.190Z,193745,0.023071289,0.12445068,-0.014160156
1734714743195,2024-12-20T17:12:23.195Z,193750,0.02935791,0.123535156,-0.015380859
1734714743207,2024-12-20T17:12:23.207Z,193762,0.030700684,0.12609863,-0.01586914
1734714743218,2024-12-20T17:12:23.218Z,193773,0.026611328,0.12774658,-0.01550293
1734714743227,2024-12-20T17:12:23.227Z,193782,0.02557373,0.124816895,-0.0119018555
1734714743236,2024-12-20T17:12:23.236Z,193791,0.026916504,0.12738037,-0.0076293945
1734714743246,2024-12-20T17:12:23.246Z,193801,0.023376465,0.12872314,-0.008422852
1734714743250,2024-12-20T17:12:23.250Z,193805,0.026916504,0.12408447,-0.010803223
1734714743258,2024-12-20T17:12:23.258Z,193813,0.026855469,0.12506104,-0.0107421875
1734714743262,2024-12-20T17:12:23.262Z,193817,0.033081055,0.120910645,-0.0154418945
1734714743266,2024-12-20T17:12:23.266Z,193821,0.023925781,0.12231445,-0.012573242
1734714743274,2024-12-20T17:12:23.274Z,193829,0.025817871,0.125,-0.015930176
1734714743281,2024-12-20T17:12:23.281Z,193836,0.022094727,0.123413086,-0.01373291
1734714743288,2024-12-20T17:12:23.288Z,193843,0.02331543,0.123168945,-0.009643555
1734714743301,2024-12-20T17:12:23.301Z,193856,0.02746582,0.1239624,-0.0087890625
1734714743318,2024-12-20T17:12:23.318Z,193873,0.025024414,0.12463379,-0.011779785
1734714743333,2024-12-20T17:12:23.333Z,193888,0.021850586,0.12219238,-0.0138549805
1734714743344,2024-12-20T17:12:23.344Z,193899,0.026062012,0.121154785,-0.011352539
1734714743351,2024-12-20T17:12:23.351Z,193906,0.026489258,0.1237793,-0.011047363
1734714743357,2024-12-20T17:12:23.357Z,193912,0.025146484,0.12121582,-0.016723633
1734714743364,2024-12-20T17:12:23.364Z,193919,0.025390625,0.11804199,-0.0178833
1734714743370,2024-12-20T17:12:23.370Z,193925,0.029174805,0.121032715,-0.015625
1734714743376,2024-12-20T17:12:23.376Z,193931,0.026245117,0.12365723,-0.015075684
1734714743384,2024-12-20T17:12:23.384Z,193939,0.022033691,0.121032715,-0.013427734
1734714743391,2024-12-20T17:12:23.391Z,193946,0.021606445,0.12145996,-0.010620117
1734714743398,2024-12-20T17:12:23.398Z,193953,0.026245117,0.12402344,-0.0099487305
1734714743416,2024-12-20T17:12:23.416Z,193971,0.027954102,0.122924805,-0.015014648
1734714743461,2024-12-20T17:12:23.461Z,194016,0.030944824,0.12109375,-0.019348145
1734714743512,2024-12-20T17:12:23.512Z,194067,0.028320312,0.12243652,-0.020812988
1734714743521,2024-12-20T17:12:23.521Z,194076,0.027282715,0.1227417,-0.020263672
1734714743529,2024-12-20T17:12:23.529Z,194084,0.024963379,0.12640381,-0.015563965
1734714743537,2024-12-20T17:12:23.537Z,194092,0.02734375,0.124572754,-0.012084961
1734714743545,2024-12-20T17:12:23.545Z,194100,0.025268555,0.12243652,-0.0115356445
1734714743553,2024-12-20T17:12:23.553Z,194108,0.029541016,0.121032715,-0.010070801
1734714743559,2024-12-20T17:12:23.559Z,194114,0.034240723,0.12231445,-0.012451172
1734714743646,2024-12-20T17:12:23.646Z,194201,0.032226562,0.12408447,-0.01751709
1734714743687,2024-12-20T17:12:23.687Z,194242,0.027893066,0.125,-0.022216797
1734714743696,2024-12-20T17:12:23.696Z,194251,0.026733398,0.12463379,-0.020629883
1734714743702,2024-12-20T17:12:23.702Z,194257,0.03186035,0.12609863,-0.017028809
1734714743712,2024-12-20T17:12:23.712Z,194267,0.027709961,0.121398926,-0.015563965
1734714743716,2024-12-20T17:12:23.716Z,194271,0.026428223,0.11975098,-0.012084961
1734714743725,2024-12-20T17:12:23.725Z,194280,0.027648926,0.12097168,-0.010437012
1734714743733,2024-12-20T17:12:23.733Z,194288,0.021972656,0.12121582,-0.011047363
1734714743741,2024-12-20T17:12:23.741Z,194296,0.031066895,0.121520996,-0.012023926
1734714743749,2024-12-20T17:12:23.749Z,194304,0.033996582,0.12438965,-0.010559082
1734714743756,2024-12-20T17:12:23.756Z,194311,0.03173828,0.122802734,-0.0107421875
1734714743765,2024-12-20T17:12:23.765Z,194320,0.034179688,0.1227417,-0.016052246
1734714743771,2024-12-20T17:12:23.771Z,194326,0.037719727,0.12512207,-0.013427734
1734714743778,2024-12-20T17:12:23.778Z,194333,0.033935547,0.124694824,-0.014770508
1734714743782,2024-12-20T17:12:23.782Z,194337,0.025024414,0.12591553,-0.017578125
1734714743785,2024-12-20T17:12:23.785Z,194340,0.028808594,0.12683105,-0.014465332
1734714743791,2024-12-20T17:12:23.791Z,194346,0.032287598,0.12792969,-0.012207031
1734714743799,2024-12-20T17:12:23.799Z,194354,0.03363037,0.12530518,-0.0107421875
1734714743807,2024-12-20T17:12:23.807Z,194362,0.036621094,0.12701416,-0.010070801
1734714743823,2024-12-20T17:12:23.823Z,194378,0.03326416,0.12884521,-0.01184082
1734714743829,2024-12-20T17:12:23.829Z,194384,0.029296875,0.12872314,-0.0154418945
1734714743839,2024-12-20T17:12:23.839Z,194394,0.02532959,0.13079834,-0.01953125
1734714743846,2024-12-20T17:12:23.846Z,194401,0.022705078,0.13049316,-0.016906738
1734714743852,2024-12-20T17:12:23.852Z,194407,0.03277588,0.12646484,-0.0115356445
1734714743865,2024-12-20T17:12:23.865Z,194420,0.0345459,0.12640381,-0.010620117
1734714743872,2024-12-20T17:12:23.872Z,194427,0.032714844,0.12652588,-0.011230469
1734714743878,2024-12-20T17:12:23.878Z,194433,0.03314209,0.12731934,-0.0146484375
1734714743885,2024-12-20T17:12:23.885Z,194440,0.030212402,0.12768555,-0.015686035
1734714743892,2024-12-20T17:12:23.892Z,194447,0.025390625,0.12860107,-0.013671875
1734714743899,2024-12-20T17:12:23.899Z,194454,0.023498535,0.12634277,-0.012084961
1734714743913,2024-12-20T17:12:23.913Z,194468,0.022277832,0.12561035,-0.006286621
1734714743920,2024-12-20T17:12:23.920Z,194475,0.0256958,0.12231445,-0.0037231445
1734714743926,2024-12-20T17:12:23.926Z,194481,0.031982422,0.11773682,-0.008239746
1734714743932,2024-12-20T17:12:23.932Z,194487,0.03479004,0.11871338,-0.015625
1734714743955,2024-12-20T17:12:23.955Z,194510,0.038513184,0.11834717,-0.022277832
1734714744004,2024-12-20T17:12:24.004Z,194559,0.032043457,0.11779785,-0.023376465
1734714744012,2024-12-20T17:12:24.012Z,194567,0.029968262,0.12060547,-0.022277832
1734714744019,2024-12-20T17:12:24.019Z,194574,0.029418945,0.12194824,-0.024536133
1734714744025,2024-12-20T17:12:24.025Z,194580,0.030273438,0.12017822,-0.027038574
1734714744046,2024-12-20T17:12:24.046Z,194601,0.03100586,0.118774414,-0.026733398
1734714744054,2024-12-20T17:12:24.054Z,194609,0.036193848,0.11505127,-0.020263672
1734714744060,2024-12-20T17:12:24.060Z,194615,0.035827637,0.113464355,-0.012512207
1734714744068,2024-12-20T17:12:24.068Z,194623,0.026855469,0.1149292,-0.008605957
1734714744074,2024-12-20T17:12:24.074Z,194629,0.024169922,0.11529541,-0.0061035156
1734714744081,2024-12-20T17:12:24.081Z,194636,0.023620605,0.11846924,-0.0076293945
1734714744143,2024-12-20T17:12:24.143Z,194698,0.026306152,0.11663818,-0.008728027
1734714744151,2024-12-20T17:12:24.151Z,194706,0.03265381,0.11682129,-0.007080078
1734714744160,2024-12-20T17:12:24.160Z,194715,0.032836914,0.11999512,-0.010009766
1734714744169,2024-12-20T17:12:24.169Z,194724,0.031982422,0.11828613,-0.017150879
1734714744177,2024-12-20T17:12:24.177Z,194732,0.03277588,0.11639404,-0.019897461
1734714744186,2024-12-20T17:12:24.186Z,194741,0.0256958,0.12097168,-0.019165039
1734714744193,2024-12-20T17:12:24.193Z,194748,0.024230957,0.12219238,-0.022033691
1734714744200,2024-12-20T17:12:24.200Z,194755,0.031555176,0.11791992,-0.019104004
1734714744206,2024-12-20T17:12:24.206Z,194761,0.027282715,0.121032715,-0.013549805
1734714744212,2024-12-20T17:12:24.212Z,194767,0.028869629,0.121032715,-0.014526367
1734714744219,2024-12-20T17:12:24.219Z,194774,0.03137207,0.121398926,-0.0146484375
1734714744225,2024-12-20T17:12:24.225Z,194780,0.026245117,0.12158203,-0.0138549805
1734714744232,2024-12-20T17:12:24.232Z,194787,0.028503418,0.12121582,-0.011657715
1734714744239,2024-12-20T17:12:24.239Z,194794,0.028198242,0.117248535,-0.008850098
1734714744244,2024-12-20T17:12:24.244Z,194799,0.034606934,0.11242676,-0.008911133
1734714744250,2024-12-20T17:12:24.250Z,194805,0.028259277,0.11993408,-0.01550293
1734714744257,2024-12-20T17:12:24.257Z,194812,0.028320312,0.12121582,-0.023803711
1734714744275,2024-12-20T17:12:24.275Z,194830,0.024108887,0.12109375,-0.024169922
1734714744283,2024-12-20T17:12:24.283Z,194838,0.031555176,0.122558594,-0.019104004
1734714744296,2024-12-20T17:12:24.296Z,194851,0.03112793,0.12408447,-0.015563965
1734714744303,2024-12-20T17:12:24.303Z,194858,0.02142334,0.121520996,-0.011230469
1734714744309,2024-12-20T17:12:24.309Z,194864,0.024963379,0.12005615,-0.0076293945
1734714744319,2024-12-20T17:12:24.319Z,194874,0.028564453,0.11767578,-0.008422852
1734714744325,2024-12-20T17:12:24.325Z,194880,0.025817871,0.11810303,-0.011962891
1734714744332,2024-12-20T17:12:24.332Z,194887,0.025024414,0.119628906,-0.016540527
1734714744339,2024-12-20T17:12:24.339Z,194894,0.026184082,0.12164307,-0.020507812
1734714744344,2024-12-20T17:12:24.344Z,194899,0.02709961,0.12072754,-0.019897461
1734714744359,2024-12-20T17:12:24.359Z,194914,0.030883789,0.121276855,-0.01727295
1734714744366,2024-12-20T17:12:24.366Z,194921,0.03100586,0.12597656,-0.015625
1734714744372,2024-12-20T17:12:24.372Z,194927,0.030395508,0.12506104,-0.012939453
1734714744378,2024-12-20T17:12:24.378Z,194933,0.025756836,0.12573242,-0.009399414
1734714744384,2024-12-20T17:12:24.384Z,194939,0.021118164,0.124816895,-0.010314941
1734714744408,2024-12-20T17:12:24.408Z,194963,0.027160645,0.12231445,-0.015808105
1734714744415,2024-12-20T17:12:24.415Z,194970,0.030456543,0.124938965,-0.016540527
1734714744421,2024-12-20T17:12:24.421Z,194976,0.031677246,0.12792969,-0.021118164
1734714744428,2024-12-20T17:12:24.428Z,194983,0.034729004,0.12689209,-0.025146484
1734714744434,2024-12-20T17:12:24.434Z,194989,0.038146973,0.1270752,-0.0211792
1734714744452,2024-12-20T17:12:24.452Z,195007,0.034179688,0.13220215,-0.016235352
1734714744457,2024-12-20T17:12:24.457Z,195012,0.033203125,0.13183594,-0.010986328
1734714744464,2024-12-20T17:12:24.464Z,195019,0.03125,0.13232422,-0.007507324
1734714744470,2024-12-20T17:12:24.470Z,195025,0.030639648,0.13482666,-0.007751465
1734714744476,2024-12-20T17:12:24.476Z,195031,0.033203125,0.13677979,-0.008666992
1734714744498,2024-12-20T17:12:24.498Z,195053,0.033813477,0.13684082,-0.013793945
1734714744504,2024-12-20T17:12:24.504Z,195059,0.03692627,0.13812256,-0.018432617
1734714744541,2024-12-20T17:12:24.541Z,195096,0.04144287,0.14025879,-0.018859863
1734714744548,2024-12-20T17:12:24.548Z,195103,0.04107666,0.14263916,-0.022155762
1734714744558,2024-12-20T17:12:24.558Z,195113,0.03375244,0.14196777,-0.023803711
1734714744564,2024-12-20T17:12:24.564Z,195119,0.034973145,0.1416626,-0.019592285
1734714744585,2024-12-20T17:12:24.585Z,195140,0.03326416,0.14440918,-0.012329102
1734714744592,2024-12-20T17:12:24.592Z,195147,0.034179688,0.1473999,-0.010437012
1734714744600,2024-12-20T17:12:24.600Z,195155,0.034729004,0.14593506,-0.012634277
1734714744607,2024-12-20T17:12:24.607Z,195162,0.03894043,0.14312744,-0.0107421875
1734714744615,2024-12-20T17:12:24.615Z,195170,0.04119873,0.14752197,-0.010620117
1734714744622,2024-12-20T17:12:24.622Z,195177,0.044555664,0.14691162,-0.013793945
1734714744635,2024-12-20T17:12:24.635Z,195190,0.03918457,0.14630127,-0.013183594
1734714744641,2024-12-20T17:12:24.641Z,195196,0.0345459,0.14715576,-0.013977051
1734714744647,2024-12-20T17:12:24.647Z,195202,0.03338623,0.14605713,-0.01751709
1734714744654,2024-12-20T17:12:24.654Z,195209,0.029785156,0.14349365,-0.016296387
1734714744660,2024-12-20T17:12:24.660Z,195215,0.03112793,0.14367676,-0.015197754
1734714744675,2024-12-20T17:12:24.675Z,195230,0.034973145,0.14508057,-0.017578125
1734714744681,2024-12-20T17:12:24.681Z,195236,0.039367676,0.1428833,-0.017089844
1734714744688,2024-12-20T17:12:24.688Z,195243,0.039733887,0.14135742,-0.015258789
1734714744693,2024-12-20T17:12:24.693Z,195248,0.03491211,0.14111328,-0.013122559
1734714744699,2024-12-20T17:12:24.699Z,195254,0.030090332,0.13964844,-0.011779785
1734714744720,2024-12-20T17:12:24.720Z,195275,0.029418945,0.13909912,-0.008544922
1734714744727,2024-12-20T17:12:24.727Z,195282,0.0289917,0.13909912,-0.0079956055
1734714744733,2024-12-20T17:12:24.733Z,195288,0.025756836,0.13696289,-0.010253906
1734714744770,2024-12-20T17:12:24.770Z,195325,0.034973145,0.13690186,-0.012573242
1734714744777,2024-12-20T17:12:24.777Z,195332,0.043395996,0.13702393,-0.013366699
1734714744784,2024-12-20T17:12:24.784Z,195339,0.039001465,0.1359253,-0.013671875
1734714744791,2024-12-20T17:12:24.791Z,195346,0.034423828,0.13470459,-0.013916016
1734714744798,2024-12-20T17:12:24.798Z,195353,0.032470703,0.13519287,-0.010498047
1734714744810,2024-12-20T17:12:24.810Z,195365,0.027770996,0.13702393,-0.011108398
1734714744817,2024-12-20T17:12:24.817Z,195372,0.024841309,0.13739014,-0.016662598
1734714744823,2024-12-20T17:12:24.823Z,195378,0.025146484,0.13574219,-0.01751709
1734714744829,2024-12-20T17:12:24.829Z,195384,0.028930664,0.13330078,-0.015258789
1734714744837,2024-12-20T17:12:24.837Z,195392,0.026977539,0.13085938,-0.011962891
1734714744843,2024-12-20T17:12:24.843Z,195398,0.0289917,0.1303711,-0.010314941
1734714744858,2024-12-20T17:12:24.858Z,195413,0.035217285,0.12884521,-0.010437012
1734714744864,2024-12-20T17:12:24.864Z,195419,0.03491211,0.13012695,-0.010009766
1734714744871,2024-12-20T17:12:24.871Z,195426,0.031066895,0.13079834,-0.009155273
1734714744877,2024-12-20T17:12:24.877Z,195432,0.024658203,0.1282959,-0.008483887
1734714744901,2024-12-20T17:12:24.901Z,195456,0.020568848,0.1303711,-0.008850098
1734714744908,2024-12-20T17:12:24.908Z,195463,0.032287598,0.1274414,-0.008666992
1734714744915,2024-12-20T17:12:24.915Z,195470,0.03704834,0.12762451,-0.012023926
1734714744922,2024-12-20T17:12:24.922Z,195477,0.028686523,0.12677002,-0.013366699
1734714744994,2024-12-20T17:12:24.994Z,195549,0.02746582,0.12585449,-0.010498047
1734714745005,2024-12-20T17:12:25.005Z,195560,0.031799316,0.12780762,-0.0087890625
1734714745013,2024-12-20T17:12:25.013Z,195568,0.03314209,0.12646484,-0.008361816
1734714745023,2024-12-20T17:12:25.023Z,195578,0.024658203,0.124816895,-0.009216309
1734714745032,2024-12-20T17:12:25.032Z,195587,0.02508545,0.12438965,-0.008056641
1734714745040,2024-12-20T17:12:25.040Z,195595,0.026428223,0.1262207,-0.0076904297
1734714745048,2024-12-20T17:12:25.048Z,195603,0.026000977,0.12322998,-0.009033203
1734714745056,2024-12-20T17:12:25.056Z,195611,0.032104492,0.121032715,-0.007873535
1734714745064,2024-12-20T17:12:25.064Z,195619,0.034973145,0.12017822,-0.00592041
1734714745071,2024-12-20T17:12:25.071Z,195626,0.035217285,0.11816406,-0.0078125
1734714745077,2024-12-20T17:12:25.077Z,195632,0.026489258,0.1194458,-0.011230469
1734714745084,2024-12-20T17:12:25.084Z,195639,0.019165039,0.12200928,-0.010986328
1734714745091,2024-12-20T17:12:25.091Z,195646,0.024475098,0.12225342,-0.011657715
1734714745125,2024-12-20T17:12:25.125Z,195680,0.021118164,0.121398926,-0.014404297
1734714745132,2024-12-20T17:12:25.132Z,195687,0.030151367,0.11804199,-0.012451172
1734714745140,2024-12-20T17:12:25.140Z,195695,0.033447266,0.120788574,-0.010620117
1734714745147,2024-12-20T17:12:25.147Z,195702,0.032226562,0.116882324,-0.010192871
1734714745155,2024-12-20T17:12:25.155Z,195710,0.030578613,0.11767578,-0.009094238
1734714745161,2024-12-20T17:12:25.161Z,195716,0.028930664,0.119628906,-0.0065307617
1734714745173,2024-12-20T17:12:25.173Z,195728,0.026489258,0.11993408,-0.007080078
1734714745309,2024-12-20T17:12:25.309Z,195864,0.02355957,0.12023926,-0.009094238
1734714745319,2024-12-20T17:12:25.319Z,195874,0.02557373,0.12225342,-0.008666992
1734714745327,2024-12-20T17:12:25.327Z,195882,0.027160645,0.12188721,-0.009094238
1734714745336,2024-12-20T17:12:25.336Z,195891,0.030944824,0.11773682,-0.010375977
1734714745345,2024-12-20T17:12:25.345Z,195900,0.030456543,0.11639404,-0.009155273
1734714745353,2024-12-20T17:12:25.353Z,195908,0.03173828,0.117370605,-0.007019043
1734714745362,2024-12-20T17:12:25.362Z,195917,0.03503418,0.11602783,-0.0051879883
1734714745369,2024-12-20T17:12:25.369Z,195924,0.030456543,0.117492676,-0.00592041
1734714745376,2024-12-20T17:12:25.376Z,195931,0.024902344,0.121032715,-0.006652832
1734714745384,2024-12-20T17:12:25.384Z,195939,0.023498535,0.12176514,-0.0036010742
1734714745390,2024-12-20T17:12:25.390Z,195945,0.027160645,0.11987305,-0.0032958984
1734714745393,2024-12-20T17:12:25.393Z,195948,0.022460938,0.11816406,-9.1552734E-4
1734714745397,2024-12-20T17:12:25.397Z,195952,0.020019531,0.1182251,-0.0012817383
1734714745401,2024-12-20T17:12:25.401Z,195956,0.027160645,0.117492676,0.0016479492
1734714745409,2024-12-20T17:12:25.409Z,195964,0.030700684,0.11669922,0.0010375977
1734714745416,2024-12-20T17:12:25.416Z,195971,0.031555176,0.115112305,-0.0020141602
1734714745423,2024-12-20T17:12:25.423Z,195978,0.02734375,0.1149292,-0.0040283203
1734714745429,2024-12-20T17:12:25.429Z,195984,0.0234375,0.117248535,-0.0025634766
1734714745486,2024-12-20T17:12:25.486Z,196041,0.021484375,0.115600586,-9.1552734E-4
1734714745492,2024-12-20T17:12:25.492Z,196047,0.024291992,0.11584473,-9.765625E-4
1734714745498,2024-12-20T17:12:25.498Z,196053,0.026123047,0.117126465,-0.0014038086
1734714745505,2024-12-20T17:12:25.505Z,196060,0.03289795,0.11437988,-0.0014648438
1734714745511,2024-12-20T17:12:25.511Z,196066,0.038024902,0.11340332,0.0
1734714745518,2024-12-20T17:12:25.518Z,196073,0.03692627,0.112976074,-1.8310547E-4
1734714745535,2024-12-20T17:12:25.535Z,196090,0.035705566,0.1126709,-0.0018310547
1734714745542,2024-12-20T17:12:25.542Z,196097,0.0234375,0.11450195,0.0014038086
1734714745549,2024-12-20T17:12:25.549Z,196104,0.01727295,0.114746094,0.008422852
1734714745555,2024-12-20T17:12:25.555Z,196110,0.017944336,0.11462402,0.012390137
1734714745561,2024-12-20T17:12:25.561Z,196116,0.022338867,0.11395264,0.007507324
1734714745575,2024-12-20T17:12:25.575Z,196130,0.026672363,0.11291504,6.1035156E-4
1734714745578,2024-12-20T17:12:25.578Z,196133,0.03753662,0.10864258,-0.0061035156
1734714745586,2024-12-20T17:12:25.586Z,196141,0.03466797,0.11053467,-0.0038452148
1734714745592,2024-12-20T17:12:25.592Z,196147,0.022888184,0.110961914,0.0021972656
1734714745598,2024-12-20T17:12:25.598Z,196153,0.022155762,0.11187744,0.009643555
1734714745604,2024-12-20T17:12:25.604Z,196159,0.028686523,0.11254883,0.0099487305
1734714745619,2024-12-20T17:12:25.619Z,196174,0.03466797,0.11016846,0.0073242188
1734714745625,2024-12-20T17:12:25.625Z,196180,0.033569336,0.11413574,0.0036621094
1734714745631,2024-12-20T17:12:25.631Z,196186,0.02520752,0.115478516,9.765625E-4
1734714745666,2024-12-20T17:12:25.666Z,196221,0.02368164,0.11468506,0.0025024414
1734714745672,2024-12-20T17:12:25.672Z,196227,0.023620605,0.11669922,0.005004883
1734714745678,2024-12-20T17:12:25.678Z,196233,0.023254395,0.11505127,0.0048217773
1734714745685,2024-12-20T17:12:25.685Z,196240,0.028381348,0.1116333,0.0021972656
1734714745691,2024-12-20T17:12:25.691Z,196246,0.036010742,0.11242676,0.0031738281
1734714745697,2024-12-20T17:12:25.697Z,196252,0.035949707,0.116760254,0.0044555664
1734714745714,2024-12-20T17:12:25.714Z,196269,0.02935791,0.11578369,0.0025634766
1734714745722,2024-12-20T17:12:25.722Z,196277,0.027282715,0.11627197,0.0032348633
1734714745729,2024-12-20T17:12:25.729Z,196284,0.02960205,0.1194458,0.006225586
1734714745736,2024-12-20T17:12:25.736Z,196291,0.026550293,0.11853027,0.008483887
1734714745743,2024-12-20T17:12:25.743Z,196298,0.023864746,0.11566162,0.011108398
1734714745755,2024-12-20T17:12:25.755Z,196310,0.029663086,0.113586426,0.010498047
1734714745762,2024-12-20T17:12:25.762Z,196317,0.033081055,0.113586426,0.008544922
1734714745776,2024-12-20T17:12:25.776Z,196331,0.03302002,0.11627197,0.00579834
1734714745783,2024-12-20T17:12:25.783Z,196338,0.03289795,0.11816406,0.0025634766
1734714745789,2024-12-20T17:12:25.789Z,196344,0.031066895,0.11859131,0.0016479492
1734714745795,2024-12-20T17:12:25.795Z,196350,0.023986816,0.1184082,0.005493164
1734714745803,2024-12-20T17:12:25.803Z,196358,0.023498535,0.117248535,0.011047363
1734714745809,2024-12-20T17:12:25.809Z,196364,0.026123047,0.11608887,0.013549805
1734714745816,2024-12-20T17:12:25.816Z,196371,0.025878906,0.11621094,0.015808105
1734714745823,2024-12-20T17:12:25.823Z,196378,0.03137207,0.11517334,0.015563965
1734714745828,2024-12-20T17:12:25.828Z,196383,0.03643799,0.11364746,0.0115356445
1734714745845,2024-12-20T17:12:25.845Z,196400,0.032409668,0.11529541,0.008178711
1734714745851,2024-12-20T17:12:25.851Z,196406,0.02911377,0.115356445,0.008666992
1734714745858,2024-12-20T17:12:25.858Z,196413,0.02734375,0.1161499,0.01171875
1734714745864,2024-12-20T17:12:25.864Z,196419,0.027160645,0.1149292,0.01361084
1734714745893,2024-12-20T17:12:25.893Z,196448,0.027038574,0.110839844,0.011657715
1734714745899,2024-12-20T17:12:25.899Z,196454,0.030090332,0.111450195,0.010192871
1734714745906,2024-12-20T17:12:25.906Z,196461,0.030395508,0.11456299,0.008850098
1734714745912,2024-12-20T17:12:25.912Z,196467,0.030029297,0.111572266,0.008483887
1734714745919,2024-12-20T17:12:25.919Z,196474,0.031188965,0.11175537,0.013061523
1734714745982,2024-12-20T17:12:25.982Z,196537,0.03302002,0.11254883,0.017578125
1734714745989,2024-12-20T17:12:25.989Z,196544,0.030883789,0.11224365,0.020202637
1734714745996,2024-12-20T17:12:25.996Z,196551,0.028198242,0.11138916,0.020935059
1734714746003,2024-12-20T17:12:26.003Z,196558,0.03253174,0.111083984,0.019714355
1734714746010,2024-12-20T17:12:26.010Z,196565,0.033081055,0.11199951,0.013122559
1734714746017,2024-12-20T17:12:26.017Z,196572,0.033081055,0.110961914,0.0068969727
1734714746030,2024-12-20T17:12:26.030Z,196585,0.031433105,0.1138916,0.005554199
1734714746037,2024-12-20T17:12:26.037Z,196592,0.032226562,0.113220215,0.0119018555
1734714746044,2024-12-20T17:12:26.044Z,196599,0.034057617,0.11187744,0.019470215
1734714746051,2024-12-20T17:12:26.051Z,196606,0.032836914,0.11437988,0.021728516
1734714746058,2024-12-20T17:12:26.058Z,196613,0.03137207,0.113220215,0.019592285
1734714746071,2024-12-20T17:12:26.071Z,196626,0.032470703,0.113708496,0.015380859
1734714746076,2024-12-20T17:12:26.076Z,196631,0.032348633,0.115356445,0.012390137
1734714746082,2024-12-20T17:12:26.082Z,196637,0.032409668,0.11682129,0.009033203
1734714746089,2024-12-20T17:12:26.089Z,196644,0.037475586,0.11743164,0.010131836
1734714746095,2024-12-20T17:12:26.095Z,196650,0.036010742,0.11608887,0.016967773
1734714746102,2024-12-20T17:12:26.102Z,196657,0.030883789,0.11578369,0.02166748
1734714746119,2024-12-20T17:12:26.119Z,196674,0.031188965,0.113708496,0.026062012
1734714746126,2024-12-20T17:12:26.126Z,196681,0.032043457,0.11212158,0.023925781
1734714746131,2024-12-20T17:12:26.131Z,196686,0.033813477,0.113220215,0.016967773
1734714746138,2024-12-20T17:12:26.138Z,196693,0.033935547,0.11407471,0.014160156
1734714746144,2024-12-20T17:12:26.144Z,196699,0.036071777,0.11529541,0.014404297
1734714746160,2024-12-20T17:12:26.160Z,196715,0.035888672,0.11663818,0.012817383
1734714746166,2024-12-20T17:12:26.166Z,196721,0.029846191,0.1159668,0.013793945
1734714746172,2024-12-20T17:12:26.172Z,196727,0.031066895,0.11651611,0.017333984
1734714746178,2024-12-20T17:12:26.178Z,196733,0.03503418,0.11505127,0.020996094
1734714746184,2024-12-20T17:12:26.184Z,196739,0.03564453,0.1116333,0.021728516
1734714746205,2024-12-20T17:12:26.205Z,196760,0.03338623,0.10882568,0.020324707
1734714746211,2024-12-20T17:12:26.211Z,196766,0.038085938,0.11151123,0.021118164
1734714746217,2024-12-20T17:12:26.217Z,196772,0.039855957,0.11444092,0.0234375
1734714746224,2024-12-20T17:12:26.224Z,196779,0.031433105,0.11401367,0.022705078
1734714746229,2024-12-20T17:12:26.229Z,196784,0.024108887,0.11602783,0.018493652
1734714746252,2024-12-20T17:12:26.252Z,196807,0.02911377,0.11651611,0.014953613
1734714746258,2024-12-20T17:12:26.258Z,196813,0.036010742,0.116760254,0.012634277
1734714746263,2024-12-20T17:12:26.263Z,196818,0.039367676,0.112976074,0.012329102
1734714746270,2024-12-20T17:12:26.270Z,196825,0.039611816,0.10876465,0.016662598
1734714746297,2024-12-20T17:12:26.297Z,196852,0.03704834,0.11090088,0.026306152
1734714746305,2024-12-20T17:12:26.305Z,196860,0.037963867,0.11444092,0.030822754
1734714746312,2024-12-20T17:12:26.312Z,196867,0.034851074,0.11193848,0.030456543
1734714746319,2024-12-20T17:12:26.319Z,196874,0.03100586,0.11126709,0.027954102
1734714746327,2024-12-20T17:12:26.327Z,196882,0.0345459,0.11383057,0.023132324
1734714746339,2024-12-20T17:12:26.339Z,196894,0.03479004,0.11425781,0.01977539
1734714746386,2024-12-20T17:12:26.386Z,196941,0.030578613,0.11651611,0.016418457
1734714746395,2024-12-20T17:12:26.395Z,196950,0.03173828,0.11376953,0.014282227
1734714746403,2024-12-20T17:12:26.403Z,196958,0.03466797,0.1105957,0.017578125
1734714746412,2024-12-20T17:12:26.412Z,196967,0.032836914,0.11218262,0.018920898
1734714746435,2024-12-20T17:12:26.435Z,196990,0.031799316,0.113220215,0.018859863
1734714746443,2024-12-20T17:12:26.443Z,196998,0.03503418,0.11505127,0.01953125
1734714746452,2024-12-20T17:12:26.452Z,197007,0.037231445,0.11431885,0.019226074
1734714746460,2024-12-20T17:12:26.460Z,197015,0.038085938,0.11450195,0.022399902
1734714746468,2024-12-20T17:12:26.468Z,197023,0.03881836,0.115722656,0.027404785
1734714746479,2024-12-20T17:12:26.479Z,197034,0.037353516,0.11468506,0.0289917
1734714746487,2024-12-20T17:12:26.487Z,197042,0.03387451,0.11273193,0.02746582
1734714746495,2024-12-20T17:12:26.495Z,197050,0.03314209,0.11254883,0.026367188
1734714746507,2024-12-20T17:12:26.507Z,197062,0.03173828,0.11694336,0.02331543
1734714746513,2024-12-20T17:12:26.513Z,197068,0.03100586,0.11578369,0.019104004
1734714746520,2024-12-20T17:12:26.520Z,197075,0.036499023,0.11602783,0.018005371
1734714746526,2024-12-20T17:12:26.526Z,197081,0.038391113,0.11932373,0.018798828
1734714746532,2024-12-20T17:12:26.532Z,197087,0.038757324,0.11608887,0.019165039
1734714746538,2024-12-20T17:12:26.538Z,197093,0.040649414,0.11419678,0.023376465
1734714746544,2024-12-20T17:12:26.544Z,197099,0.036376953,0.11450195,0.029907227
1734714746549,2024-12-20T17:12:26.549Z,197104,0.02722168,0.11480713,0.035217285
1734714746611,2024-12-20T17:12:26.611Z,197166,0.029724121,0.11590576,0.036315918
1734714746617,2024-12-20T17:12:26.617Z,197172,0.03466797,0.11505127,0.032104492
1734714746623,2024-12-20T17:12:26.623Z,197178,0.03668213,0.11468506,0.028564453
1734714746629,2024-12-20T17:12:26.629Z,197184,0.036254883,0.11578369,0.025390625
1734714746635,2024-12-20T17:12:26.635Z,197190,0.037353516,0.114868164,0.021972656
1734714746640,2024-12-20T17:12:26.640Z,197195,0.03387451,0.11462402,0.018981934
1734714746659,2024-12-20T17:12:26.659Z,197214,0.029663086,0.114990234,0.016662598
1734714746664,2024-12-20T17:12:26.664Z,197219,0.029174805,0.11450195,0.015808105
1734714746671,2024-12-20T17:12:26.671Z,197226,0.034484863,0.11260986,0.017700195
1734714746677,2024-12-20T17:12:26.677Z,197232,0.03717041,0.11480713,0.02319336
1734714746682,2024-12-20T17:12:26.682Z,197237,0.03643799,0.117614746,0.030395508
1734714746703,2024-12-20T17:12:26.703Z,197258,0.033569336,0.11785889,0.032226562
1734714746709,2024-12-20T17:12:26.709Z,197264,0.03326416,0.11651611,0.03173828
1734714746745,2024-12-20T17:12:26.745Z,197300,0.030029297,0.11828613,0.030151367
1734714746752,2024-12-20T17:12:26.752Z,197307,0.030212402,0.11859131,0.028137207
1734714746759,2024-12-20T17:12:26.759Z,197314,0.0357666,0.11608887,0.028442383
1734714746765,2024-12-20T17:12:26.765Z,197320,0.036315918,0.11590576,0.027038574
1734714746772,2024-12-20T17:12:26.772Z,197327,0.036254883,0.11529541,0.02520752
1734714746790,2024-12-20T17:12:26.790Z,197345,0.033325195,0.11694336,0.026000977
1734714746797,2024-12-20T17:12:26.797Z,197352,0.031433105,0.116882324,0.026367188
1734714746804,2024-12-20T17:12:26.804Z,197359,0.033203125,0.11480713,0.028015137
1734714746811,2024-12-20T17:12:26.811Z,197366,0.034423828,0.11505127,0.030090332
1734714746817,2024-12-20T17:12:26.817Z,197372,0.033325195,0.11468506,0.030029297
1734714746825,2024-12-20T17:12:26.825Z,197380,0.032165527,0.11468506,0.028808594
1734714746839,2024-12-20T17:12:26.839Z,197394,0.033203125,0.11303711,0.028259277
1734714746844,2024-12-20T17:12:26.844Z,197399,0.03375244,0.11352539,0.028564453
1734714746850,2024-12-20T17:12:26.850Z,197405,0.036987305,0.11328125,0.029296875
1734714746857,2024-12-20T17:12:26.857Z,197412,0.039611816,0.112854004,0.028259277
1734714746883,2024-12-20T17:12:26.883Z,197438,0.03717041,0.113220215,0.02734375
1734714746891,2024-12-20T17:12:26.891Z,197446,0.034118652,0.11413574,0.02508545
1734714746898,2024-12-20T17:12:26.898Z,197453,0.03704834,0.11431885,0.025146484
1734714746905,2024-12-20T17:12:26.905Z,197460,0.04260254,0.113342285,0.029663086
1734714746911,2024-12-20T17:12:26.911Z,197466,0.038330078,0.11352539,0.03363037
1734714746925,2024-12-20T17:12:26.925Z,197480,0.03302002,0.11407471,0.032714844
1734714746931,2024-12-20T17:12:26.931Z,197486,0.035888672,0.113586426,0.029968262
1734714746937,2024-12-20T17:12:26.937Z,197492,0.038085938,0.115356445,0.025878906
1734714746943,2024-12-20T17:12:26.943Z,197498,0.036743164,0.115234375,0.021911621
1734714746948,2024-12-20T17:12:26.948Z,197503,0.039001465,0.1159668,0.020446777
1734714746953,2024-12-20T17:12:26.953Z,197508,0.038085938,0.11541748,0.021972656
1734714747017,2024-12-20T17:12:27.017Z,197572,0.039916992,0.11407471,0.02722168
1734714747025,2024-12-20T17:12:27.025Z,197580,0.04046631,0.1149292,0.030700684
1734714747031,2024-12-20T17:12:27.031Z,197586,0.03778076,0.112976074,0.032104492
1734714747038,2024-12-20T17:12:27.038Z,197593,0.034301758,0.1138916,0.032470703
1734714747045,2024-12-20T17:12:27.045Z,197600,0.036010742,0.114746094,0.029052734
1734714747051,2024-12-20T17:12:27.051Z,197606,0.03729248,0.11413574,0.021850586
1734714747110,2024-12-20T17:12:27.110Z,197665,0.036254883,0.11541748,0.01727295
1734714747117,2024-12-20T17:12:27.117Z,197672,0.03881836,0.11517334,0.017333984
1734714747125,2024-12-20T17:12:27.125Z,197680,0.038757324,0.11395264,0.0178833
1734714747135,2024-12-20T17:12:27.135Z,197690,0.035095215,0.11248779,0.018493652
1734714747143,2024-12-20T17:12:27.143Z,197698,0.03643799,0.11407471,0.020874023
1734714747152,2024-12-20T17:12:27.152Z,197707,0.035461426,0.11541748,0.022644043
1734714747196,2024-12-20T17:12:27.196Z,197751,0.032958984,0.113342285,0.023010254
1734714747205,2024-12-20T17:12:27.205Z,197760,0.036499023,0.11456299,0.023010254
1734714747213,2024-12-20T17:12:27.213Z,197768,0.037353516,0.114746094,0.022277832
1734714747222,2024-12-20T17:12:27.222Z,197777,0.03253174,0.114868164,0.022888184
1734714747229,2024-12-20T17:12:27.229Z,197784,0.030273438,0.11584473,0.02130127
1734714747233,2024-12-20T17:12:27.233Z,197788,0.044067383,0.114746094,0.023071289
1734714747242,2024-12-20T17:12:27.242Z,197797,0.041503906,0.11444092,0.024536133
1734714747249,2024-12-20T17:12:27.249Z,197804,0.03515625,0.11566162,0.024841309
1734714747256,2024-12-20T17:12:27.256Z,197811,0.03265381,0.11669922,0.022277832
1734714747265,2024-12-20T17:12:27.265Z,197820,0.033325195,0.117492676,0.017944336
1734714747276,2024-12-20T17:12:27.276Z,197831,0.03466797,0.117614746,0.01727295
1734714747282,2024-12-20T17:12:27.282Z,197837,0.039794922,0.11785889,0.0178833
1734714747285,2024-12-20T17:12:27.285Z,197840,0.032348633,0.11584473,0.021057129
1734714747292,2024-12-20T17:12:27.292Z,197847,0.03161621,0.117248535,0.019592285
1734714747298,2024-12-20T17:12:27.298Z,197853,0.03302002,0.11791992,0.016052246
1734714747304,2024-12-20T17:12:27.304Z,197859,0.03302002,0.11566162,0.013183594
1734714747310,2024-12-20T17:12:27.310Z,197865,0.033813477,0.11669922,0.012878418
1734714747316,2024-12-20T17:12:27.316Z,197871,0.035583496,0.11828613,0.012023926
1734714747332,2024-12-20T17:12:27.332Z,197887,0.0345459,0.11657715,0.012023926
1734714747339,2024-12-20T17:12:27.339Z,197894,0.03552246,0.11645508,0.015075684
1734714747344,2024-12-20T17:12:27.344Z,197899,0.033081055,0.118896484,0.016662598
1734714747349,2024-12-20T17:12:27.349Z,197904,0.032958984,0.115600586,0.015136719
1734714747354,2024-12-20T17:12:27.354Z,197909,0.032287598,0.115722656,0.015930176
1734714747375,2024-12-20T17:12:27.375Z,197930,0.030883789,0.11791992,0.015625
1734714747381,2024-12-20T17:12:27.381Z,197936,0.031066895,0.1149292,0.012634277
1734714747388,2024-12-20T17:12:27.388Z,197943,0.032104492,0.11376953,0.011169434
1734714747394,2024-12-20T17:12:27.394Z,197949,0.0335083,0.11663818,0.0087890625
1734714747399,2024-12-20T17:12:27.399Z,197954,0.03552246,0.117248535,0.0059814453
1734714747406,2024-12-20T17:12:27.406Z,197961,0.03552246,0.11566162,0.005126953
1734714747423,2024-12-20T17:12:27.423Z,197978,0.031188965,0.1159668,0.007873535
1734714747468,2024-12-20T17:12:27.468Z,198023,0.02960205,0.11657715,0.012268066
1734714747475,2024-12-20T17:12:27.475Z,198030,0.029724121,0.11706543,0.012268066
1734714747516,2024-12-20T17:12:27.516Z,198071,0.02734375,0.11566162,0.011169434
1734714747523,2024-12-20T17:12:27.523Z,198078,0.032836914,0.11517334,0.010681152
1734714747529,2024-12-20T17:12:27.529Z,198084,0.034179688,0.11846924,0.008728027
1734714747536,2024-12-20T17:12:27.536Z,198091,0.034301758,0.116882324,0.0043945312
1734714747542,2024-12-20T17:12:27.542Z,198097,0.029785156,0.11975098,0.003479004
1734714747555,2024-12-20T17:12:27.555Z,198110,0.029296875,0.11975098,0.005432129
1734714747562,2024-12-20T17:12:27.562Z,198117,0.030944824,0.11883545,0.007873535
1734714747603,2024-12-20T17:12:27.603Z,198158,0.025634766,0.119384766,0.011169434
1734714747611,2024-12-20T17:12:27.611Z,198166,0.026977539,0.118896484,0.012451172
1734714747617,2024-12-20T17:12:27.617Z,198172,0.02923584,0.11694336,0.011779785
1734714747625,2024-12-20T17:12:27.625Z,198180,0.031433105,0.11401367,0.010375977
1734714747632,2024-12-20T17:12:27.632Z,198187,0.03326416,0.11444092,0.006225586
1734714747639,2024-12-20T17:12:27.639Z,198194,0.035461426,0.11016846,0.0029296875
1734714747648,2024-12-20T17:12:27.648Z,198203,0.030822754,0.1105957,0.0018920898
1734714747696,2024-12-20T17:12:27.696Z,198251,0.022399902,0.11553955,0.0026245117
1734714747704,2024-12-20T17:12:27.704Z,198259,0.023986816,0.115600586,0.0036621094
1734714747713,2024-12-20T17:12:27.713Z,198268,0.02923584,0.11419678,0.004272461
1734714747721,2024-12-20T17:12:27.721Z,198276,0.032958984,0.11383057,0.004272461
1734714747729,2024-12-20T17:12:27.729Z,198284,0.031188965,0.113586426,0.0038452148
1734714747734,2024-12-20T17:12:27.734Z,198289,0.032226562,0.11340332,0.008544922
1734714747742,2024-12-20T17:12:27.742Z,198297,0.028686523,0.11608887,0.0056762695
1734714747749,2024-12-20T17:12:27.749Z,198304,0.0234375,0.11657715,0.0017089844
1734714747757,2024-12-20T17:12:27.757Z,198312,0.024291992,0.118896484,0.0012817383
1734714747765,2024-12-20T17:12:27.765Z,198320,0.029785156,0.11853027,0.0018920898
1734714747771,2024-12-20T17:12:27.771Z,198326,0.030517578,0.114868164,0.0043945312
1734714747780,2024-12-20T17:12:27.780Z,198335,0.02545166,0.11791992,0.0031738281
1734714747786,2024-12-20T17:12:27.786Z,198341,0.026916504,0.118652344,0.0030517578
1734714747792,2024-12-20T17:12:27.792Z,198347,0.031188965,0.11706543,0.004760742
1734714747798,2024-12-20T17:12:27.798Z,198353,0.028808594,0.119628906,0.003540039
1734714747804,2024-12-20T17:12:27.804Z,198359,0.024108887,0.119384766,-6.713867E-4
1734714747810,2024-12-20T17:12:27.810Z,198365,0.023010254,0.11706543,-0.0037231445
1734714747829,2024-12-20T17:12:27.829Z,198384,0.026489258,0.11853027,-0.0012207031
1734714747875,2024-12-20T17:12:27.875Z,198430,0.03149414,0.11828613,0.0021972656
1734714747882,2024-12-20T17:12:27.882Z,198437,0.031982422,0.114990234,0.005065918
1734714747889,2024-12-20T17:12:27.889Z,198444,0.026428223,0.11651611,0.009277344
1734714747896,2024-12-20T17:12:27.896Z,198451,0.025634766,0.11895752,0.008666992
1734714747904,2024-12-20T17:12:27.904Z,198459,0.02545166,0.11804199,0.005432129
1734714747915,2024-12-20T17:12:27.915Z,198470,0.024536133,0.11834717,0.0021972656
1734714747923,2024-12-20T17:12:27.923Z,198478,0.031066895,0.11791992,4.272461E-4
1734714747931,2024-12-20T17:12:27.931Z,198486,0.037597656,0.11682129,0.0010986328
1734714747938,2024-12-20T17:12:27.938Z,198493,0.031188965,0.12145996,0.0012207031
1734714747945,2024-12-20T17:12:27.945Z,198500,0.028625488,0.122924805,2.4414062E-4
1734714747951,2024-12-20T17:12:27.951Z,198506,0.026855469,0.123168945,-4.272461E-4
1734714747963,2024-12-20T17:12:27.963Z,198518,0.028869629,0.12438965,7.9345703E-4
1734714747969,2024-12-20T17:12:27.969Z,198524,0.028625488,0.12445068,0.0024414062
1734714747976,2024-12-20T17:12:27.976Z,198531,0.028442383,0.12176514,0.0016479492
1734714747982,2024-12-20T17:12:27.982Z,198537,0.027709961,0.122802734,0.0017700195
1734714747988,2024-12-20T17:12:27.988Z,198543,0.02746582,0.12591553,0.0021362305
1734714748006,2024-12-20T17:12:28.006Z,198561,0.029052734,0.12634277,-3.0517578E-4
1734714748012,2024-12-20T17:12:28.012Z,198567,0.029541016,0.1260376,-0.004333496
1734714748018,2024-12-20T17:12:28.018Z,198573,0.02911377,0.12823486,-0.0052490234
1734714748024,2024-12-20T17:12:28.024Z,198579,0.030456543,0.12524414,-0.0031738281
1734714748031,2024-12-20T17:12:28.031Z,198586,0.031311035,0.12420654,6.1035156E-5
1734714748037,2024-12-20T17:12:28.037Z,198592,0.026855469,0.1270752,0.0029907227
1734714748053,2024-12-20T17:12:28.053Z,198608,0.023742676,0.12591553,0.004699707
1734714748060,2024-12-20T17:12:28.060Z,198615,0.02557373,0.12121582,0.0040283203
1734714748071,2024-12-20T17:12:28.071Z,198626,0.026916504,0.12097168,0.0032348633
1734714748076,2024-12-20T17:12:28.076Z,198631,0.028686523,0.12347412,0.0026855469
1734714748083,2024-12-20T17:12:28.083Z,198638,0.030700684,0.12298584,0.0014038086
1734714748094,2024-12-20T17:12:28.094Z,198649,0.02923584,0.12036133,0.0
1734714748099,2024-12-20T17:12:28.099Z,198654,0.02746582,0.12133789,-0.0014038086
1734714748104,2024-12-20T17:12:28.104Z,198659,0.028564453,0.12414551,-0.0015258789
1734714748110,2024-12-20T17:12:28.110Z,198665,0.028869629,0.1239624,4.8828125E-4
1734714748116,2024-12-20T17:12:28.116Z,198671,0.026550293,0.12249756,0.0018310547
1734714748122,2024-12-20T17:12:28.122Z,198677,0.024841309,0.12237549,0.0017700195
1734714748145,2024-12-20T17:12:28.145Z,198700,0.026428223,0.12219238,0.0038452148
1734714748151,2024-12-20T17:12:28.151Z,198706,0.028808594,0.123291016,0.0037231445
1734714748157,2024-12-20T17:12:28.157Z,198712,0.024169922,0.123168945,0.0025024414
1734714748163,2024-12-20T17:12:28.163Z,198718,0.023620605,0.12371826,-6.1035156E-5
1734714748237,2024-12-20T17:12:28.237Z,198792,0.023498535,0.12310791,-0.003967285
1734714748243,2024-12-20T17:12:28.243Z,198798,0.024841309,0.12219238,-0.0025634766
1734714748248,2024-12-20T17:12:28.248Z,198803,0.0256958,0.12347412,9.1552734E-4
1734714748254,2024-12-20T17:12:28.254Z,198809,0.031311035,0.11981201,0.0026245117
1734714748260,2024-12-20T17:12:28.260Z,198815,0.032043457,0.118896484,0.0026245117
1734714748276,2024-12-20T17:12:28.276Z,198831,0.024169922,0.12060547,0.0012207031
1734714748282,2024-12-20T17:12:28.282Z,198837,0.024108887,0.11932373,0.0014038086
1734714748288,2024-12-20T17:12:28.288Z,198843,0.023742676,0.11956787,0.0018920898
1734714748295,2024-12-20T17:12:28.295Z,198850,0.025390625,0.11895752,6.713867E-4
1734714748301,2024-12-20T17:12:28.301Z,198856,0.023803711,0.11846924,-5.493164E-4
1734714748307,2024-12-20T17:12:28.307Z,198862,0.02368164,0.11920166,-0.0017700195
1734714748326,2024-12-20T17:12:28.326Z,198881,0.026367188,0.11993408,-0.0016479492
1734714748333,2024-12-20T17:12:28.333Z,198888,0.030517578,0.11798096,0.0010986328
1734714748339,2024-12-20T17:12:28.339Z,198894,0.032592773,0.1184082,0.0021972656
1734714748346,2024-12-20T17:12:28.346Z,198901,0.028320312,0.11975098,0.0031738281
1734714748351,2024-12-20T17:12:28.351Z,198906,0.027038574,0.11987305,0.0044555664
1734714748365,2024-12-20T17:12:28.365Z,198920,0.025634766,0.12158203,0.002746582
1734714748461,2024-12-20T17:12:28.461Z,199016,0.0256958,0.12261963,-2.4414062E-4
1734714748468,2024-12-20T17:12:28.468Z,199023,0.026062012,0.12200928,-0.0020141602
1734714748475,2024-12-20T17:12:28.475Z,199030,0.026977539,0.123535156,-0.0014648438
1734714748481,2024-12-20T17:12:28.481Z,199036,0.02935791,0.12524414,-0.0014038086
1734714748488,2024-12-20T17:12:28.488Z,199043,0.0289917,0.124816895,-7.9345703E-4
1734714748501,2024-12-20T17:12:28.501Z,199056,0.024047852,0.12615967,7.324219E-4
1734714748509,2024-12-20T17:12:28.509Z,199064,0.022766113,0.12634277,0.0010986328
1734714748515,2024-12-20T17:12:28.515Z,199070,0.024353027,0.12408447,-0.0012817383
1734714748522,2024-12-20T17:12:28.522Z,199077,0.024658203,0.1217041,-0.0021362305
1734714748529,2024-12-20T17:12:28.529Z,199084,0.022460938,0.123535156,-0.0036010742
1734714748536,2024-12-20T17:12:28.536Z,199091,0.024169922,0.121276855,-0.0053710938
1734714748591,2024-12-20T17:12:28.591Z,199146,0.024108887,0.11730957,0.004760742
1734714748598,2024-12-20T17:12:28.598Z,199153,0.024963379,0.11639404,0.004211426
1734714748606,2024-12-20T17:12:28.606Z,199161,0.024719238,0.1161499,6.713867E-4
1734714748641,2024-12-20T17:12:28.641Z,199196,0.023742676,0.11730957,-0.0025634766
1734714748648,2024-12-20T17:12:28.648Z,199203,0.026184082,0.11804199,-0.0049438477
1734714748656,2024-12-20T17:12:28.656Z,199211,0.030761719,0.11810303,-0.005126953
1734714748663,2024-12-20T17:12:28.663Z,199218,0.029663086,0.11883545,-0.0040893555
1734714748671,2024-12-20T17:12:28.671Z,199226,0.026123047,0.120666504,-3.0517578E-4
1734714748681,2024-12-20T17:12:28.681Z,199236,0.025024414,0.11981201,0.0021972656
1734714748687,2024-12-20T17:12:28.687Z,199242,0.024414062,0.119018555,0.002746582
1734714748695,2024-12-20T17:12:28.695Z,199250,0.024780273,0.12042236,0.0016479492
1734714748702,2024-12-20T17:12:28.702Z,199257,0.025512695,0.12097168,-3.6621094E-4
1734714748726,2024-12-20T17:12:28.726Z,199281,0.03161621,0.1227417,-0.0045776367
1734714748733,2024-12-20T17:12:28.733Z,199288,0.028808594,0.12609863,-0.006286621
1734714748740,2024-12-20T17:12:28.740Z,199295,0.026977539,0.12615967,-0.007019043
1734714748744,2024-12-20T17:12:28.744Z,199299,0.027038574,0.12463379,-0.0010986328
1734714748750,2024-12-20T17:12:28.750Z,199305,0.024658203,0.12310791,-0.0040893555
1734714748757,2024-12-20T17:12:28.757Z,199312,0.022277832,0.12176514,-0.00579834
1734714748771,2024-12-20T17:12:28.771Z,199326,0.027648926,0.12188721,-0.003479004
1734714748778,2024-12-20T17:12:28.778Z,199333,0.032348633,0.12420654,-0.002319336
1734714748784,2024-12-20T17:12:28.784Z,199339,0.027832031,0.1251831,-0.0037231445
1734714748790,2024-12-20T17:12:28.790Z,199345,0.027770996,0.12426758,-0.0064086914
1734714748795,2024-12-20T17:12:28.795Z,199350,0.026916504,0.121520996,-0.0073242188
1734714748801,2024-12-20T17:12:28.801Z,199356,0.024658203,0.12109375,-0.0057373047
1734714748819,2024-12-20T17:12:28.819Z,199374,0.024597168,0.12194824,-0.003112793
1734714748826,2024-12-20T17:12:28.826Z,199381,0.026123047,0.119384766,-0.0013427734
1734714748832,2024-12-20T17:12:28.832Z,199387,0.024841309,0.11773682,-1.8310547E-4
1734714748839,2024-12-20T17:12:28.839Z,199394,0.0211792,0.11920166,-8.544922E-4
1734714748847,2024-12-20T17:12:28.847Z,199402,0.022888184,0.11810303,-0.0049438477
1734714748861,2024-12-20T17:12:28.861Z,199416,0.030212402,0.11376953,-0.005432129
1734714748868,2024-12-20T17:12:28.868Z,199423,0.03552246,0.11407471,-0.0030517578
1734714748874,2024-12-20T17:12:28.874Z,199429,0.02746582,0.117248535,-0.0033569336
1734714748879,2024-12-20T17:12:28.879Z,199434,0.024230957,0.11669922,-0.004272461
1734714748885,2024-12-20T17:12:28.885Z,199440,0.026550293,0.117370605,-0.004211426
1734714748908,2024-12-20T17:12:28.908Z,199463,0.024291992,0.117126465,-0.004638672
1734714748913,2024-12-20T17:12:28.913Z,199468,0.02545166,0.117126465,-0.00390625
1734714748919,2024-12-20T17:12:28.919Z,199474,0.028381348,0.11767578,-0.0018310547
1734714748925,2024-12-20T17:12:28.925Z,199480,0.02734375,0.117248535,-0.0030517578
1734714748931,2024-12-20T17:12:28.931Z,199486,0.028137207,0.11816406,-0.005004883
1734714748936,2024-12-20T17:12:28.936Z,199491,0.026184082,0.11975098,-0.0072021484
1734714748956,2024-12-20T17:12:28.956Z,199511,0.026855469,0.11932373,-0.007751465
1734714748963,2024-12-20T17:12:28.963Z,199518,0.031799316,0.12042236,-0.006225586
1734714748970,2024-12-20T17:12:28.970Z,199525,0.027893066,0.121276855,-0.0065307617
1734714748977,2024-12-20T17:12:28.977Z,199532,0.026672363,0.119506836,-0.009887695
1734714748994,2024-12-20T17:12:28.994Z,199549,0.030517578,0.117614746,-0.011169434
1734714749001,2024-12-20T17:12:29.001Z,199556,0.027648926,0.11993408,-0.0107421875
1734714749007,2024-12-20T17:12:29.007Z,199562,0.027648926,0.12036133,-0.009399414
1734714749014,2024-12-20T17:12:29.014Z,199569,0.028381348,0.12036133,-0.0072021484
1734714749020,2024-12-20T17:12:29.020Z,199575,0.028381348,0.12109375,-0.0048217773
1734714749026,2024-12-20T17:12:29.026Z,199581,0.027404785,0.11999512,-0.005859375
1734714749045,2024-12-20T17:12:29.045Z,199600,0.026123047,0.11853027,-0.009094238
1734714749050,2024-12-20T17:12:29.050Z,199605,0.02923584,0.11895752,-0.009277344
1734714749056,2024-12-20T17:12:29.056Z,199611,0.030029297,0.119506836,-0.010070801
1734714749062,2024-12-20T17:12:29.062Z,199617,0.024963379,0.12030029,-0.012023926
1734714749068,2024-12-20T17:12:29.068Z,199623,0.030883789,0.119384766,-0.011657715
1734714749089,2024-12-20T17:12:29.089Z,199644,0.030517578,0.1217041,-0.010986328
1734714749096,2024-12-20T17:12:29.096Z,199651,0.025268555,0.12231445,-0.008056641
1734714749102,2024-12-20T17:12:29.102Z,199657,0.02758789,0.12213135,-0.0053100586
1734714749108,2024-12-20T17:12:29.108Z,199663,0.024902344,0.1227417,-0.0022583008
1734714749129,2024-12-20T17:12:29.129Z,199684,0.024353027,0.12524414,-0.003967285
1734714749135,2024-12-20T17:12:29.135Z,199690,0.025817871,0.12347412,-0.008728027
1734714749142,2024-12-20T17:12:29.142Z,199697,0.026794434,0.12286377,-0.0095825195
1734714749148,2024-12-20T17:12:29.148Z,199703,0.028259277,0.124938965,-0.011291504
1734714749154,2024-12-20T17:12:29.154Z,199709,0.030761719,0.12402344,-0.012390137
1734714749175,2024-12-20T17:12:29.175Z,199730,0.031188965,0.12512207,-0.01373291
1734714749181,2024-12-20T17:12:29.181Z,199736,0.026855469,0.12799072,-0.015197754
1734714749188,2024-12-20T17:12:29.188Z,199743,0.022460938,0.1281128,-0.013549805
1734714749194,2024-12-20T17:12:29.194Z,199749,0.025268555,0.12573242,-0.005859375
1734714749220,2024-12-20T17:12:29.220Z,199775,0.028259277,0.12634277,-0.0013427734
1734714749226,2024-12-20T17:12:29.226Z,199781,0.027404785,0.12548828,-0.006591797
1734714749233,2024-12-20T17:12:29.233Z,199788,0.029724121,0.12561035,-0.009521484
1734714749239,2024-12-20T17:12:29.239Z,199794,0.030639648,0.12817383,-0.013977051
1734714749246,2024-12-20T17:12:29.246Z,199801,0.032104492,0.12567139,-0.01739502
1734714749313,2024-12-20T17:12:29.313Z,199868,0.029785156,0.12683105,-0.013916016
1734714749366,2024-12-20T17:12:29.366Z,199921,0.027038574,0.12902832,-0.007080078
1734714749379,2024-12-20T17:12:29.379Z,199934,0.032714844,0.12731934,-0.0010986328
1734714749390,2024-12-20T17:12:29.390Z,199945,0.022705078,0.12890625,-0.002319336
1734714749399,2024-12-20T17:12:29.399Z,199954,0.023742676,0.12866211,-0.011474609
1734714749408,2024-12-20T17:12:29.408Z,199963,0.028686523,0.12646484,-0.014953613
1734714749417,2024-12-20T17:12:29.417Z,199972,0.030822754,0.12567139,-0.011413574
1734714749424,2024-12-20T17:12:29.424Z,199979,0.033081055,0.12756348,-0.009399414
1734714749432,2024-12-20T17:12:29.432Z,199987,0.027709961,0.12768555,-0.011413574
1734714749439,2024-12-20T17:12:29.439Z,199994,0.02911377,0.12506104,-0.0134887695
1734714749447,2024-12-20T17:12:29.447Z,200002,0.031311035,0.12213135,-0.010192871
1734714749454,2024-12-20T17:12:29.454Z,200009,0.02911377,0.12414551,-0.0060424805
1734714749457,2024-12-20T17:12:29.457Z,200012,0.034179688,0.12628174,-0.015014648
1734714749463,2024-12-20T17:12:29.463Z,200018,0.034118652,0.12426758,-0.015930176
1734714749468,2024-12-20T17:12:29.468Z,200023,0.030151367,0.12609863,-0.013000488
1734714749474,2024-12-20T17:12:29.474Z,200029,0.024475098,0.12591553,-0.013183594
1734714749480,2024-12-20T17:12:29.480Z,200035,0.028686523,0.12335205,-0.01159668
1734714749487,2024-12-20T17:12:29.487Z,200042,0.030151367,0.12487793,-0.011291504
1734714749493,2024-12-20T17:12:29.493Z,200048,0.02508545,0.125,-0.01159668
1734714749499,2024-12-20T17:12:29.499Z,200054,0.029418945,0.12310791,-0.01184082
1734714749504,2024-12-20T17:12:29.504Z,200059,0.035705566,0.12365723,-0.011779785
1734714749509,2024-12-20T17:12:29.509Z,200064,0.03363037,0.12420654,-0.0126953125
1734714749516,2024-12-20T17:12:29.516Z,200071,0.028381348,0.12414551,-0.012207031
1734714749535,2024-12-20T17:12:29.535Z,200090,0.02722168,0.124572754,-0.011108398
1734714749541,2024-12-20T17:12:29.541Z,200096,0.023254395,0.125,-0.010192871
1734714749547,2024-12-20T17:12:29.547Z,200102,0.024047852,0.12438965,-0.007507324
1734714749552,2024-12-20T17:12:29.552Z,200107,0.03137207,0.12738037,-0.0065307617
1734714749559,2024-12-20T17:12:29.559Z,200114,0.03338623,0.12628174,-0.009521484
1734714749565,2024-12-20T17:12:29.565Z,200120,0.03491211,0.12249756,-0.014465332
1734714749630,2024-12-20T17:12:29.630Z,200185,0.03125,0.1251831,-0.016540527
1734714749636,2024-12-20T17:12:29.636Z,200191,0.029663086,0.12408447,-0.015380859
1734714749641,2024-12-20T17:12:29.641Z,200196,0.030944824,0.11999512,-0.012451172
1734714749646,2024-12-20T17:12:29.646Z,200201,0.024780273,0.122680664,-0.012268066
1734714749650,2024-12-20T17:12:29.650Z,200205,0.026489258,0.12524414,-0.013183594
1734714749670,2024-12-20T17:12:29.670Z,200225,0.028442383,0.12451172,-0.013183594
1734714749677,2024-12-20T17:12:29.677Z,200232,0.027404785,0.12322998,-0.013977051
1734714749720,2024-12-20T17:12:29.720Z,200275,0.02923584,0.122558594,-0.013000488
1734714749727,2024-12-20T17:12:29.727Z,200282,0.031799316,0.12219238,-0.010803223
1734714749734,2024-12-20T17:12:29.734Z,200289,0.028503418,0.12109375,-0.009643555
1734714749741,2024-12-20T17:12:29.741Z,200296,0.025939941,0.12017822,-0.009521484
1734714749766,2024-12-20T17:12:29.766Z,200321,0.02709961,0.12109375,-0.008850098
1734714749773,2024-12-20T17:12:29.773Z,200328,0.030456543,0.12005615,-0.009765625
1734714749781,2024-12-20T17:12:29.781Z,200336,0.033081055,0.12200928,-0.0134887695
1734714749788,2024-12-20T17:12:29.788Z,200343,0.02947998,0.12365723,-0.018371582
1734714749796,2024-12-20T17:12:29.796Z,200351,0.028320312,0.125,-0.018066406
1734714749808,2024-12-20T17:12:29.808Z,200363,0.032104492,0.12609863,-0.012573242
1734714749816,2024-12-20T17:12:29.816Z,200371,0.034851074,0.12506104,-0.009643555
1734714749822,2024-12-20T17:12:29.822Z,200377,0.03326416,0.123413086,-0.008666992
1734714749829,2024-12-20T17:12:29.829Z,200384,0.03186035,0.12347412,-0.007507324
1734714749853,2024-12-20T17:12:29.853Z,200408,0.024414062,0.1262207,-0.008850098
1734714749860,2024-12-20T17:12:29.860Z,200415,0.023742676,0.12414551,-0.013061523
1734714749866,2024-12-20T17:12:29.866Z,200421,0.03173828,0.1260376,-0.013183594
1734714749872,2024-12-20T17:12:29.872Z,200427,0.031555176,0.12677002,-0.014953613
1734714749879,2024-12-20T17:12:29.879Z,200434,0.034057617,0.12420654,-0.016845703
1734714749942,2024-12-20T17:12:29.942Z,200497,0.032592773,0.1270752,-0.015380859
1734714749950,2024-12-20T17:12:29.950Z,200505,0.02947998,0.12609863,-0.012512207
1734714749995,2024-12-20T17:12:29.995Z,200550,0.0289917,0.12322998,-0.010498047
1734714750008,2024-12-20T17:12:30.008Z,200563,0.029418945,0.12530518,-0.008911133
1734714750020,2024-12-20T17:12:30.020Z,200575,0.02368164,0.12890625,-0.007873535
1734714750080,2024-12-20T17:12:30.080Z,200635,0.022888184,0.12701416,-0.0072631836
1734714750093,2024-12-20T17:12:30.093Z,200648,0.029846191,0.124694824,-0.007873535
1734714750107,2024-12-20T17:12:30.107Z,200662,0.030029297,0.12438965,-0.010803223
1734714750119,2024-12-20T17:12:30.119Z,200674,0.028381348,0.1227417,-0.014709473
1734714750128,2024-12-20T17:12:30.128Z,200683,0.029174805,0.12225342,-0.016601562
1734714750136,2024-12-20T17:12:30.136Z,200691,0.030212402,0.119384766,-0.018249512
1734714750146,2024-12-20T17:12:30.146Z,200701,0.034362793,0.11956787,-0.014221191
1734714750166,2024-12-20T17:12:30.166Z,200721,0.022705078,0.124572754,-0.015686035
1734714750222,2024-12-20T17:12:30.222Z,200777,0.030395508,0.11907959,-0.014831543
1734714750228,2024-12-20T17:12:30.228Z,200783,0.02709961,0.12030029,-0.0064697266
1734714750240,2024-12-20T17:12:30.240Z,200795,0.026977539,0.12573242,-0.008728027
1734714750252,2024-12-20T17:12:30.252Z,200807,0.025634766,0.12530518,-0.016296387
1734714750262,2024-12-20T17:12:30.262Z,200817,0.028381348,0.12438965,-0.018249512
1734714750267,2024-12-20T17:12:30.267Z,200822,0.031921387,0.12054443,-0.006164551
1734714750305,2024-12-20T17:12:30.305Z,200860,0.029846191,0.12213135,-0.008972168
1734714750317,2024-12-20T17:12:30.317Z,200872,0.025878906,0.12347412,-0.010314941
1734714750330,2024-12-20T17:12:30.330Z,200885,0.026672363,0.12445068,-0.010314941
1734714750340,2024-12-20T17:12:30.340Z,200895,0.027282715,0.12548828,-0.0134887695
1734714750349,2024-12-20T17:12:30.349Z,200904,0.028747559,0.12445068,-0.014160156
1734714750358,2024-12-20T17:12:30.358Z,200913,0.03161621,0.13067627,-0.0095825195
1734714750366,2024-12-20T17:12:30.366Z,200921,0.03289795,0.13903809,-0.01550293
1734714750374,2024-12-20T17:12:30.374Z,200929,0.03515625,0.14172363,-0.014526367
1734714750380,2024-12-20T17:12:30.380Z,200935,0.03753662,0.14398193,-0.014099121
1734714750387,2024-12-20T17:12:30.387Z,200942,0.03363037,0.14300537,-0.014282227
1734714750438,2024-12-20T17:12:30.438Z,200993,0.032836914,0.14208984,-0.00970459
1734714750484,2024-12-20T17:12:30.484Z,201039,0.030761719,0.14440918,-0.007080078
1734714750491,2024-12-20T17:12:30.491Z,201046,0.033325195,0.1418457,-0.011108398
1734714750504,2024-12-20T17:12:30.504Z,201059,0.031982422,0.14318848,-0.012145996
1734714750515,2024-12-20T17:12:30.515Z,201070,0.034301758,0.1404419,-0.013305664
1734714750523,2024-12-20T17:12:30.523Z,201078,0.03540039,0.13952637,-0.010192871
1734714750533,2024-12-20T17:12:30.533Z,201088,0.03363037,0.13848877,-0.0060424805
1734714750541,2024-12-20T17:12:30.541Z,201096,0.032348633,0.1375122,-0.003112793
1734714750550,2024-12-20T17:12:30.550Z,201105,0.030944824,0.13726807,-0.006958008
1734714750558,2024-12-20T17:12:30.558Z,201113,0.029846191,0.13842773,-0.010925293
1734714750565,2024-12-20T17:12:30.565Z,201120,0.029907227,0.13775635,-0.012390137
1734714750572,2024-12-20T17:12:30.572Z,201127,0.03375244,0.13562012,-0.013549805
1734714750581,2024-12-20T17:12:30.581Z,201136,0.030273438,0.13671875,-0.0079956055
1734714750595,2024-12-20T17:12:30.595Z,201150,0.027404785,0.137146,-0.015136719
1734714750601,2024-12-20T17:12:30.601Z,201156,0.03527832,0.13049316,-0.018127441
1734714750606,2024-12-20T17:12:30.606Z,201161,0.038208008,0.13061523,-0.012756348
1734714750611,2024-12-20T17:12:30.611Z,201166,0.030578613,0.13366699,-0.0056152344
1734714750617,2024-12-20T17:12:30.617Z,201172,0.024047852,0.13238525,-0.004699707
1734714750622,2024-12-20T17:12:30.622Z,201177,0.021484375,0.12945557,-0.0051879883
1734714750627,2024-12-20T17:12:30.627Z,201182,0.026367188,0.12988281,-0.003540039
1734714750632,2024-12-20T17:12:30.632Z,201187,0.029296875,0.12896729,-0.008178711
1734714750638,2024-12-20T17:12:30.638Z,201193,0.029418945,0.12438965,-0.014221191
1734714750644,2024-12-20T17:12:30.644Z,201199,0.029785156,0.12567139,-0.012756348
1734714750650,2024-12-20T17:12:30.650Z,201205,0.024841309,0.12585449,-0.0087890625
1734714750662,2024-12-20T17:12:30.662Z,201217,0.025512695,0.123291016,-0.006713867
1734714750751,2024-12-20T17:12:30.751Z,201306,0.026733398,0.122558594,-0.003112793
1734714750757,2024-12-20T17:12:30.757Z,201312,0.024597168,0.122558594,-3.0517578E-4
1734714750763,2024-12-20T17:12:30.763Z,201318,0.020446777,0.12298584,-5.493164E-4
1734714750768,2024-12-20T17:12:30.768Z,201323,0.020690918,0.12213135,-0.0065307617
1734714750775,2024-12-20T17:12:30.775Z,201330,0.032226562,0.11798096,-0.013427734
1734714750782,2024-12-20T17:12:30.782Z,201337,0.03643799,0.11682129,-0.013244629
1734714750800,2024-12-20T17:12:30.800Z,201355,0.027954102,0.117370605,-0.013366699
1734714750807,2024-12-20T17:12:30.807Z,201362,0.026306152,0.11621094,-0.010070801
1734714750815,2024-12-20T17:12:30.815Z,201370,0.02557373,0.121154785,-0.0025024414
1734714750822,2024-12-20T17:12:30.822Z,201377,0.025878906,0.123046875,0.0033569336
1734714750828,2024-12-20T17:12:30.828Z,201383,0.026123047,0.12084961,0.004272461
1734714750840,2024-12-20T17:12:30.840Z,201395,0.026062012,0.12005615,0.0026245117
1734714750843,2024-12-20T17:12:30.843Z,201398,0.029541016,0.11773682,-0.008544922
1734714750850,2024-12-20T17:12:30.850Z,201405,0.026367188,0.12188721,-0.0032958984
1734714750855,2024-12-20T17:12:30.855Z,201410,0.025817871,0.123291016,-0.0040283203
1734714750861,2024-12-20T17:12:30.861Z,201416,0.022766113,0.12542725,-0.007751465
1734714750867,2024-12-20T17:12:30.867Z,201422,0.02557373,0.1237793,-0.009094238
1734714750935,2024-12-20T17:12:30.935Z,201490,0.031555176,0.124938965,-0.007019043
1734714750940,2024-12-20T17:12:30.940Z,201495,0.029052734,0.12548828,-0.007080078
1734714750946,2024-12-20T17:12:30.946Z,201501,0.029724121,0.12335205,-0.005493164
1734714750951,2024-12-20T17:12:30.951Z,201506,0.028503418,0.123535156,-0.001159668
1734714750957,2024-12-20T17:12:30.957Z,201512,0.026794434,0.12237549,-1.8310547E-4
1734714750976,2024-12-20T17:12:30.976Z,201531,0.026367188,0.12451172,-0.001953125
1734714750984,2024-12-20T17:12:30.984Z,201539,0.024108887,0.12548828,-0.005432129
1734714750991,2024-12-20T17:12:30.991Z,201546,0.021057129,0.12799072,-0.0051879883
1734714751001,2024-12-20T17:12:31.001Z,201556,0.02911377,0.12164307,-0.0076904297
1734714751007,2024-12-20T17:12:31.007Z,201562,0.037963867,0.12225342,-0.0045776367
1734714751014,2024-12-20T17:12:31.014Z,201569,0.030334473,0.124694824,-0.0018920898
1734714751024,2024-12-20T17:12:31.024Z,201579,0.028564453,0.1272583,-0.0010986328
1734714751030,2024-12-20T17:12:31.030Z,201585,0.024475098,0.12805176,-0.0017700195
1734714751036,2024-12-20T17:12:31.036Z,201591,0.024841309,0.1270752,-0.0030517578
1734714751041,2024-12-20T17:12:31.041Z,201596,0.02947998,0.12597656,-0.003540039
1734714751047,2024-12-20T17:12:31.047Z,201602,0.030029297,0.125,-0.0017700195
1734714751066,2024-12-20T17:12:31.066Z,201621,0.029418945,0.12506104,-0.0010375977
1734714751072,2024-12-20T17:12:31.072Z,201627,0.031433105,0.12530518,0.0010986328
1734714751077,2024-12-20T17:12:31.077Z,201632,0.028503418,0.12713623,0.0034179688
1734714751083,2024-12-20T17:12:31.083Z,201638,0.02508545,0.12713623,0.0037231445
1734714751088,2024-12-20T17:12:31.088Z,201643,0.025634766,0.12310791,0.002319336
1734714751094,2024-12-20T17:12:31.094Z,201649,0.026306152,0.11987305,0.0012817383
1734714751114,2024-12-20T17:12:31.114Z,201669,0.034118652,0.12042236,0.0016479492
1734714751120,2024-12-20T17:12:31.120Z,201675,0.035583496,0.123413086,0.0014648438
1734714751125,2024-12-20T17:12:31.125Z,201680,0.030578613,0.11743164,3.0517578E-4
1734714751131,2024-12-20T17:12:31.131Z,201686,0.024902344,0.11987305,0.009521484
1734714751136,2024-12-20T17:12:31.136Z,201691,0.010864258,0.13433838,0.023803711
1734714751202,2024-12-20T17:12:31.202Z,201757,0.008483887,0.13574219,0.02520752
1734714751209,2024-12-20T17:12:31.209Z,201764,0.026855469,0.12475586,0.009094238
1734714751214,2024-12-20T17:12:31.214Z,201769,0.03894043,0.11669922,0.0026245117
1734714751220,2024-12-20T17:12:31.220Z,201775,0.03643799,0.12213135,0.0030517578
1734714751225,2024-12-20T17:12:31.225Z,201780,0.024780273,0.12597656,0.0012207031
1734714751231,2024-12-20T17:12:31.231Z,201786,0.019104004,0.124572754,-0.002380371
1734714751249,2024-12-20T17:12:31.249Z,201804,0.029296875,0.12261963,-0.0032348633
1734714751256,2024-12-20T17:12:31.256Z,201811,0.028076172,0.12414551,-0.0015258789
1734714751262,2024-12-20T17:12:31.262Z,201817,0.028198242,0.122924805,-0.0010986328
1734714751269,2024-12-20T17:12:31.269Z,201824,0.028686523,0.121520996,-0.002319336
1734714751275,2024-12-20T17:12:31.275Z,201830,0.027526855,0.123046875,-1.8310547E-4
1734714751290,2024-12-20T17:12:31.290Z,201845,0.022705078,0.12408447,0.0031738281
1734714751298,2024-12-20T17:12:31.298Z,201853,0.019714355,0.12213135,0.007019043
1734714751305,2024-12-20T17:12:31.305Z,201860,0.023925781,0.11932373,0.0087890625
1734714751312,2024-12-20T17:12:31.312Z,201867,0.028686523,0.11743164,0.0087890625
1734714751320,2024-12-20T17:12:31.320Z,201875,0.028686523,0.119506836,0.0065307617
1734714751330,2024-12-20T17:12:31.330Z,201885,0.026794434,0.11999512,0.0044555664
1734714751339,2024-12-20T17:12:31.339Z,201894,0.027709961,0.12164307,0.003967285
1734714751347,2024-12-20T17:12:31.347Z,201902,0.025146484,0.12188721,0.0029296875
1734714751359,2024-12-20T17:12:31.359Z,201914,0.022705078,0.119262695,0.0032348633
1734714751365,2024-12-20T17:12:31.365Z,201920,0.021362305,0.11999512,0.0045776367
1734714751372,2024-12-20T17:12:31.372Z,201927,0.0234375,0.11834717,0.0032348633
1734714751380,2024-12-20T17:12:31.380Z,201935,0.027893066,0.1105957,0.002380371
1734714751385,2024-12-20T17:12:31.385Z,201940,0.028869629,0.11102295,0.007019043
1734714751390,2024-12-20T17:12:31.390Z,201945,0.026123047,0.117004395,0.00982666
1734714751397,2024-12-20T17:12:31.397Z,201952,0.025512695,0.11407471,0.008728027
1734714751402,2024-12-20T17:12:31.402Z,201957,0.024475098,0.115356445,0.0107421875
1734714751407,2024-12-20T17:12:31.407Z,201962,0.021728516,0.11682129,0.011779785
1734714751428,2024-12-20T17:12:31.428Z,201983,0.024841309,0.11315918,0.009338379
1734714751434,2024-12-20T17:12:31.434Z,201989,0.029174805,0.10949707,0.0043945312
1734714751439,2024-12-20T17:12:31.439Z,201994,0.033996582,0.10974121,0.0029296875
1734714751445,2024-12-20T17:12:31.445Z,202000,0.02935791,0.11480713,0.0036010742
1734714751451,2024-12-20T17:12:31.451Z,202006,0.029724121,0.11407471,0.0079956055
1734714751469,2024-12-20T17:12:31.469Z,202024,0.03326416,0.11450195,0.012817383
1734714751475,2024-12-20T17:12:31.475Z,202030,0.028564453,0.11791992,0.012634277
1734714751482,2024-12-20T17:12:31.482Z,202037,0.026916504,0.11853027,0.010681152
1734714751488,2024-12-20T17:12:31.488Z,202043,0.028198242,0.11804199,0.010192871
1734714751515,2024-12-20T17:12:31.515Z,202070,0.026611328,0.117492676,0.010620117
1734714751520,2024-12-20T17:12:31.520Z,202075,0.026184082,0.119018555,0.011291504
1734714751527,2024-12-20T17:12:31.527Z,202082,0.026306152,0.119140625,0.011291504
1734714751534,2024-12-20T17:12:31.534Z,202089,0.028259277,0.11895752,0.008605957
1734714751563,2024-12-20T17:12:31.563Z,202118,0.03289795,0.12072754,0.0057373047
1734714751570,2024-12-20T17:12:31.570Z,202125,0.034423828,0.11968994,0.007019043
1734714751577,2024-12-20T17:12:31.577Z,202132,0.033325195,0.117614746,0.010925293
1734714751611,2024-12-20T17:12:31.611Z,202166,0.030395508,0.117004395,0.014709473
1734714751619,2024-12-20T17:12:31.619Z,202174,0.030273438,0.11895752,0.014099121
1734714751626,2024-12-20T17:12:31.626Z,202181,0.027770996,0.119628906,0.015014648
1734714751634,2024-12-20T17:12:31.634Z,202189,0.025146484,0.11956787,0.016296387
1734714751642,2024-12-20T17:12:31.642Z,202197,0.02722168,0.11755371,0.013916016
1734714751652,2024-12-20T17:12:31.652Z,202207,0.030212402,0.11590576,0.012329102
1734714751659,2024-12-20T17:12:31.659Z,202214,0.031433105,0.11694336,0.008972168
1734714751666,2024-12-20T17:12:31.666Z,202221,0.027770996,0.11767578,0.0068359375
1734714751673,2024-12-20T17:12:31.673Z,202228,0.026367188,0.116882324,0.011047363
1734714751679,2024-12-20T17:12:31.679Z,202234,0.027832031,0.1159668,0.018310547
1734714751685,2024-12-20T17:12:31.685Z,202240,0.02508545,0.115600586,0.020690918
1734714751699,2024-12-20T17:12:31.699Z,202254,0.024597168,0.113464355,0.016845703
1734714751705,2024-12-20T17:12:31.705Z,202260,0.027526855,0.11242676,0.012268066
1734714751710,2024-12-20T17:12:31.710Z,202265,0.025939941,0.11248779,0.008666992
1734714751716,2024-12-20T17:12:31.716Z,202271,0.029846191,0.10888672,0.010192871
1734714751740,2024-12-20T17:12:31.740Z,202295,0.033691406,0.10913086,0.016052246
1734714751747,2024-12-20T17:12:31.747Z,202302,0.03466797,0.10888672,0.01977539
1734714751753,2024-12-20T17:12:31.753Z,202308,0.030944824,0.10668945,0.021057129
1734714751758,2024-12-20T17:12:31.758Z,202313,0.025756836,0.107055664,0.021484375
1734714751764,2024-12-20T17:12:31.764Z,202319,0.025024414,0.10772705,0.019592285
1734714751785,2024-12-20T17:12:31.785Z,202340,0.02355957,0.10974121,0.015380859
1734714751790,2024-12-20T17:12:31.790Z,202345,0.025146484,0.109558105,0.011230469
1734714751797,2024-12-20T17:12:31.797Z,202352,0.03277588,0.11004639,0.009155273
1734714751803,2024-12-20T17:12:31.803Z,202358,0.03717041,0.11016846,0.010864258
1734714751832,2024-12-20T17:12:31.832Z,202387,0.033203125,0.11010742,0.014526367
1734714751838,2024-12-20T17:12:31.838Z,202393,0.029846191,0.11364746,0.016906738
1734714751845,2024-12-20T17:12:31.845Z,202400,0.03137207,0.11352539,0.018188477
1734714751852,2024-12-20T17:12:31.852Z,202407,0.030639648,0.11138916,0.020690918
1734714751874,2024-12-20T17:12:31.874Z,202429,0.027038574,0.11328125,0.021911621
1734714751880,2024-12-20T17:12:31.880Z,202435,0.029968262,0.10998535,0.024597168
1734714751887,2024-12-20T17:12:31.887Z,202442,0.030639648,0.11254883,0.02923584
1734714751893,2024-12-20T17:12:31.893Z,202448,0.02923584,0.11456299,0.024047852
1734714751900,2024-12-20T17:12:31.900Z,202455,0.03466797,0.109313965,0.01727295
1734714751922,2024-12-20T17:12:31.922Z,202477,0.034423828,0.111694336,0.014343262
1734714751928,2024-12-20T17:12:31.928Z,202483,0.035217285,0.11376953,0.013793945
1734714751935,2024-12-20T17:12:31.935Z,202490,0.03479004,0.113098145,0.016113281
1734714751940,2024-12-20T17:12:31.940Z,202495,0.03338623,0.109191895,0.014465332
1734714751965,2024-12-20T17:12:31.965Z,202520,0.033081055,0.10809326,0.015563965
1734714751971,2024-12-20T17:12:31.971Z,202526,0.033996582,0.1116333,0.017578125
1734714751977,2024-12-20T17:12:31.977Z,202532,0.030395508,0.11291504,0.021118164
1734714751984,2024-12-20T17:12:31.984Z,202539,0.026855469,0.115234375,0.026916504
1734714751990,2024-12-20T17:12:31.990Z,202545,0.0289917,0.115600586,0.02722168
1734714752011,2024-12-20T17:12:32.011Z,202566,0.02935791,0.1138916,0.021850586
1734714752020,2024-12-20T17:12:32.020Z,202575,0.03375244,0.11254883,0.019958496
1734714752030,2024-12-20T17:12:32.030Z,202585,0.038146973,0.11352539,0.018249512
1734714752038,2024-12-20T17:12:32.038Z,202593,0.03540039,0.110961914,0.015075684
1734714752055,2024-12-20T17:12:32.055Z,202610,0.03338623,0.110961914,0.019042969
1734714752061,2024-12-20T17:12:32.061Z,202616,0.03253174,0.11383057,0.024414062
1734714752068,2024-12-20T17:12:32.068Z,202623,0.030273438,0.11138916,0.024047852
1734714752073,2024-12-20T17:12:32.073Z,202628,0.033203125,0.10900879,0.025146484
1734714752079,2024-12-20T17:12:32.079Z,202634,0.033996582,0.112976074,0.028137207
1734714752101,2024-12-20T17:12:32.101Z,202656,0.035949707,0.11456299,0.026916504
1734714752106,2024-12-20T17:12:32.106Z,202661,0.037475586,0.11175537,0.024902344
1734714752112,2024-12-20T17:12:32.112Z,202667,0.03265381,0.11199951,0.02319336
1734714752119,2024-12-20T17:12:32.119Z,202674,0.030639648,0.111694336,0.019348145
1734714752146,2024-12-20T17:12:32.146Z,202701,0.034179688,0.11193848,0.019226074
1734714752153,2024-12-20T17:12:32.153Z,202708,0.03704834,0.10998535,0.020568848
1734714752158,2024-12-20T17:12:32.158Z,202713,0.03540039,0.1116333,0.023498535
1734714752164,2024-12-20T17:12:32.164Z,202719,0.036071777,0.11383057,0.02758789
1734714752190,2024-12-20T17:12:32.190Z,202745,0.032592773,0.11218262,0.029296875
1734714752197,2024-12-20T17:12:32.197Z,202752,0.030212402,0.11254883,0.029418945
1734714752204,2024-12-20T17:12:32.204Z,202759,0.032470703,0.11254883,0.026672363
1734714752211,2024-12-20T17:12:32.211Z,202766,0.03668213,0.11114502,0.02331543
1734714752217,2024-12-20T17:12:32.217Z,202772,0.03845215,0.110839844,0.022766113
1734714752234,2024-12-20T17:12:32.234Z,202789,0.03881836,0.11230469,0.028503418
1734714752240,2024-12-20T17:12:32.240Z,202795,0.038879395,0.11053467,0.03161621
1734714752246,2024-12-20T17:12:32.246Z,202801,0.036499023,0.1104126,0.031188965
1734714752253,2024-12-20T17:12:32.253Z,202808,0.033691406,0.110839844,0.03186035
1734714752281,2024-12-20T17:12:32.281Z,202836,0.03161621,0.11291504,0.031555176
1734714752331,2024-12-20T17:12:32.331Z,202886,0.028869629,0.1138916,0.030395508
1734714752339,2024-12-20T17:12:32.339Z,202894,0.032470703,0.11450195,0.028381348
1734714752346,2024-12-20T17:12:32.346Z,202901,0.037475586,0.11303711,0.025878906
1734714752353,2024-12-20T17:12:32.353Z,202908,0.041748047,0.10949707,0.028137207
1734714752361,2024-12-20T17:12:32.361Z,202916,0.03894043,0.10961914,0.032165527
1734714752422,2024-12-20T17:12:32.422Z,202977,0.034118652,0.107421875,0.03515625
1734714752429,2024-12-20T17:12:32.429Z,202984,0.03314209,0.10858154,0.037109375
1734714752436,2024-12-20T17:12:32.436Z,202991,0.03540039,0.11053467,0.036010742
1734714752442,2024-12-20T17:12:32.442Z,202997,0.036865234,0.11102295,0.032836914
1734714752448,2024-12-20T17:12:32.448Z,203003,0.03692627,0.1105957,0.030395508
1734714752460,2024-12-20T17:12:32.460Z,203015,0.038330078,0.11187744,0.031677246
1734714752467,2024-12-20T17:12:32.467Z,203022,0.035949707,0.114746094,0.033996582
1734714752474,2024-12-20T17:12:32.474Z,203029,0.028198242,0.11328125,0.032836914
1734714752483,2024-12-20T17:12:32.483Z,203038,0.02722168,0.11206055,0.032043457
1734714752490,2024-12-20T17:12:32.490Z,203045,0.0335083,0.11419678,0.028503418
1734714752496,2024-12-20T17:12:32.496Z,203051,0.034179688,0.11468506,0.028442383
1734714752508,2024-12-20T17:12:32.508Z,203063,0.039489746,0.117492676,0.030578613
1734714752515,2024-12-20T17:12:32.515Z,203070,0.036132812,0.11657715,0.030151367
1734714752521,2024-12-20T17:12:32.521Z,203076,0.032836914,0.11645508,0.030700684
1734714752527,2024-12-20T17:12:32.527Z,203082,0.032714844,0.11566162,0.03100586
1734714752533,2024-12-20T17:12:32.533Z,203088,0.03466797,0.11138916,0.030395508
1734714752550,2024-12-20T17:12:32.550Z,203105,0.03918457,0.11016846,0.03491211
1734714752556,2024-12-20T17:12:32.556Z,203111,0.03656006,0.11407471,0.036010742
1734714752561,2024-12-20T17:12:32.561Z,203116,0.032043457,0.11401367,0.033447266
1734714752567,2024-12-20T17:12:32.567Z,203122,0.033996582,0.11303711,0.029907227
1734714752572,2024-12-20T17:12:32.572Z,203127,0.03527832,0.11419678,0.026733398
1734714752577,2024-12-20T17:12:32.577Z,203132,0.036010742,0.11383057,0.0256958
1734714752599,2024-12-20T17:12:32.599Z,203154,0.037841797,0.11102295,0.028259277
1734714752605,2024-12-20T17:12:32.605Z,203160,0.0413208,0.110839844,0.03479004
1734714752610,2024-12-20T17:12:32.610Z,203165,0.042236328,0.112854004,0.038391113
1734714752616,2024-12-20T17:12:32.616Z,203171,0.036499023,0.11187744,0.03955078
1734714752639,2024-12-20T17:12:32.639Z,203194,0.03277588,0.11413574,0.038024902
1734714752645,2024-12-20T17:12:32.645Z,203200,0.031555176,0.114868164,0.03387451
1734714752690,2024-12-20T17:12:32.690Z,203245,0.03186035,0.11407471,0.032104492
1734714752697,2024-12-20T17:12:32.697Z,203252,0.035461426,0.11633301,0.032409668
1734714752705,2024-12-20T17:12:32.705Z,203260,0.037475586,0.117004395,0.03253174
1734714752742,2024-12-20T17:12:32.742Z,203297,0.038085938,0.11584473,0.034057617
1734714752754,2024-12-20T17:12:32.754Z,203309,0.038391113,0.11383057,0.03741455
1734714752764,2024-12-20T17:12:32.764Z,203319,0.03930664,0.113342285,0.043151855
1734714752773,2024-12-20T17:12:32.773Z,203328,0.036743164,0.11541748,0.04345703
1734714752781,2024-12-20T17:12:32.781Z,203336,0.034240723,0.11541748,0.03869629
1734714752788,2024-12-20T17:12:32.788Z,203343,0.032287598,0.11584473,0.034118652
1734714752795,2024-12-20T17:12:32.795Z,203350,0.03668213,0.11566162,0.03265381
1734714752801,2024-12-20T17:12:32.801Z,203356,0.040527344,0.1149292,0.03479004
1734714752807,2024-12-20T17:12:32.807Z,203362,0.041503906,0.11383057,0.037231445
1734714752812,2024-12-20T17:12:32.812Z,203367,0.039001465,0.1138916,0.036315918
1734714752818,2024-12-20T17:12:32.818Z,203373,0.03552246,0.11340332,0.034423828
1734714752824,2024-12-20T17:12:32.824Z,203379,0.03753662,0.11425781,0.03387451
1734714752830,2024-12-20T17:12:32.830Z,203385,0.036132812,0.114868164,0.03375244
1734714752835,2024-12-20T17:12:32.835Z,203390,0.03552246,0.11425781,0.033203125
1734714752840,2024-12-20T17:12:32.840Z,203395,0.038757324,0.11395264,0.03277588
1734714752846,2024-12-20T17:12:32.846Z,203401,0.0390625,0.11419678,0.03527832
1734714752870,2024-12-20T17:12:32.870Z,203425,0.039245605,0.113464355,0.03503418
1734714753051,2024-12-20T17:12:33.051Z,203606,0.04119873,0.11126709,0.033447266
1734714753065,2024-12-20T17:12:33.065Z,203620,0.039794922,0.110961914,0.032104492
1734714753079,2024-12-20T17:12:33.079Z,203634,0.040283203,0.11016846,0.032348633
1734714753091,2024-12-20T17:12:33.091Z,203646,0.03564453,0.11187744,0.033813477
1734714753101,2024-12-20T17:12:33.101Z,203656,0.03515625,0.11138916,0.03186035
1734714753109,2024-12-20T17:12:33.109Z,203664,0.037963867,0.11199951,0.029968262
1734714753117,2024-12-20T17:12:33.117Z,203672,0.039123535,0.1126709,0.028442383
1734714753125,2024-12-20T17:12:33.125Z,203680,0.041870117,0.11248779,0.028625488
1734714753133,2024-12-20T17:12:33.133Z,203688,0.043518066,0.11401367,0.02947998
1734714753142,2024-12-20T17:12:33.142Z,203697,0.043945312,0.11242676,0.030761719
1734714753149,2024-12-20T17:12:33.149Z,203704,0.03967285,0.11230469,0.032836914
1734714753156,2024-12-20T17:12:33.156Z,203711,0.042907715,0.11425781,0.02722168
1734714753160,2024-12-20T17:12:33.160Z,203715,0.040283203,0.11340332,0.026855469
1734714753167,2024-12-20T17:12:33.167Z,203722,0.040283203,0.114746094,0.02746582
1734714753173,2024-12-20T17:12:33.173Z,203728,0.038269043,0.113708496,0.027770996
1734714753181,2024-12-20T17:12:33.181Z,203736,0.040161133,0.113342285,0.028930664
1734714753188,2024-12-20T17:12:33.188Z,203743,0.036376953,0.11663818,0.030700684
1734714753196,2024-12-20T17:12:33.196Z,203751,0.034179688,0.11578369,0.029541016
1734714753203,2024-12-20T17:12:33.203Z,203758,0.035339355,0.11236572,0.028442383
1734714753209,2024-12-20T17:12:33.209Z,203764,0.03527832,0.113220215,0.027893066
1734714753214,2024-12-20T17:12:33.214Z,203769,0.036193848,0.11260986,0.026794434
1734714753219,2024-12-20T17:12:33.219Z,203774,0.04071045,0.10974121,0.027282715
1734714753225,2024-12-20T17:12:33.225Z,203780,0.04144287,0.10974121,0.029052734
1734714753231,2024-12-20T17:12:33.231Z,203786,0.03894043,0.11248779,0.02947998
1734714753237,2024-12-20T17:12:33.237Z,203792,0.035095215,0.11444092,0.025756836
1734714753242,2024-12-20T17:12:33.242Z,203797,0.032714844,0.11364746,0.021606445
1734714753247,2024-12-20T17:12:33.247Z,203802,0.03314209,0.113586426,0.020507812
1734714753251,2024-12-20T17:12:33.251Z,203806,0.034057617,0.11425781,0.02178955
1734714753269,2024-12-20T17:12:33.269Z,203824,0.034606934,0.11364746,0.021606445
1734714753275,2024-12-20T17:12:33.275Z,203830,0.035705566,0.11260986,0.021911621
1734714753281,2024-12-20T17:12:33.281Z,203836,0.04046631,0.11279297,0.022583008
1734714753286,2024-12-20T17:12:33.286Z,203841,0.039733887,0.11291504,0.024414062
1734714753319,2024-12-20T17:12:33.319Z,203874,0.0357666,0.11578369,0.026672363
1734714753324,2024-12-20T17:12:33.324Z,203879,0.03527832,0.11651611,0.02709961
1734714753329,2024-12-20T17:12:33.329Z,203884,0.03253174,0.11584473,0.024719238
1734714753334,2024-12-20T17:12:33.334Z,203889,0.028625488,0.11578369,0.02130127
1734714753339,2024-12-20T17:12:33.339Z,203894,0.031433105,0.11553955,0.020080566
1734714753361,2024-12-20T17:12:33.361Z,203916,0.033996582,0.114746094,0.01776123
1734714753367,2024-12-20T17:12:33.367Z,203922,0.033325195,0.11187744,0.016296387
1734714753372,2024-12-20T17:12:33.372Z,203927,0.034362793,0.113098145,0.016235352
1734714753378,2024-12-20T17:12:33.378Z,203933,0.032836914,0.11505127,0.016052246
1734714753384,2024-12-20T17:12:33.384Z,203939,0.030517578,0.115234375,0.016113281
1734714753389,2024-12-20T17:12:33.389Z,203944,0.033325195,0.11602783,0.016906738
1734714753452,2024-12-20T17:12:33.452Z,204007,0.03540039,0.11517334,0.016296387
1734714753458,2024-12-20T17:12:33.458Z,204013,0.034118652,0.11340332,0.01727295
1734714753464,2024-12-20T17:12:33.464Z,204019,0.031921387,0.112854004,0.0178833
1734714753469,2024-12-20T17:12:33.469Z,204024,0.029968262,0.113464355,0.018920898
1734714753474,2024-12-20T17:12:33.474Z,204029,0.031677246,0.115356445,0.018737793
1734714753480,2024-12-20T17:12:33.480Z,204035,0.03338623,0.11639404,0.01751709
1734714753500,2024-12-20T17:12:33.500Z,204055,0.03564453,0.11773682,0.01763916
1734714753507,2024-12-20T17:12:33.507Z,204062,0.03277588,0.12097168,0.015625
1734714753513,2024-12-20T17:12:33.513Z,204068,0.029418945,0.118652344,0.0134887695
1734714753520,2024-12-20T17:12:33.520Z,204075,0.032592773,0.11932373,0.015197754
1734714753526,2024-12-20T17:12:33.526Z,204081,0.03503418,0.11920166,0.016052246
1734714753540,2024-12-20T17:12:33.540Z,204095,0.030395508,0.115722656,0.016845703
1734714753545,2024-12-20T17:12:33.545Z,204100,0.029541016,0.11767578,0.017822266
1734714753551,2024-12-20T17:12:33.551Z,204106,0.030883789,0.119506836,0.017028809
1734714753557,2024-12-20T17:12:33.557Z,204112,0.032165527,0.1171875,0.013244629
1734714753563,2024-12-20T17:12:33.563Z,204118,0.032714844,0.11621094,0.0115356445
1734714753569,2024-12-20T17:12:33.569Z,204124,0.026062012,0.11871338,0.011962891
1734714753588,2024-12-20T17:12:33.588Z,204143,0.029663086,0.11706543,0.012634277
1734714753594,2024-12-20T17:12:33.594Z,204149,0.03387451,0.11645508,0.011230469
1734714753599,2024-12-20T17:12:33.599Z,204154,0.0357666,0.1149292,0.01171875
1734714753605,2024-12-20T17:12:33.605Z,204160,0.0335083,0.11541748,0.0126953125
1734714753610,2024-12-20T17:12:33.610Z,204165,0.032226562,0.11407471,0.014038086
1734714753631,2024-12-20T17:12:33.631Z,204186,0.035827637,0.11383057,0.015014648
1734714753638,2024-12-20T17:12:33.638Z,204193,0.035705566,0.113342285,0.015625
1734714753643,2024-12-20T17:12:33.643Z,204198,0.032592773,0.11437988,0.014221191
1734714753649,2024-12-20T17:12:33.649Z,204204,0.027648926,0.11553955,0.0095825195
1734714753657,2024-12-20T17:12:33.657Z,204212,0.027893066,0.117614746,0.004211426
1734714753677,2024-12-20T17:12:33.677Z,204232,0.026245117,0.11932373,0.0026855469
1734714753683,2024-12-20T17:12:33.683Z,204238,0.030334473,0.11791992,0.0037841797
1734714753688,2024-12-20T17:12:33.688Z,204243,0.034606934,0.11651611,0.008300781
1734714753694,2024-12-20T17:12:33.694Z,204249,0.03466797,0.11505127,0.012634277
1734714753719,2024-12-20T17:12:33.719Z,204274,0.031921387,0.11419678,0.014221191
1734714753766,2024-12-20T17:12:33.766Z,204321,0.034423828,0.11413574,0.014404297
1734714753773,2024-12-20T17:12:33.773Z,204328,0.037475586,0.11517334,0.013793945
1734714753780,2024-12-20T17:12:33.780Z,204335,0.029968262,0.11627197,0.011352539
1734714753786,2024-12-20T17:12:33.786Z,204341,0.024414062,0.116760254,0.008361816
1734714753791,2024-12-20T17:12:33.791Z,204346,0.026428223,0.11730957,0.006652832
1734714753796,2024-12-20T17:12:33.796Z,204351,0.034179688,0.11517334,0.006286621
1734714753814,2024-12-20T17:12:33.814Z,204369,0.032592773,0.11425781,0.0068969727
1734714753820,2024-12-20T17:12:33.820Z,204375,0.028564453,0.11401367,0.006713867
1734714753827,2024-12-20T17:12:33.827Z,204382,0.034118652,0.11291504,0.010437012
1734714753833,2024-12-20T17:12:33.833Z,204388,0.036071777,0.11419678,0.012878418
1734714753855,2024-12-20T17:12:33.855Z,204410,0.029907227,0.11419678,0.011169434
1734714753902,2024-12-20T17:12:33.902Z,204457,0.029296875,0.11517334,0.009338379
1734714753909,2024-12-20T17:12:33.909Z,204464,0.030456543,0.11810303,0.0076293945
1734714753916,2024-12-20T17:12:33.916Z,204471,0.028808594,0.1204834,0.0051879883
1734714753923,2024-12-20T17:12:33.923Z,204478,0.028564453,0.1204834,0.0033569336
1734714753929,2024-12-20T17:12:33.929Z,204484,0.034240723,0.11907959,0.0043945312
1734714753935,2024-12-20T17:12:33.935Z,204490,0.036193848,0.11798096,0.007080078
1734714753949,2024-12-20T17:12:33.949Z,204504,0.037841797,0.1182251,0.007080078
1734714753957,2024-12-20T17:12:33.957Z,204512,0.027770996,0.12060547,0.0052490234
1734714753964,2024-12-20T17:12:33.964Z,204519,0.028564453,0.12194824,0.005065918
1734714753972,2024-12-20T17:12:33.972Z,204527,0.030578613,0.12359619,0.0053100586
1734714753980,2024-12-20T17:12:33.980Z,204535,0.028625488,0.122680664,0.0048217773
1734714753990,2024-12-20T17:12:33.990Z,204545,0.028930664,0.12438965,0.004638672
1734714753995,2024-12-20T17:12:33.995Z,204550,0.030395508,0.12536621,0.004760742
1734714754002,2024-12-20T17:12:34.002Z,204557,0.032958984,0.124694824,0.0064086914
1734714754008,2024-12-20T17:12:34.008Z,204563,0.032348633,0.12384033,0.007385254
1734714754014,2024-12-20T17:12:34.014Z,204569,0.030883789,0.1239624,0.007385254
1734714754019,2024-12-20T17:12:34.019Z,204574,0.03137207,0.122802734,0.0061035156
1734714754038,2024-12-20T17:12:34.038Z,204593,0.02923584,0.121398926,0.004760742
1734714754044,2024-12-20T17:12:34.044Z,204599,0.025817871,0.121398926,0.004699707
1734714754049,2024-12-20T17:12:34.049Z,204604,0.024230957,0.12243652,0.0061035156
1734714754079,2024-12-20T17:12:34.079Z,204634,0.024536133,0.121276855,0.005859375
1734714754086,2024-12-20T17:12:34.086Z,204641,0.022949219,0.11987305,0.003967285
1734714754092,2024-12-20T17:12:34.092Z,204647,0.025878906,0.12054443,0.0036621094
1734714754106,2024-12-20T17:12:34.106Z,204661,0.032348633,0.119506836,0.0037231445
1734714754111,2024-12-20T17:12:34.111Z,204666,0.03479004,0.11633301,0.0048828125
1734714754117,2024-12-20T17:12:34.117Z,204672,0.03527832,0.11682129,0.0056762695
1734714754180,2024-12-20T17:12:34.180Z,204735,0.03149414,0.11639404,0.006286621
1734714754190,2024-12-20T17:12:34.190Z,204745,0.03137207,0.11431885,0.00793457
1734714754203,2024-12-20T17:12:34.203Z,204758,0.031555176,0.117492676,0.008300781
1734714754217,2024-12-20T17:12:34.217Z,204772,0.026611328,0.1194458,0.005859375
1734714754228,2024-12-20T17:12:34.228Z,204783,0.024658203,0.1171875,0.0029907227
1734714754240,2024-12-20T17:12:34.240Z,204795,0.030700684,0.116882324,0.0034179688
1734714754247,2024-12-20T17:12:34.247Z,204802,0.034362793,0.118896484,0.0048828125
1734714754254,2024-12-20T17:12:34.254Z,204809,0.03363037,0.11859131,0.004760742
1734714754262,2024-12-20T17:12:34.262Z,204817,0.032958984,0.115600586,0.0041503906
1734714754269,2024-12-20T17:12:34.269Z,204824,0.030761719,0.115722656,0.0017089844
1734714754276,2024-12-20T17:12:34.276Z,204831,0.028381348,0.11791992,-0.0014038086
1734714754282,2024-12-20T17:12:34.282Z,204837,0.029724121,0.1194458,-0.0016479492
1734714754289,2024-12-20T17:12:34.289Z,204844,0.032592773,0.11999512,-0.0014038086
1734714754294,2024-12-20T17:12:34.294Z,204849,0.034423828,0.119262695,9.765625E-4
1734714754299,2024-12-20T17:12:34.299Z,204854,0.032470703,0.11981201,0.0044555664
1734714754305,2024-12-20T17:12:34.305Z,204860,0.027526855,0.12072754,0.008178711
1734714754312,2024-12-20T17:12:34.312Z,204867,0.025939941,0.12054443,0.009338379
1734714754317,2024-12-20T17:12:34.317Z,204872,0.029968262,0.11743164,0.009033203
1734714754323,2024-12-20T17:12:34.323Z,204878,0.028442383,0.11785889,0.005432129
1734714754328,2024-12-20T17:12:34.328Z,204883,0.02709961,0.11907959,0.0010986328
1734714754334,2024-12-20T17:12:34.334Z,204889,0.031188965,0.11804199,-0.0017089844
1734714754339,2024-12-20T17:12:34.339Z,204894,0.03387451,0.11743164,-0.003112793
1734714754354,2024-12-20T17:12:34.354Z,204909,0.030456543,0.11895752,-0.0010375977
1734714754361,2024-12-20T17:12:34.361Z,204916,0.025939941,0.121276855,0.0015258789
1734714754365,2024-12-20T17:12:34.365Z,204920,0.022460938,0.121520996,-3.0517578E-4
1734714754371,2024-12-20T17:12:34.371Z,204926,0.022399902,0.11810303,6.1035156E-5
1734714754376,2024-12-20T17:12:34.376Z,204931,0.028198242,0.117370605,0.002746582
1734714754442,2024-12-20T17:12:34.442Z,204997,0.034362793,0.11810303,0.0037231445
1734714754447,2024-12-20T17:12:34.447Z,205002,0.030090332,0.11968994,0.001953125
1734714754452,2024-12-20T17:12:34.452Z,205007,0.0256958,0.12072754,-3.0517578E-4
1734714754457,2024-12-20T17:12:34.457Z,205012,0.025634766,0.12036133,0.0
1734714754462,2024-12-20T17:12:34.462Z,205017,0.027709961,0.11987305,0.0017700195
1734714754467,2024-12-20T17:12:34.467Z,205022,0.025390625,0.11859131,0.004333496
1734714754491,2024-12-20T17:12:34.491Z,205046,0.025146484,0.118652344,0.006225586
1734714754496,2024-12-20T17:12:34.496Z,205051,0.028137207,0.11755371,0.0026855469
1734714754501,2024-12-20T17:12:34.501Z,205056,0.031311035,0.11444092,-6.1035156E-4
1734714754506,2024-12-20T17:12:34.506Z,205061,0.03375244,0.114868164,-4.272461E-4
1734714754511,2024-12-20T17:12:34.511Z,205066,0.03314209,0.115722656,-2.4414062E-4
1734714754530,2024-12-20T17:12:34.530Z,205085,0.02734375,0.116882324,-0.0010375977
1734714754537,2024-12-20T17:12:34.537Z,205092,0.025024414,0.117492676,-6.713867E-4
1734714754543,2024-12-20T17:12:34.543Z,205098,0.027282715,0.11883545,8.544922E-4
1734714754581,2024-12-20T17:12:34.581Z,205136,0.028442383,0.119628906,0.0015258789
1734714754587,2024-12-20T17:12:34.587Z,205142,0.028686523,0.120788574,6.1035156E-5
1734714754593,2024-12-20T17:12:34.593Z,205148,0.028259277,0.12030029,-0.0014038086
1734714754599,2024-12-20T17:12:34.599Z,205154,0.030029297,0.11627197,-0.0015869141
1734714754606,2024-12-20T17:12:34.606Z,205161,0.03314209,0.11755371,-7.9345703E-4
1734714754620,2024-12-20T17:12:34.620Z,205175,0.03338623,0.123046875,-0.002380371
1734714754627,2024-12-20T17:12:34.627Z,205182,0.029785156,0.123413086,-0.005126953
1734714754633,2024-12-20T17:12:34.633Z,205188,0.024414062,0.123535156,-0.0059814453
1734714754639,2024-12-20T17:12:34.639Z,205194,0.024047852,0.12695312,-0.0053100586
1734714754645,2024-12-20T17:12:34.645Z,205200,0.024780273,0.12860107,-0.0020141602
1734714754650,2024-12-20T17:12:34.650Z,205205,0.028381348,0.12652588,0.0021362305
1734714754669,2024-12-20T17:12:34.669Z,205224,0.032958984,0.12597656,0.0030517578
1734714754676,2024-12-20T17:12:34.676Z,205231,0.031982422,0.122802734,0.0026245117
1734714754681,2024-12-20T17:12:34.681Z,205236,0.03338623,0.122558594,0.0016479492
1734714754687,2024-12-20T17:12:34.687Z,205242,0.028076172,0.12542725,-0.0034179688
1734714754693,2024-12-20T17:12:34.693Z,205248,0.0234375,0.12432861,-0.0049438477
1734714754756,2024-12-20T17:12:34.756Z,205311,0.028442383,0.12371826,-7.324219E-4
1734714754762,2024-12-20T17:12:34.762Z,205317,0.028198242,0.12408447,0.0021362305
1734714754768,2024-12-20T17:12:34.768Z,205323,0.026733398,0.12322998,0.0025634766
1734714754774,2024-12-20T17:12:34.774Z,205329,0.027832031,0.12365723,0.0012207031
1734714754779,2024-12-20T17:12:34.779Z,205334,0.03253174,0.11895752,-7.324219E-4
1734714754783,2024-12-20T17:12:34.783Z,205338,0.0335083,0.119140625,-0.0015258789
1734714754802,2024-12-20T17:12:34.802Z,205357,0.026428223,0.12023926,-0.0016479492
1734714754809,2024-12-20T17:12:34.809Z,205364,0.023925781,0.11920166,-0.004333496
1734714754814,2024-12-20T17:12:34.814Z,205369,0.02709961,0.12005615,-0.0029907227
1734714754820,2024-12-20T17:12:34.820Z,205375,0.03387451,0.12182617,-0.0010375977
1734714754826,2024-12-20T17:12:34.826Z,205381,0.030090332,0.11987305,1.2207031E-4
1734714754844,2024-12-20T17:12:34.844Z,205399,0.026489258,0.12084961,0.001159668
1734714754850,2024-12-20T17:12:34.850Z,205405,0.028198242,0.122802734,0.0037841797
1734714754857,2024-12-20T17:12:34.857Z,205412,0.02758789,0.11981201,0.0025634766
1734714754862,2024-12-20T17:12:34.862Z,205417,0.026550293,0.12060547,-0.0029296875
1734714754868,2024-12-20T17:12:34.868Z,205423,0.029418945,0.12200928,-0.0052490234
1734714754890,2024-12-20T17:12:34.890Z,205445,0.033691406,0.12097168,-0.0024414062
1734714754896,2024-12-20T17:12:34.896Z,205451,0.03375244,0.12286377,-6.1035156E-4
1734714754902,2024-12-20T17:12:34.902Z,205457,0.026123047,0.12530518,-0.0017089844
1734714754908,2024-12-20T17:12:34.908Z,205463,0.02331543,0.1251831,-6.713867E-4
1734714754914,2024-12-20T17:12:34.914Z,205469,0.0289917,0.12438965,0.0028076172
1734714754919,2024-12-20T17:12:34.919Z,205474,0.03265381,0.12231445,0.0030517578
1734714754939,2024-12-20T17:12:34.939Z,205494,0.029663086,0.122802734,4.8828125E-4
1734714754944,2024-12-20T17:12:34.944Z,205499,0.02947998,0.1251831,-0.0025634766
1734714754949,2024-12-20T17:12:34.949Z,205504,0.034851074,0.124694824,-0.0041503906
1734714754955,2024-12-20T17:12:34.955Z,205510,0.029541016,0.12634277,-0.005493164
1734714754960,2024-12-20T17:12:34.960Z,205515,0.026916504,0.12573242,-0.007751465
1734714754982,2024-12-20T17:12:34.982Z,205537,0.029724121,0.1239624,-0.007385254
1734714754988,2024-12-20T17:12:34.988Z,205543,0.032592773,0.12506104,-0.0020751953
1734714754995,2024-12-20T17:12:34.995Z,205550,0.031555176,0.1239624,0.003540039
1734714755001,2024-12-20T17:12:35.001Z,205556,0.03125,0.12286377,0.0032958984
1734714755007,2024-12-20T17:12:35.007Z,205562,0.03265381,0.12585449,4.272461E-4
1734714755025,2024-12-20T17:12:35.025Z,205580,0.028747559,0.12792969,-0.0014038086
1734714755030,2024-12-20T17:12:35.030Z,205585,0.025817871,0.12768555,-0.0034179688
1734714755036,2024-12-20T17:12:35.036Z,205591,0.029418945,0.1272583,-0.0049438477
1734714755042,2024-12-20T17:12:35.042Z,205597,0.03149414,0.12585449,-0.003540039
1734714755047,2024-12-20T17:12:35.047Z,205602,0.028259277,0.12628174,-0.0040283203
1734714755052,2024-12-20T17:12:35.052Z,205607,0.031433105,0.12524414,-0.0060424805
1734714755073,2024-12-20T17:12:35.073Z,205628,0.032592773,0.12402344,-0.007385254
1734714755079,2024-12-20T17:12:35.079Z,205634,0.029785156,0.12689209,-0.008483887
1734714755084,2024-12-20T17:12:35.084Z,205639,0.029846191,0.12713623,-0.008300781
1734714755094,2024-12-20T17:12:35.094Z,205649,0.029785156,0.1239624,-0.0045776367
1734714755115,2024-12-20T17:12:35.115Z,205670,0.02545166,0.12640381,-0.0030517578
1734714755120,2024-12-20T17:12:35.120Z,205675,0.024719238,0.12573242,-0.0029296875
1734714755160,2024-12-20T17:12:35.160Z,205715,0.029174805,0.12237549,-2.4414062E-4
1734714755166,2024-12-20T17:12:35.166Z,205721,0.0357666,0.12164307,0.0017700195
1734714755172,2024-12-20T17:12:35.172Z,205727,0.03186035,0.11968994,-0.0014648438
1734714755179,2024-12-20T17:12:35.179Z,205734,0.026489258,0.118652344,-0.00592041
1734714755185,2024-12-20T17:12:35.185Z,205740,0.026184082,0.123168945,-0.0063476562
1734714755192,2024-12-20T17:12:35.192Z,205747,0.03186035,0.123535156,-0.005126953
1734714755209,2024-12-20T17:12:35.209Z,205764,0.032287598,0.12084961,-0.004638672
1734714755214,2024-12-20T17:12:35.214Z,205769,0.03112793,0.12225342,-0.0068359375
1734714755221,2024-12-20T17:12:35.221Z,205776,0.031921387,0.12426758,-0.004699707
1734714755227,2024-12-20T17:12:35.227Z,205782,0.029296875,0.12084961,-3.0517578E-4
1734714755233,2024-12-20T17:12:35.233Z,205788,0.0289917,0.12054443,-0.0028076172
1734714755297,2024-12-20T17:12:35.297Z,205852,0.02960205,0.12298584,-0.00579834
1734714755303,2024-12-20T17:12:35.303Z,205858,0.032592773,0.12365723,-0.0036010742
1734714755309,2024-12-20T17:12:35.309Z,205864,0.03314209,0.12231445,-0.0018920898
1734714755315,2024-12-20T17:12:35.315Z,205870,0.030395508,0.12548828,-0.004211426
1734714755322,2024-12-20T17:12:35.322Z,205877,0.026855469,0.124572754,-0.0076904297
1734714755328,2024-12-20T17:12:35.328Z,205883,0.03161621,0.122680664,-0.008850098
1734714755344,2024-12-20T17:12:35.344Z,205899,0.030517578,0.12487793,-0.0068969727
1734714755351,2024-12-20T17:12:35.351Z,205906,0.030761719,0.12213135,-0.0059814453
1734714755358,2024-12-20T17:12:35.358Z,205913,0.028320312,0.12249756,-0.0072631836
1734714755364,2024-12-20T17:12:35.364Z,205919,0.026245117,0.12414551,-0.007751465
1734714755370,2024-12-20T17:12:35.370Z,205925,0.0289917,0.124694824,-0.007446289
1734714755386,2024-12-20T17:12:35.386Z,205941,0.03186035,0.11993408,-0.0045166016
1734714755393,2024-12-20T17:12:35.393Z,205948,0.036499023,0.12005615,-6.1035156E-5
1734714755399,2024-12-20T17:12:35.399Z,205954,0.029541016,0.12561035,3.6621094E-4
1734714755406,2024-12-20T17:12:35.406Z,205961,0.028686523,0.12286377,-0.0016479492
1734714755412,2024-12-20T17:12:35.412Z,205967,0.028869629,0.123046875,-0.005004883
1734714755417,2024-12-20T17:12:35.417Z,205972,0.027160645,0.123535156,-0.0076293945
1734714755432,2024-12-20T17:12:35.432Z,205987,0.029846191,0.1227417,-0.009460449
1734714755439,2024-12-20T17:12:35.439Z,205994,0.028137207,0.122802734,-0.008056641
1734714755445,2024-12-20T17:12:35.445Z,206000,0.032104492,0.120910645,-0.0030517578
1734714755449,2024-12-20T17:12:35.449Z,206004,0.028930664,0.12145996,-0.0017089844
1734714755455,2024-12-20T17:12:35.455Z,206010,0.027954102,0.12109375,-0.0040283203
1734714755475,2024-12-20T17:12:35.475Z,206030,0.026672363,0.12310791,-0.0064697266
1734714755480,2024-12-20T17:12:35.480Z,206035,0.024719238,0.12438965,-0.0061035156
1734714755486,2024-12-20T17:12:35.486Z,206041,0.030639648,0.12335205,-0.0034179688
1734714755491,2024-12-20T17:12:35.491Z,206046,0.027832031,0.125,-0.0036621094
1734714755496,2024-12-20T17:12:35.496Z,206051,0.028076172,0.12408447,-0.0051879883
1734714755567,2024-12-20T17:12:35.567Z,206122,0.029724121,0.1239624,-0.0037231445
1734714755573,2024-12-20T17:12:35.573Z,206128,0.030639648,0.12371826,-0.0056152344
1734714755578,2024-12-20T17:12:35.578Z,206133,0.026733398,0.12384033,-0.008483887
1734714755584,2024-12-20T17:12:35.584Z,206139,0.022399902,0.12438965,-0.008728027
1734714755590,2024-12-20T17:12:35.590Z,206145,0.02960205,0.12512207,-0.0075683594
1734714755595,2024-12-20T17:12:35.595Z,206150,0.03302002,0.12463379,-0.008300781
1734714755614,2024-12-20T17:12:35.614Z,206169,0.03112793,0.122558594,-0.0073242188
1734714755621,2024-12-20T17:12:35.621Z,206176,0.03363037,0.121276855,-0.004333496
1734714755627,2024-12-20T17:12:35.627Z,206182,0.03338623,0.123535156,-0.002746582
1734714755633,2024-12-20T17:12:35.633Z,206188,0.027893066,0.1262207,-0.004699707
1734714755638,2024-12-20T17:12:35.638Z,206193,0.028076172,0.12365723,-0.006713867
1734714755656,2024-12-20T17:12:35.656Z,206211,0.028320312,0.1239624,-0.0075683594
1734714755663,2024-12-20T17:12:35.663Z,206218,0.0289917,0.124816895,-0.009399414
1734714755668,2024-12-20T17:12:35.668Z,206223,0.032226562,0.122802734,-0.010803223
1734714755705,2024-12-20T17:12:35.705Z,206260,0.034606934,0.121154785,-0.011291504
1734714755712,2024-12-20T17:12:35.712Z,206267,0.034362793,0.12164307,-0.010498047
1734714755718,2024-12-20T17:12:35.718Z,206273,0.024353027,0.12554932,-0.009765625
1734714755725,2024-12-20T17:12:35.725Z,206280,0.023254395,0.12243652,-0.010131836
1734714755731,2024-12-20T17:12:35.731Z,206286,0.033569336,0.12402344,-0.008972168
1734714755745,2024-12-20T17:12:35.745Z,206300,0.03845215,0.12487793,-0.00793457
1734714755751,2024-12-20T17:12:35.751Z,206306,0.0390625,0.120788574,-0.0075683594
1734714755757,2024-12-20T17:12:35.757Z,206312,0.035827637,0.12365723,-0.0079956055
1734714755764,2024-12-20T17:12:35.764Z,206319,0.037841797,0.122680664,-0.010253906
1734714755769,2024-12-20T17:12:35.769Z,206324,0.035827637,0.11981201,-0.012817383
1734714755774,2024-12-20T17:12:35.774Z,206329,0.032714844,0.124816895,-0.0119018555
1734714755795,2024-12-20T17:12:35.795Z,206350,0.02923584,0.12664795,-0.009399414
1734714755802,2024-12-20T17:12:35.802Z,206357,0.028320312,0.12512207,-0.008178711
1734714755809,2024-12-20T17:12:35.809Z,206364,0.032592773,0.12542725,-0.0056762695
1734714755815,2024-12-20T17:12:35.815Z,206370,0.0335083,0.12219238,-0.0012817383
1734714755822,2024-12-20T17:12:35.822Z,206377,0.028076172,0.12231445,-9.765625E-4
1734714755835,2024-12-20T17:12:35.835Z,206390,0.03289795,0.122924805,-0.0049438477
1734714755841,2024-12-20T17:12:35.841Z,206396,0.032714844,0.12438965,-0.009521484
1734714755851,2024-12-20T17:12:35.851Z,206406,0.029296875,0.12585449,-0.014465332
1734714755857,2024-12-20T17:12:35.857Z,206412,0.029174805,0.12579346,-0.016540527
1734714755863,2024-12-20T17:12:35.863Z,206418,0.033935547,0.1239624,-0.013549805
1734714755867,2024-12-20T17:12:35.867Z,206422,0.03552246,0.12573242,-0.0115356445
1734714755882,2024-12-20T17:12:35.882Z,206437,0.030395508,0.12188721,-0.012329102
1734714755887,2024-12-20T17:12:35.887Z,206442,0.030944824,0.11639404,-0.01373291
1734714755893,2024-12-20T17:12:35.893Z,206448,0.03527832,0.11987305,-0.009033203
1734714755898,2024-12-20T17:12:35.898Z,206453,0.031982422,0.124694824,-0.007507324
1734714755925,2024-12-20T17:12:35.925Z,206480,0.028930664,0.123046875,-0.007080078
1734714755931,2024-12-20T17:12:35.931Z,206486,0.02508545,0.12634277,-0.00592041
1734714755936,2024-12-20T17:12:35.936Z,206491,0.027709961,0.12683105,-0.00793457
1734714755941,2024-12-20T17:12:35.941Z,206496,0.035339355,0.12426758,-0.00970459
1734714756018,2024-12-20T17:12:36.018Z,206573,0.036132812,0.12298584,-0.01184082
1734714756024,2024-12-20T17:12:36.024Z,206579,0.035583496,0.121276855,-0.013000488
1734714756028,2024-12-20T17:12:36.028Z,206583,0.028869629,0.1260376,-0.010437012
1734714756034,2024-12-20T17:12:36.034Z,206589,0.028320312,0.12658691,-0.0073242188
1734714756041,2024-12-20T17:12:36.041Z,206596,0.02960205,0.1260376,-0.009338379
1734714756060,2024-12-20T17:12:36.060Z,206615,0.028808594,0.1303711,-0.011047363
1734714756068,2024-12-20T17:12:36.068Z,206623,0.030822754,0.12939453,-0.010864258
1734714756075,2024-12-20T17:12:36.075Z,206630,0.03765869,0.12658691,-0.008666992
1734714756083,2024-12-20T17:12:36.083Z,206638,0.037597656,0.12976074,-0.008178711
1734714756089,2024-12-20T17:12:36.089Z,206644,0.037719727,0.13134766,-0.008605957
1734714756096,2024-12-20T17:12:36.096Z,206651,0.03265381,0.13354492,-0.010620117
1734714756109,2024-12-20T17:12:36.109Z,206664,0.031677246,0.13354492,-0.013793945
1734714756115,2024-12-20T17:12:36.115Z,206670,0.028747559,0.13122559,-0.013916016
1734714756121,2024-12-20T17:12:36.121Z,206676,0.029174805,0.12994385,-0.007019043
1734714756127,2024-12-20T17:12:36.127Z,206682,0.035339355,0.13079834,-0.0016479492
