Timestamp (ms),ISO DateTime,Elapsed Time (ms),Acceleration X,Acceleration Y,Acceleration Z
1725817320290,2024-09-08T17:42:00.290Z,276398,0.023132324,0.9927368,-0.04626465
1725817320333,2024-09-08T17:42:00.333Z,276441,0.025634766,0.99713135,-0.056030273
1725817320376,2024-09-08T17:42:00.376Z,276484,0.02911377,0.9937134,-0.054382324
1725817320421,2024-09-08T17:42:00.421Z,276529,0.028503418,1.0012817,-0.055541992
1725817320430,2024-09-08T17:42:00.430Z,276538,0.03302002,1.0081787,-0.06542969
1725817320466,2024-09-08T17:42:00.466Z,276574,0.023742676,1.0108643,-0.060424805
1725817320510,2024-09-08T17:42:00.510Z,276618,0.03466797,1.0163574,-0.059265137
1725817320561,2024-09-08T17:42:00.561Z,276669,0.023376465,1.0245361,-0.064575195
1725817320608,2024-09-08T17:42:00.608Z,276716,0.0178833,1.0280151,-0.05718994
1725817320652,2024-09-08T17:42:00.652Z,276760,0.016052246,1.0157471,-0.049682617
1725817320700,2024-09-08T17:42:00.700Z,276808,0.027648926,1.0021973,-0.04260254
1725817320741,2024-09-08T17:42:00.741Z,276849,0.01965332,0.991272,-0.044067383
1725817320787,2024-09-08T17:42:00.787Z,276895,0.020690918,0.97680664,-0.04034424
1725817320832,2024-09-08T17:42:00.832Z,276940,0.024719238,0.9641113,-0.033935547
1725817320855,2024-09-08T17:42:00.855Z,276963,0.024108887,0.94451904,-0.038085938
1725817320875,2024-09-08T17:42:00.875Z,276983,0.030029297,0.93634033,-0.056396484
1725817320923,2024-09-08T17:42:00.923Z,277031,0.032592773,0.95495605,-0.04296875
1725817320966,2024-09-08T17:42:00.966Z,277074,0.027832031,1.0084229,-0.064331055
1725817321010,2024-09-08T17:42:01.010Z,277118,0.019897461,1.0127563,-0.051818848
1725817321057,2024-09-08T17:42:01.057Z,277165,0.01965332,1.0116577,-0.079711914
1725817321102,2024-09-08T17:42:01.102Z,277210,0.035461426,0.9884033,-0.064208984
1725817321144,2024-09-08T17:42:01.144Z,277252,0.024841309,0.9834595,-0.07672119
1725817321191,2024-09-08T17:42:01.191Z,277299,0.023010254,0.9813843,-0.077819824
1725817321240,2024-09-08T17:42:01.240Z,277348,0.030334473,0.9885254,-0.070129395
1725817321281,2024-09-08T17:42:01.281Z,277389,0.023376465,0.9841919,-0.08660889
1725817321299,2024-09-08T17:42:01.299Z,277407,0.027038574,0.99139404,-0.078125
1725817321322,2024-09-08T17:42:01.322Z,277430,0.0060424805,0.9751587,-0.08337402
1725817321369,2024-09-08T17:42:01.369Z,277477,0.019042969,0.9694824,-0.09185791
1725817321417,2024-09-08T17:42:01.417Z,277525,0.023986816,0.9783325,-0.0871582
1725817321461,2024-09-08T17:42:01.461Z,277569,0.0154418945,0.9909668,-0.111572266
1725817321508,2024-09-08T17:42:01.508Z,277616,0.01763916,0.99609375,-0.10144043
1725817321553,2024-09-08T17:42:01.553Z,277661,0.026855469,0.99975586,-0.10266113
1725817321598,2024-09-08T17:42:01.598Z,277706,0.03564453,1.0014648,-0.11437988
1725817321644,2024-09-08T17:42:01.644Z,277752,0.028625488,0.9857178,-0.09863281
1725817321690,2024-09-08T17:42:01.690Z,277798,0.021911621,0.97161865,-0.1060791
1725817321711,2024-09-08T17:42:01.711Z,277819,0.036315918,0.94403076,-0.107299805
1725817321730,2024-09-08T17:42:01.730Z,277838,0.047424316,0.9612427,-0.09698486
1725817321775,2024-09-08T17:42:01.775Z,277883,0.022399902,0.96307373,-0.09729004
1725817321822,2024-09-08T17:42:01.822Z,277930,0.023376465,0.9735718,-0.11651611
1725817321865,2024-09-08T17:42:01.865Z,277973,0.035888672,0.97766113,-0.08984375
1725817321910,2024-09-08T17:42:01.910Z,278018,0.03753662,0.9785156,-0.07879639
1725817321957,2024-09-08T17:42:01.957Z,278065,0.035339355,1.0217285,-0.12957764
1725817322000,2024-09-08T17:42:02Z,278108,0.028137207,1.0310059,-0.13952637
1725817322045,2024-09-08T17:42:02.045Z,278153,0.027404785,1.015686,-0.09710693
1725817322093,2024-09-08T17:42:02.093Z,278201,0.03845215,1.0418701,-0.1274414
1725817322114,2024-09-08T17:42:02.114Z,278222,0.04626465,1.0183716,-0.107788086
1725817322135,2024-09-08T17:42:02.135Z,278243,0.030334473,1.0140381,-0.13104248
1725817322179,2024-09-08T17:42:02.179Z,278287,0.035888672,1.0012817,-0.11328125
1725817322225,2024-09-08T17:42:02.225Z,278333,0.05065918,0.9979248,-0.10876465
1725817322273,2024-09-08T17:42:02.273Z,278381,0.04156494,1.0003052,-0.10772705
1725817322316,2024-09-08T17:42:02.316Z,278424,0.042114258,1.0168457,-0.11425781
1725817322363,2024-09-08T17:42:02.363Z,278471,0.046569824,1.0274658,-0.09991455
1725817322408,2024-09-08T17:42:02.408Z,278516,0.033813477,1.0402222,-0.11151123
1725817322454,2024-09-08T17:42:02.454Z,278562,0.029541016,1.0180664,-0.1048584
1725817322497,2024-09-08T17:42:02.497Z,278605,0.029724121,1.0227661,-0.118774414
1725817322542,2024-09-08T17:42:02.542Z,278650,0.04248047,1.0203857,-0.11242676
1725817322562,2024-09-08T17:42:02.562Z,278670,0.03112793,1.0192871,-0.1159668
1725817322585,2024-09-08T17:42:02.585Z,278693,0.036071777,1.019104,-0.118652344
1725817322629,2024-09-08T17:42:02.629Z,278737,0.038879395,1.0148315,-0.11541748
1725817322724,2024-09-08T17:42:02.724Z,278832,0.040893555,1.0115356,-0.12420654
1725817322744,2024-09-08T17:42:02.744Z,278852,0.0446167,1.0241089,-0.12335205
1725817322765,2024-09-08T17:42:02.765Z,278873,0.04699707,1.0222168,-0.096069336
1725817322812,2024-09-08T17:42:02.812Z,278920,0.06036377,1.0269775,-0.11975098
1725817322856,2024-09-08T17:42:02.856Z,278964,0.03527832,1.0371094,-0.11517334
1725817322902,2024-09-08T17:42:02.902Z,279010,0.023376465,1.0331421,-0.12664795
1725817322946,2024-09-08T17:42:02.946Z,279054,0.045837402,1.0509033,-0.12390137
1725817322966,2024-09-08T17:42:02.966Z,279074,0.037841797,1.0482178,-0.11425781
1725817322990,2024-09-08T17:42:02.990Z,279098,0.046020508,1.0703735,-0.11193848
1725817323036,2024-09-08T17:42:03.036Z,279144,0.04284668,1.0863037,-0.15258789
1725817323080,2024-09-08T17:42:03.080Z,279188,0.021118164,1.0193481,-0.101501465
1725817323128,2024-09-08T17:42:03.128Z,279236,0.02508545,0.9609375,-0.084350586
1725817323170,2024-09-08T17:42:03.170Z,279278,0.060058594,0.9508667,-0.1665039
1725817323216,2024-09-08T17:42:03.216Z,279324,0.030456543,0.97650146,-0.1315918
1725817323263,2024-09-08T17:42:03.263Z,279371,0.01739502,1.0178833,-0.07086182
1725817323307,2024-09-08T17:42:03.307Z,279415,0.046081543,0.9991455,-0.11413574
1725817323352,2024-09-08T17:42:03.352Z,279460,0.066833496,1.0097656,-0.079956055
1725817323373,2024-09-08T17:42:03.373Z,279481,0.018066406,1.0197144,-0.06237793
1725817323395,2024-09-08T17:42:03.395Z,279503,0.033569336,1.0302124,-0.10345459
1725817323440,2024-09-08T17:42:03.440Z,279548,0.05706787,1.036438,-0.09863281
1725817323485,2024-09-08T17:42:03.485Z,279593,0.02935791,1.0126953,-0.08807373
1725817323533,2024-09-08T17:42:03.533Z,279641,0.015319824,1.031311,-0.13848877
1725817323574,2024-09-08T17:42:03.574Z,279682,0.05419922,1.0369263,-0.06890869
1725817323619,2024-09-08T17:42:03.619Z,279727,0.04724121,1.03479,-0.097717285
1725817323666,2024-09-08T17:42:03.666Z,279774,0.03955078,1.026001,-0.07397461
1725817323713,2024-09-08T17:42:03.713Z,279821,0.024597168,1.0065308,-0.08831787
1725817323756,2024-09-08T17:42:03.756Z,279864,0.05114746,0.9550171,-0.08099365
1725817323800,2024-09-08T17:42:03.800Z,279908,0.045654297,0.9470215,-0.0713501
1725817323820,2024-09-08T17:42:03.820Z,279928,0.036621094,0.9879761,-0.11315918
1725817323845,2024-09-08T17:42:03.845Z,279953,0.0289917,1.0092773,-0.10821533
1725817323893,2024-09-08T17:42:03.893Z,280001,0.009338379,1.0231323,-0.07116699
1725817323945,2024-09-08T17:42:03.945Z,280053,0.037719727,1.0106201,-0.13378906
1725817323983,2024-09-08T17:42:03.983Z,280091,0.053833008,1.0196533,-0.12860107
1725817324026,2024-09-08T17:42:04.026Z,280134,0.015014648,1.0569458,-0.09686279
1725817324072,2024-09-08T17:42:04.072Z,280180,0.045043945,1.0508423,-0.10620117
1725817324117,2024-09-08T17:42:04.117Z,280225,0.045715332,1.0319824,-0.107177734
1725817324162,2024-09-08T17:42:04.162Z,280270,0.0335083,1.0233765,-0.10888672
1725817324205,2024-09-08T17:42:04.205Z,280313,0.035827637,1.0235596,-0.09918213
1725817324223,2024-09-08T17:42:04.223Z,280331,0.041503906,1.0733032,-0.09301758
1725817324251,2024-09-08T17:42:04.251Z,280359,0.06011963,1.0615845,-0.111816406
1725817324296,2024-09-08T17:42:04.296Z,280404,0.013000488,1.0856934,-0.114868164
1725817324341,2024-09-08T17:42:04.341Z,280449,0.02520752,1.0852051,-0.12182617
1725817324387,2024-09-08T17:42:04.387Z,280495,0.04534912,1.0858154,-0.13537598
1725817324432,2024-09-08T17:42:04.432Z,280540,0.04272461,1.0958862,-0.1159668
1725817324476,2024-09-08T17:42:04.476Z,280584,0.036315918,1.0961304,-0.12542725
1725817324566,2024-09-08T17:42:04.566Z,280674,0.051818848,1.0933228,-0.10662842
1725817324586,2024-09-08T17:42:04.586Z,280694,0.042907715,1.0911865,-0.0993042
1725817324614,2024-09-08T17:42:04.614Z,280722,0.037475586,1.0795288,-0.1105957
1725817324631,2024-09-08T17:42:04.631Z,280739,0.046447754,1.0599976,-0.08105469
1725817324654,2024-09-08T17:42:04.654Z,280762,0.025634766,1.0424194,-0.10180664
1725817324702,2024-09-08T17:42:04.702Z,280810,0.027648926,1.0130005,-0.09802246
1725817324744,2024-09-08T17:42:04.744Z,280852,0.02355957,0.99450684,-0.07421875
1725817324789,2024-09-08T17:42:04.789Z,280897,0.042175293,0.9944458,-0.09954834
1725817324836,2024-09-08T17:42:04.836Z,280944,0.042541504,1.0091553,-0.087646484
1725817324881,2024-09-08T17:42:04.881Z,280989,0.047668457,1.0430908,-0.10211182
1725817324928,2024-09-08T17:42:04.928Z,281036,0.0289917,1.0348511,-0.09692383
1725817324973,2024-09-08T17:42:04.973Z,281081,0.044067383,0.98223877,-0.07397461
1725817325017,2024-09-08T17:42:05.017Z,281125,0.025146484,0.95581055,-0.10266113
1725817325061,2024-09-08T17:42:05.061Z,281169,0.023986816,0.94610596,-0.070251465
1725817325081,2024-09-08T17:42:05.081Z,281189,0.028381348,0.940979,-0.085998535
1725817325105,2024-09-08T17:42:05.105Z,281213,0.038757324,0.95043945,-0.06762695
1725817325151,2024-09-08T17:42:05.151Z,281259,0.022644043,0.96398926,-0.055358887
1725817325196,2024-09-08T17:42:05.196Z,281304,0.016174316,0.9987793,-0.084106445
1725817325242,2024-09-08T17:42:05.242Z,281350,0.037597656,1.0032959,-0.035095215
1725817325287,2024-09-08T17:42:05.287Z,281395,0.0211792,0.98358154,-0.059753418
1725817325333,2024-09-08T17:42:05.333Z,281441,0.018737793,0.9780884,-0.07763672
1725817325380,2024-09-08T17:42:05.380Z,281488,0.023742676,0.9663696,-0.029846191
1725817325423,2024-09-08T17:42:05.423Z,281531,0.024169922,0.97161865,-0.055786133
1725817325467,2024-09-08T17:42:05.467Z,281575,0.022338867,0.9854126,-0.06402588
1725817325488,2024-09-08T17:42:05.488Z,281596,0.03564453,1.0021362,-0.027648926
1725817325510,2024-09-08T17:42:05.510Z,281618,-0.014282227,1.0106812,-0.06518555
1725817325555,2024-09-08T17:42:05.555Z,281663,0.037597656,0.9928589,-0.021057129
1725817325601,2024-09-08T17:42:05.601Z,281709,0.013183594,0.9857178,-0.02532959
1725817325647,2024-09-08T17:42:05.647Z,281755,0.009094238,0.97491455,-0.0057373047
1725817325692,2024-09-08T17:42:05.692Z,281800,0.007507324,0.9736328,-0.034973145
1725817325737,2024-09-08T17:42:05.737Z,281845,0.001159668,0.96240234,-0.026611328
1725817325782,2024-09-08T17:42:05.782Z,281890,0.02557373,0.9603882,-0.0040283203
1725817325824,2024-09-08T17:42:05.824Z,281932,0.03277588,0.96569824,0.0060424805
1725817325870,2024-09-08T17:42:05.870Z,281978,0.019592285,0.96661377,-0.013122559
1725817325888,2024-09-08T17:42:05.888Z,281996,0.035888672,0.92370605,0.005859375
1725817325913,2024-09-08T17:42:05.913Z,282021,0.022033691,0.9202881,-0.02142334
1725817325961,2024-09-08T17:42:05.961Z,282069,0.030883789,0.9176636,0.010986328
1725817326006,2024-09-08T17:42:06.006Z,282114,0.01727295,0.9350586,0.0014038086
1725817326054,2024-09-08T17:42:06.054Z,282162,0.023925781,0.9732666,-0.010681152
1725817326098,2024-09-08T17:42:06.098Z,282206,0.015319824,1.0118408,0.016845703
1725817326141,2024-09-08T17:42:06.141Z,282249,-0.0057373047,1.0288696,0.013000488
1725817326189,2024-09-08T17:42:06.189Z,282297,-0.00390625,1.0133057,0.019958496
1725817326233,2024-09-08T17:42:06.233Z,282341,0.0026855469,1.010315,0.0052490234
1725817326277,2024-09-08T17:42:06.277Z,282385,0.014892578,0.9767456,0.011779785
1725817326324,2024-09-08T17:42:06.324Z,282432,0.029052734,0.9768677,-0.009277344
1725817326345,2024-09-08T17:42:06.345Z,282453,0.026367188,0.9795532,-0.008483887
1725817326365,2024-09-08T17:42:06.365Z,282473,0.028137207,0.9986572,-0.02709961
1725817326411,2024-09-08T17:42:06.411Z,282519,0.018127441,1.0059814,-0.023132324
1725817326455,2024-09-08T17:42:06.455Z,282563,0.020263672,1.0189209,-0.023010254
1725817326502,2024-09-08T17:42:06.502Z,282610,0.022399902,1.0180054,-0.032592773
1725817326546,2024-09-08T17:42:06.546Z,282654,0.022888184,1.0267944,-0.018798828
1725817326591,2024-09-08T17:42:06.591Z,282699,0.023498535,1.032898,-0.015258789
1725817326638,2024-09-08T17:42:06.638Z,282746,0.005554199,1.0184326,-0.014526367
1725817326683,2024-09-08T17:42:06.683Z,282791,0.017211914,1.0022583,3.0517578E-4
1725817326726,2024-09-08T17:42:06.726Z,282834,0.013183594,0.9986572,0.0040283203
1725817326749,2024-09-08T17:42:06.749Z,282857,0.014892578,0.9984131,-0.0025024414
1725817326774,2024-09-08T17:42:06.774Z,282882,0.017700195,0.9884033,-0.012023926
1725817326825,2024-09-08T17:42:06.825Z,282933,0.020446777,0.9916992,-0.016479492
1725817326859,2024-09-08T17:42:06.859Z,282967,0.020812988,0.98791504,-0.02709961
1725817326906,2024-09-08T17:42:06.906Z,283014,0.022583008,0.9958496,-0.021118164
1725817326954,2024-09-08T17:42:06.954Z,283062,0.0134887695,0.9998779,-0.031555176
1725817326995,2024-09-08T17:42:06.995Z,283103,0.018249512,0.99993896,-0.03881836
1725817327040,2024-09-08T17:42:07.040Z,283148,0.018859863,0.99572754,-0.02520752
1725817327087,2024-09-08T17:42:07.087Z,283195,0.016906738,1.0008545,-0.03186035
1725817327130,2024-09-08T17:42:07.130Z,283238,0.016296387,0.9892578,-0.038757324
1725817327151,2024-09-08T17:42:07.151Z,283259,0.020935059,0.98657227,-0.033691406
1725817327174,2024-09-08T17:42:07.174Z,283282,0.02130127,0.99053955,-0.026916504
1725817327221,2024-09-08T17:42:07.221Z,283329,0.024902344,0.9981079,-0.03173828
1725817327265,2024-09-08T17:42:07.265Z,283373,0.019897461,0.9989624,-0.03857422
1725817327312,2024-09-08T17:42:07.312Z,283420,0.025146484,0.9960327,-0.04425049
1725817327357,2024-09-08T17:42:07.357Z,283465,0.01763916,0.9996948,-0.045166016
1725817327402,2024-09-08T17:42:07.402Z,283510,0.029418945,0.987854,-0.0423584
1725817327445,2024-09-08T17:42:07.445Z,283553,0.010192871,0.9899292,-0.07244873
1725817327491,2024-09-08T17:42:07.491Z,283599,0.011352539,1.001648,-0.06311035
1725817327538,2024-09-08T17:42:07.538Z,283646,0.023925781,0.989624,-0.048828125
1725817327580,2024-09-08T17:42:07.580Z,283688,0.01763916,0.9927368,-0.09289551
1725817327597,2024-09-08T17:42:07.597Z,283705,0.022644043,0.97528076,-0.07318115
1725817327626,2024-09-08T17:42:07.626Z,283734,0.025939941,0.9727173,-0.070251465
1725817327670,2024-09-08T17:42:07.670Z,283778,0.012756348,0.9746094,-0.09197998
1725817327716,2024-09-08T17:42:07.716Z,283824,0.025024414,0.9821167,-0.072509766
1725817327761,2024-09-08T17:42:07.761Z,283869,0.016174316,0.99890137,-0.09301758
1725817327807,2024-09-08T17:42:07.807Z,283915,0.02709961,0.98913574,-0.09289551
1725817327894,2024-09-08T17:42:07.894Z,284002,0.035461426,0.9881592,-0.07800293
1725817327915,2024-09-08T17:42:07.915Z,284023,0.012023926,0.987854,-0.09844971
1725817327940,2024-09-08T17:42:07.940Z,284048,0.007507324,0.9909668,-0.11462402
1725817327985,2024-09-08T17:42:07.985Z,284093,0.021118164,0.9849243,-0.08300781
1725817328003,2024-09-08T17:42:08.003Z,284111,0.039611816,0.99731445,-0.10864258
1725817328029,2024-09-08T17:42:08.029Z,284137,0.012084961,0.97924805,-0.08477783
1725817328075,2024-09-08T17:42:08.075Z,284183,0.013671875,0.96014404,-0.10412598
1725817328121,2024-09-08T17:42:08.121Z,284229,0.03363037,0.9594116,-0.10998535
1725817328164,2024-09-08T17:42:08.164Z,284272,0.046081543,0.97058105,-0.10803223
1725817328212,2024-09-08T17:42:08.212Z,284320,0.041137695,0.9807739,-0.11376953
1725817328261,2024-09-08T17:42:08.261Z,284369,0.048706055,0.9953613,-0.099365234
1725817328303,2024-09-08T17:42:08.303Z,284411,0.054260254,1.0048828,-0.11218262
1725817328347,2024-09-08T17:42:08.347Z,284455,0.03375244,1.0229492,-0.08605957
1725817328394,2024-09-08T17:42:08.394Z,284502,0.03112793,1.0093994,-0.09259033
1725817328411,2024-09-08T17:42:08.411Z,284519,0.04638672,1.0209961,-0.14294434
1725817328435,2024-09-08T17:42:08.435Z,284543,0.022888184,1.0200195,-0.095581055
1725817328479,2024-09-08T17:42:08.479Z,284587,0.016296387,1.0067139,-0.12005615
1725817328527,2024-09-08T17:42:08.527Z,284635,0.030761719,1.0001831,-0.117248535
1725817328571,2024-09-08T17:42:08.571Z,284679,0.04827881,0.99401855,-0.107055664
1725817328661,2024-09-08T17:42:08.661Z,284769,0.04473877,0.9918213,-0.12054443
1725817328683,2024-09-08T17:42:08.683Z,284791,0.051940918,1.0182495,-0.115478516
1725817328706,2024-09-08T17:42:08.706Z,284814,0.05633545,1.012207,-0.11328125
1725817328755,2024-09-08T17:42:08.755Z,284863,0.065979004,1.0317383,-0.1305542
1725817328844,2024-09-08T17:42:08.844Z,284952,0.061035156,1.0654297,-0.11566162
1725817328864,2024-09-08T17:42:08.864Z,284972,0.05432129,1.0513306,-0.11230469
1725817328884,2024-09-08T17:42:08.884Z,284992,0.041015625,1.0689087,-0.1496582
1725817328902,2024-09-08T17:42:08.902Z,285010,0.03765869,1.06604,-0.10467529
1725817328933,2024-09-08T17:42:08.933Z,285041,0.04058838,1.0284424,-0.103149414
1725817328980,2024-09-08T17:42:08.980Z,285088,0.038635254,1.0178223,-0.09820557
1725817329021,2024-09-08T17:42:09.021Z,285129,0.03112793,1.0078735,-0.10699463
1725817329067,2024-09-08T17:42:09.067Z,285175,0.029052734,0.9881592,-0.08703613
1725817329114,2024-09-08T17:42:09.114Z,285222,0.037719727,0.97943115,-0.08282471
1725817329159,2024-09-08T17:42:09.159Z,285267,0.043701172,0.98931885,-0.09655762
1725817329202,2024-09-08T17:42:09.202Z,285310,0.04345703,0.9976196,-0.084350586
1725817329246,2024-09-08T17:42:09.246Z,285354,0.033691406,1.0045776,-0.09765625
1725817329266,2024-09-08T17:42:09.266Z,285374,0.03149414,1.013794,-0.11047363
1725817329289,2024-09-08T17:42:09.289Z,285397,0.035583496,1.0022583,-0.09008789
1725817329335,2024-09-08T17:42:09.335Z,285443,0.030578613,1.0230713,-0.12713623
1725817329381,2024-09-08T17:42:09.381Z,285489,0.041259766,1.0324707,-0.09124756
1725817329427,2024-09-08T17:42:09.427Z,285535,0.023803711,1.0296631,-0.10614014
1725817329473,2024-09-08T17:42:09.473Z,285581,0.033691406,1.0273438,-0.109558105
1725817329517,2024-09-08T17:42:09.517Z,285625,0.032165527,1.0228882,-0.099731445
1725817329563,2024-09-08T17:42:09.563Z,285671,0.03918457,1.0414429,-0.10296631
1725817329608,2024-09-08T17:42:09.608Z,285716,0.04638672,1.0519409,-0.11004639
1725817329650,2024-09-08T17:42:09.650Z,285758,0.043640137,1.0178833,-0.0982666
1725817329671,2024-09-08T17:42:09.671Z,285779,0.033447266,1.0054932,-0.10467529
1725817329705,2024-09-08T17:42:09.705Z,285813,0.037597656,1.0125732,-0.10284424
1725817329741,2024-09-08T17:42:09.741Z,285849,0.025817871,1.0021362,-0.11254883
1725817329788,2024-09-08T17:42:09.788Z,285896,0.02947998,1.0286865,-0.12042236
1725817329831,2024-09-08T17:42:09.831Z,285939,0.02508545,1.0457764,-0.10748291
1725817329878,2024-09-08T17:42:09.878Z,285986,0.030395508,1.062439,-0.121276855
1725817329966,2024-09-08T17:42:09.966Z,286074,0.023803711,1.0454102,-0.07965088
1725817329987,2024-09-08T17:42:09.987Z,286095,0.03314209,1.0163574,-0.095825195
1725817330011,2024-09-08T17:42:10.011Z,286119,0.03265381,1.0198364,-0.09625244
1725817330057,2024-09-08T17:42:10.057Z,286165,0.02935791,1.0045776,-0.07684326
1725817330077,2024-09-08T17:42:10.077Z,286185,0.026000977,0.99176025,-0.08538818
1725817330101,2024-09-08T17:42:10.101Z,286209,0.031799316,0.98028564,-0.08001709
1725817330149,2024-09-08T17:42:10.149Z,286257,0.022460938,0.9909668,-0.103027344
1725817330193,2024-09-08T17:42:10.193Z,286301,0.022888184,0.98431396,-0.09313965
1725817330238,2024-09-08T17:42:10.238Z,286346,0.033935547,0.9816284,-0.10217285
1725817330284,2024-09-08T17:42:10.284Z,286392,0.031066895,0.98095703,-0.10144043
1725817330329,2024-09-08T17:42:10.329Z,286437,0.015136719,0.9974365,-0.11468506
1725817330373,2024-09-08T17:42:10.373Z,286481,0.035705566,1.0045166,-0.10797119
1725817330461,2024-09-08T17:42:10.461Z,286569,0.030700684,1.0133057,-0.11627197
1725817330481,2024-09-08T17:42:10.481Z,286589,0.04083252,1.0214233,-0.10394287
1725817330505,2024-09-08T17:42:10.505Z,286613,0.033813477,1.0354614,-0.11364746
1725817330542,2024-09-08T17:42:10.542Z,286650,0.034057617,1.0657959,-0.121520996
1725817330561,2024-09-08T17:42:10.561Z,286669,0.039611816,1.0991211,-0.107299805
1725817330596,2024-09-08T17:42:10.596Z,286704,0.048034668,1.1114502,-0.11816406
1725817330640,2024-09-08T17:42:10.640Z,286748,0.049743652,1.1061401,-0.11608887
1725817330685,2024-09-08T17:42:10.685Z,286793,0.026489258,1.1151123,-0.1303711
1725817330731,2024-09-08T17:42:10.731Z,286839,0.037963867,1.1064453,-0.11053467
1725817330777,2024-09-08T17:42:10.777Z,286885,0.041137695,1.0942383,-0.11981201
1725817330823,2024-09-08T17:42:10.823Z,286931,0.041381836,1.0778198,-0.10998535
1725817330867,2024-09-08T17:42:10.867Z,286975,0.038330078,1.0827026,-0.10473633
1725817330913,2024-09-08T17:42:10.913Z,287021,0.027954102,1.0509033,-0.09851074
1725817330931,2024-09-08T17:42:10.931Z,287039,0.03466797,1.017395,-0.101135254
1725817330955,2024-09-08T17:42:10.955Z,287063,0.04107666,0.98779297,-0.071899414
1725817331000,2024-09-08T17:42:11Z,287108,0.03930664,0.99664307,-0.08929443
1725817331051,2024-09-08T17:42:11.051Z,287159,0.026062012,0.9902954,-0.09283447
1725817331091,2024-09-08T17:42:11.091Z,287199,0.028503418,0.9949951,-0.06427002
1725817331137,2024-09-08T17:42:11.137Z,287245,0.028320312,0.98724365,-0.10455322
1725817331183,2024-09-08T17:42:11.183Z,287291,0.03515625,0.9924927,-0.06945801
1725817331228,2024-09-08T17:42:11.228Z,287336,0.02758789,1.0059204,-0.07965088
1725817331278,2024-09-08T17:42:11.278Z,287386,0.03503418,1.0045166,-0.07891846
1725817331314,2024-09-08T17:42:11.314Z,287422,0.02331543,1.0155029,-0.095947266
1725817331333,2024-09-08T17:42:11.333Z,287441,0.03692627,0.99328613,-0.0513916
1725817331361,2024-09-08T17:42:11.361Z,287469,0.019714355,0.99401855,-0.10522461
1725817331407,2024-09-08T17:42:11.407Z,287515,0.04522705,0.98553467,-0.05871582
1725817331450,2024-09-08T17:42:11.450Z,287558,0.029846191,1.0003052,-0.09613037
1725817331495,2024-09-08T17:42:11.495Z,287603,0.04168701,1.0167847,-0.07525635
1725817331540,2024-09-08T17:42:11.540Z,287648,0.026123047,1.0083008,-0.08343506
1725817331584,2024-09-08T17:42:11.584Z,287692,0.026977539,1.0111694,-0.09790039
1725817331630,2024-09-08T17:42:11.630Z,287738,0.040649414,1.0090942,-0.054748535
1725817331676,2024-09-08T17:42:11.676Z,287784,0.026794434,1.0186157,-0.10131836
1725817331721,2024-09-08T17:42:11.721Z,287829,0.03942871,1.0222168,-0.061340332
1725817331767,2024-09-08T17:42:11.767Z,287875,0.015625,1.0229492,-0.08605957
1725817331785,2024-09-08T17:42:11.785Z,287893,0.03302002,1.0098877,-0.052246094
1725817331810,2024-09-08T17:42:11.810Z,287918,0.031677246,0.99121094,-0.07574463
1725817331855,2024-09-08T17:42:11.855Z,287963,0.03161621,0.9837036,-0.047180176
1725817331900,2024-09-08T17:42:11.900Z,288008,0.022766113,0.970459,-0.058166504
1725817331946,2024-09-08T17:42:11.946Z,288054,0.00592041,0.9827881,-0.06890869
1725817331990,2024-09-08T17:42:11.990Z,288098,0.013000488,0.9749756,-0.039611816
1725817332036,2024-09-08T17:42:12.036Z,288144,0.022766113,0.9699707,-0.0501709
1725817332082,2024-09-08T17:42:12.082Z,288190,0.007019043,0.96795654,-0.047851562
1725817332126,2024-09-08T17:42:12.126Z,288234,0.018066406,0.96466064,-0.053527832
1725817332171,2024-09-08T17:42:12.171Z,288279,0.01928711,0.96502686,-0.039794922
1725817332188,2024-09-08T17:42:12.188Z,288296,0.018371582,0.9647217,-0.048034668
1725817332217,2024-09-08T17:42:12.217Z,288325,0.023742676,0.9758911,-0.009887695
1725817332261,2024-09-08T17:42:12.261Z,288369,0.020446777,0.9738159,-0.018981934
1725817332307,2024-09-08T17:42:12.307Z,288415,0.017578125,0.9501343,-0.0289917
1725817332352,2024-09-08T17:42:12.352Z,288460,0.020385742,0.94036865,2.4414062E-4
1725817332398,2024-09-08T17:42:12.398Z,288506,0.007019043,0.9230957,3.6621094E-4
1725817332440,2024-09-08T17:42:12.440Z,288548,0.018432617,0.91833496,-0.005126953
1725817332487,2024-09-08T17:42:12.487Z,288595,0.022216797,0.942749,0.005859375
1725817332533,2024-09-08T17:42:12.533Z,288641,-7.9345703E-4,0.97595215,0.037597656
1725817332579,2024-09-08T17:42:12.579Z,288687,-0.0115356445,1.0164795,0.028076172
1725817332601,2024-09-08T17:42:12.601Z,288709,-0.010864258,1.0184326,0.013305664
1725817332622,2024-09-08T17:42:12.622Z,288730,0.010192871,0.99505615,0.011230469
1725817332667,2024-09-08T17:42:12.667Z,288775,0.027770996,0.98095703,-0.0087890625
1725817332756,2024-09-08T17:42:12.756Z,288864,0.039367676,0.989624,-0.025756836
1725817332775,2024-09-08T17:42:12.775Z,288883,0.018127441,0.98846436,-0.041748047
1725817332799,2024-09-08T17:42:12.799Z,288907,0.04168701,0.9992676,-0.013366699
1725817332849,2024-09-08T17:42:12.849Z,288957,0.043273926,1.0089722,-0.022705078
1725817332891,2024-09-08T17:42:12.891Z,288999,0.03942871,1.0183716,-0.028259277
1725817332936,2024-09-08T17:42:12.936Z,289044,0.03387451,1.013855,-0.024291992
1725817332981,2024-09-08T17:42:12.981Z,289089,0.023071289,1.0164795,-0.014404297
1725817333025,2024-09-08T17:42:13.025Z,289133,0.0211792,1.0045776,-0.005859375
1725817333042,2024-09-08T17:42:13.042Z,289150,-0.0076904297,1.0124512,0.004211426
1725817333073,2024-09-08T17:42:13.073Z,289181,-0.008605957,1.0332031,0.012878418
1725817333116,2024-09-08T17:42:13.116Z,289224,-0.014038086,1.0287476,0.019714355
1725817333161,2024-09-08T17:42:13.161Z,289269,0.008422852,1.0132446,0.009643555
1725817333209,2024-09-08T17:42:13.209Z,289317,0.028076172,1.0067749,-0.010437012
1725817333253,2024-09-08T17:42:13.253Z,289361,0.032409668,0.99432373,-0.0018310547
1725817333295,2024-09-08T17:42:13.295Z,289403,0.03527832,0.9859009,-0.031982422
1725817333344,2024-09-08T17:42:13.344Z,289452,0.034118652,1.0023193,-0.020568848
1725817333386,2024-09-08T17:42:13.386Z,289494,0.035888672,0.9998779,-0.009643555
1725817333433,2024-09-08T17:42:13.433Z,289541,0.028625488,1.0083008,-0.033325195
1725817333450,2024-09-08T17:42:13.450Z,289558,0.032592773,1.0015259,-0.019592285
1725817333474,2024-09-08T17:42:13.474Z,289582,0.024230957,1.0119019,-0.023864746
1725817333520,2024-09-08T17:42:13.520Z,289628,0.027832031,1.0157471,-0.022399902
1725817333566,2024-09-08T17:42:13.566Z,289674,0.02758789,1.001648,0.0030517578
1725817333612,2024-09-08T17:42:13.612Z,289720,0.010559082,1.0043945,-0.055541992
1725817333658,2024-09-08T17:42:13.658Z,289766,0.026000977,0.9887085,6.713867E-4
1725817333747,2024-09-08T17:42:13.747Z,289855,0.020996094,0.9921875,0.0064086914
1725817333767,2024-09-08T17:42:13.767Z,289875,0.00970459,0.986084,-0.0357666
1725817333793,2024-09-08T17:42:13.793Z,289901,0.018920898,0.9776001,-0.027893066
1725817333837,2024-09-08T17:42:13.837Z,289945,0.01739502,0.979126,-0.016601562
1725817333853,2024-09-08T17:42:13.853Z,289961,0.010437012,0.98327637,-0.028259277
1725817333878,2024-09-08T17:42:13.878Z,289986,0.017089844,0.9869385,-0.046325684
1725817333924,2024-09-08T17:42:13.924Z,290032,0.015625,0.9918823,-0.041809082
1725817333971,2024-09-08T17:42:13.971Z,290079,0.013793945,0.9857178,-0.049743652
1725817334016,2024-09-08T17:42:14.016Z,290124,0.01776123,0.9854126,-0.05328369
1725817334060,2024-09-08T17:42:14.060Z,290168,0.014465332,0.9812622,-0.055541992
1725817334108,2024-09-08T17:42:14.108Z,290216,0.024414062,0.9807129,-0.063964844
1725817334152,2024-09-08T17:42:14.152Z,290260,0.027282715,0.99554443,-0.066223145
1725817334199,2024-09-08T17:42:14.199Z,290307,0.010498047,1.001709,-0.07513428
1725817334241,2024-09-08T17:42:14.241Z,290349,0.018737793,1.0036011,-0.07006836
1725817334286,2024-09-08T17:42:14.286Z,290394,0.028198242,1.012207,-0.0791626
1725817334304,2024-09-08T17:42:14.304Z,290412,0.016845703,1.0028076,-0.06225586
1725817334330,2024-09-08T17:42:14.330Z,290438,0.020202637,0.98864746,-0.08581543
1725817334384,2024-09-08T17:42:14.384Z,290492,0.020324707,0.9768677,-0.0657959
1725817334422,2024-09-08T17:42:14.422Z,290530,0.020507812,0.9786377,-0.069885254
1725817334466,2024-09-08T17:42:14.466Z,290574,0.021240234,0.9750366,-0.0871582
1725817334512,2024-09-08T17:42:14.512Z,290620,0.01977539,0.99487305,-0.09954834
1725817334603,2024-09-08T17:42:14.603Z,290711,0.051513672,0.9827881,-0.058898926
1725817334622,2024-09-08T17:42:14.622Z,290730,-0.002319336,0.98376465,-0.123168945
1725817334645,2024-09-08T17:42:14.645Z,290753,0.041503906,0.9771118,-0.07513428
1725817334701,2024-09-08T17:42:14.701Z,290809,0.04473877,0.98883057,-0.088134766
1725817334720,2024-09-08T17:42:14.720Z,290828,0.018432617,0.9765625,-0.101745605
1725817334738,2024-09-08T17:42:14.738Z,290846,0.022766113,0.973938,-0.08428955
1725817334780,2024-09-08T17:42:14.780Z,290888,0.03100586,0.9830322,-0.09387207
1725817334825,2024-09-08T17:42:14.825Z,290933,0.023864746,0.982605,-0.0848999
1725817334870,2024-09-08T17:42:14.870Z,290978,0.02960205,0.99609375,-0.09442139
1725817334915,2024-09-08T17:42:14.915Z,291023,0.036315918,1.0090942,-0.09692383
1725817334961,2024-09-08T17:42:14.961Z,291069,0.029296875,1.0299072,-0.10028076
1725817335006,2024-09-08T17:42:15.006Z,291114,0.029968262,1.0220947,-0.0904541
1725817335053,2024-09-08T17:42:15.053Z,291161,0.03479004,1.0322876,-0.11071777
1725817335096,2024-09-08T17:42:15.096Z,291204,0.04949951,1.0285645,-0.09661865
1725817335115,2024-09-08T17:42:15.115Z,291223,0.023376465,1.0133057,-0.09515381
1725817335139,2024-09-08T17:42:15.139Z,291247,0.03265381,0.9953003,-0.10534668
1725817335186,2024-09-08T17:42:15.186Z,291294,0.032165527,0.99108887,-0.09613037
1725817335230,2024-09-08T17:42:15.230Z,291338,0.032165527,0.9951782,-0.09564209
1725817335276,2024-09-08T17:42:15.276Z,291384,0.034057617,0.9953613,-0.10510254
1725817335323,2024-09-08T17:42:15.323Z,291431,0.042419434,0.99798584,-0.11517334
1725817335365,2024-09-08T17:42:15.365Z,291473,0.022399902,1.0029907,-0.10675049
1725817335410,2024-09-08T17:42:15.410Z,291518,0.039245605,1.0149536,-0.1182251
1725817335457,2024-09-08T17:42:15.457Z,291565,0.043151855,1.0144653,-0.11230469
1725817335501,2024-09-08T17:42:15.501Z,291609,0.040527344,1.0383911,-0.10992432
1725817335547,2024-09-08T17:42:15.547Z,291655,0.03894043,1.0177612,-0.09613037
1725817335565,2024-09-08T17:42:15.565Z,291673,0.03717041,1.0122681,-0.111328125
1725817335602,2024-09-08T17:42:15.602Z,291710,0.04071045,0.99749756,-0.103393555
1725817335635,2024-09-08T17:42:15.635Z,291743,0.03845215,1.0070801,-0.11090088
1725817335680,2024-09-08T17:42:15.680Z,291788,0.038513184,1.0321655,-0.11206055
1725817335734,2024-09-08T17:42:15.734Z,291842,0.042663574,1.0344238,-0.107177734
1725817335769,2024-09-08T17:42:15.769Z,291877,0.034118652,1.0385132,-0.12414551
1725817335814,2024-09-08T17:42:15.814Z,291922,0.028686523,1.041565,-0.12261963
1725817335861,2024-09-08T17:42:15.861Z,291969,0.039489746,1.0348511,-0.11798096
1725817335905,2024-09-08T17:42:15.905Z,292013,0.0345459,1.0281372,-0.12097168
1725817335950,2024-09-08T17:42:15.950Z,292058,0.034729004,1.0159912,-0.10437012
1725817335968,2024-09-08T17:42:15.968Z,292076,0.037719727,1.0261841,-0.11004639
1725817336000,2024-09-08T17:42:16Z,292108,0.038024902,1.0292969,-0.115478516
1725817336040,2024-09-08T17:42:16.040Z,292148,0.04156494,1.0228271,-0.103027344
1725817336086,2024-09-08T17:42:16.086Z,292194,0.033935547,1.0195923,-0.108947754
1725817336130,2024-09-08T17:42:16.130Z,292238,0.044311523,1.0324097,-0.11004639
1725817336176,2024-09-08T17:42:16.176Z,292284,0.032104492,1.0440063,-0.11029053
1725817336222,2024-09-08T17:42:16.222Z,292330,0.02923584,1.045166,-0.10736084
1725817336265,2024-09-08T17:42:16.265Z,292373,0.038757324,1.0462036,-0.11663818
1725817336316,2024-09-08T17:42:16.316Z,292424,0.033691406,1.03125,-0.10595703
1725817336356,2024-09-08T17:42:16.356Z,292464,0.031677246,1.0161743,-0.11376953
1725817336375,2024-09-08T17:42:16.375Z,292483,0.027648926,1.0020752,-0.10064697
1725817336413,2024-09-08T17:42:16.413Z,292521,0.039855957,1.0006714,-0.107177734
1725817336445,2024-09-08T17:42:16.445Z,292553,0.036865234,0.9974365,-0.098083496
1725817336490,2024-09-08T17:42:16.490Z,292598,0.031433105,1.0007324,-0.12841797
1725817336535,2024-09-08T17:42:16.535Z,292643,0.029724121,0.9949341,-0.115722656
1725817336582,2024-09-08T17:42:16.582Z,292690,0.040100098,1.00531,-0.11407471
1725817336626,2024-09-08T17:42:16.626Z,292734,0.040283203,0.9904175,-0.10888672
1725817336672,2024-09-08T17:42:16.672Z,292780,0.032958984,1.0095215,-0.11853027
1725817336720,2024-09-08T17:42:16.720Z,292828,0.030822754,0.9985962,-0.13189697
1725817336761,2024-09-08T17:42:16.761Z,292869,0.029785156,1.0003052,-0.118896484
1725817336807,2024-09-08T17:42:16.807Z,292915,0.035583496,1.0039673,-0.112976074
1725817336822,2024-09-08T17:42:16.822Z,292930,0.040100098,1.003418,-0.12438965
1725817336849,2024-09-08T17:42:16.849Z,292957,0.017211914,0.9951782,-0.13787842
1725817336894,2024-09-08T17:42:16.894Z,293002,0.033813477,1.0083008,-0.11071777
1725817336949,2024-09-08T17:42:16.949Z,293057,0.028381348,0.99786377,-0.111206055
1725817336985,2024-09-08T17:42:16.985Z,293093,0.037902832,0.994812,-0.14556885
1725817337030,2024-09-08T17:42:17.030Z,293138,0.029174805,0.9841919,-0.09051514
1725817337077,2024-09-08T17:42:17.077Z,293185,0.030212402,0.9885864,-0.12121582
1725817337120,2024-09-08T17:42:17.120Z,293228,0.04473877,0.9852295,-0.12225342
1725817337167,2024-09-08T17:42:17.167Z,293275,0.03186035,0.9951782,-0.113098145
1725817337214,2024-09-08T17:42:17.214Z,293322,0.039794922,1.0188599,-0.12994385
1725817337235,2024-09-08T17:42:17.235Z,293343,0.043395996,1.039978,-0.128479
1725817337258,2024-09-08T17:42:17.258Z,293366,0.028930664,1.0366211,-0.121398926
1725817337301,2024-09-08T17:42:17.301Z,293409,0.032958984,1.0325317,-0.13061523
1725817337346,2024-09-08T17:42:17.346Z,293454,0.034118652,1.0393066,-0.12915039
1725817337392,2024-09-08T17:42:17.392Z,293500,0.021362305,1.0309448,-0.13433838
1725817337435,2024-09-08T17:42:17.435Z,293543,0.022827148,1.027832,-0.13696289
1725817337480,2024-09-08T17:42:17.480Z,293588,0.039978027,1.0115356,-0.118774414
1725817337532,2024-09-08T17:42:17.532Z,293640,0.02947998,0.9977417,-0.13879395
1725817337572,2024-09-08T17:42:17.572Z,293680,0.030456543,0.9899292,-0.11828613
1725817337616,2024-09-08T17:42:17.616Z,293724,0.029418945,1.0022583,-0.123413086
1725817337636,2024-09-08T17:42:17.636Z,293744,0.050354004,0.99432373,-0.117248535
1725817337660,2024-09-08T17:42:17.660Z,293768,0.024536133,0.99035645,-0.11401367
1725817337704,2024-09-08T17:42:17.704Z,293812,0.0289917,1.0061646,-0.11376953
1725817337751,2024-09-08T17:42:17.751Z,293859,0.026916504,0.99383545,-0.11517334
1725817337797,2024-09-08T17:42:17.797Z,293905,0.024169922,0.9998169,-0.11456299
1725817337843,2024-09-08T17:42:17.843Z,293951,0.02166748,1.0009155,-0.12335205
1725817337888,2024-09-08T17:42:17.888Z,293996,0.027282715,0.9974365,-0.10595703
1725817337931,2024-09-08T17:42:17.931Z,294039,0.035827637,1.0131226,-0.11853027
1725817337976,2024-09-08T17:42:17.976Z,294084,0.035949707,1.0206909,-0.118652344
1725817338023,2024-09-08T17:42:18.023Z,294131,0.030334473,1.0404053,-0.12347412
1725817338068,2024-09-08T17:42:18.068Z,294176,0.038085938,1.0461426,-0.12573242
1725817338088,2024-09-08T17:42:18.088Z,294196,0.048461914,1.0439453,-0.13244629
1725817338110,2024-09-08T17:42:18.110Z,294218,0.03668213,1.0600586,-0.11846924
1725817338156,2024-09-08T17:42:18.156Z,294264,0.025756836,1.0721436,-0.15411377
1725817338201,2024-09-08T17:42:18.201Z,294309,0.03857422,1.0587769,-0.1204834
1725817338245,2024-09-08T17:42:18.245Z,294353,0.037902832,1.0588989,-0.13098145
1725817338292,2024-09-08T17:42:18.292Z,294400,0.040161133,1.0400391,-0.12542725
1725817338336,2024-09-08T17:42:18.336Z,294444,0.03338623,1.0445557,-0.11779785
1725817338381,2024-09-08T17:42:18.381Z,294489,0.038879395,1.0238647,-0.1260376
1725817338427,2024-09-08T17:42:18.427Z,294535,0.03253174,1.0302124,-0.12365723
1725817338471,2024-09-08T17:42:18.471Z,294579,0.03942871,1.0247192,-0.115722656
1725817338489,2024-09-08T17:42:18.489Z,294597,0.033081055,1.0140381,-0.115722656
1725817338514,2024-09-08T17:42:18.514Z,294622,0.040649414,1.0181274,-0.11621094
1725817338560,2024-09-08T17:42:18.560Z,294668,0.03918457,1.0304565,-0.111328125
1725817338607,2024-09-08T17:42:18.607Z,294715,0.032348633,1.0159302,-0.12261963
1725817338652,2024-09-08T17:42:18.652Z,294760,0.0335083,1.0215454,-0.12176514
1725817338706,2024-09-08T17:42:18.706Z,294814,0.035705566,1.010376,-0.103515625
1725817338740,2024-09-08T17:42:18.740Z,294848,0.028015137,1.0222168,-0.14099121
1725817338785,2024-09-08T17:42:18.785Z,294893,0.034423828,1.0354004,-0.11602783
1725817338831,2024-09-08T17:42:18.831Z,294939,0.03363037,1.0583496,-0.10760498
1725817338875,2024-09-08T17:42:18.875Z,294983,0.023620605,1.0571289,-0.14154053
1725817338892,2024-09-08T17:42:18.892Z,295000,0.0491333,1.0496216,-0.10229492
1725817338920,2024-09-08T17:42:18.920Z,295028,0.03314209,1.0289917,-0.10296631
1725817338966,2024-09-08T17:42:18.966Z,295074,0.031799316,1.0092163,-0.10961914
1725817339010,2024-09-08T17:42:19.010Z,295118,0.030517578,0.97735596,-0.105285645
1725817339101,2024-09-08T17:42:19.101Z,295209,0.032470703,0.98309326,-0.109313965
1725817339120,2024-09-08T17:42:19.120Z,295228,0.036376953,0.9921875,-0.11505127
1725817339146,2024-09-08T17:42:19.146Z,295254,0.037231445,1.0087891,-0.10308838
1725817339191,2024-09-08T17:42:19.191Z,295299,0.015014648,1.031311,-0.11193848
1725817339236,2024-09-08T17:42:19.236Z,295344,0.025939941,1.0167847,-0.1027832
1725817339283,2024-09-08T17:42:19.283Z,295391,0.019592285,1.0029297,-0.10345459
1725817339326,2024-09-08T17:42:19.326Z,295434,0.03112793,0.993042,-0.09210205
1725817339344,2024-09-08T17:42:19.344Z,295452,0.018920898,0.9842529,-0.07287598
1725817339369,2024-09-08T17:42:19.369Z,295477,0.0030517578,0.9595947,-0.085876465
1725817339417,2024-09-08T17:42:19.417Z,295525,0.032287598,0.92871094,-0.059143066
1725817339462,2024-09-08T17:42:19.462Z,295570,0.037841797,0.94506836,-0.057678223
1725817339506,2024-09-08T17:42:19.506Z,295614,0.03253174,0.9313965,-0.02368164
1725817339597,2024-09-08T17:42:19.597Z,295705,0.011230469,0.916687,-0.049743652
1725817339615,2024-09-08T17:42:19.615Z,295723,0.0119018555,0.9421997,-0.07531738
1725817339645,2024-09-08T17:42:19.645Z,295753,0.043762207,0.9741211,-0.047424316
1725817339684,2024-09-08T17:42:19.684Z,295792,0.0068969727,0.9873047,-0.05706787
1725817339730,2024-09-08T17:42:19.730Z,295838,-0.014343262,0.97961426,-0.051452637
1725817339747,2024-09-08T17:42:19.747Z,295855,0.020935059,0.9859619,-0.06329346
1725817339774,2024-09-08T17:42:19.774Z,295882,0.0068969727,0.9522095,-0.064575195
1725817339827,2024-09-08T17:42:19.827Z,295935,0.008300781,0.9338379,-0.029785156
1725817339868,2024-09-08T17:42:19.868Z,295976,0.010070801,0.9223633,0.018615723
1725817339921,2024-09-08T17:42:19.921Z,296029,-0.014099121,0.9454956,-0.04046631
1725817339959,2024-09-08T17:42:19.959Z,296067,0.024169922,0.99664307,-0.0134887695
1725817340000,2024-09-08T17:42:20Z,296108,-0.009033203,1.034668,-0.008850098
1725817340045,2024-09-08T17:42:20.045Z,296153,0.0087890625,1.0309448,-0.0256958
1725817340091,2024-09-08T17:42:20.091Z,296199,0.029663086,1.0039062,-0.011291504
1725817340137,2024-09-08T17:42:20.137Z,296245,0.023864746,1.0082397,-0.057128906
1725817340155,2024-09-08T17:42:20.155Z,296263,0.035949707,0.98480225,0.0064697266
1725817340181,2024-09-08T17:42:20.181Z,296289,0.022827148,0.94714355,-0.0099487305
1725817340226,2024-09-08T17:42:20.226Z,296334,0.029418945,0.9528198,-0.012512207
1725817340271,2024-09-08T17:42:20.271Z,296379,0.029418945,0.9797363,-0.006713867
1725817340318,2024-09-08T17:42:20.318Z,296426,0.027709961,1.015564,-0.0048217773
1725817340363,2024-09-08T17:42:20.363Z,296471,0.016784668,1.0378418,0.0031738281
1725817340408,2024-09-08T17:42:20.408Z,296516,0.01550293,1.0283813,-0.02142334
1725817340453,2024-09-08T17:42:20.453Z,296561,0.027648926,1.0214233,-0.022644043
1725817340498,2024-09-08T17:42:20.498Z,296606,0.02319336,1.0062256,-0.022399902
1725817340541,2024-09-08T17:42:20.541Z,296649,0.0256958,0.99420166,-0.046875
1725817340590,2024-09-08T17:42:20.590Z,296698,0.037109375,1.0066528,-0.04168701
1725817340608,2024-09-08T17:42:20.608Z,296716,0.030456543,1.0101929,-0.024780273
1725817340631,2024-09-08T17:42:20.631Z,296739,0.038269043,0.99902344,-0.039794922
1725817340676,2024-09-08T17:42:20.676Z,296784,0.028137207,0.99798584,-0.022766113
1725817340722,2024-09-08T17:42:20.722Z,296830,0.028869629,0.994751,-0.0076293945
1725817340769,2024-09-08T17:42:20.769Z,296877,0.032592773,0.9812012,-0.038146973
1725817340813,2024-09-08T17:42:20.813Z,296921,0.0289917,0.97143555,-0.033081055
1725817340858,2024-09-08T17:42:20.858Z,296966,0.0134887695,0.97106934,-0.03656006
1725817340903,2024-09-08T17:42:20.903Z,297011,0.04046631,0.9783325,-0.052246094
1725817340948,2024-09-08T17:42:20.948Z,297056,0.032836914,0.96533203,-9.1552734E-4
1725817340992,2024-09-08T17:42:20.992Z,297100,0.02520752,0.97766113,-0.044799805
1725817341014,2024-09-08T17:42:21.014Z,297122,0.02368164,0.9998779,-0.052734375
1725817341035,2024-09-08T17:42:21.035Z,297143,0.029846191,1.0165405,-0.025268555
1725817341081,2024-09-08T17:42:21.081Z,297189,0.015991211,1.0002441,-0.051757812
1725817341127,2024-09-08T17:42:21.127Z,297235,0.024719238,0.9780884,-0.055419922
1725817341172,2024-09-08T17:42:21.172Z,297280,0.033569336,0.9732666,-0.044555664
1725817341217,2024-09-08T17:42:21.217Z,297325,0.017150879,0.9807739,-0.0657959
1725817341260,2024-09-08T17:42:21.260Z,297368,0.023986816,0.9888916,-0.068847656
1725817341304,2024-09-08T17:42:21.304Z,297412,0.021972656,0.99298096,-0.07519531
1725817341351,2024-09-08T17:42:21.351Z,297459,0.020874023,0.98254395,-0.079956055
1725817341395,2024-09-08T17:42:21.395Z,297503,0.024597168,0.96759033,-0.06604004
1725817341412,2024-09-08T17:42:21.412Z,297520,0.029968262,0.9720459,-0.088378906
1725817341450,2024-09-08T17:42:21.450Z,297558,0.027526855,0.9737549,-0.077697754
1725817341485,2024-09-08T17:42:21.485Z,297593,0.01763916,0.98358154,-0.083740234
1725817341530,2024-09-08T17:42:21.530Z,297638,0.010986328,0.98950195,-0.091674805
1725817341576,2024-09-08T17:42:21.576Z,297684,0.021972656,1.0073853,-0.08911133
1725817341621,2024-09-08T17:42:21.621Z,297729,0.023132324,0.9993286,-0.10266113
1725817341666,2024-09-08T17:42:21.666Z,297774,0.021728516,0.99823,-0.09326172
1725817341712,2024-09-08T17:42:21.712Z,297820,0.020446777,0.98376465,-0.09631348
1725817341754,2024-09-08T17:42:21.754Z,297862,0.024658203,0.98553467,-0.10522461
1725817341799,2024-09-08T17:42:21.799Z,297907,0.030395508,0.99823,-0.099487305
1725817341845,2024-09-08T17:42:21.845Z,297953,0.028503418,0.9840088,-0.08886719
1725817341863,2024-09-08T17:42:21.863Z,297971,0.0357666,0.99072266,-0.09637451
1725817341886,2024-09-08T17:42:21.886Z,297994,0.027526855,1.0023804,-0.09564209
1725817341936,2024-09-08T17:42:21.936Z,298044,0.033203125,1.0136108,-0.11230469
1725817341982,2024-09-08T17:42:21.982Z,298090,0.022460938,1.0222778,-0.12756348
1725817342025,2024-09-08T17:42:22.025Z,298133,0.028320312,1.0199585,-0.107666016
1725817342069,2024-09-08T17:42:22.069Z,298177,0.039855957,0.9953003,-0.09881592
1725817342115,2024-09-08T17:42:22.115Z,298223,0.041015625,1.0014648,-0.14508057
1725817342160,2024-09-08T17:42:22.160Z,298268,0.028869629,1.0074463,-0.11206055
1725817342208,2024-09-08T17:42:22.208Z,298316,0.037353516,1.0248413,-0.10406494
1725817342250,2024-09-08T17:42:22.250Z,298358,0.027038574,1.0163574,-0.13641357
1725817342269,2024-09-08T17:42:22.269Z,298377,0.038635254,1.0081177,-0.10852051
1725817342294,2024-09-08T17:42:22.294Z,298402,0.030456543,1.00531,-0.10888672
1725817342340,2024-09-08T17:42:22.340Z,298448,0.030761719,0.9901123,-0.12176514
1725817342387,2024-09-08T17:42:22.387Z,298495,0.039489746,1.0009155,-0.117126465
1725817342432,2024-09-08T17:42:22.432Z,298540,0.024414062,0.9916382,-0.116760254
1725817342475,2024-09-08T17:42:22.475Z,298583,0.016967773,0.98413086,-0.12591553
1725817342520,2024-09-08T17:42:22.520Z,298628,0.03942871,0.9694824,-0.09075928
1725817342564,2024-09-08T17:42:22.564Z,298672,0.026794434,1.0196533,-0.117614746
1725817342611,2024-09-08T17:42:22.611Z,298719,0.04663086,1.0457764,-0.1852417
1725817342655,2024-09-08T17:42:22.655Z,298763,0.034179688,1.0166016,-0.118896484
1725817342674,2024-09-08T17:42:22.674Z,298782,0.034118652,1.0357056,-0.12054443
1725817342699,2024-09-08T17:42:22.699Z,298807,0.051879883,1.0224609,-0.11590576
1725817342745,2024-09-08T17:42:22.745Z,298853,0.05456543,1.0164185,-0.13409424
1725817342791,2024-09-08T17:42:22.791Z,298899,0.036376953,1.0084229,-0.12634277
1725817342836,2024-09-08T17:42:22.836Z,298944,0.045715332,1.0223999,-0.12738037
1725817342880,2024-09-08T17:42:22.880Z,298988,0.031555176,1.024292,-0.11578369
1725817342927,2024-09-08T17:42:22.927Z,299035,0.033691406,1.0291138,-0.12664795
1725817342970,2024-09-08T17:42:22.970Z,299078,0.026489258,1.0345459,-0.13549805
1725817343016,2024-09-08T17:42:23.016Z,299124,0.038513184,1.0343018,-0.12530518
1725817343061,2024-09-08T17:42:23.061Z,299169,0.03161621,1.02594,-0.13824463
1725817343106,2024-09-08T17:42:23.106Z,299214,0.040771484,1.0180664,-0.13116455
1725817343125,2024-09-08T17:42:23.125Z,299233,0.05609131,1.031189,-0.12896729
1725817343150,2024-09-08T17:42:23.150Z,299258,0.047912598,1.0402222,-0.14105225
1725817343195,2024-09-08T17:42:23.195Z,299303,0.03149414,1.0757446,-0.16864014
1725817343240,2024-09-08T17:42:23.240Z,299348,0.037902832,1.0413818,-0.12347412
1725817343286,2024-09-08T17:42:23.286Z,299394,0.029052734,1.0335693,-0.14031982
1725817343331,2024-09-08T17:42:23.331Z,299439,0.03253174,1.0231934,-0.12786865
1725817343374,2024-09-08T17:42:23.374Z,299482,0.024230957,1.0238037,-0.14312744
1725817343422,2024-09-08T17:42:23.422Z,299530,0.02935791,1.0012817,-0.11340332
1725817343466,2024-09-08T17:42:23.466Z,299574,0.026855469,0.9898071,-0.119384766
1725817343511,2024-09-08T17:42:23.511Z,299619,0.03857422,1.0028687,-0.119384766
1725817343528,2024-09-08T17:42:23.528Z,299636,0.049438477,0.9918213,-0.12689209
1725817343555,2024-09-08T17:42:23.555Z,299663,0.019165039,0.9874878,-0.17010498
1725817343599,2024-09-08T17:42:23.599Z,299707,0.03112793,1.0130615,-0.10900879
1725817343647,2024-09-08T17:42:23.647Z,299755,0.04309082,1.0064087,-0.10015869
1725817343690,2024-09-08T17:42:23.690Z,299798,0.041503906,0.9990845,-0.14929199
1725817343737,2024-09-08T17:42:23.737Z,299845,0.032470703,0.99432373,-0.09460449
1725817343783,2024-09-08T17:42:23.783Z,299891,0.024291992,1.0040283,-0.109069824
1725817343826,2024-09-08T17:42:23.826Z,299934,0.03540039,1.0073853,-0.12817383
1725817343871,2024-09-08T17:42:23.871Z,299979,0.04425049,1.0116577,-0.10882568
1725817343916,2024-09-08T17:42:23.916Z,300024,0.019165039,1.0201416,-0.1204834
1725817343938,2024-09-08T17:42:23.938Z,300046,0.048217773,1.0213013,-0.123168945
1725817343963,2024-09-08T17:42:23.963Z,300071,0.032226562,1.0326538,-0.12768555
1725817344007,2024-09-08T17:42:24.007Z,300115,0.034179688,1.0358276,-0.10809326
1725817344051,2024-09-08T17:42:24.051Z,300159,0.03668213,1.0080566,-0.121520996
1725817344097,2024-09-08T17:42:24.097Z,300205,0.030883789,0.9883423,-0.11981201
1725817344142,2024-09-08T17:42:24.142Z,300250,0.030151367,0.9713135,-0.097839355
1725817344187,2024-09-08T17:42:24.187Z,300295,0.03967285,0.9831543,-0.11810303
1725817344233,2024-09-08T17:42:24.233Z,300341,0.04284668,0.9973755,-0.109436035
1725817344275,2024-09-08T17:42:24.275Z,300383,0.03173828,1.0254517,-0.13293457
1725817344322,2024-09-08T17:42:24.322Z,300430,0.04284668,1.0498657,-0.11779785
1725817344365,2024-09-08T17:42:24.365Z,300473,0.04559326,1.0817261,-0.13458252
1725817344383,2024-09-08T17:42:24.383Z,300491,0.048339844,1.0900269,-0.1303711
1725817344410,2024-09-08T17:42:24.410Z,300518,0.042053223,1.1090698,-0.14550781
1725817344454,2024-09-08T17:42:24.454Z,300562,0.039978027,1.0806885,-0.12762451
1725817344501,2024-09-08T17:42:24.501Z,300609,0.038085938,1.0691528,-0.122680664
1725817344545,2024-09-08T17:42:24.545Z,300653,0.047973633,1.0412598,-0.13726807
1725817344591,2024-09-08T17:42:24.591Z,300699,0.058776855,1.0092773,-0.11810303
1725817344637,2024-09-08T17:42:24.637Z,300745,0.05126953,1.0140991,-0.12036133
1725817344728,2024-09-08T17:42:24.728Z,300836,0.055358887,1.0477295,-0.14624023
1725817344746,2024-09-08T17:42:24.746Z,300854,0.06365967,1.0514526,-0.13122559
1725817344770,2024-09-08T17:42:24.770Z,300878,0.062072754,1.0690918,-0.14245605
1725817344807,2024-09-08T17:42:24.807Z,300915,0.0524292,1.046936,-0.11437988
1725817344825,2024-09-08T17:42:24.825Z,300933,0.04876709,1.0267334,-0.1362915
1725817344860,2024-09-08T17:42:24.860Z,300968,0.0513916,0.9888916,-0.11706543
1725817344904,2024-09-08T17:42:24.904Z,301012,0.049926758,0.9796753,-0.10699463
1725817344951,2024-09-08T17:42:24.951Z,301059,0.044067383,0.99346924,-0.128479
1725817344998,2024-09-08T17:42:24.998Z,301106,0.0335083,1.0053711,-0.12200928
1725817345040,2024-09-08T17:42:25.040Z,301148,0.042236328,1.0206299,-0.097839355
1725817345084,2024-09-08T17:42:25.084Z,301192,0.041625977,1.0217285,-0.12878418
1725817345132,2024-09-08T17:42:25.132Z,301240,0.041381836,0.9940796,-0.10681152
1725817345176,2024-09-08T17:42:25.176Z,301284,0.047607422,0.99346924,-0.10961914
1725817345193,2024-09-08T17:42:25.193Z,301301,0.038635254,1.010315,-0.10992432
1725817345224,2024-09-08T17:42:25.224Z,301332,0.045166016,1.0074463,-0.097473145
1725817345264,2024-09-08T17:42:25.264Z,301372,0.043945312,0.9874878,-0.08538818
1725817345311,2024-09-08T17:42:25.311Z,301419,0.044555664,0.97821045,-0.095825195
1725817345353,2024-09-08T17:42:25.353Z,301461,0.050964355,0.97302246,-0.071777344
1725817345401,2024-09-08T17:42:25.401Z,301509,0.051452637,0.9800415,-0.09075928
1725817345447,2024-09-08T17:42:25.447Z,301555,0.044677734,1.0009155,-0.07348633
1725817345493,2024-09-08T17:42:25.493Z,301601,0.038330078,0.9935913,-0.0814209
1725817345536,2024-09-08T17:42:25.536Z,301644,0.02520752,0.98254395,-0.07885742
1725817345582,2024-09-08T17:42:25.582Z,301690,0.042297363,0.9841919,-0.070617676
1725817345627,2024-09-08T17:42:25.627Z,301735,0.03717041,0.98931885,-0.06817627
1725817345647,2024-09-08T17:42:25.647Z,301755,0.035827637,0.9871826,-0.085754395
1725817345669,2024-09-08T17:42:25.669Z,301777,0.027832031,0.9835205,-0.071777344
1725817345715,2024-09-08T17:42:25.715Z,301823,0.04449463,0.9915161,-0.060791016
1725817345760,2024-09-08T17:42:25.760Z,301868,0.03894043,0.9746094,-0.06427002
1725817345805,2024-09-08T17:42:25.805Z,301913,0.03466797,0.96154785,-0.05444336
1725817345852,2024-09-08T17:42:25.852Z,301960,0.0289917,0.9550171,-0.052856445
1725817345897,2024-09-08T17:42:25.897Z,302005,0.030212402,0.9638672,-0.047729492
1725817345943,2024-09-08T17:42:25.943Z,302051,0.028625488,0.9395752,-0.013427734
1725817345985,2024-09-08T17:42:25.985Z,302093,0.021728516,0.9423218,-0.05065918
1725817346032,2024-09-08T17:42:26.032Z,302140,0.048095703,0.94555664,-0.02923584
1725817346054,2024-09-08T17:42:26.054Z,302162,0.03643799,0.9203491,-0.017944336
1725817346073,2024-09-08T17:42:26.073Z,302181,0.023376465,0.9259033,-0.004699707
1725817346119,2024-09-08T17:42:26.119Z,302227,0.04711914,0.93115234,0.00579834
1725817346165,2024-09-08T17:42:26.165Z,302273,0.05633545,0.9963989,-0.010437012
1725817346211,2024-09-08T17:42:26.211Z,302319,0.0015258789,1.0393066,0.04650879
1725817346254,2024-09-08T17:42:26.254Z,302362,-0.01751709,1.0460205,0.05670166
1725817346300,2024-09-08T17:42:26.300Z,302408,0.005859375,1.0106201,0.047729492
1725817346346,2024-09-08T17:42:26.346Z,302454,0.019592285,0.9841919,0.029785156
1725817346389,2024-09-08T17:42:26.389Z,302497,0.03741455,1.0071411,0.009216309
1725817346436,2024-09-08T17:42:26.436Z,302544,0.034362793,0.99505615,-0.013244629
1725817346452,2024-09-08T17:42:26.452Z,302560,0.042785645,0.98620605,-0.033081055
1725817346481,2024-09-08T17:42:26.481Z,302589,0.050109863,0.9874878,-0.001953125
1725817346525,2024-09-08T17:42:26.525Z,302633,0.035339355,0.9942627,0.0119018555
1725817346572,2024-09-08T17:42:26.572Z,302680,0.041748047,1.0098267,-0.015136719
1725817346615,2024-09-08T17:42:26.615Z,302723,0.046569824,1.0085449,0.037109375
1725817346660,2024-09-08T17:42:26.660Z,302768,0.026123047,1.0072632,0.012512207
1725817346706,2024-09-08T17:42:26.706Z,302814,0.029418945,0.99957275,0.029541016
1725817346752,2024-09-08T17:42:26.752Z,302860,0.038330078,1.0158691,0.028320312
1725817346796,2024-09-08T17:42:26.796Z,302904,0.03338623,1.0269775,0.014221191
1725817346839,2024-09-08T17:42:26.839Z,302947,0.026367188,1.0198975,-0.0053100586
1725817346884,2024-09-08T17:42:26.884Z,302992,0.02557373,1.0109863,-0.03643799
1725817346902,2024-09-08T17:42:26.902Z,303010,0.028869629,0.99658203,-0.0048828125
1725817346930,2024-09-08T17:42:26.930Z,303038,0.02545166,0.998291,0.0010375977
1725817346975,2024-09-08T17:42:26.975Z,303083,0.032226562,0.9951172,0.012268066
1725817347019,2024-09-08T17:42:27.019Z,303127,0.03100586,0.9875488,0.043518066
1725817347064,2024-09-08T17:42:27.064Z,303172,0.03527832,0.9961548,0.0025634766
1725817347110,2024-09-08T17:42:27.110Z,303218,0.026916504,0.9972534,-0.006713867
1725817347154,2024-09-08T17:42:27.154Z,303262,0.034973145,0.9984741,0.020080566
1725817347202,2024-09-08T17:42:27.202Z,303310,0.026672363,0.9904785,-0.024658203
1725817347245,2024-09-08T17:42:27.245Z,303353,0.028381348,0.97351074,-0.018249512
1725817347290,2024-09-08T17:42:27.290Z,303398,0.018127441,0.9768677,-0.007873535
1725817347306,2024-09-08T17:42:27.306Z,303414,0.015808105,0.9951782,-0.050720215
1725817347335,2024-09-08T17:42:27.335Z,303443,0.024658203,0.994812,-0.014465332
1725817347381,2024-09-08T17:42:27.381Z,303489,0.017944336,1.0014648,-0.044677734
1725817347427,2024-09-08T17:42:27.427Z,303535,0.024597168,0.99487305,-0.028137207
1725817347473,2024-09-08T17:42:27.473Z,303581,0.020751953,1.0108032,-0.02960205
1725817347516,2024-09-08T17:42:27.516Z,303624,0.016479492,0.9928589,-0.042114258
1725817347561,2024-09-08T17:42:27.561Z,303669,0.019836426,0.9796753,-0.045776367
1725817347604,2024-09-08T17:42:27.604Z,303712,0.02130127,0.9663696,-0.022766113
1725817347651,2024-09-08T17:42:27.651Z,303759,0.017822266,0.9678345,-0.040649414
1725817347695,2024-09-08T17:42:27.695Z,303803,0.023803711,0.95581055,-0.040649414
1725817347712,2024-09-08T17:42:27.712Z,303820,0.021484375,0.97540283,-0.053222656
1725817347738,2024-09-08T17:42:27.738Z,303846,0.024475098,0.9779053,-0.04095459
1725817347785,2024-09-08T17:42:27.785Z,303893,0.016662598,0.9855957,-0.059265137
1725817347829,2024-09-08T17:42:27.829Z,303937,0.031921387,0.97662354,-0.05230713
1725817347876,2024-09-08T17:42:27.876Z,303984,0.028747559,0.9785156,-0.07342529
1725817347922,2024-09-08T17:42:27.922Z,304030,0.023803711,0.9876709,-0.06591797
1725817347966,2024-09-08T17:42:27.966Z,304074,0.026000977,1.005188,-0.101379395
1725817348010,2024-09-08T17:42:28.010Z,304118,0.02331543,1.0045166,-0.08319092
1725817348055,2024-09-08T17:42:28.055Z,304163,0.02368164,0.98999023,-0.06500244
1725817348101,2024-09-08T17:42:28.101Z,304209,0.04083252,0.99957275,-0.10449219
1725817348144,2024-09-08T17:42:28.144Z,304252,0.03137207,1.0128784,-0.07739258
1725817348160,2024-09-08T17:42:28.160Z,304268,0.018859863,1.0258179,-0.08282471
1725817348193,2024-09-08T17:42:28.193Z,304301,0.03491211,1.012085,-0.08441162
1725817348235,2024-09-08T17:42:28.235Z,304343,0.03375244,1.0123291,-0.095581055
1725817348280,2024-09-08T17:42:28.280Z,304388,0.034240723,1.015564,-0.07891846
1725817348326,2024-09-08T17:42:28.326Z,304434,0.036376953,1.0083618,-0.09802246
1725817348372,2024-09-08T17:42:28.372Z,304480,0.03704834,0.99420166,-0.09210205
1725817348416,2024-09-08T17:42:28.416Z,304524,0.0357666,0.99975586,-0.09277344
1725817348459,2024-09-08T17:42:28.459Z,304567,0.037353516,0.9743042,-0.08319092
1725817348506,2024-09-08T17:42:28.506Z,304614,0.028259277,0.97106934,-0.10345459
1725817348550,2024-09-08T17:42:28.550Z,304658,0.03363037,0.9768677,-0.10986328
1725817348565,2024-09-08T17:42:28.565Z,304673,0.04425049,1.008606,-0.12158203
1725817348594,2024-09-08T17:42:28.594Z,304702,0.041503906,0.9921875,-0.11053467
1725817348639,2024-09-08T17:42:28.639Z,304747,0.043518066,1.0054932,-0.1105957
1725817348687,2024-09-08T17:42:28.687Z,304795,0.04815674,1.0239868,-0.10583496
1725817348737,2024-09-08T17:42:28.737Z,304845,0.047912598,1.0073853,-0.09716797
1725817348775,2024-09-08T17:42:28.775Z,304883,0.040100098,1.0132446,-0.11590576
1725817348822,2024-09-08T17:42:28.822Z,304930,0.03503418,0.99694824,-0.11035156
1725817348865,2024-09-08T17:42:28.865Z,304973,0.023376465,1.0032959,-0.12994385
1725817348911,2024-09-08T17:42:28.911Z,305019,0.045288086,1.0124512,-0.12194824
1725817348955,2024-09-08T17:42:28.955Z,305063,0.04058838,0.9992676,-0.10632324
1725817348970,2024-09-08T17:42:28.970Z,305078,0.045654297,1.0109253,-0.11968994
1725817349000,2024-09-08T17:42:29Z,305108,0.063964844,0.99658203,-0.097351074
1725817349044,2024-09-08T17:42:29.044Z,305152,0.050598145,1.0039062,-0.080444336
1725817349092,2024-09-08T17:42:29.092Z,305200,0.06549072,1.0142212,-0.0925293
1725817349136,2024-09-08T17:42:29.136Z,305244,0.057861328,1.0005493,-0.084472656
1725817349181,2024-09-08T17:42:29.181Z,305289,0.045654297,1.0428467,-0.09509277
1725817349227,2024-09-08T17:42:29.227Z,305335,0.05859375,1.0588379,-0.085998535
1725817349270,2024-09-08T17:42:29.270Z,305378,0.053649902,1.069397,-0.08721924
1725817349317,2024-09-08T17:42:29.317Z,305425,0.027832031,1.0516968,-0.113586426
1725817349363,2024-09-08T17:42:29.363Z,305471,0.060913086,1.0306396,-0.10357666
1725817349454,2024-09-08T17:42:29.454Z,305562,0.043823242,1.0240479,-0.10223389
1725817349473,2024-09-08T17:42:29.473Z,305581,0.04345703,1.0203857,-0.10046387
1725817349491,2024-09-08T17:42:29.491Z,305599,0.05596924,1.0267944,-0.10192871
1725817349507,2024-09-08T17:42:29.507Z,305615,0.055603027,1.0008545,-0.059814453
1725817349541,2024-09-08T17:42:29.541Z,305649,0.04321289,1.007019,-0.10131836
1725817349585,2024-09-08T17:42:29.585Z,305693,0.0524292,1.0079956,-0.099975586
1725817349632,2024-09-08T17:42:29.632Z,305740,0.04168701,1.0053711,-0.093444824
1725817349676,2024-09-08T17:42:29.676Z,305784,0.030151367,1.0245361,-0.12506104
1725817349719,2024-09-08T17:42:29.719Z,305827,0.057678223,1.0109863,-0.09173584
1725817349764,2024-09-08T17:42:29.764Z,305872,0.039367676,1.0332031,-0.113342285
1725817349809,2024-09-08T17:42:29.809Z,305917,0.06347656,1.0353394,-0.0960083
1725817349826,2024-09-08T17:42:29.826Z,305934,0.053833008,1.0449829,-0.105285645
1725817349855,2024-09-08T17:42:29.855Z,305963,0.053833008,1.043335,-0.11328125
1725817349901,2024-09-08T17:42:29.901Z,306009,0.0602417,1.0393066,-0.103637695
1725817349944,2024-09-08T17:42:29.944Z,306052,0.044067383,1.0385132,-0.10571289
1725817349989,2024-09-08T17:42:29.989Z,306097,0.047729492,1.0195312,-0.10070801
1725817350035,2024-09-08T17:42:30.035Z,306143,0.036193848,1.0026855,-0.104003906
1725817350080,2024-09-08T17:42:30.080Z,306188,0.03942871,0.99560547,-0.11395264
1725817350125,2024-09-08T17:42:30.125Z,306233,0.023254395,0.98046875,-0.085876465
1725817350170,2024-09-08T17:42:30.170Z,306278,0.027893066,0.9875488,-0.10070801
1725817350214,2024-09-08T17:42:30.214Z,306322,0.053710938,0.9656372,-0.095581055
1725817350229,2024-09-08T17:42:30.229Z,306337,0.047851562,0.9577637,-0.09454346
1725817350259,2024-09-08T17:42:30.259Z,306367,0.054748535,0.9968262,-0.11407471
1725817350305,2024-09-08T17:42:30.305Z,306413,0.057006836,0.98883057,-0.06689453
1725817350351,2024-09-08T17:42:30.351Z,306459,0.05206299,1.0197754,-0.09246826
1725817350396,2024-09-08T17:42:30.396Z,306504,0.065979004,1.0302734,-0.08514404
1725817350442,2024-09-08T17:42:30.442Z,306550,0.036499023,1.0377808,-0.10644531
1725817350487,2024-09-08T17:42:30.487Z,306595,0.028686523,1.0300903,-0.11706543
1725817350532,2024-09-08T17:42:30.532Z,306640,0.045532227,1.0261841,-0.105163574
1725817350577,2024-09-08T17:42:30.577Z,306685,0.024047852,1.0303345,-0.12231445
1725817350620,2024-09-08T17:42:30.620Z,306728,0.053527832,1.0216675,-0.08886719
1725817350665,2024-09-08T17:42:30.665Z,306773,0.038635254,1.0314941,-0.13018799
1725817350681,2024-09-08T17:42:30.681Z,306789,0.05041504,1.0304565,-0.119018555
1725817350710,2024-09-08T17:42:30.710Z,306818,0.068359375,1.0372314,-0.10473633
1725817350756,2024-09-08T17:42:30.756Z,306864,0.04510498,1.0689697,-0.13574219
1725817350799,2024-09-08T17:42:30.799Z,306907,0.049926758,1.1069336,-0.10583496
1725817350846,2024-09-08T17:42:30.846Z,306954,0.05316162,1.0969238,-0.11340332
1725817350891,2024-09-08T17:42:30.891Z,306999,0.044311523,1.0752563,-0.12841797
1725817350935,2024-09-08T17:42:30.935Z,307043,0.04296875,1.0455933,-0.090026855
1725817350981,2024-09-08T17:42:30.981Z,307089,0.05340576,1.010315,-0.10229492
1725817351028,2024-09-08T17:42:31.028Z,307136,0.044921875,0.97650146,-0.092163086
1725817351073,2024-09-08T17:42:31.073Z,307181,0.05908203,0.9737549,-0.09350586
1725817351092,2024-09-08T17:42:31.092Z,307200,0.057250977,1.0010986,-0.09588623
1725817351115,2024-09-08T17:42:31.115Z,307223,0.044921875,1.0421143,-0.10235596
1725817351160,2024-09-08T17:42:31.160Z,307268,0.050354004,1.0775146,-0.10296631
1725817351207,2024-09-08T17:42:31.207Z,307315,0.03942871,1.0643921,-0.10266113
1725817351249,2024-09-08T17:42:31.249Z,307357,0.035461426,1.0291748,-0.105163574
1725817351296,2024-09-08T17:42:31.296Z,307404,0.05670166,0.99823,-0.0791626
1725817351344,2024-09-08T17:42:31.344Z,307452,0.038085938,0.99438477,-0.09667969
1725817351387,2024-09-08T17:42:31.387Z,307495,0.050964355,0.98431396,-0.089416504
1725817351431,2024-09-08T17:42:31.431Z,307539,0.046142578,0.9859009,-0.091674805
1725817351474,2024-09-08T17:42:31.474Z,307582,0.05480957,0.98565674,-0.08843994
1725817351491,2024-09-08T17:42:31.491Z,307599,0.043640137,1.0153809,-0.096069336
1725817351521,2024-09-08T17:42:31.521Z,307629,0.04864502,1.006958,-0.08648682
1725817351566,2024-09-08T17:42:31.566Z,307674,0.045654297,1.0114746,-0.11553955
1725817351611,2024-09-08T17:42:31.611Z,307719,0.046569824,1.0079346,-0.08190918
1725817351656,2024-09-08T17:42:31.656Z,307764,0.04864502,1.0236816,-0.09631348
1725817351698,2024-09-08T17:42:31.698Z,307806,0.047973633,1.0183105,-0.088134766
1725817351746,2024-09-08T17:42:31.746Z,307854,0.05419922,1.0094604,-0.08660889
1725817351791,2024-09-08T17:42:31.791Z,307899,0.06317139,1.0407715,-0.072631836
1725817351881,2024-09-08T17:42:31.881Z,307989,0.053466797,1.0447998,-0.08850098
1725817351900,2024-09-08T17:42:31.900Z,308008,0.042297363,1.0413208,-0.10192871
1725817351919,2024-09-08T17:42:31.919Z,308027,0.050109863,1.0276489,-0.07165527
1725817351936,2024-09-08T17:42:31.936Z,308044,0.05718994,1.0223389,-0.08477783
1725817351969,2024-09-08T17:42:31.969Z,308077,0.029907227,1.0067139,-0.08520508
1725817352015,2024-09-08T17:42:32.015Z,308123,0.037353516,1.0122681,-0.066223145
1725817352061,2024-09-08T17:42:32.061Z,308169,0.0524292,1.0270386,-0.070739746
1725817352106,2024-09-08T17:42:32.106Z,308214,0.031188965,0.9967041,-0.05670166
1725817352150,2024-09-08T17:42:32.150Z,308258,0.022888184,0.9986572,-0.06060791
1725817352197,2024-09-08T17:42:32.197Z,308305,0.044311523,0.98895264,-0.057128906
1725817352240,2024-09-08T17:42:32.240Z,308348,0.028930664,0.96343994,-0.04534912
1725817352284,2024-09-08T17:42:32.284Z,308392,0.011352539,0.9476929,-0.048461914
1725817352330,2024-09-08T17:42:32.330Z,308438,0.037963867,0.97229004,-0.05078125
1725817352346,2024-09-08T17:42:32.346Z,308454,0.021057129,0.9766846,-0.034057617
1725817352374,2024-09-08T17:42:32.374Z,308482,0.02319336,0.97387695,-0.054382324
1725817352418,2024-09-08T17:42:32.418Z,308526,0.02532959,0.97906494,-0.03112793
1725817352466,2024-09-08T17:42:32.466Z,308574,0.03265381,0.97302246,-0.024230957
1725817352510,2024-09-08T17:42:32.510Z,308618,0.02178955,0.947937,-0.06732178
1725817352555,2024-09-08T17:42:32.555Z,308663,0.014526367,0.9191284,-0.026367188
1725817352600,2024-09-08T17:42:32.600Z,308708,0.0107421875,0.91412354,-0.031982422
1725817352649,2024-09-08T17:42:32.649Z,308757,0.0072631836,0.9154663,-0.019104004
1725817352691,2024-09-08T17:42:32.691Z,308799,0.022399902,0.9123535,-0.020385742
1725817352737,2024-09-08T17:42:32.737Z,308845,0.016113281,0.9246216,-0.0073242188
1725817352755,2024-09-08T17:42:32.755Z,308863,0.0012817383,0.96295166,-0.0025024414
1725817352779,2024-09-08T17:42:32.779Z,308887,-0.010498047,1.0063477,0.024169922
1725817352824,2024-09-08T17:42:32.824Z,308932,-0.022460938,1.010437,0.04937744
1725817352872,2024-09-08T17:42:32.872Z,308980,-0.006591797,1.0241699,0.008422852
1725817352916,2024-09-08T17:42:32.916Z,309024,0.026794434,1.0129395,0.0138549805
1725817352961,2024-09-08T17:42:32.961Z,309069,0.024047852,1.0049438,-0.01763916
1725817353006,2024-09-08T17:42:33.006Z,309114,0.026916504,0.99627686,-0.024536133
1725817353052,2024-09-08T17:42:33.052Z,309160,0.059020996,0.994812,-0.008972168
1725817353098,2024-09-08T17:42:33.098Z,309206,0.051696777,1.017456,-0.011413574
1725817353142,2024-09-08T17:42:33.142Z,309250,0.019958496,1.0214233,-0.049316406
1725817353166,2024-09-08T17:42:33.166Z,309274,0.0107421875,1.0133667,-0.0063476562
1725817353184,2024-09-08T17:42:33.184Z,309292,0.028686523,1.0057983,-0.0051879883
1725817353229,2024-09-08T17:42:33.229Z,309337,0.01727295,0.98809814,-0.0053710938
1725817353271,2024-09-08T17:42:33.271Z,309379,0.016723633,0.99468994,0.009338379
1725817353315,2024-09-08T17:42:33.315Z,309423,0.018005371,1.0075684,-0.0068969727
1725817353361,2024-09-08T17:42:33.361Z,309469,0.043884277,1.0130005,-0.011962891
1725817353406,2024-09-08T17:42:33.406Z,309514,0.046142578,1.0280151,-0.018249512
