Timestamp (ms),ISO DateTime,Elapsed Time (ms),Acceleration X,Acceleration Y,Acceleration Z
1725721896455,2024-09-07T15:11:36.455Z,31935,0.12945557,0.90911865,0.21899414
1725721896498,2024-09-07T15:11:36.498Z,31978,0.110839844,0.9723511,0.21331787
1725721896543,2024-09-07T15:11:36.543Z,32023,0.09942627,1.0081177,0.20489502
1725721896587,2024-09-07T15:11:36.587Z,32067,0.13873291,1.0023804,0.24212646
1725721896633,2024-09-07T15:11:36.633Z,32113,0.16723633,0.98999023,0.22064209
1725721896679,2024-09-07T15:11:36.679Z,32159,0.120666504,0.95355225,0.19696045
1725721896724,2024-09-07T15:11:36.724Z,32204,0.09460449,0.9315796,0.20941162
1725721896773,2024-09-07T15:11:36.773Z,32253,0.07775879,0.9433594,0.1951294
1725721896819,2024-09-07T15:11:36.819Z,32299,0.091796875,0.9734497,0.21472168
1725721896841,2024-09-07T15:11:36.841Z,32321,0.10345459,0.9996948,0.18572998
1725721896859,2024-09-07T15:11:36.859Z,32339,0.092285156,1.0067139,0.16534424
1725721896907,2024-09-07T15:11:36.907Z,32387,0.09020996,0.97558594,0.17114258
1725721896954,2024-09-07T15:11:36.954Z,32434,0.10675049,0.9385376,0.16625977
1725721897000,2024-09-07T15:11:37Z,32480,0.09112549,0.9359741,0.17163086
1725721897046,2024-09-07T15:11:37.046Z,32526,0.13336182,0.96691895,0.15777588
1725721897090,2024-09-07T15:11:37.090Z,32570,0.09857178,0.98931885,0.17681885
1725721897137,2024-09-07T15:11:37.137Z,32617,0.107543945,1.0162354,0.12213135
1725721897182,2024-09-07T15:11:37.182Z,32662,0.105163574,0.9768677,0.13586426
1725721897227,2024-09-07T15:11:37.227Z,32707,0.12384033,0.9638672,0.14007568
1725721897254,2024-09-07T15:11:37.254Z,32734,0.11932373,0.979187,0.08856201
1725721897276,2024-09-07T15:11:37.276Z,32756,0.10736084,0.98565674,0.11755371
1725721897312,2024-09-07T15:11:37.312Z,32792,0.10345459,1.0074463,0.12414551
1725721897361,2024-09-07T15:11:37.361Z,32841,0.11090088,1.0206299,0.09161377
1725721897405,2024-09-07T15:11:37.405Z,32885,0.09375,1.0012207,0.118774414
1725721897452,2024-09-07T15:11:37.452Z,32932,0.088256836,0.9885254,0.09698486
1725721897495,2024-09-07T15:11:37.495Z,32975,0.08892822,0.9723511,0.10028076
1725721897542,2024-09-07T15:11:37.542Z,33022,0.061035156,0.9890747,0.09008789
1725721897586,2024-09-07T15:11:37.586Z,33066,0.054138184,1.0134277,0.08111572
1725721897630,2024-09-07T15:11:37.630Z,33110,0.06414795,1.0185547,0.08178711
1725721897679,2024-09-07T15:11:37.679Z,33159,0.07788086,1.0093994,0.07720947
1725721897703,2024-09-07T15:11:37.703Z,33183,0.0748291,0.986084,0.05999756
1725721897720,2024-09-07T15:11:37.720Z,33200,0.07098389,0.9656372,0.059631348
1725721897763,2024-09-07T15:11:37.763Z,33243,0.05480957,0.97698975,0.043701172
1725721897807,2024-09-07T15:11:37.807Z,33287,0.09686279,1.000061,0.05090332
1725721897854,2024-09-07T15:11:37.854Z,33334,0.050048828,0.9916992,0.029418945
1725721897899,2024-09-07T15:11:37.899Z,33379,0.070129395,0.9929199,0.009460449
1725721897948,2024-09-07T15:11:37.948Z,33428,0.088012695,0.9772949,0.0060424805
1725721897992,2024-09-07T15:11:37.992Z,33472,0.059020996,0.9819946,0.017211914
1725721898042,2024-09-07T15:11:38.042Z,33522,0.107177734,1.0004272,-0.0020751953
1725721898081,2024-09-07T15:11:38.081Z,33561,0.08831787,1.006958,-0.0073242188
1725721898104,2024-09-07T15:11:38.104Z,33584,0.093811035,1.0368652,0.023010254
1725721898122,2024-09-07T15:11:38.122Z,33602,0.11462402,1.0744629,-0.0034179688
1725721898174,2024-09-07T15:11:38.174Z,33654,0.1583252,1.0936279,0.028747559
1725721898217,2024-09-07T15:11:38.217Z,33697,0.105163574,1.0354004,-0.007873535
1725721898261,2024-09-07T15:11:38.261Z,33741,0.11975098,0.94976807,-0.028869629
1725721898307,2024-09-07T15:11:38.307Z,33787,0.09954834,0.9683838,-0.01550293
1725721898352,2024-09-07T15:11:38.352Z,33832,0.06555176,1.0446777,-0.0020141602
1725721898392,2024-09-07T15:11:38.392Z,33872,0.086242676,1.0898438,0.011108398
1725721898439,2024-09-07T15:11:38.439Z,33919,0.06048584,1.0056152,7.324219E-4
1725721898488,2024-09-07T15:11:38.488Z,33968,0.09033203,0.94488525,-0.003967285
1725721898511,2024-09-07T15:11:38.511Z,33991,0.05432129,0.9517822,-1.8310547E-4
1725721898531,2024-09-07T15:11:38.531Z,34011,0.054626465,1.0075684,-0.026245117
1725721898572,2024-09-07T15:11:38.572Z,34052,0.07623291,1.0177612,-0.018859863
1725721898620,2024-09-07T15:11:38.620Z,34100,0.09051514,1.019104,-0.03503418
1725721898669,2024-09-07T15:11:38.669Z,34149,0.0769043,1.0126953,-0.06677246
1725721898708,2024-09-07T15:11:38.708Z,34188,0.089782715,0.97875977,-0.042175293
1725721898758,2024-09-07T15:11:38.758Z,34238,0.07006836,1.0098877,-0.001159668
1725721898798,2024-09-07T15:11:38.798Z,34278,0.040222168,1.0159912,-0.042236328
1725721898845,2024-09-07T15:11:38.845Z,34325,0.08929443,1.0298462,2.4414062E-4
1725721898891,2024-09-07T15:11:38.891Z,34371,0.04058838,1.0319214,-0.017578125
1725721898933,2024-09-07T15:11:38.933Z,34413,0.0690918,1.0545044,0.0071411133
1725721898957,2024-09-07T15:11:38.957Z,34437,0.07470703,1.020752,-0.05041504
1725721898978,2024-09-07T15:11:38.978Z,34458,0.030822754,1.0836182,-0.019836426
1725721899026,2024-09-07T15:11:39.026Z,34506,0.059509277,1.0633545,-0.040161133
1725721899074,2024-09-07T15:11:39.074Z,34554,0.04071045,1.0513306,6.1035156E-4
1725721899115,2024-09-07T15:11:39.115Z,34595,0.0602417,1.0649414,-0.033569336
1725721899158,2024-09-07T15:11:39.158Z,34638,0.03918457,1.0702515,-0.020751953
1725721899203,2024-09-07T15:11:39.203Z,34683,0.034057617,1.0679932,-0.024841309
1725721899247,2024-09-07T15:11:39.247Z,34727,0.062072754,1.0634155,-0.043701172
1725721899295,2024-09-07T15:11:39.295Z,34775,0.045837402,1.0782471,-0.02758789
1725721899343,2024-09-07T15:11:39.343Z,34823,0.041931152,1.0698242,-0.023803711
1725721899362,2024-09-07T15:11:39.362Z,34842,0.06524658,1.0613403,-0.026611328
1725721899382,2024-09-07T15:11:39.382Z,34862,0.02319336,1.0239258,-0.016479492
1725721899427,2024-09-07T15:11:39.427Z,34907,0.05255127,1.0302124,-0.04248047
1725721899476,2024-09-07T15:11:39.476Z,34956,0.02142334,1.0110474,0.0015258789
1725721899516,2024-09-07T15:11:39.516Z,34996,0.055236816,1.0321655,-0.056152344
1725721899561,2024-09-07T15:11:39.561Z,35041,0.05078125,1.0522461,-0.0881958
1725721899610,2024-09-07T15:11:39.610Z,35090,0.06994629,1.0025635,-0.043518066
1725721899655,2024-09-07T15:11:39.655Z,35135,0.09069824,0.99768066,-0.026000977
1725721899698,2024-09-07T15:11:39.698Z,35178,0.06085205,1.0078125,0.028259277
1725721899748,2024-09-07T15:11:39.748Z,35228,0.05670166,1.0184326,0.009216309
1725721899768,2024-09-07T15:11:39.768Z,35248,0.041625977,1.0143433,-0.021240234
1725721899784,2024-09-07T15:11:39.784Z,35264,0.03540039,1.019165,-0.02355957
1725721899829,2024-09-07T15:11:39.829Z,35309,0.041137695,1.0032349,0.0036010742
1725721899878,2024-09-07T15:11:39.878Z,35358,0.039611816,0.9846802,0.037902832
1725721899924,2024-09-07T15:11:39.924Z,35404,0.030090332,0.989563,0.050354004
1725721899968,2024-09-07T15:11:39.968Z,35448,0.040222168,1.0042114,0.029541016
1725721900011,2024-09-07T15:11:40.011Z,35491,0.05029297,0.9968262,0.028808594
1725721900059,2024-09-07T15:11:40.059Z,35539,0.06774902,0.97314453,0.05255127
1725721900104,2024-09-07T15:11:40.104Z,35584,0.089416504,0.95684814,0.049682617
1725721900150,2024-09-07T15:11:40.150Z,35630,0.05316162,0.96173096,0.059509277
1725721900195,2024-09-07T15:11:40.195Z,35675,0.07891846,0.9879761,0.07678223
1725721900219,2024-09-07T15:11:40.219Z,35699,0.05847168,0.996521,0.1182251
1725721900235,2024-09-07T15:11:40.235Z,35715,0.09918213,1.0256348,0.09979248
1725721900282,2024-09-07T15:11:40.282Z,35762,0.0435791,1.0036011,0.103759766
1725721900328,2024-09-07T15:11:40.328Z,35808,0.08721924,1.0015259,0.084472656
1725721900375,2024-09-07T15:11:40.375Z,35855,0.08026123,0.99938965,0.10809326
1725721900420,2024-09-07T15:11:40.420Z,35900,0.11932373,0.9491577,0.11755371
1725721900463,2024-09-07T15:11:40.463Z,35943,0.11328125,0.9470825,0.13311768
1725721900510,2024-09-07T15:11:40.510Z,35990,0.11529541,0.95477295,0.12884521
1725721900555,2024-09-07T15:11:40.555Z,36035,0.10534668,0.9908447,0.11755371
1725721900599,2024-09-07T15:11:40.599Z,36079,0.10333252,0.9645996,0.17993164
1725721900620,2024-09-07T15:11:40.620Z,36100,0.08557129,0.9880371,0.17486572
1725721900643,2024-09-07T15:11:40.643Z,36123,0.057373047,0.9951782,0.19311523
1725721900687,2024-09-07T15:11:40.687Z,36167,0.10211182,0.9711304,0.17938232
1725721900732,2024-09-07T15:11:40.732Z,36212,0.070739746,0.9562988,0.14581299
1725721900784,2024-09-07T15:11:40.784Z,36264,0.10723877,0.92962646,0.15270996
1725721900826,2024-09-07T15:11:40.826Z,36306,0.1381836,0.9379883,0.13690186
1725721900869,2024-09-07T15:11:40.869Z,36349,0.09643555,0.96398926,0.13793945
1725721900916,2024-09-07T15:11:40.916Z,36396,0.16070557,0.97839355,0.12585449
1725721900962,2024-09-07T15:11:40.962Z,36442,0.17211914,0.9390259,0.16357422
1725721901005,2024-09-07T15:11:41.005Z,36485,0.168396,0.94818115,0.1239624
1725721901029,2024-09-07T15:11:41.029Z,36509,0.17346191,0.94970703,0.17260742
1725721901052,2024-09-07T15:11:41.052Z,36532,0.15692139,0.99365234,0.1743164
1725721901091,2024-09-07T15:11:41.091Z,36571,0.15698242,1.0202637,0.20410156
1725721901137,2024-09-07T15:11:41.137Z,36617,0.14660645,1.0126953,0.1716919
1725721901182,2024-09-07T15:11:41.182Z,36662,0.12664795,1.0081177,0.1560669
1725721901230,2024-09-07T15:11:41.230Z,36710,0.11773682,0.98583984,0.19177246
1725721901275,2024-09-07T15:11:41.275Z,36755,0.12487793,0.9909668,0.1348877
1725721901322,2024-09-07T15:11:41.322Z,36802,0.13885498,0.9995117,0.16192627
1725721901366,2024-09-07T15:11:41.366Z,36846,0.14355469,0.9772949,0.14941406
1725721901408,2024-09-07T15:11:41.408Z,36888,0.13452148,0.9627075,0.1638794
1725721901454,2024-09-07T15:11:41.454Z,36934,0.14697266,0.9671631,0.15289307
1725721901473,2024-09-07T15:11:41.473Z,36953,0.13134766,0.96850586,0.15814209
1725721901495,2024-09-07T15:11:41.495Z,36975,0.13659668,0.9715576,0.15393066
1725721901544,2024-09-07T15:11:41.544Z,37024,0.12646484,0.97979736,0.16571045
1725721901588,2024-09-07T15:11:41.588Z,37068,0.094177246,0.9834595,0.18200684
1725721901633,2024-09-07T15:11:41.633Z,37113,0.12615967,0.99261475,0.18054199
1725721901680,2024-09-07T15:11:41.680Z,37160,0.1262207,0.9957886,0.18353271
1725721901726,2024-09-07T15:11:41.726Z,37206,0.12237549,0.9991455,0.14855957
1725721901768,2024-09-07T15:11:41.768Z,37248,0.11383057,0.98895264,0.14147949
1725721901814,2024-09-07T15:11:41.814Z,37294,0.121398926,0.9833374,0.14031982
1725721901860,2024-09-07T15:11:41.860Z,37340,0.123046875,0.9908447,0.15124512
1725721901883,2024-09-07T15:11:41.883Z,37363,0.124694824,0.9875488,0.15881348
1725721901903,2024-09-07T15:11:41.903Z,37383,0.11846924,0.98809814,0.16137695
1725721901949,2024-09-07T15:11:41.949Z,37429,0.103149414,0.9818115,0.159729
1725721901994,2024-09-07T15:11:41.994Z,37474,0.114990234,0.9812622,0.16455078
1725721902038,2024-09-07T15:11:42.038Z,37518,0.09185791,0.982666,0.15997314
1725721902086,2024-09-07T15:11:42.086Z,37566,0.1105957,0.9915161,0.15484619
1725721902133,2024-09-07T15:11:42.133Z,37613,0.11242676,0.9928589,0.1607666
1725721902172,2024-09-07T15:11:42.172Z,37652,0.095214844,0.9882202,0.15228271
1725721902222,2024-09-07T15:11:42.222Z,37702,0.09442139,0.9805908,0.16033936
1725721902268,2024-09-07T15:11:42.268Z,37748,0.11621094,0.98217773,0.1416626
1725721902293,2024-09-07T15:11:42.293Z,37773,0.10015869,0.97772217,0.14428711
1725721902313,2024-09-07T15:11:42.313Z,37793,0.09082031,0.97052,0.13806152
1725721902353,2024-09-07T15:11:42.353Z,37833,0.09088135,0.954834,0.12359619
1725721902399,2024-09-07T15:11:42.399Z,37879,0.094177246,0.9466553,0.13397217
1725721902490,2024-09-07T15:11:42.490Z,37970,0.10650635,0.9611206,0.13647461
1725721902511,2024-09-07T15:11:42.511Z,37991,0.07281494,0.98065186,0.10290527
1725721902533,2024-09-07T15:11:42.533Z,38013,0.09051514,0.9923706,0.0960083
1725721902579,2024-09-07T15:11:42.579Z,38059,0.0692749,0.9718628,0.12927246
1725721902624,2024-09-07T15:11:42.624Z,38104,0.10461426,0.99438477,0.06213379
1725721902670,2024-09-07T15:11:42.670Z,38150,0.0680542,0.9921875,0.10180664
1725721902715,2024-09-07T15:11:42.715Z,38195,0.07128906,1.0177612,0.08691406
1725721902737,2024-09-07T15:11:42.737Z,38217,0.05731201,1.0001221,0.103759766
1725721902757,2024-09-07T15:11:42.757Z,38237,0.09020996,0.99542236,0.09411621
1725721902803,2024-09-07T15:11:42.803Z,38283,0.074645996,0.9924927,0.080200195
1725721902851,2024-09-07T15:11:42.851Z,38331,0.061950684,0.9963379,0.054870605
1725721902897,2024-09-07T15:11:42.897Z,38377,0.07495117,0.9842529,0.047729492
1725721902942,2024-09-07T15:11:42.942Z,38422,0.037841797,0.9814453,0.04840088
1725721902987,2024-09-07T15:11:42.987Z,38467,0.047424316,0.9836426,0.027954102
1725721903032,2024-09-07T15:11:43.032Z,38512,0.01586914,0.9807129,0.03552246
1725721903074,2024-09-07T15:11:43.074Z,38554,0.06665039,0.9998779,0.044128418
1725721903122,2024-09-07T15:11:43.122Z,38602,0.054382324,0.98773193,0.028503418
1725721903145,2024-09-07T15:11:43.145Z,38625,0.0690918,0.9972534,0.013061523
1725721903161,2024-09-07T15:11:43.161Z,38641,0.059631348,0.9938965,0.035827637
1725721903211,2024-09-07T15:11:43.211Z,38691,0.06048584,1.0213013,-0.006958008
1725721903256,2024-09-07T15:11:43.256Z,38736,0.031066895,0.9928589,0.028015137
1725721903300,2024-09-07T15:11:43.300Z,38780,0.0925293,0.99694824,-0.0036621094
1725721903343,2024-09-07T15:11:43.343Z,38823,0.046325684,0.9482422,0.028930664
1725721903391,2024-09-07T15:11:43.391Z,38871,0.08782959,0.9678955,-0.05114746
1725721903435,2024-09-07T15:11:43.435Z,38915,0.04486084,0.9779053,-0.0076293945
1725721903479,2024-09-07T15:11:43.479Z,38959,0.103515625,1.0467529,-0.06726074
1725721903528,2024-09-07T15:11:43.528Z,39008,0.005493164,1.0361938,-0.0048828125
1725721903549,2024-09-07T15:11:43.549Z,39029,0.107299805,1.065979,-0.058776855
1725721903568,2024-09-07T15:11:43.568Z,39048,0.07220459,1.0806274,0.009094238
1725721903624,2024-09-07T15:11:43.624Z,39104,0.14282227,1.0924683,-0.011413574
1725721903658,2024-09-07T15:11:43.658Z,39138,0.11212158,1.0327759,-0.012451172
1725721903704,2024-09-07T15:11:43.704Z,39184,0.117370605,0.96588135,-0.040283203
1725721903750,2024-09-07T15:11:43.750Z,39230,0.062194824,0.95098877,-0.059936523
1725721903794,2024-09-07T15:11:43.794Z,39274,0.028869629,0.92663574,0.0051879883
1725721903842,2024-09-07T15:11:43.842Z,39322,0.13043213,1.0358887,-0.05456543
1725721903886,2024-09-07T15:11:43.886Z,39366,0.07183838,0.9836426,0.042053223
1725721903931,2024-09-07T15:11:43.931Z,39411,0.05053711,1.0127563,-0.056640625
1725721903975,2024-09-07T15:11:43.975Z,39455,0.014831543,0.95617676,-0.04345703
1725721903994,2024-09-07T15:11:43.994Z,39474,0.05834961,1.012085,-0.08068848
1725721904016,2024-09-07T15:11:44.016Z,39496,0.008605957,0.9782715,-0.033081055
1725721904064,2024-09-07T15:11:44.064Z,39544,0.060913086,1.0192261,-0.095825195
1725721904108,2024-09-07T15:11:44.108Z,39588,0.017822266,1.0238647,-0.06402588
1725721904156,2024-09-07T15:11:44.156Z,39636,0.04284668,1.0300903,-0.07397461
1725721904202,2024-09-07T15:11:44.202Z,39682,0.06915283,1.0213623,-0.07897949
1725721904241,2024-09-07T15:11:44.241Z,39721,0.032592773,1.0107422,-0.11517334
1725721904292,2024-09-07T15:11:44.292Z,39772,0.06585693,1.0452881,-0.097717285
1725721904334,2024-09-07T15:11:44.334Z,39814,0.059265137,1.052002,-0.08709717
1725721904379,2024-09-07T15:11:44.379Z,39859,0.06677246,1.0473633,-0.111450195
1725721904403,2024-09-07T15:11:44.403Z,39883,0.044311523,1.0626221,-0.05822754
1725721904423,2024-09-07T15:11:44.423Z,39903,0.075805664,1.1036377,-0.08703613
1725721904469,2024-09-07T15:11:44.469Z,39949,0.023742676,1.0681152,-0.087402344
1725721904514,2024-09-07T15:11:44.514Z,39994,0.028747559,1.0869751,-0.12060547
1725721904562,2024-09-07T15:11:44.562Z,40042,0.029296875,1.071167,-0.07513428
1725721904603,2024-09-07T15:11:44.603Z,40083,0.048095703,1.0890503,-0.066833496
1725721904650,2024-09-07T15:11:44.650Z,40130,-0.0071411133,1.0811768,-0.06793213
1725721904692,2024-09-07T15:11:44.692Z,40172,0.039916992,1.0671997,-0.08795166
1725721904738,2024-09-07T15:11:44.738Z,40218,0.02520752,1.0769653,-0.08148193
1725721904784,2024-09-07T15:11:44.784Z,40264,0.01776123,1.0414429,-0.06298828
1725721904804,2024-09-07T15:11:44.804Z,40284,0.008972168,1.027771,-0.055419922
1725721904825,2024-09-07T15:11:44.825Z,40305,0.021240234,1.0439453,-0.10101318
1725721904873,2024-09-07T15:11:44.873Z,40353,0.038208008,1.0480347,-0.12872314
1725721904963,2024-09-07T15:11:44.963Z,40443,0.061950684,1.0234375,-0.12463379
1725721904984,2024-09-07T15:11:44.984Z,40464,0.02923584,0.984375,-0.06524658
1725721905008,2024-09-07T15:11:45.008Z,40488,0.047912598,0.9967041,-0.08691406
1725721905052,2024-09-07T15:11:45.052Z,40532,0.015380859,0.984375,-0.049926758
1725721905099,2024-09-07T15:11:45.099Z,40579,0.03643799,1.0154419,-0.08300781
1725721905145,2024-09-07T15:11:45.145Z,40625,0.016845703,1.0039062,-0.06726074
1725721905193,2024-09-07T15:11:45.193Z,40673,0.048217773,1.0184937,-0.08404541
1725721905235,2024-09-07T15:11:45.235Z,40715,0.029541016,1.0010376,-0.05706787
1725721905255,2024-09-07T15:11:45.255Z,40735,0.050109863,1.0185547,-0.08074951
1725721905277,2024-09-07T15:11:45.277Z,40757,0.03692627,1.0115967,-0.07611084
1725721905325,2024-09-07T15:11:45.325Z,40805,0.043701172,1.0044556,-0.055114746
1725721905370,2024-09-07T15:11:45.370Z,40850,0.047546387,1.0056152,-0.053100586
1725721905418,2024-09-07T15:11:45.418Z,40898,0.041503906,0.9845581,-0.04949951
1725721905461,2024-09-07T15:11:45.461Z,40941,0.041870117,0.99401855,-0.028137207
1725721905504,2024-09-07T15:11:45.504Z,40984,0.045532227,0.9907837,0.012207031
1725721905548,2024-09-07T15:11:45.548Z,41028,0.061828613,1.02594,-0.046020508
1725721905594,2024-09-07T15:11:45.594Z,41074,0.02758789,0.99609375,-0.016418457
1725721905641,2024-09-07T15:11:45.641Z,41121,0.09307861,0.9863281,0.0020751953
1725721905662,2024-09-07T15:11:45.662Z,41142,0.08312988,0.9824219,0.048583984
1725721905683,2024-09-07T15:11:45.683Z,41163,0.06512451,0.9810791,0.08087158
1725721905738,2024-09-07T15:11:45.738Z,41218,0.083984375,0.99383545,0.076293945
1725721905774,2024-09-07T15:11:45.774Z,41254,0.051330566,1.0161743,0.025024414
1725721905817,2024-09-07T15:11:45.817Z,41297,0.051818848,1.0239868,0.016174316
1725721905866,2024-09-07T15:11:45.866Z,41346,0.07232666,1.0217285,-0.01727295
1725721905909,2024-09-07T15:11:45.909Z,41389,0.035339355,0.98327637,0.010192871
1725721905955,2024-09-07T15:11:45.955Z,41435,0.09625244,1.008667,0.008850098
1725721906003,2024-09-07T15:11:46.003Z,41483,0.076293945,0.99694824,0.04925537
1725721906045,2024-09-07T15:11:46.045Z,41525,0.09088135,0.9678345,0.06665039
1725721906062,2024-09-07T15:11:46.062Z,41542,0.08288574,0.98986816,0.055114746
1725721906085,2024-09-07T15:11:46.085Z,41565,0.068237305,0.9833374,0.09893799
1725721906134,2024-09-07T15:11:46.134Z,41614,0.06604004,0.9968262,0.118774414
1725721906178,2024-09-07T15:11:46.178Z,41658,0.06713867,0.9998169,0.11755371
1725721906227,2024-09-07T15:11:46.227Z,41707,0.11578369,0.9959717,0.12158203
1725721906269,2024-09-07T15:11:46.269Z,41749,0.05041504,0.9812622,0.1463623
1725721906314,2024-09-07T15:11:46.314Z,41794,0.075927734,1.008667,0.12194824
1725721906361,2024-09-07T15:11:46.361Z,41841,0.096069336,0.9602051,0.13671875
1725721906407,2024-09-07T15:11:46.407Z,41887,0.11273193,0.9366455,0.15820312
1725721906450,2024-09-07T15:11:46.450Z,41930,0.11975098,0.9168701,0.1352539
1725721906495,2024-09-07T15:11:46.495Z,41975,0.12689209,0.9033203,0.107543945
1725721906516,2024-09-07T15:11:46.516Z,41996,0.09399414,0.9161377,0.1453247
1725721906548,2024-09-07T15:11:46.548Z,42028,0.11175537,0.9508667,0.16009521
1725721906579,2024-09-07T15:11:46.579Z,42059,0.12335205,0.9523926,0.20581055
1725721906630,2024-09-07T15:11:46.630Z,42110,0.13989258,0.9937744,0.17425537
1725721906676,2024-09-07T15:11:46.676Z,42156,0.11236572,1.019165,0.15783691
1725721906719,2024-09-07T15:11:46.719Z,42199,0.10852051,1.0345459,0.14221191
1725721906767,2024-09-07T15:11:46.767Z,42247,0.121520996,1.005188,0.14178467
1725721906809,2024-09-07T15:11:46.809Z,42289,0.11218262,0.9655762,0.14831543
1725721906854,2024-09-07T15:11:46.854Z,42334,0.13421631,0.9562378,0.13861084
1725721906899,2024-09-07T15:11:46.899Z,42379,0.08795166,0.98431396,0.15686035
1725721906919,2024-09-07T15:11:46.919Z,42399,0.123291016,1.0050049,0.15130615
1725721906943,2024-09-07T15:11:46.943Z,42423,0.095581055,1.0006104,0.15374756
1725721906987,2024-09-07T15:11:46.987Z,42467,0.105041504,0.9891968,0.14868164
1725721907033,2024-09-07T15:11:47.033Z,42513,0.112976074,0.9868164,0.15246582
1725721907082,2024-09-07T15:11:47.082Z,42562,0.1116333,0.98394775,0.15997314
1725721907123,2024-09-07T15:11:47.123Z,42603,0.11126709,0.99835205,0.16125488
1725721907168,2024-09-07T15:11:47.168Z,42648,0.101257324,0.99572754,0.16369629
1725721907213,2024-09-07T15:11:47.213Z,42693,0.10803223,1.0041504,0.13659668
1725721907260,2024-09-07T15:11:47.260Z,42740,0.08215332,0.9993286,0.14733887
1725721907308,2024-09-07T15:11:47.308Z,42788,0.08911133,0.98358154,0.12506104
1725721907333,2024-09-07T15:11:47.333Z,42813,0.09210205,0.97698975,0.14343262
1725721907358,2024-09-07T15:11:47.358Z,42838,0.0826416,0.9859619,0.15881348
1725721907392,2024-09-07T15:11:47.392Z,42872,0.09887695,0.9909668,0.14483643
1725721907439,2024-09-07T15:11:47.439Z,42919,0.095214844,0.9859619,0.14703369
1725721907483,2024-09-07T15:11:47.483Z,42963,0.09667969,0.98535156,0.13293457
1725721907530,2024-09-07T15:11:47.530Z,43010,0.08319092,0.9733887,0.13269043
1725721907578,2024-09-07T15:11:47.578Z,43058,0.09643555,0.9663696,0.11273193
1725721907621,2024-09-07T15:11:47.621Z,43101,0.07611084,0.9672241,0.09295654
1725721907666,2024-09-07T15:11:47.666Z,43146,0.083618164,0.9560547,0.103027344
1725721907716,2024-09-07T15:11:47.716Z,43196,0.09979248,0.96533203,0.10021973
1725721907761,2024-09-07T15:11:47.761Z,43241,0.08911133,0.9923706,0.11663818
1725721907785,2024-09-07T15:11:47.785Z,43265,0.08288574,0.98913574,0.09472656
1725721907806,2024-09-07T15:11:47.806Z,43286,0.072509766,0.9802246,0.10418701
1725721907839,2024-09-07T15:11:47.839Z,43319,0.08258057,0.99780273,0.10308838
1725721907889,2024-09-07T15:11:47.889Z,43369,0.080322266,0.9890137,0.09008789
1725721907935,2024-09-07T15:11:47.935Z,43415,0.04559326,1.0072632,0.05419922
1725721907982,2024-09-07T15:11:47.982Z,43462,0.060302734,1.0236816,0.06286621
1725721908027,2024-09-07T15:11:48.027Z,43507,0.079833984,1.0032959,0.06958008
1725721908070,2024-09-07T15:11:48.070Z,43550,0.042785645,0.9758301,0.0491333
1725721908115,2024-09-07T15:11:48.115Z,43595,0.073913574,0.97320557,0.030456543
1725721908160,2024-09-07T15:11:48.160Z,43640,0.044677734,0.9581909,0.03527832
1725721908182,2024-09-07T15:11:48.182Z,43662,0.06829834,0.9758301,0.039245605
1725721908204,2024-09-07T15:11:48.204Z,43684,0.07495117,0.9937744,0.051635742
1725721908248,2024-09-07T15:11:48.248Z,43728,0.052246094,1.0162354,0.068115234
1725721908294,2024-09-07T15:11:48.294Z,43774,0.07495117,1.0446777,0.072021484
1725721908342,2024-09-07T15:11:48.342Z,43822,0.105773926,1.0165405,0.07647705
1725721908385,2024-09-07T15:11:48.385Z,43865,0.078552246,0.99676514,0.0390625
1725721908430,2024-09-07T15:11:48.430Z,43910,0.002380371,0.9562378,0.014770508
1725721908474,2024-09-07T15:11:48.474Z,43954,0.05456543,0.951416,-0.016418457
1725721908520,2024-09-07T15:11:48.520Z,44000,0.028381348,0.9692993,0.034057617
1725721908567,2024-09-07T15:11:48.567Z,44047,0.03540039,1.0256348,-0.020629883
1725721908588,2024-09-07T15:11:48.588Z,44068,0.02331543,1.0319214,0.01159668
1725721908608,2024-09-07T15:11:48.608Z,44088,0.05621338,1.0495605,0.03363037
1725721908652,2024-09-07T15:11:48.652Z,44132,0.06427002,1.0241089,0.022521973
1725721908699,2024-09-07T15:11:48.699Z,44179,0.11340332,0.99090576,0.005065918
1725721908745,2024-09-07T15:11:48.745Z,44225,0.11627197,0.9536133,0.08666992
1725721908788,2024-09-07T15:11:48.788Z,44268,0.07122803,1.0002441,-0.0040283203
1725721908837,2024-09-07T15:11:48.837Z,44317,0.023010254,1.0067749,-0.011657715
1725721908879,2024-09-07T15:11:48.879Z,44359,0.122802734,1.0211792,0.042114258
1725721908923,2024-09-07T15:11:48.923Z,44403,0.091308594,0.9760132,0.080322266
1725721908969,2024-09-07T15:11:48.969Z,44449,0.075805664,1.0271606,0.021728516
1725721909014,2024-09-07T15:11:49.014Z,44494,0.06542969,1.0563354,0.06439209
1725721909034,2024-09-07T15:11:49.034Z,44514,0.04876709,1.0704956,0.05126953
1725721909055,2024-09-07T15:11:49.055Z,44535,0.049560547,1.0064087,0.055603027
1725721909103,2024-09-07T15:11:49.103Z,44583,0.06915283,0.9486084,0.037109375
1725721909151,2024-09-07T15:11:49.151Z,44631,0.035217285,0.96240234,0.07470703
1725721909194,2024-09-07T15:11:49.194Z,44674,0.028076172,1.0100098,0.044189453
1725721909243,2024-09-07T15:11:49.243Z,44723,0.003112793,0.977478,-0.007751465
1725721909285,2024-09-07T15:11:49.285Z,44765,0.03503418,1.0167236,-0.04168701
1725721909331,2024-09-07T15:11:49.331Z,44811,2.4414062E-4,1.0108643,-0.04522705
1725721909373,2024-09-07T15:11:49.373Z,44853,0.024353027,0.9940796,-0.049438477
1725721909422,2024-09-07T15:11:49.422Z,44902,0.07873535,1.0282593,-0.05621338
1725721909444,2024-09-07T15:11:49.444Z,44924,-0.008239746,1.0353394,-0.018310547
1725721909467,2024-09-07T15:11:49.467Z,44947,0.06060791,1.0802612,-0.028076172
1725721909508,2024-09-07T15:11:49.508Z,44988,0.010009766,1.0300293,-0.0076904297
1725721909555,2024-09-07T15:11:49.555Z,45035,0.05328369,1.0300903,-0.068237305
1725721909600,2024-09-07T15:11:49.600Z,45080,0.016113281,1.0123291,-0.023803711
1725721909647,2024-09-07T15:11:49.647Z,45127,0.031921387,1.0342407,-0.035888672
1725721909692,2024-09-07T15:11:49.692Z,45172,0.003967285,1.0128784,-0.03778076
1725721909737,2024-09-07T15:11:49.737Z,45217,0.03466797,1.0291748,-0.07659912
1725721909782,2024-09-07T15:11:49.782Z,45262,-0.033325195,1.0163574,-0.064331055
1725721909823,2024-09-07T15:11:49.823Z,45303,0.029846191,1.0552368,-0.070739746
1725721909842,2024-09-07T15:11:49.842Z,45322,-0.020874023,1.02594,-0.068603516
1725721909867,2024-09-07T15:11:49.867Z,45347,0.023803711,1.0461426,-0.08984375
1725721909914,2024-09-07T15:11:49.914Z,45394,-0.027038574,1.0541382,-0.05645752
1725721909959,2024-09-07T15:11:49.959Z,45439,0.03692627,1.0479736,-0.06335449
1725721910003,2024-09-07T15:11:50.003Z,45483,0.064819336,1.0352783,-0.119384766
1725721910048,2024-09-07T15:11:50.048Z,45528,-9.765625E-4,1.0319214,-0.0949707
1725721910092,2024-09-07T15:11:50.092Z,45572,0.04034424,1.074646,-0.09326172
1725721910138,2024-09-07T15:11:50.138Z,45618,0.02722168,1.038269,-0.0579834
1725721910182,2024-09-07T15:11:50.182Z,45662,0.049682617,1.0584717,-0.0690918
1725721910228,2024-09-07T15:11:50.228Z,45708,0.031433105,1.0530396,-0.034240723
1725721910247,2024-09-07T15:11:50.247Z,45727,0.049316406,1.0844727,-0.019165039
1725721910274,2024-09-07T15:11:50.274Z,45754,0.005432129,1.0925293,-0.013916016
1725721910318,2024-09-07T15:11:50.318Z,45798,0.05908203,1.081604,-0.06750488
1725721910364,2024-09-07T15:11:50.364Z,45844,0.0068359375,1.013916,-0.0045166016
1725721910410,2024-09-07T15:11:50.410Z,45890,0.022583008,1.0335083,-0.053588867
1725721910455,2024-09-07T15:11:50.455Z,45935,-0.018981934,1.0549316,-0.066101074
1725721910503,2024-09-07T15:11:50.503Z,45983,0.015197754,1.0160522,-0.087524414
1725721910547,2024-09-07T15:11:50.547Z,46027,0.035095215,1.0251465,-0.056396484
1725721910590,2024-09-07T15:11:50.590Z,46070,-0.0021972656,1.0219116,-0.038391113
1725721910633,2024-09-07T15:11:50.633Z,46113,0.041015625,1.0315552,-0.055603027
1725721910680,2024-09-07T15:11:50.680Z,46160,-0.014282227,1.0402832,-0.07116699
1725721910699,2024-09-07T15:11:50.699Z,46179,0.031799316,1.0396118,-0.103759766
1725721910723,2024-09-07T15:11:50.723Z,46203,0.022583008,0.9764404,-0.016723633
1725721910768,2024-09-07T15:11:50.768Z,46248,0.053833008,0.99279785,-0.044921875
1725721910818,2024-09-07T15:11:50.818Z,46298,0.043945312,1.0046387,-0.05871582
1725721910858,2024-09-07T15:11:50.858Z,46338,0.031799316,0.97717285,-0.035888672
1725721910906,2024-09-07T15:11:50.906Z,46386,0.047912598,1.0006104,-0.046447754
1725721910954,2024-09-07T15:11:50.954Z,46434,0.025146484,0.99243164,0.0010375977
1725721910995,2024-09-07T15:11:50.995Z,46475,0.064453125,1.0151978,0.0234375
1725721911041,2024-09-07T15:11:51.041Z,46521,0.011657715,0.9840698,0.07574463
1725721911100,2024-09-07T15:11:51.100Z,46580,0.044189453,1.0010986,0.03967285
1725721911118,2024-09-07T15:11:51.118Z,46598,0.04156494,1.0196533,0.030334473
1725721911132,2024-09-07T15:11:51.132Z,46612,0.053466797,1.0025635,0.010864258
1725721911175,2024-09-07T15:11:51.175Z,46655,0.078430176,1.0071411,0.027404785
1725721911219,2024-09-07T15:11:51.219Z,46699,0.06298828,1.0059204,0.08544922
1725721911264,2024-09-07T15:11:51.264Z,46744,0.084350586,1.0076904,0.07385254
1725721911308,2024-09-07T15:11:51.308Z,46788,0.052246094,1.0214844,0.049682617
1725721911356,2024-09-07T15:11:51.356Z,46836,0.07183838,1.0061646,0.067993164
1725721911400,2024-09-07T15:11:51.400Z,46880,0.04168701,0.9805298,0.06744385
1725721911444,2024-09-07T15:11:51.444Z,46924,0.07159424,0.9713135,0.097351074
1725721911489,2024-09-07T15:11:51.489Z,46969,0.06317139,0.99798584,0.0491333
1725721911510,2024-09-07T15:11:51.510Z,46990,0.058166504,0.9918823,0.090270996
1725721911532,2024-09-07T15:11:51.532Z,47012,0.080322266,1.0198364,0.041259766
1725721911580,2024-09-07T15:11:51.580Z,47060,0.071899414,0.9623413,0.081848145
1725721911627,2024-09-07T15:11:51.627Z,47107,0.0947876,0.9699707,0.06463623
1725721911672,2024-09-07T15:11:51.672Z,47152,0.10290527,0.987854,0.10241699
1725721911717,2024-09-07T15:11:51.717Z,47197,0.070007324,0.9906616,0.11608887
1725721911759,2024-09-07T15:11:51.759Z,47239,0.06335449,1.0247803,0.08618164
1725721911804,2024-09-07T15:11:51.804Z,47284,0.055786133,1.0072632,0.11907959
1725721911851,2024-09-07T15:11:51.851Z,47331,0.068115234,0.998291,0.1395874
1725721911897,2024-09-07T15:11:51.897Z,47377,0.057128906,0.98187256,0.1486206
1725721911939,2024-09-07T15:11:51.939Z,47419,0.044799805,0.97650146,0.1373291
1725721911960,2024-09-07T15:11:51.960Z,47440,0.06555176,0.9683838,0.15588379
1725721911983,2024-09-07T15:11:51.983Z,47463,0.056640625,0.9470215,0.13873291
1725721912030,2024-09-07T15:11:52.030Z,47510,0.07879639,0.934021,0.13793945
1725721912075,2024-09-07T15:11:52.075Z,47555,0.09844971,0.9537964,0.17510986
1725721912121,2024-09-07T15:11:52.121Z,47601,0.09075928,1.0101318,0.18035889
1725721912167,2024-09-07T15:11:52.167Z,47647,0.07092285,1.0418701,0.13653564
1725721912209,2024-09-07T15:11:52.209Z,47689,0.12658691,0.9234619,0.21905518
1725721912255,2024-09-07T15:11:52.255Z,47735,0.110961914,0.93792725,0.1687622
1725721912300,2024-09-07T15:11:52.300Z,47780,0.11437988,0.9255371,0.1730957
1725721912346,2024-09-07T15:11:52.346Z,47826,0.13195801,0.9094238,0.17749023
1725721912368,2024-09-07T15:11:52.368Z,47848,0.1027832,0.9346924,0.17297363
1725721912383,2024-09-07T15:11:52.383Z,47863,0.1104126,0.97473145,0.18017578
1725721912434,2024-09-07T15:11:52.434Z,47914,0.10668945,0.9793091,0.203125
1725721912483,2024-09-07T15:11:52.483Z,47963,0.111083984,1.0101318,0.19732666
1725721912525,2024-09-07T15:11:52.525Z,48005,0.11578369,0.99823,0.20733643
1725721912569,2024-09-07T15:11:52.569Z,48049,0.08728027,0.9908447,0.20013428
1725721912613,2024-09-07T15:11:52.613Z,48093,0.09729004,1.0025024,0.17626953
1725721912661,2024-09-07T15:11:52.661Z,48141,0.10699463,0.9849243,0.21258545
1725721912706,2024-09-07T15:11:52.706Z,48186,0.109313965,0.9908447,0.18286133
1725721912752,2024-09-07T15:11:52.752Z,48232,0.0758667,0.9894409,0.18908691
1725721912777,2024-09-07T15:11:52.777Z,48257,0.11639404,0.9876709,0.19030762
1725721912800,2024-09-07T15:11:52.800Z,48280,0.10180664,0.97766113,0.18786621
1725721912840,2024-09-07T15:11:52.840Z,48320,0.094055176,0.99017334,0.19146729
1725721912884,2024-09-07T15:11:52.884Z,48364,0.09082031,1.001709,0.17523193
1725721912928,2024-09-07T15:11:52.928Z,48408,0.09643555,0.98724365,0.1763916
1725721912976,2024-09-07T15:11:52.976Z,48456,0.107543945,0.98065186,0.1842041
1725721913023,2024-09-07T15:11:53.023Z,48503,0.1038208,0.98779297,0.1749878
1725721913063,2024-09-07T15:11:53.063Z,48543,0.09283447,0.9822998,0.19055176
1725721913109,2024-09-07T15:11:53.109Z,48589,0.117004395,0.9836426,0.16418457
1725721913154,2024-09-07T15:11:53.154Z,48634,0.06652832,0.9636841,0.15905762
1725721913201,2024-09-07T15:11:53.201Z,48681,0.09283447,0.97662354,0.12536621
1725721913227,2024-09-07T15:11:53.227Z,48707,0.07080078,0.9659424,0.13989258
1725721913247,2024-09-07T15:11:53.247Z,48727,0.07891846,0.961792,0.1329956
1725721913288,2024-09-07T15:11:53.288Z,48768,0.08178711,0.96136475,0.14813232
1725721913334,2024-09-07T15:11:53.334Z,48814,0.0637207,0.96118164,0.15942383
1725721913380,2024-09-07T15:11:53.380Z,48860,0.06402588,0.9898071,0.15100098
1725721913429,2024-09-07T15:11:53.429Z,48909,0.078430176,0.9962158,0.1819458
1725721913472,2024-09-07T15:11:53.472Z,48952,0.07318115,0.97991943,0.13696289
1725721913513,2024-09-07T15:11:53.513Z,48993,0.072143555,0.97698975,0.10638428
1725721913560,2024-09-07T15:11:53.560Z,49040,0.064697266,0.96728516,0.09442139
1725721913607,2024-09-07T15:11:53.607Z,49087,0.06713867,0.96435547,0.07159424
1725721913628,2024-09-07T15:11:53.628Z,49108,0.01739502,0.9916992,0.06237793
1725721913645,2024-09-07T15:11:53.645Z,49125,0.023010254,1.0227661,0.07696533
1725721913692,2024-09-07T15:11:53.692Z,49172,0.08850098,1.0216675,0.07745361
1725721913739,2024-09-07T15:11:53.739Z,49219,0.027893066,1.0116577,0.08728027
1725721913782,2024-09-07T15:11:53.782Z,49262,0.0725708,1.0061646,0.05822754
1725721913830,2024-09-07T15:11:53.830Z,49310,0.077697754,0.97198486,0.07531738
1725721913875,2024-09-07T15:11:53.875Z,49355,0.045715332,0.9796753,0.052246094
1725721913921,2024-09-07T15:11:53.921Z,49401,0.064086914,0.9708252,0.022216797
1725721913966,2024-09-07T15:11:53.966Z,49446,0.0390625,0.96759033,0.050231934
1725721914012,2024-09-07T15:11:54.012Z,49492,-0.0049438477,1.0064697,0.044921875
1725721914037,2024-09-07T15:11:54.037Z,49517,0.035827637,1.017334,0.028076172
1725721914056,2024-09-07T15:11:54.056Z,49536,0.041931152,1.0213623,0.030273438
1725721914098,2024-09-07T15:11:54.098Z,49578,0.03375244,1.0200806,0.020324707
1725721914145,2024-09-07T15:11:54.145Z,49625,0.06878662,1.0234985,-0.0099487305
1725721914190,2024-09-07T15:11:54.190Z,49670,0.038330078,0.97058105,0.014221191
1725721914233,2024-09-07T15:11:54.233Z,49713,0.04888916,0.9511719,-0.015075684
1725721914281,2024-09-07T15:11:54.281Z,49761,0.047607422,0.97143555,-0.028137207
1725721914323,2024-09-07T15:11:54.323Z,49803,0.00970459,0.9713745,-0.036621094
1725721914370,2024-09-07T15:11:54.370Z,49850,0.05255127,1.0188599,-0.07196045
1725721914416,2024-09-07T15:11:54.416Z,49896,0.031982422,1.0258179,-0.010925293
1725721914461,2024-09-07T15:11:54.461Z,49941,0.06970215,1.1035156,-0.08868408
1725721914482,2024-09-07T15:11:54.482Z,49962,0.047424316,1.0648804,-0.034362793
1725721914502,2024-09-07T15:11:54.502Z,49982,0.0769043,1.0297852,-0.081604004
1725721914548,2024-09-07T15:11:54.548Z,50028,0.020690918,0.9475708,-0.03668213
1725721914596,2024-09-07T15:11:54.596Z,50076,0.047302246,1.0027466,-0.122680664
1725721914638,2024-09-07T15:11:54.638Z,50118,0.008117676,0.9863281,-0.058898926
1725721914685,2024-09-07T15:11:54.685Z,50165,0.028747559,1.0501099,-0.091674805
1725721914730,2024-09-07T15:11:54.730Z,50210,-0.022583008,1.0362549,-0.014221191
1725721914776,2024-09-07T15:11:54.776Z,50256,0.02746582,1.0230713,-0.08959961
1725721914820,2024-09-07T15:11:54.820Z,50300,-0.016235352,0.96240234,-0.042236328
1725721914866,2024-09-07T15:11:54.866Z,50346,0.020812988,0.9822998,-0.06585693
1725721914890,2024-09-07T15:11:54.890Z,50370,-0.020935059,0.9720459,-0.058898926
1725721914913,2024-09-07T15:11:54.913Z,50393,0.012817383,1.0144653,-0.10644531
1725721914957,2024-09-07T15:11:54.957Z,50437,0.022094727,0.9968262,-0.09979248
1725721914998,2024-09-07T15:11:54.998Z,50478,5.493164E-4,1.0377197,-0.16479492
1725721915044,2024-09-07T15:11:55.044Z,50524,0.02520752,1.0292358,-0.12927246
1725721915089,2024-09-07T15:11:55.089Z,50569,0.036376953,1.0578003,-0.13781738
1725721915137,2024-09-07T15:11:55.137Z,50617,0.017578125,1.0539551,-0.07922363
1725721915183,2024-09-07T15:11:55.183Z,50663,0.027954102,1.0392456,-0.08935547
1725721915225,2024-09-07T15:11:55.225Z,50705,0.011413574,1.0168457,-0.08782959
1725721915269,2024-09-07T15:11:55.269Z,50749,0.01940918,1.024231,-0.06976318
1725721915290,2024-09-07T15:11:55.290Z,50770,0.030517578,1.0204468,-0.078552246
1725721915312,2024-09-07T15:11:55.312Z,50792,-0.017456055,1.0159912,-0.12597656
1725721915359,2024-09-07T15:11:55.359Z,50839,-6.713867E-4,1.0326538,-0.14160156
1725721915406,2024-09-07T15:11:55.406Z,50886,0.007446289,1.0375366,-0.11303711
1725721915450,2024-09-07T15:11:55.450Z,50930,-0.007751465,1.0479736,-0.10858154
1725721915495,2024-09-07T15:11:55.495Z,50975,0.009765625,1.0516357,-0.12109375
1725721915541,2024-09-07T15:11:55.541Z,51021,0.008361816,1.0519409,-0.12579346
1725721915585,2024-09-07T15:11:55.585Z,51065,-0.028320312,1.0558472,-0.13214111
1725721915633,2024-09-07T15:11:55.633Z,51113,0.007019043,1.0346069,-0.1293335
1725721915678,2024-09-07T15:11:55.678Z,51158,0.0015869141,1.0413818,-0.1295166
1725721915725,2024-09-07T15:11:55.725Z,51205,-0.0044555664,1.0615234,-0.13397217
1725721915750,2024-09-07T15:11:55.750Z,51230,-0.02368164,1.067688,-0.10070801
1725721915771,2024-09-07T15:11:55.771Z,51251,0.027832031,1.0671997,-0.11395264
1725721915807,2024-09-07T15:11:55.807Z,51287,-0.0076904297,1.045105,-0.115722656
1725721915853,2024-09-07T15:11:55.853Z,51333,-0.0014648438,1.032959,-0.11828613
1725721915898,2024-09-07T15:11:55.898Z,51378,0.030639648,1.0501099,-0.11541748
1725721915945,2024-09-07T15:11:55.945Z,51425,0.014160156,1.0395508,-0.08502197
1725721915987,2024-09-07T15:11:55.987Z,51467,0.030578613,1.0401611,-0.09161377
1725721916034,2024-09-07T15:11:56.034Z,51514,0.020812988,1.0554199,-0.10644531
1725721916082,2024-09-07T15:11:56.082Z,51562,0.047302246,1.0467529,-0.12841797
1725721916126,2024-09-07T15:11:56.126Z,51606,0.0211792,1.0200806,-0.097961426
1725721916148,2024-09-07T15:11:56.148Z,51628,0.019104004,1.0167236,-0.07080078
1725721916167,2024-09-07T15:11:56.167Z,51647,0.016052246,1.0273438,-0.07525635
1725721916212,2024-09-07T15:11:56.212Z,51692,0.015808105,1.0380859,-0.09649658
1725721916259,2024-09-07T15:11:56.259Z,51739,0.046569824,1.0411987,-0.086120605
1725721916307,2024-09-07T15:11:56.307Z,51787,0.0014038086,1.0169067,-0.06707764
1725721916350,2024-09-07T15:11:56.350Z,51830,0.034362793,1.0145264,-0.060791016
1725721916392,2024-09-07T15:11:56.392Z,51872,0.034973145,1.003418,-0.039855957
1725721916440,2024-09-07T15:11:56.440Z,51920,0.014587402,1.0143433,-0.06890869
1725721916483,2024-09-07T15:11:56.483Z,51963,0.012207031,1.0031738,-0.068115234
1725721916527,2024-09-07T15:11:56.527Z,52007,0.04083252,0.9923096,-0.018981934
1725721916548,2024-09-07T15:11:56.548Z,52028,0.03515625,0.99523926,-0.03302002
1725721916570,2024-09-07T15:11:56.570Z,52050,0.034484863,0.98187256,-0.039978027
1725721916618,2024-09-07T15:11:56.618Z,52098,0.041381836,0.9890137,-0.039978027
1725721916665,2024-09-07T15:11:56.665Z,52145,0.03778076,0.98065186,-0.0034179688
1725721916711,2024-09-07T15:11:56.711Z,52191,0.051452637,0.99212646,0.039245605
1725721916755,2024-09-07T15:11:56.755Z,52235,0.052734375,1.0204468,0.018981934
1725721916800,2024-09-07T15:11:56.800Z,52280,0.051940918,1.0125732,0.0138549805
1725721916845,2024-09-07T15:11:56.845Z,52325,0.06591797,1.029541,-0.010803223
1725721916890,2024-09-07T15:11:56.890Z,52370,0.07366943,0.97943115,0.038024902
1725721916934,2024-09-07T15:11:56.934Z,52414,0.06121826,0.9923706,0.012573242
1725721916982,2024-09-07T15:11:56.982Z,52462,0.048706055,0.9777832,0.024108887
1725721917004,2024-09-07T15:11:57.004Z,52484,0.068359375,1.0064087,-0.023071289
1725721917028,2024-09-07T15:11:57.028Z,52508,0.04748535,0.9866333,0.07385254
1725721917067,2024-09-07T15:11:57.067Z,52547,0.084350586,0.98876953,0.12841797
1725721917112,2024-09-07T15:11:57.112Z,52592,0.053466797,0.9908447,0.14483643
1725721917160,2024-09-07T15:11:57.160Z,52640,0.026855469,1.0054321,0.14453125
1725721917205,2024-09-07T15:11:57.205Z,52685,0.045715332,1.003418,0.091674805
1725721917250,2024-09-07T15:11:57.250Z,52730,0.05230713,0.9805298,0.080200195
1725721917293,2024-09-07T15:11:57.293Z,52773,0.088256836,0.97332764,0.08972168
1725721917340,2024-09-07T15:11:57.340Z,52820,0.11468506,0.9804077,0.097595215
1725721917385,2024-09-07T15:11:57.385Z,52865,0.10253906,0.99176025,0.097595215
1725721917442,2024-09-07T15:11:57.442Z,52922,0.12591553,0.96588135,0.08343506
1725721917461,2024-09-07T15:11:57.461Z,52941,0.09484863,0.9750366,0.119262695
1725721917474,2024-09-07T15:11:57.474Z,52954,0.08465576,0.9785156,0.15905762
1725721917519,2024-09-07T15:11:57.519Z,52999,0.084350586,0.97558594,0.17468262
1725721917564,2024-09-07T15:11:57.564Z,53044,0.06817627,0.9645996,0.18121338
1725721917607,2024-09-07T15:11:57.607Z,53087,0.07702637,0.9585571,0.16711426
1725721917655,2024-09-07T15:11:57.655Z,53135,0.10961914,0.9602051,0.14483643
1725721917699,2024-09-07T15:11:57.699Z,53179,0.12701416,0.94989014,0.15222168
1725721917746,2024-09-07T15:11:57.746Z,53226,0.15093994,0.93859863,0.13348389
1725721917792,2024-09-07T15:11:57.792Z,53272,0.14361572,0.944458,0.16772461
1725721917813,2024-09-07T15:11:57.813Z,53293,0.11608887,0.95458984,0.20684814
1725721917835,2024-09-07T15:11:57.835Z,53315,0.117370605,0.98321533,0.19171143
1725721917880,2024-09-07T15:11:57.880Z,53360,0.10247803,0.96728516,0.22808838
1725721917924,2024-09-07T15:11:57.924Z,53404,0.11206055,0.9741211,0.14746094
1725721917970,2024-09-07T15:11:57.970Z,53450,0.091796875,0.95654297,0.1586914
1725721918015,2024-09-07T15:11:58.015Z,53495,0.11804199,0.96850586,0.18200684
1725721918060,2024-09-07T15:11:58.060Z,53540,0.124694824,0.9857178,0.19909668
1725721918106,2024-09-07T15:11:58.106Z,53586,0.107788086,0.9973755,0.19677734
1725721918150,2024-09-07T15:11:58.150Z,53630,0.09448242,1.0072632,0.17602539
1725721918196,2024-09-07T15:11:58.196Z,53676,0.083496094,0.9998779,0.20318604
1725721918240,2024-09-07T15:11:58.240Z,53720,0.06604004,0.98706055,0.1795044
1725721918260,2024-09-07T15:11:58.260Z,53740,0.04699707,1.000061,0.17687988
1725721918284,2024-09-07T15:11:58.284Z,53764,0.047424316,0.9894409,0.18896484
1725721918327,2024-09-07T15:11:58.327Z,53807,0.06744385,0.9760742,0.18463135
1725721918374,2024-09-07T15:11:58.374Z,53854,0.07220459,0.9641113,0.1784668
1725721918420,2024-09-07T15:11:58.420Z,53900,0.05810547,0.96173096,0.16223145
1725721918465,2024-09-07T15:11:58.465Z,53945,0.06347656,0.9602051,0.15240479
1725721918511,2024-09-07T15:11:58.511Z,53991,0.06842041,0.9526367,0.1630249
1725721918553,2024-09-07T15:11:58.553Z,54033,0.07922363,0.9532471,0.14459229
1725721918604,2024-09-07T15:11:58.604Z,54084,0.071899414,0.9818115,0.15447998
1725721918643,2024-09-07T15:11:58.643Z,54123,0.064208984,1.0057983,0.12976074
1725721918664,2024-09-07T15:11:58.664Z,54144,0.054748535,1.0108032,0.11541748
1725721918686,2024-09-07T15:11:58.686Z,54166,0.06060791,1.0046387,0.12664795
1725721918733,2024-09-07T15:11:58.733Z,54213,0.06854248,0.99176025,0.11279297
1725721918783,2024-09-07T15:11:58.783Z,54263,0.107055664,0.9771118,0.09527588
1725721918822,2024-09-07T15:11:58.822Z,54302,0.044921875,0.9701538,0.07446289
1725721918873,2024-09-07T15:11:58.873Z,54353,0.05847168,0.98828125,0.05505371
1725721918912,2024-09-07T15:11:58.912Z,54392,0.060791016,0.97839355,0.0680542
1725721918957,2024-09-07T15:11:58.957Z,54437,0.06451416,1.0042725,0.068725586
1725721919006,2024-09-07T15:11:59.006Z,54486,0.068359375,1.0443726,0.07543945
1725721919047,2024-09-07T15:11:59.047Z,54527,0.062805176,1.0393677,0.09399414
1725721919066,2024-09-07T15:11:59.066Z,54546,0.06585693,0.9951782,0.053710938
1725721919091,2024-09-07T15:11:59.091Z,54571,0.06237793,0.96569824,0.05328369
1725721919137,2024-09-07T15:11:59.137Z,54617,0.028198242,0.97088623,0.041809082
1725721919183,2024-09-07T15:11:59.183Z,54663,0.0146484375,0.9818115,0.031799316
1725721919227,2024-09-07T15:11:59.227Z,54707,0.03668213,0.97528076,0.021728516
1725721919274,2024-09-07T15:11:59.274Z,54754,0.014526367,0.97979736,0.028259277
1725721919323,2024-09-07T15:11:59.323Z,54803,0.007873535,1.015625,0.04888916
1725721919365,2024-09-07T15:11:59.365Z,54845,0.06542969,1.0414429,-0.022827148
1725721919410,2024-09-07T15:11:59.410Z,54890,0.027893066,1.0093994,-0.009521484
1725721919454,2024-09-07T15:11:59.454Z,54934,0.016235352,0.99884033,-0.0025024414
1725721919502,2024-09-07T15:11:59.502Z,54982,0.03967285,1.0094604,-0.010375977
1725721919520,2024-09-07T15:11:59.520Z,55000,0.054016113,1.0220337,-0.02758789
1725721919539,2024-09-07T15:11:59.539Z,55019,0.005004883,0.99780273,-0.032165527
1725721919592,2024-09-07T15:11:59.592Z,55072,0.062683105,1.0211182,-0.06317139
1725721919637,2024-09-07T15:11:59.637Z,55117,0.024230957,0.99780273,-0.015991211
1725721919680,2024-09-07T15:11:59.680Z,55160,0.06365967,1.0256958,-0.061828613
1725721919726,2024-09-07T15:11:59.726Z,55206,0.012207031,0.9797363,-0.0014648438
1725721919770,2024-09-07T15:11:59.770Z,55250,0.06890869,0.9833374,-0.06109619
1725721919816,2024-09-07T15:11:59.816Z,55296,0.053955078,0.99243164,-0.047668457
1725721919858,2024-09-07T15:11:59.858Z,55338,0.072509766,1.0022583,-0.03643799
1725721919904,2024-09-07T15:11:59.904Z,55384,7.9345703E-4,1.0037231,-0.049926758
1725721919924,2024-09-07T15:11:59.924Z,55404,-0.01171875,1.0170288,-0.10498047
1725721919949,2024-09-07T15:11:59.949Z,55429,0.016113281,1.0753174,-0.053466797
1725721919994,2024-09-07T15:11:59.994Z,55474,0.07434082,1.0968018,-0.031066895
1725721920038,2024-09-07T15:12:00.038Z,55518,0.057617188,0.9219971,-0.06652832
1725721920082,2024-09-07T15:12:00.082Z,55562,0.033996582,1.0200806,-0.1026001
1725721920131,2024-09-07T15:12:00.131Z,55611,-0.010009766,1.0484009,-0.0670166
1725721920173,2024-09-07T15:12:00.173Z,55653,0.008972168,0.9941406,-0.109436035
1725721920221,2024-09-07T15:12:00.221Z,55701,0.027282715,0.98236084,-0.08441162
1725721920264,2024-09-07T15:12:00.264Z,55744,0.011962891,1.0181274,-0.0947876
1725721920308,2024-09-07T15:12:00.308Z,55788,-0.0034179688,1.0401611,-0.09185791
1725721920325,2024-09-07T15:12:00.325Z,55805,-0.010498047,1.0429077,-0.10491943
1725721920347,2024-09-07T15:12:00.347Z,55827,0.0051879883,1.0111084,-0.057861328
1725721920399,2024-09-07T15:12:00.399Z,55879,0.04107666,1.015625,-0.1194458
1725721920442,2024-09-07T15:12:00.442Z,55922,-0.02734375,0.98358154,-0.09893799
1725721920486,2024-09-07T15:12:00.486Z,55966,0.013000488,1.012146,-0.11639404
1725721920533,2024-09-07T15:12:00.533Z,56013,0.003967285,0.9951782,-0.0982666
1725721920579,2024-09-07T15:12:00.579Z,56059,0.006652832,1.0234985,-0.11846924
1725721920627,2024-09-07T15:12:00.627Z,56107,-9.765625E-4,1.0112305,-0.116882324
1725721920672,2024-09-07T15:12:00.672Z,56152,0.010498047,1.0095825,-0.10369873
1725721920716,2024-09-07T15:12:00.716Z,56196,-0.0065307617,1.0271606,-0.08081055
1725721920760,2024-09-07T15:12:00.760Z,56240,0.032104492,1.0292358,-0.06945801
1725721920781,2024-09-07T15:12:00.781Z,56261,0.014404297,1.0385132,-0.11010742
1725721920803,2024-09-07T15:12:00.803Z,56283,0.004760742,1.036377,-0.11480713
1725721920848,2024-09-07T15:12:00.848Z,56328,0.008422852,1.0666504,-0.13555908
1725721920893,2024-09-07T15:12:00.893Z,56373,0.0014648438,1.0648193,-0.11303711
1725721920942,2024-09-07T15:12:00.942Z,56422,0.027648926,1.039978,-0.14697266
1725721920983,2024-09-07T15:12:00.983Z,56463,0.022277832,1.0606079,-0.12231445
1725721921027,2024-09-07T15:12:01.027Z,56507,-0.013244629,1.062439,-0.07495117
1725721921074,2024-09-07T15:12:01.074Z,56554,0.024047852,1.0858765,-0.078552246
1725721921122,2024-09-07T15:12:01.122Z,56602,0.01965332,1.0742798,-0.11993408
1725721921167,2024-09-07T15:12:01.167Z,56647,0.0043945312,1.0891724,-0.10699463
1725721921189,2024-09-07T15:12:01.189Z,56669,0.023620605,1.0822144,-0.105529785
1725721921209,2024-09-07T15:12:01.209Z,56689,-0.0126953125,1.0527344,-0.07928467
1725721921253,2024-09-07T15:12:01.253Z,56733,0.011779785,1.0576782,-0.07513428
1725721921299,2024-09-07T15:12:01.299Z,56779,-0.0053100586,1.0480957,-0.060180664
1725721921345,2024-09-07T15:12:01.345Z,56825,0.007873535,1.0652466,-0.07086182
1725721921390,2024-09-07T15:12:01.390Z,56870,-0.0032958984,1.0324097,-0.08306885
1725721921433,2024-09-07T15:12:01.433Z,56913,0.024169922,1.0512085,-0.10986328
1725721921478,2024-09-07T15:12:01.478Z,56958,0.013183594,1.0106812,-0.08874512
1725721921524,2024-09-07T15:12:01.524Z,57004,0.04272461,0.9970703,-0.061340332
1725721921570,2024-09-07T15:12:01.570Z,57050,0.012756348,1.0013428,-0.07092285
1725721921588,2024-09-07T15:12:01.588Z,57068,0.021484375,1.0004883,-0.06768799
1725721921612,2024-09-07T15:12:01.612Z,57092,0.040100098,1.0202637,-0.07208252
1725721921656,2024-09-07T15:12:01.656Z,57136,0.03466797,1.0080566,-0.06921387
1725721921703,2024-09-07T15:12:01.703Z,57183,0.031066895,0.9986572,-0.057373047
1725721921749,2024-09-07T15:12:01.749Z,57229,0.027648926,0.9995117,-0.032287598
1725721921796,2024-09-07T15:12:01.796Z,57276,0.0637207,1.013794,-0.059509277
1725721921842,2024-09-07T15:12:01.842Z,57322,0.0038452148,1.0141602,-0.041992188
1725721921885,2024-09-07T15:12:01.885Z,57365,0.03479004,0.98498535,8.544922E-4
1725721921931,2024-09-07T15:12:01.931Z,57411,0.030456543,1.001709,0.007751465
1725721921976,2024-09-07T15:12:01.976Z,57456,0.032409668,0.9897461,0.01574707
1725721922020,2024-09-07T15:12:02.020Z,57500,0.048095703,0.98010254,-0.013549805
1725721922038,2024-09-07T15:12:02.038Z,57518,0.037231445,0.98724365,-0.01940918
1725721922063,2024-09-07T15:12:02.063Z,57543,0.06488037,0.99645996,-0.0032348633
1725721922108,2024-09-07T15:12:02.108Z,57588,0.068237305,0.9932251,0.024353027
1725721922159,2024-09-07T15:12:02.159Z,57639,0.07281494,0.9885254,0.020446777
1725721922197,2024-09-07T15:12:02.197Z,57677,0.085754395,0.99450684,0.039978027
1725721922247,2024-09-07T15:12:02.247Z,57727,0.06939697,0.9882202,0.044555664
1725721922289,2024-09-07T15:12:02.289Z,57769,0.06744385,0.98913574,0.042663574
1725721922334,2024-09-07T15:12:02.334Z,57814,0.057495117,1.0055542,0.007385254
1725721922382,2024-09-07T15:12:02.382Z,57862,0.017700195,1.0178833,0.024291992
1725721922424,2024-09-07T15:12:02.424Z,57904,0.057495117,1.03656,0.034423828
1725721922443,2024-09-07T15:12:02.443Z,57923,0.05706787,1.0253906,0.06713867
1725721922467,2024-09-07T15:12:02.467Z,57947,0.058776855,0.9873657,0.050964355
1725721922511,2024-09-07T15:12:02.511Z,57991,0.09765625,0.92407227,0.049926758
1725721922561,2024-09-07T15:12:02.561Z,58041,0.07873535,0.92718506,0.09436035
1725721922650,2024-09-07T15:12:02.650Z,58130,0.06500244,0.9595337,0.09246826
1725721922671,2024-09-07T15:12:02.671Z,58151,0.07727051,0.9584961,0.14013672
1725721922693,2024-09-07T15:12:02.693Z,58173,0.05419922,1.000061,0.17376709
1725721922738,2024-09-07T15:12:02.738Z,58218,0.08013916,1.0310669,0.17224121
1725721922783,2024-09-07T15:12:02.783Z,58263,0.07128906,1.0010986,0.11828613
1725721922830,2024-09-07T15:12:02.830Z,58310,0.097595215,0.94903564,0.096069336
1725721922848,2024-09-07T15:12:02.848Z,58328,0.1404419,0.9248657,0.12823486
1725721922872,2024-09-07T15:12:02.872Z,58352,0.16290283,0.9343872,0.15057373
1725721922918,2024-09-07T15:12:02.918Z,58398,0.1619873,0.9258423,0.18499756
1725721922964,2024-09-07T15:12:02.964Z,58444,0.16241455,0.9633179,0.2041626
1725721923012,2024-09-07T15:12:03.012Z,58492,0.095336914,0.9817505,0.2397461
1725721923057,2024-09-07T15:12:03.057Z,58537,0.10760498,0.98498535,0.20953369
1725721923101,2024-09-07T15:12:03.101Z,58581,0.15716553,0.9602051,0.16729736
1725721923145,2024-09-07T15:12:03.145Z,58625,0.13934326,0.96551514,0.17694092
1725721923188,2024-09-07T15:12:03.188Z,58668,0.116760254,0.9772949,0.16265869
1725721923233,2024-09-07T15:12:03.233Z,58713,0.12249756,0.98602295,0.20178223
1725721923279,2024-09-07T15:12:03.279Z,58759,0.110839844,1.0072021,0.21594238
1725721923299,2024-09-07T15:12:03.299Z,58779,0.074523926,0.9841919,0.20391846
1725721923322,2024-09-07T15:12:03.322Z,58802,0.09197998,0.9614868,0.1784668
1725721923367,2024-09-07T15:12:03.367Z,58847,0.12512207,0.97039795,0.19158936
1725721923414,2024-09-07T15:12:03.414Z,58894,0.082092285,0.98010254,0.17578125
1725721923458,2024-09-07T15:12:03.458Z,58938,0.09887695,0.998291,0.1439209
1725721923505,2024-09-07T15:12:03.505Z,58985,0.08807373,0.99853516,0.17340088
1725721923546,2024-09-07T15:12:03.546Z,59026,0.10534668,0.9803467,0.15844727
1725721923589,2024-09-07T15:12:03.589Z,59069,0.11065674,0.97802734,0.16174316
1725721923634,2024-09-07T15:12:03.634Z,59114,0.13104248,0.97247314,0.16625977
1725721923677,2024-09-07T15:12:03.677Z,59157,0.11468506,0.9765625,0.14221191
1725721923683,2024-09-07T15:12:03.683Z,59163,0.11364746,0.9902954,0.1328125
1725722018989,2024-09-07T15:13:38.989Z,154469,0.09741211,0.92211914,0.2546997
1725722019010,2024-09-07T15:13:39.010Z,154490,0.07879639,0.9499512,0.24584961
1725722019033,2024-09-07T15:13:39.033Z,154513,0.1026001,0.9837036,0.2218628
1725722019078,2024-09-07T15:13:39.078Z,154558,0.117004395,1.0020142,0.2388916
1725722019125,2024-09-07T15:13:39.125Z,154605,0.14233398,1.005188,0.22583008
1725722019169,2024-09-07T15:13:39.169Z,154649,0.12872314,0.9934082,0.21130371
1725722019213,2024-09-07T15:13:39.213Z,154693,0.087768555,0.95825195,0.24279785
1725722019265,2024-09-07T15:13:39.265Z,154745,0.07354736,0.94415283,0.19165039
1725722019310,2024-09-07T15:13:39.310Z,154790,0.12017822,0.9217529,0.20397949
1725722019352,2024-09-07T15:13:39.352Z,154832,0.122802734,0.92181396,0.20227051
1725722019397,2024-09-07T15:13:39.397Z,154877,0.12359619,0.9319458,0.1663208
1725722019422,2024-09-07T15:13:39.422Z,154902,0.12860107,0.9522705,0.20367432
1725722019442,2024-09-07T15:13:39.442Z,154922,0.14465332,0.97454834,0.25079346
1725722019484,2024-09-07T15:13:39.484Z,154964,0.10015869,0.9515991,0.22460938
1725722019531,2024-09-07T15:13:39.531Z,155011,0.12054443,0.95562744,0.19976807
1725722019578,2024-09-07T15:13:39.578Z,155058,0.101379395,0.9439087,0.19415283
1725722019621,2024-09-07T15:13:39.621Z,155101,0.089904785,0.95007324,0.17492676
1725722019670,2024-09-07T15:13:39.670Z,155150,0.070495605,0.9989624,0.14117432
1725722019715,2024-09-07T15:13:39.715Z,155195,0.072265625,0.9891968,0.17224121
1725722019755,2024-09-07T15:13:39.755Z,155235,0.095336914,0.989624,0.15405273
1725722019804,2024-09-07T15:13:39.804Z,155284,0.07659912,0.9684448,0.1586914
1725722019831,2024-09-07T15:13:39.831Z,155311,0.080566406,0.97161865,0.14892578
1725722019852,2024-09-07T15:13:39.852Z,155332,0.07543945,0.97473145,0.18286133
1725722019887,2024-09-07T15:13:39.887Z,155367,0.06695557,0.99420166,0.19665527
1725722019950,2024-09-07T15:13:39.950Z,155430,0.030029297,1.0224609,0.20031738
1725722019981,2024-09-07T15:13:39.981Z,155461,0.0635376,1.020935,0.22009277
1725722020029,2024-09-07T15:13:40.029Z,155509,0.076293945,0.97106934,0.21118164
1725722020072,2024-09-07T15:13:40.072Z,155552,0.05822754,0.96313477,0.1831665
1725722020117,2024-09-07T15:13:40.117Z,155597,0.05718994,0.9873657,0.15124512
1725722020163,2024-09-07T15:13:40.163Z,155643,0.038879395,0.98791504,0.15216064
1725722020208,2024-09-07T15:13:40.208Z,155688,0.02557373,0.958313,0.14886475
1725722020251,2024-09-07T15:13:40.251Z,155731,0.03717041,0.95391846,0.13769531
1725722020282,2024-09-07T15:13:40.282Z,155762,0.05731201,0.9842529,0.14990234
1725722020300,2024-09-07T15:13:40.300Z,155780,0.03515625,1.0054932,0.1408081
1725722020340,2024-09-07T15:13:40.340Z,155820,0.02331543,1.0320435,0.12805176
1725722020385,2024-09-07T15:13:40.385Z,155865,0.097839355,1.0252686,0.09863281
1725722020480,2024-09-07T15:13:40.480Z,155960,0.09112549,1.0187988,0.086364746
1725722020520,2024-09-07T15:13:40.520Z,156000,0.045837402,0.9975586,0.097961426
1725722020539,2024-09-07T15:13:40.539Z,156019,0.072021484,1.0091553,0.087646484
1725722020566,2024-09-07T15:13:40.566Z,156046,0.051635742,1.0305176,0.09338379
1725722020609,2024-09-07T15:13:40.609Z,156089,0.056030273,1.067688,0.11218262
1725722020662,2024-09-07T15:13:40.662Z,156142,0.06573486,1.0449219,0.14404297
1725722020701,2024-09-07T15:13:40.701Z,156181,0.07720947,0.99438477,0.16864014
1725722020725,2024-09-07T15:13:40.725Z,156205,0.06085205,0.9111328,0.16918945
1725722020745,2024-09-07T15:13:40.745Z,156225,0.053710938,0.9616089,0.17480469
1725722020789,2024-09-07T15:13:40.789Z,156269,0.055908203,0.96832275,0.12451172
1725722020840,2024-09-07T15:13:40.840Z,156320,0.03253174,0.989563,0.09686279
1725722020884,2024-09-07T15:13:40.884Z,156364,0.044555664,1.0402222,0.055480957
1725722020933,2024-09-07T15:13:40.933Z,156413,0.040893555,1.0274658,0.053344727
1725722020972,2024-09-07T15:13:40.972Z,156452,0.05029297,1.0093384,0.049621582
1725722021016,2024-09-07T15:13:41.016Z,156496,0.0715332,1.020752,0.04724121
1725722021064,2024-09-07T15:13:41.064Z,156544,0.04534912,0.9729614,0.13061523
1725722021094,2024-09-07T15:13:41.094Z,156574,0.11663818,1.0378418,0.07952881
1725722021113,2024-09-07T15:13:41.113Z,156593,0.027648926,0.98339844,0.094055176
1725722021150,2024-09-07T15:13:41.150Z,156630,0.085754395,1.0698853,0.0793457
1725722021196,2024-09-07T15:13:41.196Z,156676,0.027160645,1.0229492,0.099121094
1725722021246,2024-09-07T15:13:41.246Z,156726,0.08557129,1.0596924,0.07171631
1725722021289,2024-09-07T15:13:41.289Z,156769,0.032348633,0.95996094,0.08850098
1725722021332,2024-09-07T15:13:41.332Z,156812,0.11254883,1.0170288,0.076049805
1725722021379,2024-09-07T15:13:41.379Z,156859,0.06121826,1.0142822,0.08502197
1725722021421,2024-09-07T15:13:41.421Z,156901,0.09716797,1.0546265,0.10736084
1725722021471,2024-09-07T15:13:41.471Z,156951,0.07092285,1.074585,0.09100342
1725722021510,2024-09-07T15:13:41.510Z,156990,0.085632324,1.081665,0.10296631
1725722021529,2024-09-07T15:13:41.529Z,157009,0.06695557,1.0731201,0.061645508
1725722021554,2024-09-07T15:13:41.554Z,157034,0.07647705,1.0671997,0.07885742
1725722021599,2024-09-07T15:13:41.599Z,157079,0.054504395,1.0766602,0.072509766
1725722021649,2024-09-07T15:13:41.649Z,157129,0.038879395,1.0634155,0.10223389
1725722021692,2024-09-07T15:13:41.692Z,157172,0.0715332,1.0543213,0.083740234
1725722021739,2024-09-07T15:13:41.739Z,157219,0.05126953,1.0177002,0.080200195
1725722021779,2024-09-07T15:13:41.779Z,157259,0.099487305,1.0178833,0.045043945
1725722021823,2024-09-07T15:13:41.823Z,157303,0.03161621,0.980896,0.07757568
1725722021874,2024-09-07T15:13:41.874Z,157354,0.070251465,1.0525513,0.013122559
1725722021918,2024-09-07T15:13:41.918Z,157398,0.031799316,1.0345459,0.053833008
1725722021947,2024-09-07T15:13:41.947Z,157427,0.09729004,1.0211182,0.020019531
1725722021979,2024-09-07T15:13:41.979Z,157459,0.06011963,0.996521,0.09490967
1725722022005,2024-09-07T15:13:42.005Z,157485,0.03125,1.0007324,0.032104492
1725722022052,2024-09-07T15:13:42.052Z,157532,0.03314209,0.98394775,0.06738281
1725722022097,2024-09-07T15:13:42.097Z,157577,0.06286621,0.9928589,0.1060791
1725722022143,2024-09-07T15:13:42.143Z,157623,0.055114746,1.0134888,0.082458496
1725722022188,2024-09-07T15:13:42.188Z,157668,0.030395508,1.0131226,0.061157227
1725722022233,2024-09-07T15:13:42.233Z,157713,0.057128906,1.0167236,0.06414795
1725722022278,2024-09-07T15:13:42.278Z,157758,0.016662598,1.0095825,0.07873535
1725722022323,2024-09-07T15:13:42.323Z,157803,0.04046631,1.0327759,0.024963379
1725722022354,2024-09-07T15:13:42.354Z,157834,0.065979004,1.0144043,0.04876709
1725722022376,2024-09-07T15:13:42.376Z,157856,0.059509277,0.98223877,0.064208984
1725722022408,2024-09-07T15:13:42.408Z,157888,0.083740234,1.0122681,0.022094727
1725722022454,2024-09-07T15:13:42.454Z,157934,0.04663086,0.9928589,0.062805176
1725722022501,2024-09-07T15:13:42.501Z,157981,0.045532227,0.9771118,0.03491211
1725722022547,2024-09-07T15:13:42.547Z,158027,0.045715332,0.9621582,0.041381836
1725722022591,2024-09-07T15:13:42.591Z,158071,0.025817871,0.953125,0.058898926
1725722022636,2024-09-07T15:13:42.636Z,158116,0.04852295,0.9751587,0.046813965
1725722022683,2024-09-07T15:13:42.683Z,158163,0.025390625,0.9873657,0.099853516
1725722022728,2024-09-07T15:13:42.728Z,158208,0.04547119,1.0137329,0.1508789
1725722022772,2024-09-07T15:13:42.772Z,158252,0.04827881,1.0161743,0.1798706
1725722022803,2024-09-07T15:13:42.803Z,158283,0.06591797,1.0164795,0.16546631
1725722022822,2024-09-07T15:13:42.822Z,158302,0.07409668,1.0283203,0.10266113
1725722022857,2024-09-07T15:13:42.857Z,158337,0.07104492,1.0267944,0.103881836
1725722022904,2024-09-07T15:13:42.904Z,158384,0.09082031,1.0106201,0.12164307
1725722022951,2024-09-07T15:13:42.951Z,158431,0.083984375,0.9946289,0.120788574
1725722022999,2024-09-07T15:13:42.999Z,158479,0.10498047,0.98095703,0.09674072
1725722023042,2024-09-07T15:13:43.042Z,158522,0.10595703,0.95758057,0.12695312
1725722023087,2024-09-07T15:13:43.087Z,158567,0.09173584,0.94940186,0.10058594
1725722023133,2024-09-07T15:13:43.133Z,158613,0.09490967,0.9267578,0.14923096
1725722023180,2024-09-07T15:13:43.180Z,158660,0.10992432,0.94036865,0.16461182
1725722023214,2024-09-07T15:13:43.214Z,158694,0.079711914,0.9752197,0.1706543
1725722023235,2024-09-07T15:13:43.235Z,158715,0.11468506,0.98461914,0.18817139
1725722023263,2024-09-07T15:13:43.263Z,158743,0.13623047,0.9725342,0.1574707
1725722023315,2024-09-07T15:13:43.315Z,158795,0.13690186,0.9361572,0.1651001
1725722023358,2024-09-07T15:13:43.358Z,158838,0.12506104,0.9349365,0.14575195
1725722023405,2024-09-07T15:13:43.405Z,158885,0.13043213,0.93536377,0.14611816
1725722023448,2024-09-07T15:13:43.448Z,158928,0.11816406,0.91656494,0.18304443
1725722023492,2024-09-07T15:13:43.492Z,158972,0.11804199,0.9187622,0.1854248
1725722023536,2024-09-07T15:13:43.536Z,159016,0.110839844,0.9644165,0.18225098
1725722023585,2024-09-07T15:13:43.585Z,159065,0.13067627,1.020874,0.19091797
1725722023617,2024-09-07T15:13:43.617Z,159097,0.14782715,1.0482178,0.1906128
1725722023637,2024-09-07T15:13:43.637Z,159117,0.13323975,0.99560547,0.1730957
1725722023669,2024-09-07T15:13:43.669Z,159149,0.15594482,0.9525757,0.1862793
1725722023715,2024-09-07T15:13:43.715Z,159195,0.16064453,0.9473877,0.19134521
1725722023764,2024-09-07T15:13:43.764Z,159244,0.15307617,0.96765137,0.18457031
1725722023806,2024-09-07T15:13:43.806Z,159286,0.12878418,0.9768677,0.17016602
1725722023851,2024-09-07T15:13:43.851Z,159331,0.14123535,0.99884033,0.19085693
1725722023898,2024-09-07T15:13:43.898Z,159378,0.159729,0.99871826,0.19329834
1725722023942,2024-09-07T15:13:43.942Z,159422,0.1395874,0.9925537,0.15948486
1725722023987,2024-09-07T15:13:43.987Z,159467,0.13848877,0.98516846,0.16729736
1725722024034,2024-09-07T15:13:44.034Z,159514,0.13391113,0.98223877,0.17150879
1725722024070,2024-09-07T15:13:44.070Z,159550,0.13555908,0.9641113,0.18829346
1725722024090,2024-09-07T15:13:44.090Z,159570,0.12506104,0.97106934,0.18469238
1725722024118,2024-09-07T15:13:44.118Z,159598,0.12872314,0.9812012,0.20031738
1725722024167,2024-09-07T15:13:44.167Z,159647,0.13256836,0.97753906,0.1954956
1725722024214,2024-09-07T15:13:44.214Z,159694,0.13134766,0.97650146,0.19335938
1725722024257,2024-09-07T15:13:44.257Z,159737,0.12615967,0.9700928,0.17895508
1725722024304,2024-09-07T15:13:44.304Z,159784,0.12249756,0.9614258,0.17767334
1725722024346,2024-09-07T15:13:44.346Z,159826,0.11798096,0.9637451,0.18322754
1725722024391,2024-09-07T15:13:44.391Z,159871,0.11224365,0.9657593,0.18267822
1725722024438,2024-09-07T15:13:44.438Z,159918,0.10473633,0.9706421,0.16003418
1725722024478,2024-09-07T15:13:44.478Z,159958,0.11114502,0.9747925,0.15722656
1725722024503,2024-09-07T15:13:44.503Z,159983,0.10650635,0.9732666,0.14508057
1725722024573,2024-09-07T15:13:44.573Z,160053,0.09643555,0.9692383,0.12890625
1725722024590,2024-09-07T15:13:44.590Z,160070,0.09454346,0.96173096,0.124938965
1725722024614,2024-09-07T15:13:44.614Z,160094,0.101379395,0.9613037,0.13183594
1725722024664,2024-09-07T15:13:44.664Z,160144,0.084106445,0.9753418,0.10223389
1725722024707,2024-09-07T15:13:44.707Z,160187,0.08026123,0.9746094,0.10437012
1725722024759,2024-09-07T15:13:44.759Z,160239,0.10266113,1.006958,0.112976074
1725722024798,2024-09-07T15:13:44.798Z,160278,0.0680542,0.9859009,0.099731445
1725722024841,2024-09-07T15:13:44.841Z,160321,0.085510254,0.9814453,0.10888672
1725722024870,2024-09-07T15:13:44.870Z,160350,0.06976318,0.99713135,0.09448242
1725722024889,2024-09-07T15:13:44.889Z,160369,0.0501709,1.0117798,0.07525635
1725722024927,2024-09-07T15:13:44.927Z,160407,0.055236816,1.0164185,0.08215332
1725722024977,2024-09-07T15:13:44.977Z,160457,0.061035156,1.0031738,0.08734131
1725722025022,2024-09-07T15:13:45.022Z,160502,0.04058838,0.98376465,0.07763672
1725722025067,2024-09-07T15:13:45.067Z,160547,0.051452637,0.9755249,0.08996582
1725722025108,2024-09-07T15:13:45.108Z,160588,0.051757812,0.9769287,0.06274414
1725722025155,2024-09-07T15:13:45.155Z,160635,0.013977051,0.96881104,0.025939941
1725722025202,2024-09-07T15:13:45.202Z,160682,0.03479004,1.0021973,0.054138184
1725722025249,2024-09-07T15:13:45.249Z,160729,0.041625977,0.99780273,0.047546387
1725722025292,2024-09-07T15:13:45.292Z,160772,0.051086426,0.9813843,0.04107666
1725722025314,2024-09-07T15:13:45.314Z,160794,0.023071289,0.98376465,0.016906738
1725722025335,2024-09-07T15:13:45.335Z,160815,0.03112793,1.0015259,0.041931152
1725722025379,2024-09-07T15:13:45.379Z,160859,0.024475098,1.0093994,0.038757324
1725722025426,2024-09-07T15:13:45.426Z,160906,0.018005371,1.0088501,0.014404297
1725722025472,2024-09-07T15:13:45.472Z,160952,0.026000977,1.0093994,0.0020751953
1725722025518,2024-09-07T15:13:45.518Z,160998,0.042175293,1.0317993,0.023376465
1725722025562,2024-09-07T15:13:45.562Z,161042,0.040527344,1.0459595,0.05810547
1725722025608,2024-09-07T15:13:45.608Z,161088,0.03173828,1.0164185,0.030456543
1725722025655,2024-09-07T15:13:45.655Z,161135,0.040893555,0.9902954,0.03967285
1725722025697,2024-09-07T15:13:45.697Z,161177,0.071899414,1.0211182,0.026245117
1725722025727,2024-09-07T15:13:45.727Z,161207,-0.0026855469,1.0106812,0.017150879
1725722025751,2024-09-07T15:13:45.751Z,161231,0.070129395,1.0236816,-0.013122559
1725722025783,2024-09-07T15:13:45.783Z,161263,0.018615723,0.9918823,0.02758789
1725722025828,2024-09-07T15:13:45.828Z,161308,0.09790039,1.0545044,0.029968262
1725722025876,2024-09-07T15:13:45.876Z,161356,0.064453125,1.0126953,0.0637207
1725722025923,2024-09-07T15:13:45.923Z,161403,0.07891846,0.97320557,0.06060791
1725722025967,2024-09-07T15:13:45.967Z,161447,0.03643799,0.97979736,-0.006958008
1725722026011,2024-09-07T15:13:46.011Z,161491,0.038757324,0.9673462,0.057678223
1725722026058,2024-09-07T15:13:46.058Z,161538,0.09222412,1.0372925,-0.0012817383
1725722026103,2024-09-07T15:13:46.103Z,161583,-0.0021362305,0.9746094,0.025268555
1725722026132,2024-09-07T15:13:46.132Z,161612,0.0579834,1.0036621,-0.030517578
1725722026152,2024-09-07T15:13:46.152Z,161632,0.023620605,0.9934082,0.02722168
1725722026187,2024-09-07T15:13:46.187Z,161667,0.07318115,1.034729,-0.0037841797
1725722026237,2024-09-07T15:13:46.237Z,161717,0.017700195,1.0056152,0.029541016
1725722026281,2024-09-07T15:13:46.281Z,161761,0.08294678,1.027771,-0.022033691
1725722026324,2024-09-07T15:13:46.324Z,161804,0.018981934,1.0249023,-0.013122559
1725722026371,2024-09-07T15:13:46.371Z,161851,0.087524414,1.0617065,-0.08068848
1725722026416,2024-09-07T15:13:46.416Z,161896,0.0021972656,1.0204468,0.053222656
1725722026462,2024-09-07T15:13:46.462Z,161942,0.09667969,1.0837402,0.1159668
1725722026507,2024-09-07T15:13:46.507Z,161987,0.11804199,1.0286865,0.022399902
1725722026551,2024-09-07T15:13:46.551Z,162031,0.06890869,1.0556641,0.0053100586
1725722026576,2024-09-07T15:13:46.576Z,162056,0.04449463,1.0966187,0.035827637
1725722026597,2024-09-07T15:13:46.597Z,162077,0.07080078,1.0870972,0.020385742
1725722026638,2024-09-07T15:13:46.638Z,162118,0.0368042,1.0638428,0.0579834
1725722026687,2024-09-07T15:13:46.687Z,162167,0.044067383,1.0698853,0.04321289
1725722026732,2024-09-07T15:13:46.732Z,162212,0.04937744,1.06427,0.047973633
1725722026778,2024-09-07T15:13:46.778Z,162258,0.04296875,1.0662842,0.048583984
1725722026825,2024-09-07T15:13:46.825Z,162305,0.049072266,1.0723877,0.05206299
1725722026867,2024-09-07T15:13:46.867Z,162347,0.023986816,1.0546265,0.08154297
1725722026912,2024-09-07T15:13:46.912Z,162392,0.06304932,1.0318604,0.042175293
1725722026957,2024-09-07T15:13:46.957Z,162437,0.039489746,1.0048218,0.05090332
1725722026984,2024-09-07T15:13:46.984Z,162464,0.03729248,1.0910645,-0.050842285
1725722027007,2024-09-07T15:13:47.007Z,162487,0.023376465,1.0238037,0.052001953
1725722027045,2024-09-07T15:13:47.045Z,162525,0.04852295,1.048523,0.021240234
1725722027095,2024-09-07T15:13:47.095Z,162575,0.010620117,1.0317383,-0.039001465
1725722027137,2024-09-07T15:13:47.137Z,162617,0.050842285,0.98968506,0.028137207
1725722027184,2024-09-07T15:13:47.184Z,162664,0.02545166,0.9692993,0.0914917
1725722027227,2024-09-07T15:13:47.227Z,162707,0.046325684,1.0113525,0.045166016
1725722027273,2024-09-07T15:13:47.273Z,162753,0.053771973,1.0050049,0.05303955
1725722027317,2024-09-07T15:13:47.317Z,162797,0.035888672,0.9911499,0.07928467
1725722027360,2024-09-07T15:13:47.360Z,162840,0.064697266,1.0238647,0.04522705
1725722027384,2024-09-07T15:13:47.384Z,162864,0.041931152,0.9971924,0.10638428
1725722027406,2024-09-07T15:13:47.406Z,162886,0.061584473,1.0152588,0.051757812
1725722027448,2024-09-07T15:13:47.448Z,162928,0.0014038086,1.00531,0.0925293
1725722027497,2024-09-07T15:13:47.497Z,162977,0.046020508,1.0235596,0.07330322
1725722027542,2024-09-07T15:13:47.542Z,163022,0.055847168,1.0114746,0.05102539
1725722027587,2024-09-07T15:13:47.587Z,163067,0.06896973,0.99035645,0.052246094
1725722027631,2024-09-07T15:13:47.631Z,163111,0.04626465,0.9909668,0.10687256
1725722027678,2024-09-07T15:13:47.678Z,163158,0.04827881,1.0119629,0.13378906
1725722027723,2024-09-07T15:13:47.723Z,163203,0.08093262,1.0264893,0.11016846
1725722027766,2024-09-07T15:13:47.766Z,163246,0.08654785,1.0125122,0.092163086
1725722027811,2024-09-07T15:13:47.811Z,163291,0.08276367,0.98895264,0.06317139
1725722027837,2024-09-07T15:13:47.837Z,163317,0.084472656,0.96362305,0.08532715
1725722027856,2024-09-07T15:13:47.856Z,163336,0.08782959,0.9677124,0.08087158
1725722027899,2024-09-07T15:13:47.899Z,163379,0.069885254,0.9685669,0.088012695
1725722027947,2024-09-07T15:13:47.947Z,163427,0.048095703,0.9696655,0.107666016
1725722027991,2024-09-07T15:13:47.991Z,163471,0.04937744,1.00177,0.12640381
1725722028040,2024-09-07T15:13:48.040Z,163520,0.08111572,1.0150757,0.1352539
1725722028081,2024-09-07T15:13:48.081Z,163561,0.060668945,0.99005127,0.125
1725722028126,2024-09-07T15:13:48.126Z,163606,0.07702637,0.9779663,0.16400146
1725722028172,2024-09-07T15:13:48.172Z,163652,0.125,0.97943115,0.18151855
1725722028215,2024-09-07T15:13:48.215Z,163695,0.092285156,0.96118164,0.16949463
1725722028238,2024-09-07T15:13:48.238Z,163718,0.11450195,0.95202637,0.17565918
1725722028258,2024-09-07T15:13:48.258Z,163738,0.12530518,0.9658203,0.18701172
1725722028313,2024-09-07T15:13:48.313Z,163793,0.115112305,0.9569092,0.19659424
1725722028352,2024-09-07T15:13:48.352Z,163832,0.12097168,0.9302368,0.20452881
1725722028397,2024-09-07T15:13:48.397Z,163877,0.09893799,0.9376831,0.20959473
1725722028444,2024-09-07T15:13:48.444Z,163924,0.10028076,0.97491455,0.21697998
1725722028487,2024-09-07T15:13:48.487Z,163967,0.10662842,0.972229,0.2489624
1725722028531,2024-09-07T15:13:48.531Z,164011,0.12573242,0.9753418,0.23236084
1725722028576,2024-09-07T15:13:48.576Z,164056,0.15594482,0.94036865,0.25177002
1725722028622,2024-09-07T15:13:48.622Z,164102,0.11456299,0.9104614,0.2602539
1725722028649,2024-09-07T15:13:48.649Z,164129,0.11975098,0.9095459,0.27069092
1725722028667,2024-09-07T15:13:48.667Z,164147,0.111450195,0.91467285,0.2711792
1725722028708,2024-09-07T15:13:48.708Z,164188,0.123168945,0.92767334,0.26391602
1725722028762,2024-09-07T15:13:48.762Z,164242,0.12512207,0.92456055,0.26745605
1725722028806,2024-09-07T15:13:48.806Z,164286,0.1352539,0.9295044,0.28875732
1725722028845,2024-09-07T15:13:48.845Z,164325,0.13867188,0.94641113,0.2892456
1725722028894,2024-09-07T15:13:48.894Z,164374,0.12884521,0.9671631,0.27319336
1725722028938,2024-09-07T15:13:48.938Z,164418,0.14544678,0.9755249,0.28814697
1725722028984,2024-09-07T15:13:48.984Z,164464,0.1651001,0.95910645,0.27661133
1725722029028,2024-09-07T15:13:49.028Z,164508,0.1538086,0.9472046,0.26348877
1725722029073,2024-09-07T15:13:49.073Z,164553,0.16906738,0.9536133,0.27514648
1725722029099,2024-09-07T15:13:49.099Z,164579,0.16778564,0.9557495,0.27648926
1725722029116,2024-09-07T15:13:49.116Z,164596,0.15496826,0.9525757,0.28363037
1725722029160,2024-09-07T15:13:49.160Z,164640,0.14538574,0.94421387,0.28308105
1725722029210,2024-09-07T15:13:49.210Z,164690,0.14221191,0.94262695,0.289917
1725722029252,2024-09-07T15:13:49.252Z,164732,0.13677979,0.9550171,0.2866211
1725722029301,2024-09-07T15:13:49.301Z,164781,0.13995361,0.95599365,0.28552246
1725722029341,2024-09-07T15:13:49.341Z,164821,0.13189697,0.9532471,0.2783203
1725722029386,2024-09-07T15:13:49.386Z,164866,0.13677979,0.94989014,0.28607178
1725722029435,2024-09-07T15:13:49.435Z,164915,0.1482544,0.94836426,0.30639648
1725722029480,2024-09-07T15:13:49.480Z,164960,0.14343262,0.94989014,0.30767822
1725722029511,2024-09-07T15:13:49.511Z,164991,0.13287354,0.94610596,0.29486084
1725722029529,2024-09-07T15:13:49.529Z,165009,0.1416626,0.9525757,0.28112793
1725722029563,2024-09-07T15:13:49.563Z,165043,0.13970947,0.94921875,0.2767334
1725722029616,2024-09-07T15:13:49.616Z,165096,0.12347412,0.93725586,0.2713623
1725722029656,2024-09-07T15:13:49.656Z,165136,0.11663818,0.91986084,0.23950195
1725722029701,2024-09-07T15:13:49.701Z,165181,0.12432861,0.93481445,0.2557373
1725722029746,2024-09-07T15:13:49.746Z,165226,0.13433838,0.9645386,0.25653076
1725722029795,2024-09-07T15:13:49.795Z,165275,0.13006592,0.97406006,0.2446289
1725722029837,2024-09-07T15:13:49.837Z,165317,0.1270752,0.97961426,0.24719238
1725722029880,2024-09-07T15:13:49.880Z,165360,0.119140625,0.98339844,0.2559204
1725722029906,2024-09-07T15:13:49.906Z,165386,0.09466553,0.9846802,0.22723389
1725722029926,2024-09-07T15:13:49.926Z,165406,0.0814209,0.98236084,0.23303223
1725722029972,2024-09-07T15:13:49.972Z,165452,0.074157715,0.9694214,0.21502686
1725722030015,2024-09-07T15:13:50.015Z,165495,0.072631836,0.95617676,0.22167969
1725722030065,2024-09-07T15:13:50.065Z,165545,0.07354736,0.9520874,0.22381592
1725722030108,2024-09-07T15:13:50.108Z,165588,0.06604004,0.9547119,0.22619629
1725722030151,2024-09-07T15:13:50.151Z,165631,0.06939697,0.96954346,0.20050049
1725722030198,2024-09-07T15:13:50.198Z,165678,0.07849121,0.96209717,0.18920898
1725722030240,2024-09-07T15:13:50.240Z,165720,0.05834961,0.9433594,0.17486572
1725722030287,2024-09-07T15:13:50.287Z,165767,0.07159424,0.9578247,0.14642334
1725722030343,2024-09-07T15:13:50.343Z,165823,0.062561035,0.97454834,0.14453125
1725722030366,2024-09-07T15:13:50.366Z,165846,0.061462402,0.9840088,0.13275146
1725722030381,2024-09-07T15:13:50.381Z,165861,0.054992676,0.99749756,0.15063477
1725722030419,2024-09-07T15:13:50.419Z,165899,0.049987793,0.9961548,0.14587402
1725722030465,2024-09-07T15:13:50.465Z,165945,0.03375244,0.9758301,0.1317749
1725722030513,2024-09-07T15:13:50.513Z,165993,0.039978027,0.97650146,0.12530518
1725722030558,2024-09-07T15:13:50.558Z,166038,0.056762695,0.97454834,0.13323975
1725722030603,2024-09-07T15:13:50.603Z,166083,0.0037841797,1.0044556,0.070739746
1725722030649,2024-09-07T15:13:50.649Z,166129,0.015930176,1.0015869,0.06347656
1725722030690,2024-09-07T15:13:50.690Z,166170,0.023925781,0.9879761,0.0869751
1725722030735,2024-09-07T15:13:50.735Z,166215,0.047424316,0.9985962,0.10321045
1725722030763,2024-09-07T15:13:50.763Z,166243,0.02722168,1.0005493,0.061645508
1725722030788,2024-09-07T15:13:50.788Z,166268,0.032836914,1.0098877,0.053344727
1725722030822,2024-09-07T15:13:50.822Z,166302,0.0390625,1.0236816,0.04473877
1725722030921,2024-09-07T15:13:50.921Z,166401,0.013427734,1.012146,0.016540527
1725722030952,2024-09-07T15:13:50.952Z,166432,0.024047852,0.99554443,0.011474609
1725722030975,2024-09-07T15:13:50.975Z,166455,0.027404785,0.9951782,0.043273926
1725722031002,2024-09-07T15:13:51.002Z,166482,0.04510498,1.0076904,0.04449463
1725722031051,2024-09-07T15:13:51.051Z,166531,0.02911377,1.0195923,0.053100586
1725722031099,2024-09-07T15:13:51.099Z,166579,-0.0051879883,0.99871826,0.043151855
1725722031147,2024-09-07T15:13:51.147Z,166627,0.01171875,1.0285034,0.02557373
1725722031181,2024-09-07T15:13:51.181Z,166661,0.006713867,1.0131836,0.02154541
1725722031200,2024-09-07T15:13:51.200Z,166680,0.06750488,1.0718994,-0.015625
1725722031227,2024-09-07T15:13:51.227Z,166707,-0.01940918,1.0296631,0.01550293
1725722031277,2024-09-07T15:13:51.277Z,166757,0.05987549,1.0206909,-0.024719238
1725722031322,2024-09-07T15:13:51.322Z,166802,0.022399902,1.0083008,-9.765625E-4
1725722031367,2024-09-07T15:13:51.367Z,166847,0.036865234,1.0480347,0.091552734
1725722031413,2024-09-07T15:13:51.413Z,166893,0.073913574,1.1203613,0.14208984
1725722031456,2024-09-07T15:13:51.456Z,166936,0.04840088,0.94537354,0.014099121
1725722031504,2024-09-07T15:13:51.504Z,166984,0.04522705,0.93359375,6.1035156E-4
1725722031547,2024-09-07T15:13:51.547Z,167027,0.01776123,0.9838867,0.06817627
1725722031578,2024-09-07T15:13:51.578Z,167058,0.066345215,0.98272705,0.02947998
1725722031600,2024-09-07T15:13:51.600Z,167080,0.039489746,0.9361572,0.025024414
1725722031633,2024-09-07T15:13:51.633Z,167113,0.04107666,1.0074463,-0.008850098
1725722031683,2024-09-07T15:13:51.683Z,167163,0.011291504,1.0303345,0.010620117
1725722031728,2024-09-07T15:13:51.728Z,167208,0.020202637,1.0959473,-0.06512451
1725722031772,2024-09-07T15:13:51.772Z,167252,0.06750488,1.0596313,0.032348633
1725722031816,2024-09-07T15:13:51.816Z,167296,0.0869751,1.0310669,0.048217773
1725722031863,2024-09-07T15:13:51.863Z,167343,0.021118164,1.0031738,0.030090332
1725722031906,2024-09-07T15:13:51.906Z,167386,0.05621338,1.0005493,-0.020629883
1725722031951,2024-09-07T15:13:51.951Z,167431,0.022705078,0.9866333,0.024719238
1725722031996,2024-09-07T15:13:51.996Z,167476,0.05090332,1.0401001,0.010192871
1725722032023,2024-09-07T15:13:52.023Z,167503,0.013366699,0.9962158,0.015991211
1725722032040,2024-09-07T15:13:52.040Z,167520,0.061706543,0.9962158,-0.044921875
1725722032085,2024-09-07T15:13:52.085Z,167565,0.008666992,1.0118408,0.024291992
1725722032134,2024-09-07T15:13:52.134Z,167614,0.08996582,1.072876,0.013427734
1725722032176,2024-09-07T15:13:52.176Z,167656,0.049560547,1.0446777,0.00970459
1725722032221,2024-09-07T15:13:52.221Z,167701,0.016906738,1.0391235,-0.044799805
1725722032268,2024-09-07T15:13:52.268Z,167748,0.043762207,1.0570068,0.025634766
1725722032311,2024-09-07T15:13:52.311Z,167791,0.06317139,1.0866089,0.03942871
1725722032357,2024-09-07T15:13:52.357Z,167837,0.004333496,1.0413818,0.028503418
1725722032407,2024-09-07T15:13:52.407Z,167887,0.0592041,1.0621948,-0.023010254
1725722032433,2024-09-07T15:13:52.433Z,167913,0.029296875,1.0484619,0.010986328
1725722032452,2024-09-07T15:13:52.452Z,167932,0.025878906,1.090271,-0.0020751953
1725722032488,2024-09-07T15:13:52.488Z,167968,0.0072021484,1.0733643,0.05291748
1725722032536,2024-09-07T15:13:52.536Z,168016,0.028015137,1.0752563,0.046325684
1725722032584,2024-09-07T15:13:52.584Z,168064,0.016174316,1.0783081,0.036499023
1725722032629,2024-09-07T15:13:52.629Z,168109,0.026550293,1.0609741,-0.026245117
1725722032671,2024-09-07T15:13:52.671Z,168151,0.039123535,1.0457153,-0.008911133
1725722032718,2024-09-07T15:13:52.718Z,168198,0.02532959,1.0648193,-0.056152344
1725722032760,2024-09-07T15:13:52.760Z,168240,0.004211426,0.9871826,0.080322266
1725722032806,2024-09-07T15:13:52.806Z,168286,0.06542969,1.0314331,0.06262207
1725722032830,2024-09-07T15:13:52.830Z,168310,0.016052246,1.06073,-0.040161133
1725722032848,2024-09-07T15:13:52.848Z,168328,0.016418457,0.96777344,0.0064697266
1725722032895,2024-09-07T15:13:52.895Z,168375,0.051574707,1.0040894,-0.031555176
1725722032943,2024-09-07T15:13:52.943Z,168423,0.01763916,0.9812012,0.031555176
1725722032988,2024-09-07T15:13:52.988Z,168468,0.054992676,1.0119019,-0.015808105
1725722033030,2024-09-07T15:13:53.030Z,168510,0.022033691,1.0093994,-0.005126953
1725722033077,2024-09-07T15:13:53.077Z,168557,0.059265137,1.0178833,-0.026733398
1725722033170,2024-09-07T15:13:53.170Z,168650,0.026245117,1.0213623,0.07702637
1725722033199,2024-09-07T15:13:53.199Z,168679,0.042297363,1.0316162,0.101501465
1725722033218,2024-09-07T15:13:53.218Z,168698,0.037475586,1.0238037,0.07562256
1725722033253,2024-09-07T15:13:53.253Z,168733,0.034606934,0.99884033,0.07183838
1725722033265,2024-09-07T15:13:53.265Z,168745,0.055236816,1.0093994,0.04168701
1725722033298,2024-09-07T15:13:53.298Z,168778,0.015625,0.97717285,0.068237305
1725722033349,2024-09-07T15:13:53.349Z,168829,0.08099365,1.0197144,0.030151367
1725722033393,2024-09-07T15:13:53.393Z,168873,0.020324707,0.9694824,0.09613037
1725722033437,2024-09-07T15:13:53.437Z,168917,0.06768799,1.0033569,0.06323242
1725722033482,2024-09-07T15:13:53.482Z,168962,0.05633545,1.0040283,0.11669922
1725722033526,2024-09-07T15:13:53.526Z,169006,0.043701172,1.0145874,0.09313965
1725722033572,2024-09-07T15:13:53.572Z,169052,0.04724121,1.0447998,0.091308594
1725722033617,2024-09-07T15:13:53.617Z,169097,0.034057617,1.0369873,0.097839355
1725722033661,2024-09-07T15:13:53.661Z,169141,0.03265381,1.0182495,0.057006836
1725722033685,2024-09-07T15:13:53.685Z,169165,0.04473877,0.9758301,0.12365723
1725722033706,2024-09-07T15:13:53.706Z,169186,0.06903076,0.9489136,0.11047363
1725722033750,2024-09-07T15:13:53.750Z,169230,0.050109863,0.9639282,0.09295654
1725722033796,2024-09-07T15:13:53.796Z,169276,0.05230713,0.97875977,0.11743164
1725722033843,2024-09-07T15:13:53.843Z,169323,0.081726074,0.9741821,0.13317871
1725722033886,2024-09-07T15:13:53.886Z,169366,0.07745361,0.944397,0.16320801
1725722033935,2024-09-07T15:13:53.935Z,169415,0.07067871,0.9359131,0.17803955
1725722033977,2024-09-07T15:13:53.977Z,169457,0.06793213,0.9560547,0.16949463
1725722034024,2024-09-07T15:13:54.024Z,169504,0.08050537,0.9744873,0.1694336
1725722034066,2024-09-07T15:13:54.066Z,169546,0.049621582,0.9755249,0.17791748
1725722034093,2024-09-07T15:13:54.093Z,169573,0.05267334,0.98968506,0.15350342
1725722034119,2024-09-07T15:13:54.119Z,169599,0.0690918,0.99853516,0.15789795
1725722034153,2024-09-07T15:13:54.153Z,169633,0.068725586,0.9859619,0.199646
1725722034203,2024-09-07T15:13:54.203Z,169683,0.09240723,0.96429443,0.20166016
1725722034246,2024-09-07T15:13:54.246Z,169726,0.06488037,0.94329834,0.22595215
1725722034293,2024-09-07T15:13:54.293Z,169773,0.070007324,0.9649658,0.21057129
1725722034346,2024-09-07T15:13:54.346Z,169826,0.10290527,0.953125,0.2253418
1725722034385,2024-09-07T15:13:54.385Z,169865,0.09820557,0.9164429,0.24395752
1725722034427,2024-09-07T15:13:54.427Z,169907,0.1104126,0.89837646,0.23052979
1725722034472,2024-09-07T15:13:54.472Z,169952,0.121154785,0.8869629,0.23504639
1725722034522,2024-09-07T15:13:54.522Z,170002,0.11328125,0.9158325,0.24316406
1725722034552,2024-09-07T15:13:54.552Z,170032,0.06890869,0.97314453,0.21636963
1725722034578,2024-09-07T15:13:54.578Z,170058,0.1161499,0.9958496,0.24609375
1725722034616,2024-09-07T15:13:54.616Z,170096,0.10797119,1.0010986,0.24542236
1725722034651,2024-09-07T15:13:54.651Z,170131,0.09716797,1.0020752,0.22827148
1725722034697,2024-09-07T15:13:54.697Z,170177,0.090270996,0.98217773,0.2230835
1725722034743,2024-09-07T15:13:54.743Z,170223,0.09075928,0.9682007,0.21502686
1725722034789,2024-09-07T15:13:54.789Z,170269,0.101623535,0.96813965,0.22039795
1725722034830,2024-09-07T15:13:54.830Z,170310,0.07543945,0.9694824,0.23297119
1725722034876,2024-09-07T15:13:54.876Z,170356,0.0947876,0.97924805,0.25476074
1725722034923,2024-09-07T15:13:54.923Z,170403,0.06707764,0.9790039,0.24304199
1725722034953,2024-09-07T15:13:54.953Z,170433,0.088256836,0.9760742,0.22619629
1725722034975,2024-09-07T15:13:54.975Z,170455,0.11279297,0.9692383,0.20898438
1725722035008,2024-09-07T15:13:55.008Z,170488,0.11834717,0.96710205,0.19189453
1725722035058,2024-09-07T15:13:55.058Z,170538,0.117492676,0.9828491,0.20465088
1725722035103,2024-09-07T15:13:55.103Z,170583,0.123291016,0.99157715,0.22558594
1725722035147,2024-09-07T15:13:55.147Z,170627,0.109680176,0.98431396,0.23980713
1725722035192,2024-09-07T15:13:55.192Z,170672,0.08288574,0.9800415,0.21960449
1725722035237,2024-09-07T15:13:55.237Z,170717,0.08154297,0.9602051,0.20385742
1725722035281,2024-09-07T15:13:55.281Z,170761,0.09442139,0.9609375,0.2064209
1725722035327,2024-09-07T15:13:55.327Z,170807,0.08258057,0.9609375,0.18103027
1725722035357,2024-09-07T15:13:55.357Z,170837,0.080078125,0.96569824,0.16107178
1725722035384,2024-09-07T15:13:55.384Z,170864,0.06652832,0.9788208,0.15734863
1725722035412,2024-09-07T15:13:55.412Z,170892,0.066467285,0.97369385,0.17034912
1725722035460,2024-09-07T15:13:55.460Z,170940,0.061767578,0.97265625,0.15667725
1725722035506,2024-09-07T15:13:55.506Z,170986,0.046203613,0.9784546,0.1515503
1725722035550,2024-09-07T15:13:55.550Z,171030,0.070129395,0.98443604,0.15014648
1725722035596,2024-09-07T15:13:55.596Z,171076,0.054870605,0.9807129,0.13983154
1725722035641,2024-09-07T15:13:55.641Z,171121,0.055603027,0.9692993,0.14434814
1725722035688,2024-09-07T15:13:55.688Z,171168,0.057434082,0.95635986,0.12097168
1725722035733,2024-09-07T15:13:55.733Z,171213,0.06262207,0.95288086,0.11437988
1725722035776,2024-09-07T15:13:55.776Z,171256,0.056030273,0.9614258,0.0871582
1725722035801,2024-09-07T15:13:55.801Z,171281,0.036193848,0.98065186,0.082336426
1725722035819,2024-09-07T15:13:55.819Z,171299,0.048950195,0.9979248,0.085876465
1725722035864,2024-09-07T15:13:55.864Z,171344,0.03100586,0.9921875,0.083496094
1725722035912,2024-09-07T15:13:55.912Z,171392,0.022216797,0.99957275,0.06958008
1725722035958,2024-09-07T15:13:55.958Z,171438,0.0635376,1.0187378,0.055419922
1725722036003,2024-09-07T15:13:56.003Z,171483,0.072753906,0.9924927,0.07965088
1725722036049,2024-09-07T15:13:56.049Z,171529,0.027404785,0.9882202,0.051330566
1725722036095,2024-09-07T15:13:56.095Z,171575,0.03479004,0.9741821,0.0061035156
1725722036136,2024-09-07T15:13:56.136Z,171616,0.041870117,0.98187256,0.026062012
1725722036183,2024-09-07T15:13:56.183Z,171663,0.03955078,0.9807739,0.009399414
1725722036210,2024-09-07T15:13:56.210Z,171690,0.044433594,0.9928589,-6.713867E-4
1725722036233,2024-09-07T15:13:56.233Z,171713,-0.0033569336,0.9920654,0.023254395
1725722036268,2024-09-07T15:13:56.268Z,171748,0.039794922,1.0091553,-0.04107666
1725722036319,2024-09-07T15:13:56.319Z,171799,0.0071411133,1.0065308,0.010253906
1725722036361,2024-09-07T15:13:56.361Z,171841,0.0345459,1.0062866,-0.025817871
1725722036408,2024-09-07T15:13:56.408Z,171888,0.038635254,1.0202637,0.0036010742
1725722036452,2024-09-07T15:13:56.452Z,171932,0.056518555,1.0393066,0.0072631836
1725722036496,2024-09-07T15:13:56.496Z,171976,0.044677734,1.0928345,0.016418457
1725722036541,2024-09-07T15:13:56.541Z,172021,0.05718994,1.0929565,-0.010437012
1725722036588,2024-09-07T15:13:56.588Z,172068,0.0725708,0.973938,-0.038024902
1725722036618,2024-09-07T15:13:56.618Z,172098,0.03729248,0.94866943,0.012634277
1725722036641,2024-09-07T15:13:56.641Z,172121,0.04309082,1.0395508,-0.07183838
1725722036672,2024-09-07T15:13:56.672Z,172152,0.0072631836,1.0181274,0.008605957
1725722036723,2024-09-07T15:13:56.723Z,172203,0.04522705,0.9840088,-0.08496094
1725722036765,2024-09-07T15:13:56.765Z,172245,0.029663086,0.9423828,-0.018249512
1725722036812,2024-09-07T15:13:56.812Z,172292,-0.0036010742,1.0343628,-0.078430176
1725722036857,2024-09-07T15:13:56.857Z,172337,0.0053710938,1.0681763,-0.046203613
1725722036900,2024-09-07T15:13:56.900Z,172380,0.040649414,1.0587158,-0.03656006
1725722036946,2024-09-07T15:13:56.946Z,172426,-0.016601562,0.99884033,-0.026306152
1725722036992,2024-09-07T15:13:56.992Z,172472,0.04272461,1.0257568,-0.06744385
1725722037038,2024-09-07T15:13:57.038Z,172518,0.011962891,0.99298096,-0.041625977
1725722037065,2024-09-07T15:13:57.065Z,172545,0.034118652,1.0339355,-0.07397461
1725722037088,2024-09-07T15:13:57.088Z,172568,-0.0041503906,1.0302124,-0.042114258
1725722037123,2024-09-07T15:13:57.123Z,172603,0.056152344,1.043396,-0.090148926
1725722037172,2024-09-07T15:13:57.172Z,172652,0.08343506,1.0355835,-0.018493652
1725722037218,2024-09-07T15:13:57.218Z,172698,0.042236328,1.0219727,-0.013977051
1725722037261,2024-09-07T15:13:57.261Z,172741,0.019165039,1.015686,-0.09283447
1725722037308,2024-09-07T15:13:57.308Z,172788,0.0119018555,1.0211792,-0.06274414
1725722037354,2024-09-07T15:13:57.354Z,172834,0.055725098,1.0664062,-0.025146484
1725722037396,2024-09-07T15:13:57.396Z,172876,-0.0056152344,1.0881958,0.008117676
1725722037444,2024-09-07T15:13:57.444Z,172924,0.028198242,1.1029663,-0.009033203
1725722037474,2024-09-07T15:13:57.474Z,172954,-0.0026245117,1.1069336,-0.04949951
1725722037491,2024-09-07T15:13:57.491Z,172971,0.0107421875,1.0969849,-0.051086426
1725722037527,2024-09-07T15:13:57.527Z,173007,0.0029296875,1.076294,-0.0068359375
1725722037579,2024-09-07T15:13:57.579Z,173059,0.030578613,1.0751953,-0.013671875
1725722037624,2024-09-07T15:13:57.624Z,173104,-0.0078125,1.0629883,0.012451172
1725722037668,2024-09-07T15:13:57.668Z,173148,0.04425049,1.0805054,-0.046813965
1725722037712,2024-09-07T15:13:57.712Z,173192,0.010803223,1.043335,-0.048828125
1725722037757,2024-09-07T15:13:57.757Z,173237,0.039855957,1.0258179,-0.034606934
1725722037801,2024-09-07T15:13:57.801Z,173281,0.015930176,1.0325317,-0.0390625
1725722037848,2024-09-07T15:13:57.848Z,173328,0.030090332,0.99523926,0.006958008
1725722037877,2024-09-07T15:13:57.877Z,173357,0.036621094,1.0314331,-0.051330566
1725722037903,2024-09-07T15:13:57.903Z,173383,-0.003112793,0.9897461,-0.022827148
1725722037932,2024-09-07T15:13:57.932Z,173412,0.04296875,1.0223999,-0.05596924
1725722037982,2024-09-07T15:13:57.982Z,173462,0.002746582,1.0129395,-0.044311523
1725722038023,2024-09-07T15:13:58.023Z,173503,0.028747559,1.0172119,-0.04840088
1725722038068,2024-09-07T15:13:58.068Z,173548,0.014099121,1.0127563,-0.03479004
1725722038115,2024-09-07T15:13:58.115Z,173595,0.02355957,1.019104,-0.023742676
1725722038158,2024-09-07T15:13:58.158Z,173638,0.026367188,1.0253296,-0.008483887
1725722038203,2024-09-07T15:13:58.203Z,173683,0.012268066,1.0061646,0.010009766
1725722038249,2024-09-07T15:13:58.249Z,173729,0.042419434,1.0095825,0.008422852
1725722038342,2024-09-07T15:13:58.342Z,173822,0.015930176,1.0031738,0.028808594
1725722038369,2024-09-07T15:13:58.369Z,173849,0.018249512,1.0097656,0.032409668
1725722038391,2024-09-07T15:13:58.391Z,173871,0.043945312,1.0291138,0.027282715
1725722038401,2024-09-07T15:13:58.401Z,173881,0.016174316,1.0263062,0.027282715
1725722038428,2024-09-07T15:13:58.428Z,173908,0.030944824,0.9921875,0.021911621
1725722038472,2024-09-07T15:13:58.472Z,173952,0.05670166,0.9837036,0.015197754
1725722038521,2024-09-07T15:13:58.521Z,174001,0.034484863,0.99835205,0.040527344
1725722038564,2024-09-07T15:13:58.564Z,174044,0.06072998,1.0278931,0.0014648438
1725722038611,2024-09-07T15:13:58.611Z,174091,0.08251953,1.0184326,0.0048828125
1725722038655,2024-09-07T15:13:58.655Z,174135,0.06958008,0.98394775,0.05633545
1725722038700,2024-09-07T15:13:58.700Z,174180,0.031921387,0.9863281,0.06628418
1725722038722,2024-09-07T15:13:58.722Z,174202,0.013000488,0.9968262,0.051635742
1725722038762,2024-09-07T15:13:58.762Z,174242,0.038330078,0.97662354,0.083496094
1725722038794,2024-09-07T15:13:58.794Z,174274,0.0256958,0.96655273,0.09100342
1725722038838,2024-09-07T15:13:58.838Z,174318,0.024353027,0.96325684,0.10491943
1725722038885,2024-09-07T15:13:58.885Z,174365,0.042541504,0.9818115,0.065979004
1725722038928,2024-09-07T15:13:58.928Z,174408,0.07116699,0.98083496,0.08282471
1725722038977,2024-09-07T15:13:58.977Z,174457,0.076416016,1.0144043,0.07092285
1725722039018,2024-09-07T15:13:59.018Z,174498,0.068603516,0.991272,0.085998535
1725722039064,2024-09-07T15:13:59.064Z,174544,0.10192871,0.9975586,0.050048828
1725722039107,2024-09-07T15:13:59.107Z,174587,0.0725708,0.96533203,0.12261963
1725722039133,2024-09-07T15:13:59.133Z,174613,0.09063721,0.9442749,0.14520264
1725722039153,2024-09-07T15:13:59.153Z,174633,0.07116699,0.9591675,0.17810059
1725722039193,2024-09-07T15:13:59.193Z,174673,0.07965088,0.98083496,0.2197876
1725722039240,2024-09-07T15:13:59.240Z,174720,0.06640625,0.9710083,0.22509766
1725722039290,2024-09-07T15:13:59.290Z,174770,0.09509277,1.0042725,0.19781494
1725722039332,2024-09-07T15:13:59.332Z,174812,0.06036377,1.0202026,0.1652832
1725722039379,2024-09-07T15:13:59.379Z,174859,0.11065674,1.0147095,0.14819336
1725722039423,2024-09-07T15:13:59.423Z,174903,0.13848877,0.95373535,0.14727783
1725722039467,2024-09-07T15:13:59.467Z,174947,0.1449585,0.9434204,0.15423584
1725722039511,2024-09-07T15:13:59.511Z,174991,0.117248535,0.9226074,0.17285156
1725722039556,2024-09-07T15:13:59.556Z,175036,0.11291504,0.9304199,0.19628906
1725722039581,2024-09-07T15:13:59.581Z,175061,0.1026001,0.9512329,0.18157959
1725722039612,2024-09-07T15:13:59.612Z,175092,0.12701416,0.946228,0.20385742
1725722039646,2024-09-07T15:13:59.646Z,175126,0.14202881,0.9447632,0.22625732
1725722039693,2024-09-07T15:13:59.693Z,175173,0.10986328,0.9723511,0.1930542
1725722039738,2024-09-07T15:13:59.738Z,175218,0.12591553,1.0023804,0.17468262
1725722039784,2024-09-07T15:13:59.784Z,175264,0.16210938,0.9874878,0.2154541
1725722039825,2024-09-07T15:13:59.825Z,175305,0.1593628,0.9622803,0.19476318
1725722039871,2024-09-07T15:13:59.871Z,175351,0.15948486,0.9528198,0.21099854
1725722039916,2024-09-07T15:13:59.916Z,175396,0.13964844,0.96209717,0.23895264
1725722039963,2024-09-07T15:13:59.963Z,175443,0.10229492,0.9769287,0.21051025
1725722039989,2024-09-07T15:13:59.989Z,175469,0.10839844,0.99365234,0.20214844
1725722040009,2024-09-07T15:14:00.009Z,175489,0.13232422,0.9968872,0.22491455
1725722040048,2024-09-07T15:14:00.048Z,175528,0.12652588,0.993042,0.19177246
1725722040096,2024-09-07T15:14:00.096Z,175576,0.1204834,0.98028564,0.18115234
1725722040143,2024-09-07T15:14:00.143Z,175623,0.12615967,0.9737549,0.20281982
1725722040187,2024-09-07T15:14:00.187Z,175667,0.13708496,0.9812012,0.20227051
1725722040232,2024-09-07T15:14:00.232Z,175712,0.1104126,0.97991943,0.19641113
1725722040278,2024-09-07T15:14:00.278Z,175758,0.11230469,0.9717407,0.1984253
1725722040324,2024-09-07T15:14:00.324Z,175804,0.109802246,0.95758057,0.19207764
1725722040370,2024-09-07T15:14:00.370Z,175850,0.12591553,0.9644165,0.20819092
1725722040399,2024-09-07T15:14:00.399Z,175879,0.1081543,0.9699707,0.18969727
1725722040424,2024-09-07T15:14:00.424Z,175904,0.107055664,0.967041,0.17736816
1725722040452,2024-09-07T15:14:00.452Z,175932,0.108947754,0.958313,0.19006348
1725722040502,2024-09-07T15:14:00.502Z,175982,0.093566895,0.9559326,0.18951416
1725722040548,2024-09-07T15:14:00.548Z,176028,0.093444824,0.9851074,0.18084717
1725722040639,2024-09-07T15:14:00.639Z,176119,0.0826416,0.9944458,0.16766357
1725722040667,2024-09-07T15:14:00.667Z,176147,0.08319092,0.97021484,0.15637207
1725722040687,2024-09-07T15:14:00.687Z,176167,0.06866455,0.95965576,0.13720703
1725722040722,2024-09-07T15:14:00.722Z,176202,0.079833984,0.96173096,0.12677002
1725722040772,2024-09-07T15:14:00.772Z,176252,0.0947876,0.96520996,0.16143799
1725722040819,2024-09-07T15:14:00.819Z,176299,0.07672119,0.9998779,0.15924072
1725722040846,2024-09-07T15:14:00.846Z,176326,0.064208984,1.0204468,0.11419678
1725722040866,2024-09-07T15:14:00.866Z,176346,0.06573486,1.0046387,0.09790039
1725722040903,2024-09-07T15:14:00.903Z,176383,0.06768799,0.97906494,0.10107422
1725722040953,2024-09-07T15:14:00.953Z,176433,0.05596924,0.96777344,0.09063721
1725722040998,2024-09-07T15:14:00.998Z,176478,0.04437256,0.9841919,0.06896973
1725722041043,2024-09-07T15:14:01.043Z,176523,0.05407715,0.9918213,0.084106445
1725722041087,2024-09-07T15:14:01.087Z,176567,0.05328369,1.0166016,0.07849121
1725722041134,2024-09-07T15:14:01.134Z,176614,0.029785156,1.0136719,0.06591797
1725722041177,2024-09-07T15:14:01.177Z,176657,0.0637207,1.0152588,0.05529785
1725722041221,2024-09-07T15:14:01.221Z,176701,0.05718994,1.0084229,0.07836914
1725722041245,2024-09-07T15:14:01.245Z,176725,0.049316406,0.99786377,0.048706055
1725722041269,2024-09-07T15:14:01.269Z,176749,0.032409668,0.98999023,0.039367676
1725722041308,2024-09-07T15:14:01.308Z,176788,0.008300781,0.98394775,0.016174316
1725722041358,2024-09-07T15:14:01.358Z,176838,0.077819824,0.9984741,0.019592285
1725722041404,2024-09-07T15:14:01.404Z,176884,0.039733887,0.96990967,7.9345703E-4
1725722041446,2024-09-07T15:14:01.446Z,176926,-0.0056762695,0.96655273,-7.324219E-4
1725722041490,2024-09-07T15:14:01.490Z,176970,0.051635742,0.97161865,0.0049438477
1725722041535,2024-09-07T15:14:01.535Z,177015,0.010131836,0.9994507,-0.01776123
1725722041584,2024-09-07T15:14:01.584Z,177064,0.013183594,1.0167847,-0.018188477
1725722041626,2024-09-07T15:14:01.626Z,177106,0.053771973,1.0314941,-0.01361084
1725722041656,2024-09-07T15:14:01.656Z,177136,0.027526855,1.0162354,0.0067749023
1725722041674,2024-09-07T15:14:01.674Z,177154,0.09246826,1.0594482,-0.05645752
1725722041713,2024-09-07T15:14:01.713Z,177193,0.015808105,1.0100098,-0.0032348633
1725722041760,2024-09-07T15:14:01.760Z,177240,0.08532715,1.0219116,-0.055419922
1725722041807,2024-09-07T15:14:01.807Z,177287,0.033935547,0.9527588,-0.0033569336
1725722041851,2024-09-07T15:14:01.851Z,177331,0.08496094,0.98724365,-0.05895996
1725722041897,2024-09-07T15:14:01.897Z,177377,0.020263672,1.0169678,-0.0357666
1725722041940,2024-09-07T15:14:01.940Z,177420,0.047607422,1.0524292,-0.058776855
1725722041985,2024-09-07T15:14:01.985Z,177465,0.0491333,1.0389404,-0.04321289
1725722042031,2024-09-07T15:14:02.031Z,177511,0.06726074,1.0150757,-0.048034668
1725722042077,2024-09-07T15:14:02.077Z,177557,0.009216309,0.9996338,-0.10101318
1725722042104,2024-09-07T15:14:02.104Z,177584,0.048339844,1.0164185,-0.10650635
1725722042127,2024-09-07T15:14:02.127Z,177607,-0.017333984,1.0093384,-0.10461426
1725722042163,2024-09-07T15:14:02.163Z,177643,0.011047363,1.0031128,-0.10272217
1725722042211,2024-09-07T15:14:02.211Z,177691,0.022644043,1.0012817,-0.06121826
1725722042257,2024-09-07T15:14:02.257Z,177737,0.040100098,1.019165,-0.028747559
1725722042301,2024-09-07T15:14:02.301Z,177781,0.024719238,0.97406006,-0.044555664
1725722042346,2024-09-07T15:14:02.346Z,177826,0.041137695,1.0021973,-0.10089111
1725722042391,2024-09-07T15:14:02.391Z,177871,0.003112793,1.0185547,-0.11035156
1725722042438,2024-09-07T15:14:02.438Z,177918,0.032165527,1.0327148,-0.09240723
1725722042482,2024-09-07T15:14:02.482Z,177962,0.07421875,1.0338745,-0.07611084
1725722042506,2024-09-07T15:14:02.506Z,177986,0.07281494,1.0384521,-0.04156494
1725722042524,2024-09-07T15:14:02.524Z,178004,0.060058594,1.0101929,-0.082092285
1725722042570,2024-09-07T15:14:02.570Z,178050,0.04675293,1.0062866,-0.07989502
1725722042617,2024-09-07T15:14:02.617Z,178097,0.035583496,1.0512085,-0.12426758
1725722042659,2024-09-07T15:14:02.659Z,178139,0.028869629,1.0371094,-0.09753418
1725722042704,2024-09-07T15:14:02.704Z,178184,0.03930664,1.0565796,-0.1373291
1725722042755,2024-09-07T15:14:02.755Z,178235,-0.012878418,1.024292,-0.04168701
1725722042796,2024-09-07T15:14:02.796Z,178276,0.050598145,1.1017456,-0.07525635
1725722042843,2024-09-07T15:14:02.843Z,178323,0.018737793,1.1026001,-0.110961914
1725722042889,2024-09-07T15:14:02.889Z,178369,0.020263672,1.0789795,-0.10650635
1725722042917,2024-09-07T15:14:02.917Z,178397,0.024169922,1.0907593,-0.055847168
1725722042936,2024-09-07T15:14:02.936Z,178416,-0.0053100586,1.097168,-0.06719971
1725722042973,2024-09-07T15:14:02.973Z,178453,-0.05126953,1.0999146,-0.034973145
1725722043023,2024-09-07T15:14:03.023Z,178503,0.061584473,1.1027832,-0.04260254
1725722043068,2024-09-07T15:14:03.068Z,178548,0.023620605,1.0576172,-0.08129883
1725722043111,2024-09-07T15:14:03.111Z,178591,0.021728516,1.0428467,-0.07122803
1725722043157,2024-09-07T15:14:03.157Z,178637,0.034729004,1.0914307,-0.072265625
1725722043201,2024-09-07T15:14:03.201Z,178681,0.01776123,1.0682983,-0.14923096
1725722043246,2024-09-07T15:14:03.246Z,178726,0.013183594,1.0131226,-0.13397217
1725722043291,2024-09-07T15:14:03.291Z,178771,0.009887695,0.9941406,-0.036132812
1725722043337,2024-09-07T15:14:03.337Z,178817,0.043945312,1.029541,-0.09710693
1725722043363,2024-09-07T15:14:03.363Z,178843,0.007751465,0.9971924,-0.101623535
1725722043383,2024-09-07T15:14:03.383Z,178863,0.0134887695,1.0064087,-0.13378906
1725722043427,2024-09-07T15:14:03.427Z,178907,0.024414062,0.9805298,-0.07489014
1725722043473,2024-09-07T15:14:03.473Z,178953,0.031677246,0.9829712,-0.08654785
1725722043516,2024-09-07T15:14:03.516Z,178996,0.043640137,0.9885254,-0.083618164
1725722043560,2024-09-07T15:14:03.560Z,179040,0.032714844,1.0014038,-0.07763672
1725722043607,2024-09-07T15:14:03.607Z,179087,0.07495117,1.0119629,-0.053771973
1725722043651,2024-09-07T15:14:03.651Z,179131,0.043518066,0.9984741,-0.056518555
1725722043696,2024-09-07T15:14:03.696Z,179176,0.042114258,1.0076294,-0.054260254
1725722043742,2024-09-07T15:14:03.742Z,179222,0.046203613,1.0081177,-0.02557373
1725722043770,2024-09-07T15:14:03.770Z,179250,0.042114258,1.0083008,-0.035827637
1725722043790,2024-09-07T15:14:03.790Z,179270,0.061767578,1.0079956,-0.05670166
1725722043832,2024-09-07T15:14:03.832Z,179312,0.025390625,0.9968872,0.024291992
1725722043878,2024-09-07T15:14:03.878Z,179358,0.061157227,1.0380249,0.011047363
1725722043922,2024-09-07T15:14:03.922Z,179402,0.08807373,1.0273438,0.0073242188
1725722043966,2024-09-07T15:14:03.966Z,179446,0.10015869,1.0313721,-0.022094727
1725722044012,2024-09-07T15:14:04.012Z,179492,0.07196045,0.98321533,0.052490234
1725722044058,2024-09-07T15:14:04.058Z,179538,0.13153076,0.9755249,0.02166748
1725722044102,2024-09-07T15:14:04.102Z,179582,0.08746338,0.96984863,0.029174805
1725722044146,2024-09-07T15:14:04.146Z,179626,0.008666992,0.9597168,0.05657959
1725722044173,2024-09-07T15:14:04.173Z,179653,0.079833984,1.0147095,0.004333496
1725722044196,2024-09-07T15:14:04.196Z,179676,0.072509766,0.9597168,0.08557129
1725722044235,2024-09-07T15:14:04.235Z,179715,0.066589355,0.9906616,-0.0020751953
1725722044280,2024-09-07T15:14:04.280Z,179760,0.04345703,0.9874878,0.07067871
1725722044326,2024-09-07T15:14:04.326Z,179806,0.10412598,0.9996948,0.065979004
1725722044371,2024-09-07T15:14:04.371Z,179851,0.121154785,0.9700928,0.08758545
1725722044415,2024-09-07T15:14:04.415Z,179895,0.10534668,0.94976807,0.12854004
1725722044460,2024-09-07T15:14:04.460Z,179940,0.12243652,0.96051025,0.1538086
1725722044508,2024-09-07T15:14:04.508Z,179988,0.099365234,0.9640503,0.2420044
1725722044553,2024-09-07T15:14:04.553Z,180033,0.14025879,0.9688721,0.19494629
1725722044599,2024-09-07T15:14:04.599Z,180079,0.099365234,0.982605,0.18585205
1725722044630,2024-09-07T15:14:04.630Z,180110,0.105407715,0.96221924,0.20172119
1725722044655,2024-09-07T15:14:04.655Z,180135,0.08874512,0.93670654,0.18048096
1725722044685,2024-09-07T15:14:04.685Z,180165,0.076293945,0.9213867,0.21960449
1725722044729,2024-09-07T15:14:04.729Z,180209,0.0914917,0.9090576,0.27075195
1725722044780,2024-09-07T15:14:04.780Z,180260,0.13061523,0.92858887,0.2680664
1725722044825,2024-09-07T15:14:04.825Z,180305,0.15576172,0.93444824,0.2677002
1725722044869,2024-09-07T15:14:04.869Z,180349,0.16448975,0.95996094,0.17730713
1725722044913,2024-09-07T15:14:04.913Z,180393,0.19384766,0.94451904,0.20715332
1725722044961,2024-09-07T15:14:04.961Z,180441,0.21539307,0.9467163,0.21582031
1725722044999,2024-09-07T15:14:04.999Z,180479,0.18878174,0.9472046,0.23132324
1725722045021,2024-09-07T15:14:05.021Z,180501,0.20166016,0.9375,0.2965088
1725722045044,2024-09-07T15:14:05.044Z,180524,0.18243408,0.9293823,0.32287598
1725722045091,2024-09-07T15:14:05.091Z,180571,0.19042969,0.9326782,0.26867676
1725722045139,2024-09-07T15:14:05.139Z,180619,0.16033936,0.9470825,0.2557373
1725722045181,2024-09-07T15:14:05.181Z,180661,0.17492676,0.95758057,0.21270752
1725722045227,2024-09-07T15:14:05.227Z,180707,0.17816162,0.9557495,0.24627686
1725722045273,2024-09-07T15:14:05.273Z,180753,0.17584229,0.97424316,0.24542236
1725722045317,2024-09-07T15:14:05.317Z,180797,0.15795898,1.0054932,0.23730469
1725722045365,2024-09-07T15:14:05.365Z,180845,0.16308594,0.9932251,0.23388672
1725722045408,2024-09-07T15:14:05.408Z,180888,0.144104,0.9807129,0.21105957
1725722045438,2024-09-07T15:14:05.438Z,180918,0.12805176,0.9342041,0.21868896
1725722045458,2024-09-07T15:14:05.458Z,180938,0.116882324,0.92437744,0.24328613
1725722045492,2024-09-07T15:14:05.492Z,180972,0.10583496,0.93725586,0.24334717
1725722045538,2024-09-07T15:14:05.538Z,181018,0.10101318,0.9573364,0.22247314
1725722045583,2024-09-07T15:14:05.583Z,181063,0.11785889,0.9734497,0.24432373
1725722045627,2024-09-07T15:14:05.627Z,181107,0.115478516,1.0368652,0.2565918
1725722064843,2024-09-07T15:14:24.843Z,200323,0.15478516,0.9381714,0.27301025
1725722064868,2024-09-07T15:14:24.868Z,200348,0.110839844,0.9656372,0.29455566
1725722064893,2024-09-07T15:14:24.893Z,200373,0.16949463,0.96466064,0.28997803
1725722064932,2024-09-07T15:14:24.932Z,200412,0.14007568,0.94647217,0.30517578
1725722064977,2024-09-07T15:14:24.977Z,200457,0.14703369,0.96118164,0.26190186
1725722065023,2024-09-07T15:14:25.023Z,200503,0.14971924,0.954895,0.25646973
1725722065068,2024-09-07T15:14:25.068Z,200548,0.12988281,0.946228,0.26171875
1725722065113,2024-09-07T15:14:25.113Z,200593,0.1307373,0.9602051,0.29681396
1725722065162,2024-09-07T15:14:25.162Z,200642,0.13287354,0.96307373,0.2828369
1725722065203,2024-09-07T15:14:25.203Z,200683,0.12597656,0.96221924,0.2765503
1725722065251,2024-09-07T15:14:25.251Z,200731,0.12524414,0.9666748,0.26239014
1725722065270,2024-09-07T15:14:25.270Z,200750,0.10144043,0.9537964,0.2711792
1725722065293,2024-09-07T15:14:25.293Z,200773,0.09539795,0.9547119,0.2687378
1725722065337,2024-09-07T15:14:25.337Z,200817,0.10272217,0.95751953,0.27392578
1725722065384,2024-09-07T15:14:25.384Z,200864,0.086242676,0.9553833,0.28796387
1725722065435,2024-09-07T15:14:25.435Z,200915,0.10949707,0.96447754,0.2546997
1725722065474,2024-09-07T15:14:25.474Z,200954,0.0993042,0.96136475,0.265625
1725722065521,2024-09-07T15:14:25.521Z,201001,0.114868164,0.9555054,0.26763916
1725722065565,2024-09-07T15:14:25.565Z,201045,0.115112305,0.946228,0.25317383
1725722065615,2024-09-07T15:14:25.615Z,201095,0.09869385,0.92578125,0.2738037
1725722065655,2024-09-07T15:14:25.655Z,201135,0.10412598,0.90826416,0.26757812
1725722065684,2024-09-07T15:14:25.684Z,201164,0.12371826,0.95166016,0.2277832
1725722065707,2024-09-07T15:14:25.707Z,201187,0.10424805,0.9571533,0.17651367
1725722065742,2024-09-07T15:14:25.742Z,201222,0.14147949,0.9517212,0.2084961
1725722065788,2024-09-07T15:14:25.788Z,201268,0.081604004,0.9710083,0.23040771
1725722065835,2024-09-07T15:14:25.835Z,201315,0.068481445,0.975647,0.17486572
1725722065880,2024-09-07T15:14:25.880Z,201360,0.10345459,0.9940796,0.21520996
1725722065923,2024-09-07T15:14:25.923Z,201403,0.068237305,0.9585571,0.21826172
1725722065966,2024-09-07T15:14:25.966Z,201446,0.06713867,0.96917725,0.14343262
1725722066017,2024-09-07T15:14:26.017Z,201497,0.06921387,0.95965576,0.113220215
1725722066058,2024-09-07T15:14:26.058Z,201538,0.05999756,0.9659424,0.15472412
1725722066103,2024-09-07T15:14:26.103Z,201583,0.07891846,1.0067139,0.12982178
1725722066128,2024-09-07T15:14:26.128Z,201608,0.0847168,1.0109863,0.11065674
1725722066148,2024-09-07T15:14:26.148Z,201628,0.07684326,0.9784546,0.1171875
1725722066195,2024-09-07T15:14:26.195Z,201675,0.097351074,0.98687744,0.13000488
1725722066239,2024-09-07T15:14:26.239Z,201719,0.07910156,0.9779053,0.105407715
1725722066288,2024-09-07T15:14:26.288Z,201768,0.059753418,0.9772339,0.093322754
1725722066330,2024-09-07T15:14:26.330Z,201810,0.06384277,0.99694824,0.10858154
1725722066373,2024-09-07T15:14:26.373Z,201853,0.08294678,1.0187988,0.091430664
1725722066420,2024-09-07T15:14:26.420Z,201900,0.06237793,1.0074463,0.07318115
1725722066468,2024-09-07T15:14:26.468Z,201948,0.06903076,0.9932251,0.07128906
1725722066509,2024-09-07T15:14:26.509Z,201989,0.09741211,0.9801636,0.05895996
1725722066536,2024-09-07T15:14:26.536Z,202016,0.09576416,0.99975586,0.034240723
1725722066555,2024-09-07T15:14:26.555Z,202035,0.026000977,0.9761963,0.020874023
1725722066601,2024-09-07T15:14:26.601Z,202081,0.060058594,0.9863281,0.0146484375
1725722066643,2024-09-07T15:14:26.643Z,202123,0.03540039,0.99035645,0.009521484
1725722066688,2024-09-07T15:14:26.688Z,202168,0.041259766,1.0020752,-0.0048217773
1725722066738,2024-09-07T15:14:26.738Z,202218,0.056518555,1.0094604,0.002319336
1725722066778,2024-09-07T15:14:26.778Z,202258,0.012573242,0.9907837,0.0234375
1725722066825,2024-09-07T15:14:26.825Z,202305,0.087402344,1.0258179,-0.037841797
1725722066872,2024-09-07T15:14:26.872Z,202352,0.02331543,1.017395,0.029663086
1725722066912,2024-09-07T15:14:26.912Z,202392,0.0993042,1.0778809,0.016784668
1725722066930,2024-09-07T15:14:26.930Z,202410,0.040527344,1.0846558,0.025024414
1725722066957,2024-09-07T15:14:26.957Z,202437,0.12023926,1.0440063,-0.016174316
1725722067003,2024-09-07T15:14:27.003Z,202483,0.119628906,1.0033569,-0.034240723
1725722067050,2024-09-07T15:14:27.050Z,202530,0.0040283203,0.9112549,0.060791016
1725722067094,2024-09-07T15:14:27.094Z,202574,0.13806152,1.0490723,-0.13964844
1725722067137,2024-09-07T15:14:27.137Z,202617,-0.010131836,0.94592285,0.024658203
1725722067187,2024-09-07T15:14:27.187Z,202667,0.09063721,1.0136108,-0.048034668
1725722067231,2024-09-07T15:14:27.231Z,202711,0.0043945312,0.96795654,0.02319336
1725722067273,2024-09-07T15:14:27.273Z,202753,0.12011719,1.026062,-0.020568848
1725722067319,2024-09-07T15:14:27.319Z,202799,-0.010375977,0.9470215,0.04260254
1725722067364,2024-09-07T15:14:27.364Z,202844,0.09161377,0.9996338,-0.06512451
1725722067395,2024-09-07T15:14:27.395Z,202875,0.014953613,0.94659424,-0.024475098
1725722067417,2024-09-07T15:14:27.417Z,202897,0.031982422,1.0236206,-0.08416748
1725722067454,2024-09-07T15:14:27.454Z,202934,0.0107421875,1.0180664,-0.054626465
1725722067502,2024-09-07T15:14:27.502Z,202982,0.10076904,1.0415039,-0.083618164
1725722067545,2024-09-07T15:14:27.545Z,203025,0.019348145,0.99102783,-0.039733887
1725722067592,2024-09-07T15:14:27.592Z,203072,0.09008789,1.0380249,-0.12225342
1725722067635,2024-09-07T15:14:27.635Z,203115,-0.0033569336,1.0202026,-0.0569458
1725722067678,2024-09-07T15:14:27.678Z,203158,0.07366943,1.0668335,-0.05999756
1725722067730,2024-09-07T15:14:27.730Z,203210,0.05407715,1.029541,-0.03326416
1725722067768,2024-09-07T15:14:27.768Z,203248,0.079711914,1.0310059,-0.045959473
1725722067786,2024-09-07T15:14:27.786Z,203266,0.02734375,1.0311279,-0.029296875
1725722067813,2024-09-07T15:14:27.813Z,203293,0.06561279,1.0303955,-0.08306885
1725722067858,2024-09-07T15:14:27.858Z,203338,0.014099121,0.9902954,-0.053771973
1725722067906,2024-09-07T15:14:27.906Z,203386,0.06744385,1.0307617,-0.059692383
1725722067949,2024-09-07T15:14:27.949Z,203429,0.046447754,1.0390015,-0.040893555
1725722067993,2024-09-07T15:14:27.993Z,203473,0.03552246,1.0266724,-0.011779785
1725722068041,2024-09-07T15:14:28.041Z,203521,0.10760498,1.0708008,-0.079589844
1725722068086,2024-09-07T15:14:28.086Z,203566,0.023864746,1.0581055,-0.03967285
1725722068128,2024-09-07T15:14:28.128Z,203608,0.083740234,1.1087036,-0.05609131
1725722068178,2024-09-07T15:14:28.178Z,203658,0.12182617,1.0820923,-0.07165527
1725722068209,2024-09-07T15:14:28.209Z,203689,0.08917236,1.0706177,-0.08557129
1725722068233,2024-09-07T15:14:28.233Z,203713,0.0647583,1.0895996,-0.06756592
1725722068262,2024-09-07T15:14:28.262Z,203742,-9.765625E-4,1.1004639,-0.010009766
1725722068307,2024-09-07T15:14:28.307Z,203787,0.00970459,1.1154785,-0.044128418
1725722068358,2024-09-07T15:14:28.358Z,203838,0.011169434,1.0834961,-0.020996094
1725722068398,2024-09-07T15:14:28.398Z,203878,0.037719727,1.0271606,0.014465332
1725722068443,2024-09-07T15:14:28.443Z,203923,0.033935547,1.0198975,-0.02532959
1725722068490,2024-09-07T15:14:28.490Z,203970,0.020874023,1.0679321,-0.043701172
1725722068535,2024-09-07T15:14:28.535Z,204015,0.068237305,1.039917,-0.11035156
1725722068578,2024-09-07T15:14:28.578Z,204058,0.030273438,0.9879761,-0.055847168
1725722068623,2024-09-07T15:14:28.623Z,204103,0.048461914,1.0140991,-0.024047852
1725722068645,2024-09-07T15:14:28.645Z,204125,0.023254395,1.0317993,-0.056152344
1725722068672,2024-09-07T15:14:28.672Z,204152,0.05718994,1.0388184,-0.11816406
1725722068715,2024-09-07T15:14:28.715Z,204195,0.036499023,1.0053711,-0.063964844
1725722068757,2024-09-07T15:14:28.757Z,204237,0.03564453,1.0061646,-0.058044434
1725722068805,2024-09-07T15:14:28.805Z,204285,0.055541992,1.0040894,-0.03186035
1725722068849,2024-09-07T15:14:28.849Z,204329,0.034973145,0.98931885,-0.060424805
1725722068894,2024-09-07T15:14:28.894Z,204374,0.04675293,1.029602,-0.061401367
1725722068941,2024-09-07T15:14:28.941Z,204421,0.03753662,1.0112305,0.0051879883
1725722068985,2024-09-07T15:14:28.985Z,204465,0.046813965,1.0172119,0.024658203
1725722069028,2024-09-07T15:14:29.028Z,204508,-0.008728027,0.99676514,0.095947266
1725722069053,2024-09-07T15:14:29.053Z,204533,0.066223145,0.99523926,0.06604004
1725722069074,2024-09-07T15:14:29.074Z,204554,0.06842041,0.98376465,0.046875
1725722069118,2024-09-07T15:14:29.118Z,204598,0.05706787,0.9920044,0.018249512
1725722069164,2024-09-07T15:14:29.164Z,204644,0.061157227,0.9906006,0.06854248
1725722069212,2024-09-07T15:14:29.212Z,204692,0.08734131,1.0192871,0.0056762695
1725722069255,2024-09-07T15:14:29.255Z,204735,0.015319824,1.024353,-0.015258789
1725722069299,2024-09-07T15:14:29.299Z,204779,0.09350586,1.0301514,0.049072266
1725722069342,2024-09-07T15:14:29.342Z,204822,0.07800293,0.99450684,0.05206299
1725722069416,2024-09-07T15:14:29.416Z,204896,0.06933594,0.96850586,0.07543945
1725722069445,2024-09-07T15:14:29.445Z,204925,0.097839355,0.9595947,0.07824707
1725722069466,2024-09-07T15:14:29.466Z,204946,0.060424805,0.9299927,0.109375
1725722069485,2024-09-07T15:14:29.485Z,204965,0.1315918,0.94055176,0.08648682
1725722069523,2024-09-07T15:14:29.523Z,205003,0.10168457,0.93011475,0.14520264
1725722069587,2024-09-07T15:14:29.587Z,205067,0.109069824,0.95410156,0.13824463
1725722069628,2024-09-07T15:14:29.628Z,205108,0.07904053,0.98913574,0.07092285
1725722069660,2024-09-07T15:14:29.660Z,205140,0.10449219,0.9995117,0.12835693
1725722069703,2024-09-07T15:14:29.703Z,205183,0.14233398,1.0320435,0.0970459
1725722069747,2024-09-07T15:14:29.747Z,205227,0.08721924,0.9800415,0.11218262
1725722069796,2024-09-07T15:14:29.796Z,205276,0.0993042,0.95098877,0.11645508
1725722069840,2024-09-07T15:14:29.840Z,205320,0.092285156,0.9296875,0.1126709
1725722069883,2024-09-07T15:14:29.883Z,205363,0.10534668,0.9370117,0.17834473
1725722069902,2024-09-07T15:14:29.902Z,205382,0.08972168,0.9346924,0.20861816
1725722069928,2024-09-07T15:14:29.928Z,205408,0.07800293,0.949646,0.16534424
1725722069974,2024-09-07T15:14:29.974Z,205454,0.07232666,0.9499512,0.16790771
1725722070021,2024-09-07T15:14:30.021Z,205501,0.13128662,0.93743896,0.16143799
1725722070068,2024-09-07T15:14:30.068Z,205548,0.13079834,0.94744873,0.14971924
1725722070110,2024-09-07T15:14:30.110Z,205590,0.124938965,0.96588135,0.12786865
1725722070154,2024-09-07T15:14:30.154Z,205634,0.14752197,1.0025635,0.1104126
1725722070202,2024-09-07T15:14:30.202Z,205682,0.15618896,0.9716797,0.1843872
1725722070246,2024-09-07T15:14:30.246Z,205726,0.16534424,0.99139404,0.16497803
1725722070291,2024-09-07T15:14:30.291Z,205771,0.14294434,0.9727173,0.22113037
1725722070315,2024-09-07T15:14:30.315Z,205795,0.14208984,0.99957275,0.17596436
1725722070333,2024-09-07T15:14:30.333Z,205813,0.1359253,0.9923706,0.18841553
1725722070379,2024-09-07T15:14:30.379Z,205859,0.11859131,0.9906006,0.2019043
1725722070425,2024-09-07T15:14:30.425Z,205905,0.15545654,0.96691895,0.20953369
1725722070476,2024-09-07T15:14:30.476Z,205956,0.20245361,0.96972656,0.19171143
1725722070514,2024-09-07T15:14:30.514Z,205994,0.16375732,0.9707031,0.17669678
1725722070558,2024-09-07T15:14:30.558Z,206038,0.16534424,0.9991455,0.15496826
1725722070606,2024-09-07T15:14:30.606Z,206086,0.16265869,0.9973755,0.19311523
1725722070649,2024-09-07T15:14:30.649Z,206129,0.14294434,0.99139404,0.17340088
1725722070692,2024-09-07T15:14:30.692Z,206172,0.13775635,0.9743042,0.1850586
1725722070709,2024-09-07T15:14:30.709Z,206189,0.13897705,0.9584961,0.1642456
1725722070739,2024-09-07T15:14:30.739Z,206219,0.13555908,0.95513916,0.16070557
1725722070783,2024-09-07T15:14:30.783Z,206263,0.120910645,0.97473145,0.17687988
1725722070832,2024-09-07T15:14:30.832Z,206312,0.09106445,0.98028564,0.16436768
1725722070874,2024-09-07T15:14:30.874Z,206354,0.11682129,1.0126343,0.17785645
1725722070918,2024-09-07T15:14:30.918Z,206398,0.10656738,0.9939575,0.18695068
1725722070963,2024-09-07T15:14:30.963Z,206443,0.10998535,0.9818115,0.15570068
1725722071014,2024-09-07T15:14:31.014Z,206494,0.10168457,0.9685669,0.1574707
1725722071053,2024-09-07T15:14:31.053Z,206533,0.0869751,0.960083,0.14575195
1725722071099,2024-09-07T15:14:31.099Z,206579,0.07879639,0.9673462,0.1315918
1725722071142,2024-09-07T15:14:31.142Z,206622,0.087524414,0.973938,0.13995361
1725722071163,2024-09-07T15:14:31.163Z,206643,0.08276367,0.9724121,0.15783691
1725722071188,2024-09-07T15:14:31.188Z,206668,0.07293701,0.9741821,0.117248535
1725722071233,2024-09-07T15:14:31.233Z,206713,0.0713501,0.96936035,0.0947876
1725722071277,2024-09-07T15:14:31.277Z,206757,0.078186035,0.9883423,0.09082031
1725722071327,2024-09-07T15:14:31.327Z,206807,0.10449219,1.0266724,0.09942627
1725722071369,2024-09-07T15:14:31.369Z,206849,0.061279297,1.0040894,0.11657715
1725722071416,2024-09-07T15:14:31.416Z,206896,0.06982422,0.97943115,0.111816406
1725722071461,2024-09-07T15:14:31.461Z,206941,0.076416016,0.96398926,0.11230469
1725722071505,2024-09-07T15:14:31.505Z,206985,0.062438965,0.96173096,0.14013672
1725722071551,2024-09-07T15:14:31.551Z,207031,0.06945801,0.9928589,0.10882568
1725722071585,2024-09-07T15:14:31.585Z,207065,0.0647583,0.99468994,0.09051514
1725722071611,2024-09-07T15:14:31.611Z,207091,0.069885254,0.99017334,0.068237305
1725722071637,2024-09-07T15:14:31.637Z,207117,0.07537842,0.9992676,0.06237793
1725722071683,2024-09-07T15:14:31.683Z,207163,0.07922363,1.0147095,0.04119873
1725722071735,2024-09-07T15:14:31.735Z,207215,0.042236328,0.9804077,0.017333984
1725722071776,2024-09-07T15:14:31.776Z,207256,0.07647705,0.95648193,0.05090332
1725722071820,2024-09-07T15:14:31.820Z,207300,0.070129395,0.982605,0.03302002
1725722071863,2024-09-07T15:14:31.863Z,207343,0.06964111,0.9957886,0.049316406
1725722071910,2024-09-07T15:14:31.910Z,207390,0.07922363,1.0166016,0.07299805
1725722071961,2024-09-07T15:14:31.961Z,207441,0.06390381,1.0245361,0.066833496
1725722071992,2024-09-07T15:14:31.992Z,207472,0.070617676,1.0411987,-0.014099121
1725722072014,2024-09-07T15:14:32.014Z,207494,0.062438965,0.9752197,0.012084961
1725722072043,2024-09-07T15:14:32.043Z,207523,0.08068848,0.97161865,-0.042541504
1725722072088,2024-09-07T15:14:32.088Z,207568,0.034729004,0.951355,0.0025024414
1725722072134,2024-09-07T15:14:32.134Z,207614,0.08148193,1.008606,-0.05340576
1725722072181,2024-09-07T15:14:32.181Z,207661,0.02178955,0.9624634,0.051513672
1725722072227,2024-09-07T15:14:32.227Z,207707,0.13671875,1.0429077,-0.083984375
1725722072270,2024-09-07T15:14:32.270Z,207750,-0.009277344,0.9963379,0.038269043
1725722072316,2024-09-07T15:14:32.316Z,207796,0.079711914,1.0742188,-0.09490967
1725722072359,2024-09-07T15:14:32.359Z,207839,0.025634766,1.0123291,-0.028137207
1725722072404,2024-09-07T15:14:32.404Z,207884,0.07525635,1.0183716,-0.04522705
1725722072427,2024-09-07T15:14:32.427Z,207907,0.051574707,1.0119019,-0.018920898
1725722072448,2024-09-07T15:14:32.448Z,207928,0.06616211,1.0246582,0.014709473
1725722072494,2024-09-07T15:14:32.494Z,207974,0.12463379,1.0695801,-0.017456055
1725722072540,2024-09-07T15:14:32.540Z,208020,0.09289551,1.0557861,0.023742676
1725722072584,2024-09-07T15:14:32.584Z,208064,0.06976318,0.96203613,-0.0524292
1725722072634,2024-09-07T15:14:32.634Z,208114,0.054504395,0.93792725,-0.029785156
1725722072673,2024-09-07T15:14:32.673Z,208153,0.049987793,0.9918823,-0.066467285
