Timestamp (ms),ISO DateTime,Elapsed Time (ms),Acceleration X,Acceleration Y,Acceleration Z
1725699567663,2024-09-07T08:59:27.663Z,194482,0.12475586,0.9604492,0.1739502
1725699567705,2024-09-07T08:59:27.705Z,194524,0.12567139,0.96936035,0.16864014
1725699567750,2024-09-07T08:59:27.750Z,194569,0.1338501,0.97546387,0.1795044
1725699567758,2024-09-07T08:59:27.758Z,194577,0.11785889,0.9810791,0.15112305
1725699567793,2024-09-07T08:59:27.793Z,194612,0.113586426,0.9949951,0.15405273
1725699567838,2024-09-07T08:59:27.838Z,194657,0.1159668,0.9944458,0.13366699
1725699567885,2024-09-07T08:59:27.885Z,194704,0.08117676,0.99279785,0.12982178
1725699567933,2024-09-07T08:59:27.933Z,194752,0.12835693,0.98376465,0.123413086
1725699567980,2024-09-07T08:59:27.980Z,194799,0.06970215,0.9711304,0.07519531
1725699568026,2024-09-07T08:59:28.026Z,194845,0.10699463,0.98095703,0.091430664
1725699568071,2024-09-07T08:59:28.071Z,194890,0.08691406,0.9683838,0.065979004
1725699568115,2024-09-07T08:59:28.115Z,194934,0.082214355,0.9855957,0.053100586
1725699568161,2024-09-07T08:59:28.161Z,194980,0.06512451,0.9729614,0.06604004
1725699568184,2024-09-07T08:59:28.184Z,195003,0.09210205,0.987854,0.028137207
1725699568205,2024-09-07T08:59:28.205Z,195024,0.055480957,0.993042,0.040527344
1725699568247,2024-09-07T08:59:28.247Z,195066,0.048034668,1.0031128,0.021606445
1725699568293,2024-09-07T08:59:28.293Z,195112,0.07836914,0.9941406,0.062805176
1725699568340,2024-09-07T08:59:28.340Z,195159,0.05645752,1.0201416,0.02130127
1725699568385,2024-09-07T08:59:28.385Z,195204,0.07055664,1.0239868,0.020629883
1725699568431,2024-09-07T08:59:28.431Z,195250,0.082092285,1.0157471,0.04144287
1725699568477,2024-09-07T08:59:28.477Z,195296,0.06744385,1.015564,0.0099487305
1725699568524,2024-09-07T08:59:28.524Z,195343,0.08929443,1.0054321,0.029296875
1725699568566,2024-09-07T08:59:28.566Z,195385,0.08843994,1.005249,-0.011474609
1725699568613,2024-09-07T08:59:28.613Z,195432,0.058776855,1.001709,7.9345703E-4
1725699568640,2024-09-07T08:59:28.640Z,195459,0.088134766,1.0323486,-0.012573242
1725699568667,2024-09-07T08:59:28.667Z,195486,0.059265137,0.9942627,-0.00970459
1725699568697,2024-09-07T08:59:28.697Z,195516,0.09692383,0.9915161,-0.012390137
1725699568753,2024-09-07T08:59:28.753Z,195572,0.064819336,0.9729004,-0.001953125
1725699568790,2024-09-07T08:59:28.790Z,195609,0.07019043,0.9884033,-0.034973145
1725699568835,2024-09-07T08:59:28.835Z,195654,0.04638672,0.9880371,-0.019042969
1725699568879,2024-09-07T08:59:28.879Z,195698,0.038513184,1.0111694,-0.05999756
1725699568927,2024-09-07T08:59:28.927Z,195746,0.055664062,1.0292969,-0.040039062
1725699568971,2024-09-07T08:59:28.971Z,195790,0.058166504,0.9971924,-0.055847168
1725699569017,2024-09-07T08:59:29.017Z,195836,0.07891846,0.993103,-0.07501221
1725699569038,2024-09-07T08:59:29.038Z,195857,0.0670166,0.9996338,-0.067871094
1725699569056,2024-09-07T08:59:29.056Z,195875,0.045166016,1.0064087,-0.07531738
1725699569105,2024-09-07T08:59:29.105Z,195924,0.08526611,1.0384521,-0.11273193
1725699569151,2024-09-07T08:59:29.151Z,195970,0.05871582,1.0270996,-0.08282471
1725699569194,2024-09-07T08:59:29.194Z,196013,0.091796875,1.0464478,-0.074401855
1725699569246,2024-09-07T08:59:29.246Z,196065,0.06744385,1.0438843,-0.10406494
1725699569287,2024-09-07T08:59:29.287Z,196106,0.072631836,1.0211182,-0.09777832
1725699569333,2024-09-07T08:59:29.333Z,196152,0.0524292,1.029541,-0.13665771
1725699569375,2024-09-07T08:59:29.375Z,196194,0.059020996,1.0010986,-0.090026855
1725699569420,2024-09-07T08:59:29.420Z,196239,0.088256836,1.0166626,-0.13238525
1725699569438,2024-09-07T08:59:29.438Z,196257,0.04699707,0.99572754,-0.11224365
1725699569459,2024-09-07T08:59:29.459Z,196278,0.072753906,1.020752,-0.14776611
1725699569508,2024-09-07T08:59:29.508Z,196327,0.04650879,1.0113525,-0.11968994
1725699569553,2024-09-07T08:59:29.553Z,196372,0.03741455,1.0189819,-0.15228271
1725699569601,2024-09-07T08:59:29.601Z,196420,0.09887695,1.012207,-0.12261963
1725699569645,2024-09-07T08:59:29.645Z,196464,0.0368042,1.0089722,-0.14196777
1725699569689,2024-09-07T08:59:29.689Z,196508,0.06225586,1.0064697,-0.15032959
1725699569736,2024-09-07T08:59:29.736Z,196555,0.07067871,1.0165405,-0.13372803
1725699569780,2024-09-07T08:59:29.780Z,196599,0.08453369,1.0070801,-0.12731934
1725699569826,2024-09-07T08:59:29.826Z,196645,0.05218506,1.0164185,-0.1560669
1725699569868,2024-09-07T08:59:29.868Z,196687,0.08679199,1.0032349,-0.13098145
1725699569887,2024-09-07T08:59:29.887Z,196706,0.057434082,1.0080566,-0.15539551
1725699569912,2024-09-07T08:59:29.912Z,196731,0.09838867,0.99853516,-0.12438965
1725699569959,2024-09-07T08:59:29.959Z,196778,0.066223145,1.0278931,-0.13470459
1725699570004,2024-09-07T08:59:30.004Z,196823,0.07318115,1.0099487,-0.114746094
1725699570053,2024-09-07T08:59:30.053Z,196872,0.042663574,1.0357056,-0.1640625
1725699570093,2024-09-07T08:59:30.093Z,196912,0.10461426,0.994812,-0.12915039
1725699570138,2024-09-07T08:59:30.138Z,196957,0.04034424,1.0089722,-0.1531372
1725699570184,2024-09-07T08:59:30.184Z,197003,0.09100342,0.99365234,-0.12365723
1725699570230,2024-09-07T08:59:30.230Z,197049,0.055908203,1.0,-0.14709473
1725699570277,2024-09-07T08:59:30.277Z,197096,0.06713867,1.0223999,-0.16870117
1725699570297,2024-09-07T08:59:30.297Z,197116,0.054260254,1.0057983,-0.14904785
1725699570320,2024-09-07T08:59:30.320Z,197139,0.08215332,1.0236206,-0.13922119
1725699570362,2024-09-07T08:59:30.362Z,197181,0.061950684,1.0166626,-0.16583252
1725699570406,2024-09-07T08:59:30.406Z,197225,0.057556152,1.0153198,-0.16168213
1725699570466,2024-09-07T08:59:30.466Z,197285,0.068237305,1.0189209,-0.13061523
1725699570498,2024-09-07T08:59:30.498Z,197317,0.07128906,1.0153809,-0.16003418
1725699570544,2024-09-07T08:59:30.544Z,197363,0.034057617,1.0215454,-0.17010498
1725699570588,2024-09-07T08:59:30.588Z,197407,0.06317139,0.99902344,-0.12713623
1725699570633,2024-09-07T08:59:30.633Z,197452,0.04260254,1.0253296,-0.1873169
1725699570682,2024-09-07T08:59:30.682Z,197501,0.045532227,1.0032959,-0.1418457
1725699570707,2024-09-07T08:59:30.707Z,197526,0.048034668,0.9963989,-0.15588379
1725699570726,2024-09-07T08:59:30.726Z,197545,0.049926758,0.99102783,-0.15423584
1725699570769,2024-09-07T08:59:30.769Z,197588,0.037841797,1.0029907,-0.16247559
1725699570813,2024-09-07T08:59:30.813Z,197632,0.032226562,0.9979248,-0.15734863
1725699570857,2024-09-07T08:59:30.857Z,197676,0.05114746,1.0180054,-0.15875244
1725699570903,2024-09-07T08:59:30.903Z,197722,0.06060791,1.0068359,-0.13726807
1725699570952,2024-09-07T08:59:30.952Z,197771,0.062683105,1.033081,-0.1673584
1725699570997,2024-09-07T08:59:30.997Z,197816,0.0579834,1.0194702,-0.14624023
1725699571039,2024-09-07T08:59:31.039Z,197858,0.06451416,1.0634155,-0.1930542
1725699571085,2024-09-07T08:59:31.085Z,197904,0.07696533,1.0805054,-0.13226318
1725699571129,2024-09-07T08:59:31.129Z,197948,0.0770874,1.1211548,-0.18121338
1725699571149,2024-09-07T08:59:31.149Z,197968,0.068237305,1.1587524,-0.18908691
1725699571169,2024-09-07T08:59:31.169Z,197988,0.05822754,1.1463013,-0.15307617
1725699571219,2024-09-07T08:59:31.219Z,198038,0.108947754,1.144043,-0.17675781
1725699571264,2024-09-07T08:59:31.264Z,198083,0.07525635,1.1088257,-0.13909912
1725699571314,2024-09-07T08:59:31.314Z,198133,0.07165527,1.1256714,-0.14672852
1725699571357,2024-09-07T08:59:31.357Z,198176,0.075805664,1.1082153,-0.13897705
1725699571399,2024-09-07T08:59:31.399Z,198218,0.0715332,1.0999146,-0.13830566
1725699571444,2024-09-07T08:59:31.444Z,198263,0.0814209,1.0877075,-0.111816406
1725699571488,2024-09-07T08:59:31.488Z,198307,0.04626465,1.0637207,-0.105529785
1725699571538,2024-09-07T08:59:31.538Z,198357,0.06854248,1.0422974,-0.08428955
1725699571562,2024-09-07T08:59:31.562Z,198381,0.053955078,1.0194702,-0.08496094
1725699571582,2024-09-07T08:59:31.582Z,198401,0.061828613,0.9949341,-0.06829834
1725699571623,2024-09-07T08:59:31.623Z,198442,0.050720215,0.98950195,-0.055114746
1725699571669,2024-09-07T08:59:31.669Z,198488,0.07904053,0.9707031,-0.03778076
1725699571717,2024-09-07T08:59:31.717Z,198536,0.043029785,0.9505005,-0.016967773
1725699571760,2024-09-07T08:59:31.760Z,198579,0.075805664,0.9481201,-0.004211426
1725699571804,2024-09-07T08:59:31.804Z,198623,0.040649414,0.9307251,-9.1552734E-4
1725699571850,2024-09-07T08:59:31.850Z,198669,0.08728027,0.9024658,0.08654785
1725699571895,2024-09-07T08:59:31.895Z,198714,0.04425049,0.9043579,0.034423828
1725699571942,2024-09-07T08:59:31.942Z,198761,0.04663086,0.85595703,0.10992432
1725699571967,2024-09-07T08:59:31.967Z,198786,0.061828613,0.87579346,0.072753906
1725699571984,2024-09-07T08:59:31.984Z,198803,0.10827637,0.88848877,0.16235352
1725699572027,2024-09-07T08:59:32.027Z,198846,0.043945312,0.9335327,0.088134766
1725699572072,2024-09-07T08:59:32.072Z,198891,0.08526611,0.94091797,0.14654541
1725699572121,2024-09-07T08:59:32.121Z,198940,0.08630371,0.96972656,0.123413086
1725699572165,2024-09-07T08:59:32.165Z,198984,0.100097656,0.9347534,0.18115234
1725699572210,2024-09-07T08:59:32.210Z,199029,0.09857178,0.95532227,0.17504883
1725699572257,2024-09-07T08:59:32.257Z,199076,0.08337402,0.9459839,0.16052246
1725699572298,2024-09-07T08:59:32.298Z,199117,0.10192871,0.92852783,0.20220947
1725699572344,2024-09-07T08:59:32.344Z,199163,0.08892822,0.95092773,0.18383789
1725699572388,2024-09-07T08:59:32.388Z,199207,0.07476807,0.94055176,0.18096924
1725699572408,2024-09-07T08:59:32.408Z,199227,0.09069824,0.9515991,0.18408203
1725699572430,2024-09-07T08:59:32.430Z,199249,0.1104126,0.9734497,0.18786621
1725699572477,2024-09-07T08:59:32.477Z,199296,0.10321045,0.97229004,0.1829834
1725699572522,2024-09-07T08:59:32.522Z,199341,0.09362793,0.99365234,0.14538574
1725699572572,2024-09-07T08:59:32.572Z,199391,0.103637695,0.9989624,0.17816162
1725699572622,2024-09-07T08:59:32.622Z,199441,0.10028076,1.0026245,0.18609619
1725699572662,2024-09-07T08:59:32.662Z,199481,0.08911133,0.98779297,0.21228027
1725699572705,2024-09-07T08:59:32.705Z,199524,0.10272217,1.0072021,0.2052002
1725699572751,2024-09-07T08:59:32.751Z,199570,0.09613037,0.9842529,0.21142578
1725699572796,2024-09-07T08:59:32.796Z,199615,0.12347412,0.99627686,0.18664551
1725699572820,2024-09-07T08:59:32.820Z,199639,0.11425781,0.9970703,0.17529297
1725699572843,2024-09-07T08:59:32.843Z,199662,0.13232422,0.99554443,0.19250488
1725699572882,2024-09-07T08:59:32.882Z,199701,0.13891602,0.99676514,0.17260742
1725699572926,2024-09-07T08:59:32.926Z,199745,0.13568115,0.97143555,0.18579102
1725699572974,2024-09-07T08:59:32.974Z,199793,0.13665771,0.99279785,0.16149902
1725699573020,2024-09-07T08:59:33.020Z,199839,0.113586426,0.970459,0.16381836
1725699573065,2024-09-07T08:59:33.065Z,199884,0.092163086,1.0092163,0.14904785
1725699573111,2024-09-07T08:59:33.111Z,199930,0.117370605,0.9935303,0.2111206
1725699573153,2024-09-07T08:59:33.153Z,199972,0.088378906,1.0068359,0.1618042
1725699573200,2024-09-07T08:59:33.200Z,200019,0.12042236,0.9702759,0.21160889
1725699573221,2024-09-07T08:59:33.221Z,200040,0.088012695,0.97869873,0.1729126
1725699573243,2024-09-07T08:59:33.243Z,200062,0.10925293,0.98217773,0.17669678
1725699573289,2024-09-07T08:59:33.289Z,200108,0.103637695,0.9868164,0.17376709
1725699573336,2024-09-07T08:59:33.336Z,200155,0.124816895,0.9824829,0.1796875
1725699573381,2024-09-07T08:59:33.381Z,200200,0.10620117,0.984375,0.1694336
1725699573427,2024-09-07T08:59:33.427Z,200246,0.10491943,0.97802734,0.15661621
1725699573470,2024-09-07T08:59:33.470Z,200289,0.09613037,0.97857666,0.15332031
1725699573513,2024-09-07T08:59:33.513Z,200332,0.11608887,0.97283936,0.1517334
1725699573559,2024-09-07T08:59:33.559Z,200378,0.10003662,0.9784546,0.13195801
1725699573607,2024-09-07T08:59:33.607Z,200426,0.107788086,0.9663086,0.1427002
1725699573631,2024-09-07T08:59:33.631Z,200450,0.111694336,0.9960327,0.1171875
1725699573656,2024-09-07T08:59:33.656Z,200475,0.092041016,0.9815674,0.10961914
1725699573694,2024-09-07T08:59:33.694Z,200513,0.11590576,0.99102783,0.12762451
1725699573740,2024-09-07T08:59:33.740Z,200559,0.103027344,0.9767456,0.11340332
1725699573789,2024-09-07T08:59:33.789Z,200608,0.10412598,0.99090576,0.09942627
1725699573830,2024-09-07T08:59:33.830Z,200649,0.10479736,0.980896,0.13165283
1725699573882,2024-09-07T08:59:33.882Z,200701,0.098083496,1.010437,0.06561279
1725699573919,2024-09-07T08:59:33.919Z,200738,0.0927124,0.9906006,0.088012695
1725699573966,2024-09-07T08:59:33.966Z,200785,0.09173584,1.0130615,0.068481445
1725699574011,2024-09-07T08:59:34.011Z,200830,0.060791016,0.99627686,0.06542969
1725699574056,2024-09-07T08:59:34.056Z,200875,0.099487305,0.98986816,0.07556152
1725699574076,2024-09-07T08:59:34.076Z,200895,0.051757812,0.97998047,0.034057617
1725699574098,2024-09-07T08:59:34.098Z,200917,0.07171631,0.9727173,0.041992188
1725699574145,2024-09-07T08:59:34.145Z,200964,0.059143066,0.9815674,0.027832031
1725699574191,2024-09-07T08:59:34.191Z,201010,0.062194824,1.0020142,-0.007446289
1725699574238,2024-09-07T08:59:34.238Z,201057,0.06719971,0.9926758,0.045959473
1725699574281,2024-09-07T08:59:34.281Z,201100,0.048828125,1.0200195,-0.055847168
1725699574323,2024-09-07T08:59:34.323Z,201142,0.026794434,0.9972534,0.018554688
1725699574369,2024-09-07T08:59:34.369Z,201188,0.07147217,0.9841919,0.016601562
1725699574414,2024-09-07T08:59:34.414Z,201233,0.06329346,0.9777832,-0.01171875
1725699574460,2024-09-07T08:59:34.460Z,201279,0.057861328,0.9804077,-0.012878418
1725699574482,2024-09-07T08:59:34.482Z,201301,0.059936523,1.0040283,-0.039916992
1725699574500,2024-09-07T08:59:34.500Z,201319,0.064208984,0.9871216,-0.022094727
1725699574595,2024-09-07T08:59:34.595Z,201414,0.07727051,0.9967041,-0.032470703
1725699574607,2024-09-07T08:59:34.607Z,201426,0.027832031,0.9935913,-0.041931152
1725699574636,2024-09-07T08:59:34.636Z,201455,0.064575195,0.9981079,-0.06048584
1725699574682,2024-09-07T08:59:34.682Z,201501,0.033935547,0.9819336,-0.08496094
1725699574728,2024-09-07T08:59:34.728Z,201547,0.037963867,0.9940796,-0.07897949
1725699574776,2024-09-07T08:59:34.776Z,201595,0.035827637,0.9884033,-0.08496094
1725699574820,2024-09-07T08:59:34.820Z,201639,0.028320312,1.03302,-0.099487305
1725699574867,2024-09-07T08:59:34.867Z,201686,0.037841797,1.0300903,-0.110961914
1725699574889,2024-09-07T08:59:34.889Z,201708,0.01159668,1.0380249,-0.097839355
1725699574905,2024-09-07T08:59:34.905Z,201724,0.0064697266,1.0283813,-0.13702393
1725699574949,2024-09-07T08:59:34.949Z,201768,0.01550293,1.0205688,-0.11462402
1725699574996,2024-09-07T08:59:34.996Z,201815,0.010559082,1.0058594,-0.12548828
1725699575043,2024-09-07T08:59:35.043Z,201862,0.038085938,1.0274658,-0.12365723
1725699575089,2024-09-07T08:59:35.089Z,201908,-0.011352539,1.0154419,-0.117248535
1725699575133,2024-09-07T08:59:35.133Z,201952,0.0045776367,1.0224609,-0.13995361
1725699575178,2024-09-07T08:59:35.178Z,201997,0.019226074,1.0033569,-0.10638428
1725699575226,2024-09-07T08:59:35.226Z,202045,0.0513916,0.998291,-0.1404419
1725699575269,2024-09-07T08:59:35.269Z,202088,0.0012207031,0.9898071,-0.111328125
1725699575316,2024-09-07T08:59:35.316Z,202135,0.022583008,1.0284424,-0.1687622
1725699575340,2024-09-07T08:59:35.340Z,202159,0.033203125,0.9838257,-0.12359619
1725699575362,2024-09-07T08:59:35.362Z,202181,-0.004760742,1.0319824,-0.14294434
1725699575403,2024-09-07T08:59:35.403Z,202222,0.06939697,1.0231323,-0.13531494
1725699575449,2024-09-07T08:59:35.449Z,202268,-0.0014648438,1.0408325,-0.14642334
1725699575495,2024-09-07T08:59:35.495Z,202314,-0.0017700195,1.0324097,-0.16723633
1725699575542,2024-09-07T08:59:35.542Z,202361,0.032958984,1.0186768,-0.12774658
1725699575589,2024-09-07T08:59:35.589Z,202408,0.0126953125,1.0101929,-0.14923096
1725699575631,2024-09-07T08:59:35.631Z,202450,0.008728027,1.0011597,-0.14758301
1725699575674,2024-09-07T08:59:35.674Z,202493,0.02331543,1.0070801,-0.13085938
1725699575721,2024-09-07T08:59:35.721Z,202540,0.0012817383,0.9937134,-0.15063477
1725699575742,2024-09-07T08:59:35.742Z,202561,0.004333496,1.0119019,-0.16864014
1725699575764,2024-09-07T08:59:35.764Z,202583,0.030700684,1.0066528,-0.11529541
1725699575807,2024-09-07T08:59:35.807Z,202626,0.016357422,1.0355225,-0.17352295
1725699575854,2024-09-07T08:59:35.854Z,202673,0.0020751953,1.0504761,-0.14611816
1725699575899,2024-09-07T08:59:35.899Z,202718,0.038635254,1.078125,-0.1618042
1725699575945,2024-09-07T08:59:35.945Z,202764,0.009277344,1.03656,-0.1437378
1725699575989,2024-09-07T08:59:35.989Z,202808,0.008361816,1.0466309,-0.16027832
1725699576044,2024-09-07T08:59:36.044Z,202863,0.015808105,1.0300293,-0.18139648
1725699576079,2024-09-07T08:59:36.079Z,202898,0.007385254,1.0348511,-0.13531494
1725699576124,2024-09-07T08:59:36.124Z,202943,0.0014648438,1.0315552,-0.19024658
1725699576145,2024-09-07T08:59:36.145Z,202964,-0.0022583008,1.0162354,-0.1619873
1725699576169,2024-09-07T08:59:36.169Z,202988,0.012634277,1.0308838,-0.16461182
1725699576211,2024-09-07T08:59:36.211Z,203030,0.0021362305,1.0204468,-0.17895508
1725699576257,2024-09-07T08:59:36.257Z,203076,-0.011962891,1.0108643,-0.1630249
1725699576300,2024-09-07T08:59:36.300Z,203119,0.021911621,1.010498,-0.15997314
1725699576347,2024-09-07T08:59:36.347Z,203166,0.023986816,0.9817505,-0.18395996
1725699576395,2024-09-07T08:59:36.395Z,203214,-0.0038452148,1.0253906,-0.17871094
1725699576438,2024-09-07T08:59:36.438Z,203257,0.007751465,1.0046997,-0.15594482
1725699576483,2024-09-07T08:59:36.483Z,203302,0.014587402,1.092041,-0.23443604
1725699576529,2024-09-07T08:59:36.529Z,203348,0.044677734,1.0973511,-0.12854004
1725699576573,2024-09-07T08:59:36.573Z,203392,0.017578125,1.1696167,-0.21746826
1725699576590,2024-09-07T08:59:36.590Z,203409,0.010620117,1.1801147,-0.2130127
1725699576617,2024-09-07T08:59:36.617Z,203436,0.040100098,1.1478271,-0.13269043
1725699576664,2024-09-07T08:59:36.664Z,203483,0.029663086,1.1497803,-0.20196533
1725699576710,2024-09-07T08:59:36.710Z,203529,0.014465332,1.1134644,-0.14782715
1725699576757,2024-09-07T08:59:36.757Z,203576,0.0435791,1.1123047,-0.14355469
1725699576802,2024-09-07T08:59:36.802Z,203621,0.038757324,1.0772095,-0.13989258
1725699576844,2024-09-07T08:59:36.844Z,203663,0.037231445,1.0712891,-0.12597656
1725699576892,2024-09-07T08:59:36.892Z,203711,0.027709961,1.03656,-0.10620117
1725699576937,2024-09-07T08:59:36.937Z,203756,0.024108887,1.0377808,-0.12060547
1725699576981,2024-09-07T08:59:36.981Z,203800,0.062561035,1.020813,-0.08258057
1725699577006,2024-09-07T08:59:37.006Z,203825,0.043945312,0.99823,-0.09350586
1725699577029,2024-09-07T08:59:37.029Z,203848,0.0115356445,0.9977417,-0.068237305
1725699577066,2024-09-07T08:59:37.066Z,203885,0.059753418,0.9647827,-0.029785156
1725699577114,2024-09-07T08:59:37.114Z,203933,0.06964111,0.9852295,-0.034118652
1725699577162,2024-09-07T08:59:37.162Z,203981,0.026489258,0.95111084,-0.030090332
1725699577204,2024-09-07T08:59:37.204Z,204023,0.033691406,0.95477295,0.0063476562
1725699577252,2024-09-07T08:59:37.252Z,204071,0.09057617,0.92144775,0.036376953
1725699577295,2024-09-07T08:59:37.295Z,204114,0.028137207,0.8859253,0.062194824
1725699577339,2024-09-07T08:59:37.339Z,204158,0.041625977,0.897522,0.0036621094
1725699577385,2024-09-07T08:59:37.385Z,204204,0.062561035,0.87127686,0.15106201
1725699577402,2024-09-07T08:59:37.402Z,204221,0.05407715,0.8927002,0.08081055
1725699577427,2024-09-07T08:59:37.427Z,204246,0.08959961,0.87841797,0.115112305
1725699577475,2024-09-07T08:59:37.475Z,204294,0.08282471,0.88378906,0.16027832
1725699577521,2024-09-07T08:59:37.521Z,204340,0.09222412,0.8954468,0.15679932
1725699577566,2024-09-07T08:59:37.566Z,204385,0.10546875,0.86328125,0.24194336
1725699577611,2024-09-07T08:59:37.611Z,204430,0.0793457,0.9127197,0.11126709
1725699577653,2024-09-07T08:59:37.653Z,204472,0.11639404,0.9446411,0.20092773
1725699577700,2024-09-07T08:59:37.700Z,204519,0.06726074,1.0134277,0.18035889
1725699577747,2024-09-07T08:59:37.747Z,204566,0.10168457,1.0427856,0.14978027
1725699577790,2024-09-07T08:59:37.790Z,204609,0.15435791,0.9949341,0.21051025
1725699577837,2024-09-07T08:59:37.837Z,204656,0.13891602,0.977417,0.14318848
1725699577859,2024-09-07T08:59:37.859Z,204678,0.17303467,0.9614258,0.19921875
1725699577885,2024-09-07T08:59:37.885Z,204704,0.13934326,0.9970703,0.1541748
1725699577922,2024-09-07T08:59:37.922Z,204741,0.14111328,0.9898071,0.20495605
1725699577971,2024-09-07T08:59:37.971Z,204790,0.15142822,1.0049438,0.2029419
1725699578013,2024-09-07T08:59:38.013Z,204832,0.13873291,0.96209717,0.19689941
1725699578061,2024-09-07T08:59:38.061Z,204880,0.15802002,0.95129395,0.19335938
1725699578106,2024-09-07T08:59:38.106Z,204925,0.15600586,0.98986816,0.19818115
1725699578151,2024-09-07T08:59:38.151Z,204970,0.15625,0.99157715,0.2020874
1725699578197,2024-09-07T08:59:38.197Z,205016,0.15216064,0.9980469,0.18334961
1725699578237,2024-09-07T08:59:38.237Z,205056,0.14916992,0.977478,0.19281006
1725699578254,2024-09-07T08:59:38.254Z,205073,0.13763428,0.9816284,0.17175293
1725699578286,2024-09-07T08:59:38.286Z,205105,0.12640381,0.96435547,0.1940918
1725699578332,2024-09-07T08:59:38.332Z,205151,0.14672852,0.9800415,0.19030762
1725699578377,2024-09-07T08:59:38.377Z,205196,0.1260376,0.98205566,0.20397949
1725699578426,2024-09-07T08:59:38.426Z,205245,0.13183594,0.9852295,0.19567871
1725699578462,2024-09-07T08:59:38.462Z,205281,0.13244629,0.99017334,0.18603516
1725699578511,2024-09-07T08:59:38.511Z,205330,0.13696289,0.98376465,0.20574951
1725699578556,2024-09-07T08:59:38.556Z,205375,0.10784912,0.98657227,0.18804932
1725699578602,2024-09-07T08:59:38.602Z,205421,0.13092041,0.98828125,0.21148682
1725699578646,2024-09-07T08:59:38.646Z,205465,0.1116333,0.98413086,0.20117188
1725699578665,2024-09-07T08:59:38.665Z,205484,0.12506104,0.9713135,0.18408203
1725699578687,2024-09-07T08:59:38.687Z,205506,0.13189697,0.9706421,0.19903564
1725699578736,2024-09-07T08:59:38.736Z,205555,0.13098145,0.9713135,0.17236328
1725699578783,2024-09-07T08:59:38.783Z,205602,0.11553955,0.98168945,0.1652832
1725699578828,2024-09-07T08:59:38.828Z,205647,0.113098145,0.9890747,0.14868164
1725699578872,2024-09-07T08:59:38.872Z,205691,0.12915039,0.9673462,0.16467285
1725699578915,2024-09-07T08:59:38.915Z,205734,0.122802734,0.9780884,0.12084961
1725699578961,2024-09-07T08:59:38.961Z,205780,0.11273193,0.9743042,0.1439209
1725699579006,2024-09-07T08:59:39.006Z,205825,0.09210205,0.99017334,0.12145996
1725699579051,2024-09-07T08:59:39.051Z,205870,0.10449219,0.9689331,0.11608887
1725699579096,2024-09-07T08:59:39.096Z,205915,0.09814453,0.9729614,0.12597656
1725699579122,2024-09-07T08:59:39.122Z,205941,0.08831787,0.9760132,0.07720947
1725699579145,2024-09-07T08:59:39.145Z,205964,0.09411621,0.9800415,0.1026001
1725699579185,2024-09-07T08:59:39.185Z,206004,0.100097656,0.9949341,0.048095703
1725699579230,2024-09-07T08:59:39.230Z,206049,0.08679199,0.95318604,0.096191406
1725699579277,2024-09-07T08:59:39.277Z,206096,0.054992676,1.0029907,0.01171875
1725699579323,2024-09-07T08:59:39.323Z,206142,0.07318115,0.9992676,0.06414795
1725699579365,2024-09-07T08:59:39.365Z,206184,0.06689453,0.9987793,0.029724121
1725699579411,2024-09-07T08:59:39.411Z,206230,0.03387451,1.0130615,0.0029907227
1725699579458,2024-09-07T08:59:39.458Z,206277,0.06286621,1.00531,0.008972168
1725699579501,2024-09-07T08:59:39.501Z,206320,0.048828125,1.0205078,-0.00390625
1725699579525,2024-09-07T08:59:39.525Z,206344,0.059387207,1.0170898,-0.004333496
1725699579549,2024-09-07T08:59:39.549Z,206368,0.04071045,0.99627686,-0.010986328
1725699579590,2024-09-07T08:59:39.590Z,206409,0.018493652,0.9846802,-0.018676758
1725699579638,2024-09-07T08:59:39.638Z,206457,0.097839355,0.982666,-0.0073242188
1725699579677,2024-09-07T08:59:39.677Z,206496,0.059814453,0.96661377,-0.026428223
1725699579723,2024-09-07T08:59:39.723Z,206542,0.06500244,1.0115967,-0.036071777
1725699579771,2024-09-07T08:59:39.771Z,206590,0.03955078,0.9951782,-0.058288574
1725699579815,2024-09-07T08:59:39.815Z,206634,0.070495605,1.012146,-0.080200195
1725699579859,2024-09-07T08:59:39.859Z,206678,0.072021484,0.97180176,-0.046813965
1725699579905,2024-09-07T08:59:39.905Z,206724,0.1060791,1.0015259,-0.09448242
1725699579925,2024-09-07T08:59:39.925Z,206744,0.06536865,0.9814453,-0.046203613
1725699579948,2024-09-07T08:59:39.948Z,206767,0.06829834,1.0170898,-0.09399414
1725699579994,2024-09-07T08:59:39.994Z,206813,0.070007324,0.9935913,-0.07067871
1725699580041,2024-09-07T08:59:40.041Z,206860,0.036865234,0.99823,-0.10290527
1725699580084,2024-09-07T08:59:40.084Z,206903,0.06945801,1.013977,-0.09429932
1725699580130,2024-09-07T08:59:40.130Z,206949,0.025634766,1.0095215,-0.103393555
1725699580175,2024-09-07T08:59:40.175Z,206994,0.023742676,1.0292358,-0.12182617
1725699580222,2024-09-07T08:59:40.222Z,207041,0.054870605,1.0025024,-0.14550781
1725699580268,2024-09-07T08:59:40.268Z,207087,0.052001953,0.9854126,-0.107421875
1725699580308,2024-09-07T08:59:40.308Z,207127,0.09173584,0.98651123,-0.12738037
1725699580354,2024-09-07T08:59:40.354Z,207173,0.019165039,1.0303345,-0.12164307
1725699580372,2024-09-07T08:59:40.372Z,207191,0.059265137,1.0165405,-0.1517334
1725699580396,2024-09-07T08:59:40.396Z,207215,0.06317139,1.0385742,-0.12805176
1725699580440,2024-09-07T08:59:40.440Z,207259,0.059448242,1.0114746,-0.152771
1725699580488,2024-09-07T08:59:40.488Z,207307,0.031433105,1.0228271,-0.1359253
1725699580536,2024-09-07T08:59:40.536Z,207355,0.06542969,0.9961548,-0.16394043
1725699580583,2024-09-07T08:59:40.583Z,207402,0.059326172,1.0187378,-0.12286377
1725699580626,2024-09-07T08:59:40.626Z,207445,0.061767578,0.9892578,-0.1519165
1725699580673,2024-09-07T08:59:40.673Z,207492,0.03137207,1.0114136,-0.15148926
1725699580718,2024-09-07T08:59:40.718Z,207537,0.07342529,1.0198364,-0.15899658
1725699580761,2024-09-07T08:59:40.761Z,207580,0.053527832,1.0141602,-0.14422607
1725699580786,2024-09-07T08:59:40.786Z,207605,0.096069336,1.0319824,-0.18060303
1725699580809,2024-09-07T08:59:40.809Z,207628,0.036621094,1.0214233,-0.15631104
1725699580846,2024-09-07T08:59:40.846Z,207665,0.0791626,1.0324707,-0.16534424
1725699580893,2024-09-07T08:59:40.893Z,207712,0.06378174,1.0061646,-0.17810059
1725699580940,2024-09-07T08:59:40.940Z,207759,0.046203613,1.0215454,-0.16467285
1725699580986,2024-09-07T08:59:40.986Z,207805,0.05053711,0.9898071,-0.18029785
1725699581032,2024-09-07T08:59:41.032Z,207851,0.09051514,0.9927368,-0.13452148
1725699581075,2024-09-07T08:59:41.075Z,207894,0.033203125,0.99993896,-0.16571045
1725699581123,2024-09-07T08:59:41.123Z,207942,0.037841797,1.0097656,-0.18426514
1725699581163,2024-09-07T08:59:41.163Z,207982,0.038330078,1.0169067,-0.15002441
1725699581185,2024-09-07T08:59:41.185Z,208004,0.031799316,1.0595703,-0.19042969
1725699581204,2024-09-07T08:59:41.204Z,208023,0.071899414,1.0636597,-0.1642456
1725699581256,2024-09-07T08:59:41.256Z,208075,-0.02166748,1.0595703,-0.18786621
1725699581301,2024-09-07T08:59:41.301Z,208120,0.08746338,1.0944824,-0.18017578
1725699581344,2024-09-07T08:59:41.344Z,208163,0.03656006,1.043396,-0.14929199
1725699581391,2024-09-07T08:59:41.391Z,208210,0.012817383,1.0488281,-0.20574951
1725699581433,2024-09-07T08:59:41.433Z,208252,0.05718994,1.013855,-0.15411377
1725699581481,2024-09-07T08:59:41.481Z,208300,0.020263672,1.0239258,-0.20495605
1725699581526,2024-09-07T08:59:41.526Z,208345,0.050109863,0.9995117,-0.1541748
1725699581569,2024-09-07T08:59:41.569Z,208388,0.042053223,1.024292,-0.18981934
1725699581613,2024-09-07T08:59:41.613Z,208432,0.023132324,1.0189819,-0.19158936
1725699581632,2024-09-07T08:59:41.632Z,208451,0.043701172,1.0406494,-0.18939209
1725699581659,2024-09-07T08:59:41.659Z,208478,0.038330078,1.1090088,-0.19586182
1725699581703,2024-09-07T08:59:41.703Z,208522,0.050720215,1.1034546,-0.1899414
1725699581751,2024-09-07T08:59:41.751Z,208570,0.047424316,1.1642456,-0.20117188
1725699581796,2024-09-07T08:59:41.796Z,208615,0.055419922,1.1356812,-0.17956543
1725699581841,2024-09-07T08:59:41.841Z,208660,0.06011963,1.166748,-0.1942749
1725699581884,2024-09-07T08:59:41.884Z,208703,0.042785645,1.1203003,-0.14239502
1725699581929,2024-09-07T08:59:41.929Z,208748,0.054382324,1.1364746,-0.1765747
1725699581976,2024-09-07T08:59:41.976Z,208795,0.08984375,1.0964966,-0.1116333
1725699582024,2024-09-07T08:59:42.024Z,208843,0.029968262,1.1012573,-0.15509033
1725699582048,2024-09-07T08:59:42.048Z,208867,0.078063965,1.0628052,-0.10040283
1725699582067,2024-09-07T08:59:42.067Z,208886,0.060424805,1.0418091,-0.109069824
1725699582108,2024-09-07T08:59:42.108Z,208927,0.055664062,1.0337524,-0.09484863
1725699582153,2024-09-07T08:59:42.153Z,208972,0.04559326,1.0048218,-0.058532715
1725699582200,2024-09-07T08:59:42.200Z,209019,0.053649902,0.99609375,-0.0892334
1725699582244,2024-09-07T08:59:42.244Z,209063,0.048095703,0.9515381,-0.013183594
1725699582291,2024-09-07T08:59:42.291Z,209110,0.043029785,0.93463135,-0.050842285
1725699582336,2024-09-07T08:59:42.336Z,209155,0.04321289,0.918396,-0.0146484375
1725699582381,2024-09-07T08:59:42.381Z,209200,0.08087158,0.9112549,0.019104004
1725699582426,2024-09-07T08:59:42.426Z,209245,0.022583008,0.9109497,0.07751465
1725699582456,2024-09-07T08:59:42.456Z,209275,0.031433105,0.92926025,-0.022888184
1725699582477,2024-09-07T08:59:42.477Z,209296,0.048339844,0.9309082,0.07421875
1725699582513,2024-09-07T08:59:42.513Z,209332,0.05493164,0.9319458,0.06982422
1725699582559,2024-09-07T08:59:42.559Z,209378,0.0072631836,0.88848877,0.062438965
1725699582605,2024-09-07T08:59:42.605Z,209424,0.06890869,0.8834839,0.13171387
1725699582650,2024-09-07T08:59:42.650Z,209469,0.059936523,0.8820801,0.09161377
1725699582696,2024-09-07T08:59:42.696Z,209515,0.0892334,0.86621094,0.18762207
1725699582742,2024-09-07T08:59:42.742Z,209561,0.074401855,0.91119385,0.14123535
1725699582788,2024-09-07T08:59:42.788Z,209607,0.11151123,0.88757324,0.21777344
1725699582833,2024-09-07T08:59:42.833Z,209652,0.07208252,0.93066406,0.1338501
1725699582878,2024-09-07T08:59:42.878Z,209697,0.084228516,0.9557495,0.1739502
1725699582904,2024-09-07T08:59:42.904Z,209723,0.082336426,0.99890137,0.2140503
1725699582928,2024-09-07T08:59:42.928Z,209747,0.06323242,1.0391235,0.13067627
1725699582963,2024-09-07T08:59:42.963Z,209782,0.089904785,1.0108643,0.22290039
1725699583009,2024-09-07T08:59:43.009Z,209828,0.11151123,1.0180664,0.17376709
1725699583055,2024-09-07T08:59:43.055Z,209874,0.14562988,0.95495605,0.22625732
1725699583100,2024-09-07T08:59:43.100Z,209919,0.13574219,0.9715576,0.17913818
1725699583146,2024-09-07T08:59:43.146Z,209965,0.13330078,0.98669434,0.18804932
1725699583193,2024-09-07T08:59:43.193Z,210012,0.13684082,0.9960327,0.1954956
1725699583237,2024-09-07T08:59:43.237Z,210056,0.15441895,0.9819336,0.19989014
1725699583282,2024-09-07T08:59:43.282Z,210101,0.12695312,0.9608154,0.19537354
1725699583303,2024-09-07T08:59:43.303Z,210122,0.14996338,0.9719238,0.19744873
1725699583326,2024-09-07T08:59:43.326Z,210145,0.1361084,0.9732666,0.20697021
1725699583370,2024-09-07T08:59:43.370Z,210189,0.137146,0.98083496,0.1987915
1725699583417,2024-09-07T08:59:43.417Z,210236,0.1204834,1.0116577,0.1809082
1725699583462,2024-09-07T08:59:43.462Z,210281,0.14746094,0.9920044,0.19622803
1725699583507,2024-09-07T08:59:43.507Z,210326,0.13201904,0.9996948,0.16906738
1725699583551,2024-09-07T08:59:43.551Z,210370,0.14941406,0.96765137,0.20166016
1725699583596,2024-09-07T08:59:43.596Z,210415,0.1126709,0.9914551,0.15509033
1725699583637,2024-09-07T08:59:43.637Z,210456,0.12860107,0.9815674,0.21557617
1725699583683,2024-09-07T08:59:43.683Z,210502,0.09222412,0.98913574,0.16296387
1725699583702,2024-09-07T08:59:43.702Z,210521,0.099975586,0.9776001,0.20361328
1725699583728,2024-09-07T08:59:43.728Z,210547,0.10546875,0.9782715,0.15594482
1725699583775,2024-09-07T08:59:43.775Z,210594,0.13061523,0.9711304,0.1739502
1725699583818,2024-09-07T08:59:43.818Z,210637,0.08905029,0.973938,0.13049316
1725699583863,2024-09-07T08:59:43.863Z,210682,0.10632324,0.9746704,0.1496582
1725699583912,2024-09-07T08:59:43.912Z,210731,0.09942627,0.99005127,0.122924805
1725699583956,2024-09-07T08:59:43.956Z,210775,0.10583496,0.9720459,0.15777588
1725699583999,2024-09-07T08:59:43.999Z,210818,0.08026123,0.98620605,0.07788086
1725699584048,2024-09-07T08:59:44.048Z,210867,0.099487305,0.9746704,0.12390137
1725699584092,2024-09-07T08:59:44.092Z,210911,0.09033203,0.98028564,0.07635498
1725699584138,2024-09-07T08:59:44.138Z,210957,0.09197998,0.989563,0.08709717
1725699584164,2024-09-07T08:59:44.164Z,210983,0.07055664,1.013916,0.057922363
1725699584186,2024-09-07T08:59:44.186Z,211005,0.071777344,1.0150757,0.07196045
1725699584222,2024-09-07T08:59:44.222Z,211041,0.057922363,1.0089111,0.049438477
1725699584269,2024-09-07T08:59:44.269Z,211088,0.062683105,0.9946289,0.06695557
1725699584317,2024-09-07T08:59:44.317Z,211136,0.07043457,0.97906494,0.057006836
1725699584363,2024-09-07T08:59:44.363Z,211182,0.057495117,0.99365234,0.0052490234
1725699584410,2024-09-07T08:59:44.410Z,211229,0.043640137,0.9926758,0.031921387
1725699584450,2024-09-07T08:59:44.450Z,211269,0.07141113,0.9939575,0.015991211
1725699584496,2024-09-07T08:59:44.496Z,211315,0.06665039,1.0006714,-0.003112793
1725699584542,2024-09-07T08:59:44.542Z,211361,0.059509277,0.97766113,0.03918457
1725699584566,2024-09-07T08:59:44.566Z,211385,0.047790527,0.9813843,-0.021484375
1725699584585,2024-09-07T08:59:44.585Z,211404,0.0703125,0.95928955,0.024047852
1725699584627,2024-09-07T08:59:44.627Z,211446,0.073913574,0.99090576,-0.019897461
1725699584676,2024-09-07T08:59:44.676Z,211495,0.055603027,0.9748535,0.0014648438
1725699584721,2024-09-07T08:59:44.721Z,211540,0.041015625,1.0164795,-0.059753418
1725699584769,2024-09-07T08:59:44.769Z,211588,0.06744385,1.0193481,-0.0065307617
1725699584810,2024-09-07T08:59:44.810Z,211629,0.052490234,1.0167236,-0.047302246
1725699584855,2024-09-07T08:59:44.855Z,211674,0.038757324,0.98986816,-0.041931152
1725699584900,2024-09-07T08:59:44.900Z,211719,0.061035156,0.9716797,-0.04144287
1725699584948,2024-09-07T08:59:44.948Z,211767,0.06390381,0.9624634,-0.045715332
1725699584969,2024-09-07T08:59:44.969Z,211788,0.033325195,0.97979736,-0.081848145
1725699584991,2024-09-07T08:59:44.991Z,211810,0.0345459,1.0194702,-0.08062744
1725699585033,2024-09-07T08:59:45.033Z,211852,0.020568848,1.007019,-0.084106445
1725699585079,2024-09-07T08:59:45.079Z,211898,0.029418945,1.0426636,-0.1038208
1725699585126,2024-09-07T08:59:45.126Z,211945,0.026489258,1.0372925,-0.09118652
1725699585167,2024-09-07T08:59:45.167Z,211986,0.05419922,1.0452881,-0.12072754
1725699585216,2024-09-07T08:59:45.216Z,212035,0.014099121,1.0044556,-0.10028076
1725699585262,2024-09-07T08:59:45.262Z,212081,0.023742676,1.0106201,-0.12591553
1725699585303,2024-09-07T08:59:45.303Z,212122,0.013916016,0.99572754,-0.09832764
1725699585352,2024-09-07T08:59:45.352Z,212171,0.011169434,0.9768677,-0.120910645
1725699585394,2024-09-07T08:59:45.394Z,212213,0.030883789,1.012085,-0.13916016
1725699585413,2024-09-07T08:59:45.413Z,212232,0.015808105,1.0077515,-0.09118652
1725699585437,2024-09-07T08:59:45.437Z,212256,0.032348633,1.0482178,-0.1784668
1725699585483,2024-09-07T08:59:45.483Z,212302,0.010803223,1.001831,-0.07727051
1725699585542,2024-09-07T08:59:45.542Z,212361,0.033325195,1.0335083,-0.17565918
1725699585574,2024-09-07T08:59:45.574Z,212393,0.010803223,1.0219116,-0.12774658
1725699585618,2024-09-07T08:59:45.618Z,212437,0.060791016,1.0352783,-0.14276123
1725699585664,2024-09-07T08:59:45.664Z,212483,-0.005004883,0.9977417,-0.13305664
1725699585709,2024-09-07T08:59:45.709Z,212528,0.0049438477,1.034668,-0.17895508
1725699585753,2024-09-07T08:59:45.753Z,212572,0.035827637,0.9760742,-0.13171387
1725699585801,2024-09-07T08:59:45.801Z,212620,0.012512207,1.0122681,-0.17449951
1725699585819,2024-09-07T08:59:45.819Z,212638,0.054870605,0.98913574,-0.12084961
1725699585840,2024-09-07T08:59:45.840Z,212659,-0.0065307617,1.0352173,-0.2131958
1725699585889,2024-09-07T08:59:45.889Z,212708,0.02935791,1.0181274,-0.12414551
1725699585934,2024-09-07T08:59:45.934Z,212753,0.02520752,1.043457,-0.20019531
1725699585982,2024-09-07T08:59:45.982Z,212801,0.03729248,1.0387573,-0.15795898
1725699586024,2024-09-07T08:59:46.024Z,212843,0.0038452148,1.0316772,-0.18115234
1725699586068,2024-09-07T08:59:46.068Z,212887,0.03668213,1.0463867,-0.16625977
1725699586161,2024-09-07T08:59:46.161Z,212980,0.027038574,1.0530396,-0.1652832
1725699586179,2024-09-07T08:59:46.179Z,212998,0.016540527,1.0233154,-0.18029785
1725699586201,2024-09-07T08:59:46.201Z,213020,0.03289795,1.0574341,-0.17529297
1725699586216,2024-09-07T08:59:46.216Z,213035,0.014831543,1.020813,-0.16998291
1725699586248,2024-09-07T08:59:46.248Z,213067,0.026184082,1.0419922,-0.1730957
1725699586295,2024-09-07T08:59:46.295Z,213114,-0.0018920898,1.0336304,-0.19726562
1725699586339,2024-09-07T08:59:46.339Z,213158,0.0357666,1.0340576,-0.15026855
1725699586384,2024-09-07T08:59:46.384Z,213203,0.039489746,1.0384521,-0.17962646
1725699586432,2024-09-07T08:59:46.432Z,213251,0.014282227,1.0183105,-0.13897705
1725699586473,2024-09-07T08:59:46.473Z,213292,0.0115356445,1.0727539,-0.2631836
1725699586520,2024-09-07T08:59:46.520Z,213339,0.036743164,1.0549316,-0.10626221
1725699586563,2024-09-07T08:59:46.563Z,213382,0.039855957,1.0924072,-0.21838379
1725699586609,2024-09-07T08:59:46.609Z,213428,0.035705566,1.069519,-0.16101074
1725699586626,2024-09-07T08:59:46.626Z,213445,0.031433105,1.1018066,-0.1987915
1725699586654,2024-09-07T08:59:46.654Z,213473,0.025634766,1.1022949,-0.1449585
1725699586698,2024-09-07T08:59:46.698Z,213517,0.05493164,1.1011963,-0.18103027
1725699586745,2024-09-07T08:59:46.745Z,213564,0.039367676,1.1086426,-0.15667725
1725699586790,2024-09-07T08:59:46.790Z,213609,0.05230713,1.0982666,-0.13104248
1725699586836,2024-09-07T08:59:46.836Z,213655,0.02947998,1.1356201,-0.17572021
1725699586880,2024-09-07T08:59:46.880Z,213699,0.034423828,1.1063843,-0.11651611
1725699586923,2024-09-07T08:59:46.923Z,213742,0.049438477,1.1088257,-0.14508057
1725699586969,2024-09-07T08:59:46.969Z,213788,0.009460449,1.0419922,-0.11010742
1725699587014,2024-09-07T08:59:47.014Z,213833,0.041992188,1.0214844,-0.10913086
1725699587059,2024-09-07T08:59:47.059Z,213878,0.035583496,0.99768066,-0.101379395
1725699587080,2024-09-07T08:59:47.080Z,213899,0.018310547,0.9614868,-0.055358887
1725699587103,2024-09-07T08:59:47.103Z,213922,0.024658203,0.9888916,-0.07910156
1725699587151,2024-09-07T08:59:47.151Z,213970,0.052368164,0.94470215,-0.033447266
1725699587196,2024-09-07T08:59:47.196Z,214015,0.018432617,0.9971924,-0.06109619
1725699587287,2024-09-07T08:59:47.287Z,214106,0.0390625,0.96813965,-0.0059814453
1725699587309,2024-09-07T08:59:47.309Z,214128,0.039611816,0.99871826,-0.028259277
1725699587330,2024-09-07T08:59:47.330Z,214149,0.042175293,0.9645386,0.015808105
1725699587375,2024-09-07T08:59:47.375Z,214194,0.055236816,0.99835205,0.016113281
1725699587420,2024-09-07T08:59:47.420Z,214239,0.04272461,0.963562,0.02935791
1725699587464,2024-09-07T08:59:47.464Z,214283,0.052856445,0.9526367,0.067871094
1725699587483,2024-09-07T08:59:47.483Z,214302,0.03881836,0.92529297,0.06304932
1725699587507,2024-09-07T08:59:47.507Z,214326,0.059753418,0.92211914,0.07720947
1725699587554,2024-09-07T08:59:47.554Z,214373,0.04522705,0.9276123,0.061401367
1725699587600,2024-09-07T08:59:47.600Z,214419,0.057250977,0.90979004,0.12719727
1725699587648,2024-09-07T08:59:47.648Z,214467,0.05657959,0.9321289,0.105773926
1725699587693,2024-09-07T08:59:47.693Z,214512,0.08013916,0.89630127,0.14727783
1725699587735,2024-09-07T08:59:47.735Z,214554,0.08062744,0.9428711,0.13104248
1725699587784,2024-09-07T08:59:47.784Z,214603,0.059570312,0.9142456,0.18286133
1725699587825,2024-09-07T08:59:47.825Z,214644,0.067871094,0.94421387,0.12097168
1725699587872,2024-09-07T08:59:47.872Z,214691,0.07489014,0.94647217,0.215271
1725699587899,2024-09-07T08:59:47.899Z,214718,0.07183838,0.9711304,0.15411377
1725699587916,2024-09-07T08:59:47.916Z,214735,0.055419922,0.96624756,0.20397949
1725699587958,2024-09-07T08:59:47.958Z,214777,0.097351074,0.982605,0.17419434
1725699588004,2024-09-07T08:59:48.004Z,214823,0.07556152,0.9675293,0.17602539
1725699588052,2024-09-07T08:59:48.052Z,214871,0.09613037,0.9724121,0.18206787
1725699588092,2024-09-07T08:59:48.092Z,214911,0.08013916,0.9968872,0.11999512
1725699588141,2024-09-07T08:59:48.141Z,214960,0.09118652,0.97351074,0.24975586
1725699588187,2024-09-07T08:59:48.187Z,215006,0.08520508,1.0078125,0.20953369
1725699588232,2024-09-07T08:59:48.232Z,215051,0.08526611,0.98742676,0.23187256
1725699588278,2024-09-07T08:59:48.278Z,215097,0.09686279,0.9953613,0.22485352
1725699588322,2024-09-07T08:59:48.322Z,215141,0.09869385,0.98339844,0.18707275
1725699588344,2024-09-07T08:59:48.344Z,215163,0.12927246,0.9812622,0.19396973
1725699588365,2024-09-07T08:59:48.365Z,215184,0.12286377,0.99346924,0.17358398
1725699588407,2024-09-07T08:59:48.407Z,215226,0.1539917,1.0084229,0.21685791
1725699588456,2024-09-07T08:59:48.456Z,215275,0.13787842,1.00354,0.20587158
1725699588497,2024-09-07T08:59:48.497Z,215316,0.14324951,0.9908447,0.17010498
1725699588546,2024-09-07T08:59:48.546Z,215365,0.14520264,0.9734497,0.1831665
1725699588591,2024-09-07T08:59:48.591Z,215410,0.1159668,0.95477295,0.17749023
1725699588634,2024-09-07T08:59:48.634Z,215453,0.11779785,0.9779663,0.18560791
1725699588678,2024-09-07T08:59:48.678Z,215497,0.10998535,0.97839355,0.22784424
1725699588723,2024-09-07T08:59:48.723Z,215542,0.103515625,0.9871216,0.18640137
1725699588748,2024-09-07T08:59:48.748Z,215567,0.12438965,0.9876709,0.18463135
1725699588770,2024-09-07T08:59:48.770Z,215589,0.09887695,0.97839355,0.14587402
1725699588813,2024-09-07T08:59:48.813Z,215632,0.12158203,0.97265625,0.14666748
1725699588860,2024-09-07T08:59:48.860Z,215679,0.11175537,0.9784546,0.13153076
1725699588905,2024-09-07T08:59:48.905Z,215724,0.10437012,0.9764404,0.14434814
1725699588950,2024-09-07T08:59:48.950Z,215769,0.0848999,0.97961426,0.1395874
1725699588994,2024-09-07T08:59:48.994Z,215813,0.10583496,0.97595215,0.119140625
1725699589040,2024-09-07T08:59:49.040Z,215859,0.09033203,0.95721436,0.13043213
1725699589085,2024-09-07T08:59:49.085Z,215904,0.09259033,0.97784424,0.095458984
1725699589128,2024-09-07T08:59:49.128Z,215947,0.068847656,0.9859009,0.10076904
1725699589146,2024-09-07T08:59:49.146Z,215965,0.06524658,1.0076294,0.080078125
1725699589176,2024-09-07T08:59:49.176Z,215995,0.07849121,1.0032959,0.084472656
1725699589218,2024-09-07T08:59:49.218Z,216037,0.044006348,0.98309326,0.0715332
1725699589265,2024-09-07T08:59:49.265Z,216084,0.06549072,0.98620605,0.047302246
1725699589309,2024-09-07T08:59:49.309Z,216128,0.08270264,0.9802246,0.07720947
1725699589357,2024-09-07T08:59:49.357Z,216176,0.037902832,0.9702759,0.024047852
1725699589400,2024-09-07T08:59:49.400Z,216219,0.04925537,0.99731445,0.025512695
1725699589442,2024-09-07T08:59:49.442Z,216261,0.06237793,0.972229,0.033325195
1725699589491,2024-09-07T08:59:49.491Z,216310,0.021728516,0.9656372,0.0024414062
1725699589537,2024-09-07T08:59:49.537Z,216356,0.055664062,0.96990967,0.0064086914
1725699589581,2024-09-07T08:59:49.581Z,216400,0.07952881,0.9552002,-7.9345703E-4
1725699589604,2024-09-07T08:59:49.604Z,216423,0.007507324,0.97753906,-0.03729248
1725699589622,2024-09-07T08:59:49.622Z,216441,0.004638672,0.9864502,-0.06213379
1725699589671,2024-09-07T08:59:49.671Z,216490,0.06286621,1.0192261,-0.044799805
1725699589718,2024-09-07T08:59:49.718Z,216537,0.006958008,1.0046997,-0.04736328
1725699589757,2024-09-07T08:59:49.757Z,216576,0.0211792,1.0220337,-0.09790039
1725699589805,2024-09-07T08:59:49.805Z,216624,0.037109375,0.99975586,-0.04663086
1725699589852,2024-09-07T08:59:49.852Z,216671,0.008972168,1.0024414,-0.123291016
1725699589895,2024-09-07T08:59:49.895Z,216714,0.03552246,1.0232544,-0.06677246
1725699589943,2024-09-07T08:59:49.943Z,216762,0.01965332,1.0321045,-0.08679199
1725699589982,2024-09-07T08:59:49.982Z,216801,0.0053100586,1.0332031,-0.13665771
1725699590002,2024-09-07T08:59:50.002Z,216821,0.005554199,1.0322876,-0.103393555
1725699590027,2024-09-07T08:59:50.027Z,216846,0.02709961,1.0341797,-0.1418457
1725699590072,2024-09-07T08:59:50.072Z,216891,-0.008972168,1.0153198,-0.12298584
1725699590120,2024-09-07T08:59:50.120Z,216939,0.009887695,0.9871826,-0.13787842
1725699590162,2024-09-07T08:59:50.162Z,216981,0.032409668,0.9902344,-0.120910645
1725699590210,2024-09-07T08:59:50.210Z,217029,0.01763916,0.9986572,-0.13122559
1725699590254,2024-09-07T08:59:50.254Z,217073,0.038208008,1.0119629,-0.14349365
1725699590297,2024-09-07T08:59:50.297Z,217116,0.004638672,1.0158691,-0.13189697
1725699590345,2024-09-07T08:59:50.345Z,217164,-0.004760742,1.0186768,-0.17242432
1725699590388,2024-09-07T08:59:50.388Z,217207,0.040100098,1.029541,-0.13226318
1725699590408,2024-09-07T08:59:50.408Z,217227,-0.008728027,1.0407715,-0.15405273
1725699590431,2024-09-07T08:59:50.431Z,217250,0.005065918,1.017395,-0.171875
1725699590477,2024-09-07T08:59:50.477Z,217296,0.041259766,1.0238037,-0.14898682
1725699590525,2024-09-07T08:59:50.525Z,217344,0.011657715,0.9974365,-0.14648438
1725699590571,2024-09-07T08:59:50.571Z,217390,0.016601562,1.019165,-0.17767334
1725699590616,2024-09-07T08:59:50.616Z,217435,0.013793945,0.9954834,-0.14691162
1725699590661,2024-09-07T08:59:50.661Z,217480,0.026855469,1.0038452,-0.15222168
1725699590705,2024-09-07T08:59:50.705Z,217524,0.01574707,0.989563,-0.15887451
1725699590750,2024-09-07T08:59:50.750Z,217569,0.028808594,1.0285645,-0.18457031
1725699590796,2024-09-07T08:59:50.796Z,217615,0.032958984,1.008728,-0.1461792
1725699590843,2024-09-07T08:59:50.843Z,217662,0.014770508,1.0495605,-0.22070312
1725699590869,2024-09-07T08:59:50.869Z,217688,0.035461426,1.0565796,-0.16815186
1725699590886,2024-09-07T08:59:50.886Z,217705,0.03717041,1.0847168,-0.15985107
1725699590929,2024-09-07T08:59:50.929Z,217748,0.012268066,1.0940552,-0.19335938
1725699590976,2024-09-07T08:59:50.976Z,217795,0.022888184,1.0645142,-0.17602539
1725699591017,2024-09-07T08:59:51.017Z,217836,0.010864258,1.0819702,-0.21057129
1725699591066,2024-09-07T08:59:51.066Z,217885,-0.0010375977,1.0638428,-0.20635986
1725699591110,2024-09-07T08:59:51.110Z,217929,0.010253906,1.0327759,-0.19732666
1725699591155,2024-09-07T08:59:51.155Z,217974,-0.0048217773,1.0161743,-0.18847656
1725699591198,2024-09-07T08:59:51.198Z,218017,-0.002319336,0.9857178,-0.18109131
1725699591243,2024-09-07T08:59:51.243Z,218062,-0.01727295,1.0061646,-0.23431396
1725699591264,2024-09-07T08:59:51.264Z,218083,0.011779785,0.9888916,-0.16601562
1725699591287,2024-09-07T08:59:51.287Z,218106,0.0059814453,1.0358276,-0.21044922
1725699591334,2024-09-07T08:59:51.334Z,218153,-0.005859375,1.0598755,-0.20697021
1725699591380,2024-09-07T08:59:51.380Z,218199,0.021118164,1.1554565,-0.2290039
1725699591424,2024-09-07T08:59:51.424Z,218243,-3.6621094E-4,1.145813,-0.21508789
1725699591470,2024-09-07T08:59:51.470Z,218289,0.008178711,1.1367798,-0.1864624
1725699591515,2024-09-07T08:59:51.515Z,218334,0.048583984,1.1169434,-0.18328857
1725699591561,2024-09-07T08:59:51.561Z,218380,-0.0071411133,1.0941162,-0.18066406
1725699591605,2024-09-07T08:59:51.605Z,218424,0.03881836,1.0894775,-0.16931152
1725699591649,2024-09-07T08:59:51.649Z,218468,0.0034179688,1.06073,-0.14605713
1725699591666,2024-09-07T08:59:51.666Z,218485,0.022277832,1.0722656,-0.1484375
1725699591695,2024-09-07T08:59:51.695Z,218514,0.0079956055,1.0220947,-0.1585083
1725699591737,2024-09-07T08:59:51.737Z,218556,0.0357666,1.0269775,-0.10241699
1725699591783,2024-09-07T08:59:51.783Z,218602,0.031921387,1.0044556,-0.103759766
1725699591831,2024-09-07T08:59:51.831Z,218650,0.036499023,1.0089722,-0.13500977
1725699591873,2024-09-07T08:59:51.873Z,218692,0.025756836,1.001709,-0.06121826
1725699591917,2024-09-07T08:59:51.917Z,218736,0.010131836,1.0021973,-0.1126709
1725699591964,2024-09-07T08:59:51.964Z,218783,0.040283203,1.0009155,-0.037353516
1725699592009,2024-09-07T08:59:52.009Z,218828,0.025146484,0.9614258,-0.035888672
1725699592056,2024-09-07T08:59:52.056Z,218875,0.023925781,0.9871216,-0.054382324
1725699592101,2024-09-07T08:59:52.101Z,218920,0.03338623,0.954895,0.016906738
1725699592121,2024-09-07T08:59:52.121Z,218940,0.06365967,1.0256958,-0.0028076172
1725699592144,2024-09-07T08:59:52.144Z,218963,0.09307861,0.9668579,0.095214844
1725699592188,2024-09-07T08:59:52.188Z,219007,0.074523926,0.9470825,0.003112793
1725699592235,2024-09-07T08:59:52.235Z,219054,0.118774414,0.87945557,0.15704346
1725699592279,2024-09-07T08:59:52.279Z,219098,0.09552002,0.887146,0.093688965
1725699592323,2024-09-07T08:59:52.323Z,219142,0.11798096,0.8928833,0.14105225
1725699592373,2024-09-07T08:59:52.373Z,219192,0.10534668,0.9020386,0.1194458
1725699592415,2024-09-07T08:59:52.415Z,219234,0.078430176,0.9439087,0.10028076
1725699592462,2024-09-07T08:59:52.462Z,219281,0.089782715,0.89630127,0.16235352
1725699592505,2024-09-07T08:59:52.505Z,219324,0.09509277,0.9366455,0.12780762
1725699592527,2024-09-07T08:59:52.527Z,219346,0.091308594,0.89520264,0.1697998
1725699592552,2024-09-07T08:59:52.552Z,219371,0.07318115,0.92456055,0.18255615
1725699592592,2024-09-07T08:59:52.592Z,219411,0.06628418,0.88757324,0.25512695
1725699592641,2024-09-07T08:59:52.641Z,219460,0.07678223,0.9528198,0.21551514
1725699592685,2024-09-07T08:59:52.685Z,219504,0.086364746,0.94799805,0.21478271
1725699592730,2024-09-07T08:59:52.730Z,219549,0.083862305,1.0111084,0.13641357
1725699592776,2024-09-07T08:59:52.776Z,219595,0.10656738,1.0057373,0.22314453
1725699592821,2024-09-07T08:59:52.821Z,219640,0.098083496,1.0025024,0.20050049
1725699592867,2024-09-07T08:59:52.867Z,219686,0.17993164,0.95983887,0.28216553
1725699592914,2024-09-07T08:59:52.914Z,219733,0.17059326,0.9942627,0.19085693
1725699592944,2024-09-07T08:59:52.944Z,219763,0.17559814,0.9710083,0.23742676
1725699592966,2024-09-07T08:59:52.966Z,219785,0.14886475,1.013916,0.15454102
1725699592997,2024-09-07T08:59:52.997Z,219816,0.16265869,0.9998779,0.24273682
1725699593045,2024-09-07T08:59:53.045Z,219864,0.1394043,1.0108032,0.19244385
1725699593092,2024-09-07T08:59:53.092Z,219911,0.1618042,0.9772949,0.23059082
1725699593137,2024-09-07T08:59:53.137Z,219956,0.15997314,0.9758301,0.22705078
1725699593179,2024-09-07T08:59:53.179Z,219998,0.13916016,0.96343994,0.18371582
1725699593227,2024-09-07T08:59:53.227Z,220046,0.15222168,0.98101807,0.17980957
1725699593271,2024-09-07T08:59:53.271Z,220090,0.15045166,0.9764404,0.17828369
1725699593309,2024-09-07T08:59:53.309Z,220128,0.13665771,0.9953003,0.17590332
1725699593355,2024-09-07T08:59:53.355Z,220174,0.13482666,0.9929199,0.18591309
1725699593364,2024-09-07T08:59:53.364Z,220183,0.12963867,0.98339844,0.19494629
1725699593398,2024-09-07T08:59:53.398Z,220217,0.124816895,0.973938,0.17706299
1725699593443,2024-09-07T08:59:53.443Z,220262,0.10583496,0.9614258,0.19122314
