Timestamp (ms),ISO DateTime,Elapsed Time (ms),Acceleration X,Acceleration Y,Acceleration Z
1734714221291,2024-12-20T17:03:41.291Z,20441,0.027770996,0.12017822,0.019042969
1734714221310,2024-12-20T17:03:41.310Z,20460,0.026306152,0.11987305,0.016723633
1734714221324,2024-12-20T17:03:41.324Z,20474,0.028259277,0.12042236,0.013793945
1734714221341,2024-12-20T17:03:41.341Z,20491,0.030212402,0.12011719,0.0146484375
1734714221354,2024-12-20T17:03:41.354Z,20504,0.02935791,0.11968994,0.018249512
1734714221369,2024-12-20T17:03:41.369Z,20519,0.030761719,0.1194458,0.021606445
1734714221382,2024-12-20T17:03:41.382Z,20532,0.030944824,0.12042236,0.0234375
1734714221395,2024-12-20T17:03:41.395Z,20545,0.027709961,0.12023926,0.023925781
1734714221407,2024-12-20T17:03:41.407Z,20557,0.026306152,0.1204834,0.022583008
1734714221417,2024-12-20T17:03:41.417Z,20567,0.028320312,0.120666504,0.019897461
1734714221426,2024-12-20T17:03:41.426Z,20576,0.028564453,0.12097168,0.018493652
1734714221435,2024-12-20T17:03:41.435Z,20585,0.029052734,0.121032715,0.019348145
1734714221444,2024-12-20T17:03:41.444Z,20594,0.02923584,0.11987305,0.020202637
1734714221451,2024-12-20T17:03:41.451Z,20601,0.027709961,0.12017822,0.019714355
1734714221459,2024-12-20T17:03:41.459Z,20609,0.026611328,0.1204834,0.020446777
1734714221468,2024-12-20T17:03:41.468Z,20618,0.026794434,0.1194458,0.021606445
1734714221476,2024-12-20T17:03:41.476Z,20626,0.027893066,0.11932373,0.0211792
1734714221484,2024-12-20T17:03:41.484Z,20634,0.028747559,0.119262695,0.020996094
1734714221492,2024-12-20T17:03:41.492Z,20642,0.030273438,0.119140625,0.020629883
1734714221503,2024-12-20T17:03:41.503Z,20653,0.030090332,0.11999512,0.019226074
1734714221511,2024-12-20T17:03:41.511Z,20661,0.027954102,0.1194458,0.018676758
1734714221518,2024-12-20T17:03:41.518Z,20668,0.02758789,0.11968994,0.019714355
1734714221527,2024-12-20T17:03:41.527Z,20677,0.028259277,0.11987305,0.021606445
1734714221536,2024-12-20T17:03:41.536Z,20686,0.027160645,0.12060547,0.02331543
1734714221544,2024-12-20T17:03:41.544Z,20694,0.028137207,0.12072754,0.022766113
1734714221554,2024-12-20T17:03:41.554Z,20704,0.029968262,0.12023926,0.020935059
1734714221562,2024-12-20T17:03:41.562Z,20712,0.0289917,0.121032715,0.019897461
1734714221571,2024-12-20T17:03:41.571Z,20721,0.028015137,0.12042236,0.017944336
1734714221579,2024-12-20T17:03:41.579Z,20729,0.028747559,0.12005615,0.015991211
1734714221587,2024-12-20T17:03:41.587Z,20737,0.02947998,0.11975098,0.01751709
1734714221595,2024-12-20T17:03:41.595Z,20745,0.028076172,0.11981201,0.020996094
1734714221604,2024-12-20T17:03:41.604Z,20754,0.028686523,0.12023926,0.022399902
1734714221611,2024-12-20T17:03:41.611Z,20761,0.030395508,0.12072754,0.021972656
1734714221619,2024-12-20T17:03:41.619Z,20769,0.029724121,0.11993408,0.020996094
1734714221627,2024-12-20T17:03:41.627Z,20777,0.027954102,0.119628906,0.019592285
1734714221636,2024-12-20T17:03:41.636Z,20786,0.02746582,0.11968994,0.018371582
1734714221689,2024-12-20T17:03:41.689Z,20839,0.027709961,0.11975098,0.016723633
1734714221698,2024-12-20T17:03:41.698Z,20848,0.026916504,0.119628906,0.016723633
1734714221705,2024-12-20T17:03:41.705Z,20855,0.027282715,0.12023926,0.01751709
1734714221713,2024-12-20T17:03:41.713Z,20863,0.0289917,0.12054443,0.018737793
1734714221722,2024-12-20T17:03:41.722Z,20872,0.029907227,0.12017822,0.020507812
1734714221731,2024-12-20T17:03:41.731Z,20881,0.029785156,0.11993408,0.02178955
1734714221741,2024-12-20T17:03:41.741Z,20891,0.027954102,0.1204834,0.021728516
1734714221751,2024-12-20T17:03:41.751Z,20901,0.026550293,0.12121582,0.020263672
1734714221761,2024-12-20T17:03:41.761Z,20911,0.028320312,0.12109375,0.01763916
1734714221770,2024-12-20T17:03:41.770Z,20920,0.029052734,0.12109375,0.017089844
1734714221779,2024-12-20T17:03:41.779Z,20929,0.028869629,0.120666504,0.017944336
1734714221787,2024-12-20T17:03:41.787Z,20937,0.02960205,0.121398926,0.018249512
1734714221827,2024-12-20T17:03:41.827Z,20977,0.028503418,0.121154785,0.018615723
1734714221837,2024-12-20T17:03:41.837Z,20987,0.026977539,0.120666504,0.01965332
1734714221847,2024-12-20T17:03:41.847Z,20997,0.02746582,0.121032715,0.020263672
1734714221855,2024-12-20T17:03:41.855Z,21005,0.02911377,0.121154785,0.019592285
1734714221864,2024-12-20T17:03:41.864Z,21014,0.029907227,0.12121582,0.019165039
1734714221872,2024-12-20T17:03:41.872Z,21022,0.029541016,0.12060547,0.018127441
1734714221880,2024-12-20T17:03:41.880Z,21030,0.02923584,0.120666504,0.017211914
1734714221890,2024-12-20T17:03:41.890Z,21040,0.028076172,0.12011719,0.016113281
1734714221900,2024-12-20T17:03:41.900Z,21050,0.026306152,0.119384766,0.016296387
1734714221909,2024-12-20T17:03:41.909Z,21059,0.027038574,0.120788574,0.018005371
1734714221918,2024-12-20T17:03:41.918Z,21068,0.02722168,0.12097168,0.017578125
1734714221926,2024-12-20T17:03:41.926Z,21076,0.028076172,0.12054443,0.018798828
1734714221934,2024-12-20T17:03:41.934Z,21084,0.028625488,0.121154785,0.018859863
1734714221942,2024-12-20T17:03:41.942Z,21092,0.02758789,0.11993408,0.01727295
1734714221949,2024-12-20T17:03:41.949Z,21099,0.02722168,0.120910645,0.016540527
1734714221957,2024-12-20T17:03:41.957Z,21107,0.028198242,0.12194824,0.014831543
1734714221965,2024-12-20T17:03:41.965Z,21115,0.028747559,0.12036133,0.015380859
1734714221973,2024-12-20T17:03:41.973Z,21123,0.028747559,0.11920166,0.017089844
1734714221983,2024-12-20T17:03:41.983Z,21133,0.03100586,0.119018555,0.019714355
1734714221991,2024-12-20T17:03:41.991Z,21141,0.030212402,0.12036133,0.022216797
1734714222000,2024-12-20T17:03:42Z,21150,0.02746582,0.12054443,0.01977539
1734714222008,2024-12-20T17:03:42.008Z,21158,0.028137207,0.11798096,0.01776123
1734714222017,2024-12-20T17:03:42.017Z,21167,0.027038574,0.11920166,0.016845703
1734714222026,2024-12-20T17:03:42.026Z,21176,0.028015137,0.12060547,0.014587402
1734714222036,2024-12-20T17:03:42.036Z,21186,0.028381348,0.12023926,0.014099121
1734714222045,2024-12-20T17:03:42.045Z,21195,0.030151367,0.11975098,0.016418457
1734714222055,2024-12-20T17:03:42.055Z,21205,0.031066895,0.12072754,0.01727295
1734714222062,2024-12-20T17:03:42.062Z,21212,0.027404785,0.12121582,0.016174316
1734714222071,2024-12-20T17:03:42.071Z,21221,0.025146484,0.120666504,0.0154418945
1734714222079,2024-12-20T17:03:42.079Z,21229,0.025634766,0.12097168,0.014953613
1734714222093,2024-12-20T17:03:42.093Z,21243,0.028808594,0.12072754,0.014587402
1734714222104,2024-12-20T17:03:42.104Z,21254,0.032470703,0.12072754,0.015075684
1734714222118,2024-12-20T17:03:42.118Z,21268,0.030090332,0.12225342,0.016540527
1734714222127,2024-12-20T17:03:42.127Z,21277,0.028076172,0.12133789,0.017028809
1734714222136,2024-12-20T17:03:42.136Z,21286,0.026306152,0.1217041,0.015686035
1734714222144,2024-12-20T17:03:42.144Z,21294,0.023742676,0.12237549,0.014526367
1734714222154,2024-12-20T17:03:42.154Z,21304,0.0256958,0.121032715,0.013671875
1734714222164,2024-12-20T17:03:42.164Z,21314,0.027709961,0.12237549,0.014343262
1734714222173,2024-12-20T17:03:42.173Z,21323,0.02746582,0.123291016,0.012573242
1734714222183,2024-12-20T17:03:42.183Z,21333,0.031188965,0.12023926,0.01184082
1734714222192,2024-12-20T17:03:42.192Z,21342,0.033813477,0.12109375,0.014709473
1734714222201,2024-12-20T17:03:42.201Z,21351,0.026672363,0.12365723,0.014587402
1734714222210,2024-12-20T17:03:42.210Z,21360,0.024963379,0.11981201,0.015319824
1734714222221,2024-12-20T17:03:42.221Z,21371,0.025939941,0.12182617,0.018615723
1734714222232,2024-12-20T17:03:42.232Z,21382,0.026000977,0.12249756,0.01763916
1734714222242,2024-12-20T17:03:42.242Z,21392,0.024902344,0.12109375,0.014465332
1734714222251,2024-12-20T17:03:42.251Z,21401,0.026306152,0.12097168,0.0134887695
1734714222262,2024-12-20T17:03:42.262Z,21412,0.026184082,0.12231445,0.013122559
1734714222272,2024-12-20T17:03:42.272Z,21422,0.028137207,0.12072754,0.012756348
1734714222281,2024-12-20T17:03:42.281Z,21431,0.031066895,0.120666504,0.013366699
1734714222289,2024-12-20T17:03:42.289Z,21439,0.03112793,0.11999512,0.016052246
1734714222298,2024-12-20T17:03:42.298Z,21448,0.028869629,0.11956787,0.019104004
1734714222306,2024-12-20T17:03:42.306Z,21456,0.022949219,0.12182617,0.018615723
1734714222315,2024-12-20T17:03:42.315Z,21465,0.02142334,0.12219238,0.015319824
1734714222323,2024-12-20T17:03:42.323Z,21473,0.020996094,0.12225342,0.013366699
1734714222331,2024-12-20T17:03:42.331Z,21481,0.026184082,0.12042236,0.012817383
1734714222340,2024-12-20T17:03:42.340Z,21490,0.03564453,0.119506836,0.0119018555
1734714222348,2024-12-20T17:03:42.348Z,21498,0.036071777,0.11999512,0.010986328
1734714222356,2024-12-20T17:03:42.356Z,21506,0.027282715,0.11920166,0.010437012
1734714222366,2024-12-20T17:03:42.366Z,21516,0.022277832,0.12036133,0.011779785
1734714222374,2024-12-20T17:03:42.374Z,21524,0.025817871,0.121032715,0.013000488
1734714222383,2024-12-20T17:03:42.383Z,21533,0.029846191,0.11987305,0.014526367
1734714222392,2024-12-20T17:03:42.392Z,21542,0.032470703,0.119384766,0.016540527
1734714222409,2024-12-20T17:03:42.409Z,21559,0.032958984,0.11999512,0.016235352
1734714222418,2024-12-20T17:03:42.418Z,21568,0.028198242,0.12145996,0.012939453
1734714222428,2024-12-20T17:03:42.428Z,21578,0.026977539,0.1194458,0.011779785
1734714222437,2024-12-20T17:03:42.437Z,21587,0.032104492,0.11999512,0.010253906
1734714222446,2024-12-20T17:03:42.446Z,21596,0.0357666,0.11828613,0.007873535
1734714222456,2024-12-20T17:03:42.456Z,21606,0.03289795,0.11785889,0.006713867
1734714222465,2024-12-20T17:03:42.465Z,21615,0.02758789,0.12036133,0.008422852
1734714222473,2024-12-20T17:03:42.473Z,21623,0.026977539,0.11968994,0.0076293945
1734714222481,2024-12-20T17:03:42.481Z,21631,0.028259277,0.1184082,0.007751465
1734714222497,2024-12-20T17:03:42.497Z,21647,0.028259277,0.118652344,0.008728027
1734714222545,2024-12-20T17:03:42.545Z,21695,0.028869629,0.118896484,0.006652832
1734714222553,2024-12-20T17:03:42.553Z,21703,0.028869629,0.11730957,0.0061035156
1734714222561,2024-12-20T17:03:42.561Z,21711,0.031433105,0.115356445,0.0075683594
1734714222568,2024-12-20T17:03:42.568Z,21718,0.028808594,0.11785889,0.007385254
1734714222575,2024-12-20T17:03:42.575Z,21725,0.02709961,0.11846924,0.004333496
1734714222583,2024-12-20T17:03:42.583Z,21733,0.028930664,0.11773682,0.0037231445
1734714222592,2024-12-20T17:03:42.592Z,21742,0.03186035,0.116760254,0.005554199
1734714222599,2024-12-20T17:03:42.599Z,21749,0.030090332,0.11779785,0.009460449
1734714222606,2024-12-20T17:03:42.606Z,21756,0.02532959,0.11999512,0.010559082
1734714222614,2024-12-20T17:03:42.614Z,21764,0.025268555,0.12017822,0.0087890625
1734714222625,2024-12-20T17:03:42.625Z,21775,0.022705078,0.12030029,0.0076904297
1734714222635,2024-12-20T17:03:42.635Z,21785,0.023254395,0.122680664,0.005065918
1734714222644,2024-12-20T17:03:42.644Z,21794,0.030639648,0.121154785,0.0018310547
1734714222652,2024-12-20T17:03:42.652Z,21802,0.031066895,0.12145996,0.0029296875
1734714222662,2024-12-20T17:03:42.662Z,21812,0.03314209,0.12109375,0.0037231445
1734714222671,2024-12-20T17:03:42.671Z,21821,0.03375244,0.12060547,0.005065918
1734714222680,2024-12-20T17:03:42.680Z,21830,0.0256958,0.12164307,0.0095825195
1734714222687,2024-12-20T17:03:42.687Z,21837,0.026794434,0.121276855,0.013061523
1734714222695,2024-12-20T17:03:42.695Z,21845,0.028381348,0.12225342,0.01373291
1734714222704,2024-12-20T17:03:42.704Z,21854,0.027832031,0.12249756,0.01159668
1734714222710,2024-12-20T17:03:42.710Z,21860,0.02545166,0.12426758,0.0064086914
1734714222722,2024-12-20T17:03:42.722Z,21872,0.025817871,0.123413086,1.2207031E-4
1734714222731,2024-12-20T17:03:42.731Z,21881,0.0289917,0.12097168,-0.0020751953
1734714222739,2024-12-20T17:03:42.739Z,21889,0.030395508,0.121276855,-0.0014038086
1734714222748,2024-12-20T17:03:42.748Z,21898,0.030334473,0.120910645,0.0020751953
1734714222755,2024-12-20T17:03:42.755Z,21905,0.029418945,0.11956787,0.005554199
1734714222766,2024-12-20T17:03:42.766Z,21916,0.02722168,0.12164307,0.0063476562
1734714222817,2024-12-20T17:03:42.817Z,21967,0.025756836,0.12286377,0.0072631836
1734714222824,2024-12-20T17:03:42.824Z,21974,0.025939941,0.12359619,0.005432129
1734714222832,2024-12-20T17:03:42.832Z,21982,0.024963379,0.12390137,0.002746582
1734714222839,2024-12-20T17:03:42.839Z,21989,0.026306152,0.121032715,7.324219E-4
1734714222847,2024-12-20T17:03:42.847Z,21997,0.030090332,0.12030029,2.4414062E-4
1734714222861,2024-12-20T17:03:42.861Z,22011,0.029174805,0.121276855,-0.0014038086
1734714222869,2024-12-20T17:03:42.869Z,22019,0.026062012,0.120788574,-0.0028686523
1734714222878,2024-12-20T17:03:42.878Z,22028,0.026489258,0.120666504,-0.0016479492
1734714222889,2024-12-20T17:03:42.889Z,22039,0.027770996,0.11975098,6.713867E-4
1734714222897,2024-12-20T17:03:42.897Z,22047,0.027709961,0.118896484,0.0015869141
1734714222904,2024-12-20T17:03:42.904Z,22054,0.026306152,0.11987305,0.0015258789
1734714222911,2024-12-20T17:03:42.911Z,22061,0.02520752,0.1204834,0.0014038086
1734714222918,2024-12-20T17:03:42.918Z,22068,0.025268555,0.12005615,0.002380371
1734714222924,2024-12-20T17:03:42.924Z,22074,0.026977539,0.119384766,0.0033569336
1734714222931,2024-12-20T17:03:42.931Z,22081,0.028015137,0.12133789,0.0025024414
1734714222939,2024-12-20T17:03:42.939Z,22089,0.0256958,0.12182617,9.1552734E-4
1734714222947,2024-12-20T17:03:42.947Z,22097,0.023010254,0.12072754,-0.0016479492
1734714222954,2024-12-20T17:03:42.954Z,22104,0.02368164,0.12145996,-0.0028076172
1734714222961,2024-12-20T17:03:42.961Z,22111,0.026733398,0.12176514,-0.002319336
1734714222968,2024-12-20T17:03:42.968Z,22118,0.026977539,0.12310791,-7.9345703E-4
1734714222976,2024-12-20T17:03:42.976Z,22126,0.025634766,0.12237549,-0.0018920898
1734714222991,2024-12-20T17:03:42.991Z,22141,0.024230957,0.12133789,-0.0018310547
1734714222998,2024-12-20T17:03:42.998Z,22148,0.024475098,0.12438965,-0.003112793
1734714223005,2024-12-20T17:03:43.005Z,22155,0.026245117,0.12408447,-0.0028076172
1734714223013,2024-12-20T17:03:43.013Z,22163,0.026367188,0.12390137,-4.272461E-4
1734714223038,2024-12-20T17:03:43.038Z,22188,0.02722168,0.12390137,-2.4414062E-4
1734714223047,2024-12-20T17:03:43.047Z,22197,0.02923584,0.12286377,3.6621094E-4
1734714223054,2024-12-20T17:03:43.054Z,22204,0.0256958,0.121032715,2.4414062E-4
1734714223062,2024-12-20T17:03:43.062Z,22212,0.024902344,0.12249756,-0.001953125
1734714223070,2024-12-20T17:03:43.070Z,22220,0.021484375,0.12579346,-0.00579834
1734714223082,2024-12-20T17:03:43.082Z,22232,0.01928711,0.12359619,-0.009399414
1734714223094,2024-12-20T17:03:43.094Z,22244,0.022460938,0.12176514,-0.008239746
1734714223101,2024-12-20T17:03:43.101Z,22251,0.021728516,0.12512207,-0.004760742
1734714223109,2024-12-20T17:03:43.109Z,22259,0.019104004,0.1237793,-0.0040283203
1734714223129,2024-12-20T17:03:43.129Z,22279,0.020080566,0.1184082,-0.0022583008
1734714223137,2024-12-20T17:03:43.137Z,22287,0.022460938,0.11871338,4.8828125E-4
1734714223146,2024-12-20T17:03:43.146Z,22296,0.024963379,0.12207031,7.324219E-4
1734714223154,2024-12-20T17:03:43.154Z,22304,0.026428223,0.1217041,-0.001953125
1734714223161,2024-12-20T17:03:43.161Z,22311,0.026916504,0.11987305,-0.008361816
1734714223171,2024-12-20T17:03:43.171Z,22321,0.025939941,0.12158203,-0.010559082
1734714223179,2024-12-20T17:03:43.179Z,22329,0.025939941,0.12530518,-0.006958008
1734714223188,2024-12-20T17:03:43.188Z,22338,0.025878906,0.122924805,-0.0013427734
1734714223195,2024-12-20T17:03:43.195Z,22345,0.024780273,0.12109375,5.493164E-4
1734714223222,2024-12-20T17:03:43.222Z,22372,0.022338867,0.1227417,0.001159668
1734714223229,2024-12-20T17:03:43.229Z,22379,0.019714355,0.12506104,-0.0016479492
1734714223237,2024-12-20T17:03:43.237Z,22387,0.019470215,0.12402344,-0.004699707
1734714223244,2024-12-20T17:03:43.244Z,22394,0.025146484,0.124694824,-0.0073242188
1734714223261,2024-12-20T17:03:43.261Z,22411,0.025146484,0.12695312,-0.0095825195
1734714223268,2024-12-20T17:03:43.268Z,22418,0.022277832,0.12188721,-0.010070801
1734714223275,2024-12-20T17:03:43.275Z,22425,0.019836426,0.12084961,-0.006958008
1734714223282,2024-12-20T17:03:43.282Z,22432,0.022338867,0.122558594,-0.0032348633
1734714223289,2024-12-20T17:03:43.289Z,22439,0.022583008,0.122680664,-0.0014648438
1734714223307,2024-12-20T17:03:43.307Z,22457,0.022277832,0.12225342,-0.0026245117
1734714223316,2024-12-20T17:03:43.316Z,22466,0.023376465,0.12030029,-0.0031738281
1734714223326,2024-12-20T17:03:43.326Z,22476,0.02520752,0.119506836,-0.0030517578
1734714223334,2024-12-20T17:03:43.334Z,22484,0.026062012,0.11975098,-0.003967285
1734714223352,2024-12-20T17:03:43.352Z,22502,0.024414062,0.11932373,-0.0041503906
1734714223359,2024-12-20T17:03:43.359Z,22509,0.024475098,0.118652344,-0.0032348633
1734714223366,2024-12-20T17:03:43.366Z,22516,0.02368164,0.119262695,-0.0015869141
1734714223373,2024-12-20T17:03:43.373Z,22523,0.022521973,0.119018555,-0.0028686523
1734714223381,2024-12-20T17:03:43.381Z,22531,0.020324707,0.121032715,-0.0061035156
1734714223397,2024-12-20T17:03:43.397Z,22547,0.021362305,0.119506836,-0.0068969727
1734714223404,2024-12-20T17:03:43.404Z,22554,0.02130127,0.11993408,-0.0075683594
1734714223412,2024-12-20T17:03:43.412Z,22562,0.024230957,0.1194458,-0.008483887
1734714223420,2024-12-20T17:03:43.420Z,22570,0.026062012,0.118774414,-0.008422852
1734714223440,2024-12-20T17:03:43.440Z,22590,0.02508545,0.120788574,-0.0056152344
1734714223450,2024-12-20T17:03:43.450Z,22600,0.024780273,0.12164307,-0.0038452148
1734714223457,2024-12-20T17:03:43.457Z,22607,0.021484375,0.12194824,-0.0026855469
1734714223464,2024-12-20T17:03:43.464Z,22614,0.020202637,0.12390137,-0.0030517578
1734714223472,2024-12-20T17:03:43.472Z,22622,0.019836426,0.12463379,-0.0032958984
1734714223533,2024-12-20T17:03:43.533Z,22683,0.023376465,0.12261963,-0.0037841797
1734714223540,2024-12-20T17:03:43.540Z,22690,0.024902344,0.12359619,-0.0053100586
1734714223546,2024-12-20T17:03:43.546Z,22696,0.024353027,0.12261963,-0.007507324
1734714223554,2024-12-20T17:03:43.554Z,22704,0.023132324,0.12249756,-0.009643555
1734714223562,2024-12-20T17:03:43.562Z,22712,0.021362305,0.123535156,-0.010253906
1734714223570,2024-12-20T17:03:43.570Z,22720,0.020141602,0.12365723,-0.012145996
1734714223582,2024-12-20T17:03:43.582Z,22732,0.020690918,0.1239624,-0.01159668
1734714223589,2024-12-20T17:03:43.589Z,22739,0.020751953,0.12384033,-0.008972168
1734714223596,2024-12-20T17:03:43.596Z,22746,0.020263672,0.12231445,-0.00793457
1734714223606,2024-12-20T17:03:43.606Z,22756,0.0178833,0.12286377,-0.008361816
1734714223614,2024-12-20T17:03:43.614Z,22764,0.019470215,0.12384033,-0.007080078
1734714223623,2024-12-20T17:03:43.623Z,22773,0.02532959,0.12426758,-0.0041503906
1734714223634,2024-12-20T17:03:43.634Z,22784,0.027709961,0.12249756,-0.003112793
1734714223647,2024-12-20T17:03:43.647Z,22797,0.023620605,0.120666504,-0.0028686523
1734714223655,2024-12-20T17:03:43.655Z,22805,0.019104004,0.12219238,-0.0045776367
1734714223663,2024-12-20T17:03:43.663Z,22813,0.016418457,0.12182617,-0.008056641
1734714223670,2024-12-20T17:03:43.670Z,22820,0.01739502,0.1184082,-0.0078125
1734714223677,2024-12-20T17:03:43.677Z,22827,0.020202637,0.11920166,-0.0067749023
1734714223685,2024-12-20T17:03:43.685Z,22835,0.019042969,0.12030029,-0.008483887
1734714223691,2024-12-20T17:03:43.691Z,22841,0.020935059,0.11920166,-0.0078125
1734714223698,2024-12-20T17:03:43.698Z,22848,0.024658203,0.120788574,-0.005554199
1734714223706,2024-12-20T17:03:43.706Z,22856,0.02368164,0.119506836,-0.0048828125
1734714223714,2024-12-20T17:03:43.714Z,22864,0.019592285,0.11834717,-0.0048217773
1734714223723,2024-12-20T17:03:43.723Z,22873,0.0178833,0.119384766,-0.004760742
1734714223731,2024-12-20T17:03:43.731Z,22881,0.01940918,0.11883545,-0.0053710938
1734714223738,2024-12-20T17:03:43.738Z,22888,0.016540527,0.11987305,-0.008117676
1734714223757,2024-12-20T17:03:43.757Z,22907,0.015991211,0.12017822,-0.010009766
1734714223765,2024-12-20T17:03:43.765Z,22915,0.022155762,0.12005615,-0.008605957
1734714223772,2024-12-20T17:03:43.772Z,22922,0.024353027,0.121032715,-0.0068359375
1734714223781,2024-12-20T17:03:43.781Z,22931,0.026611328,0.122558594,-0.009399414
1734714223789,2024-12-20T17:03:43.789Z,22939,0.02142334,0.12463379,-0.0115356445
1734714223802,2024-12-20T17:03:43.802Z,22952,0.022094727,0.12182617,-0.010681152
1734714223811,2024-12-20T17:03:43.811Z,22961,0.019165039,0.12475586,-0.0078125
1734714223818,2024-12-20T17:03:43.818Z,22968,0.017089844,0.12384033,-0.0053710938
1734714223825,2024-12-20T17:03:43.825Z,22975,0.018188477,0.12402344,-0.006286621
1734714223847,2024-12-20T17:03:43.847Z,22997,0.019836426,0.12512207,-0.0067749023
1734714223854,2024-12-20T17:03:43.854Z,23004,0.021728516,0.12579346,-0.009155273
1734714223861,2024-12-20T17:03:43.861Z,23011,0.023071289,0.12731934,-0.013305664
1734714223868,2024-12-20T17:03:43.868Z,23018,0.025024414,0.12573242,-0.014465332
1734714223893,2024-12-20T17:03:43.893Z,23043,0.026000977,0.12609863,-0.014770508
1734714223901,2024-12-20T17:03:43.901Z,23051,0.022460938,0.124816895,-0.013183594
1734714223941,2024-12-20T17:03:43.941Z,23091,0.020385742,0.12438965,-0.009643555
1734714223949,2024-12-20T17:03:43.949Z,23099,0.019897461,0.12536621,-0.0065307617
1734714223957,2024-12-20T17:03:43.957Z,23107,0.019470215,0.12487793,-0.006652832
1734714223964,2024-12-20T17:03:43.964Z,23114,0.018493652,0.12475586,-0.008422852
1734714223972,2024-12-20T17:03:43.972Z,23122,0.020751953,0.12420654,-0.0095825195
1734714223985,2024-12-20T17:03:43.985Z,23135,0.02319336,0.12365723,-0.009094238
1734714223993,2024-12-20T17:03:43.993Z,23143,0.02331543,0.12298584,-0.010192871
1734714224001,2024-12-20T17:03:44.001Z,23151,0.021606445,0.12298584,-0.011352539
1734714224010,2024-12-20T17:03:44.010Z,23160,0.01977539,0.12213135,-0.009765625
1734714224018,2024-12-20T17:03:44.018Z,23168,0.018066406,0.123413086,-0.009338379
1734714224025,2024-12-20T17:03:44.025Z,23175,0.018920898,0.123046875,-0.010681152
1734714224031,2024-12-20T17:03:44.031Z,23181,0.018920898,0.12158203,-0.012084961
1734714224038,2024-12-20T17:03:44.038Z,23188,0.01928711,0.12182617,-0.011413574
1734714224045,2024-12-20T17:03:44.045Z,23195,0.022460938,0.12286377,-0.010437012
1734714224054,2024-12-20T17:03:44.054Z,23204,0.024353027,0.12286377,-0.008728027
1734714224061,2024-12-20T17:03:44.061Z,23211,0.02130127,0.12261963,-0.0079956055
1734714224166,2024-12-20T17:03:44.166Z,23316,0.018432617,0.123291016,-0.0072631836
1734714224174,2024-12-20T17:03:44.174Z,23324,0.021911621,0.12207031,-0.0056152344
1734714224182,2024-12-20T17:03:44.182Z,23332,0.023071289,0.12219238,-0.0068969727
1734714224189,2024-12-20T17:03:44.189Z,23339,0.019897461,0.123168945,-0.0119018555
1734714224198,2024-12-20T17:03:44.198Z,23348,0.020202637,0.12207031,-0.012756348
1734714224205,2024-12-20T17:03:44.205Z,23355,0.022338867,0.12237549,-0.013366699
1734714224212,2024-12-20T17:03:44.212Z,23362,0.020690918,0.12231445,-0.014770508
1734714224220,2024-12-20T17:03:44.220Z,23370,0.02142334,0.121398926,-0.011779785
1734714224228,2024-12-20T17:03:44.228Z,23378,0.024169922,0.12164307,-0.00793457
1734714224236,2024-12-20T17:03:44.236Z,23386,0.024108887,0.1239624,-0.006286621
1734714224244,2024-12-20T17:03:44.244Z,23394,0.019592285,0.1239624,-0.004638672
1734714224297,2024-12-20T17:03:44.297Z,23447,0.018493652,0.123168945,-0.005432129
1734714224301,2024-12-20T17:03:44.301Z,23451,0.020568848,0.12683105,-0.011108398
1734714224308,2024-12-20T17:03:44.308Z,23458,0.020874023,0.12506104,-0.012207031
1734714224315,2024-12-20T17:03:44.315Z,23465,0.022338867,0.12225342,-0.011779785
1734714224323,2024-12-20T17:03:44.323Z,23473,0.023254395,0.12237549,-0.013366699
1734714224348,2024-12-20T17:03:44.348Z,23498,0.02368164,0.123168945,-0.012817383
1734714224356,2024-12-20T17:03:44.356Z,23506,0.020874023,0.124694824,-0.010925293
1734714224363,2024-12-20T17:03:44.363Z,23513,0.019348145,0.12335205,-0.008911133
1734714224370,2024-12-20T17:03:44.370Z,23520,0.021728516,0.12194824,-0.006713867
1734714224377,2024-12-20T17:03:44.377Z,23527,0.02319336,0.123535156,-0.00592041
1734714224387,2024-12-20T17:03:44.387Z,23537,0.021606445,0.123291016,-0.0063476562
1734714224394,2024-12-20T17:03:44.394Z,23544,0.018554688,0.12207031,-0.010314941
1734714224403,2024-12-20T17:03:44.403Z,23553,0.024414062,0.12335205,-0.0076293945
1734714224410,2024-12-20T17:03:44.410Z,23560,0.022338867,0.12200928,-0.0071411133
1734714224418,2024-12-20T17:03:44.418Z,23568,0.019470215,0.121276855,-0.009338379
1734714224426,2024-12-20T17:03:44.426Z,23576,0.018920898,0.12188721,-0.012145996
1734714224481,2024-12-20T17:03:44.481Z,23631,0.023986816,0.1239624,-0.012329102
1734714224489,2024-12-20T17:03:44.489Z,23639,0.022949219,0.122802734,-0.012145996
1734714224496,2024-12-20T17:03:44.496Z,23646,0.020324707,0.1217041,-0.011169434
1734714224505,2024-12-20T17:03:44.505Z,23655,0.01977539,0.12225342,-0.008483887
1734714224512,2024-12-20T17:03:44.512Z,23662,0.020446777,0.12133789,-0.00579834
1734714224525,2024-12-20T17:03:44.525Z,23675,0.021057129,0.12060547,-0.0060424805
1734714224533,2024-12-20T17:03:44.533Z,23683,0.01953125,0.123046875,-0.009338379
1734714224547,2024-12-20T17:03:44.547Z,23697,0.020324707,0.12451172,-0.014587402
1734714224561,2024-12-20T17:03:44.561Z,23711,0.021728516,0.12243652,-0.017456055
1734714224575,2024-12-20T17:03:44.575Z,23725,0.023132324,0.12054443,-0.017028809
1734714224582,2024-12-20T17:03:44.582Z,23732,0.022705078,0.12213135,-0.014587402
1734714224588,2024-12-20T17:03:44.588Z,23738,0.020080566,0.12200928,-0.009277344
1734714224595,2024-12-20T17:03:44.595Z,23745,0.02178955,0.1227417,-0.010559082
1734714224602,2024-12-20T17:03:44.602Z,23752,0.01953125,0.12207031,-0.012329102
1734714224610,2024-12-20T17:03:44.610Z,23760,0.018371582,0.12335205,-0.013916016
1734714224618,2024-12-20T17:03:44.618Z,23768,0.021606445,0.12219238,-0.014038086
1734714224657,2024-12-20T17:03:44.657Z,23807,0.025390625,0.12036133,-0.011474609
1734714224664,2024-12-20T17:03:44.664Z,23814,0.02557373,0.12207031,-0.010620117
1734714224673,2024-12-20T17:03:44.673Z,23823,0.020874023,0.12310791,-0.014038086
1734714224681,2024-12-20T17:03:44.681Z,23831,0.019226074,0.12219238,-0.016662598
1734714224689,2024-12-20T17:03:44.689Z,23839,0.021728516,0.1239624,-0.015808105
1734714224696,2024-12-20T17:03:44.696Z,23846,0.022583008,0.12652588,-0.013916016
1734714224705,2024-12-20T17:03:44.705Z,23855,0.022277832,0.12426758,-0.013916016
1734714224712,2024-12-20T17:03:44.712Z,23862,0.018188477,0.12438965,-0.013549805
1734714224720,2024-12-20T17:03:44.720Z,23870,0.018066406,0.1237793,-0.013000488
1734714224727,2024-12-20T17:03:44.727Z,23877,0.022766113,0.12237549,-0.01184082
1734714224735,2024-12-20T17:03:44.735Z,23885,0.025512695,0.124694824,-0.011657715
1734714224747,2024-12-20T17:03:44.747Z,23897,0.023376465,0.12628174,-0.017089844
1734714224756,2024-12-20T17:03:44.756Z,23906,0.024230957,0.12487793,-0.014831543
1734714224764,2024-12-20T17:03:44.764Z,23914,0.022033691,0.1227417,-0.0138549805
1734714224771,2024-12-20T17:03:44.771Z,23921,0.018493652,0.12347412,-0.014770508
1734714224777,2024-12-20T17:03:44.777Z,23927,0.018188477,0.123535156,-0.013916016
1734714224785,2024-12-20T17:03:44.785Z,23935,0.018310547,0.123168945,-0.0126953125
1734714224794,2024-12-20T17:03:44.794Z,23944,0.022888184,0.121398926,-0.012023926
1734714224801,2024-12-20T17:03:44.801Z,23951,0.024230957,0.122924805,-0.011657715
1734714224808,2024-12-20T17:03:44.808Z,23958,0.022460938,0.124938965,-0.012634277
1734714224815,2024-12-20T17:03:44.815Z,23965,0.023132324,0.123535156,-0.013000488
1734714224824,2024-12-20T17:03:44.824Z,23974,0.02355957,0.12286377,-0.011962891
1734714224837,2024-12-20T17:03:44.837Z,23987,0.02154541,0.12213135,-0.014038086
1734714224844,2024-12-20T17:03:44.844Z,23994,0.015136719,0.12200928,-0.017333984
1734714224850,2024-12-20T17:03:44.850Z,24000,0.014892578,0.12084961,-0.018310547
1734714224857,2024-12-20T17:03:44.857Z,24007,0.020874023,0.12200928,-0.016479492
1734714224864,2024-12-20T17:03:44.864Z,24014,0.024169922,0.12249756,-0.01586914
1734714224872,2024-12-20T17:03:44.872Z,24022,0.023925781,0.121276855,-0.01361084
1734714224886,2024-12-20T17:03:44.886Z,24036,0.022766113,0.12194824,-0.010620117
1734714224894,2024-12-20T17:03:44.894Z,24044,0.02319336,0.121154785,-0.0076293945
1734714224903,2024-12-20T17:03:44.903Z,24053,0.022277832,0.12060547,-0.0061035156
1734714225019,2024-12-20T17:03:45.019Z,24169,0.020996094,0.11975098,-0.0071411133
1734714225064,2024-12-20T17:03:45.064Z,24214,0.018859863,0.11968994,-0.012329102
1734714225073,2024-12-20T17:03:45.073Z,24223,0.01928711,0.12060547,-0.015625
1734714225083,2024-12-20T17:03:45.083Z,24233,0.021728516,0.121276855,-0.016418457
1734714225091,2024-12-20T17:03:45.091Z,24241,0.020202637,0.12194824,-0.019042969
1734714225100,2024-12-20T17:03:45.100Z,24250,0.022399902,0.121398926,-0.01965332
1734714225110,2024-12-20T17:03:45.110Z,24260,0.022888184,0.12219238,-0.016784668
1734714225120,2024-12-20T17:03:45.120Z,24270,0.01953125,0.12194824,-0.014282227
1734714225130,2024-12-20T17:03:45.130Z,24280,0.019470215,0.11987305,-0.0126953125
1734714225138,2024-12-20T17:03:45.138Z,24288,0.02166748,0.12176514,-0.011474609
1734714225146,2024-12-20T17:03:45.146Z,24296,0.018371582,0.123291016,-0.013427734
1734714225155,2024-12-20T17:03:45.155Z,24305,0.018432617,0.12164307,-0.0154418945
1734714225158,2024-12-20T17:03:45.158Z,24308,0.01763916,0.12237549,-0.018066406
1734714225166,2024-12-20T17:03:45.166Z,24316,0.016479492,0.120666504,-0.016418457
1734714225172,2024-12-20T17:03:45.172Z,24322,0.019104004,0.1184082,-0.016479492
1734714225178,2024-12-20T17:03:45.178Z,24328,0.021728516,0.12042236,-0.0138549805
1734714225186,2024-12-20T17:03:45.186Z,24336,0.023803711,0.12133789,-0.015380859
1734714225194,2024-12-20T17:03:45.194Z,24344,0.022521973,0.119140625,-0.017822266
1734714225202,2024-12-20T17:03:45.202Z,24352,0.020812988,0.11767578,-0.016113281
1734714225213,2024-12-20T17:03:45.213Z,24363,0.018249512,0.12097168,-0.015014648
1734714225222,2024-12-20T17:03:45.222Z,24372,0.01574707,0.12121582,-0.01727295
1734714225229,2024-12-20T17:03:45.229Z,24379,0.016723633,0.119384766,-0.015808105
1734714225237,2024-12-20T17:03:45.237Z,24387,0.020690918,0.11975098,-0.012573242
1734714225244,2024-12-20T17:03:45.244Z,24394,0.022216797,0.11999512,-0.011230469
1734714225251,2024-12-20T17:03:45.251Z,24401,0.02130127,0.120788574,-0.012512207
1734714225258,2024-12-20T17:03:45.258Z,24408,0.022888184,0.12188721,-0.01361084
1734714225264,2024-12-20T17:03:45.264Z,24414,0.022766113,0.12286377,-0.015075684
1734714225271,2024-12-20T17:03:45.271Z,24421,0.01977539,0.12207031,-0.018249512
1734714225278,2024-12-20T17:03:45.278Z,24428,0.0154418945,0.1217041,-0.019470215
1734714225287,2024-12-20T17:03:45.287Z,24437,0.015563965,0.12243652,-0.020263672
1734714225294,2024-12-20T17:03:45.294Z,24444,0.018127441,0.12084961,-0.021484375
1734714225300,2024-12-20T17:03:45.300Z,24450,0.018920898,0.120666504,-0.020141602
1734714225307,2024-12-20T17:03:45.307Z,24457,0.020080566,0.12060547,-0.018432617
1734714225312,2024-12-20T17:03:45.312Z,24462,0.019836426,0.12213135,-0.020080566
1734714225318,2024-12-20T17:03:45.318Z,24468,0.0211792,0.12451172,-0.020141602
1734714225334,2024-12-20T17:03:45.334Z,24484,0.026000977,0.12231445,-0.016174316
1734714225342,2024-12-20T17:03:45.342Z,24492,0.023742676,0.12121582,-0.015258789
1734714225348,2024-12-20T17:03:45.348Z,24498,0.018798828,0.122558594,-0.016357422
1734714225356,2024-12-20T17:03:45.356Z,24506,0.020019531,0.12359619,-0.016235352
1734714225362,2024-12-20T17:03:45.362Z,24512,0.020996094,0.1260376,-0.017578125
1734714225375,2024-12-20T17:03:45.375Z,24525,0.022033691,0.1260376,-0.019958496
1734714225382,2024-12-20T17:03:45.382Z,24532,0.024414062,0.12774658,-0.018615723
1734714225388,2024-12-20T17:03:45.388Z,24538,0.026306152,0.12786865,-0.018676758
1734714225394,2024-12-20T17:03:45.394Z,24544,0.021240234,0.12670898,-0.02166748
1734714225424,2024-12-20T17:03:45.424Z,24574,0.015014648,0.125,-0.019592285
1734714225431,2024-12-20T17:03:45.431Z,24581,0.018676758,0.12854004,-0.018249512
1734714225438,2024-12-20T17:03:45.438Z,24588,0.023986816,0.13238525,-0.019592285
1734714225444,2024-12-20T17:03:45.444Z,24594,0.024230957,0.12963867,-0.020019531
1734714225466,2024-12-20T17:03:45.466Z,24616,0.022460938,0.12695312,-0.021118164
1734714225474,2024-12-20T17:03:45.474Z,24624,0.023376465,0.12792969,-0.019470215
1734714225481,2024-12-20T17:03:45.481Z,24631,0.024597168,0.12683105,-0.019165039
1734714225489,2024-12-20T17:03:45.489Z,24639,0.018127441,0.1295166,-0.022888184
1734714225496,2024-12-20T17:03:45.496Z,24646,0.01727295,0.12927246,-0.024902344
1734714225512,2024-12-20T17:03:45.512Z,24662,0.019104004,0.124816895,-0.024047852
1734714225520,2024-12-20T17:03:45.520Z,24670,0.023071289,0.12646484,-0.022644043
1734714225528,2024-12-20T17:03:45.528Z,24678,0.025390625,0.12921143,-0.020263672
1734714225534,2024-12-20T17:03:45.534Z,24684,0.0234375,0.12536621,-0.019470215
1734714225557,2024-12-20T17:03:45.557Z,24707,0.021972656,0.12451172,-0.018066406
1734714225565,2024-12-20T17:03:45.565Z,24715,0.020507812,0.12597656,-0.016174316
1734714225572,2024-12-20T17:03:45.572Z,24722,0.018615723,0.12298584,-0.014160156
1734714225579,2024-12-20T17:03:45.579Z,24729,0.015991211,0.12213135,-0.016113281
1734714225586,2024-12-20T17:03:45.586Z,24736,0.014770508,0.1237793,-0.020446777
1734714225605,2024-12-20T17:03:45.605Z,24755,0.01550293,0.12298584,-0.022583008
1734714225611,2024-12-20T17:03:45.611Z,24761,0.02178955,0.12072754,-0.02368164
1734714225618,2024-12-20T17:03:45.618Z,24768,0.02545166,0.120666504,-0.024719238
1734714225625,2024-12-20T17:03:45.625Z,24775,0.023986816,0.119628906,-0.02355957
1734714225646,2024-12-20T17:03:45.646Z,24796,0.019592285,0.119506836,-0.024475098
1734714225653,2024-12-20T17:03:45.653Z,24803,0.015686035,0.11846924,-0.022827148
1734714225661,2024-12-20T17:03:45.661Z,24811,0.018066406,0.12097168,-0.017578125
1734714225668,2024-12-20T17:03:45.668Z,24818,0.020324707,0.12237549,-0.01550293
1734714225674,2024-12-20T17:03:45.674Z,24824,0.01953125,0.11993408,-0.01751709
1734714225692,2024-12-20T17:03:45.692Z,24842,0.019714355,0.12109375,-0.01940918
1734714225698,2024-12-20T17:03:45.698Z,24848,0.02368164,0.122558594,-0.018981934
1734714225705,2024-12-20T17:03:45.705Z,24855,0.022583008,0.12023926,-0.019470215
1734714225712,2024-12-20T17:03:45.712Z,24862,0.018554688,0.120788574,-0.018615723
1734714225784,2024-12-20T17:03:45.784Z,24934,0.015808105,0.12371826,-0.02130127
1734714225834,2024-12-20T17:03:45.834Z,24984,0.019897461,0.12017822,-0.02746582
1734714225845,2024-12-20T17:03:45.845Z,24995,0.023071289,0.11932373,-0.027282715
1734714225856,2024-12-20T17:03:45.856Z,25006,0.023864746,0.12585449,-0.022155762
1734714225866,2024-12-20T17:03:45.866Z,25016,0.02178955,0.12530518,-0.01953125
1734714225876,2024-12-20T17:03:45.876Z,25026,0.0178833,0.122924805,-0.017028809
1734714225886,2024-12-20T17:03:45.886Z,25036,0.018981934,0.12451172,-0.016418457
1734714225894,2024-12-20T17:03:45.894Z,25044,0.022033691,0.12420654,-0.01763916
1734714225902,2024-12-20T17:03:45.902Z,25052,0.021118164,0.12451172,-0.020935059
1734714225909,2024-12-20T17:03:45.909Z,25059,0.018981934,0.12475586,-0.022338867
1734714225915,2024-12-20T17:03:45.915Z,25065,0.01965332,0.123046875,-0.02368164
1734714225923,2024-12-20T17:03:45.923Z,25073,0.01965332,0.12261963,-0.022399902
1734714225933,2024-12-20T17:03:45.933Z,25083,0.021606445,0.12432861,-0.01928711
1734714225940,2024-12-20T17:03:45.940Z,25090,0.015686035,0.12438965,-0.020568848
1734714225948,2024-12-20T17:03:45.948Z,25098,0.0154418945,0.12194824,-0.022521973
1734714225956,2024-12-20T17:03:45.956Z,25106,0.01727295,0.12365723,-0.022888184
1734714225964,2024-12-20T17:03:45.964Z,25114,0.020507812,0.12194824,-0.022644043
1734714225974,2024-12-20T17:03:45.974Z,25124,0.023742676,0.120788574,-0.021484375
1734714225981,2024-12-20T17:03:45.981Z,25131,0.023071289,0.121398926,-0.01739502
1734714225989,2024-12-20T17:03:45.989Z,25139,0.019348145,0.1194458,-0.013793945
1734714225995,2024-12-20T17:03:45.995Z,25145,0.018737793,0.12200928,-0.014892578
1734714226002,2024-12-20T17:03:46.002Z,25152,0.018127441,0.12451172,-0.01776123
1734714226009,2024-12-20T17:03:46.009Z,25159,0.020751953,0.120666504,-0.019714355
1734714226016,2024-12-20T17:03:46.016Z,25166,0.0256958,0.12231445,-0.019348145
1734714226023,2024-12-20T17:03:46.023Z,25173,0.024230957,0.12652588,-0.019836426
1734714226031,2024-12-20T17:03:46.031Z,25181,0.014709473,0.123168945,-0.022766113
1734714226039,2024-12-20T17:03:46.039Z,25189,0.011230469,0.117126465,-0.02532959
1734714226046,2024-12-20T17:03:46.046Z,25196,0.0119018555,0.119628906,-0.027038574
1734714226054,2024-12-20T17:03:46.054Z,25204,0.015930176,0.12243652,-0.02319336
1734714226060,2024-12-20T17:03:46.060Z,25210,0.023803711,0.12402344,-0.020019531
1734714226066,2024-12-20T17:03:46.066Z,25216,0.023132324,0.12402344,-0.019226074
1734714226072,2024-12-20T17:03:46.072Z,25222,0.020019531,0.12164307,-0.018432617
1734714226079,2024-12-20T17:03:46.079Z,25229,0.0234375,0.12121582,-0.019348145
1734714226087,2024-12-20T17:03:46.087Z,25237,0.021606445,0.121276855,-0.021911621
1734714226101,2024-12-20T17:03:46.101Z,25251,0.01727295,0.119262695,-0.023742676
1734714226107,2024-12-20T17:03:46.107Z,25257,0.017944336,0.1217041,-0.023620605
1734714226112,2024-12-20T17:03:46.112Z,25262,0.019836426,0.12408447,-0.023071289
1734714226118,2024-12-20T17:03:46.118Z,25268,0.016845703,0.12286377,-0.024780273
1734714226124,2024-12-20T17:03:46.124Z,25274,0.016723633,0.1217041,-0.022644043
1734714226141,2024-12-20T17:03:46.141Z,25291,0.02178955,0.12249756,-0.018798828
1734714226147,2024-12-20T17:03:46.147Z,25297,0.02368164,0.12200928,-0.01977539
1734714226155,2024-12-20T17:03:46.155Z,25305,0.021118164,0.12286377,-0.022949219
1734714226161,2024-12-20T17:03:46.161Z,25311,0.019470215,0.123046875,-0.024230957
1734714226191,2024-12-20T17:03:46.191Z,25341,0.020874023,0.12463379,-0.025756836
1734714226198,2024-12-20T17:03:46.198Z,25348,0.017028809,0.12402344,-0.024230957
1734714226205,2024-12-20T17:03:46.205Z,25355,0.01550293,0.123291016,-0.02178955
1734714226211,2024-12-20T17:03:46.211Z,25361,0.018310547,0.12573242,-0.018920898
1734714226218,2024-12-20T17:03:46.218Z,25368,0.022094727,0.12463379,-0.021118164
1734714226230,2024-12-20T17:03:46.230Z,25380,0.01977539,0.12194824,-0.024780273
1734714226237,2024-12-20T17:03:46.237Z,25387,0.021118164,0.12219238,-0.024902344
1734714226244,2024-12-20T17:03:46.244Z,25394,0.022460938,0.12561035,-0.023254395
1734714226250,2024-12-20T17:03:46.250Z,25400,0.020080566,0.12530518,-0.024353027
1734714226277,2024-12-20T17:03:46.277Z,25427,0.018676758,0.12432861,-0.022277832
1734714226283,2024-12-20T17:03:46.283Z,25433,0.020996094,0.12451172,-0.020141602
1734714226293,2024-12-20T17:03:46.293Z,25443,0.019897461,0.12475586,-0.020141602
1734714226299,2024-12-20T17:03:46.299Z,25449,0.021057129,0.12524414,-0.018554688
1734714226307,2024-12-20T17:03:46.307Z,25457,0.020446777,0.12475586,-0.019958496
1734714226321,2024-12-20T17:03:46.321Z,25471,0.017822266,0.12475586,-0.023254395
1734714226329,2024-12-20T17:03:46.329Z,25479,0.020263672,0.12597656,-0.024658203
1734714226335,2024-12-20T17:03:46.335Z,25485,0.024108887,0.12524414,-0.025817871
1734714226342,2024-12-20T17:03:46.342Z,25492,0.019042969,0.1251831,-0.025634766
1734714226414,2024-12-20T17:03:46.414Z,25564,0.014953613,0.122558594,-0.024353027
1734714226422,2024-12-20T17:03:46.422Z,25572,0.024719238,0.1237793,-0.023010254
1734714226429,2024-12-20T17:03:46.429Z,25579,0.026977539,0.12689209,-0.021057129
1734714226436,2024-12-20T17:03:46.436Z,25586,0.023498535,0.12561035,-0.020019531
1734714226443,2024-12-20T17:03:46.443Z,25593,0.022949219,0.12359619,-0.020568848
1734714226451,2024-12-20T17:03:46.451Z,25601,0.020751953,0.1251831,-0.021728516
1734714226508,2024-12-20T17:03:46.508Z,25658,0.01751709,0.12585449,-0.02331543
1734714226514,2024-12-20T17:03:46.514Z,25664,0.019165039,0.123413086,-0.024719238
1734714226521,2024-12-20T17:03:46.521Z,25671,0.0178833,0.1227417,-0.025878906
1734714226528,2024-12-20T17:03:46.528Z,25678,0.021850586,0.12237549,-0.022216797
1734714226535,2024-12-20T17:03:46.535Z,25685,0.031677246,0.12219238,-0.01940918
1734714226547,2024-12-20T17:03:46.547Z,25697,0.032409668,0.12194824,-0.02142334
1734714226556,2024-12-20T17:03:46.556Z,25706,0.024108887,0.123535156,-0.02178955
1734714226564,2024-12-20T17:03:46.564Z,25714,0.021484375,0.12310791,-0.020263672
1734714226571,2024-12-20T17:03:46.571Z,25721,0.020690918,0.12524414,-0.023742676
1734714226578,2024-12-20T17:03:46.578Z,25728,0.018249512,0.12414551,-0.025756836
1734714226585,2024-12-20T17:03:46.585Z,25735,0.015991211,0.12036133,-0.023864746
1734714226639,2024-12-20T17:03:46.639Z,25789,0.02355957,0.121032715,-0.020202637
1734714226647,2024-12-20T17:03:46.647Z,25797,0.02746582,0.12554932,-0.016479492
1734714226654,2024-12-20T17:03:46.654Z,25804,0.023986816,0.12243652,-0.016296387
1734714226662,2024-12-20T17:03:46.662Z,25812,0.023254395,0.121398926,-0.01751709
1734714226670,2024-12-20T17:03:46.670Z,25820,0.024597168,0.12213135,-0.019470215
1734714226686,2024-12-20T17:03:46.686Z,25836,0.024230957,0.12249756,-0.022583008
1734714226694,2024-12-20T17:03:46.694Z,25844,0.022705078,0.12084961,-0.025756836
1734714226703,2024-12-20T17:03:46.703Z,25853,0.021362305,0.122802734,-0.026184082
1734714226712,2024-12-20T17:03:46.712Z,25862,0.02142334,0.12426758,-0.02154541
1734714226720,2024-12-20T17:03:46.720Z,25870,0.02368164,0.12194824,-0.018676758
1734714226731,2024-12-20T17:03:46.731Z,25881,0.022949219,0.122680664,-0.020385742
1734714226739,2024-12-20T17:03:46.739Z,25889,0.022399902,0.1217041,-0.022216797
1734714226748,2024-12-20T17:03:46.748Z,25898,0.024047852,0.120910645,-0.026123047
1734714226756,2024-12-20T17:03:46.756Z,25906,0.02508545,0.12445068,-0.02368164
1734714226762,2024-12-20T17:03:46.762Z,25912,0.023803711,0.124938965,-0.022827148
1734714226768,2024-12-20T17:03:46.768Z,25918,0.018737793,0.12322998,-0.020751953
1734714226775,2024-12-20T17:03:46.775Z,25925,0.022521973,0.12261963,-0.0211792
1734714226782,2024-12-20T17:03:46.782Z,25932,0.024658203,0.12524414,-0.022521973
1734714226790,2024-12-20T17:03:46.790Z,25940,0.026000977,0.12438965,-0.024108887
1734714226796,2024-12-20T17:03:46.796Z,25946,0.028137207,0.12158203,-0.025146484
1734714226803,2024-12-20T17:03:46.803Z,25953,0.022338867,0.1237793,-0.024108887
1734714226818,2024-12-20T17:03:46.818Z,25968,0.018493652,0.124938965,-0.022338867
1734714226825,2024-12-20T17:03:46.825Z,25975,0.022338867,0.12359619,-0.01965332
1734714226831,2024-12-20T17:03:46.831Z,25981,0.02142334,0.12347412,-0.017944336
1734714226837,2024-12-20T17:03:46.837Z,25987,0.020812988,0.12225342,-0.01739502
1734714226842,2024-12-20T17:03:46.842Z,25992,0.022888184,0.12347412,-0.0178833
1734714226861,2024-12-20T17:03:46.861Z,26011,0.026733398,0.1251831,-0.017700195
1734714226908,2024-12-20T17:03:46.908Z,26058,0.02557373,0.12506104,-0.019592285
1734714226914,2024-12-20T17:03:46.914Z,26064,0.024658203,0.12213135,-0.022399902
1734714226920,2024-12-20T17:03:46.920Z,26070,0.023071289,0.1237793,-0.026306152
1734714226927,2024-12-20T17:03:46.927Z,26077,0.018493652,0.12591553,-0.027954102
1734714226934,2024-12-20T17:03:46.934Z,26084,0.01727295,0.12512207,-0.026428223
1734714226942,2024-12-20T17:03:46.942Z,26092,0.020751953,0.12384033,-0.022216797
1734714226955,2024-12-20T17:03:46.955Z,26105,0.024291992,0.12017822,-0.018676758
1734714226962,2024-12-20T17:03:46.962Z,26112,0.023986816,0.117370605,-0.018005371
1734714226969,2024-12-20T17:03:46.969Z,26119,0.023803711,0.11932373,-0.018432617
1734714226977,2024-12-20T17:03:46.977Z,26127,0.023498535,0.12261963,-0.019897461
1734714226983,2024-12-20T17:03:46.983Z,26133,0.0256958,0.12200928,-0.022399902
1734714226996,2024-12-20T17:03:46.996Z,26146,0.026245117,0.12207031,-0.02355957
1734714227002,2024-12-20T17:03:47.002Z,26152,0.022033691,0.11981201,-0.022277832
1734714227009,2024-12-20T17:03:47.009Z,26159,0.023071289,0.11859131,-0.02166748
1734714227015,2024-12-20T17:03:47.015Z,26165,0.022399902,0.118774414,-0.020202637
1734714227020,2024-12-20T17:03:47.020Z,26170,0.016784668,0.119018555,-0.018432617
1734714227028,2024-12-20T17:03:47.028Z,26178,0.024169922,0.12072754,-0.018249512
1734714227091,2024-12-20T17:03:47.091Z,26241,0.025878906,0.12347412,-0.016540527
1734714227097,2024-12-20T17:03:47.097Z,26247,0.020935059,0.12121582,-0.018859863
1734714227102,2024-12-20T17:03:47.102Z,26252,0.022521973,0.11871338,-0.02142334
1734714227108,2024-12-20T17:03:47.108Z,26258,0.02520752,0.12310791,-0.023010254
1734714227132,2024-12-20T17:03:47.132Z,26282,0.021118164,0.12060547,-0.026306152
1734714227140,2024-12-20T17:03:47.140Z,26290,0.016662598,0.11682129,-0.028686523
1734714227147,2024-12-20T17:03:47.147Z,26297,0.021118164,0.12335205,-0.022521973
1734714227154,2024-12-20T17:03:47.154Z,26304,0.026245117,0.12164307,-0.017822266
1734714227162,2024-12-20T17:03:47.162Z,26312,0.02545166,0.120910645,-0.019165039
1734714227168,2024-12-20T17:03:47.168Z,26318,0.02508545,0.12072754,-0.019470215
1734714227182,2024-12-20T17:03:47.182Z,26332,0.023254395,0.119384766,-0.017211914
1734714227189,2024-12-20T17:03:47.189Z,26339,0.021911621,0.12145996,-0.019165039
1734714227196,2024-12-20T17:03:47.196Z,26346,0.021240234,0.120788574,-0.01940918
1734714227202,2024-12-20T17:03:47.202Z,26352,0.022155762,0.124694824,-0.021118164
1734714227209,2024-12-20T17:03:47.209Z,26359,0.02520752,0.12634277,-0.022338867
1734714227226,2024-12-20T17:03:47.226Z,26376,0.026977539,0.12359619,-0.023376465
1734714227239,2024-12-20T17:03:47.239Z,26389,0.024719238,0.12322998,-0.02142334
1734714227251,2024-12-20T17:03:47.251Z,26401,0.018615723,0.1251831,-0.020812988
1734714227261,2024-12-20T17:03:47.261Z,26411,0.016296387,0.12243652,-0.02178955
1734714227268,2024-12-20T17:03:47.268Z,26418,0.020202637,0.11975098,-0.019958496
1734714227275,2024-12-20T17:03:47.275Z,26425,0.02355957,0.12408447,-0.017211914
1734714227316,2024-12-20T17:03:47.316Z,26466,0.021911621,0.12658691,-0.01751709
1734714227324,2024-12-20T17:03:47.324Z,26474,0.023803711,0.12756348,-0.02154541
1734714227333,2024-12-20T17:03:47.333Z,26483,0.027404785,0.13049316,-0.026062012
1734714227341,2024-12-20T17:03:47.341Z,26491,0.026855469,0.13214111,-0.026245117
1734714227349,2024-12-20T17:03:47.349Z,26499,0.029418945,0.12921143,-0.022644043
1734714227357,2024-12-20T17:03:47.357Z,26507,0.028442383,0.12792969,-0.01739502
1734714227365,2024-12-20T17:03:47.365Z,26515,0.019470215,0.13128662,-0.014831543
1734714227370,2024-12-20T17:03:47.370Z,26520,0.014526367,0.13360596,-0.018615723
1734714227377,2024-12-20T17:03:47.377Z,26527,0.018249512,0.13104248,-0.022705078
1734714227383,2024-12-20T17:03:47.383Z,26533,0.025878906,0.13116455,-0.023010254
1734714227390,2024-12-20T17:03:47.390Z,26540,0.028137207,0.13433838,-0.024658203
1734714227404,2024-12-20T17:03:47.404Z,26554,0.026000977,0.12872314,-0.026977539
1734714227411,2024-12-20T17:03:47.411Z,26561,0.020996094,0.12884521,-0.018920898
1734714227418,2024-12-20T17:03:47.418Z,26568,0.021362305,0.13122559,-0.01171875
1734714227425,2024-12-20T17:03:47.425Z,26575,0.024536133,0.13226318,-0.008728027
1734714227431,2024-12-20T17:03:47.431Z,26581,0.02532959,0.13214111,-0.016052246
1734714227447,2024-12-20T17:03:47.447Z,26597,0.023803711,0.13110352,-0.024353027
1734714227458,2024-12-20T17:03:47.458Z,26608,0.024108887,0.12908936,-0.028686523
1734714227466,2024-12-20T17:03:47.466Z,26616,0.027770996,0.12915039,-0.028564453
1734714227472,2024-12-20T17:03:47.472Z,26622,0.028198242,0.13000488,-0.024536133
1734714227496,2024-12-20T17:03:47.496Z,26646,0.028686523,0.13018799,-0.020751953
1734714227538,2024-12-20T17:03:47.538Z,26688,0.0289917,0.12988281,-0.016296387
1734714227546,2024-12-20T17:03:47.546Z,26696,0.022827148,0.13079834,-0.0115356445
1734714227554,2024-12-20T17:03:47.554Z,26704,0.017944336,0.13293457,-0.015380859
1734714227563,2024-12-20T17:03:47.563Z,26713,0.015563965,0.13470459,-0.022949219
1734714227571,2024-12-20T17:03:47.571Z,26721,0.020629883,0.13183594,-0.024230957
1734714227579,2024-12-20T17:03:47.579Z,26729,0.028869629,0.13061523,-0.022888184
1734714227631,2024-12-20T17:03:47.631Z,26781,0.03540039,0.12921143,-0.021118164
1734714227639,2024-12-20T17:03:47.639Z,26789,0.032592773,0.12872314,-0.019958496
1734714227646,2024-12-20T17:03:47.646Z,26796,0.025817871,0.13092041,-0.019042969
1734714227653,2024-12-20T17:03:47.653Z,26803,0.022644043,0.13031006,-0.019348145
1734714227660,2024-12-20T17:03:47.660Z,26810,0.022460938,0.12878418,-0.018066406
1734714227672,2024-12-20T17:03:47.672Z,26822,0.024353027,0.13049316,-0.016967773
1734714227675,2024-12-20T17:03:47.675Z,26825,0.02557373,0.13110352,-0.019104004
1734714227682,2024-12-20T17:03:47.682Z,26832,0.022888184,0.12963867,-0.022460938
1734714227688,2024-12-20T17:03:47.688Z,26838,0.02508545,0.12994385,-0.022155762
1734714227694,2024-12-20T17:03:47.694Z,26844,0.028198242,0.1328125,-0.019042969
1734714227700,2024-12-20T17:03:47.700Z,26850,0.024047852,0.13092041,-0.018981934
1734714227716,2024-12-20T17:03:47.716Z,26866,0.027832031,0.13189697,-0.023010254
1734714227722,2024-12-20T17:03:47.722Z,26872,0.032836914,0.12963867,-0.020385742
1734714227729,2024-12-20T17:03:47.729Z,26879,0.03149414,0.12896729,-0.017211914
1734714227736,2024-12-20T17:03:47.736Z,26886,0.02355957,0.13165283,-0.017333984
1734714227742,2024-12-20T17:03:47.742Z,26892,0.025024414,0.12841797,-0.017211914
1734714227749,2024-12-20T17:03:47.749Z,26899,0.028747559,0.12585449,-0.014038086
1734714227764,2024-12-20T17:03:47.764Z,26914,0.02520752,0.12750244,-0.016540527
1734714227770,2024-12-20T17:03:47.770Z,26920,0.025939941,0.12982178,-0.021240234
1734714227777,2024-12-20T17:03:47.777Z,26927,0.028808594,0.13201904,-0.02130127
1734714227783,2024-12-20T17:03:47.783Z,26933,0.028076172,0.13269043,-0.020141602
1734714227789,2024-12-20T17:03:47.789Z,26939,0.023864746,0.13116455,-0.021911621
1734714227810,2024-12-20T17:03:47.810Z,26960,0.02166748,0.13024902,-0.018493652
1734714227817,2024-12-20T17:03:47.817Z,26967,0.021484375,0.12927246,-0.0076293945
1734714227823,2024-12-20T17:03:47.823Z,26973,0.022399902,0.1295166,-0.0037841797
1734714227830,2024-12-20T17:03:47.830Z,26980,0.023132324,0.13079834,-0.009216309
1734714227836,2024-12-20T17:03:47.836Z,26986,0.024780273,0.12835693,-0.01550293
1734714227843,2024-12-20T17:03:47.843Z,26993,0.026550293,0.12860107,-0.018127441
1734714227855,2024-12-20T17:03:47.855Z,27005,0.022521973,0.13024902,-0.020812988
1734714227861,2024-12-20T17:03:47.861Z,27011,0.022521973,0.12823486,-0.023071289
1734714227867,2024-12-20T17:03:47.867Z,27017,0.026245117,0.12683105,-0.01965332
1734714227873,2024-12-20T17:03:47.873Z,27023,0.028442383,0.12536621,-0.012084961
1734714227879,2024-12-20T17:03:47.879Z,27029,0.0234375,0.12609863,-0.007019043
1734714227896,2024-12-20T17:03:47.896Z,27046,0.017150879,0.12860107,-0.009460449
1734714227902,2024-12-20T17:03:47.902Z,27052,0.02166748,0.12817383,-0.01373291
1734714227908,2024-12-20T17:03:47.908Z,27058,0.029785156,0.125,-0.017944336
1734714227914,2024-12-20T17:03:47.914Z,27064,0.03302002,0.12634277,-0.016723633
1734714227920,2024-12-20T17:03:47.920Z,27070,0.026672363,0.12854004,-0.013671875
1734714227988,2024-12-20T17:03:47.988Z,27138,0.018920898,0.12426758,-0.01159668
1734714228033,2024-12-20T17:03:48.033Z,27183,0.016845703,0.122924805,-0.007385254
1734714228040,2024-12-20T17:03:48.040Z,27190,0.021484375,0.1251831,-0.002319336
1734714228047,2024-12-20T17:03:48.047Z,27197,0.024536133,0.125,-0.0045166016
1734714228054,2024-12-20T17:03:48.054Z,27204,0.022827148,0.12463379,-0.011291504
1734714228061,2024-12-20T17:03:48.061Z,27211,0.026062012,0.1296997,-0.015563965
1734714228068,2024-12-20T17:03:48.068Z,27218,0.02947998,0.12915039,-0.017211914
1734714228081,2024-12-20T17:03:48.081Z,27231,0.030700684,0.12432861,-0.01727295
1734714228087,2024-12-20T17:03:48.087Z,27237,0.026794434,0.124572754,-0.014770508
1734714228093,2024-12-20T17:03:48.093Z,27243,0.020019531,0.12432861,-0.012207031
1734714228099,2024-12-20T17:03:48.099Z,27249,0.016540527,0.123046875,-0.01171875
1734714228106,2024-12-20T17:03:48.106Z,27256,0.015930176,0.12585449,-0.010986328
1734714228122,2024-12-20T17:03:48.122Z,27272,0.02508545,0.12664795,-0.011230469
1734714228128,2024-12-20T17:03:48.128Z,27278,0.024230957,0.125,-0.0099487305
1734714228134,2024-12-20T17:03:48.134Z,27284,0.02331543,0.12365723,-0.012084961
1734714228139,2024-12-20T17:03:48.139Z,27289,0.023498535,0.12164307,-0.012084961
1734714228145,2024-12-20T17:03:48.145Z,27295,0.02368164,0.11981201,-0.006164551
1734714228151,2024-12-20T17:03:48.151Z,27301,0.022644043,0.11779785,-0.0031738281
1734714228171,2024-12-20T17:03:48.171Z,27321,0.023071289,0.12030029,-0.0059814453
1734714228180,2024-12-20T17:03:48.180Z,27330,0.02368164,0.12249756,-0.008605957
1734714228191,2024-12-20T17:03:48.191Z,27341,0.026123047,0.12145996,-0.00970459
1734714228197,2024-12-20T17:03:48.197Z,27347,0.024108887,0.12249756,-0.0099487305
1734714228205,2024-12-20T17:03:48.205Z,27355,0.024291992,0.12451172,-0.0095825195
1734714228214,2024-12-20T17:03:48.214Z,27364,0.025756836,0.11932373,-0.005554199
1734714228219,2024-12-20T17:03:48.219Z,27369,0.021606445,0.11743164,-6.1035156E-4
1734714228225,2024-12-20T17:03:48.225Z,27375,0.020629883,0.123168945,-0.0040283203
1734714228231,2024-12-20T17:03:48.231Z,27381,0.024597168,0.124572754,-0.007873535
1734714228236,2024-12-20T17:03:48.236Z,27386,0.022888184,0.12335205,-0.010131836
1734714228242,2024-12-20T17:03:48.242Z,27392,0.018432617,0.12261963,-0.01361084
1734714228260,2024-12-20T17:03:48.260Z,27410,0.01977539,0.12445068,-0.014099121
1734714228266,2024-12-20T17:03:48.266Z,27416,0.023803711,0.123291016,-0.010925293
1734714228272,2024-12-20T17:03:48.272Z,27422,0.026306152,0.121398926,-0.00579834
1734714228278,2024-12-20T17:03:48.278Z,27428,0.024780273,0.11871338,0.0010375977
1734714228284,2024-12-20T17:03:48.284Z,27434,0.023376465,0.119628906,0.0025634766
1734714228302,2024-12-20T17:03:48.302Z,27452,0.02532959,0.122924805,-0.0020141602
1734714228346,2024-12-20T17:03:48.346Z,27496,0.023803711,0.12542725,-0.007507324
1734714228353,2024-12-20T17:03:48.353Z,27503,0.022766113,0.12225342,-0.010437012
1734714228360,2024-12-20T17:03:48.360Z,27510,0.027282715,0.12365723,-0.010803223
1734714228366,2024-12-20T17:03:48.366Z,27516,0.0234375,0.12542725,-0.009399414
1734714228372,2024-12-20T17:03:48.372Z,27522,0.018310547,0.11975098,-0.004211426
1734714228399,2024-12-20T17:03:48.399Z,27549,0.023254395,0.12176514,0.0012817383
1734714228406,2024-12-20T17:03:48.406Z,27556,0.026977539,0.122680664,0.0026245117
1734714228413,2024-12-20T17:03:48.413Z,27563,0.024902344,0.119018555,-0.003540039
1734714228421,2024-12-20T17:03:48.421Z,27571,0.018493652,0.12249756,-0.008911133
1734714228428,2024-12-20T17:03:48.428Z,27578,0.017150879,0.12145996,-0.009887695
1734714228437,2024-12-20T17:03:48.437Z,27587,0.024780273,0.1204834,-0.007446289
1734714228444,2024-12-20T17:03:48.444Z,27594,0.024902344,0.12420654,-0.0052490234
1734714228451,2024-12-20T17:03:48.451Z,27601,0.021972656,0.12005615,-0.0029296875
1734714228457,2024-12-20T17:03:48.457Z,27607,0.024353027,0.115722656,-4.272461E-4
1734714228464,2024-12-20T17:03:48.464Z,27614,0.023376465,0.11907959,-6.1035156E-4
1734714228470,2024-12-20T17:03:48.470Z,27620,0.02154541,0.11883545,-0.0036010742
1734714228485,2024-12-20T17:03:48.485Z,27635,0.025268555,0.118652344,-0.005493164
1734714228491,2024-12-20T17:03:48.491Z,27641,0.026794434,0.12005615,-0.0041503906
1734714228498,2024-12-20T17:03:48.498Z,27648,0.023742676,0.11932373,-0.0021972656
1734714228504,2024-12-20T17:03:48.504Z,27654,0.022644043,0.11810303,-0.0017700195
1734714228510,2024-12-20T17:03:48.510Z,27660,0.02722168,0.1184082,0.0012207031
1734714228526,2024-12-20T17:03:48.526Z,27676,0.027282715,0.11773682,0.0036010742
1734714228532,2024-12-20T17:03:48.532Z,27682,0.022583008,0.11828613,0.0020751953
1734714228538,2024-12-20T17:03:48.538Z,27688,0.022644043,0.120788574,-0.0012817383
1734714228544,2024-12-20T17:03:48.544Z,27694,0.02130127,0.122802734,-0.0037841797
1734714228551,2024-12-20T17:03:48.551Z,27701,0.019592285,0.1204834,-0.006591797
1734714228571,2024-12-20T17:03:48.571Z,27721,0.022521973,0.12011719,-0.008728027
1734714228578,2024-12-20T17:03:48.578Z,27728,0.025878906,0.12249756,-0.0072021484
1734714228584,2024-12-20T17:03:48.584Z,27734,0.024597168,0.12207031,-0.0040893555
1734714228590,2024-12-20T17:03:48.590Z,27740,0.02331543,0.12072754,-7.324219E-4
1734714228616,2024-12-20T17:03:48.616Z,27766,0.023498535,0.11999512,0.0020751953
1734714228666,2024-12-20T17:03:48.666Z,27816,0.022766113,0.120788574,0.0031738281
1734714228674,2024-12-20T17:03:48.674Z,27824,0.016479492,0.12213135,0.0020751953
1734714228683,2024-12-20T17:03:48.683Z,27833,0.019165039,0.11883545,0.0010986328
1734714228690,2024-12-20T17:03:48.690Z,27840,0.027404785,0.11999512,6.1035156E-5
1734714228699,2024-12-20T17:03:48.699Z,27849,0.027648926,0.12298584,-0.0010986328
1734714228753,2024-12-20T17:03:48.753Z,27903,0.02746582,0.119628906,-9.765625E-4
1734714228761,2024-12-20T17:03:48.761Z,27911,0.025817871,0.11987305,-4.8828125E-4
1734714228770,2024-12-20T17:03:48.770Z,27920,0.023010254,0.12225342,7.9345703E-4
1734714228779,2024-12-20T17:03:48.779Z,27929,0.023132324,0.122680664,0.001159668
1734714228790,2024-12-20T17:03:48.790Z,27940,0.020629883,0.12243652,0.0026245117
1734714228799,2024-12-20T17:03:48.799Z,27949,0.020263672,0.1217041,0.0026855469
1734714228808,2024-12-20T17:03:48.808Z,27958,0.022949219,0.123535156,-1.8310547E-4
1734714228815,2024-12-20T17:03:48.815Z,27965,0.024047852,0.12420654,-0.0015869141
1734714228822,2024-12-20T17:03:48.822Z,27972,0.024414062,0.12182617,-0.002319336
1734714228830,2024-12-20T17:03:48.830Z,27980,0.024475098,0.121032715,-0.0021972656
1734714228836,2024-12-20T17:03:48.836Z,27986,0.022583008,0.11981201,4.8828125E-4
1734714228845,2024-12-20T17:03:48.845Z,27995,0.021057129,0.12225342,0.007019043
1734714228852,2024-12-20T17:03:48.852Z,28002,0.024841309,0.12200928,0.006652832
1734714228858,2024-12-20T17:03:48.858Z,28008,0.026550293,0.1217041,0.003967285
1734714228863,2024-12-20T17:03:48.863Z,28013,0.024902344,0.12365723,0.0026245117
1734714228870,2024-12-20T17:03:48.870Z,28020,0.02508545,0.121520996,-6.1035156E-4
1734714228877,2024-12-20T17:03:48.877Z,28027,0.022460938,0.11834717,-0.0048828125
1734714228890,2024-12-20T17:03:48.890Z,28040,0.021972656,0.11981201,-0.0043945312
1734714228896,2024-12-20T17:03:48.896Z,28046,0.0211792,0.12261963,-9.765625E-4
1734714228903,2024-12-20T17:03:48.903Z,28053,0.023132324,0.12097168,0.0016479492
1734714228911,2024-12-20T17:03:48.911Z,28061,0.024536133,0.12121582,0.0048217773
1734714228919,2024-12-20T17:03:48.919Z,28069,0.026672363,0.121154785,0.009094238
1734714228931,2024-12-20T17:03:48.931Z,28081,0.025146484,0.11968994,0.01184082
1734714228938,2024-12-20T17:03:48.938Z,28088,0.020629883,0.12145996,0.008850098
1734714228949,2024-12-20T17:03:48.949Z,28099,0.020629883,0.12164307,0.003112793
1734714228955,2024-12-20T17:03:48.955Z,28105,0.022766113,0.12017822,-1.8310547E-4
1734714228961,2024-12-20T17:03:48.961Z,28111,0.018981934,0.12072754,-0.001159668
1734714228967,2024-12-20T17:03:48.967Z,28117,0.017028809,0.11993408,1.8310547E-4
1734714228980,2024-12-20T17:03:48.980Z,28130,0.024841309,0.11968994,0.0018920898
1734714228986,2024-12-20T17:03:48.986Z,28136,0.026428223,0.11932373,0.0036010742
1734714228993,2024-12-20T17:03:48.993Z,28143,0.025634766,0.11590576,0.0076293945
1734714228999,2024-12-20T17:03:48.999Z,28149,0.022583008,0.115722656,0.009155273
1734714229005,2024-12-20T17:03:49.005Z,28155,0.018554688,0.1171875,0.0073242188
1734714229020,2024-12-20T17:03:49.020Z,28170,0.021362305,0.11859131,0.0040893555
1734714229027,2024-12-20T17:03:49.027Z,28177,0.024353027,0.11798096,0.0018310547
1734714229033,2024-12-20T17:03:49.033Z,28183,0.025024414,0.1159668,0.003112793
1734714229039,2024-12-20T17:03:49.039Z,28189,0.022583008,0.11608887,0.0045166016
1734714229045,2024-12-20T17:03:49.045Z,28195,0.02142334,0.11657715,0.0048828125
1734714229066,2024-12-20T17:03:49.066Z,28216,0.02368164,0.11578369,0.0018310547
1734714229072,2024-12-20T17:03:49.072Z,28222,0.024475098,0.11413574,0.0010375977
1734714229079,2024-12-20T17:03:49.079Z,28229,0.024780273,0.11462402,0.0037231445
1734714229086,2024-12-20T17:03:49.086Z,28236,0.022399902,0.117492676,0.009460449
1734714229111,2024-12-20T17:03:49.111Z,28261,0.020507812,0.119262695,0.012573242
1734714229117,2024-12-20T17:03:49.117Z,28267,0.022888184,0.11755371,0.012145996
1734714229124,2024-12-20T17:03:49.124Z,28274,0.02911377,0.11651611,0.008850098
1734714229160,2024-12-20T17:03:49.160Z,28310,0.026611328,0.11883545,0.006164551
1734714229166,2024-12-20T17:03:49.166Z,28316,0.024658203,0.11730957,0.0051879883
1734714229174,2024-12-20T17:03:49.174Z,28324,0.024597168,0.11645508,0.006164551
1734714229181,2024-12-20T17:03:49.181Z,28331,0.024353027,0.11853027,0.008422852
1734714229189,2024-12-20T17:03:49.189Z,28339,0.023010254,0.11883545,0.010925293
1734714229196,2024-12-20T17:03:49.196Z,28346,0.020141602,0.119384766,0.014526367
1734714229205,2024-12-20T17:03:49.205Z,28355,0.024353027,0.117370605,0.014099121
1734714229211,2024-12-20T17:03:49.211Z,28361,0.026000977,0.11651611,0.010192871
1734714229218,2024-12-20T17:03:49.218Z,28368,0.0256958,0.11669922,0.0075683594
1734714229223,2024-12-20T17:03:49.223Z,28373,0.024291992,0.11828613,0.004699707
1734714229246,2024-12-20T17:03:49.246Z,28396,0.024963379,0.11853027,0.004333496
1734714229252,2024-12-20T17:03:49.252Z,28402,0.028076172,0.11785889,0.008666992
1734714229257,2024-12-20T17:03:49.257Z,28407,0.029846191,0.11846924,0.012512207
1734714229264,2024-12-20T17:03:49.264Z,28414,0.0289917,0.11682129,0.014038086
1734714229269,2024-12-20T17:03:49.269Z,28419,0.02557373,0.1161499,0.0138549805
1734714229295,2024-12-20T17:03:49.295Z,28445,0.02319336,0.116760254,0.012390137
1734714229300,2024-12-20T17:03:49.300Z,28450,0.026489258,0.115234375,0.014038086
1734714229307,2024-12-20T17:03:49.307Z,28457,0.030456543,0.119506836,0.014465332
1734714229313,2024-12-20T17:03:49.313Z,28463,0.02734375,0.12017822,0.010559082
1734714229336,2024-12-20T17:03:49.336Z,28486,0.02166748,0.11767578,0.0071411133
1734714229342,2024-12-20T17:03:49.342Z,28492,0.022277832,0.11584473,0.00793457
1734714229349,2024-12-20T17:03:49.349Z,28499,0.02355957,0.115356445,0.010314941
1734714229356,2024-12-20T17:03:49.356Z,28506,0.024536133,0.11462402,0.011657715
1734714229362,2024-12-20T17:03:49.362Z,28512,0.026000977,0.11407471,0.011413574
1734714229381,2024-12-20T17:03:49.381Z,28531,0.027954102,0.1149292,0.014526367
1734714229388,2024-12-20T17:03:49.388Z,28538,0.033691406,0.11602783,0.01928711
1734714229395,2024-12-20T17:03:49.395Z,28545,0.03540039,0.115356445,0.019104004
1734714229401,2024-12-20T17:03:49.401Z,28551,0.03112793,0.11517334,0.014709473
1734714229518,2024-12-20T17:03:49.518Z,28668,0.026733398,0.11584473,0.013427734
1734714229526,2024-12-20T17:03:49.526Z,28676,0.022705078,0.11669922,0.013427734
1734714229533,2024-12-20T17:03:49.533Z,28683,0.019897461,0.11602783,0.010925293
1734714229540,2024-12-20T17:03:49.540Z,28690,0.0211792,0.11608887,0.010375977
1734714229548,2024-12-20T17:03:49.548Z,28698,0.024841309,0.117248535,0.011413574
1734714229555,2024-12-20T17:03:49.555Z,28705,0.027526855,0.11755371,0.011108398
1734714229566,2024-12-20T17:03:49.566Z,28716,0.024536133,0.11590576,0.012756348
1734714229574,2024-12-20T17:03:49.574Z,28724,0.026306152,0.11505127,0.014404297
1734714229581,2024-12-20T17:03:49.581Z,28731,0.0289917,0.11767578,0.0154418945
1734714229589,2024-12-20T17:03:49.589Z,28739,0.029174805,0.1184082,0.015136719
1734714229597,2024-12-20T17:03:49.597Z,28747,0.029174805,0.11798096,0.014343262
1734714229601,2024-12-20T17:03:49.601Z,28751,0.030700684,0.12023926,0.0178833
1734714229611,2024-12-20T17:03:49.611Z,28761,0.028503418,0.116882324,0.017944336
1734714229618,2024-12-20T17:03:49.618Z,28768,0.026977539,0.11517334,0.018249512
1734714229624,2024-12-20T17:03:49.624Z,28774,0.023925781,0.117126465,0.016174316
1734714229630,2024-12-20T17:03:49.630Z,28780,0.024169922,0.11810303,0.012939453
1734714229636,2024-12-20T17:03:49.636Z,28786,0.027038574,0.1171875,0.011962891
1734714229652,2024-12-20T17:03:49.652Z,28802,0.030029297,0.1171875,0.013183594
1734714229658,2024-12-20T17:03:49.658Z,28808,0.030029297,0.11657715,0.014953613
1734714229666,2024-12-20T17:03:49.666Z,28816,0.031982422,0.11407471,0.017211914
1734714229676,2024-12-20T17:03:49.676Z,28826,0.03338623,0.113342285,0.020629883
1734714229682,2024-12-20T17:03:49.682Z,28832,0.031982422,0.11187744,0.018859863
1734714229689,2024-12-20T17:03:49.689Z,28839,0.029846191,0.11450195,0.019042969
1734714229699,2024-12-20T17:03:49.699Z,28849,0.031433105,0.12017822,0.020629883
1734714229704,2024-12-20T17:03:49.704Z,28854,0.031677246,0.12097168,0.01940918
1734714229709,2024-12-20T17:03:49.709Z,28859,0.027404785,0.11981201,0.01953125
1734714229715,2024-12-20T17:03:49.715Z,28865,0.02520752,0.11895752,0.020202637
1734714229720,2024-12-20T17:03:49.720Z,28870,0.028808594,0.119018555,0.019348145
1734714229741,2024-12-20T17:03:49.741Z,28891,0.028747559,0.11816406,0.017944336
1734714229748,2024-12-20T17:03:49.748Z,28898,0.026794434,0.117248535,0.016052246
1734714229754,2024-12-20T17:03:49.754Z,28904,0.02746582,0.119506836,0.012329102
1734714229759,2024-12-20T17:03:49.759Z,28909,0.026245117,0.12347412,0.015197754
1734714229766,2024-12-20T17:03:49.766Z,28916,0.027832031,0.12200928,0.023742676
1734714229771,2024-12-20T17:03:49.771Z,28921,0.030273438,0.12145996,0.027954102
1734714229789,2024-12-20T17:03:49.789Z,28939,0.028808594,0.119628906,0.028320312
1734714229795,2024-12-20T17:03:49.795Z,28945,0.025878906,0.11816406,0.02746582
1734714229801,2024-12-20T17:03:49.801Z,28951,0.02557373,0.11907959,0.024169922
1734714229806,2024-12-20T17:03:49.806Z,28956,0.024291992,0.12084961,0.020812988
1734714229831,2024-12-20T17:03:49.831Z,28981,0.028442383,0.12017822,0.020202637
1734714229878,2024-12-20T17:03:49.878Z,29028,0.033203125,0.12005615,0.018554688
1734714229886,2024-12-20T17:03:49.886Z,29036,0.02935791,0.11907959,0.016601562
1734714229893,2024-12-20T17:03:49.893Z,29043,0.023986816,0.11791992,0.016174316
1734714229900,2024-12-20T17:03:49.900Z,29050,0.0234375,0.117492676,0.016540527
1734714229907,2024-12-20T17:03:49.907Z,29057,0.024047852,0.11682129,0.016235352
1734714229915,2024-12-20T17:03:49.915Z,29065,0.027282715,0.115356445,0.017456055
1734714229929,2024-12-20T17:03:49.929Z,29079,0.033996582,0.115722656,0.020080566
1734714229936,2024-12-20T17:03:49.936Z,29086,0.032226562,0.11791992,0.022827148
1734714229943,2024-12-20T17:03:49.943Z,29093,0.02758789,0.11682129,0.022155762
1734714229949,2024-12-20T17:03:49.949Z,29099,0.028198242,0.1161499,0.018615723
1734714229955,2024-12-20T17:03:49.955Z,29105,0.0289917,0.11804199,0.015686035
1734714229966,2024-12-20T17:03:49.966Z,29116,0.02746582,0.117004395,0.014953613
1734714229972,2024-12-20T17:03:49.972Z,29122,0.026794434,0.11785889,0.014953613
1734714229978,2024-12-20T17:03:49.978Z,29128,0.030639648,0.11993408,0.015930176
1734714229984,2024-12-20T17:03:49.984Z,29134,0.034851074,0.119018555,0.019958496
1734714229990,2024-12-20T17:03:49.990Z,29140,0.03161621,0.11981201,0.022827148
1734714229996,2024-12-20T17:03:49.996Z,29146,0.026245117,0.119018555,0.024291992
1734714230015,2024-12-20T17:03:50.015Z,29165,0.02331543,0.119018555,0.023742676
1734714230022,2024-12-20T17:03:50.022Z,29172,0.024353027,0.11981201,0.021362305
1734714230028,2024-12-20T17:03:50.028Z,29178,0.030944824,0.118652344,0.020568848
1734714230034,2024-12-20T17:03:50.034Z,29184,0.03656006,0.1184082,0.020080566
1734714230057,2024-12-20T17:03:50.057Z,29207,0.035705566,0.1184082,0.019104004
1734714230064,2024-12-20T17:03:50.064Z,29214,0.03186035,0.11816406,0.01763916
1734714230070,2024-12-20T17:03:50.070Z,29220,0.026733398,0.11828613,0.018005371
1734714230076,2024-12-20T17:03:50.076Z,29226,0.020019531,0.11846924,0.017211914
1734714230083,2024-12-20T17:03:50.083Z,29233,0.017700195,0.117492676,0.016601562
1734714230101,2024-12-20T17:03:50.101Z,29251,0.023986816,0.11767578,0.01751709
1734714230107,2024-12-20T17:03:50.107Z,29257,0.031982422,0.11755371,0.016662598
1734714230113,2024-12-20T17:03:50.113Z,29263,0.037475586,0.11621094,0.016784668
1734714230119,2024-12-20T17:03:50.119Z,29269,0.03869629,0.11669922,0.016540527
1734714230148,2024-12-20T17:03:50.148Z,29298,0.034484863,0.11694336,0.016601562
1734714230154,2024-12-20T17:03:50.154Z,29304,0.029174805,0.11608887,0.016235352
1734714230161,2024-12-20T17:03:50.161Z,29311,0.026794434,0.11669922,0.016601562
1734714230167,2024-12-20T17:03:50.167Z,29317,0.025146484,0.11706543,0.017150879
1734714230191,2024-12-20T17:03:50.191Z,29341,0.02355957,0.11651611,0.016967773
1734714230199,2024-12-20T17:03:50.199Z,29349,0.026306152,0.117370605,0.016357422
1734714230206,2024-12-20T17:03:50.206Z,29356,0.032043457,0.119018555,0.017089844
1734714230212,2024-12-20T17:03:50.212Z,29362,0.0357666,0.119262695,0.016296387
1734714230219,2024-12-20T17:03:50.219Z,29369,0.035339355,0.11804199,0.015380859
1734714230236,2024-12-20T17:03:50.236Z,29386,0.030517578,0.118896484,0.014282227
1734714230242,2024-12-20T17:03:50.242Z,29392,0.024841309,0.11871338,0.013977051
1734714230248,2024-12-20T17:03:50.248Z,29398,0.025817871,0.11816406,0.016052246
1734714230255,2024-12-20T17:03:50.255Z,29405,0.030456543,0.12072754,0.017822266
1734714230282,2024-12-20T17:03:50.282Z,29432,0.031982422,0.12054443,0.017089844
1734714230287,2024-12-20T17:03:50.287Z,29437,0.031433105,0.12005615,0.017089844
1734714230294,2024-12-20T17:03:50.294Z,29444,0.032165527,0.12194824,0.018310547
1734714230300,2024-12-20T17:03:50.300Z,29450,0.030639648,0.120666504,0.016967773
1734714230307,2024-12-20T17:03:50.307Z,29457,0.025268555,0.12017822,0.015563965
1734714230328,2024-12-20T17:03:50.328Z,29478,0.027160645,0.12054443,0.016296387
1734714230334,2024-12-20T17:03:50.334Z,29484,0.030700684,0.11993408,0.016296387
1734714230341,2024-12-20T17:03:50.341Z,29491,0.028076172,0.118774414,0.014343262
1734714230348,2024-12-20T17:03:50.348Z,29498,0.026489258,0.11853027,0.012390137
1734714230374,2024-12-20T17:03:50.374Z,29524,0.026611328,0.11895752,0.011169434
1734714230383,2024-12-20T17:03:50.383Z,29533,0.026733398,0.11798096,0.0099487305
1734714230390,2024-12-20T17:03:50.390Z,29540,0.026672363,0.11767578,0.009887695
1734714230398,2024-12-20T17:03:50.398Z,29548,0.027648926,0.118652344,0.0107421875
1734714230408,2024-12-20T17:03:50.408Z,29558,0.026977539,0.117248535,0.012390137
1734714230422,2024-12-20T17:03:50.422Z,29572,0.026916504,0.11645508,0.014709473
1734714230427,2024-12-20T17:03:50.427Z,29577,0.030090332,0.11743164,0.015930176
1734714230433,2024-12-20T17:03:50.433Z,29583,0.032287598,0.11785889,0.014831543
1734714230439,2024-12-20T17:03:50.439Z,29589,0.026550293,0.119018555,0.012512207
1734714230508,2024-12-20T17:03:50.508Z,29658,0.024719238,0.11907959,0.009765625
1734714230515,2024-12-20T17:03:50.515Z,29665,0.025817871,0.1184082,0.0076904297
1734714230522,2024-12-20T17:03:50.522Z,29672,0.026000977,0.11785889,0.006591797
1734714230529,2024-12-20T17:03:50.529Z,29679,0.02355957,0.119384766,0.008239746
1734714230537,2024-12-20T17:03:50.537Z,29687,0.022949219,0.119018555,0.009216309
1734714230543,2024-12-20T17:03:50.543Z,29693,0.02508545,0.1182251,0.010131836
1734714230602,2024-12-20T17:03:50.602Z,29752,0.024475098,0.11968994,0.009094238
1734714230609,2024-12-20T17:03:50.609Z,29759,0.024475098,0.119384766,0.007446289
1734714230616,2024-12-20T17:03:50.616Z,29766,0.027038574,0.11834717,0.006958008
1734714230622,2024-12-20T17:03:50.622Z,29772,0.027893066,0.11907959,0.008605957
1734714230627,2024-12-20T17:03:50.627Z,29777,0.0256958,0.12036133,0.009033203
1734714230643,2024-12-20T17:03:50.643Z,29793,0.026672363,0.117492676,0.008728027
1734714230650,2024-12-20T17:03:50.650Z,29800,0.024902344,0.11859131,0.008728027
1734714230657,2024-12-20T17:03:50.657Z,29807,0.020202637,0.11975098,0.007507324
1734714230664,2024-12-20T17:03:50.664Z,29814,0.017333984,0.11987305,0.0073242188
1734714230671,2024-12-20T17:03:50.671Z,29821,0.02319336,0.117492676,0.007507324
1734714230678,2024-12-20T17:03:50.678Z,29828,0.026000977,0.11682129,0.006286621
1734714230686,2024-12-20T17:03:50.686Z,29836,0.022827148,0.11834717,0.0045166016
1734714230693,2024-12-20T17:03:50.693Z,29843,0.022399902,0.11816406,0.002380371
1734714230699,2024-12-20T17:03:50.699Z,29849,0.024536133,0.11694336,9.1552734E-4
1734714230706,2024-12-20T17:03:50.706Z,29856,0.024536133,0.11834717,0.0020141602
1734714230711,2024-12-20T17:03:50.711Z,29861,0.024536133,0.12011719,0.0049438477
1734714230717,2024-12-20T17:03:50.717Z,29867,0.025268555,0.11859131,0.009643555
1734714230736,2024-12-20T17:03:50.736Z,29886,0.025939941,0.11730957,0.012634277
1734714230741,2024-12-20T17:03:50.741Z,29891,0.021484375,0.120910645,0.010253906
1734714230747,2024-12-20T17:03:50.747Z,29897,0.022033691,0.12036133,0.0068359375
1734714230754,2024-12-20T17:03:50.754Z,29904,0.022460938,0.120910645,0.004760742
1734714230759,2024-12-20T17:03:50.759Z,29909,0.02508545,0.120910645,0.0041503906
1734714230775,2024-12-20T17:03:50.775Z,29925,0.0256958,0.12060547,0.003479004
1734714230782,2024-12-20T17:03:50.782Z,29932,0.022705078,0.11999512,0.003479004
1734714230788,2024-12-20T17:03:50.788Z,29938,0.022766113,0.117004395,0.0036621094
1734714230793,2024-12-20T17:03:50.793Z,29943,0.022644043,0.1171875,0.0045776367
1734714230799,2024-12-20T17:03:50.799Z,29949,0.019592285,0.11956787,0.0044555664
1734714230804,2024-12-20T17:03:50.804Z,29954,0.021484375,0.11798096,0.0033569336
1734714230824,2024-12-20T17:03:50.824Z,29974,0.021850586,0.11743164,0.0015258789
1734714230831,2024-12-20T17:03:50.831Z,29981,0.020202637,0.11602783,3.6621094E-4
1734714230837,2024-12-20T17:03:50.837Z,29987,0.021240234,0.11468506,6.713867E-4
1734714230843,2024-12-20T17:03:50.843Z,29993,0.024658203,0.115600586,0.0026245117
1734714230849,2024-12-20T17:03:50.849Z,29999,0.024475098,0.11895752,0.0037231445
1734714230867,2024-12-20T17:03:50.867Z,30017,0.025268555,0.11956787,0.0036621094
1734714230873,2024-12-20T17:03:50.873Z,30023,0.025756836,0.11798096,0.0031738281
1734714230878,2024-12-20T17:03:50.878Z,30028,0.02355957,0.119628906,0.0010986328
1734714230884,2024-12-20T17:03:50.884Z,30034,0.020568848,0.1194458,-0.0010986328
1734714230889,2024-12-20T17:03:50.889Z,30039,0.019836426,0.11853027,-0.0026855469
1734714230912,2024-12-20T17:03:50.912Z,30062,0.020141602,0.12017822,-0.0020751953
1734714230919,2024-12-20T17:03:50.919Z,30069,0.019897461,0.11968994,-0.0018920898
1734714230925,2024-12-20T17:03:50.925Z,30075,0.019958496,0.119506836,-6.1035156E-4
1734714230931,2024-12-20T17:03:50.931Z,30081,0.01965332,0.1194458,-0.001159668
1734714230937,2024-12-20T17:03:50.937Z,30087,0.020202637,0.11907959,-0.0021362305
1734714230957,2024-12-20T17:03:50.957Z,30107,0.022583008,0.1194458,-3.6621094E-4
1734714230963,2024-12-20T17:03:50.963Z,30113,0.023376465,0.11932373,0.0018310547
1734714231005,2024-12-20T17:03:51.005Z,30155,0.022644043,0.12023926,0.0022583008
1734714231012,2024-12-20T17:03:51.012Z,30162,0.019714355,0.12084961,-3.6621094E-4
1734714231020,2024-12-20T17:03:51.020Z,30170,0.019042969,0.11791992,-0.0045166016
1734714231026,2024-12-20T17:03:51.026Z,30176,0.018554688,0.117370605,-0.005065918
1734714231033,2024-12-20T17:03:51.033Z,30183,0.018737793,0.1184082,-0.0061035156
1734714231047,2024-12-20T17:03:51.047Z,30197,0.019714355,0.11907959,-0.008666992
1734714231053,2024-12-20T17:03:51.053Z,30203,0.018859863,0.12084961,-0.009094238
1734714231059,2024-12-20T17:03:51.059Z,30209,0.02178955,0.12347412,-0.004760742
1734714231065,2024-12-20T17:03:51.065Z,30215,0.024841309,0.12548828,9.765625E-4
1734714231071,2024-12-20T17:03:51.071Z,30221,0.02368164,0.12542725,0.0013427734
1734714231076,2024-12-20T17:03:51.076Z,30226,0.021728516,0.12542725,1.8310547E-4
1734714231095,2024-12-20T17:03:51.095Z,30245,0.022766113,0.1262207,0.0014038086
1734714231102,2024-12-20T17:03:51.102Z,30252,0.022399902,0.12768555,0.0030517578
1734714231109,2024-12-20T17:03:51.109Z,30259,0.01763916,0.12322998,-0.001159668
1734714231120,2024-12-20T17:03:51.120Z,30270,0.014404297,0.11999512,-0.009155273
1734714231128,2024-12-20T17:03:51.128Z,30278,0.016784668,0.12475586,-0.012451172
1734714231137,2024-12-20T17:03:51.137Z,30287,0.022705078,0.12786865,-0.014404297
1734714231143,2024-12-20T17:03:51.143Z,30293,0.022094727,0.12322998,-0.013183594
1734714231149,2024-12-20T17:03:51.149Z,30299,0.019714355,0.11932373,-0.0073242188
1734714231155,2024-12-20T17:03:51.155Z,30305,0.022705078,0.12365723,-0.0016479492
1734714231182,2024-12-20T17:03:51.182Z,30332,0.023254395,0.12249756,-6.713867E-4
1734714231228,2024-12-20T17:03:51.228Z,30378,0.019470215,0.11706543,-0.001953125
1734714231235,2024-12-20T17:03:51.235Z,30385,0.020263672,0.12011719,-0.0036010742
1734714231242,2024-12-20T17:03:51.242Z,30392,0.021484375,0.122558594,-0.0072631836
1734714231249,2024-12-20T17:03:51.249Z,30399,0.020996094,0.11871338,-0.00982666
1734714231256,2024-12-20T17:03:51.256Z,30406,0.022888184,0.1204834,-0.010070801
1734714231264,2024-12-20T17:03:51.264Z,30414,0.023925781,0.12402344,-0.008422852
1734714231275,2024-12-20T17:03:51.275Z,30425,0.023071289,0.12176514,-0.0072021484
1734714231282,2024-12-20T17:03:51.282Z,30432,0.022583008,0.12225342,-0.006652832
1734714231288,2024-12-20T17:03:51.288Z,30438,0.021240234,0.122924805,-0.007385254
1734714231294,2024-12-20T17:03:51.294Z,30444,0.020751953,0.122802734,-0.007019043
1734714231300,2024-12-20T17:03:51.300Z,30450,0.021850586,0.124694824,-0.00579834
1734714231316,2024-12-20T17:03:51.316Z,30466,0.018371582,0.12451172,-0.0071411133
1734714231324,2024-12-20T17:03:51.324Z,30474,0.016906738,0.1217041,-0.007751465
1734714231329,2024-12-20T17:03:51.329Z,30479,0.020324707,0.123168945,-0.0068969727
1734714231366,2024-12-20T17:03:51.366Z,30516,0.024597168,0.12475586,-0.006713867
1734714231373,2024-12-20T17:03:51.373Z,30523,0.022094727,0.12182617,-0.007080078
1734714231379,2024-12-20T17:03:51.379Z,30529,0.019470215,0.11975098,-0.0073242188
1734714231386,2024-12-20T17:03:51.386Z,30536,0.022277832,0.12030029,-0.0072021484
1734714231393,2024-12-20T17:03:51.393Z,30543,0.020690918,0.12133789,-0.012451172
1734714231406,2024-12-20T17:03:51.406Z,30556,0.016784668,0.12036133,-0.016601562
1734714231413,2024-12-20T17:03:51.413Z,30563,0.017211914,0.11993408,-0.016540527
1734714231420,2024-12-20T17:03:51.420Z,30570,0.019104004,0.11993408,-0.011291504
1734714231426,2024-12-20T17:03:51.426Z,30576,0.019958496,0.12121582,-0.0060424805
1734714231432,2024-12-20T17:03:51.432Z,30582,0.018493652,0.12225342,-0.005065918
1734714231439,2024-12-20T17:03:51.439Z,30589,0.014892578,0.12017822,-0.0064697266
1734714231455,2024-12-20T17:03:51.455Z,30605,0.016784668,0.11779785,-0.007019043
1734714231461,2024-12-20T17:03:51.461Z,30611,0.018310547,0.11755371,-0.008361816
1734714231467,2024-12-20T17:03:51.467Z,30617,0.018005371,0.1159668,-0.009887695
1734714231474,2024-12-20T17:03:51.474Z,30624,0.021606445,0.117614746,-0.008911133
1734714231479,2024-12-20T17:03:51.479Z,30629,0.022766113,0.12249756,-0.009094238
1734714231498,2024-12-20T17:03:51.498Z,30648,0.018554688,0.12207031,-0.009887695
1734714231504,2024-12-20T17:03:51.504Z,30654,0.020568848,0.11895752,-0.00982666
1734714231510,2024-12-20T17:03:51.510Z,30660,0.023254395,0.122802734,-0.00793457
1734714231516,2024-12-20T17:03:51.516Z,30666,0.02319336,0.12322998,-0.0053100586
1734714231542,2024-12-20T17:03:51.542Z,30692,0.024597168,0.12017822,-0.0032958984
1734714231548,2024-12-20T17:03:51.548Z,30698,0.02178955,0.122558594,-0.005432129
1734714231554,2024-12-20T17:03:51.554Z,30704,0.013061523,0.12561035,-0.00982666
1734714231559,2024-12-20T17:03:51.559Z,30709,0.014953613,0.12463379,-0.0107421875
1734714231565,2024-12-20T17:03:51.565Z,30715,0.021850586,0.12615967,-0.011413574
1734714231586,2024-12-20T17:03:51.586Z,30736,0.020812988,0.12872314,-0.013000488
1734714231592,2024-12-20T17:03:51.592Z,30742,0.018188477,0.12927246,-0.015075684
1734714231598,2024-12-20T17:03:51.598Z,30748,0.016357422,0.12841797,-0.017700195
1734714231604,2024-12-20T17:03:51.604Z,30754,0.018859863,0.1260376,-0.020935059
1734714231633,2024-12-20T17:03:51.633Z,30783,0.016662598,0.12573242,-0.0211792
1734714231639,2024-12-20T17:03:51.639Z,30789,0.018737793,0.12542725,-0.018432617
1734714231645,2024-12-20T17:03:51.645Z,30795,0.020996094,0.12591553,-0.015014648
1734714231652,2024-12-20T17:03:51.652Z,30802,0.019226074,0.12432861,-0.0115356445
1734714231659,2024-12-20T17:03:51.659Z,30809,0.017333984,0.122558594,-0.007446289
1734714231725,2024-12-20T17:03:51.725Z,30875,0.016723633,0.1274414,-0.0037231445
1734714231732,2024-12-20T17:03:51.732Z,30882,0.019470215,0.1315918,-0.0040893555
1734714231737,2024-12-20T17:03:51.737Z,30887,0.019348145,0.12817383,-0.009887695
1734714231743,2024-12-20T17:03:51.743Z,30893,0.01977539,0.12426758,-0.0146484375
1734714231748,2024-12-20T17:03:51.748Z,30898,0.024841309,0.12188721,-0.013916016
1734714231754,2024-12-20T17:03:51.754Z,30904,0.022399902,0.12188721,-0.015136719
1734714231770,2024-12-20T17:03:51.770Z,30920,0.013916016,0.12390137,-0.01550293
1734714231778,2024-12-20T17:03:51.778Z,30928,0.015625,0.12731934,-0.016662598
1734714231785,2024-12-20T17:03:51.785Z,30935,0.015563965,0.12432861,-0.019165039
1734714231792,2024-12-20T17:03:51.792Z,30942,0.009399414,0.12683105,-0.018615723
1734714231799,2024-12-20T17:03:51.799Z,30949,0.01550293,0.12780762,-0.014404297
1734714231811,2024-12-20T17:03:51.811Z,30961,0.020263672,0.124816895,-0.015991211
1734714231817,2024-12-20T17:03:51.817Z,30967,0.015991211,0.12225342,-0.01977539
1734714231824,2024-12-20T17:03:51.824Z,30974,0.015075684,0.122558594,-0.019226074
1734714231829,2024-12-20T17:03:51.829Z,30979,0.019042969,0.12506104,-0.018188477
1734714231836,2024-12-20T17:03:51.836Z,30986,0.018859863,0.12567139,-0.01727295
1734714231841,2024-12-20T17:03:51.841Z,30991,0.015014648,0.12414551,-0.01550293
1734714231860,2024-12-20T17:03:51.860Z,31010,0.014953613,0.123413086,-0.01184082
1734714231867,2024-12-20T17:03:51.867Z,31017,0.01776123,0.1237793,-0.010192871
1734714231874,2024-12-20T17:03:51.874Z,31024,0.020935059,0.12060547,-0.012939453
1734714231880,2024-12-20T17:03:51.880Z,31030,0.022338867,0.12030029,-0.01776123
1734714231887,2024-12-20T17:03:51.887Z,31037,0.018920898,0.123168945,-0.020324707
1734714231901,2024-12-20T17:03:51.901Z,31051,0.014160156,0.12194824,-0.019592285
1734714231947,2024-12-20T17:03:51.947Z,31097,0.017150879,0.11804199,-0.014953613
1734714231954,2024-12-20T17:03:51.954Z,31104,0.018127441,0.11987305,-0.010009766
1734714231960,2024-12-20T17:03:51.960Z,31110,0.013427734,0.12176514,-0.011962891
1734714231967,2024-12-20T17:03:51.967Z,31117,0.017211914,0.121398926,-0.01159668
1734714231973,2024-12-20T17:03:51.973Z,31123,0.028015137,0.12322998,-0.011413574
1734714231978,2024-12-20T17:03:51.978Z,31128,0.027282715,0.1270752,-0.014892578
1734714231994,2024-12-20T17:03:51.994Z,31144,0.019042969,0.12573242,-0.01586914
1734714232001,2024-12-20T17:03:52.001Z,31151,0.018798828,0.12475586,-0.01751709
1734714232007,2024-12-20T17:03:52.007Z,31157,0.020568848,0.1239624,-0.021362305
1734714232012,2024-12-20T17:03:52.012Z,31162,0.014221191,0.12194824,-0.0234375
1734714232019,2024-12-20T17:03:52.019Z,31169,0.013916016,0.12445068,-0.020874023
1734714232037,2024-12-20T17:03:52.037Z,31187,0.018371582,0.12835693,-0.017089844
1734714232043,2024-12-20T17:03:52.043Z,31193,0.020141602,0.12615967,-0.015380859
1734714232048,2024-12-20T17:03:52.048Z,31198,0.01928711,0.12512207,-0.015075684
1734714232054,2024-12-20T17:03:52.054Z,31204,0.020874023,0.1270752,-0.016601562
1734714232059,2024-12-20T17:03:52.059Z,31209,0.02355957,0.12750244,-0.019104004
1734714232064,2024-12-20T17:03:52.064Z,31214,0.02178955,0.12579346,-0.01977539
1734714232088,2024-12-20T17:03:52.088Z,31238,0.014953613,0.12780762,-0.017700195
1734714232094,2024-12-20T17:03:52.094Z,31244,0.01940918,0.12786865,-0.016601562
1734714232100,2024-12-20T17:03:52.100Z,31250,0.018310547,0.12390137,-0.020996094
1734714232126,2024-12-20T17:03:52.126Z,31276,0.0146484375,0.12298584,-0.025939941
1734714232131,2024-12-20T17:03:52.131Z,31281,0.015991211,0.12658691,-0.026428223
1734714232138,2024-12-20T17:03:52.138Z,31288,0.018798828,0.123413086,-0.023803711
1734714232144,2024-12-20T17:03:52.144Z,31294,0.019714355,0.12072754,-0.020324707
1734714232150,2024-12-20T17:03:52.150Z,31300,0.020874023,0.11999512,-0.016967773
1734714232171,2024-12-20T17:03:52.171Z,31321,0.020690918,0.121520996,-0.015075684
1734714232176,2024-12-20T17:03:52.176Z,31326,0.021484375,0.123291016,-0.012573242
1734714232193,2024-12-20T17:03:52.193Z,31343,0.022155762,0.124938965,-0.0099487305
1734714232204,2024-12-20T17:03:52.204Z,31354,0.016662598,0.121398926,-0.01184082
1734714232210,2024-12-20T17:03:52.210Z,31360,0.015136719,0.118896484,-0.015075684
1734714232217,2024-12-20T17:03:52.217Z,31367,0.020812988,0.1217041,-0.016723633
1734714232224,2024-12-20T17:03:52.224Z,31374,0.022338867,0.12579346,-0.020568848
1734714232230,2024-12-20T17:03:52.230Z,31380,0.0211792,0.12432861,-0.024108887
1734714232236,2024-12-20T17:03:52.236Z,31386,0.01574707,0.11981201,-0.028320312
1734714232262,2024-12-20T17:03:52.262Z,31412,0.013549805,0.12249756,-0.028137207
1734714232307,2024-12-20T17:03:52.307Z,31457,0.014831543,0.12432861,-0.021606445
1734714232313,2024-12-20T17:03:52.313Z,31463,0.016174316,0.11968994,-0.0146484375
1734714232321,2024-12-20T17:03:52.321Z,31471,0.018249512,0.12005615,-0.0076293945
1734714232351,2024-12-20T17:03:52.351Z,31501,0.018310547,0.12615967,-0.0068359375
1734714232358,2024-12-20T17:03:52.358Z,31508,0.01751709,0.12237549,-0.011657715
1734714232365,2024-12-20T17:03:52.365Z,31515,0.01940918,0.1204834,-0.016235352
1734714232373,2024-12-20T17:03:52.373Z,31523,0.019836426,0.1260376,-0.021057129
1734714232380,2024-12-20T17:03:52.380Z,31530,0.020324707,0.12524414,-0.024841309
1734714232387,2024-12-20T17:03:52.387Z,31537,0.020996094,0.11932373,-0.02557373
1734714232400,2024-12-20T17:03:52.400Z,31550,0.019958496,0.12011719,-0.023864746
1734714232407,2024-12-20T17:03:52.407Z,31557,0.018371582,0.12188721,-0.020568848
1734714232443,2024-12-20T17:03:52.443Z,31593,0.014343262,0.122802734,-0.014221191
1734714232492,2024-12-20T17:03:52.492Z,31642,0.014404297,0.1296997,-0.012634277
1734714232501,2024-12-20T17:03:52.501Z,31651,0.019470215,0.12957764,-0.014465332
1734714232508,2024-12-20T17:03:52.508Z,31658,0.017333984,0.12664795,-0.015014648
1734714232516,2024-12-20T17:03:52.516Z,31666,0.018249512,0.12786865,-0.012817383
1734714232524,2024-12-20T17:03:52.524Z,31674,0.02178955,0.13195801,-0.012573242
1734714232531,2024-12-20T17:03:52.531Z,31681,0.015075684,0.13024902,-0.018737793
1734714232539,2024-12-20T17:03:52.539Z,31689,0.014526367,0.12072754,-0.020751953
1734714232545,2024-12-20T17:03:52.545Z,31695,0.024291992,0.11694336,-0.022827148
1734714232552,2024-12-20T17:03:52.552Z,31702,0.021484375,0.1262207,-0.024719238
1734714232558,2024-12-20T17:03:52.558Z,31708,0.018371582,0.12646484,-0.02722168
1734714232565,2024-12-20T17:03:52.565Z,31715,0.017822266,0.12597656,-0.028076172
1734714232579,2024-12-20T17:03:52.579Z,31729,0.027770996,0.12908936,-0.017578125
1734714232582,2024-12-20T17:03:52.582Z,31732,0.016113281,0.12854004,-0.02130127
1734714232588,2024-12-20T17:03:52.588Z,31738,0.013122559,0.1262207,-0.02130127
1734714232594,2024-12-20T17:03:52.594Z,31744,0.016662598,0.12573242,-0.019348145
1734714232598,2024-12-20T17:03:52.598Z,31748,0.018005371,0.12506104,-0.017211914
1734714232604,2024-12-20T17:03:52.604Z,31754,0.019470215,0.12768555,-0.015686035
1734714232624,2024-12-20T17:03:52.624Z,31774,0.020385742,0.12646484,-0.012878418
1734714232629,2024-12-20T17:03:52.629Z,31779,0.020690918,0.1227417,-0.011779785
1734714232636,2024-12-20T17:03:52.636Z,31786,0.018310547,0.123535156,-0.016845703
1734714232642,2024-12-20T17:03:52.642Z,31792,0.017150879,0.12591553,-0.020629883
1734714232653,2024-12-20T17:03:52.653Z,31803,0.02508545,0.12597656,-0.020996094
1734714232666,2024-12-20T17:03:52.666Z,31816,0.024414062,0.128479,-0.022827148
1734714232673,2024-12-20T17:03:52.673Z,31823,0.016967773,0.12774658,-0.02545166
1734714232679,2024-12-20T17:03:52.679Z,31829,0.02355957,0.12646484,-0.021240234
1734714232686,2024-12-20T17:03:52.686Z,31836,0.031555176,0.12658691,-0.016662598
1734714232692,2024-12-20T17:03:52.692Z,31842,0.026062012,0.124572754,-0.021118164
1734714232697,2024-12-20T17:03:52.697Z,31847,0.020385742,0.12445068,-0.023132324
1734714232713,2024-12-20T17:03:52.713Z,31863,0.020019531,0.12695312,-0.022766113
1734714232763,2024-12-20T17:03:52.763Z,31913,0.01751709,0.12597656,-0.025817871
1734714232769,2024-12-20T17:03:52.769Z,31919,0.016052246,0.12774658,-0.026916504
1734714232781,2024-12-20T17:03:52.781Z,31931,0.02142334,0.12677002,-0.022766113
1734714232793,2024-12-20T17:03:52.793Z,31943,0.02557373,0.12121582,-0.019042969
1734714232807,2024-12-20T17:03:52.807Z,31957,0.02545166,0.12023926,-0.016845703
1734714232819,2024-12-20T17:03:52.819Z,31969,0.028503418,0.12219238,-0.01550293
1734714232850,2024-12-20T17:03:52.850Z,32000,0.028259277,0.12390137,-0.018249512
1734714232861,2024-12-20T17:03:52.861Z,32011,0.018188477,0.12475586,-0.021911621
1734714232874,2024-12-20T17:03:52.874Z,32024,0.013427734,0.12188721,-0.023010254
1734714232880,2024-12-20T17:03:52.880Z,32030,0.022827148,0.1204834,-0.021972656
1734714232888,2024-12-20T17:03:52.888Z,32038,0.030029297,0.12176514,-0.017822266
1734714232896,2024-12-20T17:03:52.896Z,32046,0.0289917,0.120788574,-0.017822266
1734714232903,2024-12-20T17:03:52.903Z,32053,0.022888184,0.123168945,-0.020080566
1734714232910,2024-12-20T17:03:52.910Z,32060,0.0256958,0.12420654,-0.017456055
1734714232917,2024-12-20T17:03:52.917Z,32067,0.024658203,0.123046875,-0.01586914
1734714232924,2024-12-20T17:03:52.924Z,32074,0.0234375,0.123535156,-0.019104004
1734714232930,2024-12-20T17:03:52.930Z,32080,0.02368164,0.12664795,-0.024230957
1734714232937,2024-12-20T17:03:52.937Z,32087,0.02709961,0.12408447,-0.025146484
1734714232943,2024-12-20T17:03:52.943Z,32093,0.027832031,0.12463379,-0.022705078
1734714232949,2024-12-20T17:03:52.949Z,32099,0.024597168,0.12750244,-0.019836426
1734714232955,2024-12-20T17:03:52.955Z,32105,0.021606445,0.12561035,-0.01727295
1734714232960,2024-12-20T17:03:52.960Z,32110,0.024230957,0.12487793,-0.016906738
1734714232966,2024-12-20T17:03:52.966Z,32116,0.02734375,0.1296997,-0.016296387
1734714232985,2024-12-20T17:03:52.985Z,32135,0.020202637,0.13366699,-0.01586914
1734714232991,2024-12-20T17:03:52.991Z,32141,0.013427734,0.13012695,-0.016601562
1734714232997,2024-12-20T17:03:52.997Z,32147,0.024719238,0.12841797,-0.016296387
1734714233003,2024-12-20T17:03:53.003Z,32153,0.02746582,0.13128662,-0.01550293
1734714233009,2024-12-20T17:03:53.009Z,32159,0.020019531,0.12731934,-0.01940918
1734714233026,2024-12-20T17:03:53.026Z,32176,0.019226074,0.12390137,-0.022888184
1734714233032,2024-12-20T17:03:53.032Z,32182,0.024841309,0.12823486,-0.02520752
1734714233038,2024-12-20T17:03:53.038Z,32188,0.02545166,0.12866211,-0.026550293
1734714233043,2024-12-20T17:03:53.043Z,32193,0.023254395,0.12780762,-0.023864746
1734714233048,2024-12-20T17:03:53.048Z,32198,0.02142334,0.1293335,-0.021118164
1734714233071,2024-12-20T17:03:53.071Z,32221,0.019897461,0.12536621,-0.020263672
1734714233077,2024-12-20T17:03:53.077Z,32227,0.018920898,0.1270752,-0.016845703
1734714233084,2024-12-20T17:03:53.084Z,32234,0.020507812,0.12786865,-0.01171875
1734714233090,2024-12-20T17:03:53.090Z,32240,0.020446777,0.1270752,-0.009277344
1734714233095,2024-12-20T17:03:53.095Z,32245,0.014892578,0.12835693,-0.012390137
1734714233101,2024-12-20T17:03:53.101Z,32251,0.018798828,0.1217041,-0.020690918
1734714233162,2024-12-20T17:03:53.162Z,32312,0.024353027,0.117614746,-0.0234375
1734714233169,2024-12-20T17:03:53.169Z,32319,0.028625488,0.123291016,-0.019958496
1734714233214,2024-12-20T17:03:53.214Z,32364,0.026855469,0.12664795,-0.01953125
1734714233222,2024-12-20T17:03:53.222Z,32372,0.016967773,0.12689209,-0.019836426
1734714233230,2024-12-20T17:03:53.230Z,32380,0.014526367,0.12512207,-0.016479492
1734714233238,2024-12-20T17:03:53.238Z,32388,0.016967773,0.12200928,-0.015136719
1734714233257,2024-12-20T17:03:53.257Z,32407,0.019897461,0.12414551,-0.017700195
1734714233263,2024-12-20T17:03:53.263Z,32413,0.02319336,0.12445068,-0.022155762
1734714233269,2024-12-20T17:03:53.269Z,32419,0.024902344,0.12237549,-0.024902344
1734714233275,2024-12-20T17:03:53.275Z,32425,0.021911621,0.12097168,-0.022888184
1734714233281,2024-12-20T17:03:53.281Z,32431,0.022949219,0.11968994,-0.021606445
1734714233296,2024-12-20T17:03:53.296Z,32446,0.024719238,0.121520996,-0.020629883
1734714233302,2024-12-20T17:03:53.302Z,32452,0.02368164,0.12237549,-0.01739502
1734714233344,2024-12-20T17:03:53.344Z,32494,0.020446777,0.124816895,-0.015991211
1734714233350,2024-12-20T17:03:53.350Z,32500,0.020935059,0.1272583,-0.016540527
1734714233358,2024-12-20T17:03:53.358Z,32508,0.024169922,0.12689209,-0.018798828
1734714233367,2024-12-20T17:03:53.367Z,32517,0.02142334,0.13024902,-0.02355957
1734714233375,2024-12-20T17:03:53.375Z,32525,0.021362305,0.12164307,-0.024230957
1734714233389,2024-12-20T17:03:53.389Z,32539,0.020751953,0.12872314,-0.018310547
1734714233395,2024-12-20T17:03:53.395Z,32545,0.01977539,0.12774658,-0.017089844
1734714233402,2024-12-20T17:03:53.402Z,32552,0.018798828,0.12347412,-0.022399902
1734714233409,2024-12-20T17:03:53.409Z,32559,0.022155762,0.12524414,-0.024414062
1734714233415,2024-12-20T17:03:53.415Z,32565,0.02960205,0.12719727,-0.023803711
1734714233431,2024-12-20T17:03:53.431Z,32581,0.028808594,0.12689209,-0.02508545
1734714233434,2024-12-20T17:03:53.434Z,32584,0.01763916,0.12677002,-0.015014648
1734714233441,2024-12-20T17:03:53.441Z,32591,0.016662598,0.12609863,-0.017578125
1734714233447,2024-12-20T17:03:53.447Z,32597,0.022094727,0.1274414,-0.021484375
1734714233458,2024-12-20T17:03:53.458Z,32608,0.02758789,0.12835693,-0.022827148
1734714233464,2024-12-20T17:03:53.464Z,32614,0.03326416,0.12670898,-0.024108887
1734714233478,2024-12-20T17:03:53.478Z,32628,0.02947998,0.12792969,-0.0211792
1734714233483,2024-12-20T17:03:53.483Z,32633,0.022216797,0.12799072,-0.018981934
1734714233489,2024-12-20T17:03:53.489Z,32639,0.0178833,0.13153076,-0.019104004
1734714233494,2024-12-20T17:03:53.494Z,32644,0.01965332,0.13122559,-0.017822266
1734714233498,2024-12-20T17:03:53.498Z,32648,0.022827148,0.124938965,-0.020385742
1734714233568,2024-12-20T17:03:53.568Z,32718,0.023010254,0.12738037,-0.023925781
1734714233575,2024-12-20T17:03:53.575Z,32725,0.025878906,0.13189697,-0.025268555
1734714233579,2024-12-20T17:03:53.579Z,32729,0.028869629,0.13366699,-0.024047852
1734714233585,2024-12-20T17:03:53.585Z,32735,0.027160645,0.13092041,-0.018920898
1734714233590,2024-12-20T17:03:53.590Z,32740,0.023742676,0.12890625,-0.01373291
1734714233597,2024-12-20T17:03:53.597Z,32747,0.018249512,0.13275146,-0.013671875
1734714233615,2024-12-20T17:03:53.615Z,32765,0.0178833,0.13024902,-0.020507812
1734714233621,2024-12-20T17:03:53.621Z,32771,0.020446777,0.12628174,-0.025512695
1734714233627,2024-12-20T17:03:53.627Z,32777,0.026062012,0.128479,-0.02557373
1734714233632,2024-12-20T17:03:53.632Z,32782,0.032104492,0.128479,-0.024658203
1734714233639,2024-12-20T17:03:53.639Z,32789,0.031433105,0.12872314,-0.022277832
1734714233655,2024-12-20T17:03:53.655Z,32805,0.026855469,0.13165283,-0.016601562
1734714233661,2024-12-20T17:03:53.661Z,32811,0.022827148,0.1296997,-0.014465332
1734714233666,2024-12-20T17:03:53.666Z,32816,0.019714355,0.13232422,-0.015075684
1734714233671,2024-12-20T17:03:53.671Z,32821,0.021362305,0.13287354,-0.016784668
1734714233676,2024-12-20T17:03:53.676Z,32826,0.025268555,0.1361084,-0.022277832
1734714233707,2024-12-20T17:03:53.707Z,32857,0.02746582,0.13543701,-0.026733398
1734714233712,2024-12-20T17:03:53.712Z,32862,0.026916504,0.13171387,-0.026916504
1734714233717,2024-12-20T17:03:53.717Z,32867,0.022705078,0.13458252,-0.023620605
1734714233722,2024-12-20T17:03:53.722Z,32872,0.02178955,0.13336182,-0.018615723
1734714233727,2024-12-20T17:03:53.727Z,32877,0.024475098,0.12939453,-0.014282227
1734714233747,2024-12-20T17:03:53.747Z,32897,0.02508545,0.13427734,-0.013061523
1734714233753,2024-12-20T17:03:53.753Z,32903,0.02722168,0.1338501,-0.014099121
1734714233760,2024-12-20T17:03:53.760Z,32910,0.022094727,0.13238525,-0.01574707
1734714233792,2024-12-20T17:03:53.792Z,32942,0.022460938,0.13342285,-0.017822266
1734714233798,2024-12-20T17:03:53.798Z,32948,0.02368164,0.13616943,-0.01776123
1734714233804,2024-12-20T17:03:53.804Z,32954,0.020507812,0.13696289,-0.020629883
1734714233810,2024-12-20T17:03:53.810Z,32960,0.020935059,0.13110352,-0.025939941
1734714233842,2024-12-20T17:03:53.842Z,32992,0.020202637,0.12487793,-0.025390625
1734714233849,2024-12-20T17:03:53.849Z,32999,0.023254395,0.13024902,-0.01977539
1734714233856,2024-12-20T17:03:53.856Z,33006,0.023498535,0.13720703,-0.01574707
1734714233863,2024-12-20T17:03:53.863Z,33013,0.022033691,0.13397217,-0.015380859
1734714233881,2024-12-20T17:03:53.881Z,33031,0.019592285,0.13311768,-0.015930176
1734714233888,2024-12-20T17:03:53.888Z,33038,0.022033691,0.13391113,-0.016967773
1734714233895,2024-12-20T17:03:53.895Z,33045,0.025756836,0.13092041,-0.017456055
1734714233900,2024-12-20T17:03:53.900Z,33050,0.021606445,0.12756348,-0.016235352
1734714233906,2024-12-20T17:03:53.906Z,33056,0.020690918,0.13214111,-0.015075684
1734714233913,2024-12-20T17:03:53.913Z,33063,0.022277832,0.13812256,-0.01751709
1734714233930,2024-12-20T17:03:53.930Z,33080,0.025024414,0.1328125,-0.019714355
1734714233974,2024-12-20T17:03:53.974Z,33124,0.022644043,0.1329956,-0.018859863
1734714233982,2024-12-20T17:03:53.982Z,33132,0.021362305,0.13464355,-0.01940918
1734714233990,2024-12-20T17:03:53.990Z,33140,0.020812988,0.1282959,-0.0146484375
1734714233997,2024-12-20T17:03:53.997Z,33147,0.018676758,0.12768555,-0.0087890625
1734714234004,2024-12-20T17:03:54.004Z,33154,0.016540527,0.1350708,-0.012084961
1734714234012,2024-12-20T17:03:54.012Z,33162,0.020751953,0.1315918,-0.018737793
1734714234019,2024-12-20T17:03:54.019Z,33169,0.020019531,0.1281128,-0.018249512
1734714234025,2024-12-20T17:03:54.025Z,33175,0.023071289,0.13043213,-0.01763916
1734714234068,2024-12-20T17:03:54.068Z,33218,0.030578613,0.13128662,-0.013061523
1734714234079,2024-12-20T17:03:54.079Z,33229,0.026672363,0.13092041,-0.008666992
1734714234115,2024-12-20T17:03:54.115Z,33265,0.018798828,0.13000488,-0.011962891
1734714234125,2024-12-20T17:03:54.125Z,33275,0.016845703,0.12896729,-0.017333984
1734714234131,2024-12-20T17:03:54.131Z,33281,0.020629883,0.12835693,-0.018127441
1734714234139,2024-12-20T17:03:54.139Z,33289,0.024841309,0.12976074,-0.015991211
1734714234148,2024-12-20T17:03:54.148Z,33298,0.026672363,0.1296997,-0.016052246
1734714234155,2024-12-20T17:03:54.155Z,33305,0.023254395,0.12866211,-0.01727295
1734714234204,2024-12-20T17:03:54.204Z,33354,0.017944336,0.12963867,-0.016296387
1734714234213,2024-12-20T17:03:54.213Z,33363,0.018981934,0.13098145,-0.012817383
1734714234221,2024-12-20T17:03:54.221Z,33371,0.022766113,0.12957764,-0.01184082
1734714234230,2024-12-20T17:03:54.230Z,33380,0.019592285,0.12731934,-0.016601562
1734714234234,2024-12-20T17:03:54.234Z,33384,0.026245117,0.12799072,-0.021240234
1734714234242,2024-12-20T17:03:54.242Z,33392,0.026123047,0.12774658,-0.019165039
1734714234245,2024-12-20T17:03:54.245Z,33395,0.020141602,0.12512207,-0.0075683594
1734714234288,2024-12-20T17:03:54.288Z,33438,0.022583008,0.12890625,-0.0072021484
1734714234296,2024-12-20T17:03:54.296Z,33446,0.02166748,0.123168945,-0.0099487305
1734714234303,2024-12-20T17:03:54.303Z,33453,0.021118164,0.12030029,-0.009887695
1734714234311,2024-12-20T17:03:54.311Z,33461,0.026245117,0.12402344,-0.011169434
1734714234318,2024-12-20T17:03:54.318Z,33468,0.027893066,0.12420654,-0.015136719
1734714234325,2024-12-20T17:03:54.325Z,33475,0.024780273,0.12579346,-0.011108398
1734714234335,2024-12-20T17:03:54.335Z,33485,0.02142334,0.12579346,-0.010253906
1734714234342,2024-12-20T17:03:54.342Z,33492,0.01763916,0.12145996,-0.011047363
1734714234348,2024-12-20T17:03:54.348Z,33498,0.01965332,0.12384033,-0.010192871
1734714234354,2024-12-20T17:03:54.354Z,33504,0.021362305,0.122680664,-0.011413574
1734714234360,2024-12-20T17:03:54.360Z,33510,0.020507812,0.119628906,-0.013244629
1734714234379,2024-12-20T17:03:54.379Z,33529,0.023803711,0.12365723,-0.010925293
1734714234382,2024-12-20T17:03:54.382Z,33532,0.02166748,0.11828613,-0.00793457
1734714234387,2024-12-20T17:03:54.387Z,33537,0.022155762,0.12219238,-0.013244629
1734714234394,2024-12-20T17:03:54.394Z,33544,0.019714355,0.12249756,-0.019226074
1734714234400,2024-12-20T17:03:54.400Z,33550,0.020324707,0.12133789,-0.020874023
1734714234405,2024-12-20T17:03:54.405Z,33555,0.023742676,0.12231445,-0.017089844
1734714234428,2024-12-20T17:03:54.428Z,33578,0.026672363,0.12359619,-0.012268066
1734714234433,2024-12-20T17:03:54.433Z,33583,0.022033691,0.122558594,-0.0068359375
1734714234439,2024-12-20T17:03:54.439Z,33589,0.022277832,0.119628906,-0.0040283203
1734714234445,2024-12-20T17:03:54.445Z,33595,0.020935059,0.11871338,-0.0012207031
1734714234450,2024-12-20T17:03:54.450Z,33600,0.020324707,0.12042236,-0.0038452148
1734714234467,2024-12-20T17:03:54.467Z,33617,0.018493652,0.12164307,-0.010681152
1734714234473,2024-12-20T17:03:54.473Z,33623,0.018554688,0.11804199,-0.015014648
1734714234479,2024-12-20T17:03:54.479Z,33629,0.021972656,0.12133789,-0.012512207
1734714234484,2024-12-20T17:03:54.484Z,33634,0.026611328,0.12213135,-0.010559082
1734714234490,2024-12-20T17:03:54.490Z,33640,0.02545166,0.119506836,-0.011779785
1734714234495,2024-12-20T17:03:54.495Z,33645,0.022399902,0.11975098,-0.011108398
1734714234514,2024-12-20T17:03:54.514Z,33664,0.020690918,0.11846924,-0.008972168
1734714234519,2024-12-20T17:03:54.519Z,33669,0.018859863,0.11767578,-0.007385254
1734714234526,2024-12-20T17:03:54.526Z,33676,0.02130127,0.119628906,-0.008544922
1734714234531,2024-12-20T17:03:54.531Z,33681,0.023071289,0.12017822,-0.008972168
1734714234536,2024-12-20T17:03:54.536Z,33686,0.021118164,0.11999512,-0.009399414
1734714234555,2024-12-20T17:03:54.555Z,33705,0.020751953,0.12072754,-0.007446289
1734714234561,2024-12-20T17:03:54.561Z,33711,0.023010254,0.11846924,-0.005432129
1734714234566,2024-12-20T17:03:54.566Z,33716,0.022766113,0.1194458,-0.003967285
1734714234573,2024-12-20T17:03:54.573Z,33723,0.022460938,0.11993408,-0.002746582
1734714234579,2024-12-20T17:03:54.579Z,33729,0.023010254,0.11895752,-0.0020141602
1734714234600,2024-12-20T17:03:54.600Z,33750,0.020874023,0.12286377,-0.0031738281
1734714234605,2024-12-20T17:03:54.605Z,33755,0.018676758,0.12359619,-0.0061035156
1734714234610,2024-12-20T17:03:54.610Z,33760,0.021606445,0.1217041,-0.008300781
1734714234615,2024-12-20T17:03:54.615Z,33765,0.026428223,0.12310791,-0.0095825195
1734714234620,2024-12-20T17:03:54.620Z,33770,0.025756836,0.12213135,-0.007507324
1734714234693,2024-12-20T17:03:54.693Z,33843,0.018371582,0.11956787,-0.0052490234
1734714234698,2024-12-20T17:03:54.698Z,33848,0.015563965,0.1194458,-0.007446289
1734714234703,2024-12-20T17:03:54.703Z,33853,0.01550293,0.12243652,-0.008117676
1734714234707,2024-12-20T17:03:54.707Z,33857,0.016784668,0.12347412,-0.0076293945
1734714234712,2024-12-20T17:03:54.712Z,33862,0.019897461,0.123168945,-0.00579834
1734714234716,2024-12-20T17:03:54.716Z,33866,0.026245117,0.122558594,-0.0071411133
1734714234740,2024-12-20T17:03:54.740Z,33890,0.024230957,0.121154785,-0.006591797
1734714234748,2024-12-20T17:03:54.748Z,33898,0.020019531,0.118896484,-0.002319336
1734714234755,2024-12-20T17:03:54.755Z,33905,0.020141602,0.117248535,0.002380371
1734714234763,2024-12-20T17:03:54.763Z,33913,0.018615723,0.11859131,0.002746582
1734714234769,2024-12-20T17:03:54.769Z,33919,0.020935059,0.120788574,-8.544922E-4
1734714234781,2024-12-20T17:03:54.781Z,33931,0.02166748,0.12158203,-0.005554199
1734714234787,2024-12-20T17:03:54.787Z,33937,0.022766113,0.119506836,-0.0071411133
1734714234793,2024-12-20T17:03:54.793Z,33943,0.024963379,0.11871338,-0.0057373047
1734714234799,2024-12-20T17:03:54.799Z,33949,0.020812988,0.120910645,-0.0013427734
1734714234804,2024-12-20T17:03:54.804Z,33954,0.019958496,0.11828613,0.0012207031
1734714234810,2024-12-20T17:03:54.810Z,33960,0.020141602,0.117004395,0.0021972656
1734714234829,2024-12-20T17:03:54.829Z,33979,0.021911621,0.117248535,0.0020751953
1734714234834,2024-12-20T17:03:54.834Z,33984,0.023071289,0.11779785,6.1035156E-4
1734714234839,2024-12-20T17:03:54.839Z,33989,0.022277832,0.11871338,-0.0012817383
1734714234845,2024-12-20T17:03:54.845Z,33995,0.021118164,0.11920166,-0.0044555664
1734714234849,2024-12-20T17:03:54.849Z,33999,0.022583008,0.12060547,-0.0040893555
1734714234872,2024-12-20T17:03:54.872Z,34022,0.023620605,0.12005615,1.2207031E-4
1734714234878,2024-12-20T17:03:54.878Z,34028,0.023803711,0.11853027,0.0033569336
1734714234883,2024-12-20T17:03:54.883Z,34033,0.020507812,0.11859131,0.0030517578
1734714234888,2024-12-20T17:03:54.888Z,34038,0.01574707,0.11798096,0.0038452148
1734714234894,2024-12-20T17:03:54.894Z,34044,0.014404297,0.11755371,0.0036010742
1734714234915,2024-12-20T17:03:54.915Z,34065,0.017822266,0.115234375,0.0012207031
1734714234962,2024-12-20T17:03:54.962Z,34112,0.018859863,0.11383057,-8.544922E-4
1734714234969,2024-12-20T17:03:54.969Z,34119,0.022277832,0.1149292,-3.6621094E-4
1734714234976,2024-12-20T17:03:54.976Z,34126,0.027038574,0.11633301,0.0021362305
1734714234984,2024-12-20T17:03:54.984Z,34134,0.02557373,0.116760254,0.0076904297
1734714234991,2024-12-20T17:03:54.991Z,34141,0.02319336,0.11437988,0.012390137
1734714234998,2024-12-20T17:03:54.998Z,34148,0.020324707,0.11468506,0.011657715
1734714235012,2024-12-20T17:03:55.012Z,34162,0.016967773,0.113220215,0.006713867
1734714235018,2024-12-20T17:03:55.018Z,34168,0.018615723,0.11291504,0.002380371
1734714235025,2024-12-20T17:03:55.025Z,34175,0.018310547,0.11602783,-0.0014038086
1734714235036,2024-12-20T17:03:55.036Z,34186,0.020690918,0.113586426,-0.004760742
1734714235043,2024-12-20T17:03:55.043Z,34193,0.023742676,0.113586426,-0.0025634766
1734714235051,2024-12-20T17:03:55.051Z,34201,0.024169922,0.11505127,0.0014038086
1734714235056,2024-12-20T17:03:55.056Z,34206,0.023803711,0.11151123,0.007019043
1734714235062,2024-12-20T17:03:55.062Z,34212,0.02319336,0.11114502,0.014221191
1734714235096,2024-12-20T17:03:55.096Z,34246,0.019897461,0.114746094,0.018066406
1734714235101,2024-12-20T17:03:55.101Z,34251,0.01751709,0.11627197,0.0146484375
1734714235107,2024-12-20T17:03:55.107Z,34257,0.017578125,0.11755371,0.010437012
1734714235113,2024-12-20T17:03:55.113Z,34263,0.019470215,0.11651611,0.0064086914
1734714235118,2024-12-20T17:03:55.118Z,34268,0.024414062,0.11425781,0.0045776367
1734714235124,2024-12-20T17:03:55.124Z,34274,0.026367188,0.11462402,0.005065918
1734714235144,2024-12-20T17:03:55.144Z,34294,0.024841309,0.11242676,0.0049438477
1734714235149,2024-12-20T17:03:55.149Z,34299,0.025939941,0.10974121,0.0051879883
1734714235154,2024-12-20T17:03:55.154Z,34304,0.024475098,0.113464355,0.009338379
1734714235160,2024-12-20T17:03:55.160Z,34310,0.02130127,0.119384766,0.011779785
1734714235166,2024-12-20T17:03:55.166Z,34316,0.01727295,0.12011719,0.010437012
1734714235187,2024-12-20T17:03:55.187Z,34337,0.023376465,0.11663818,0.009155273
1734714235195,2024-12-20T17:03:55.195Z,34345,0.027404785,0.11608887,0.010314941
1734714235201,2024-12-20T17:03:55.201Z,34351,0.027709961,0.11401367,0.01159668
1734714235207,2024-12-20T17:03:55.207Z,34357,0.026306152,0.115478516,0.012023926
1734714235213,2024-12-20T17:03:55.213Z,34363,0.026306152,0.11608887,0.011352539
1734714235230,2024-12-20T17:03:55.230Z,34380,0.025939941,0.11401367,0.011291504
1734714235236,2024-12-20T17:03:55.236Z,34386,0.025817871,0.115356445,0.012145996
1734714235242,2024-12-20T17:03:55.242Z,34392,0.026184082,0.11828613,0.012451172
1734714235247,2024-12-20T17:03:55.247Z,34397,0.02368164,0.12121582,0.009094238
1734714235276,2024-12-20T17:03:55.276Z,34426,0.024780273,0.119140625,0.00390625
1734714235282,2024-12-20T17:03:55.282Z,34432,0.027954102,0.11816406,0.0031738281
1734714235287,2024-12-20T17:03:55.287Z,34437,0.027770996,0.118896484,0.008117676
1734714235292,2024-12-20T17:03:55.292Z,34442,0.026062012,0.11767578,0.012207031
1734714235321,2024-12-20T17:03:55.321Z,34471,0.02545166,0.11682129,0.016601562
1734714235328,2024-12-20T17:03:55.328Z,34478,0.026855469,0.117614746,0.022888184
1734714235333,2024-12-20T17:03:55.333Z,34483,0.028259277,0.11907959,0.026123047
1734714235338,2024-12-20T17:03:55.338Z,34488,0.02532959,0.1171875,0.02142334
1734714235344,2024-12-20T17:03:55.344Z,34494,0.02520752,0.11505127,0.014892578
1734714235366,2024-12-20T17:03:55.366Z,34516,0.025939941,0.11590576,0.011230469
1734714235372,2024-12-20T17:03:55.372Z,34522,0.027282715,0.11468506,0.008850098
1734714235379,2024-12-20T17:03:55.379Z,34529,0.028259277,0.11505127,0.008850098
1734714235385,2024-12-20T17:03:55.385Z,34535,0.030578613,0.11584473,0.011962891
1734714235411,2024-12-20T17:03:55.411Z,34561,0.032409668,0.114990234,0.013427734
1734714235417,2024-12-20T17:03:55.417Z,34567,0.029846191,0.11419678,0.014587402
1734714235424,2024-12-20T17:03:55.424Z,34574,0.028381348,0.11315918,0.017150879
1734714235430,2024-12-20T17:03:55.430Z,34580,0.027526855,0.11608887,0.01940918
1734714235436,2024-12-20T17:03:55.436Z,34586,0.026611328,0.11682129,0.018188477
1734714235459,2024-12-20T17:03:55.459Z,34609,0.023742676,0.11828613,0.015197754
1734714235466,2024-12-20T17:03:55.466Z,34616,0.02508545,0.11871338,0.013000488
1734714235472,2024-12-20T17:03:55.472Z,34622,0.02947998,0.11846924,0.012084961
1734714235480,2024-12-20T17:03:55.480Z,34630,0.031433105,0.118652344,0.013122559
1734714235500,2024-12-20T17:03:55.500Z,34650,0.031311035,0.11621094,0.014953613
1734714235506,2024-12-20T17:03:55.506Z,34656,0.027709961,0.117248535,0.01574707
1734714235513,2024-12-20T17:03:55.513Z,34663,0.028076172,0.11907959,0.016662598
1734714235518,2024-12-20T17:03:55.518Z,34668,0.029785156,0.11694336,0.018798828
1734714235524,2024-12-20T17:03:55.524Z,34674,0.032287598,0.11730957,0.022644043
1734714235546,2024-12-20T17:03:55.546Z,34696,0.03173828,0.11798096,0.02319336
1734714235552,2024-12-20T17:03:55.552Z,34702,0.029724121,0.1149292,0.0211792
1734714235557,2024-12-20T17:03:55.557Z,34707,0.029663086,0.11529541,0.020568848
1734714235563,2024-12-20T17:03:55.563Z,34713,0.032043457,0.11602783,0.018615723
1734714235591,2024-12-20T17:03:55.591Z,34741,0.028930664,0.1161499,0.016357422
1734714235597,2024-12-20T17:03:55.597Z,34747,0.026184082,0.11645508,0.014770508
1734714235603,2024-12-20T17:03:55.603Z,34753,0.030212402,0.117126465,0.012207031
1734714235608,2024-12-20T17:03:55.608Z,34758,0.030151367,0.11657715,0.012084961
1734714235637,2024-12-20T17:03:55.637Z,34787,0.027954102,0.113586426,0.016601562
1734714235644,2024-12-20T17:03:55.644Z,34794,0.02960205,0.11468506,0.020507812
1734714235651,2024-12-20T17:03:55.651Z,34801,0.03173828,0.11468506,0.023742676
1734714235656,2024-12-20T17:03:55.656Z,34806,0.030090332,0.115112305,0.02508545
1734714235664,2024-12-20T17:03:55.664Z,34814,0.028381348,0.11920166,0.02142334
1734714235680,2024-12-20T17:03:55.680Z,34830,0.024169922,0.12042236,0.01550293
1734714235686,2024-12-20T17:03:55.686Z,34836,0.024963379,0.12005615,0.012756348
1734714235691,2024-12-20T17:03:55.691Z,34841,0.03466797,0.12054443,0.013427734
1734714235698,2024-12-20T17:03:55.698Z,34848,0.038208008,0.11767578,0.019226074
1734714235727,2024-12-20T17:03:55.727Z,34877,0.033447266,0.1161499,0.0234375
1734714235733,2024-12-20T17:03:55.733Z,34883,0.030639648,0.11907959,0.024047852
1734714235738,2024-12-20T17:03:55.738Z,34888,0.026855469,0.12005615,0.0234375
1734714235744,2024-12-20T17:03:55.744Z,34894,0.026916504,0.12158203,0.02178955
1734714235750,2024-12-20T17:03:55.750Z,34900,0.02734375,0.12231445,0.020446777
1734714235819,2024-12-20T17:03:55.819Z,34969,0.030456543,0.120788574,0.020202637
1734714235826,2024-12-20T17:03:55.826Z,34976,0.032165527,0.12072754,0.022216797
1734714235832,2024-12-20T17:03:55.832Z,34982,0.0345459,0.11981201,0.024108887
1734714235837,2024-12-20T17:03:55.837Z,34987,0.033081055,0.1171875,0.025878906
1734714235844,2024-12-20T17:03:55.844Z,34994,0.029174805,0.11602783,0.02368164
1734714235850,2024-12-20T17:03:55.850Z,35000,0.025939941,0.11779785,0.019714355
1734714235867,2024-12-20T17:03:55.867Z,35017,0.028564453,0.11791992,0.018066406
1734714235876,2024-12-20T17:03:55.876Z,35026,0.029907227,0.119018555,0.020141602
1734714235882,2024-12-20T17:03:55.882Z,35032,0.028259277,0.118652344,0.024047852
1734714235887,2024-12-20T17:03:55.887Z,35037,0.026367188,0.11846924,0.027770996
1734714235894,2024-12-20T17:03:55.894Z,35044,0.030029297,0.1171875,0.028076172
1734714235906,2024-12-20T17:03:55.906Z,35056,0.02923584,0.116882324,0.026855469
1734714235913,2024-12-20T17:03:55.913Z,35063,0.026733398,0.117492676,0.024230957
1734714235919,2024-12-20T17:03:55.919Z,35069,0.025878906,0.11932373,0.020935059
1734714235924,2024-12-20T17:03:55.924Z,35074,0.028930664,0.12030029,0.020629883
1734714235930,2024-12-20T17:03:55.930Z,35080,0.0335083,0.11981201,0.022338867
1734714235935,2024-12-20T17:03:55.935Z,35085,0.033996582,0.11767578,0.023254395
1734714235953,2024-12-20T17:03:55.953Z,35103,0.03363037,0.11639404,0.024963379
1734714235958,2024-12-20T17:03:55.958Z,35108,0.033081055,0.11767578,0.024902344
1734714235964,2024-12-20T17:03:55.964Z,35114,0.030456543,0.1184082,0.022155762
1734714235969,2024-12-20T17:03:55.969Z,35119,0.030334473,0.119628906,0.021484375
1734714235975,2024-12-20T17:03:55.975Z,35125,0.03491211,0.11956787,0.022460938
1734714235996,2024-12-20T17:03:55.996Z,35146,0.03717041,0.11987305,0.022949219
1734714236002,2024-12-20T17:03:56.002Z,35152,0.03277588,0.11999512,0.020202637
1734714236007,2024-12-20T17:03:56.007Z,35157,0.028869629,0.119018555,0.0178833
1734714236013,2024-12-20T17:03:56.013Z,35163,0.025512695,0.119628906,0.016479492
1734714236042,2024-12-20T17:03:56.042Z,35192,0.0256958,0.119018555,0.015258789
1734714236048,2024-12-20T17:03:56.048Z,35198,0.02911377,0.117126465,0.018005371
1734714236054,2024-12-20T17:03:56.054Z,35204,0.032470703,0.1194458,0.021850586
1734714236060,2024-12-20T17:03:56.060Z,35210,0.034851074,0.11987305,0.023132324
1734714236066,2024-12-20T17:03:56.066Z,35216,0.032104492,0.11779785,0.024658203
1734714236085,2024-12-20T17:03:56.085Z,35235,0.028381348,0.117614746,0.024963379
1734714236091,2024-12-20T17:03:56.091Z,35241,0.026611328,0.11706543,0.023132324
1734714236098,2024-12-20T17:03:56.098Z,35248,0.0289917,0.116882324,0.022583008
1734714236103,2024-12-20T17:03:56.103Z,35253,0.03289795,0.11791992,0.022644043
1734714236131,2024-12-20T17:03:56.131Z,35281,0.030090332,0.11657715,0.023132324
1734714236137,2024-12-20T17:03:56.137Z,35287,0.02532959,0.117126465,0.022583008
1734714236144,2024-12-20T17:03:56.144Z,35294,0.030212402,0.116882324,0.022583008
1734714236150,2024-12-20T17:03:56.150Z,35300,0.0345459,0.1161499,0.021484375
1734714236156,2024-12-20T17:03:56.156Z,35306,0.031188965,0.11663818,0.019836426
1734714236176,2024-12-20T17:03:56.176Z,35326,0.028198242,0.11791992,0.018249512
1734714236182,2024-12-20T17:03:56.182Z,35332,0.029174805,0.11755371,0.018798828
1734714236187,2024-12-20T17:03:56.187Z,35337,0.031799316,0.11706543,0.022216797
1734714236194,2024-12-20T17:03:56.194Z,35344,0.03326416,0.11828613,0.024230957
1734714236221,2024-12-20T17:03:56.221Z,35371,0.03137207,0.11767578,0.022583008
1734714236228,2024-12-20T17:03:56.228Z,35378,0.028015137,0.11773682,0.019714355
1734714236235,2024-12-20T17:03:56.235Z,35385,0.029541016,0.11743164,0.017333984
1734714236241,2024-12-20T17:03:56.241Z,35391,0.035827637,0.11743164,0.018188477
1734714236266,2024-12-20T17:03:56.266Z,35416,0.034240723,0.119018555,0.020629883
1734714236271,2024-12-20T17:03:56.271Z,35421,0.02947998,0.11798096,0.021606445
1734714236278,2024-12-20T17:03:56.278Z,35428,0.028198242,0.1184082,0.020202637
1734714236284,2024-12-20T17:03:56.284Z,35434,0.02911377,0.117614746,0.018676758
1734714236290,2024-12-20T17:03:56.290Z,35440,0.029785156,0.117370605,0.018371582
1734714236310,2024-12-20T17:03:56.310Z,35460,0.030151367,0.1171875,0.019165039
1734714236316,2024-12-20T17:03:56.316Z,35466,0.028564453,0.117126465,0.018554688
1734714236320,2024-12-20T17:03:56.320Z,35470,0.029968262,0.11853027,0.017944336
1734714236326,2024-12-20T17:03:56.326Z,35476,0.032348633,0.11798096,0.01763916
1734714236358,2024-12-20T17:03:56.358Z,35508,0.03265381,0.117370605,0.017944336
1734714236366,2024-12-20T17:03:56.366Z,35516,0.031188965,0.11779785,0.01928711
1734714236371,2024-12-20T17:03:56.371Z,35521,0.029052734,0.116760254,0.019470215
1734714236377,2024-12-20T17:03:56.377Z,35527,0.026489258,0.11627197,0.020080566
1734714236383,2024-12-20T17:03:56.383Z,35533,0.025512695,0.11663818,0.019592285
1734714236401,2024-12-20T17:03:56.401Z,35551,0.028869629,0.11773682,0.018493652
1734714236406,2024-12-20T17:03:56.406Z,35556,0.03125,0.11859131,0.015380859
1734714236412,2024-12-20T17:03:56.412Z,35562,0.030151367,0.118774414,0.012756348
1734714236419,2024-12-20T17:03:56.419Z,35569,0.027160645,0.11828613,0.01171875
1734714236447,2024-12-20T17:03:56.447Z,35597,0.024963379,0.1182251,0.011657715
1734714236453,2024-12-20T17:03:56.453Z,35603,0.026428223,0.11791992,0.0134887695
1734714236458,2024-12-20T17:03:56.458Z,35608,0.026794434,0.11816406,0.016174316
1734714236465,2024-12-20T17:03:56.465Z,35615,0.027404785,0.116760254,0.0178833
1734714236472,2024-12-20T17:03:56.472Z,35622,0.02734375,0.1171875,0.01727295
1734714236542,2024-12-20T17:03:56.542Z,35692,0.027038574,0.11932373,0.014587402
1734714236553,2024-12-20T17:03:56.553Z,35703,0.02911377,0.12005615,0.012451172
1734714236563,2024-12-20T17:03:56.563Z,35713,0.030944824,0.12030029,0.0115356445
1734714236572,2024-12-20T17:03:56.572Z,35722,0.029052734,0.12121582,0.010986328
1734714236582,2024-12-20T17:03:56.582Z,35732,0.025756836,0.1204834,0.012023926
1734714236591,2024-12-20T17:03:56.591Z,35741,0.028686523,0.11895752,0.015197754
1734714236598,2024-12-20T17:03:56.598Z,35748,0.028503418,0.11993408,0.016418457
1734714236605,2024-12-20T17:03:56.605Z,35755,0.024536133,0.12005615,0.0146484375
1734714236612,2024-12-20T17:03:56.612Z,35762,0.02331543,0.12164307,0.012451172
1734714236619,2024-12-20T17:03:56.619Z,35769,0.022521973,0.12237549,0.010009766
1734714236625,2024-12-20T17:03:56.625Z,35775,0.023742676,0.12109375,0.008850098
1734714236631,2024-12-20T17:03:56.631Z,35781,0.027160645,0.12121582,0.008300781
1734714236637,2024-12-20T17:03:56.637Z,35787,0.030944824,0.12060547,0.008911133
1734714236642,2024-12-20T17:03:56.642Z,35792,0.02709961,0.12017822,0.009765625
1734714236648,2024-12-20T17:03:56.648Z,35798,0.023254395,0.11968994,0.010559082
1734714236653,2024-12-20T17:03:56.653Z,35803,0.024780273,0.12023926,0.011108398
1734714236657,2024-12-20T17:03:56.657Z,35807,0.026245117,0.12109375,0.012756348
1734714236674,2024-12-20T17:03:56.674Z,35824,0.029968262,0.120666504,0.013122559
1734714236680,2024-12-20T17:03:56.680Z,35830,0.027954102,0.12164307,0.011108398
1734714236686,2024-12-20T17:03:56.686Z,35836,0.024047852,0.120910645,0.010009766
1734714236690,2024-12-20T17:03:56.690Z,35840,0.02154541,0.12249756,0.010314941
1734714236696,2024-12-20T17:03:56.696Z,35846,0.022766113,0.1217041,0.009521484
1734714236717,2024-12-20T17:03:56.717Z,35867,0.02508545,0.11853027,0.009521484
1734714236722,2024-12-20T17:03:56.722Z,35872,0.023254395,0.12017822,0.008544922
1734714236727,2024-12-20T17:03:56.727Z,35877,0.023254395,0.120910645,0.006225586
1734714236733,2024-12-20T17:03:56.733Z,35883,0.024841309,0.1204834,0.006652832
1734714236762,2024-12-20T17:03:56.762Z,35912,0.02331543,0.1217041,0.006958008
1734714236767,2024-12-20T17:03:56.767Z,35917,0.022216797,0.1204834,0.005126953
1734714236774,2024-12-20T17:03:56.774Z,35924,0.02368164,0.11859131,0.006225586
1734714236780,2024-12-20T17:03:56.780Z,35930,0.025817871,0.12084961,0.008483887
1734714236786,2024-12-20T17:03:56.786Z,35936,0.022399902,0.12176514,0.0099487305
1734714236806,2024-12-20T17:03:56.806Z,35956,0.021484375,0.12011719,0.009094238
1734714236811,2024-12-20T17:03:56.811Z,35961,0.022766113,0.12023926,0.0076904297
