Timestamp (ms),ISO DateTime,Elapsed Time (ms),Acceleration X,Acceleration Y,Acceleration Z
1725950459307,2024-09-10T06:40:59.307Z,164090,-0.029174805,1.0436401,-0.046569824
1725950459347,2024-09-10T06:40:59.347Z,164130,-0.07220459,1.0839233,-0.042175293
1725950459396,2024-09-10T06:40:59.396Z,164179,-0.054626465,1.0593262,-0.07110596
1725950459418,2024-09-10T06:40:59.418Z,164201,-0.036987305,1.0130005,-0.039733887
1725950459439,2024-09-10T06:40:59.439Z,164222,-0.006713867,0.97509766,-0.037231445
1725950459485,2024-09-10T06:40:59.485Z,164268,0.013977051,0.96746826,-0.047851562
1725950459527,2024-09-10T06:40:59.527Z,164310,0.03326416,0.9885254,-0.06512451
1725950459583,2024-09-10T06:40:59.583Z,164366,0.015380859,0.9706421,-0.068237305
1725950459622,2024-09-10T06:40:59.622Z,164405,0.012023926,0.9972534,-0.07507324
1725950459671,2024-09-10T06:40:59.671Z,164454,-0.011230469,0.9970093,-0.0680542
1725950459716,2024-09-10T06:40:59.716Z,164499,-0.0234375,1.0147705,-0.06695557
1725950459760,2024-09-10T06:40:59.760Z,164543,-0.059936523,1.0333252,-0.070495605
1725950459807,2024-09-10T06:40:59.807Z,164590,-0.07141113,1.0430298,-0.09362793
1725950459833,2024-09-10T06:40:59.833Z,164616,-0.07519531,1.0186157,-0.08227539
1725950459857,2024-09-10T06:40:59.857Z,164640,-0.07336426,0.9907837,-0.08709717
1725950459890,2024-09-10T06:40:59.890Z,164673,-0.053649902,0.98913574,-0.0826416
1725950459934,2024-09-10T06:40:59.934Z,164717,-0.07421875,1.0002441,-0.07104492
1725950459979,2024-09-10T06:40:59.979Z,164762,-0.07598877,1.0025024,-0.088256836
1725950460027,2024-09-10T06:41:00.027Z,164810,-0.06286621,1.0032349,-0.089538574
1725950460075,2024-09-10T06:41:00.075Z,164858,-0.058654785,0.9904785,-0.07873535
1725950460123,2024-09-10T06:41:00.123Z,164906,-0.048706055,0.9973755,-0.074157715
1725950460166,2024-09-10T06:41:00.166Z,164949,-0.061828613,1.0029907,-0.07891846
1725950460212,2024-09-10T06:41:00.212Z,164995,-0.06866455,1.0087891,-0.083618164
1725950460238,2024-09-10T06:41:00.238Z,165021,-0.06329346,1.0028076,-0.0960083
1725950460260,2024-09-10T06:41:00.260Z,165043,-0.06530762,1.0023804,-0.10333252
1725950460293,2024-09-10T06:41:00.293Z,165076,-0.056030273,1.0100098,-0.11114502
1725950460345,2024-09-10T06:41:00.345Z,165128,-0.07849121,0.9970703,-0.103759766
1725950460393,2024-09-10T06:41:00.393Z,165176,-0.055419922,0.9923706,-0.114746094
1725950460431,2024-09-10T06:41:00.431Z,165214,-0.068237305,0.97247314,-0.105041504
1725950460481,2024-09-10T06:41:00.481Z,165264,-0.05682373,0.9805908,-0.11645508
1725950460571,2024-09-10T06:41:00.571Z,165354,-0.08190918,1.0078735,-0.13189697
1725950460602,2024-09-10T06:41:00.602Z,165385,-0.093933105,1.0153198,-0.13934326
1725950460625,2024-09-10T06:41:00.625Z,165408,-0.10412598,1.0031128,-0.14697266
1725950460654,2024-09-10T06:41:00.654Z,165437,-0.098083496,0.9848633,-0.13995361
1725950460669,2024-09-10T06:41:00.669Z,165452,-0.069885254,0.9992676,-0.12896729
1725950460697,2024-09-10T06:41:00.697Z,165480,-0.084472656,0.99975586,-0.13928223
1725950460745,2024-09-10T06:41:00.745Z,165528,-0.0847168,0.9928589,-0.15307617
1725950460792,2024-09-10T06:41:00.792Z,165575,-0.08215332,0.98535156,-0.16821289
1725950460840,2024-09-10T06:41:00.840Z,165623,-0.083740234,0.9840698,-0.17974854
1725950460896,2024-09-10T06:41:00.896Z,165679,-0.07318115,0.9916992,-0.18035889
1725950460930,2024-09-10T06:41:00.930Z,165713,-0.092163086,0.9824219,-0.20129395
1725950460971,2024-09-10T06:41:00.971Z,165754,-0.07122803,0.97198486,-0.19274902
1725950461022,2024-09-10T06:41:01.022Z,165805,-0.07836914,0.9683838,-0.19128418
1725950461068,2024-09-10T06:41:01.068Z,165851,-0.060913086,0.9794922,-0.20489502
1725950461092,2024-09-10T06:41:01.092Z,165875,-0.09613037,0.9660034,-0.20367432
1725950461112,2024-09-10T06:41:01.112Z,165895,-0.07336426,0.97753906,-0.20770264
1725950461149,2024-09-10T06:41:01.149Z,165932,-0.07409668,0.9713745,-0.19543457
1725950461198,2024-09-10T06:41:01.198Z,165981,-0.0758667,0.9769287,-0.22711182
1725950461293,2024-09-10T06:41:01.293Z,166076,-0.08856201,0.9760742,-0.23364258
1725950461331,2024-09-10T06:41:01.331Z,166114,-0.099365234,0.9650879,-0.23406982
1725950461353,2024-09-10T06:41:01.353Z,166136,-0.08148193,0.9715576,-0.23895264
1725950461374,2024-09-10T06:41:01.374Z,166157,-0.095336914,0.9546509,-0.24090576
1725950461421,2024-09-10T06:41:01.421Z,166204,-0.07977295,0.9847412,-0.26190186
1725950461471,2024-09-10T06:41:01.471Z,166254,-0.099243164,0.98651123,-0.26068115
1725950461495,2024-09-10T06:41:01.495Z,166278,-0.109558105,0.982605,-0.27313232
1725950461516,2024-09-10T06:41:01.516Z,166299,-0.103271484,0.97229004,-0.26593018
1725950461555,2024-09-10T06:41:01.555Z,166338,-0.09442139,0.9713135,-0.26428223
1725950461609,2024-09-10T06:41:01.609Z,166392,-0.09222412,0.9686279,-0.27166748
1725950461646,2024-09-10T06:41:01.646Z,166429,-0.103271484,0.963562,-0.27612305
1725950461696,2024-09-10T06:41:01.696Z,166479,-0.09686279,0.9707031,-0.2769165
1725950461743,2024-09-10T06:41:01.743Z,166526,-0.09503174,0.9786377,-0.2796631
1725950461781,2024-09-10T06:41:01.781Z,166564,-0.09686279,0.96917725,-0.2810669
1725950461834,2024-09-10T06:41:01.834Z,166617,-0.09442139,0.9779053,-0.28894043
1725950461869,2024-09-10T06:41:01.869Z,166652,-0.10430908,0.96691895,-0.2849121
1725950461922,2024-09-10T06:41:01.922Z,166705,-0.090148926,0.97906494,-0.28710938
1725950461958,2024-09-10T06:41:01.958Z,166741,-0.09991455,0.987854,-0.2915039
1725950461985,2024-09-10T06:41:01.985Z,166768,-0.101501465,0.9918823,-0.3088379
1725950462011,2024-09-10T06:41:02.011Z,166794,-0.107299805,0.9934082,-0.30255127
1725950462050,2024-09-10T06:41:02.050Z,166833,-0.099853516,0.9984741,-0.29083252
1725950462098,2024-09-10T06:41:02.098Z,166881,-0.11206055,0.99035645,-0.28948975
1725950462146,2024-09-10T06:41:02.146Z,166929,-0.10095215,0.9786377,-0.29644775
1725950462192,2024-09-10T06:41:02.192Z,166975,-0.10321045,0.9645386,-0.29400635
1725950462229,2024-09-10T06:41:02.229Z,167012,-0.109436035,0.94873047,-0.28948975
1725950462282,2024-09-10T06:41:02.282Z,167065,-0.10235596,0.94415283,-0.2836914
1725950462326,2024-09-10T06:41:02.326Z,167109,-0.11206055,0.93652344,-0.27807617
1725950462348,2024-09-10T06:41:02.348Z,167131,-0.10119629,0.946167,-0.29730225
1725950462374,2024-09-10T06:41:02.374Z,167157,-0.10760498,0.95196533,-0.30065918
1725950462410,2024-09-10T06:41:02.410Z,167193,-0.11248779,0.9577637,-0.30871582
1725950462454,2024-09-10T06:41:02.454Z,167237,-0.10748291,0.9651489,-0.3213501
1725950462500,2024-09-10T06:41:02.500Z,167283,-0.11053467,0.9515991,-0.31414795
1725950462553,2024-09-10T06:41:02.553Z,167336,-0.11126709,0.9552002,-0.31781006
1725950462591,2024-09-10T06:41:02.591Z,167374,-0.11395264,0.9439697,-0.3223877
1725950462644,2024-09-10T06:41:02.644Z,167427,-0.1105957,0.9506836,-0.32025146
1725950462681,2024-09-10T06:41:02.681Z,167464,-0.09869385,0.96295166,-0.3187256
1725950462732,2024-09-10T06:41:02.732Z,167515,-0.117492676,0.96032715,-0.32702637
1725950462758,2024-09-10T06:41:02.758Z,167541,-0.119506836,0.95928955,-0.32287598
1725950462780,2024-09-10T06:41:02.780Z,167563,-0.10394287,0.9692383,-0.31036377
1725950462817,2024-09-10T06:41:02.817Z,167600,-0.12506104,0.9534302,-0.32263184
1725950462866,2024-09-10T06:41:02.866Z,167649,-0.115600586,0.9468384,-0.3312378
1725950462912,2024-09-10T06:41:02.912Z,167695,-0.11248779,0.94189453,-0.32312012
1725950462957,2024-09-10T06:41:02.957Z,167740,-0.10247803,0.9468994,-0.31958008
1725950462997,2024-09-10T06:41:02.997Z,167780,-0.107421875,0.9470215,-0.32489014
1725950463042,2024-09-10T06:41:03.042Z,167825,-0.10430908,0.9456177,-0.32159424
1725950463087,2024-09-10T06:41:03.087Z,167870,-0.11871338,0.93829346,-0.33081055
1725950463155,2024-09-10T06:41:03.155Z,167938,-0.101379395,0.9437256,-0.32922363
1725950463182,2024-09-10T06:41:03.182Z,167965,-0.10406494,0.94836426,-0.3255005
1725950463198,2024-09-10T06:41:03.198Z,167981,-0.09643555,0.9684448,-0.3378296
1725950463218,2024-09-10T06:41:03.218Z,168001,-0.11077881,0.96307373,-0.33496094
1725950463265,2024-09-10T06:41:03.265Z,168048,-0.0947876,0.9725342,-0.32385254
1725950463312,2024-09-10T06:41:03.312Z,168095,-0.10467529,0.96954346,-0.32659912
1725950463357,2024-09-10T06:41:03.357Z,168140,-0.10644531,0.9737549,-0.333313
1725950463455,2024-09-10T06:41:03.455Z,168238,-0.12084961,0.95965576,-0.3461914
1725950463487,2024-09-10T06:41:03.487Z,168270,-0.107666016,0.9682617,-0.32336426
1725950463508,2024-09-10T06:41:03.508Z,168291,-0.10058594,0.96881104,-0.3110962
1725950463536,2024-09-10T06:41:03.536Z,168319,-0.124816895,0.9649658,-0.32366943
1725950463590,2024-09-10T06:41:03.590Z,168373,-0.111083984,0.9700928,-0.3248291
1725950463618,2024-09-10T06:41:03.618Z,168401,-0.1126709,0.9781494,-0.32409668
1725950463639,2024-09-10T06:41:03.639Z,168422,-0.10583496,0.97717285,-0.30596924
1725950463669,2024-09-10T06:41:03.669Z,168452,-0.11175537,0.9706421,-0.31781006
1725950463723,2024-09-10T06:41:03.723Z,168506,-0.1126709,0.9710083,-0.33203125
1725950463761,2024-09-10T06:41:03.761Z,168544,-0.12713623,0.96362305,-0.30462646
1725950463817,2024-09-10T06:41:03.817Z,168600,-0.10510254,0.9659424,-0.31237793
1725950463856,2024-09-10T06:41:03.856Z,168639,-0.113586426,0.9649048,-0.31420898
1725950463903,2024-09-10T06:41:03.903Z,168686,-0.11834717,0.97229004,-0.32055664
1725950463947,2024-09-10T06:41:03.947Z,168730,-0.11779785,0.9812012,-0.3102417
1725950463993,2024-09-10T06:41:03.993Z,168776,-0.11352539,0.9938965,-0.32122803
1725950464019,2024-09-10T06:41:04.019Z,168802,-0.119262695,0.99890137,-0.31781006
1725950464042,2024-09-10T06:41:04.042Z,168825,-0.12365723,1.0067749,-0.32781982
1725950464076,2024-09-10T06:41:04.076Z,168859,-0.120910645,1.0418091,-0.3310547
1725950464120,2024-09-10T06:41:04.120Z,168903,-0.12799072,1.0635376,-0.32806396
1725950464170,2024-09-10T06:41:04.170Z,168953,-0.12072754,1.0512085,-0.34448242
1725950464217,2024-09-10T06:41:04.217Z,169000,-0.10949707,1.0378418,-0.32666016
1725950464307,2024-09-10T06:41:04.307Z,169090,-0.11419678,1.0372314,-0.3255005
1725950464342,2024-09-10T06:41:04.342Z,169125,-0.10803223,1.0292969,-0.3104248
1725950464366,2024-09-10T06:41:04.366Z,169149,-0.11920166,1.0162354,-0.3180542
1725950464391,2024-09-10T06:41:04.391Z,169174,-0.10211182,1.0045776,-0.31524658
1725950464439,2024-09-10T06:41:04.439Z,169222,-0.1060791,0.97821045,-0.29663086
1725950464460,2024-09-10T06:41:04.460Z,169243,-0.09338379,0.96209717,-0.30975342
1725950464480,2024-09-10T06:41:04.480Z,169263,-0.09643555,0.94921875,-0.30541992
1725950464530,2024-09-10T06:41:04.530Z,169313,-0.10662842,0.9700928,-0.31555176
1725950464578,2024-09-10T06:41:04.578Z,169361,-0.09814453,0.9694214,-0.31011963
1725950464616,2024-09-10T06:41:04.616Z,169399,-0.109802246,0.9606323,-0.3007202
1725950464666,2024-09-10T06:41:04.666Z,169449,-0.11804199,0.94311523,-0.27404785
1725950464712,2024-09-10T06:41:04.712Z,169495,-0.1038208,0.9385376,-0.27313232
1725950464761,2024-09-10T06:41:04.761Z,169544,-0.13122559,0.9371338,-0.27600098
1725950464800,2024-09-10T06:41:04.800Z,169583,-0.1404419,0.9473877,-0.29156494
1725950464846,2024-09-10T06:41:04.846Z,169629,-0.12030029,0.9541626,-0.28131104
1725950464878,2024-09-10T06:41:04.878Z,169661,-0.12738037,0.96643066,-0.262146
1725950464896,2024-09-10T06:41:04.896Z,169679,-0.10845947,0.9786377,-0.23596191
1725950464929,2024-09-10T06:41:04.929Z,169712,-0.10809326,0.9720459,-0.21142578
1725950464973,2024-09-10T06:41:04.973Z,169756,-0.10797119,0.9772949,-0.24145508
1725950465026,2024-09-10T06:41:05.026Z,169809,-0.11907959,0.9747925,-0.24456787
1725950465070,2024-09-10T06:41:05.070Z,169853,-0.11193848,0.97088623,-0.25665283
1725950465116,2024-09-10T06:41:05.116Z,169899,-0.091430664,0.9614868,-0.2390747
1725950465157,2024-09-10T06:41:05.157Z,169940,-0.09082031,0.95825195,-0.22198486
1725950465202,2024-09-10T06:41:05.202Z,169985,-0.08770752,0.954895,-0.22418213
1725950465251,2024-09-10T06:41:05.251Z,170034,-0.11352539,0.9645386,-0.23449707
1725950465277,2024-09-10T06:41:05.277Z,170060,-0.103271484,0.96881104,-0.2164917
1725950465298,2024-09-10T06:41:05.298Z,170081,-0.10321045,0.96533203,-0.2076416
1725950465380,2024-09-10T06:41:05.380Z,170163,-0.10107422,0.96691895,-0.21844482
1725950465398,2024-09-10T06:41:05.398Z,170181,-0.11053467,0.9523926,-0.21173096
1725950465425,2024-09-10T06:41:05.425Z,170208,-0.11242676,0.9630127,-0.21203613
1725950465476,2024-09-10T06:41:05.476Z,170259,-0.10662842,0.9758911,-0.20440674
1725950465516,2024-09-10T06:41:05.516Z,170299,-0.11816406,0.9937134,-0.20935059
1725950465569,2024-09-10T06:41:05.569Z,170352,-0.11816406,0.99505615,-0.20178223
1725950465613,2024-09-10T06:41:05.613Z,170396,-0.105407715,0.99786377,-0.18914795
1725950465652,2024-09-10T06:41:05.652Z,170435,-0.1217041,0.9935913,-0.18548584
1725950465701,2024-09-10T06:41:05.701Z,170484,-0.10021973,0.98773193,-0.18304443
1725950465732,2024-09-10T06:41:05.732Z,170515,-0.10455322,0.9746704,-0.1743164
1725950465755,2024-09-10T06:41:05.755Z,170538,-0.076049805,0.9786377,-0.1550293
1725950465785,2024-09-10T06:41:05.785Z,170568,-0.07702637,0.9857178,-0.14477539
1725950465830,2024-09-10T06:41:05.830Z,170613,-0.08685303,0.9810791,-0.17999268
1725950465881,2024-09-10T06:41:05.881Z,170664,-0.07110596,0.98791504,-0.14898682
1725950465926,2024-09-10T06:41:05.926Z,170709,-0.05529785,0.9887085,-0.13574219
1725950465972,2024-09-10T06:41:05.972Z,170755,-0.05859375,0.98236084,-0.12719727
1725950466016,2024-09-10T06:41:06.016Z,170799,-0.05206299,0.98046875,-0.10614014
1725950466055,2024-09-10T06:41:06.055Z,170838,-0.042053223,0.9868164,-0.10662842
1725950466106,2024-09-10T06:41:06.106Z,170889,-0.064941406,0.9852295,-0.11578369
1725950466140,2024-09-10T06:41:06.140Z,170923,-0.027770996,0.99645996,-0.1295166
1725950466161,2024-09-10T06:41:06.161Z,170944,-0.051208496,0.98773193,-0.10797119
1725950466188,2024-09-10T06:41:06.188Z,170971,-0.027404785,0.9918213,-0.13061523
1725950466235,2024-09-10T06:41:06.235Z,171018,-0.052368164,0.99328613,-0.1038208
1725950466285,2024-09-10T06:41:06.285Z,171068,-0.053344727,0.9926758,-0.095336914
1725950466331,2024-09-10T06:41:06.331Z,171114,-0.049865723,0.9784546,-0.089538574
1725950466423,2024-09-10T06:41:06.423Z,171206,-0.06085205,0.9683838,-0.08319092
1725950466454,2024-09-10T06:41:06.454Z,171237,-0.074401855,0.967041,-0.061401367
1725950466474,2024-09-10T06:41:06.474Z,171257,-0.061157227,0.9603882,-0.064697266
1725950466505,2024-09-10T06:41:06.505Z,171288,-0.056640625,0.97052,-0.060913086
1725950466522,2024-09-10T06:41:06.522Z,171305,-0.06262207,0.97595215,-0.061035156
1725950466547,2024-09-10T06:41:06.547Z,171330,-0.05480957,0.98132324,-0.113342285
1725950466594,2024-09-10T06:41:06.594Z,171377,-0.054504395,0.97857666,-0.11187744
1725950466650,2024-09-10T06:41:06.650Z,171433,-0.05859375,0.9803467,-0.11004639
1725950466695,2024-09-10T06:41:06.695Z,171478,-0.080566406,0.96795654,-0.11352539
1725950466731,2024-09-10T06:41:06.731Z,171514,-0.07720947,0.9817505,-0.10961914
1725950466781,2024-09-10T06:41:06.781Z,171564,-0.08868408,0.9871826,-0.121032715
1725950466825,2024-09-10T06:41:06.825Z,171608,-0.088378906,1.0006714,-0.12298584
1725950466871,2024-09-10T06:41:06.871Z,171654,-0.10107422,1.0100708,-0.13903809
1725950466915,2024-09-10T06:41:06.915Z,171698,-0.09075928,1.0067139,-0.16241455
1725950466962,2024-09-10T06:41:06.962Z,171745,-0.0960083,0.9915161,-0.15899658
1725950466993,2024-09-10T06:41:06.993Z,171776,-0.093688965,0.97631836,-0.15985107
1725950467013,2024-09-10T06:41:07.013Z,171796,-0.078186035,0.975647,-0.17980957
1725950467043,2024-09-10T06:41:07.043Z,171826,-0.097473145,0.9733887,-0.1796875
1725950467090,2024-09-10T06:41:07.090Z,171873,-0.08093262,0.96313477,-0.20147705
1725950467135,2024-09-10T06:41:07.135Z,171918,-0.12322998,0.9337158,-0.21722412
1725950467188,2024-09-10T06:41:07.188Z,171971,-0.076416016,0.9656372,-0.22180176
1725950467225,2024-09-10T06:41:07.225Z,172008,-0.10003662,0.98913574,-0.19580078
1725950467276,2024-09-10T06:41:07.276Z,172059,-0.1083374,0.9851074,-0.23175049
1725950467322,2024-09-10T06:41:07.322Z,172105,-0.10839844,0.97161865,-0.234375
1725950467366,2024-09-10T06:41:07.366Z,172149,-0.10632324,0.9819336,-0.23736572
1725950467392,2024-09-10T06:41:07.392Z,172175,-0.10876465,0.96881104,-0.23065186
1725950467413,2024-09-10T06:41:07.413Z,172196,-0.10070801,0.97558594,-0.2479248
1725950467450,2024-09-10T06:41:07.450Z,172233,-0.11883545,0.9581909,-0.2506714
1725950467501,2024-09-10T06:41:07.501Z,172284,-0.11895752,0.9812622,-0.2487793
1725950467546,2024-09-10T06:41:07.546Z,172329,-0.10858154,0.9991455,-0.20367432
1725950467591,2024-09-10T06:41:07.591Z,172374,-0.10888672,0.9647217,-0.32391357
1725950467636,2024-09-10T06:41:07.636Z,172419,-0.13458252,0.960022,-0.321167
1725950467681,2024-09-10T06:41:07.681Z,172464,-0.12084961,0.97991943,-0.29589844
1725950467726,2024-09-10T06:41:07.726Z,172509,-0.11883545,0.9720459,-0.28668213
1725950467773,2024-09-10T06:41:07.773Z,172556,-0.12786865,0.944458,-0.2962036
1725950467807,2024-09-10T06:41:07.807Z,172590,-0.10913086,0.9373169,-0.29888916
1725950467838,2024-09-10T06:41:07.838Z,172621,-0.110961914,0.9534912,-0.2979126
1725950467859,2024-09-10T06:41:07.859Z,172642,-0.1239624,0.972229,-0.31262207
1725950467898,2024-09-10T06:41:07.898Z,172681,-0.12786865,0.97662354,-0.31549072
1725950467946,2024-09-10T06:41:07.946Z,172729,-0.124938965,0.98516846,-0.3085327
1725950467996,2024-09-10T06:41:07.996Z,172779,-0.14257812,0.987854,-0.30706787
1725950468036,2024-09-10T06:41:08.036Z,172819,-0.13824463,0.9963379,-0.3190918
1725950468086,2024-09-10T06:41:08.086Z,172869,-0.13702393,0.980896,-0.31396484
1725950468130,2024-09-10T06:41:08.130Z,172913,-0.14447021,0.9567871,-0.31488037
1725950468173,2024-09-10T06:41:08.173Z,172956,-0.1328125,0.9525757,-0.30389404
1725950468193,2024-09-10T06:41:08.193Z,172976,-0.12884521,0.9558716,-0.2977295
1725950468222,2024-09-10T06:41:08.222Z,173005,-0.14477539,0.94488525,-0.31158447
1725950468259,2024-09-10T06:41:08.259Z,173042,-0.14398193,0.9460449,-0.30639648
1725950468306,2024-09-10T06:41:08.306Z,173089,-0.15106201,0.96917725,-0.305542
1725950468350,2024-09-10T06:41:08.350Z,173133,-0.14892578,0.98651123,-0.29296875
1725950468402,2024-09-10T06:41:08.402Z,173185,-0.14276123,0.9786377,-0.26849365
1725950468445,2024-09-10T06:41:08.445Z,173228,-0.14099121,0.97442627,-0.29138184
1725950468491,2024-09-10T06:41:08.491Z,173274,-0.15942383,0.9577637,-0.27478027
1725950468539,2024-09-10T06:41:08.539Z,173322,-0.14331055,0.9530029,-0.26202393
1725950468575,2024-09-10T06:41:08.575Z,173358,-0.123168945,0.9734497,-0.24993896
1725950468672,2024-09-10T06:41:08.672Z,173455,-0.13146973,0.9925537,-0.24255371
1725950468700,2024-09-10T06:41:08.700Z,173483,-0.15161133,0.97821045,-0.2514038
1725950468722,2024-09-10T06:41:08.722Z,173505,-0.14300537,0.9696655,-0.25421143
1725950468752,2024-09-10T06:41:08.752Z,173535,-0.11077881,0.9893799,-0.23400879
1725950468769,2024-09-10T06:41:08.769Z,173552,-0.1352539,0.96881104,-0.25720215
1725950468798,2024-09-10T06:41:08.798Z,173581,-0.13903809,0.9638672,-0.2841797
1725950468899,2024-09-10T06:41:08.899Z,173682,-0.14141846,0.9594116,-0.26953125
1725950468931,2024-09-10T06:41:08.931Z,173714,-0.13995361,0.95666504,-0.2808838
1725950468952,2024-09-10T06:41:08.952Z,173735,-0.14355469,0.93963623,-0.27282715
1725950468979,2024-09-10T06:41:08.979Z,173762,-0.13586426,0.9390259,-0.28375244
1725950469025,2024-09-10T06:41:09.025Z,173808,-0.13519287,0.9505005,-0.28338623
1725950469044,2024-09-10T06:41:09.044Z,173827,-0.14727783,0.9564209,-0.27575684
1725950469069,2024-09-10T06:41:09.069Z,173852,-0.15289307,0.9633179,-0.28845215
1725950469115,2024-09-10T06:41:09.115Z,173898,-0.13964844,0.9761963,-0.2805786
1725950469165,2024-09-10T06:41:09.165Z,173948,-0.1515503,0.96698,-0.27459717
1725950469211,2024-09-10T06:41:09.211Z,173994,-0.15924072,0.9586792,-0.2789917
1725950469256,2024-09-10T06:41:09.256Z,174039,-0.15020752,0.96643066,-0.2828369
1725950469300,2024-09-10T06:41:09.300Z,174083,-0.14385986,0.9838867,-0.27679443
1725950469347,2024-09-10T06:41:09.347Z,174130,-0.17138672,0.9953003,-0.26879883
1725950469394,2024-09-10T06:41:09.394Z,174177,-0.16534424,1.0025635,-0.27716064
1725950469433,2024-09-10T06:41:09.433Z,174216,-0.15692139,1.0059204,-0.28479004
1725950469447,2024-09-10T06:41:09.447Z,174230,-0.16271973,0.99627686,-0.28686523
1725950469472,2024-09-10T06:41:09.472Z,174255,-0.16418457,0.9724121,-0.2944336
1725950469519,2024-09-10T06:41:09.519Z,174302,-0.14672852,0.9640503,-0.29205322
1725950469567,2024-09-10T06:41:09.567Z,174350,-0.14904785,0.9585571,-0.2906494
1725950469611,2024-09-10T06:41:09.611Z,174394,-0.14459229,0.95928955,-0.29431152
1725950469661,2024-09-10T06:41:09.661Z,174444,-0.14923096,0.97698975,-0.30456543
1725950469699,2024-09-10T06:41:09.699Z,174482,-0.15118408,0.9844971,-0.30462646
1725950469752,2024-09-10T06:41:09.752Z,174535,-0.15893555,0.9789429,-0.30621338
1725950469798,2024-09-10T06:41:09.798Z,174581,-0.15808105,0.9718628,-0.3106079
1725950469841,2024-09-10T06:41:09.841Z,174624,-0.16931152,0.9714966,-0.3069458
1725950469887,2024-09-10T06:41:09.887Z,174670,-0.16174316,0.98553467,-0.30163574
1725950469913,2024-09-10T06:41:09.913Z,174696,-0.16326904,1.005188,-0.31054688
1725950469935,2024-09-10T06:41:09.935Z,174718,-0.16925049,1.0049438,-0.30456543
1725950469970,2024-09-10T06:41:09.970Z,174753,-0.17333984,0.99749756,-0.30126953
1725950470066,2024-09-10T06:41:10.066Z,174849,-0.16583252,1.0161133,-0.31079102
1725950470094,2024-09-10T06:41:10.094Z,174877,-0.17114258,1.0180054,-0.3010254
1725950470115,2024-09-10T06:41:10.115Z,174898,-0.17333984,1.0350952,-0.31323242
1725950470149,2024-09-10T06:41:10.149Z,174932,-0.16656494,1.0274658,-0.28222656
1725950470244,2024-09-10T06:41:10.244Z,175027,-0.13616943,1.0054932,-0.25360107
1725950470273,2024-09-10T06:41:10.273Z,175056,-0.124938965,1.0036621,-0.22668457
1725950470297,2024-09-10T06:41:10.297Z,175080,-0.13140869,1.0071411,-0.22869873
1725950470316,2024-09-10T06:41:10.316Z,175099,-0.15441895,0.99383545,-0.22302246
1725950470333,2024-09-10T06:41:10.333Z,175116,-0.12213135,1.0079346,-0.23352051
1725950470376,2024-09-10T06:41:10.376Z,175159,-0.1083374,0.9915161,-0.18048096
1725950470419,2024-09-10T06:41:10.419Z,175202,-0.13122559,1.0064697,-0.15356445
1725950470467,2024-09-10T06:41:10.467Z,175250,-0.14648438,1.0206299,-0.18389893
1725950470516,2024-09-10T06:41:10.516Z,175299,-0.13336182,1.0239868,-0.20703125
1725950470560,2024-09-10T06:41:10.560Z,175343,-0.15216064,1.0084839,-0.22125244
1725950470607,2024-09-10T06:41:10.607Z,175390,-0.13745117,0.9967041,-0.21960449
1725950470653,2024-09-10T06:41:10.653Z,175436,-0.13879395,0.9741211,-0.18164062
1725950470690,2024-09-10T06:41:10.690Z,175473,-0.121520996,0.9819336,-0.18896484
1725950470713,2024-09-10T06:41:10.713Z,175496,-0.11151123,0.96380615,-0.19232178
1725950470736,2024-09-10T06:41:10.736Z,175519,-0.13342285,0.9625244,-0.19116211
1725950470781,2024-09-10T06:41:10.781Z,175564,-0.1307373,0.9667969,-0.15045166
1725950470825,2024-09-10T06:41:10.825Z,175608,-0.10217285,0.98876953,-0.12591553
1725950470878,2024-09-10T06:41:10.878Z,175661,-0.13470459,0.98687744,-0.12561035
1725950470924,2024-09-10T06:41:10.924Z,175707,-0.12463379,0.9899292,-0.13598633
1725950470961,2024-09-10T06:41:10.961Z,175744,-0.10821533,1.0007935,-0.16143799
1725950471009,2024-09-10T06:41:11.009Z,175792,-0.121154785,1.0028076,-0.17156982
1725950471063,2024-09-10T06:41:11.063Z,175846,-0.10662842,0.9882202,-0.16766357
1725950471097,2024-09-10T06:41:11.097Z,175880,-0.09539795,0.9897461,-0.20428467
1725950471149,2024-09-10T06:41:11.149Z,175932,-0.10058594,0.9852905,-0.19171143
1725950471176,2024-09-10T06:41:11.176Z,175959,-0.09338379,0.9928589,-0.18383789
1725950471196,2024-09-10T06:41:11.196Z,175979,-0.08691406,0.9868164,-0.16607666
1725950471229,2024-09-10T06:41:11.229Z,176012,-0.081970215,0.989624,-0.16638184
1725950471274,2024-09-10T06:41:11.274Z,176057,-0.091674805,0.9830322,-0.16766357
1725950471325,2024-09-10T06:41:11.325Z,176108,-0.08190918,0.9707031,-0.14544678
1725950471374,2024-09-10T06:41:11.374Z,176157,-0.080200195,0.9736328,-0.16351318
1725950471414,2024-09-10T06:41:11.414Z,176197,-0.09918213,0.9659424,-0.17388916
1725950471461,2024-09-10T06:41:11.461Z,176244,-0.09320068,0.9685669,-0.17407227
1725950471511,2024-09-10T06:41:11.511Z,176294,-0.09295654,1.0015259,-0.16369629
1725950471547,2024-09-10T06:41:11.547Z,176330,-0.09869385,1.015686,-0.13885498
1725950471570,2024-09-10T06:41:11.570Z,176353,-0.09466553,1.017273,-0.13922119
1725950471590,2024-09-10T06:41:11.590Z,176373,-0.101379395,1.0130615,-0.1361084
1725950471636,2024-09-10T06:41:11.636Z,176419,-0.070251465,1.0236816,-0.11047363
1725950471689,2024-09-10T06:41:11.689Z,176472,-0.073791504,1.0115967,-0.10845947
1725950471731,2024-09-10T06:41:11.731Z,176514,-0.081604004,0.9976196,-0.1295166
1725950471776,2024-09-10T06:41:11.776Z,176559,-0.05908203,0.98742676,-0.1472168
1725950471820,2024-09-10T06:41:11.820Z,176603,-0.06378174,0.9957886,-0.113586426
1725950471860,2024-09-10T06:41:11.860Z,176643,-0.06060791,0.9732666,-0.12237549
1725950471913,2024-09-10T06:41:11.913Z,176696,-0.024169922,0.9850464,-0.105895996
1725950471955,2024-09-10T06:41:11.955Z,176738,-0.04925537,0.9558716,-0.07244873
1725950471982,2024-09-10T06:41:11.982Z,176765,-0.009887695,0.94799805,-0.101135254
1725950472003,2024-09-10T06:41:12.003Z,176786,-0.038635254,0.9580078,-0.068481445
1725950472038,2024-09-10T06:41:12.038Z,176821,-0.03717041,0.9859619,-0.046203613
1725950472087,2024-09-10T06:41:12.087Z,176870,-0.024353027,0.9940796,-0.0647583
1725950472142,2024-09-10T06:41:12.142Z,176925,-0.042663574,0.99261475,-0.07647705
1725950472176,2024-09-10T06:41:12.176Z,176959,-0.058776855,0.99816895,-0.071777344
1725950472227,2024-09-10T06:41:12.227Z,177010,-0.03967285,0.9849243,-0.087890625
1725950472265,2024-09-10T06:41:12.265Z,177048,-0.031677246,0.9552002,-0.0758667
1725950472316,2024-09-10T06:41:12.316Z,177099,-0.035217285,0.9612427,-0.08673096
1725950472362,2024-09-10T06:41:12.362Z,177145,-0.0045776367,0.9604492,-0.072753906
1725950472404,2024-09-10T06:41:12.404Z,177187,-0.032836914,0.9613037,-0.06921387
1725950472424,2024-09-10T06:41:12.424Z,177207,0.004699707,1.0003662,-0.03704834
1725950472445,2024-09-10T06:41:12.445Z,177228,-0.025268555,0.98651123,-0.037475586
1725950472489,2024-09-10T06:41:12.489Z,177272,-0.0051879883,1.0101318,-0.03253174
1725950472544,2024-09-10T06:41:12.544Z,177327,-0.024841309,1.0135498,-0.0014648438
1725950472582,2024-09-10T06:41:12.582Z,177365,6.1035156E-4,1.0050659,-0.024719238
1725950472633,2024-09-10T06:41:12.633Z,177416,0.011169434,1.0030518,-0.06536865
1725950472680,2024-09-10T06:41:12.680Z,177463,-0.016723633,0.9784546,-0.06060791
1725950472715,2024-09-10T06:41:12.715Z,177498,-0.0068969727,0.9597168,-0.06329346
1725950472766,2024-09-10T06:41:12.766Z,177549,0.008850098,0.94189453,-0.07196045
1725950472813,2024-09-10T06:41:12.813Z,177596,-0.010070801,0.9449463,-0.07928467
1725950472840,2024-09-10T06:41:12.840Z,177623,-0.0072021484,0.97369385,-0.07696533
1725950472859,2024-09-10T06:41:12.859Z,177642,-0.010559082,0.99609375,-0.08239746
1725950472893,2024-09-10T06:41:12.893Z,177676,-0.028564453,1.0050049,-0.09967041
1725950472947,2024-09-10T06:41:12.947Z,177730,-0.050842285,1.013977,-0.10803223
1725950472994,2024-09-10T06:41:12.994Z,177777,-0.058166504,1.0043945,-0.10626221
1725950473031,2024-09-10T06:41:13.031Z,177814,-0.07574463,0.9942627,-0.13647461
1725950473081,2024-09-10T06:41:13.081Z,177864,-0.07171631,0.97528076,-0.13513184
1725950473127,2024-09-10T06:41:13.127Z,177910,-0.06628418,0.97613525,-0.14038086
1725950473168,2024-09-10T06:41:13.168Z,177951,-0.08459473,0.9842529,-0.14154053
1725950473210,2024-09-10T06:41:13.210Z,177993,-0.083618164,0.99468994,-0.17132568
1725950473224,2024-09-10T06:41:13.224Z,178007,-0.11053467,0.96502686,-0.16400146
1725950473253,2024-09-10T06:41:13.253Z,178036,-0.079711914,0.986145,-0.16247559
1725950473300,2024-09-10T06:41:13.300Z,178083,-0.08465576,0.9970703,-0.17340088
1725950473348,2024-09-10T06:41:13.348Z,178131,-0.12030029,0.9928589,-0.18634033
1725950473390,2024-09-10T06:41:13.390Z,178173,-0.13232422,0.98602295,-0.22961426
1725950473437,2024-09-10T06:41:13.437Z,178220,-0.11590576,0.9466553,-0.18676758
1725950473489,2024-09-10T06:41:13.489Z,178272,-0.09436035,0.98046875,-0.18499756
1725950473525,2024-09-10T06:41:13.525Z,178308,-0.11651611,0.9666748,-0.1887207
1725950473577,2024-09-10T06:41:13.577Z,178360,-0.11743164,0.97180176,-0.22241211
1725950473616,2024-09-10T06:41:13.616Z,178399,-0.12927246,0.9526367,-0.22796631
1725950473667,2024-09-10T06:41:13.667Z,178450,-0.09857178,0.9720459,-0.21398926
1725950473689,2024-09-10T06:41:13.689Z,178472,-0.09387207,0.9671631,-0.2144165
1725950473709,2024-09-10T06:41:13.709Z,178492,-0.10498047,0.9859619,-0.24176025
1725950473748,2024-09-10T06:41:13.748Z,178531,-0.10772705,1.0004883,-0.25201416
1725950473794,2024-09-10T06:41:13.794Z,178577,-0.14038086,0.9647827,-0.24414062
1725950473841,2024-09-10T06:41:13.841Z,178624,-0.068481445,1.0187378,-0.23284912
1725950473891,2024-09-10T06:41:13.891Z,178674,-0.1338501,0.9869385,-0.24902344
1725950473936,2024-09-10T06:41:13.936Z,178719,-0.15264893,0.94659424,-0.24853516
1725950473976,2024-09-10T06:41:13.976Z,178759,-0.08648682,0.9766846,-0.2331543
1725950474026,2024-09-10T06:41:14.026Z,178809,-0.113464355,1.0046387,-0.2208252
1725950474071,2024-09-10T06:41:14.071Z,178854,-0.13964844,1.0043945,-0.25958252
1725950474096,2024-09-10T06:41:14.096Z,178879,-0.15460205,0.9748535,-0.22399902
1725950474117,2024-09-10T06:41:14.117Z,178900,-0.10430908,0.9880371,-0.23028564
1725950474153,2024-09-10T06:41:14.153Z,178936,-0.13739014,0.991272,-0.23510742
1725950474207,2024-09-10T06:41:14.207Z,178990,-0.18017578,0.982666,-0.21588135
1725950474250,2024-09-10T06:41:14.250Z,179033,-0.13079834,1.0115356,-0.17803955
1725950474296,2024-09-10T06:41:14.296Z,179079,-0.14239502,1.0592041,-0.16711426
1725950474337,2024-09-10T06:41:14.337Z,179120,-0.16015625,1.0253296,-0.21539307
1725950474386,2024-09-10T06:41:14.386Z,179169,-0.14440918,0.96209717,-0.20892334
1725950474436,2024-09-10T06:41:14.436Z,179219,-0.120666504,0.9734497,-0.24304199
1725950474472,2024-09-10T06:41:14.472Z,179255,-0.119018555,0.99121094,-0.23718262
1725950474493,2024-09-10T06:41:14.493Z,179276,-0.1449585,0.9927368,-0.24163818
1725950474514,2024-09-10T06:41:14.514Z,179297,-0.14123535,0.9892578,-0.23846436
1725950474557,2024-09-10T06:41:14.557Z,179340,-0.14031982,0.97546387,-0.2345581
1725950474607,2024-09-10T06:41:14.607Z,179390,-0.13433838,0.98657227,-0.23461914
1725950474652,2024-09-10T06:41:14.652Z,179435,-0.14404297,0.9776001,-0.24261475
1725950474701,2024-09-10T06:41:14.701Z,179484,-0.15447998,0.96606445,-0.23675537
1725950474746,2024-09-10T06:41:14.746Z,179529,-0.1505127,0.95880127,-0.22003174
1725950474792,2024-09-10T06:41:14.792Z,179575,-0.14331055,0.9556885,-0.2163086
1725950474829,2024-09-10T06:41:14.829Z,179612,-0.12957764,0.9649048,-0.22265625
1725950474884,2024-09-10T06:41:14.884Z,179667,-0.14117432,0.9751587,-0.22875977
1725950474920,2024-09-10T06:41:14.920Z,179703,-0.15545654,0.98791504,-0.25427246
1725950474940,2024-09-10T06:41:14.940Z,179723,-0.15686035,0.9885864,-0.23760986
1725950474964,2024-09-10T06:41:14.964Z,179747,-0.14508057,0.98828125,-0.24450684
1725950475009,2024-09-10T06:41:15.009Z,179792,-0.14581299,0.98223877,-0.2399292
1725950475061,2024-09-10T06:41:15.061Z,179844,-0.14990234,0.982666,-0.25750732
1725950475101,2024-09-10T06:41:15.101Z,179884,-0.15136719,0.98443604,-0.25390625
1725950475152,2024-09-10T06:41:15.152Z,179935,-0.14581299,0.98413086,-0.25646973
1725950475197,2024-09-10T06:41:15.197Z,179980,-0.14758301,0.9686279,-0.2487793
1725950475244,2024-09-10T06:41:15.244Z,180027,-0.1404419,0.9685669,-0.2520752
1725950475284,2024-09-10T06:41:15.284Z,180067,-0.13195801,0.9838867,-0.24914551
1725950475360,2024-09-10T06:41:15.360Z,180143,-0.15625,0.9663696,-0.27752686
1725950475385,2024-09-10T06:41:15.385Z,180168,-0.15045166,0.95251465,-0.27130127
1725950475406,2024-09-10T06:41:15.406Z,180189,-0.14215088,0.963501,-0.25897217
1725950475425,2024-09-10T06:41:15.425Z,180208,-0.13812256,0.98254395,-0.26330566
1725950475458,2024-09-10T06:41:15.458Z,180241,-0.15655518,0.9871826,-0.2836914
1725950475508,2024-09-10T06:41:15.508Z,180291,-0.15783691,0.99090576,-0.28338623
1725950475553,2024-09-10T06:41:15.553Z,180336,-0.16168213,0.99139404,-0.27911377
1725950475596,2024-09-10T06:41:15.596Z,180379,-0.15136719,0.99816895,-0.272583
1725950475647,2024-09-10T06:41:15.647Z,180430,-0.1539917,1.0170288,-0.2748413
1725950475692,2024-09-10T06:41:15.692Z,180475,-0.15637207,1.038269,-0.28851318
1725950475737,2024-09-10T06:41:15.737Z,180520,-0.17504883,1.0576782,-0.2911377
1725950475761,2024-09-10T06:41:15.761Z,180544,-0.17138672,1.0622559,-0.28771973
1725950475782,2024-09-10T06:41:15.782Z,180565,-0.16821289,1.0673218,-0.2880249
1725950475819,2024-09-10T06:41:15.819Z,180602,-0.16564941,1.0484619,-0.28149414
1725950475871,2024-09-10T06:41:15.871Z,180654,-0.16955566,1.0206909,-0.27734375
1725950475913,2024-09-10T06:41:15.913Z,180696,-0.15063477,1.0029297,-0.27825928
1725950475962,2024-09-10T06:41:15.962Z,180745,-0.13891602,0.9838867,-0.2662964
1725950476001,2024-09-10T06:41:16.001Z,180784,-0.14550781,0.9614258,-0.2434082
1725950476052,2024-09-10T06:41:16.052Z,180835,-0.16485596,0.9655762,-0.20367432
1725950476097,2024-09-10T06:41:16.097Z,180880,-0.159729,0.9909668,-0.22332764
1725950476136,2024-09-10T06:41:16.136Z,180919,-0.18243408,0.9904785,-0.23388672
1725950476185,2024-09-10T06:41:16.185Z,180968,-0.18139648,1.0201416,-0.23828125
1725950476223,2024-09-10T06:41:16.223Z,181006,-0.12536621,0.9924927,-0.24597168
1725950476244,2024-09-10T06:41:16.244Z,181027,-0.12646484,0.97003174,-0.23693848
1725950476269,2024-09-10T06:41:16.269Z,181052,-0.13061523,0.96673584,-0.22027588
1725950476315,2024-09-10T06:41:16.315Z,181098,-0.11956787,0.94317627,-0.18621826
1725950476363,2024-09-10T06:41:16.363Z,181146,-0.11755371,0.9636841,-0.14031982
1725950476412,2024-09-10T06:41:16.412Z,181195,-0.1472168,0.9793091,-0.17016602
1725950476451,2024-09-10T06:41:16.451Z,181234,-0.128479,0.994751,-0.22662354
1725950476501,2024-09-10T06:41:16.501Z,181284,-0.1295166,0.9802246,-0.19604492
1725950476545,2024-09-10T06:41:16.545Z,181328,-0.11846924,0.9963989,-0.17462158
1725950476592,2024-09-10T06:41:16.592Z,181375,-0.12872314,1.015625,-0.18341064
1725950476615,2024-09-10T06:41:16.615Z,181398,-0.15283203,1.0218506,-0.19348145
1725950476635,2024-09-10T06:41:16.635Z,181418,-0.14007568,1.0197754,-0.19158936
1725950476673,2024-09-10T06:41:16.673Z,181456,-0.12738037,1.020935,-0.20489502
1725950476721,2024-09-10T06:41:16.721Z,181504,-0.15142822,0.9785156,-0.19805908
1725950476771,2024-09-10T06:41:16.771Z,181554,-0.13812256,0.9397583,-0.19366455
1725950476819,2024-09-10T06:41:16.819Z,181602,-0.124938965,0.93548584,-0.20355225
1725950476861,2024-09-10T06:41:16.861Z,181644,-0.11669922,0.95654297,-0.17150879
1725950476899,2024-09-10T06:41:16.899Z,181682,-0.14367676,0.9909668,-0.16949463
1725950476952,2024-09-10T06:41:16.952Z,181735,-0.14807129,1.026062,-0.14709473
1725950476990,2024-09-10T06:41:16.990Z,181773,-0.1348877,1.0424194,-0.1517334
1725950477010,2024-09-10T06:41:17.010Z,181793,-0.13580322,1.0187378,-0.1873169
1725950477033,2024-09-10T06:41:17.033Z,181816,-0.103027344,1.013794,-0.20233154
1725950477081,2024-09-10T06:41:17.081Z,181864,-0.13226318,0.9873657,-0.22125244
1725950477128,2024-09-10T06:41:17.128Z,181911,-0.12084961,0.97998047,-0.21447754
1725950477179,2024-09-10T06:41:17.179Z,181962,-0.08795166,0.9981079,-0.1963501
1725950477215,2024-09-10T06:41:17.215Z,181998,-0.10473633,0.9829712,-0.18463135
1725950477265,2024-09-10T06:41:17.265Z,182048,-0.09136963,0.9923096,-0.16845703
1725950477311,2024-09-10T06:41:17.311Z,182094,-0.11706543,0.989624,-0.18823242
1725950477350,2024-09-10T06:41:17.350Z,182133,-0.11633301,1.0044556,-0.16546631
1725950477402,2024-09-10T06:41:17.402Z,182185,-0.095703125,0.99853516,-0.15057373
1725950477441,2024-09-10T06:41:17.441Z,182224,-0.0993042,0.98638916,-0.15264893
1725950477464,2024-09-10T06:41:17.464Z,182247,-0.103393555,0.97143555,-0.15673828
1725950477485,2024-09-10T06:41:17.485Z,182268,-0.09857178,0.9822998,-0.17285156
1725950477530,2024-09-10T06:41:17.530Z,182313,-0.08898926,0.9902344,-0.14544678
1725950477575,2024-09-10T06:41:17.575Z,182358,-0.09649658,0.9904175,-0.18127441
1725950477621,2024-09-10T06:41:17.621Z,182404,-0.11859131,0.9857178,-0.15026855
1725950477671,2024-09-10T06:41:17.671Z,182454,-0.10168457,0.98205566,-0.13806152
1725950477712,2024-09-10T06:41:17.712Z,182495,-0.07196045,0.99017334,-0.122680664
1725950477761,2024-09-10T06:41:17.761Z,182544,-0.088256836,0.97265625,-0.117492676
1725950477805,2024-09-10T06:41:17.805Z,182588,-0.08581543,0.9750366,-0.121398926
1725950477853,2024-09-10T06:41:17.853Z,182636,-0.08770752,0.96875,-0.07513428
1725950477887,2024-09-10T06:41:17.887Z,182670,-0.0446167,0.9668579,-0.044311523
1725950477916,2024-09-10T06:41:17.916Z,182699,-0.087646484,0.94195557,-0.08111572
1725950477937,2024-09-10T06:41:17.937Z,182720,-0.04663086,0.9571533,-0.07287598
1725950477980,2024-09-10T06:41:17.980Z,182763,-0.06500244,0.9520874,-0.04437256
1725950478033,2024-09-10T06:41:18.033Z,182816,-0.06958008,0.9517822,-0.08526611
1725950478071,2024-09-10T06:41:18.071Z,182854,-0.053955078,0.9547119,-0.0993042
1725950478122,2024-09-10T06:41:18.122Z,182905,-0.057678223,0.9725952,-0.09075928
1725950478167,2024-09-10T06:41:18.167Z,182950,-0.043029785,0.97265625,-0.054992676
1725950478208,2024-09-10T06:41:18.208Z,182991,-0.050720215,0.98864746,-0.028625488
1725950478256,2024-09-10T06:41:18.256Z,183039,-0.057617188,1.0014648,-0.036132812
1725950478281,2024-09-10T06:41:18.281Z,183064,-0.07281494,0.9954834,-0.02758789
1725950478302,2024-09-10T06:41:18.302Z,183085,-0.085754395,1.00177,-0.041381836
1725950478338,2024-09-10T06:41:18.338Z,183121,-0.058044434,1.0011597,-0.05609131
1725950478386,2024-09-10T06:41:18.386Z,183169,-0.056396484,1.0005493,-0.06585693
1725950478437,2024-09-10T06:41:18.437Z,183220,-0.060913086,0.9996338,-0.080322266
1725950478478,2024-09-10T06:41:18.478Z,183261,-0.062927246,0.99609375,-0.08520508
1725950478527,2024-09-10T06:41:18.527Z,183310,-0.06060791,1.0028687,-0.08477783
1725950478573,2024-09-10T06:41:18.573Z,183356,-0.062927246,0.99871826,-0.0859375
1725950478611,2024-09-10T06:41:18.611Z,183394,-0.06542969,0.994812,-0.09307861
1725950478661,2024-09-10T06:41:18.661Z,183444,-0.07312012,0.9883423,-0.064453125
1725950478708,2024-09-10T06:41:18.708Z,183491,-0.07739258,0.98876953,-0.074035645
1725950478733,2024-09-10T06:41:18.733Z,183516,-0.06530762,0.9918213,-0.09039307
1725950478755,2024-09-10T06:41:18.755Z,183538,-0.07232666,0.9953003,-0.09124756
1725950478789,2024-09-10T06:41:18.789Z,183572,-0.076660156,0.9827881,-0.12854004
1725950478834,2024-09-10T06:41:18.834Z,183617,-0.06524658,0.9633179,-0.13885498
1725950478886,2024-09-10T06:41:18.886Z,183669,-0.05291748,0.9481201,-0.14007568
1725950478931,2024-09-10T06:41:18.931Z,183714,-0.06585693,0.95025635,-0.16949463
1725950478970,2024-09-10T06:41:18.970Z,183753,-0.091430664,0.9690552,-0.15106201
1725950479020,2024-09-10T06:41:19.020Z,183803,-0.058532715,1.0036011,-0.10992432
1725950479061,2024-09-10T06:41:19.061Z,183844,-0.07562256,1.0164185,-0.10620117
1725950479111,2024-09-10T06:41:19.111Z,183894,-0.03265381,1.020813,-0.13000488
1725950479136,2024-09-10T06:41:19.136Z,183919,-0.10797119,0.99005127,-0.094177246
1725950479164,2024-09-10T06:41:19.164Z,183947,-0.0725708,0.9671631,-0.093566895
1725950479194,2024-09-10T06:41:19.194Z,183977,-0.056396484,0.9849243,-0.13226318
1725950479241,2024-09-10T06:41:19.241Z,184024,-0.10961914,0.9822998,-0.1486206
1725950479284,2024-09-10T06:41:19.284Z,184067,-0.11218262,0.99346924,-0.1619873
1725950479333,2024-09-10T06:41:19.333Z,184116,-0.085632324,0.9923096,-0.17346191
1725950479381,2024-09-10T06:41:19.381Z,184164,-0.11639404,0.9924927,-0.17883301
1725950479427,2024-09-10T06:41:19.427Z,184210,-0.11035156,0.9797363,-0.17163086
1725950479475,2024-09-10T06:41:19.475Z,184258,-0.11633301,0.9694214,-0.17462158
1725950479512,2024-09-10T06:41:19.512Z,184295,-0.054016113,1.012207,-0.19934082
1725950479536,2024-09-10T06:41:19.536Z,184319,-0.16027832,0.9885864,-0.23291016
1725950479553,2024-09-10T06:41:19.553Z,184336,-0.12188721,0.9683838,-0.22973633
1725950479600,2024-09-10T06:41:19.600Z,184383,-0.09320068,0.9779663,-0.21984863
1725950479646,2024-09-10T06:41:19.646Z,184429,-0.11279297,0.98046875,-0.21905518
1725950479696,2024-09-10T06:41:19.696Z,184479,-0.12054443,0.98583984,-0.22503662
1725950479742,2024-09-10T06:41:19.742Z,184525,-0.12298584,0.9854126,-0.23083496
1725950479789,2024-09-10T06:41:19.789Z,184572,-0.09802246,1.0066528,-0.23669434
1725950479831,2024-09-10T06:41:19.831Z,184614,-0.13049316,0.9812012,-0.22961426
1725950479877,2024-09-10T06:41:19.877Z,184660,-0.091674805,0.99243164,-0.23339844
1725950479921,2024-09-10T06:41:19.921Z,184704,-0.13189697,0.9673462,-0.22406006
1725950479966,2024-09-10T06:41:19.966Z,184749,-0.10437012,0.9691162,-0.23553467
1725950479990,2024-09-10T06:41:19.990Z,184773,-0.13067627,0.96447754,-0.22564697
1725950480009,2024-09-10T06:41:20.009Z,184792,-0.10406494,0.9957886,-0.23217773
1725950480051,2024-09-10T06:41:20.051Z,184834,-0.15441895,0.98443604,-0.23284912
1725950480096,2024-09-10T06:41:20.096Z,184879,-0.09869385,0.99902344,-0.23547363
1725950480147,2024-09-10T06:41:20.147Z,184930,-0.16442871,0.9495239,-0.22906494
1725950480195,2024-09-10T06:41:20.195Z,184978,-0.10772705,0.9354248,-0.19885254
1725950480228,2024-09-10T06:41:20.228Z,185011,-0.0982666,0.9370117,-0.19793701
1725950480283,2024-09-10T06:41:20.283Z,185066,-0.13171387,0.9624634,-0.2277832
1725950480324,2024-09-10T06:41:20.324Z,185107,-0.14428711,0.96258545,-0.23596191
1725950480373,2024-09-10T06:41:20.373Z,185156,-0.1550293,0.9529419,-0.24102783
1725950480411,2024-09-10T06:41:20.411Z,185194,-0.12908936,0.94903564,-0.22747803
1725950480432,2024-09-10T06:41:20.432Z,185215,-0.13989258,0.94470215,-0.24255371
1725950480454,2024-09-10T06:41:20.454Z,185237,-0.12561035,0.973938,-0.2524414
1725950480498,2024-09-10T06:41:20.498Z,185281,-0.17407227,0.96569824,-0.25671387
1725950480567,2024-09-10T06:41:20.567Z,185350,-0.103393555,0.9970703,-0.26708984
1725950480593,2024-09-10T06:41:20.593Z,185376,-0.1538086,0.98272705,-0.25335693
1725950480635,2024-09-10T06:41:20.635Z,185418,-0.13531494,0.98895264,-0.26641846
1725950480684,2024-09-10T06:41:20.684Z,185467,-0.16119385,0.970459,-0.27593994
1725950480731,2024-09-10T06:41:20.731Z,185514,-0.14648438,0.9667969,-0.25720215
1725950480780,2024-09-10T06:41:20.780Z,185563,-0.12322998,0.97540283,-0.27148438
1725950480811,2024-09-10T06:41:20.811Z,185594,-0.14733887,0.9780884,-0.26452637
1725950480833,2024-09-10T06:41:20.833Z,185616,-0.12945557,0.99053955,-0.27734375
1725950480859,2024-09-10T06:41:20.859Z,185642,-0.18133545,0.9797363,-0.27520752
1725950480913,2024-09-10T06:41:20.913Z,185696,-0.11584473,1.0119019,-0.28009033
1725950480951,2024-09-10T06:41:20.951Z,185734,-0.14813232,1.0064087,-0.28027344
1725950481007,2024-09-10T06:41:21.007Z,185790,-0.15716553,1.0140381,-0.2935791
1725950481040,2024-09-10T06:41:21.040Z,185823,-0.16461182,0.99835205,-0.28582764
1725950481088,2024-09-10T06:41:21.088Z,185871,-0.14587402,0.9921875,-0.2923584
1725950481138,2024-09-10T06:41:21.138Z,185921,-0.13995361,0.9866333,-0.27624512
1725950481179,2024-09-10T06:41:21.179Z,185962,-0.14465332,0.98376465,-0.28186035
1725950481198,2024-09-10T06:41:21.198Z,185981,-0.13922119,0.98895264,-0.2897339
1725950481218,2024-09-10T06:41:21.218Z,186001,-0.1529541,0.9859009,-0.28448486
1725950481266,2024-09-10T06:41:21.266Z,186049,-0.15032959,0.99523926,-0.30004883
1725950481309,2024-09-10T06:41:21.309Z,186092,-0.14874268,1.0048218,-0.29937744
1725950481356,2024-09-10T06:41:21.356Z,186139,-0.14648438,1.0239258,-0.28796387
1725950481407,2024-09-10T06:41:21.407Z,186190,-0.16741943,1.0147705,-0.2810669
1725950481446,2024-09-10T06:41:21.446Z,186229,-0.14630127,1.0304565,-0.28424072
1725950481496,2024-09-10T06:41:21.496Z,186279,-0.17071533,1.0236816,-0.28588867
1725950481536,2024-09-10T06:41:21.536Z,186319,-0.1585083,1.0176392,-0.27618408
1725950481586,2024-09-10T06:41:21.586Z,186369,-0.14593506,1.0248413,-0.2958374
1725950481633,2024-09-10T06:41:21.633Z,186416,-0.14526367,1.0354004,-0.26281738
1725950481660,2024-09-10T06:41:21.660Z,186443,-0.14465332,1.045166,-0.25476074
1725950481683,2024-09-10T06:41:21.683Z,186466,-0.13165283,1.0512695,-0.2322998
1725950481761,2024-09-10T06:41:21.761Z,186544,-0.12164307,1.0526123,-0.21765137
1725950481780,2024-09-10T06:41:21.780Z,186563,-0.13415527,1.0245361,-0.2140503
1725950481805,2024-09-10T06:41:21.805Z,186588,-0.11407471,1.0202637,-0.18139648
1725950481856,2024-09-10T06:41:21.856Z,186639,-0.12231445,1.0096436,-0.15838623
1725950481896,2024-09-10T06:41:21.896Z,186679,-0.121154785,1.0148315,-0.1697998
1725950481946,2024-09-10T06:41:21.946Z,186729,-0.11364746,1.0171509,-0.18951416
1725950481992,2024-09-10T06:41:21.992Z,186775,-0.10131836,1.0198364,-0.18231201
1725950482031,2024-09-10T06:41:22.031Z,186814,-0.111083984,1.0140381,-0.16400146
1725950482054,2024-09-10T06:41:22.054Z,186837,-0.11956787,0.9996948,-0.18963623
1725950482087,2024-09-10T06:41:22.087Z,186870,-0.12835693,0.98217773,-0.20281982
1725950482119,2024-09-10T06:41:22.119Z,186902,-0.11846924,0.9857178,-0.19335938
1725950482166,2024-09-10T06:41:22.166Z,186949,-0.10479736,1.0046997,-0.18127441
1725950482208,2024-09-10T06:41:22.208Z,186991,-0.12390137,0.99572754,-0.20031738
1725950482264,2024-09-10T06:41:22.264Z,187047,-0.12701416,0.9885864,-0.19812012
1725950482301,2024-09-10T06:41:22.301Z,187084,-0.13110352,0.98724365,-0.1798706
1725950482350,2024-09-10T06:41:22.350Z,187133,-0.119018555,0.99694824,-0.17425537
1725950482400,2024-09-10T06:41:22.400Z,187183,-0.115356445,0.9949951,-0.16009521
1725950482437,2024-09-10T06:41:22.437Z,187220,-0.11273193,1.00531,-0.15637207
1725950482459,2024-09-10T06:41:22.459Z,187242,-0.1239624,1.0061646,-0.14855957
1725950482480,2024-09-10T06:41:22.480Z,187263,-0.10455322,1.0040894,-0.12573242
1725950482524,2024-09-10T06:41:22.524Z,187307,-0.09423828,0.99487305,-0.11907959
1725950482578,2024-09-10T06:41:22.578Z,187361,-0.09185791,0.9921875,-0.12805176
1725950482616,2024-09-10T06:41:22.616Z,187399,-0.088012695,1.0090332,-0.14227295
1725950482667,2024-09-10T06:41:22.667Z,187450,-0.11193848,0.99090576,-0.12988281
1725950482713,2024-09-10T06:41:22.713Z,187496,-0.06921387,0.9899292,-0.13763428
1725950482750,2024-09-10T06:41:22.750Z,187533,-0.07281494,0.96466064,-0.11016846
1725950482801,2024-09-10T06:41:22.801Z,187584,-0.06915283,0.9607544,-0.10699463
1725950482847,2024-09-10T06:41:22.847Z,187630,-0.07751465,0.94189453,-0.11578369
1725950482893,2024-09-10T06:41:22.893Z,187676,-0.047973633,0.9360962,-0.11016846
1725950482917,2024-09-10T06:41:22.917Z,187700,-0.043701172,0.9552002,-0.08691406
1725950482936,2024-09-10T06:41:22.936Z,187719,-0.07775879,0.97088623,-0.081848145
1725950482976,2024-09-10T06:41:22.976Z,187759,-0.051696777,1.00531,-0.11871338
1725950483023,2024-09-10T06:41:23.023Z,187806,-0.057006836,1.0029297,-0.078430176
1725950483067,2024-09-10T06:41:23.067Z,187850,-0.0637207,1.0025024,-0.053222656
1725950483121,2024-09-10T06:41:23.121Z,187904,-0.030212402,0.9869995,-0.06762695
1725950483157,2024-09-10T06:41:23.157Z,187940,-0.021728516,0.9807129,-0.041015625
1725950483200,2024-09-10T06:41:23.200Z,187983,-0.009216309,0.97961426,-0.013366699
1725950483251,2024-09-10T06:41:23.251Z,188034,-0.0051879883,0.96484375,-0.017211914
1725950483297,2024-09-10T06:41:23.297Z,188080,-0.0026245117,0.96221924,0.002380371
1725950483323,2024-09-10T06:41:23.323Z,188106,0.0025634766,0.9723511,0.012329102
1725950483344,2024-09-10T06:41:23.344Z,188127,-0.0049438477,0.9857788,0.03186035
1725950483377,2024-09-10T06:41:23.377Z,188160,-0.024353027,1.0043945,0.06756592
1725950483426,2024-09-10T06:41:23.426Z,188209,-0.024536133,1.0168457,0.058898926
1725950483484,2024-09-10T06:41:23.484Z,188267,-0.0016479492,1.0071411,0.055419922
1725950483516,2024-09-10T06:41:23.516Z,188299,-0.004638672,0.98339844,0.05517578
1725950483565,2024-09-10T06:41:23.565Z,188348,0.009033203,0.9511719,0.051818848
1725950483610,2024-09-10T06:41:23.610Z,188393,0.014282227,0.94366455,0.06311035
1725950483656,2024-09-10T06:41:23.656Z,188439,0.013793945,0.9572754,0.06225586
1725950483701,2024-09-10T06:41:23.701Z,188484,0.0031738281,0.9718628,0.064697266
1725950483726,2024-09-10T06:41:23.726Z,188509,-0.005126953,0.9904785,0.0914917
1725950483747,2024-09-10T06:41:23.747Z,188530,-0.008544922,0.9974365,0.08795166
1725950483785,2024-09-10T06:41:23.785Z,188568,0.0013427734,0.994812,0.058654785
1725950483829,2024-09-10T06:41:23.829Z,188612,0.0146484375,1.0045166,0.064331055
1725950483880,2024-09-10T06:41:23.880Z,188663,0.015380859,1.0057983,0.09124756
1725950483925,2024-09-10T06:41:23.925Z,188708,0.012939453,1.0082397,0.09967041
1725950483972,2024-09-10T06:41:23.972Z,188755,0.013061523,1.0024414,0.09979248
1725950484016,2024-09-10T06:41:24.016Z,188799,0.0178833,0.9968872,0.10803223
1725950484056,2024-09-10T06:41:24.056Z,188839,0.0134887695,0.9890137,0.12542725
1725950484109,2024-09-10T06:41:24.109Z,188892,5.493164E-4,0.9873047,0.096069336
1725950484145,2024-09-10T06:41:24.145Z,188928,-0.004211426,0.9994507,0.09173584
1725950484169,2024-09-10T06:41:24.169Z,188952,0.004211426,1.0179443,0.10803223
1725950484187,2024-09-10T06:41:24.187Z,188970,-0.0051879883,1.0268555,0.09655762
1725950484233,2024-09-10T06:41:24.233Z,189016,-0.005554199,1.0253906,0.05493164
1725950484282,2024-09-10T06:41:24.282Z,189065,-0.01159668,0.9941406,0.043701172
1725950484332,2024-09-10T06:41:24.332Z,189115,-0.009155273,0.9876709,0.021606445
1725950484371,2024-09-10T06:41:24.371Z,189154,-0.025756836,1.0006714,0.023620605
1725950484424,2024-09-10T06:41:24.424Z,189207,-0.019836426,1.0252686,0.02166748
1725950484462,2024-09-10T06:41:24.462Z,189245,-0.024719238,1.0124512,0.031921387
1725950484512,2024-09-10T06:41:24.512Z,189295,-0.03778076,1.0064697,0.019714355
1725950484557,2024-09-10T06:41:24.557Z,189340,-0.044311523,0.9890137,0.020690918
1725950484582,2024-09-10T06:41:24.582Z,189365,-0.05706787,0.984375,0.010131836
1725950484603,2024-09-10T06:41:24.603Z,189386,-0.044311523,0.99017334,0.01574707
1725950484637,2024-09-10T06:41:24.637Z,189420,-0.045837402,0.99853516,-0.013000488
1725950484686,2024-09-10T06:41:24.686Z,189469,-0.020629883,1.0114136,-0.03466797
1725950484734,2024-09-10T06:41:24.734Z,189517,-0.056152344,1.0189209,-0.04309082
1725950484782,2024-09-10T06:41:24.782Z,189565,-0.05999756,1.0288696,-0.048706055
1725950484821,2024-09-10T06:41:24.821Z,189604,-0.08416748,1.0258789,-0.024902344
1725950484869,2024-09-10T06:41:24.869Z,189652,-0.074157715,1.0391235,-0.009521484
1725950484915,2024-09-10T06:41:24.915Z,189698,-0.08337402,1.0354614,-2.4414062E-4
1725950484956,2024-09-10T06:41:24.956Z,189739,-0.07672119,1.0324097,0.0024414062
1725950484978,2024-09-10T06:41:24.978Z,189761,-0.09954834,1.0211182,-0.018737793
1725950485000,2024-09-10T06:41:25Z,189783,-0.07159424,1.0133667,-0.022216797
1725950485046,2024-09-10T06:41:25.046Z,189829,-0.09564209,1.010498,-0.045532227
1725950485094,2024-09-10T06:41:25.094Z,189877,-0.08648682,1.005249,-0.032287598
1725950485145,2024-09-10T06:41:25.145Z,189928,-0.088012695,0.9953613,-0.013671875
1725950485179,2024-09-10T06:41:25.179Z,189962,-0.09197998,0.9857178,-0.00390625
1725950485231,2024-09-10T06:41:25.231Z,190014,-0.06359863,0.9976196,0.012390137
1725950485276,2024-09-10T06:41:25.276Z,190059,-0.09020996,1.0083618,-0.00592041
1725950485315,2024-09-10T06:41:25.315Z,190098,-0.0647583,1.0203857,-0.0178833
1725950485383,2024-09-10T06:41:25.383Z,190166,-0.09527588,1.0273438,-0.016418457
1725950485407,2024-09-10T06:41:25.407Z,190190,-0.08642578,1.0360718,-0.011474609
1725950485427,2024-09-10T06:41:25.427Z,190210,-0.10064697,1.0220947,-0.0059814453
1725950485448,2024-09-10T06:41:25.448Z,190231,-0.0803833,1.0081787,0.0068969727
1725950485496,2024-09-10T06:41:25.496Z,190279,-0.057678223,1.0018921,-0.0021362305
1725950485540,2024-09-10T06:41:25.540Z,190323,-0.08270264,0.9855957,-0.015014648
1725950485592,2024-09-10T06:41:25.592Z,190375,-0.07220459,0.98638916,-0.016784668
1725950485635,2024-09-10T06:41:25.635Z,190418,-0.08868408,0.98291016,-0.014038086
1725950485677,2024-09-10T06:41:25.677Z,190460,-0.06744385,0.9767456,4.272461E-4
1725950485727,2024-09-10T06:41:25.727Z,190510,-0.06341553,0.9845581,3.0517578E-4
1725950485772,2024-09-10T06:41:25.772Z,190555,-0.06640625,0.9501343,-0.02508545
1725950485812,2024-09-10T06:41:25.812Z,190595,-0.08062744,0.95196533,-0.0119018555
1725950485833,2024-09-10T06:41:25.833Z,190616,-0.05102539,0.9807129,-0.03527832
1725950485855,2024-09-10T06:41:25.855Z,190638,-0.0715332,1.0059204,-0.033691406
1725950485899,2024-09-10T06:41:25.899Z,190682,-0.06488037,1.0131836,-0.05718994
1725950485947,2024-09-10T06:41:25.947Z,190730,-0.08642578,0.9887085,-0.073791504
1725950485996,2024-09-10T06:41:25.996Z,190779,-0.090148926,0.9694214,-0.078552246
1725950486035,2024-09-10T06:41:26.035Z,190818,-0.07684326,0.97924805,-0.07519531
1725950486087,2024-09-10T06:41:26.087Z,190870,-0.07952881,0.9949341,-0.03753662
1725950486125,2024-09-10T06:41:26.125Z,190908,-0.083496094,1.0181885,-0.06762695
1725950486179,2024-09-10T06:41:26.179Z,190962,-0.1027832,0.99053955,-0.0791626
1725950486216,2024-09-10T06:41:26.216Z,190999,-0.085876465,0.977478,-0.07385254
1725950486230,2024-09-10T06:41:26.230Z,191013,-0.10644531,0.9841919,-0.09063721
1725950486256,2024-09-10T06:41:26.256Z,191039,-0.06213379,0.9941406,-0.11639404
1725950486305,2024-09-10T06:41:26.305Z,191088,-0.12109375,0.975647,-0.13897705
1725950486352,2024-09-10T06:41:26.352Z,191135,-0.09698486,0.9828491,-0.15045166
1725950486396,2024-09-10T06:41:26.396Z,191179,-0.12731934,0.97491455,-0.14984131
1725950486448,2024-09-10T06:41:26.448Z,191231,-0.10650635,0.98217773,-0.14691162
1725950486492,2024-09-10T06:41:26.492Z,191275,-0.12756348,0.97735596,-0.15698242
1725950486531,2024-09-10T06:41:26.531Z,191314,-0.11981201,0.9660034,-0.15032959
1725950486581,2024-09-10T06:41:26.581Z,191364,-0.109069824,0.9953003,-0.15966797
1725950486625,2024-09-10T06:41:26.625Z,191408,-0.15393066,0.97613525,-0.1687622
1725950486672,2024-09-10T06:41:26.672Z,191455,-0.14111328,0.9766846,-0.18469238
1725950486698,2024-09-10T06:41:26.698Z,191481,-0.13287354,0.9784546,-0.17370605
1725950486720,2024-09-10T06:41:26.720Z,191503,-0.14343262,0.97491455,-0.16644287
1725950486754,2024-09-10T06:41:26.754Z,191537,-0.144104,0.9539795,-0.17456055
1725950486809,2024-09-10T06:41:26.809Z,191592,-0.13665771,0.9399414,-0.17303467
1725950486851,2024-09-10T06:41:26.851Z,191634,-0.12664795,0.956604,-0.16674805
1725950486899,2024-09-10T06:41:26.899Z,191682,-0.12042236,0.97821045,-0.17236328
1725950486937,2024-09-10T06:41:26.937Z,191720,-0.14672852,0.97424316,-0.18188477
1725950486984,2024-09-10T06:41:26.984Z,191767,-0.121520996,0.9805298,-0.20355225
1725950487031,2024-09-10T06:41:27.031Z,191814,-0.14776611,0.9711304,-0.22619629
1725950487077,2024-09-10T06:41:27.077Z,191860,-0.14031982,0.98431396,-0.2545166
1725950487102,2024-09-10T06:41:27.102Z,191885,-0.159729,0.9807129,-0.24987793
1725950487123,2024-09-10T06:41:27.123Z,191906,-0.12219238,1.0079956,-0.2579956
1725950487166,2024-09-10T06:41:27.166Z,191949,-0.14611816,1.0061646,-0.25860596
1725950487203,2024-09-10T06:41:27.203Z,191986,-0.1531372,1.027832,-0.24249268
1725950487251,2024-09-10T06:41:27.251Z,192034,-0.15130615,1.0219727,-0.23602295
1725950487302,2024-09-10T06:41:27.302Z,192085,-0.122558594,1.0249023,-0.2640381
1725950487345,2024-09-10T06:41:27.345Z,192128,-0.15924072,0.9942627,-0.2645874
1725950487397,2024-09-10T06:41:27.397Z,192180,-0.14465332,0.9874878,-0.25897217
1725950487431,2024-09-10T06:41:27.431Z,192214,-0.14416504,0.98669434,-0.260437
1725950487481,2024-09-10T06:41:27.481Z,192264,-0.16259766,1.0014038,-0.26190186
1725950487507,2024-09-10T06:41:27.507Z,192290,-0.17211914,1.0036011,-0.26757812
1725950487527,2024-09-10T06:41:27.527Z,192310,-0.1772461,1.0,-0.24761963
1725950487564,2024-09-10T06:41:27.564Z,192347,-0.16412354,1.0006714,-0.26141357
1725950487614,2024-09-10T06:41:27.614Z,192397,-0.17315674,0.9970093,-0.25738525
1725950487663,2024-09-10T06:41:27.663Z,192446,-0.16448975,0.9954834,-0.26000977
1725950487707,2024-09-10T06:41:27.707Z,192490,-0.15441895,0.9914551,-0.26379395
1725950487746,2024-09-10T06:41:27.746Z,192529,-0.16040039,1.0042114,-0.27227783
1725950487796,2024-09-10T06:41:27.796Z,192579,-0.17175293,1.0042725,-0.2758789
1725950487891,2024-09-10T06:41:27.891Z,192674,-0.16253662,1.0094604,-0.28271484
1725950487921,2024-09-10T06:41:27.921Z,192704,-0.16479492,1.0114136,-0.28710938
1725950487941,2024-09-10T06:41:27.941Z,192724,-0.16583252,0.9960327,-0.2857666
1725950487961,2024-09-10T06:41:27.961Z,192744,-0.16741943,0.9751587,-0.27850342
1725950487978,2024-09-10T06:41:27.978Z,192761,-0.15924072,0.9788208,-0.26879883
1725950488013,2024-09-10T06:41:28.013Z,192796,-0.15618896,0.9954834,-0.27844238
1725950488059,2024-09-10T06:41:28.059Z,192842,-0.16790771,0.98498535,-0.26898193
1725950488113,2024-09-10T06:41:28.113Z,192896,-0.17120361,0.9794922,-0.27355957
1725950488160,2024-09-10T06:41:28.160Z,192943,-0.16662598,0.9802246,-0.27148438
1725950488199,2024-09-10T06:41:28.199Z,192982,-0.16131592,0.9920044,-0.2548828
1725950488242,2024-09-10T06:41:28.242Z,193025,-0.16833496,1.010498,-0.2635498
1725950488340,2024-09-10T06:41:28.340Z,193123,-0.18359375,1.0140381,-0.25164795
1725950488369,2024-09-10T06:41:28.369Z,193152,-0.20025635,1.0301514,-0.22784424
1725950488390,2024-09-10T06:41:28.390Z,193173,-0.20159912,1.0443726,-0.24365234
1725950488410,2024-09-10T06:41:28.410Z,193193,-0.19268799,1.0447998,-0.22918701
1725950488428,2024-09-10T06:41:28.428Z,193211,-0.20031738,1.0300903,-0.21594238
1725950488464,2024-09-10T06:41:28.464Z,193247,-0.19799805,1.0110474,-0.2010498
1725950488509,2024-09-10T06:41:28.509Z,193292,-0.18939209,0.98809814,-0.18658447
1725950488557,2024-09-10T06:41:28.557Z,193340,-0.17590332,0.9664917,-0.19592285
1725950488601,2024-09-10T06:41:28.601Z,193384,-0.1373291,0.9694214,-0.2053833
1725950488650,2024-09-10T06:41:28.650Z,193433,-0.14379883,0.96661377,-0.18670654
1725950488697,2024-09-10T06:41:28.697Z,193480,-0.14611816,0.9589844,-0.19726562
1725950488740,2024-09-10T06:41:28.740Z,193523,-0.14910889,0.9673462,-0.18109131
1725950488763,2024-09-10T06:41:28.763Z,193546,-0.17626953,0.9998169,-0.12554932
1725950488784,2024-09-10T06:41:28.784Z,193567,-0.17706299,1.0211792,-0.1616211
1725950488824,2024-09-10T06:41:28.824Z,193607,-0.15704346,1.0145264,-0.20458984
1725950488878,2024-09-10T06:41:28.878Z,193661,-0.16046143,0.99993896,-0.17974854
1725950488916,2024-09-10T06:41:28.916Z,193699,-0.17279053,0.9920654,-0.13800049
1725950488966,2024-09-10T06:41:28.966Z,193749,-0.15905762,1.0019531,-0.1260376
1725950489014,2024-09-10T06:41:29.014Z,193797,-0.17004395,1.0074463,-0.1484375
1725950489052,2024-09-10T06:41:29.052Z,193835,-0.17199707,1.024292,-0.14758301
1725950489101,2024-09-10T06:41:29.101Z,193884,-0.1585083,1.0257568,-0.15142822
1725950489145,2024-09-10T06:41:29.145Z,193928,-0.15240479,1.0335693,-0.17260742
1725950489191,2024-09-10T06:41:29.191Z,193974,-0.13983154,1.0531616,-0.17181396
1725950489213,2024-09-10T06:41:29.213Z,193996,-0.14337158,1.0506592,-0.16436768
1725950489231,2024-09-10T06:41:29.231Z,194014,-0.13092041,1.034668,-0.16113281
1725950489273,2024-09-10T06:41:29.273Z,194056,-0.12738037,1.0117798,-0.15588379
1725950489321,2024-09-10T06:41:29.321Z,194104,-0.13574219,0.9873657,-0.15759277
1725950489370,2024-09-10T06:41:29.370Z,194153,-0.12731934,0.96588135,-0.14581299
1725950489416,2024-09-10T06:41:29.416Z,194199,-0.11114502,0.95843506,-0.13220215
1725950489463,2024-09-10T06:41:29.463Z,194246,-0.11065674,0.9625244,-0.13702393
1725950489525,2024-09-10T06:41:29.525Z,194308,-0.14257812,0.94903564,-0.14367676
1725950489549,2024-09-10T06:41:29.549Z,194332,-0.12738037,0.95788574,-0.13909912
1725950489589,2024-09-10T06:41:29.589Z,194372,-0.11743164,0.97058105,-0.0970459
1725950489609,2024-09-10T06:41:29.609Z,194392,-0.11975098,1.0048828,-0.09655762
1725950489634,2024-09-10T06:41:29.634Z,194417,-0.10321045,1.0386353,-0.06695557
1725950489679,2024-09-10T06:41:29.679Z,194462,-0.12133789,1.0231934,-0.06994629
1725950489730,2024-09-10T06:41:29.730Z,194513,-0.08880615,1.0072021,-0.09161377
1725950489778,2024-09-10T06:41:29.778Z,194561,-0.09649658,0.97088623,-0.12634277
1725950489820,2024-09-10T06:41:29.820Z,194603,-0.06951904,0.97094727,-0.1217041
1725950489860,2024-09-10T06:41:29.860Z,194643,-0.069885254,0.9569092,-0.13287354
1725950489913,2024-09-10T06:41:29.913Z,194696,-0.064331055,0.9572754,-0.13934326
1725950489958,2024-09-10T06:41:29.958Z,194741,-0.052124023,0.95861816,-0.08496094
1725950489996,2024-09-10T06:41:29.996Z,194779,-0.040283203,0.960083,-0.080322266
1725950490019,2024-09-10T06:41:30.019Z,194802,-0.040222168,0.9767456,-0.054748535
1725950490044,2024-09-10T06:41:30.044Z,194827,-0.05407715,0.9981079,-0.037597656
1725950490086,2024-09-10T06:41:30.086Z,194869,-0.036193848,1.0089111,0.0040283203
1725950490131,2024-09-10T06:41:30.131Z,194914,-0.048950195,1.0074463,-0.029418945
1725950490182,2024-09-10T06:41:30.182Z,194965,-0.058166504,0.9996948,-0.071777344
1725950490222,2024-09-10T06:41:30.222Z,195005,-0.056152344,1.0001221,-0.05316162
1725950490272,2024-09-10T06:41:30.272Z,195055,-0.037231445,0.9974365,-0.03515625
1725950490318,2024-09-10T06:41:30.318Z,195101,-0.0390625,0.9968262,0.0
1725950490357,2024-09-10T06:41:30.357Z,195140,-0.05810547,0.98724365,-0.010375977
1725950490407,2024-09-10T06:41:30.407Z,195190,-0.033691406,0.9801636,-0.0064086914
1725950490452,2024-09-10T06:41:30.452Z,195235,-0.046813965,0.9807129,0.013000488
1725950490475,2024-09-10T06:41:30.475Z,195258,-0.038513184,0.9677124,0.008911133
1725950490498,2024-09-10T06:41:30.498Z,195281,-0.034240723,0.9661865,-0.012084961
1725950490535,2024-09-10T06:41:30.535Z,195318,-0.060180664,0.9612427,-0.010559082
1725950490578,2024-09-10T06:41:30.578Z,195361,-0.06878662,0.9592285,-0.005432129
1725950490630,2024-09-10T06:41:30.630Z,195413,-0.07684326,0.96014404,0.0060424805
1725950490675,2024-09-10T06:41:30.675Z,195458,-0.08129883,0.9855957,0.0068359375
1725950490721,2024-09-10T06:41:30.721Z,195504,-0.08154297,1.0007324,0.017028809
1725950490765,2024-09-10T06:41:30.765Z,195548,-0.08850098,1.0061646,0.0099487305
1725950490807,2024-09-10T06:41:30.807Z,195590,-0.080322266,1.0249634,-0.005065918
1725950490848,2024-09-10T06:41:30.848Z,195631,-0.07159424,1.0385742,-0.003967285
1725950490869,2024-09-10T06:41:30.869Z,195652,-0.06549072,1.0236206,0.016113281
1725950490891,2024-09-10T06:41:30.891Z,195674,-0.059143066,1.0047607,0.022216797
1725950490940,2024-09-10T06:41:30.940Z,195723,-0.041992188,0.99316406,0.013427734
1725950490981,2024-09-10T06:41:30.981Z,195764,-0.020996094,1.0062866,0.018737793
