Timestamp (ms),ISO DateTime,Elapsed Time (ms),Acceleration X,Acceleration Y,Acceleration Z
1735322599037,2024-12-27T18:03:19.037Z,31340,0.016418457,0.11956787,0.03363037
1735322599055,2024-12-27T18:03:19.055Z,31358,0.016601562,0.12042236,0.034606934
1735322599068,2024-12-27T18:03:19.068Z,31371,0.017578125,0.11968994,0.0357666
1735322599080,2024-12-27T18:03:19.080Z,31383,0.016235352,0.12036133,0.034301758
1735322599091,2024-12-27T18:03:19.091Z,31394,0.01574707,0.12213135,0.032348633
1735322599101,2024-12-27T18:03:19.101Z,31404,0.016357422,0.12133789,0.03161621
1735322599110,2024-12-27T18:03:19.110Z,31413,0.015014648,0.120788574,0.031433105
1735322599119,2024-12-27T18:03:19.119Z,31422,0.014892578,0.1204834,0.032287598
1735322599128,2024-12-27T18:03:19.128Z,31431,0.015808105,0.120666504,0.033447266
1735322599137,2024-12-27T18:03:19.137Z,31440,0.016723633,0.12133789,0.03466797
1735322599146,2024-12-27T18:03:19.146Z,31449,0.01727295,0.12042236,0.035583496
1735322599154,2024-12-27T18:03:19.154Z,31457,0.017211914,0.11895752,0.03375244
1735322599162,2024-12-27T18:03:19.162Z,31465,0.01574707,0.12072754,0.032104492
1735322599171,2024-12-27T18:03:19.171Z,31474,0.014770508,0.123535156,0.029174805
1735322599180,2024-12-27T18:03:19.180Z,31483,0.015197754,0.122802734,0.02935791
1735322599190,2024-12-27T18:03:19.190Z,31493,0.015930176,0.120666504,0.031188965
1735322599198,2024-12-27T18:03:19.198Z,31501,0.014038086,0.12060547,0.032226562
1735322599207,2024-12-27T18:03:19.207Z,31510,0.013305664,0.12109375,0.034362793
1735322599217,2024-12-27T18:03:19.217Z,31520,0.015136719,0.120910645,0.0357666
1735322599224,2024-12-27T18:03:19.224Z,31527,0.01739502,0.11846924,0.035095215
1735322599232,2024-12-27T18:03:19.232Z,31535,0.016723633,0.119140625,0.032165527
1735322599240,2024-12-27T18:03:19.240Z,31543,0.014038086,0.123291016,0.030029297
1735322599253,2024-12-27T18:03:19.253Z,31556,0.018859863,0.1237793,0.030029297
1735322599260,2024-12-27T18:03:19.260Z,31563,0.018981934,0.12182617,0.029846191
1735322599269,2024-12-27T18:03:19.269Z,31572,0.014953613,0.11895752,0.03125
1735322599277,2024-12-27T18:03:19.277Z,31580,0.01550293,0.117370605,0.03314209
1735322599285,2024-12-27T18:03:19.285Z,31588,0.016967773,0.11883545,0.03564453
1735322599299,2024-12-27T18:03:19.299Z,31602,0.016723633,0.12005615,0.036315918
1735322599308,2024-12-27T18:03:19.308Z,31611,0.017578125,0.12182617,0.034484863
1735322599316,2024-12-27T18:03:19.316Z,31619,0.018981934,0.12200928,0.03314209
1735322599324,2024-12-27T18:03:19.324Z,31627,0.016845703,0.12097168,0.03326416
1735322599344,2024-12-27T18:03:19.344Z,31647,0.015808105,0.11999512,0.03363037
1735322599354,2024-12-27T18:03:19.354Z,31657,0.017211914,0.12011719,0.03326416
1735322599363,2024-12-27T18:03:19.363Z,31666,0.017028809,0.12213135,0.032287598
1735322599372,2024-12-27T18:03:19.372Z,31675,0.015808105,0.122680664,0.031982422
1735322599382,2024-12-27T18:03:19.382Z,31685,0.01574707,0.120910645,0.03314209
1735322599391,2024-12-27T18:03:19.391Z,31694,0.014831543,0.12017822,0.03363037
1735322599400,2024-12-27T18:03:19.400Z,31703,0.015686035,0.12072754,0.032836914
1735322599410,2024-12-27T18:03:19.410Z,31713,0.016052246,0.12225342,0.031677246
1735322599440,2024-12-27T18:03:19.440Z,31743,0.017089844,0.12310791,0.030761719
1735322599449,2024-12-27T18:03:19.449Z,31752,0.01739502,0.12219238,0.03186035
1735322599458,2024-12-27T18:03:19.458Z,31761,0.016357422,0.12042236,0.0345459
1735322599468,2024-12-27T18:03:19.468Z,31771,0.014953613,0.119262695,0.035827637
1735322599477,2024-12-27T18:03:19.477Z,31780,0.016601562,0.119140625,0.035339355
1735322599488,2024-12-27T18:03:19.488Z,31791,0.01550293,0.12164307,0.033935547
1735322599497,2024-12-27T18:03:19.497Z,31800,0.014587402,0.12213135,0.032958984
1735322599509,2024-12-27T18:03:19.509Z,31812,0.016113281,0.12030029,0.032348633
1735322599518,2024-12-27T18:03:19.518Z,31821,0.0154418945,0.12011719,0.032226562
1735322599528,2024-12-27T18:03:19.528Z,31831,0.016052246,0.11932373,0.0335083
1735322599537,2024-12-27T18:03:19.537Z,31840,0.017333984,0.119018555,0.032714844
1735322599546,2024-12-27T18:03:19.546Z,31849,0.017150879,0.11968994,0.032714844
1735322599556,2024-12-27T18:03:19.556Z,31859,0.016845703,0.11975098,0.03375244
1735322599565,2024-12-27T18:03:19.565Z,31868,0.016052246,0.118774414,0.033081055
1735322599578,2024-12-27T18:03:19.578Z,31881,0.015808105,0.11834717,0.03302002
1735322599588,2024-12-27T18:03:19.588Z,31891,0.015930176,0.119506836,0.032836914
1735322599596,2024-12-27T18:03:19.596Z,31899,0.015625,0.11975098,0.032470703
1735322599606,2024-12-27T18:03:19.606Z,31909,0.017211914,0.11804199,0.033325195
1735322599618,2024-12-27T18:03:19.618Z,31921,0.016357422,0.11694336,0.033996582
1735322599627,2024-12-27T18:03:19.627Z,31930,0.015319824,0.11779785,0.032836914
1735322599636,2024-12-27T18:03:19.636Z,31939,0.015686035,0.11932373,0.032958984
1735322599648,2024-12-27T18:03:19.648Z,31951,0.015625,0.11975098,0.03387451
1735322599657,2024-12-27T18:03:19.657Z,31960,0.015808105,0.11907959,0.034606934
1735322599667,2024-12-27T18:03:19.667Z,31970,0.014892578,0.11907959,0.03503418
1735322599677,2024-12-27T18:03:19.677Z,31980,0.012878418,0.11987305,0.03375244
1735322599686,2024-12-27T18:03:19.686Z,31989,0.0134887695,0.12042236,0.032104492
1735322599696,2024-12-27T18:03:19.696Z,31999,0.01763916,0.1204834,0.030029297
1735322599705,2024-12-27T18:03:19.705Z,32008,0.01977539,0.120666504,0.029174805
1735322599714,2024-12-27T18:03:19.714Z,32017,0.018981934,0.12109375,0.029785156
1735322599723,2024-12-27T18:03:19.723Z,32026,0.01776123,0.1217041,0.034362793
1735322599733,2024-12-27T18:03:19.733Z,32036,0.014526367,0.12042236,0.037353516
1735322599743,2024-12-27T18:03:19.743Z,32046,0.008972168,0.119506836,0.03552246
1735322599755,2024-12-27T18:03:19.755Z,32058,0.006713867,0.12017822,0.031311035
1735322599763,2024-12-27T18:03:19.763Z,32066,0.012268066,0.12084961,0.025878906
1735322599771,2024-12-27T18:03:19.771Z,32074,0.02142334,0.12054443,0.02734375
1735322599780,2024-12-27T18:03:19.780Z,32083,0.025817871,0.119628906,0.03326416
1735322599794,2024-12-27T18:03:19.794Z,32097,0.023925781,0.1184082,0.038330078
1735322599802,2024-12-27T18:03:19.802Z,32105,0.015686035,0.117248535,0.040771484
1735322599810,2024-12-27T18:03:19.810Z,32113,0.008178711,0.115478516,0.040161133
1735322599819,2024-12-27T18:03:19.819Z,32122,0.01184082,0.11517334,0.035217285
1735322599826,2024-12-27T18:03:19.826Z,32129,0.0178833,0.116882324,0.027038574
1735322599838,2024-12-27T18:03:19.838Z,32141,0.020385742,0.11798096,0.023071289
1735322599846,2024-12-27T18:03:19.846Z,32149,0.022033691,0.11999512,0.024536133
1735322599856,2024-12-27T18:03:19.856Z,32159,0.0289917,0.118652344,0.028076172
1735322599865,2024-12-27T18:03:19.865Z,32168,0.024230957,0.11730957,0.036621094
1735322599885,2024-12-27T18:03:19.885Z,32188,0.015258789,0.11505127,0.03955078
1735322599893,2024-12-27T18:03:19.893Z,32196,0.014831543,0.11340332,0.04046631
1735322599901,2024-12-27T18:03:19.901Z,32204,0.017028809,0.11437988,0.038085938
1735322599909,2024-12-27T18:03:19.909Z,32212,0.020263672,0.1159668,0.029418945
1735322599917,2024-12-27T18:03:19.917Z,32220,0.018798828,0.117614746,0.025634766
1735322599929,2024-12-27T18:03:19.929Z,32232,0.022094727,0.118896484,0.02709961
1735322599938,2024-12-27T18:03:19.938Z,32241,0.022583008,0.11987305,0.028625488
1735322599945,2024-12-27T18:03:19.945Z,32248,0.017944336,0.11846924,0.030395508
1735322599954,2024-12-27T18:03:19.954Z,32257,0.015991211,0.11376953,0.032104492
1735322599974,2024-12-27T18:03:19.974Z,32277,0.0178833,0.111694336,0.030151367
1735322600019,2024-12-27T18:03:20.019Z,32322,0.020446777,0.11541748,0.025390625
1735322600026,2024-12-27T18:03:20.026Z,32329,0.023010254,0.118774414,0.024658203
1735322600035,2024-12-27T18:03:20.035Z,32338,0.024475098,0.11871338,0.029541016
1735322600044,2024-12-27T18:03:20.044Z,32347,0.022827148,0.11730957,0.0357666
1735322600053,2024-12-27T18:03:20.053Z,32356,0.018127441,0.11706543,0.037841797
1735322600061,2024-12-27T18:03:20.061Z,32364,0.01361084,0.11987305,0.036376953
1735322600072,2024-12-27T18:03:20.072Z,32375,0.014709473,0.12084961,0.03338623
1735322600080,2024-12-27T18:03:20.080Z,32383,0.019042969,0.11779785,0.029663086
1735322600088,2024-12-27T18:03:20.088Z,32391,0.018371582,0.1161499,0.026306152
1735322600097,2024-12-27T18:03:20.097Z,32400,0.01763916,0.11669922,0.024108887
1735322600105,2024-12-27T18:03:20.105Z,32408,0.018920898,0.119018555,0.021850586
1735322600154,2024-12-27T18:03:20.154Z,32457,0.021972656,0.12060547,0.025512695
1735322600161,2024-12-27T18:03:20.161Z,32464,0.020385742,0.12097168,0.027404785
1735322600168,2024-12-27T18:03:20.168Z,32471,0.013916016,0.12072754,0.027526855
1735322600177,2024-12-27T18:03:20.177Z,32480,0.016357422,0.118774414,0.030517578
1735322600185,2024-12-27T18:03:20.185Z,32488,0.020996094,0.1161499,0.03338623
1735322600193,2024-12-27T18:03:20.193Z,32496,0.0211792,0.11584473,0.03302002
1735322600247,2024-12-27T18:03:20.247Z,32550,0.01928711,0.11798096,0.03387451
1735322600255,2024-12-27T18:03:20.255Z,32558,0.016479492,0.11975098,0.032226562
1735322600264,2024-12-27T18:03:20.264Z,32567,0.014892578,0.11639404,0.027954102
1735322600273,2024-12-27T18:03:20.273Z,32576,0.014343262,0.11230469,0.020568848
1735322600281,2024-12-27T18:03:20.281Z,32584,0.015075684,0.11260986,0.018493652
1735322600289,2024-12-27T18:03:20.289Z,32592,0.017150879,0.1161499,0.021362305
1735322600296,2024-12-27T18:03:20.296Z,32599,0.020996094,0.11791992,0.026367188
1735322600304,2024-12-27T18:03:20.304Z,32607,0.019592285,0.1171875,0.030944824
1735322600313,2024-12-27T18:03:20.313Z,32616,0.015808105,0.11645508,0.034362793
1735322600321,2024-12-27T18:03:20.321Z,32624,0.0138549805,0.11627197,0.036254883
1735322600330,2024-12-27T18:03:20.330Z,32633,0.013671875,0.11529541,0.031433105
1735322600339,2024-12-27T18:03:20.339Z,32642,0.014160156,0.11529541,0.020141602
1735322600348,2024-12-27T18:03:20.348Z,32651,0.012878418,0.117126465,0.019592285
1735322600357,2024-12-27T18:03:20.357Z,32660,0.018310547,0.11883545,0.02355957
1735322600364,2024-12-27T18:03:20.364Z,32667,0.021728516,0.119018555,0.028930664
1735322600374,2024-12-27T18:03:20.374Z,32677,0.01727295,0.11663818,0.03289795
1735322600383,2024-12-27T18:03:20.383Z,32686,0.013183594,0.11608887,0.035888672
1735322600392,2024-12-27T18:03:20.392Z,32695,0.013916016,0.11785889,0.034057617
1735322600401,2024-12-27T18:03:20.401Z,32704,0.010314941,0.11859131,0.028015137
1735322600409,2024-12-27T18:03:20.409Z,32712,0.0107421875,0.117492676,0.022949219
1735322600417,2024-12-27T18:03:20.417Z,32720,0.015808105,0.11859131,0.020996094
1735322600425,2024-12-27T18:03:20.425Z,32728,0.01763916,0.11932373,0.021911621
1735322600432,2024-12-27T18:03:20.432Z,32735,0.013671875,0.11785889,0.022583008
1735322600440,2024-12-27T18:03:20.440Z,32743,0.009033203,0.11895752,0.020324707
1735322600448,2024-12-27T18:03:20.448Z,32751,0.00982666,0.12121582,0.018981934
1735322600457,2024-12-27T18:03:20.457Z,32760,0.014160156,0.12322998,0.02319336
1735322600466,2024-12-27T18:03:20.466Z,32769,0.014770508,0.124572754,0.027038574
1735322600475,2024-12-27T18:03:20.475Z,32778,0.015380859,0.122802734,0.029174805
1735322600484,2024-12-27T18:03:20.484Z,32787,0.013977051,0.12011719,0.031555176
1735322600492,2024-12-27T18:03:20.492Z,32795,0.009094238,0.11785889,0.028564453
1735322600499,2024-12-27T18:03:20.499Z,32802,0.009643555,0.118896484,0.024047852
1735322600506,2024-12-27T18:03:20.506Z,32809,0.015014648,0.12408447,0.024230957
1735322600513,2024-12-27T18:03:20.513Z,32816,0.014892578,0.12585449,0.021728516
1735322600521,2024-12-27T18:03:20.521Z,32824,0.010498047,0.12414551,0.018798828
1735322600528,2024-12-27T18:03:20.528Z,32831,0.010009766,0.12335205,0.01940918
1735322600535,2024-12-27T18:03:20.535Z,32838,0.013549805,0.12347412,0.022766113
1735322600543,2024-12-27T18:03:20.543Z,32846,0.012023926,0.123291016,0.02331543
1735322600550,2024-12-27T18:03:20.550Z,32853,0.008911133,0.12182617,0.02532959
1735322600557,2024-12-27T18:03:20.557Z,32860,0.010681152,0.12213135,0.026855469
1735322600564,2024-12-27T18:03:20.564Z,32867,0.013977051,0.12322998,0.025878906
1735322600570,2024-12-27T18:03:20.570Z,32873,0.01574707,0.123046875,0.024658203
1735322600576,2024-12-27T18:03:20.576Z,32879,0.014221191,0.12213135,0.022338867
1735322600604,2024-12-27T18:03:20.604Z,32907,0.011962891,0.12231445,0.019592285
1735322600611,2024-12-27T18:03:20.611Z,32914,0.012207031,0.12384033,0.018676758
1735322600619,2024-12-27T18:03:20.619Z,32922,0.013793945,0.1237793,0.017822266
1735322600626,2024-12-27T18:03:20.626Z,32929,0.013977051,0.12145996,0.017578125
1735322600633,2024-12-27T18:03:20.633Z,32936,0.012634277,0.11883545,0.01940918
1735322600649,2024-12-27T18:03:20.649Z,32952,0.011169434,0.11804199,0.021240234
1735322600656,2024-12-27T18:03:20.656Z,32959,0.011962891,0.120788574,0.022644043
1735322600662,2024-12-27T18:03:20.662Z,32965,0.0126953125,0.121398926,0.023986816
1735322600670,2024-12-27T18:03:20.670Z,32973,0.008850098,0.120666504,0.02154541
1735322600693,2024-12-27T18:03:20.693Z,32996,0.005859375,0.12207031,0.017456055
1735322600701,2024-12-27T18:03:20.701Z,33004,0.010314941,0.12249756,0.016357422
1735322600708,2024-12-27T18:03:20.708Z,33011,0.012451172,0.12188721,0.016418457
1735322600715,2024-12-27T18:03:20.715Z,33018,0.011474609,0.120910645,0.016357422
1735322600738,2024-12-27T18:03:20.738Z,33041,0.012573242,0.11968994,0.01965332
1735322600745,2024-12-27T18:03:20.745Z,33048,0.01171875,0.119628906,0.022216797
1735322600753,2024-12-27T18:03:20.753Z,33056,0.011291504,0.11810303,0.022583008
1735322600760,2024-12-27T18:03:20.760Z,33063,0.011657715,0.11859131,0.020935059
1735322600767,2024-12-27T18:03:20.767Z,33070,0.012268066,0.12249756,0.020263672
1735322600782,2024-12-27T18:03:20.782Z,33085,0.012573242,0.124694824,0.01965332
1735322600828,2024-12-27T18:03:20.828Z,33131,0.011291504,0.12322998,0.017456055
1735322600836,2024-12-27T18:03:20.836Z,33139,0.010925293,0.12249756,0.015197754
1735322600843,2024-12-27T18:03:20.843Z,33146,0.012573242,0.12335205,0.017333984
1735322600850,2024-12-27T18:03:20.850Z,33153,0.01184082,0.12225342,0.017944336
1735322600859,2024-12-27T18:03:20.859Z,33162,0.010498047,0.1204834,0.018676758
1735322600866,2024-12-27T18:03:20.866Z,33169,0.012329102,0.12231445,0.01751709
1735322600878,2024-12-27T18:03:20.878Z,33181,0.011230469,0.12585449,0.016662598
1735322600886,2024-12-27T18:03:20.886Z,33189,0.009399414,0.12695312,0.01751709
1735322600893,2024-12-27T18:03:20.893Z,33196,0.008239746,0.12683105,0.016052246
1735322600899,2024-12-27T18:03:20.899Z,33202,0.01159668,0.12524414,0.01574707
1735322600907,2024-12-27T18:03:20.907Z,33210,0.014709473,0.12561035,0.018493652
1735322600918,2024-12-27T18:03:20.918Z,33221,0.012512207,0.12646484,0.019042969
1735322600927,2024-12-27T18:03:20.927Z,33230,0.010192871,0.12390137,0.019958496
1735322600937,2024-12-27T18:03:20.937Z,33240,0.012817383,0.12243652,0.021118164
1735322600944,2024-12-27T18:03:20.944Z,33247,0.013183594,0.12426758,0.020324707
1735322600950,2024-12-27T18:03:20.950Z,33253,0.011413574,0.12652588,0.020812988
1735322600957,2024-12-27T18:03:20.957Z,33260,0.010803223,0.12640381,0.018615723
1735322600967,2024-12-27T18:03:20.967Z,33270,0.010498047,0.12536621,0.015808105
1735322600976,2024-12-27T18:03:20.976Z,33279,0.011047363,0.1260376,0.013000488
1735322600984,2024-12-27T18:03:20.984Z,33287,0.011657715,0.12591553,0.012329102
1735322600991,2024-12-27T18:03:20.991Z,33294,0.013305664,0.123168945,0.015319824
1735322601008,2024-12-27T18:03:21.008Z,33311,0.014099121,0.12335205,0.017822266
1735322601016,2024-12-27T18:03:21.016Z,33319,0.013916016,0.12658691,0.019348145
1735322601023,2024-12-27T18:03:21.023Z,33326,0.013305664,0.12615967,0.01940918
1735322601030,2024-12-27T18:03:21.030Z,33333,0.011962891,0.12335205,0.01776123
1735322601052,2024-12-27T18:03:21.052Z,33355,0.010925293,0.12249756,0.017028809
1735322601059,2024-12-27T18:03:21.059Z,33362,0.0068969727,0.12597656,0.012939453
1735322601066,2024-12-27T18:03:21.066Z,33369,0.0068359375,0.12939453,0.011779785
1735322601076,2024-12-27T18:03:21.076Z,33379,0.0107421875,0.128479,0.013427734
1735322601085,2024-12-27T18:03:21.085Z,33388,0.01373291,0.124694824,0.01739502
1735322601099,2024-12-27T18:03:21.099Z,33402,0.014404297,0.12176514,0.020690918
1735322601111,2024-12-27T18:03:21.111Z,33414,0.012939453,0.12237549,0.021118164
1735322601123,2024-12-27T18:03:21.123Z,33426,0.009155273,0.12573242,0.014160156
1735322601132,2024-12-27T18:03:21.132Z,33435,0.010009766,0.12872314,0.008300781
1735322601143,2024-12-27T18:03:21.143Z,33446,0.015136719,0.13067627,0.008178711
1735322601150,2024-12-27T18:03:21.150Z,33453,0.0134887695,0.12994385,0.0115356445
1735322601158,2024-12-27T18:03:21.158Z,33461,0.010498047,0.12683105,0.013122559
1735322601165,2024-12-27T18:03:21.165Z,33468,0.011657715,0.12390137,0.015380859
1735322601173,2024-12-27T18:03:21.173Z,33476,0.01184082,0.123535156,0.019104004
1735322601189,2024-12-27T18:03:21.189Z,33492,0.010192871,0.12463379,0.020385742
1735322601196,2024-12-27T18:03:21.196Z,33499,0.010192871,0.12554932,0.018798828
1735322601204,2024-12-27T18:03:21.204Z,33507,0.012207031,0.12524414,0.017211914
1735322601210,2024-12-27T18:03:21.210Z,33513,0.010498047,0.1239624,0.015319824
1735322601235,2024-12-27T18:03:21.235Z,33538,0.005493164,0.123046875,0.01171875
1735322601244,2024-12-27T18:03:21.244Z,33547,0.008544922,0.123168945,0.0126953125
1735322601252,2024-12-27T18:03:21.252Z,33555,0.0138549805,0.12445068,0.015075684
1735322601259,2024-12-27T18:03:21.259Z,33562,0.014770508,0.12573242,0.015136719
1735322601267,2024-12-27T18:03:21.267Z,33570,0.01373291,0.12567139,0.014465332
1735322601277,2024-12-27T18:03:21.277Z,33580,0.013793945,0.12408447,0.016174316
1735322601324,2024-12-27T18:03:21.324Z,33627,0.013305664,0.122802734,0.015563965
1735322601331,2024-12-27T18:03:21.331Z,33634,0.01159668,0.12310791,0.01361084
1735322601338,2024-12-27T18:03:21.338Z,33641,0.009765625,0.12554932,0.0115356445
1735322601347,2024-12-27T18:03:21.347Z,33650,0.008300781,0.12988281,0.011474609
1735322601354,2024-12-27T18:03:21.354Z,33657,0.00982666,0.13061523,0.013244629
1735322601361,2024-12-27T18:03:21.361Z,33664,0.013549805,0.12634277,0.015197754
1735322601372,2024-12-27T18:03:21.372Z,33675,0.0119018555,0.12408447,0.017456055
1735322601379,2024-12-27T18:03:21.379Z,33682,0.010131836,0.1237793,0.017578125
1735322601388,2024-12-27T18:03:21.388Z,33691,0.012023926,0.12475586,0.016113281
1735322601395,2024-12-27T18:03:21.395Z,33698,0.014770508,0.12738037,0.015014648
1735322601404,2024-12-27T18:03:21.404Z,33707,0.012451172,0.12860107,0.012878418
1735322601414,2024-12-27T18:03:21.414Z,33717,0.010070801,0.1272583,0.010253906
1735322601422,2024-12-27T18:03:21.422Z,33725,0.010986328,0.12579346,0.011474609
1735322601429,2024-12-27T18:03:21.429Z,33732,0.012451172,0.12573242,0.013183594
1735322601436,2024-12-27T18:03:21.436Z,33739,0.012268066,0.12640381,0.014099121
1735322601444,2024-12-27T18:03:21.444Z,33747,0.012634277,0.12548828,0.015991211
1735322601458,2024-12-27T18:03:21.458Z,33761,0.01361084,0.12414551,0.018249512
1735322601464,2024-12-27T18:03:21.464Z,33767,0.013122559,0.12487793,0.017333984
1735322601471,2024-12-27T18:03:21.471Z,33774,0.012451172,0.12695312,0.015197754
1735322601478,2024-12-27T18:03:21.478Z,33781,0.012023926,0.12768555,0.014465332
1735322601488,2024-12-27T18:03:21.488Z,33791,0.011779785,0.12664795,0.013366699
1735322601503,2024-12-27T18:03:21.503Z,33806,0.012329102,0.12640381,0.013183594
1735322601513,2024-12-27T18:03:21.513Z,33816,0.012329102,0.12670898,0.015197754
1735322601519,2024-12-27T18:03:21.519Z,33822,0.012634277,0.12530518,0.016723633
1735322601526,2024-12-27T18:03:21.526Z,33829,0.013183594,0.12487793,0.01586914
1735322601548,2024-12-27T18:03:21.548Z,33851,0.012756348,0.12677002,0.014953613
1735322601556,2024-12-27T18:03:21.556Z,33859,0.011291504,0.1282959,0.014892578
1735322601564,2024-12-27T18:03:21.564Z,33867,0.012939453,0.12768555,0.014221191
1735322601570,2024-12-27T18:03:21.570Z,33873,0.012878418,0.12768555,0.0134887695
1735322601579,2024-12-27T18:03:21.579Z,33882,0.011962891,0.12762451,0.014343262
1735322601639,2024-12-27T18:03:21.639Z,33942,0.012573242,0.1272583,0.014831543
1735322601646,2024-12-27T18:03:21.646Z,33949,0.012817383,0.12646484,0.015197754
1735322601653,2024-12-27T18:03:21.653Z,33956,0.010375977,0.12567139,0.014892578
1735322601660,2024-12-27T18:03:21.660Z,33963,0.008605957,0.1260376,0.014465332
1735322601669,2024-12-27T18:03:21.669Z,33972,0.011169434,0.12780762,0.013671875
1735322601678,2024-12-27T18:03:21.678Z,33981,0.01171875,0.12841797,0.014343262
1735322601687,2024-12-27T18:03:21.687Z,33990,0.012390137,0.12561035,0.014587402
1735322601695,2024-12-27T18:03:21.695Z,33998,0.012023926,0.124694824,0.015136719
1735322601704,2024-12-27T18:03:21.704Z,34007,0.011413574,0.12567139,0.016296387
1735322601713,2024-12-27T18:03:21.713Z,34016,0.011169434,0.12402344,0.016357422
1735322601721,2024-12-27T18:03:21.721Z,34024,0.010559082,0.12390137,0.0134887695
1735322601729,2024-12-27T18:03:21.729Z,34032,0.012329102,0.12530518,0.013366699
1735322601736,2024-12-27T18:03:21.736Z,34039,0.01361084,0.12591553,0.01574707
1735322601744,2024-12-27T18:03:21.744Z,34047,0.0119018555,0.124694824,0.018371582
1735322601752,2024-12-27T18:03:21.752Z,34055,0.010803223,0.12512207,0.017028809
1735322601760,2024-12-27T18:03:21.760Z,34063,0.00970459,0.12628174,0.016845703
1735322601772,2024-12-27T18:03:21.772Z,34075,0.01184082,0.12475586,0.016723633
1735322601780,2024-12-27T18:03:21.780Z,34083,0.01159668,0.12408447,0.012451172
1735322601788,2024-12-27T18:03:21.788Z,34091,0.009399414,0.12634277,0.012084961
1735322601795,2024-12-27T18:03:21.795Z,34098,0.010437012,0.12750244,0.01361084
1735322601802,2024-12-27T18:03:21.802Z,34105,0.011169434,0.12646484,0.013122559
1735322601810,2024-12-27T18:03:21.810Z,34113,0.012756348,0.12591553,0.016357422
1735322601819,2024-12-27T18:03:21.819Z,34122,0.012084961,0.12548828,0.020507812
1735322601826,2024-12-27T18:03:21.826Z,34129,0.011291504,0.12542725,0.020996094
1735322601833,2024-12-27T18:03:21.833Z,34136,0.011108398,0.1274414,0.019348145
1735322601841,2024-12-27T18:03:21.841Z,34144,0.0107421875,0.12994385,0.017150879
1735322601864,2024-12-27T18:03:21.864Z,34167,0.0107421875,0.1295166,0.015197754
1735322601872,2024-12-27T18:03:21.872Z,34175,0.0115356445,0.1295166,0.013183594
1735322601879,2024-12-27T18:03:21.879Z,34182,0.0115356445,0.12921143,0.0119018555
1735322601886,2024-12-27T18:03:21.886Z,34189,0.012268066,0.12872314,0.0126953125
1735322601893,2024-12-27T18:03:21.893Z,34196,0.0126953125,0.13110352,0.015136719
1735322601909,2024-12-27T18:03:21.909Z,34212,0.012084961,0.13116455,0.016113281
1735322601917,2024-12-27T18:03:21.917Z,34220,0.010925293,0.13122559,0.01727295
1735322601925,2024-12-27T18:03:21.925Z,34228,0.011413574,0.13085938,0.018981934
1735322601932,2024-12-27T18:03:21.932Z,34235,0.010498047,0.12841797,0.018432617
1735322601953,2024-12-27T18:03:21.953Z,34256,0.008605957,0.12896729,0.015197754
1735322601961,2024-12-27T18:03:21.961Z,34264,0.010864258,0.13134766,0.013122559
1735322601968,2024-12-27T18:03:21.968Z,34271,0.012451172,0.13098145,0.012756348
1735322601975,2024-12-27T18:03:21.975Z,34278,0.011230469,0.12872314,0.013183594
1735322601999,2024-12-27T18:03:21.999Z,34302,0.011230469,0.1281128,0.014709473
1735322602007,2024-12-27T18:03:22.007Z,34310,0.012329102,0.12921143,0.018005371
1735322602014,2024-12-27T18:03:22.014Z,34317,0.013000488,0.12872314,0.020263672
1735322602050,2024-12-27T18:03:22.050Z,34353,0.011352539,0.12646484,0.018981934
1735322602058,2024-12-27T18:03:22.058Z,34361,0.0072631836,0.12634277,0.014709473
1735322602065,2024-12-27T18:03:22.065Z,34368,0.010803223,0.12683105,0.013549805
1735322602075,2024-12-27T18:03:22.075Z,34378,0.013427734,0.1272583,0.014892578
1735322602082,2024-12-27T18:03:22.082Z,34385,0.01159668,0.12658691,0.014953613
1735322602089,2024-12-27T18:03:22.089Z,34392,0.010559082,0.12530518,0.01574707
1735322602097,2024-12-27T18:03:22.097Z,34400,0.010375977,0.12670898,0.01586914
1735322602105,2024-12-27T18:03:22.105Z,34408,0.0107421875,0.12915039,0.016601562
1735322602114,2024-12-27T18:03:22.114Z,34417,0.012268066,0.12902832,0.0178833
1735322602121,2024-12-27T18:03:22.121Z,34424,0.012268066,0.12658691,0.018615723
1735322602129,2024-12-27T18:03:22.129Z,34432,0.009216309,0.12371826,0.016174316
1735322602137,2024-12-27T18:03:22.137Z,34440,0.009399414,0.12133789,0.015930176
1735322602145,2024-12-27T18:03:22.145Z,34448,0.010253906,0.12298584,0.0146484375
1735322602152,2024-12-27T18:03:22.152Z,34455,0.010314941,0.1274414,0.014770508
1735322602158,2024-12-27T18:03:22.158Z,34461,0.010925293,0.12817383,0.014221191
1735322602179,2024-12-27T18:03:22.179Z,34482,0.011108398,0.12567139,0.01361084
1735322602185,2024-12-27T18:03:22.185Z,34488,0.012573242,0.123413086,0.016906738
1735322602192,2024-12-27T18:03:22.192Z,34495,0.013305664,0.123046875,0.020019531
1735322602200,2024-12-27T18:03:22.200Z,34503,0.010681152,0.122680664,0.019348145
1735322602207,2024-12-27T18:03:22.207Z,34510,0.009277344,0.123535156,0.017150879
1735322602223,2024-12-27T18:03:22.223Z,34526,0.011474609,0.12445068,0.0154418945
1735322602230,2024-12-27T18:03:22.230Z,34533,0.012023926,0.12390137,0.014526367
1735322602237,2024-12-27T18:03:22.237Z,34540,0.009277344,0.12463379,0.0154418945
1735322602243,2024-12-27T18:03:22.243Z,34546,0.00982666,0.12432861,0.016845703
1735322602267,2024-12-27T18:03:22.267Z,34570,0.010925293,0.12322998,0.015319824
1735322602275,2024-12-27T18:03:22.275Z,34578,0.011108398,0.123168945,0.0146484375
1735322602282,2024-12-27T18:03:22.282Z,34585,0.012084961,0.12414551,0.015014648
1735322602291,2024-12-27T18:03:22.291Z,34594,0.011474609,0.12542725,0.015258789
1735322602315,2024-12-27T18:03:22.315Z,34618,0.0115356445,0.123535156,0.017456055
1735322602321,2024-12-27T18:03:22.321Z,34624,0.0115356445,0.12298584,0.019165039
1735322602328,2024-12-27T18:03:22.328Z,34631,0.009765625,0.12451172,0.01751709
1735322602335,2024-12-27T18:03:22.335Z,34638,0.008544922,0.1251831,0.015014648
1735322602345,2024-12-27T18:03:22.345Z,34648,0.010559082,0.12670898,0.016784668
1735322602358,2024-12-27T18:03:22.358Z,34661,0.011779785,0.12817383,0.015563965
1735322602366,2024-12-27T18:03:22.366Z,34669,0.011291504,0.12561035,0.014282227
1735322602373,2024-12-27T18:03:22.373Z,34676,0.012268066,0.12359619,0.016113281
1735322602380,2024-12-27T18:03:22.380Z,34683,0.012023926,0.12524414,0.016601562
1735322602403,2024-12-27T18:03:22.403Z,34706,0.009765625,0.12731934,0.015319824
1735322602410,2024-12-27T18:03:22.410Z,34713,0.0095825195,0.12701416,0.016296387
1735322602452,2024-12-27T18:03:22.452Z,34755,0.009765625,0.1262207,0.016784668
1735322602459,2024-12-27T18:03:22.459Z,34762,0.008544922,0.12548828,0.015625
1735322602469,2024-12-27T18:03:22.469Z,34772,0.010375977,0.12567139,0.014831543
1735322602477,2024-12-27T18:03:22.477Z,34780,0.011169434,0.12628174,0.016601562
1735322602486,2024-12-27T18:03:22.486Z,34789,0.010192871,0.1251831,0.016540527
1735322602496,2024-12-27T18:03:22.496Z,34799,0.010620117,0.12365723,0.017150879
1735322602590,2024-12-27T18:03:22.590Z,34893,0.010864258,0.12347412,0.0154418945
1735322602597,2024-12-27T18:03:22.597Z,34900,0.010009766,0.12591553,0.0154418945
1735322602605,2024-12-27T18:03:22.605Z,34908,0.00970459,0.12579346,0.016174316
1735322602613,2024-12-27T18:03:22.613Z,34916,0.010375977,0.12463379,0.017150879
1735322602620,2024-12-27T18:03:22.620Z,34923,0.010009766,0.12408447,0.016296387
1735322602633,2024-12-27T18:03:22.633Z,34936,0.009765625,0.122802734,0.016113281
1735322602640,2024-12-27T18:03:22.640Z,34943,0.011779785,0.122802734,0.015808105
1735322602647,2024-12-27T18:03:22.647Z,34950,0.00982666,0.12182617,0.013305664
1735322602654,2024-12-27T18:03:22.654Z,34957,0.0061035156,0.12097168,0.012390137
1735322602661,2024-12-27T18:03:22.661Z,34964,0.010375977,0.12237549,0.014892578
1735322602668,2024-12-27T18:03:22.668Z,34971,0.013244629,0.12347412,0.019165039
1735322602676,2024-12-27T18:03:22.676Z,34979,0.010559082,0.11987305,0.016906738
1735322602718,2024-12-27T18:03:22.718Z,35021,0.008056641,0.12036133,0.014221191
1735322602725,2024-12-27T18:03:22.725Z,35028,0.0078125,0.122558594,0.012451172
1735322602733,2024-12-27T18:03:22.733Z,35036,0.009338379,0.12408447,0.012084961
1735322602740,2024-12-27T18:03:22.740Z,35043,0.011474609,0.1239624,0.012329102
1735322602748,2024-12-27T18:03:22.748Z,35051,0.012512207,0.1227417,0.014526367
1735322602754,2024-12-27T18:03:22.754Z,35057,0.012756348,0.12237549,0.016662598
1735322602767,2024-12-27T18:03:22.767Z,35070,0.010375977,0.12145996,0.019042969
1735322602773,2024-12-27T18:03:22.773Z,35076,0.00970459,0.11968994,0.020385742
1735322602780,2024-12-27T18:03:22.780Z,35083,0.010009766,0.11999512,0.01739502
1735322602787,2024-12-27T18:03:22.787Z,35090,0.008117676,0.1237793,0.013549805
1735322602795,2024-12-27T18:03:22.795Z,35098,0.008422852,0.12530518,0.011108398
1735322602809,2024-12-27T18:03:22.809Z,35112,0.011169434,0.12487793,0.012329102
1735322602813,2024-12-27T18:03:22.813Z,35116,0.013244629,0.12414551,0.014709473
1735322602816,2024-12-27T18:03:22.816Z,35119,0.01184082,0.12335205,0.017700195
1735322602823,2024-12-27T18:03:22.823Z,35126,0.010253906,0.121276855,0.021118164
1735322602830,2024-12-27T18:03:22.830Z,35133,0.010009766,0.12017822,0.01953125
1735322602837,2024-12-27T18:03:22.837Z,35140,0.0076293945,0.12298584,0.015319824
1735322602843,2024-12-27T18:03:22.843Z,35146,0.008361816,0.12628174,0.013244629
1735322602856,2024-12-27T18:03:22.856Z,35159,0.012268066,0.125,0.01361084
1735322602864,2024-12-27T18:03:22.864Z,35167,0.012634277,0.12335205,0.013244629
1735322602871,2024-12-27T18:03:22.871Z,35174,0.010498047,0.12408447,0.014953613
1735322602878,2024-12-27T18:03:22.878Z,35181,0.010681152,0.12579346,0.016662598
1735322602886,2024-12-27T18:03:22.886Z,35189,0.012451172,0.124938965,0.02166748
1735322602898,2024-12-27T18:03:22.898Z,35201,0.01159668,0.12200928,0.02331543
1735322602904,2024-12-27T18:03:22.904Z,35207,0.009155273,0.119628906,0.018737793
1735322602910,2024-12-27T18:03:22.910Z,35213,0.0072021484,0.12414551,0.013244629
1735322602917,2024-12-27T18:03:22.917Z,35220,0.009338379,0.12792969,0.011962891
1735322602924,2024-12-27T18:03:22.924Z,35227,0.0099487305,0.12640381,0.0115356445
1735322602946,2024-12-27T18:03:22.946Z,35249,0.010986328,0.12506104,0.0126953125
1735322602952,2024-12-27T18:03:22.952Z,35255,0.010803223,0.124816895,0.016662598
1735322602960,2024-12-27T18:03:22.960Z,35263,0.010681152,0.1239624,0.020568848
1735322602967,2024-12-27T18:03:22.967Z,35270,0.010803223,0.12225342,0.023132324
1735322602973,2024-12-27T18:03:22.973Z,35276,0.010437012,0.12017822,0.01965332
1735322602988,2024-12-27T18:03:22.988Z,35291,0.009399414,0.12231445,0.01586914
1735322602995,2024-12-27T18:03:22.995Z,35298,0.0075683594,0.12695312,0.013793945
1735322603033,2024-12-27T18:03:23.033Z,35336,0.010009766,0.12646484,0.013000488
1735322603040,2024-12-27T18:03:23.040Z,35343,0.0115356445,0.124816895,0.014587402
1735322603048,2024-12-27T18:03:23.048Z,35351,0.011291504,0.12408447,0.018127441
1735322603055,2024-12-27T18:03:23.055Z,35358,0.010131836,0.12286377,0.0211792
1735322603063,2024-12-27T18:03:23.063Z,35366,0.010009766,0.12219238,0.019470215
1735322603070,2024-12-27T18:03:23.070Z,35373,0.009765625,0.123168945,0.015380859
1735322603081,2024-12-27T18:03:23.081Z,35384,0.010559082,0.124816895,0.016235352
1735322603087,2024-12-27T18:03:23.087Z,35390,0.009643555,0.12390137,0.016845703
1735322603094,2024-12-27T18:03:23.094Z,35397,0.008850098,0.12225342,0.01574707
1735322603100,2024-12-27T18:03:23.100Z,35403,0.0107421875,0.12347412,0.016540527
1735322603107,2024-12-27T18:03:23.107Z,35410,0.010192871,0.12561035,0.017944336
1735322603125,2024-12-27T18:03:23.125Z,35428,0.009765625,0.12536621,0.016906738
1735322603133,2024-12-27T18:03:23.133Z,35436,0.010681152,0.12561035,0.015686035
1735322603140,2024-12-27T18:03:23.140Z,35443,0.011962891,0.12615967,0.01763916
1735322603146,2024-12-27T18:03:23.146Z,35449,0.010864258,0.12658691,0.01965332
1735322603153,2024-12-27T18:03:23.153Z,35456,0.009094238,0.12524414,0.020202637
1735322603163,2024-12-27T18:03:23.163Z,35466,0.010986328,0.12677002,0.021057129
1735322603175,2024-12-27T18:03:23.175Z,35478,0.010559082,0.12963867,0.017456055
1735322603183,2024-12-27T18:03:23.183Z,35486,0.009338379,0.13031006,0.014892578
1735322603191,2024-12-27T18:03:23.191Z,35494,0.008911133,0.13244629,0.014465332
1735322603198,2024-12-27T18:03:23.198Z,35501,0.011474609,0.13183594,0.016052246
1735322603205,2024-12-27T18:03:23.205Z,35508,0.0134887695,0.1303711,0.018493652
1735322603212,2024-12-27T18:03:23.212Z,35515,0.00982666,0.1305542,0.01739502
1735322603218,2024-12-27T18:03:23.218Z,35521,0.010131836,0.13244629,0.020507812
1735322603224,2024-12-27T18:03:23.224Z,35527,0.013549805,0.13684082,0.022216797
1735322603231,2024-12-27T18:03:23.231Z,35534,0.012451172,0.1395874,0.01965332
1735322603257,2024-12-27T18:03:23.257Z,35560,0.010009766,0.1395874,0.01776123
1735322603304,2024-12-27T18:03:23.304Z,35607,0.010437012,0.13702393,0.016601562
1735322603313,2024-12-27T18:03:23.313Z,35616,0.010620117,0.13470459,0.01586914
1735322603319,2024-12-27T18:03:23.319Z,35622,0.0115356445,0.13684082,0.018371582
1735322603326,2024-12-27T18:03:23.326Z,35629,0.013183594,0.13983154,0.019592285
1735322603334,2024-12-27T18:03:23.334Z,35637,0.012145996,0.140625,0.018371582
1735322603342,2024-12-27T18:03:23.342Z,35645,0.012207031,0.14117432,0.01727295
1735322603358,2024-12-27T18:03:23.358Z,35661,0.012512207,0.14257812,0.017028809
1735322603365,2024-12-27T18:03:23.365Z,35668,0.012329102,0.14129639,0.018493652
1735322603394,2024-12-27T18:03:23.394Z,35697,0.008666992,0.13897705,0.0178833
1735322603401,2024-12-27T18:03:23.401Z,35704,0.009643555,0.13909912,0.018371582
1735322603409,2024-12-27T18:03:23.409Z,35712,0.0138549805,0.1418457,0.017944336
1735322603416,2024-12-27T18:03:23.416Z,35719,0.012634277,0.14398193,0.01763916
1735322603424,2024-12-27T18:03:23.424Z,35727,0.011474609,0.14233398,0.01928711
1735322603431,2024-12-27T18:03:23.431Z,35734,0.010559082,0.1394043,0.020874023
1735322603441,2024-12-27T18:03:23.441Z,35744,0.009094238,0.1395874,0.020874023
1735322603448,2024-12-27T18:03:23.448Z,35751,0.010314941,0.14154053,0.01953125
1735322603454,2024-12-27T18:03:23.454Z,35757,0.013000488,0.1418457,0.017333984
1735322603460,2024-12-27T18:03:23.460Z,35763,0.012268066,0.14099121,0.016662598
1735322603470,2024-12-27T18:03:23.470Z,35773,0.011230469,0.13946533,0.018127441
1735322603482,2024-12-27T18:03:23.482Z,35785,0.013000488,0.13934326,0.019714355
1735322603488,2024-12-27T18:03:23.488Z,35791,0.012634277,0.14056396,0.021362305
1735322603495,2024-12-27T18:03:23.495Z,35798,0.009521484,0.13995361,0.020141602
1735322603501,2024-12-27T18:03:23.501Z,35804,0.010131836,0.13873291,0.018188477
1735322603507,2024-12-27T18:03:23.507Z,35810,0.010314941,0.13867188,0.0154418945
1735322603513,2024-12-27T18:03:23.513Z,35816,0.009155273,0.13720703,0.014709473
1735322603532,2024-12-27T18:03:23.532Z,35835,0.012329102,0.1350708,0.015319824
1735322603538,2024-12-27T18:03:23.538Z,35841,0.012512207,0.13671875,0.016479492
1735322603545,2024-12-27T18:03:23.545Z,35848,0.010620117,0.13830566,0.017456055
1735322603551,2024-12-27T18:03:23.551Z,35854,0.010864258,0.13745117,0.018676758
1735322603557,2024-12-27T18:03:23.557Z,35860,0.012329102,0.13568115,0.018676758
1735322603571,2024-12-27T18:03:23.571Z,35874,0.012268066,0.1348877,0.018981934
1735322603577,2024-12-27T18:03:23.577Z,35880,0.010375977,0.13330078,0.020080566
1735322603584,2024-12-27T18:03:23.584Z,35887,0.007873535,0.13092041,0.022338867
1735322603590,2024-12-27T18:03:23.590Z,35893,0.010864258,0.13153076,0.018798828
1735322603596,2024-12-27T18:03:23.596Z,35899,0.012451172,0.1328125,0.014465332
1735322603617,2024-12-27T18:03:23.617Z,35920,0.011413574,0.13195801,0.014404297
1735322603624,2024-12-27T18:03:23.624Z,35927,0.01184082,0.13183594,0.016174316
1735322603631,2024-12-27T18:03:23.631Z,35934,0.010986328,0.13244629,0.017089844
1735322603637,2024-12-27T18:03:23.637Z,35940,0.012084961,0.13049316,0.018493652
1735322603665,2024-12-27T18:03:23.665Z,35968,0.011230469,0.12841797,0.021118164
1735322603672,2024-12-27T18:03:23.672Z,35975,0.008972168,0.1272583,0.020568848
1735322603678,2024-12-27T18:03:23.678Z,35981,0.011169434,0.12683105,0.018920898
1735322603685,2024-12-27T18:03:23.685Z,35988,0.012145996,0.12579346,0.015258789
1735322603691,2024-12-27T18:03:23.691Z,35994,0.0115356445,0.1260376,0.014038086
1735322603708,2024-12-27T18:03:23.708Z,36011,0.0119018555,0.12976074,0.014770508
1735322603714,2024-12-27T18:03:23.714Z,36017,0.012451172,0.13092041,0.016479492
1735322603720,2024-12-27T18:03:23.720Z,36023,0.012145996,0.13043213,0.01751709
1735322603727,2024-12-27T18:03:23.727Z,36030,0.012939453,0.12835693,0.018920898
1735322603754,2024-12-27T18:03:23.754Z,36057,0.013061523,0.12402344,0.020080566
1735322603761,2024-12-27T18:03:23.761Z,36064,0.013061523,0.121032715,0.020507812
1735322603769,2024-12-27T18:03:23.769Z,36072,0.010070801,0.122802734,0.016601562
1735322603776,2024-12-27T18:03:23.776Z,36079,0.007873535,0.1270752,0.015808105
1735322603784,2024-12-27T18:03:23.784Z,36087,0.007080078,0.1293335,0.016845703
1735322603799,2024-12-27T18:03:23.799Z,36102,0.008056641,0.12774658,0.012817383
1735322603807,2024-12-27T18:03:23.807Z,36110,0.01159668,0.12762451,0.010253906
1735322603815,2024-12-27T18:03:23.815Z,36118,0.0134887695,0.12670898,0.011108398
1735322603823,2024-12-27T18:03:23.823Z,36126,0.014526367,0.12188721,0.013793945
1735322603849,2024-12-27T18:03:23.849Z,36152,0.014587402,0.11785889,0.018493652
1735322603889,2024-12-27T18:03:23.889Z,36192,0.010314941,0.11767578,0.02142334
1735322603897,2024-12-27T18:03:23.897Z,36200,0.007080078,0.11871338,0.020812988
1735322603904,2024-12-27T18:03:23.904Z,36207,0.007080078,0.11853027,0.020263672
1735322603912,2024-12-27T18:03:23.912Z,36215,0.005859375,0.11907959,0.015930176
1735322603920,2024-12-27T18:03:23.920Z,36223,0.006652832,0.121398926,0.010925293
1735322603927,2024-12-27T18:03:23.927Z,36230,0.00982666,0.12261963,0.008483887
1735322603984,2024-12-27T18:03:23.984Z,36287,0.01184082,0.12030029,0.009460449
1735322603991,2024-12-27T18:03:23.991Z,36294,0.013977051,0.11590576,0.012084961
1735322603999,2024-12-27T18:03:23.999Z,36302,0.017211914,0.11456299,0.022399902
1735322604009,2024-12-27T18:03:24.009Z,36312,0.012634277,0.115234375,0.029907227
1735322604018,2024-12-27T18:03:24.018Z,36321,0.0028076172,0.115356445,0.022277832
1735322604026,2024-12-27T18:03:24.026Z,36329,0.0045166016,0.11669922,0.012817383
1735322604034,2024-12-27T18:03:24.034Z,36337,0.008056641,0.121276855,0.009338379
1735322604041,2024-12-27T18:03:24.041Z,36344,0.008666992,0.12164307,0.0076293945
1735322604048,2024-12-27T18:03:24.048Z,36351,0.011413574,0.117004395,0.008972168
1735322604054,2024-12-27T18:03:24.054Z,36357,0.014343262,0.115356445,0.013305664
1735322604060,2024-12-27T18:03:24.060Z,36363,0.0134887695,0.115234375,0.018859863
1735322604071,2024-12-27T18:03:24.071Z,36374,0.012207031,0.11755371,0.020690918
1735322604077,2024-12-27T18:03:24.077Z,36380,0.009765625,0.12176514,0.020080566
1735322604117,2024-12-27T18:03:24.117Z,36420,0.007873535,0.12042236,0.018188477
1735322604125,2024-12-27T18:03:24.125Z,36428,0.007019043,0.11633301,0.017822266
1735322604132,2024-12-27T18:03:24.132Z,36435,0.009765625,0.11627197,0.01574707
1735322604139,2024-12-27T18:03:24.139Z,36442,0.013244629,0.119506836,0.012390137
1735322604146,2024-12-27T18:03:24.146Z,36449,0.015930176,0.121276855,0.012145996
1735322604158,2024-12-27T18:03:24.158Z,36461,0.01373291,0.12023926,0.014465332
1735322604165,2024-12-27T18:03:24.165Z,36468,0.010131836,0.11791992,0.015686035
1735322604172,2024-12-27T18:03:24.172Z,36475,0.007446289,0.11804199,0.016296387
1735322604179,2024-12-27T18:03:24.179Z,36482,0.004211426,0.11883545,0.018005371
1735322604185,2024-12-27T18:03:24.185Z,36488,0.006713867,0.119018555,0.014160156
1735322604191,2024-12-27T18:03:24.191Z,36494,0.010864258,0.12017822,0.010498047
1735322604205,2024-12-27T18:03:24.205Z,36508,0.015563965,0.12194824,0.0138549805
1735322604255,2024-12-27T18:03:24.255Z,36558,0.015136719,0.12261963,0.018798828
1735322604261,2024-12-27T18:03:24.261Z,36564,0.011413574,0.12188721,0.018554688
1735322604268,2024-12-27T18:03:24.268Z,36571,0.0126953125,0.121154785,0.018920898
1735322604275,2024-12-27T18:03:24.275Z,36578,0.0119018555,0.11895752,0.019165039
1735322604283,2024-12-27T18:03:24.283Z,36586,0.0067749023,0.116882324,0.018127441
1735322604294,2024-12-27T18:03:24.294Z,36597,0.008178711,0.11566162,0.015197754
1735322604302,2024-12-27T18:03:24.302Z,36605,0.007873535,0.11639404,0.010070801
1735322604309,2024-12-27T18:03:24.309Z,36612,0.01159668,0.117248535,0.011474609
1735322604316,2024-12-27T18:03:24.316Z,36619,0.017028809,0.11907959,0.01550293
1735322604323,2024-12-27T18:03:24.323Z,36626,0.015319824,0.12359619,0.016967773
1735322604331,2024-12-27T18:03:24.331Z,36634,0.011474609,0.12487793,0.018188477
1735322604341,2024-12-27T18:03:24.341Z,36644,0.0072021484,0.114746094,0.022399902
1735322604347,2024-12-27T18:03:24.347Z,36650,0.013061523,0.115234375,0.01928711
1735322604353,2024-12-27T18:03:24.353Z,36656,0.015075684,0.11932373,0.016113281
1735322604358,2024-12-27T18:03:24.358Z,36661,0.0138549805,0.12097168,0.014587402
1735322604364,2024-12-27T18:03:24.364Z,36667,0.01361084,0.1204834,0.015686035
1735322604383,2024-12-27T18:03:24.383Z,36686,0.013427734,0.12121582,0.01727295
1735322604389,2024-12-27T18:03:24.389Z,36692,0.010620117,0.12200928,0.01739502
1735322604395,2024-12-27T18:03:24.395Z,36698,0.00970459,0.12213135,0.01928711
1735322604430,2024-12-27T18:03:24.430Z,36733,0.011169434,0.12231445,0.018981934
1735322604436,2024-12-27T18:03:24.436Z,36739,0.01171875,0.121398926,0.017028809
1735322604442,2024-12-27T18:03:24.442Z,36745,0.013000488,0.119628906,0.017211914
1735322604450,2024-12-27T18:03:24.450Z,36753,0.015563965,0.11871338,0.021057129
1735322604456,2024-12-27T18:03:24.456Z,36759,0.014038086,0.119262695,0.02142334
1735322604463,2024-12-27T18:03:24.463Z,36766,0.010375977,0.11828613,0.020080566
1735322604477,2024-12-27T18:03:24.477Z,36780,0.009399414,0.11743164,0.01953125
1735322604483,2024-12-27T18:03:24.483Z,36786,0.010864258,0.120788574,0.018798828
1735322604489,2024-12-27T18:03:24.489Z,36792,0.013916016,0.12219238,0.01574707
1735322604496,2024-12-27T18:03:24.496Z,36799,0.016052246,0.121398926,0.016662598
1735322604502,2024-12-27T18:03:24.502Z,36805,0.016418457,0.12164307,0.018981934
1735322604520,2024-12-27T18:03:24.520Z,36823,0.017089844,0.12133789,0.019836426
1735322604528,2024-12-27T18:03:24.528Z,36831,0.014282227,0.119262695,0.023132324
1735322604540,2024-12-27T18:03:24.540Z,36843,0.0099487305,0.11791992,0.026062012
1735322604547,2024-12-27T18:03:24.547Z,36850,0.009399414,0.11669922,0.024719238
1735322604554,2024-12-27T18:03:24.554Z,36857,0.0068359375,0.11657715,0.019714355
1735322604561,2024-12-27T18:03:24.561Z,36864,0.0095825195,0.12017822,0.014160156
1735322604568,2024-12-27T18:03:24.568Z,36871,0.016113281,0.1260376,0.012939453
1735322604574,2024-12-27T18:03:24.574Z,36877,0.020629883,0.12738037,0.014343262
1735322604580,2024-12-27T18:03:24.580Z,36883,0.02154541,0.123046875,0.019104004
1735322604586,2024-12-27T18:03:24.586Z,36889,0.016418457,0.119262695,0.024963379
1735322604593,2024-12-27T18:03:24.593Z,36896,0.014099121,0.11590576,0.027709961
1735322604608,2024-12-27T18:03:24.608Z,36911,0.011291504,0.115722656,0.02758789
1735322604614,2024-12-27T18:03:24.614Z,36917,0.0021972656,0.11907959,0.025512695
1735322604621,2024-12-27T18:03:24.621Z,36924,0.0060424805,0.12097168,0.019592285
1735322604626,2024-12-27T18:03:24.626Z,36929,0.01574707,0.121032715,0.015625
1735322604633,2024-12-27T18:03:24.633Z,36936,0.019836426,0.12261963,0.014404297
1735322604638,2024-12-27T18:03:24.638Z,36941,0.02154541,0.12487793,0.014343262
1735322604655,2024-12-27T18:03:24.655Z,36958,0.023925781,0.123535156,0.01977539
1735322604661,2024-12-27T18:03:24.661Z,36964,0.022460938,0.119628906,0.024658203
1735322604667,2024-12-27T18:03:24.667Z,36970,0.014831543,0.11804199,0.025390625
1735322604672,2024-12-27T18:03:24.672Z,36975,0.010131836,0.119018555,0.027832031
1735322604697,2024-12-27T18:03:24.697Z,37000,0.0067749023,0.11956787,0.025817871
1735322604704,2024-12-27T18:03:24.704Z,37007,0.008605957,0.12042236,0.020507812
1735322604710,2024-12-27T18:03:24.710Z,37013,0.013916016,0.123535156,0.01751709
1735322604716,2024-12-27T18:03:24.716Z,37019,0.01965332,0.12402344,0.014709473
1735322604722,2024-12-27T18:03:24.722Z,37025,0.021118164,0.121398926,0.018432617
1735322604746,2024-12-27T18:03:24.746Z,37049,0.020446777,0.11968994,0.022766113
1735322604752,2024-12-27T18:03:24.752Z,37055,0.020263672,0.1194458,0.024963379
1735322604758,2024-12-27T18:03:24.758Z,37061,0.018493652,0.11975098,0.026672363
1735322604765,2024-12-27T18:03:24.765Z,37068,0.013916016,0.118652344,0.028198242
1735322604788,2024-12-27T18:03:24.788Z,37091,0.0079956055,0.11846924,0.02532959
1735322604795,2024-12-27T18:03:24.795Z,37098,0.010375977,0.118652344,0.02355957
1735322604802,2024-12-27T18:03:24.802Z,37105,0.018127441,0.11871338,0.024108887
1735322604808,2024-12-27T18:03:24.808Z,37111,0.021362305,0.121032715,0.024414062
1735322604832,2024-12-27T18:03:24.832Z,37135,0.020812988,0.12231445,0.023071289
1735322604929,2024-12-27T18:03:24.929Z,37232,0.020629883,0.11907959,0.025024414
1735322604935,2024-12-27T18:03:24.935Z,37238,0.019592285,0.11413574,0.025512695
1735322604943,2024-12-27T18:03:24.943Z,37246,0.017822266,0.11230469,0.024475098
1735322604950,2024-12-27T18:03:24.950Z,37253,0.016418457,0.11505127,0.024291992
1735322604958,2024-12-27T18:03:24.958Z,37261,0.015075684,0.118652344,0.023925781
1735322604971,2024-12-27T18:03:24.971Z,37274,0.012634277,0.12164307,0.023986816
1735322604979,2024-12-27T18:03:24.979Z,37282,0.011657715,0.12384033,0.023925781
1735322604987,2024-12-27T18:03:24.987Z,37290,0.012756348,0.12634277,0.023864746
1735322604995,2024-12-27T18:03:24.995Z,37298,0.016174316,0.12512207,0.024108887
1735322605002,2024-12-27T18:03:25.002Z,37305,0.018859863,0.12194824,0.031433105
1735322605009,2024-12-27T18:03:25.009Z,37312,0.011169434,0.11804199,0.03289795
1735322605013,2024-12-27T18:03:25.013Z,37316,0.014099121,0.12017822,0.020935059
1735322605017,2024-12-27T18:03:25.017Z,37320,0.01928711,0.1262207,0.018432617
1735322605024,2024-12-27T18:03:25.024Z,37327,0.018859863,0.12561035,0.02166748
1735322605030,2024-12-27T18:03:25.030Z,37333,0.017944336,0.12219238,0.024780273
1735322605036,2024-12-27T18:03:25.036Z,37339,0.018615723,0.11981201,0.028808594
1735322605042,2024-12-27T18:03:25.042Z,37345,0.020141602,0.118774414,0.0335083
1735322605057,2024-12-27T18:03:25.057Z,37360,0.018676758,0.116760254,0.03289795
1735322605064,2024-12-27T18:03:25.064Z,37367,0.017822266,0.11767578,0.029541016
1735322605071,2024-12-27T18:03:25.071Z,37374,0.018249512,0.12121582,0.026611328
1735322605077,2024-12-27T18:03:25.077Z,37380,0.018371582,0.12365723,0.026977539
1735322605083,2024-12-27T18:03:25.083Z,37386,0.018005371,0.1217041,0.024536133
1735322605089,2024-12-27T18:03:25.089Z,37392,0.016052246,0.119140625,0.020141602
1735322605197,2024-12-27T18:03:25.197Z,37500,0.016357422,0.11895752,0.019714355
1735322605202,2024-12-27T18:03:25.202Z,37505,0.019897461,0.11981201,0.020568848
1735322605208,2024-12-27T18:03:25.208Z,37511,0.01977539,0.12042236,0.023010254
1735322605216,2024-12-27T18:03:25.216Z,37519,0.017028809,0.12188721,0.028015137
1735322605223,2024-12-27T18:03:25.223Z,37526,0.017150879,0.123413086,0.03100586
1735322605239,2024-12-27T18:03:25.239Z,37542,0.018920898,0.12017822,0.031188965
1735322605247,2024-12-27T18:03:25.247Z,37550,0.018127441,0.117614746,0.028869629
1735322605255,2024-12-27T18:03:25.255Z,37558,0.018493652,0.11999512,0.027709961
1735322605262,2024-12-27T18:03:25.262Z,37565,0.021118164,0.120788574,0.02532959
1735322605270,2024-12-27T18:03:25.270Z,37573,0.016784668,0.12054443,0.024230957
1735322605277,2024-12-27T18:03:25.277Z,37580,0.012023926,0.12060547,0.022155762
1735322605288,2024-12-27T18:03:25.288Z,37591,0.0154418945,0.11468506,0.02935791
1735322605294,2024-12-27T18:03:25.294Z,37597,0.012939453,0.11529541,0.030212402
1735322605300,2024-12-27T18:03:25.300Z,37603,0.014343262,0.12011719,0.032165527
1735322605307,2024-12-27T18:03:25.307Z,37610,0.019348145,0.12158203,0.032287598
1735322605314,2024-12-27T18:03:25.314Z,37617,0.019714355,0.11633301,0.028625488
1735322605327,2024-12-27T18:03:25.327Z,37630,0.0154418945,0.11395264,0.021850586
1735322605334,2024-12-27T18:03:25.334Z,37637,0.013549805,0.11608887,0.01965332
1735322605344,2024-12-27T18:03:25.344Z,37647,0.015136719,0.12005615,0.022644043
1735322605350,2024-12-27T18:03:25.350Z,37653,0.017211914,0.12207031,0.024169922
1735322605357,2024-12-27T18:03:25.357Z,37660,0.019592285,0.1194458,0.030090332
1735322605364,2024-12-27T18:03:25.364Z,37667,0.0178833,0.11804199,0.030944824
1735322605375,2024-12-27T18:03:25.375Z,37678,0.014587402,0.11975098,0.029174805
1735322605383,2024-12-27T18:03:25.383Z,37686,0.014709473,0.12145996,0.02746582
1735322605388,2024-12-27T18:03:25.388Z,37691,0.016296387,0.12261963,0.02545166
1735322605393,2024-12-27T18:03:25.393Z,37696,0.017089844,0.12231445,0.024414062
1735322605399,2024-12-27T18:03:25.399Z,37702,0.016540527,0.11907959,0.026062012
1735322605465,2024-12-27T18:03:25.465Z,37768,0.01940918,0.11541748,0.029174805
1735322605471,2024-12-27T18:03:25.471Z,37774,0.0234375,0.11602783,0.03125
1735322605477,2024-12-27T18:03:25.477Z,37780,0.020141602,0.120910645,0.02746582
1735322605482,2024-12-27T18:03:25.482Z,37785,0.017700195,0.12359619,0.025878906
1735322605487,2024-12-27T18:03:25.487Z,37790,0.020080566,0.123291016,0.025390625
1735322605492,2024-12-27T18:03:25.492Z,37795,0.020935059,0.12231445,0.024230957
1735322605511,2024-12-27T18:03:25.511Z,37814,0.016357422,0.12109375,0.02178955
1735322605518,2024-12-27T18:03:25.518Z,37821,0.015136719,0.11743164,0.02154541
1735322605525,2024-12-27T18:03:25.525Z,37828,0.016235352,0.116760254,0.024414062
1735322605531,2024-12-27T18:03:25.531Z,37834,0.018676758,0.117248535,0.024780273
1735322605538,2024-12-27T18:03:25.538Z,37841,0.021362305,0.119628906,0.025878906
1735322605553,2024-12-27T18:03:25.553Z,37856,0.023010254,0.12243652,0.026977539
1735322605560,2024-12-27T18:03:25.560Z,37863,0.023498535,0.120788574,0.026062012
1735322605567,2024-12-27T18:03:25.567Z,37870,0.024169922,0.11828613,0.026428223
1735322605574,2024-12-27T18:03:25.574Z,37877,0.020263672,0.11932373,0.026123047
1735322605579,2024-12-27T18:03:25.579Z,37882,0.014709473,0.120666504,0.024047852
1735322605585,2024-12-27T18:03:25.585Z,37888,0.016052246,0.12060547,0.025268555
1735322605603,2024-12-27T18:03:25.603Z,37906,0.018188477,0.11810303,0.027832031
1735322605609,2024-12-27T18:03:25.609Z,37912,0.017028809,0.11798096,0.026611328
1735322605617,2024-12-27T18:03:25.617Z,37920,0.01965332,0.1204834,0.026123047
1735322605623,2024-12-27T18:03:25.623Z,37926,0.023071289,0.121398926,0.026672363
1735322605630,2024-12-27T18:03:25.630Z,37933,0.022277832,0.12097168,0.02746582
1735322605642,2024-12-27T18:03:25.642Z,37945,0.020080566,0.11968994,0.029174805
1735322605649,2024-12-27T18:03:25.649Z,37952,0.017456055,0.11859131,0.030883789
1735322605656,2024-12-27T18:03:25.656Z,37959,0.016357422,0.11798096,0.028930664
1735322605661,2024-12-27T18:03:25.661Z,37964,0.015686035,0.11828613,0.024597168
1735322605667,2024-12-27T18:03:25.667Z,37970,0.016479492,0.11975098,0.02355957
1735322605672,2024-12-27T18:03:25.672Z,37975,0.020446777,0.11999512,0.025878906
1735322605690,2024-12-27T18:03:25.690Z,37993,0.021118164,0.119628906,0.028137207
1735322605695,2024-12-27T18:03:25.695Z,37998,0.019470215,0.119018555,0.030822754
1735322605701,2024-12-27T18:03:25.701Z,38004,0.01727295,0.117370605,0.02935791
1735322605706,2024-12-27T18:03:25.706Z,38009,0.017456055,0.11755371,0.027770996
1735322605711,2024-12-27T18:03:25.711Z,38014,0.01928711,0.11895752,0.027893066
1735322605732,2024-12-27T18:03:25.732Z,38035,0.01776123,0.11907959,0.0256958
1735322605739,2024-12-27T18:03:25.739Z,38042,0.015625,0.11791992,0.023925781
1735322605744,2024-12-27T18:03:25.744Z,38047,0.016174316,0.1171875,0.022155762
1735322605751,2024-12-27T18:03:25.751Z,38054,0.018615723,0.11767578,0.022277832
1735322605778,2024-12-27T18:03:25.778Z,38081,0.020141602,0.116882324,0.024963379
1735322605785,2024-12-27T18:03:25.785Z,38088,0.018127441,0.11480713,0.030517578
1735322605791,2024-12-27T18:03:25.791Z,38094,0.016540527,0.11236572,0.031677246
1735322605797,2024-12-27T18:03:25.797Z,38100,0.01727295,0.113342285,0.032836914
1735322605803,2024-12-27T18:03:25.803Z,38106,0.017822266,0.11602783,0.029174805
1735322605823,2024-12-27T18:03:25.823Z,38126,0.01940918,0.12060547,0.01977539
1735322605829,2024-12-27T18:03:25.829Z,38132,0.018249512,0.122680664,0.018981934
1735322605837,2024-12-27T18:03:25.837Z,38140,0.015014648,0.1171875,0.022460938
1735322605843,2024-12-27T18:03:25.843Z,38146,0.013549805,0.11315918,0.02557373
1735322605869,2024-12-27T18:03:25.869Z,38172,0.01159668,0.115234375,0.030090332
1735322605875,2024-12-27T18:03:25.875Z,38178,0.012573242,0.11541748,0.033203125
1735322605881,2024-12-27T18:03:25.881Z,38184,0.012573242,0.113342285,0.029052734
1735322605888,2024-12-27T18:03:25.888Z,38191,0.011962891,0.115600586,0.02166748
1735322605913,2024-12-27T18:03:25.913Z,38216,0.017578125,0.11798096,0.019348145
1735322605920,2024-12-27T18:03:25.920Z,38223,0.024902344,0.11828613,0.021972656
1735322605926,2024-12-27T18:03:25.926Z,38229,0.026489258,0.11730957,0.02545166
1735322605935,2024-12-27T18:03:25.935Z,38238,0.02331543,0.11657715,0.031311035
1735322605944,2024-12-27T18:03:25.944Z,38247,0.020019531,0.117248535,0.035827637
1735322605958,2024-12-27T18:03:25.958Z,38261,0.015380859,0.1159668,0.034301758
1735322605964,2024-12-27T18:03:25.964Z,38267,0.011291504,0.11450195,0.028686523
1735322605970,2024-12-27T18:03:25.970Z,38273,0.012512207,0.116760254,0.0211792
1735322605977,2024-12-27T18:03:25.977Z,38280,0.017150879,0.1204834,0.016174316
1735322605983,2024-12-27T18:03:25.983Z,38286,0.016357422,0.121398926,0.015319824
1735322606005,2024-12-27T18:03:26.005Z,38308,0.01373291,0.11853027,0.017150879
1735322606010,2024-12-27T18:03:26.010Z,38313,0.013671875,0.11639404,0.020141602
1735322606017,2024-12-27T18:03:26.017Z,38320,0.01574707,0.116760254,0.021972656
1735322606022,2024-12-27T18:03:26.022Z,38325,0.017944336,0.11651611,0.026428223
1735322606050,2024-12-27T18:03:26.050Z,38353,0.018310547,0.115234375,0.029907227
1735322606056,2024-12-27T18:03:26.056Z,38359,0.01776123,0.115112305,0.028381348
1735322606061,2024-12-27T18:03:26.061Z,38364,0.01965332,0.11584473,0.026489258
1735322606068,2024-12-27T18:03:26.068Z,38371,0.01739502,0.11883545,0.02520752
1735322606094,2024-12-27T18:03:26.094Z,38397,0.013122559,0.12054443,0.020141602
1735322606101,2024-12-27T18:03:26.101Z,38404,0.013305664,0.119262695,0.015686035
1735322606108,2024-12-27T18:03:26.108Z,38411,0.017822266,0.11651611,0.014526367
1735322606114,2024-12-27T18:03:26.114Z,38417,0.022827148,0.114990234,0.018737793
1735322606121,2024-12-27T18:03:26.121Z,38424,0.021606445,0.11450195,0.023010254
1735322606137,2024-12-27T18:03:26.137Z,38440,0.016540527,0.115722656,0.02178955
1735322606143,2024-12-27T18:03:26.143Z,38446,0.014221191,0.11883545,0.02178955
1735322606150,2024-12-27T18:03:26.150Z,38453,0.016601562,0.1204834,0.02355957
1735322606157,2024-12-27T18:03:26.157Z,38460,0.014465332,0.11883545,0.022827148
1735322606184,2024-12-27T18:03:26.184Z,38487,0.010925293,0.118896484,0.019165039
1735322606189,2024-12-27T18:03:26.189Z,38492,0.011413574,0.121276855,0.018981934
1735322606196,2024-12-27T18:03:26.196Z,38499,0.018737793,0.121520996,0.018676758
1735322606202,2024-12-27T18:03:26.202Z,38505,0.022766113,0.120666504,0.016418457
1735322606208,2024-12-27T18:03:26.208Z,38511,0.01965332,0.121398926,0.016723633
1735322606227,2024-12-27T18:03:26.227Z,38530,0.014953613,0.12182617,0.018920898
1735322606233,2024-12-27T18:03:26.233Z,38536,0.011474609,0.119140625,0.020141602
1735322606239,2024-12-27T18:03:26.239Z,38542,0.010009766,0.119384766,0.021240234
1735322606245,2024-12-27T18:03:26.245Z,38548,0.011230469,0.122802734,0.018676758
1735322606272,2024-12-27T18:03:26.272Z,38575,0.012329102,0.12548828,0.015625
1735322606278,2024-12-27T18:03:26.278Z,38581,0.015991211,0.12530518,0.016479492
1735322606284,2024-12-27T18:03:26.284Z,38587,0.020141602,0.12176514,0.020568848
1735322606290,2024-12-27T18:03:26.290Z,38593,0.017700195,0.1204834,0.022583008
1735322606296,2024-12-27T18:03:26.296Z,38599,0.015930176,0.12005615,0.021240234
1735322606317,2024-12-27T18:03:26.317Z,38620,0.015563965,0.12042236,0.01928711
1735322606324,2024-12-27T18:03:26.324Z,38627,0.0138549805,0.121276855,0.016052246
1735322606331,2024-12-27T18:03:26.331Z,38634,0.014465332,0.12182617,0.016540527
1735322606338,2024-12-27T18:03:26.338Z,38641,0.01550293,0.12219238,0.014892578
1735322606364,2024-12-27T18:03:26.364Z,38667,0.016479492,0.1227417,0.014465332
1735322606371,2024-12-27T18:03:26.371Z,38674,0.016784668,0.12261963,0.016357422
1735322606377,2024-12-27T18:03:26.377Z,38680,0.015991211,0.12145996,0.020446777
1735322606384,2024-12-27T18:03:26.384Z,38687,0.016357422,0.11846924,0.022705078
1735322606407,2024-12-27T18:03:26.407Z,38710,0.014343262,0.117004395,0.023864746
1735322606412,2024-12-27T18:03:26.412Z,38715,0.012573242,0.11834717,0.022460938
1735322606453,2024-12-27T18:03:26.453Z,38756,0.011047363,0.12023926,0.01776123
1735322606461,2024-12-27T18:03:26.461Z,38764,0.010437012,0.120910645,0.011962891
1735322606469,2024-12-27T18:03:26.469Z,38772,0.013916016,0.121520996,0.01171875
1735322606477,2024-12-27T18:03:26.477Z,38780,0.01751709,0.12261963,0.01361084
1735322606484,2024-12-27T18:03:26.484Z,38787,0.019348145,0.121520996,0.018981934
1735322606491,2024-12-27T18:03:26.491Z,38794,0.016601562,0.11871338,0.024108887
1735322606502,2024-12-27T18:03:26.502Z,38805,0.014221191,0.119384766,0.023498535
1735322606509,2024-12-27T18:03:26.509Z,38812,0.012878418,0.12390137,0.02142334
1735322606515,2024-12-27T18:03:26.515Z,38818,0.014465332,0.123535156,0.018554688
1735322606522,2024-12-27T18:03:26.522Z,38825,0.016235352,0.12200928,0.018127441
1735322606528,2024-12-27T18:03:26.528Z,38831,0.013671875,0.12322998,0.016113281
1735322606542,2024-12-27T18:03:26.542Z,38845,0.012939453,0.1237793,0.0138549805
1735322606548,2024-12-27T18:03:26.548Z,38851,0.012451172,0.12261963,0.012329102
1735322606555,2024-12-27T18:03:26.555Z,38858,0.010864258,0.12133789,0.013305664
1735322606561,2024-12-27T18:03:26.561Z,38864,0.01361084,0.12097168,0.01763916
1735322606567,2024-12-27T18:03:26.567Z,38870,0.015319824,0.12225342,0.020935059
1735322606588,2024-12-27T18:03:26.588Z,38891,0.014343262,0.125,0.021484375
1735322606594,2024-12-27T18:03:26.594Z,38897,0.014221191,0.12695312,0.01965332
1735322606601,2024-12-27T18:03:26.601Z,38904,0.015319824,0.1281128,0.018310547
1735322606607,2024-12-27T18:03:26.607Z,38910,0.016906738,0.12908936,0.018371582
1735322606615,2024-12-27T18:03:26.615Z,38918,0.016174316,0.12664795,0.015686035
1735322606634,2024-12-27T18:03:26.634Z,38937,0.014160156,0.12249756,0.014892578
1735322606645,2024-12-27T18:03:26.645Z,38948,0.012634277,0.121032715,0.014770508
1735322606651,2024-12-27T18:03:26.651Z,38954,0.012329102,0.122924805,0.017700195
1735322606658,2024-12-27T18:03:26.658Z,38961,0.009643555,0.125,0.015075684
1735322606724,2024-12-27T18:03:26.724Z,39027,0.010192871,0.12683105,0.014099121
1735322606731,2024-12-27T18:03:26.731Z,39034,0.01373291,0.12768555,0.016296387
1735322606739,2024-12-27T18:03:26.739Z,39042,0.014099121,0.1270752,0.017456055
1735322606746,2024-12-27T18:03:26.746Z,39049,0.016906738,0.1260376,0.02130127
1735322606754,2024-12-27T18:03:26.754Z,39057,0.019958496,0.12554932,0.026733398
1735322606760,2024-12-27T18:03:26.760Z,39063,0.015258789,0.12371826,0.022399902
1735322606772,2024-12-27T18:03:26.772Z,39075,0.012145996,0.12225342,0.01739502
1735322606778,2024-12-27T18:03:26.778Z,39081,0.013916016,0.12414551,0.015808105
1735322606784,2024-12-27T18:03:26.784Z,39087,0.01361084,0.12561035,0.014465332
1735322606789,2024-12-27T18:03:26.789Z,39092,0.010925293,0.123535156,0.0119018555
1735322606795,2024-12-27T18:03:26.795Z,39098,0.011657715,0.12261963,0.012512207
1735322606812,2024-12-27T18:03:26.812Z,39115,0.013427734,0.12408447,0.016235352
1735322606819,2024-12-27T18:03:26.819Z,39122,0.015625,0.12420654,0.018066406
1735322606824,2024-12-27T18:03:26.824Z,39127,0.015808105,0.12402344,0.019226074
1735322606829,2024-12-27T18:03:26.829Z,39132,0.015014648,0.122802734,0.01940918
1735322606834,2024-12-27T18:03:26.834Z,39137,0.013244629,0.12164307,0.01739502
1735322606840,2024-12-27T18:03:26.840Z,39143,0.012573242,0.121276855,0.016357422
1735322606860,2024-12-27T18:03:26.860Z,39163,0.013244629,0.12231445,0.016540527
1735322606866,2024-12-27T18:03:26.866Z,39169,0.012207031,0.124816895,0.014404297
1735322606872,2024-12-27T18:03:26.872Z,39175,0.012939453,0.12426758,0.012878418
1735322606878,2024-12-27T18:03:26.878Z,39181,0.015625,0.12207031,0.013977051
1735322606884,2024-12-27T18:03:26.884Z,39187,0.015686035,0.12145996,0.0138549805
1735322606902,2024-12-27T18:03:26.902Z,39205,0.012878418,0.12109375,0.014526367
1735322606909,2024-12-27T18:03:26.909Z,39212,0.014038086,0.12030029,0.0154418945
1735322606914,2024-12-27T18:03:26.914Z,39217,0.015014648,0.12249756,0.015930176
1735322606920,2024-12-27T18:03:26.920Z,39223,0.014343262,0.12548828,0.018493652
1735322606926,2024-12-27T18:03:26.926Z,39229,0.013793945,0.12536621,0.018371582
1735322606948,2024-12-27T18:03:26.948Z,39251,0.012512207,0.12219238,0.016723633
1735322606954,2024-12-27T18:03:26.954Z,39257,0.013000488,0.12005615,0.016357422
1735322606960,2024-12-27T18:03:26.960Z,39263,0.0126953125,0.12042236,0.014343262
1735322606965,2024-12-27T18:03:26.965Z,39268,0.011657715,0.12213135,0.011962891
1735322606992,2024-12-27T18:03:26.992Z,39295,0.013000488,0.12451172,0.010925293
1735322606998,2024-12-27T18:03:26.998Z,39301,0.014160156,0.12609863,0.012512207
1735322607004,2024-12-27T18:03:27.004Z,39307,0.014526367,0.12390137,0.016418457
1735322607010,2024-12-27T18:03:27.010Z,39313,0.014038086,0.12207031,0.017333984
1735322607038,2024-12-27T18:03:27.038Z,39341,0.013427734,0.12298584,0.017211914
1735322607044,2024-12-27T18:03:27.044Z,39347,0.012573242,0.124694824,0.015197754
1735322607050,2024-12-27T18:03:27.050Z,39353,0.011169434,0.1260376,0.0126953125
1735322607057,2024-12-27T18:03:27.057Z,39360,0.012329102,0.1262207,0.0119018555
1735322607063,2024-12-27T18:03:27.063Z,39366,0.015136719,0.12487793,0.013000488
1735322607084,2024-12-27T18:03:27.084Z,39387,0.015014648,0.12347412,0.012573242
1735322607090,2024-12-27T18:03:27.090Z,39393,0.013244629,0.1237793,0.012329102
1735322607096,2024-12-27T18:03:27.096Z,39399,0.013977051,0.12567139,0.014709473
1735322607103,2024-12-27T18:03:27.103Z,39406,0.015380859,0.1270752,0.016662598
1735322607127,2024-12-27T18:03:27.127Z,39430,0.015258789,0.12640381,0.017089844
1735322607133,2024-12-27T18:03:27.133Z,39436,0.013366699,0.12670898,0.013366699
1735322607140,2024-12-27T18:03:27.140Z,39443,0.01361084,0.12750244,0.0095825195
1735322607146,2024-12-27T18:03:27.146Z,39449,0.01361084,0.12561035,0.008361816
1735322607152,2024-12-27T18:03:27.152Z,39455,0.012817383,0.12420654,0.011108398
1735322607173,2024-12-27T18:03:27.173Z,39476,0.013183594,0.12567139,0.013916016
1735322607219,2024-12-27T18:03:27.219Z,39522,0.015075684,0.12677002,0.017028809
1735322607227,2024-12-27T18:03:27.227Z,39530,0.014343262,0.12670898,0.016418457
1735322607235,2024-12-27T18:03:27.235Z,39538,0.01171875,0.12701416,0.0138549805
1735322607243,2024-12-27T18:03:27.243Z,39546,0.013793945,0.12872314,0.015258789
1735322607251,2024-12-27T18:03:27.251Z,39554,0.013793945,0.13031006,0.013061523
1735322607267,2024-12-27T18:03:27.267Z,39570,0.012512207,0.12860107,0.009155273
1735322607275,2024-12-27T18:03:27.275Z,39578,0.013916016,0.12554932,0.008972168
1735322607282,2024-12-27T18:03:27.282Z,39585,0.013305664,0.125,0.00793457
1735322607290,2024-12-27T18:03:27.290Z,39593,0.0134887695,0.12701416,0.010375977
1735322607299,2024-12-27T18:03:27.299Z,39602,0.016235352,0.12731934,0.014770508
1735322607312,2024-12-27T18:03:27.312Z,39615,0.015686035,0.12670898,0.015930176
1735322607359,2024-12-27T18:03:27.359Z,39662,0.0134887695,0.1274414,0.015808105
1735322607367,2024-12-27T18:03:27.367Z,39670,0.011657715,0.12719727,0.015319824
1735322607375,2024-12-27T18:03:27.375Z,39678,0.010375977,0.12652588,0.013366699
1735322607382,2024-12-27T18:03:27.382Z,39685,0.0119018555,0.12670898,0.010864258
1735322607389,2024-12-27T18:03:27.389Z,39692,0.014770508,0.1272583,0.008117676
1735322607400,2024-12-27T18:03:27.400Z,39703,0.015136719,0.12646484,0.009399414
1735322607408,2024-12-27T18:03:27.408Z,39711,0.013244629,0.12548828,0.011169434
1735322607416,2024-12-27T18:03:27.416Z,39719,0.01361084,0.12512207,0.012939453
1735322607422,2024-12-27T18:03:27.422Z,39725,0.014221191,0.12561035,0.013000488
1735322607429,2024-12-27T18:03:27.429Z,39732,0.013671875,0.1262207,0.0126953125
1735322607435,2024-12-27T18:03:27.435Z,39738,0.013305664,0.12615967,0.014221191
1735322607445,2024-12-27T18:03:27.445Z,39748,0.013671875,0.1260376,0.014160156
1735322607451,2024-12-27T18:03:27.451Z,39754,0.013916016,0.12677002,0.012634277
1735322607457,2024-12-27T18:03:27.457Z,39760,0.014709473,0.1270752,0.013122559
1735322607463,2024-12-27T18:03:27.463Z,39766,0.0146484375,0.12615967,0.01159668
1735322607469,2024-12-27T18:03:27.469Z,39772,0.013427734,0.12463379,0.0095825195
1735322607489,2024-12-27T18:03:27.489Z,39792,0.014831543,0.12524414,0.011230469
1735322607494,2024-12-27T18:03:27.494Z,39797,0.014221191,0.12799072,0.013183594
1735322607500,2024-12-27T18:03:27.500Z,39803,0.01361084,0.12640381,0.0146484375
1735322607506,2024-12-27T18:03:27.506Z,39809,0.013122559,0.12445068,0.012817383
1735322607511,2024-12-27T18:03:27.511Z,39814,0.013366699,0.12512207,0.011108398
1735322607517,2024-12-27T18:03:27.517Z,39820,0.012084961,0.12524414,0.010559082
1735322607540,2024-12-27T18:03:27.540Z,39843,0.011169434,0.124938965,0.008728027
1735322607546,2024-12-27T18:03:27.546Z,39849,0.01373291,0.12652588,0.0099487305
1735322607552,2024-12-27T18:03:27.552Z,39855,0.014099121,0.12597656,0.012268066
1735322607558,2024-12-27T18:03:27.558Z,39861,0.014587402,0.12390137,0.014160156
1735322607576,2024-12-27T18:03:27.576Z,39879,0.016052246,0.12402344,0.017211914
1735322607592,2024-12-27T18:03:27.592Z,39895,0.014099121,0.123291016,0.016357422
1735322607604,2024-12-27T18:03:27.604Z,39907,0.012023926,0.123168945,0.010070801
1735322607616,2024-12-27T18:03:27.616Z,39919,0.012329102,0.12683105,0.006958008
1735322607627,2024-12-27T18:03:27.627Z,39930,0.013427734,0.12695312,0.0068359375
1735322607633,2024-12-27T18:03:27.633Z,39936,0.013122559,0.12561035,0.0064697266
1735322607641,2024-12-27T18:03:27.641Z,39944,0.012756348,0.12561035,0.0072631836
1735322607648,2024-12-27T18:03:27.648Z,39951,0.013366699,0.12609863,0.011779785
1735322607655,2024-12-27T18:03:27.655Z,39958,0.014221191,0.12506104,0.015686035
1735322607662,2024-12-27T18:03:27.662Z,39965,0.014221191,0.12298584,0.016296387
1735322607714,2024-12-27T18:03:27.714Z,40017,0.013305664,0.12530518,0.014282227
1735322607721,2024-12-27T18:03:27.721Z,40024,0.012207031,0.1281128,0.012390137
1735322607728,2024-12-27T18:03:27.728Z,40031,0.012145996,0.12683105,0.009399414
1735322607735,2024-12-27T18:03:27.735Z,40038,0.01171875,0.12652588,0.008544922
1735322607743,2024-12-27T18:03:27.743Z,40046,0.012268066,0.12585449,0.010253906
1735322607750,2024-12-27T18:03:27.750Z,40053,0.012878418,0.12554932,0.009521484
1735322607762,2024-12-27T18:03:27.762Z,40065,0.012207031,0.12591553,0.010986328
1735322607768,2024-12-27T18:03:27.768Z,40071,0.0134887695,0.12451172,0.0115356445
1735322607775,2024-12-27T18:03:27.775Z,40078,0.013916016,0.12548828,0.010559082
1735322607781,2024-12-27T18:03:27.781Z,40084,0.014831543,0.12823486,0.012390137
1735322607786,2024-12-27T18:03:27.786Z,40089,0.014038086,0.12817383,0.01361084
1735322607803,2024-12-27T18:03:27.803Z,40106,0.012451172,0.12579346,0.01361084
1735322607808,2024-12-27T18:03:27.808Z,40111,0.012512207,0.12573242,0.012634277
1735322607814,2024-12-27T18:03:27.814Z,40117,0.011779785,0.124938965,0.010681152
1735322607819,2024-12-27T18:03:27.819Z,40122,0.011291504,0.123168945,0.008239746
1735322607851,2024-12-27T18:03:27.851Z,40154,0.01159668,0.12664795,0.0076293945
1735322607858,2024-12-27T18:03:27.858Z,40161,0.013793945,0.12835693,0.009094238
1735322607863,2024-12-27T18:03:27.863Z,40166,0.013916016,0.125,0.01184082
1735322607869,2024-12-27T18:03:27.869Z,40172,0.012756348,0.122680664,0.012634277
1735322607875,2024-12-27T18:03:27.875Z,40178,0.012329102,0.123168945,0.012023926
1735322607893,2024-12-27T18:03:27.893Z,40196,0.012268066,0.12402344,0.011474609
1735322607899,2024-12-27T18:03:27.899Z,40202,0.012390137,0.12426758,0.010620117
1735322607905,2024-12-27T18:03:27.905Z,40208,0.012023926,0.1251831,0.008911133
1735322607911,2024-12-27T18:03:27.911Z,40214,0.012878418,0.12554932,0.010986328
1735322607916,2024-12-27T18:03:27.916Z,40219,0.014099121,0.1251831,0.013427734
1735322607921,2024-12-27T18:03:27.921Z,40224,0.013244629,0.12384033,0.013122559
1735322607942,2024-12-27T18:03:27.942Z,40245,0.012329102,0.12426758,0.012084961
1735322607949,2024-12-27T18:03:27.949Z,40252,0.012207031,0.12597656,0.010620117
1735322607955,2024-12-27T18:03:27.955Z,40258,0.0107421875,0.12573242,0.006713867
1735322607962,2024-12-27T18:03:27.962Z,40265,0.012023926,0.12640381,0.006652832
1735322607968,2024-12-27T18:03:27.968Z,40271,0.013427734,0.12792969,0.010314941
1735322607983,2024-12-27T18:03:27.983Z,40286,0.012634277,0.12713623,0.013122559
1735322607990,2024-12-27T18:03:27.990Z,40293,0.012878418,0.12628174,0.014099121
1735322608000,2024-12-27T18:03:28Z,40303,0.012207031,0.12591553,0.014282227
1735322608006,2024-12-27T18:03:28.006Z,40309,0.010681152,0.12646484,0.012145996
1735322608012,2024-12-27T18:03:28.012Z,40315,0.010375977,0.1270752,0.00970459
1735322608027,2024-12-27T18:03:28.027Z,40330,0.013183594,0.12786865,0.0087890625
1735322608032,2024-12-27T18:03:28.032Z,40335,0.0134887695,0.12902832,0.00970459
1735322608038,2024-12-27T18:03:28.038Z,40341,0.0126953125,0.12823486,0.008178711
1735322608043,2024-12-27T18:03:28.043Z,40346,0.011779785,0.12799072,0.010559082
1735322608073,2024-12-27T18:03:28.073Z,40376,0.010620117,0.1274414,0.013305664
1735322608078,2024-12-27T18:03:28.078Z,40381,0.012023926,0.12585449,0.01373291
1735322608083,2024-12-27T18:03:28.083Z,40386,0.011230469,0.12683105,0.012390137
1735322608089,2024-12-27T18:03:28.089Z,40392,0.011169434,0.13018799,0.009521484
1735322608095,2024-12-27T18:03:28.095Z,40398,0.011474609,0.13098145,0.009521484
1735322608117,2024-12-27T18:03:28.117Z,40420,0.011291504,0.1274414,0.009094238
1735322608124,2024-12-27T18:03:28.124Z,40427,0.01159668,0.12774658,0.010070801
1735322608130,2024-12-27T18:03:28.130Z,40433,0.012512207,0.12780762,0.011474609
1735322608135,2024-12-27T18:03:28.135Z,40438,0.010314941,0.12677002,0.012268066
1735322608163,2024-12-27T18:03:28.163Z,40466,0.010925293,0.12585449,0.012145996
1735322608169,2024-12-27T18:03:28.169Z,40472,0.011352539,0.12780762,0.012023926
1735322608175,2024-12-27T18:03:28.175Z,40478,0.0095825195,0.12872314,0.010070801
1735322608181,2024-12-27T18:03:28.181Z,40484,0.009033203,0.12664795,0.006652832
1735322608189,2024-12-27T18:03:28.189Z,40492,0.012634277,0.12573242,0.00970459
1735322608209,2024-12-27T18:03:28.209Z,40512,0.012023926,0.12512207,0.011169434
1735322608214,2024-12-27T18:03:28.214Z,40517,0.008911133,0.12384033,0.011657715
1735322608220,2024-12-27T18:03:28.220Z,40523,0.011108398,0.12475586,0.013061523
1735322608226,2024-12-27T18:03:28.226Z,40529,0.011779785,0.12548828,0.011413574
1735322608253,2024-12-27T18:03:28.253Z,40556,0.011474609,0.12597656,0.011779785
1735322608259,2024-12-27T18:03:28.259Z,40562,0.011657715,0.12652588,0.012329102
1735322608265,2024-12-27T18:03:28.265Z,40568,0.012268066,0.12451172,0.012878418
1735322608271,2024-12-27T18:03:28.271Z,40574,0.01159668,0.122558594,0.012268066
1735322608297,2024-12-27T18:03:28.297Z,40600,0.008361816,0.12347412,0.008850098
1735322608302,2024-12-27T18:03:28.302Z,40605,0.008544922,0.12475586,0.0053100586
1735322608310,2024-12-27T18:03:28.310Z,40613,0.012878418,0.12695312,0.008239746
1735322608343,2024-12-27T18:03:28.343Z,40646,0.01361084,0.12915039,0.010559082
1735322608350,2024-12-27T18:03:28.350Z,40653,0.011779785,0.12713623,0.01184082
1735322608357,2024-12-27T18:03:28.357Z,40660,0.011047363,0.1260376,0.014221191
1735322608364,2024-12-27T18:03:28.364Z,40667,0.010009766,0.12591553,0.014038086
1735322608371,2024-12-27T18:03:28.371Z,40674,0.008300781,0.12548828,0.010620117
1735322608379,2024-12-27T18:03:28.379Z,40682,0.0095825195,0.12634277,0.008300781
1735322608391,2024-12-27T18:03:28.391Z,40694,0.0115356445,0.12854004,0.0072021484
1735322608397,2024-12-27T18:03:28.397Z,40700,0.012451172,0.12872314,0.008239746
1735322608403,2024-12-27T18:03:28.403Z,40706,0.012329102,0.12872314,0.009094238
1735322608409,2024-12-27T18:03:28.409Z,40712,0.012207031,0.12854004,0.011047363
1735322608415,2024-12-27T18:03:28.415Z,40718,0.012329102,0.12713623,0.014587402
1735322608437,2024-12-27T18:03:28.437Z,40740,0.011230469,0.12713623,0.013549805
1735322608444,2024-12-27T18:03:28.444Z,40747,0.010192871,0.12860107,0.012084961
1735322608449,2024-12-27T18:03:28.449Z,40752,0.009521484,0.1296997,0.0087890625
1735322608455,2024-12-27T18:03:28.455Z,40758,0.009643555,0.13000488,0.006652832
1735322608478,2024-12-27T18:03:28.478Z,40781,0.012329102,0.12890625,0.0064086914
1735322608483,2024-12-27T18:03:28.483Z,40786,0.012817383,0.12738037,0.009521484
1735322608489,2024-12-27T18:03:28.489Z,40792,0.011657715,0.12768555,0.013000488
1735322608494,2024-12-27T18:03:28.494Z,40797,0.010192871,0.12780762,0.012145996
1735322608499,2024-12-27T18:03:28.499Z,40802,0.010498047,0.12823486,0.011108398
1735322608570,2024-12-27T18:03:28.570Z,40873,0.011779785,0.12878418,0.011047363
1735322608576,2024-12-27T18:03:28.576Z,40879,0.012512207,0.12860107,0.011047363
1735322608582,2024-12-27T18:03:28.582Z,40885,0.011413574,0.12750244,0.0099487305
1735322608588,2024-12-27T18:03:28.588Z,40891,0.009094238,0.12750244,0.008422852
1735322608594,2024-12-27T18:03:28.594Z,40897,0.007751465,0.12780762,0.008911133
1735322608599,2024-12-27T18:03:28.599Z,40902,0.010559082,0.12701416,0.010375977
1735322608617,2024-12-27T18:03:28.617Z,40920,0.012145996,0.12713623,0.009094238
1735322608624,2024-12-27T18:03:28.624Z,40927,0.013000488,0.12792969,0.008422852
1735322608631,2024-12-27T18:03:28.631Z,40934,0.01184082,0.12866211,0.010498047
1735322608637,2024-12-27T18:03:28.637Z,40940,0.00970459,0.12695312,0.012512207
1735322608644,2024-12-27T18:03:28.644Z,40947,0.0095825195,0.12506104,0.012756348
1735322608662,2024-12-27T18:03:28.662Z,40965,0.009521484,0.1260376,0.013122559
1735322608670,2024-12-27T18:03:28.670Z,40973,0.011108398,0.12835693,0.01373291
1735322608676,2024-12-27T18:03:28.676Z,40979,0.010559082,0.12957764,0.011230469
1735322608681,2024-12-27T18:03:28.681Z,40984,0.009155273,0.12939453,0.007080078
1735322608686,2024-12-27T18:03:28.686Z,40989,0.009216309,0.12835693,0.0060424805
1735322608692,2024-12-27T18:03:28.692Z,40995,0.010437012,0.1274414,0.008972168
1735322608705,2024-12-27T18:03:28.705Z,41008,0.010559082,0.12689209,0.011047363
1735322608711,2024-12-27T18:03:28.711Z,41014,0.010437012,0.12554932,0.010009766
1735322608717,2024-12-27T18:03:28.717Z,41020,0.009887695,0.12609863,0.009460449
1735322608723,2024-12-27T18:03:28.723Z,41026,0.009460449,0.12976074,0.010803223
1735322608728,2024-12-27T18:03:28.728Z,41031,0.011779785,0.13238525,0.012512207
1735322608749,2024-12-27T18:03:28.749Z,41052,0.010070801,0.1303711,0.012634277
1735322608754,2024-12-27T18:03:28.754Z,41057,0.008117676,0.1270752,0.00982666
1735322608760,2024-12-27T18:03:28.760Z,41063,0.010864258,0.12805176,0.0075683594
1735322608765,2024-12-27T18:03:28.765Z,41068,0.011413574,0.1296997,0.010131836
1735322608793,2024-12-27T18:03:28.793Z,41096,0.010070801,0.12896729,0.011474609
1735322608799,2024-12-27T18:03:28.799Z,41102,0.009765625,0.12823486,0.012512207
1735322608805,2024-12-27T18:03:28.805Z,41108,0.008850098,0.12915039,0.013000488
1735322608811,2024-12-27T18:03:28.811Z,41114,0.0068969727,0.12902832,0.010864258
1735322608841,2024-12-27T18:03:28.841Z,41144,0.010803223,0.12890625,0.009521484
1735322608888,2024-12-27T18:03:28.888Z,41191,0.010803223,0.12927246,0.00970459
1735322608895,2024-12-27T18:03:28.895Z,41198,0.007507324,0.12823486,0.00970459
1735322608932,2024-12-27T18:03:28.932Z,41235,0.008422852,0.12774658,0.0095825195
1735322608940,2024-12-27T18:03:28.940Z,41243,0.012268066,0.12963867,0.010864258
1735322608947,2024-12-27T18:03:28.947Z,41250,0.011657715,0.13189697,0.011413574
1735322608954,2024-12-27T18:03:28.954Z,41257,0.011108398,0.13195801,0.013427734
1735322608962,2024-12-27T18:03:28.962Z,41265,0.010375977,0.13110352,0.013671875
1735322608974,2024-12-27T18:03:28.974Z,41277,0.010192871,0.13049316,0.011474609
1735322609064,2024-12-27T18:03:29.064Z,41367,0.010620117,0.13134766,0.008850098
1735322609071,2024-12-27T18:03:29.071Z,41374,0.009033203,0.13201904,0.008300781
1735322609078,2024-12-27T18:03:29.078Z,41381,0.009155273,0.13189697,0.008850098
1735322609109,2024-12-27T18:03:29.109Z,41412,0.012207031,0.13311768,0.009277344
1735322609116,2024-12-27T18:03:29.116Z,41419,0.011962891,0.13555908,0.010986328
1735322609124,2024-12-27T18:03:29.124Z,41427,0.008605957,0.1362915,0.014892578
1735322609132,2024-12-27T18:03:29.132Z,41435,0.009399414,0.13531494,0.015625
1735322609140,2024-12-27T18:03:29.140Z,41443,0.008972168,0.13452148,0.012023926
1735322609148,2024-12-27T18:03:29.148Z,41451,0.009521484,0.13568115,0.0056762695
1735322609157,2024-12-27T18:03:29.157Z,41460,0.010986328,0.13989258,0.0068969727
1735322609164,2024-12-27T18:03:29.164Z,41467,0.011474609,0.14227295,0.011779785
1735322609170,2024-12-27T18:03:29.170Z,41473,0.010314941,0.14123535,0.010253906
1735322609173,2024-12-27T18:03:29.173Z,41476,0.012329102,0.14379883,0.0099487305
1735322609178,2024-12-27T18:03:29.178Z,41481,0.012756348,0.14587402,0.0115356445
1735322609184,2024-12-27T18:03:29.184Z,41487,0.013916016,0.14611816,0.013549805
1735322609200,2024-12-27T18:03:29.200Z,41503,0.008056641,0.13916016,0.00970459
1735322609205,2024-12-27T18:03:29.205Z,41508,0.006591797,0.14099121,0.0075683594
1735322609212,2024-12-27T18:03:29.212Z,41515,0.009094238,0.14196777,0.009399414
1735322609217,2024-12-27T18:03:29.217Z,41520,0.009460449,0.14178467,0.0119018555
1735322609223,2024-12-27T18:03:29.223Z,41526,0.010131836,0.14361572,0.011047363
1735322609289,2024-12-27T18:03:29.289Z,41592,0.012878418,0.14569092,0.01171875
1735322609295,2024-12-27T18:03:29.295Z,41598,0.013427734,0.14349365,0.013549805
1735322609300,2024-12-27T18:03:29.300Z,41603,0.012634277,0.13897705,0.016540527
1735322609305,2024-12-27T18:03:29.305Z,41608,0.012451172,0.13812256,0.016235352
1735322609310,2024-12-27T18:03:29.310Z,41613,0.010131836,0.1385498,0.009399414
1735322609316,2024-12-27T18:03:29.316Z,41619,0.0072021484,0.13909912,0.0052490234
1735322609431,2024-12-27T18:03:29.431Z,41734,0.008911133,0.14074707,0.007019043
1735322609481,2024-12-27T18:03:29.481Z,41784,0.013000488,0.14251709,0.008850098
1735322609494,2024-12-27T18:03:29.494Z,41797,0.013305664,0.14379883,0.013061523
1735322609508,2024-12-27T18:03:29.508Z,41811,0.010986328,0.13970947,0.016723633
1735322609520,2024-12-27T18:03:29.520Z,41823,0.010253906,0.13470459,0.015808105
1735322609529,2024-12-27T18:03:29.529Z,41832,0.009765625,0.1350708,0.0087890625
1735322609534,2024-12-27T18:03:29.534Z,41837,0.011474609,0.1383667,0.00970459
1735322609658,2024-12-27T18:03:29.658Z,41961,0.00970459,0.13574219,0.011962891
1735322609674,2024-12-27T18:03:29.674Z,41977,0.0075683594,0.13464355,0.013549805
1735322609688,2024-12-27T18:03:29.688Z,41991,0.011291504,0.13793945,0.0154418945
1735322609703,2024-12-27T18:03:29.703Z,42006,0.012268066,0.13964844,0.014587402
1735322609713,2024-12-27T18:03:29.713Z,42016,0.010925293,0.13549805,0.013427734
1735322609717,2024-12-27T18:03:29.717Z,42020,0.00793457,0.1282959,0.017700195
1735322609743,2024-12-27T18:03:29.743Z,42046,0.010986328,0.12286377,0.008728027
1735322609750,2024-12-27T18:03:29.750Z,42053,0.00970459,0.122680664,0.010192871
1735322609757,2024-12-27T18:03:29.757Z,42060,0.010253906,0.12451172,0.012878418
1735322609768,2024-12-27T18:03:29.768Z,42071,0.011352539,0.12683105,0.016723633
1735322609774,2024-12-27T18:03:29.774Z,42077,0.012268066,0.12597656,0.016540527
1735322609782,2024-12-27T18:03:29.782Z,42085,0.010620117,0.12408447,0.013244629
1735322609785,2024-12-27T18:03:29.785Z,42088,0.012390137,0.11932373,0.0138549805
1735322609790,2024-12-27T18:03:29.790Z,42093,0.010131836,0.11401367,0.016784668
1735322609795,2024-12-27T18:03:29.795Z,42098,0.004211426,0.11138916,0.013977051
1735322609799,2024-12-27T18:03:29.799Z,42102,0.0051879883,0.113464355,0.008422852
1735322609804,2024-12-27T18:03:29.804Z,42107,0.011230469,0.11791992,0.008911133
1735322609827,2024-12-27T18:03:29.827Z,42130,0.014221191,0.12054443,0.011413574
1735322609830,2024-12-27T18:03:29.830Z,42133,0.018371582,0.12188721,0.0178833
1735322609835,2024-12-27T18:03:29.835Z,42138,0.0178833,0.117126465,0.020324707
1735322609841,2024-12-27T18:03:29.841Z,42144,0.0099487305,0.11291504,0.018371582
1735322609846,2024-12-27T18:03:29.846Z,42149,0.004272461,0.11206055,0.012756348
1735322609852,2024-12-27T18:03:29.852Z,42155,0.00970459,0.11090088,0.008972168
1735322609873,2024-12-27T18:03:29.873Z,42176,0.013977051,0.11047363,0.0095825195
1735322609880,2024-12-27T18:03:29.880Z,42183,0.014953613,0.11529541,0.0115356445
1735322609886,2024-12-27T18:03:29.886Z,42189,0.015930176,0.12207031,0.012878418
1735322609893,2024-12-27T18:03:29.893Z,42196,0.016174316,0.12438965,0.015014648
1735322609899,2024-12-27T18:03:29.899Z,42202,0.017211914,0.12286377,0.015808105
1735322609904,2024-12-27T18:03:29.904Z,42207,0.017578125,0.11932373,0.016174316
1735322609921,2024-12-27T18:03:29.921Z,42224,0.01574707,0.1116333,0.018676758
1735322609928,2024-12-27T18:03:29.928Z,42231,0.007751465,0.10571289,0.014282227
1735322609934,2024-12-27T18:03:29.934Z,42237,0.0037231445,0.105163574,0.009643555
1735322609940,2024-12-27T18:03:29.940Z,42243,0.011657715,0.10760498,0.01159668
1735322609946,2024-12-27T18:03:29.946Z,42249,0.012207031,0.113708496,0.012023926
1735322609964,2024-12-27T18:03:29.964Z,42267,0.0119018555,0.118774414,0.011291504
1735322609970,2024-12-27T18:03:29.970Z,42273,0.015319824,0.12072754,0.013427734
1735322609976,2024-12-27T18:03:29.976Z,42279,0.019714355,0.11999512,0.01574707
1735322609982,2024-12-27T18:03:29.982Z,42285,0.020690918,0.11907959,0.019104004
1735322609988,2024-12-27T18:03:29.988Z,42291,0.02166748,0.11444092,0.025024414
1735322609994,2024-12-27T18:03:29.994Z,42297,0.01550293,0.10852051,0.028137207
1735322610010,2024-12-27T18:03:30.010Z,42313,0.008300781,0.10559082,0.019836426
1735322610016,2024-12-27T18:03:30.016Z,42319,0.009460449,0.109313965,0.010498047
1735322610021,2024-12-27T18:03:30.021Z,42324,0.01550293,0.11456299,0.0087890625
1735322610027,2024-12-27T18:03:30.027Z,42330,0.015014648,0.11810303,0.009216309
1735322610032,2024-12-27T18:03:30.032Z,42335,0.0134887695,0.12072754,0.009155273
1735322610053,2024-12-27T18:03:30.053Z,42356,0.016418457,0.12164307,0.014343262
1735322610059,2024-12-27T18:03:30.059Z,42362,0.01739502,0.12158203,0.019165039
1735322610065,2024-12-27T18:03:30.065Z,42368,0.015625,0.1182251,0.022705078
1735322610101,2024-12-27T18:03:30.101Z,42404,0.01373291,0.113342285,0.026733398
1735322610107,2024-12-27T18:03:30.107Z,42410,0.010375977,0.11090088,0.024963379
1735322610117,2024-12-27T18:03:30.117Z,42420,0.012329102,0.109375,0.015075684
1735322610132,2024-12-27T18:03:30.132Z,42435,0.015991211,0.113342285,0.012939453
1735322610145,2024-12-27T18:03:30.145Z,42448,0.015380859,0.119384766,0.012756348
1735322610192,2024-12-27T18:03:30.192Z,42495,0.014038086,0.117126465,0.0115356445
1735322610204,2024-12-27T18:03:30.204Z,42507,0.0126953125,0.11407471,0.012145996
1735322610217,2024-12-27T18:03:30.217Z,42520,0.012451172,0.11657715,0.015014648
1735322610229,2024-12-27T18:03:30.229Z,42532,0.01776123,0.11767578,0.020141602
1735322610238,2024-12-27T18:03:30.238Z,42541,0.0211792,0.11627197,0.024169922
1735322610245,2024-12-27T18:03:30.245Z,42548,0.02178955,0.11407471,0.027893066
1735322610284,2024-12-27T18:03:30.284Z,42587,0.01977539,0.11431885,0.026916504
1735322610292,2024-12-27T18:03:30.292Z,42595,0.017211914,0.11669922,0.024536133
1735322610301,2024-12-27T18:03:30.301Z,42604,0.015808105,0.11682129,0.0211792
1735322610308,2024-12-27T18:03:30.308Z,42611,0.012268066,0.11462402,0.016296387
1735322610317,2024-12-27T18:03:30.317Z,42620,0.012084961,0.11437988,0.01373291
1735322610324,2024-12-27T18:03:30.324Z,42627,0.0154418945,0.11730957,0.01373291
1735322610331,2024-12-27T18:03:30.331Z,42634,0.017700195,0.12011719,0.015319824
1735322610337,2024-12-27T18:03:30.337Z,42640,0.019714355,0.1217041,0.020141602
1735322610343,2024-12-27T18:03:30.343Z,42646,0.020751953,0.119628906,0.025817871
1735322610349,2024-12-27T18:03:30.349Z,42652,0.01977539,0.115356445,0.027526855
1735322610354,2024-12-27T18:03:30.354Z,42657,0.018493652,0.115112305,0.024230957
1735322610370,2024-12-27T18:03:30.370Z,42673,0.012023926,0.122802734,0.018188477
1735322610376,2024-12-27T18:03:30.376Z,42679,0.014099121,0.120910645,0.0178833
1735322610383,2024-12-27T18:03:30.383Z,42686,0.016845703,0.118652344,0.018127441
1735322610393,2024-12-27T18:03:30.393Z,42696,0.018920898,0.1182251,0.020324707
1735322610401,2024-12-27T18:03:30.401Z,42704,0.021118164,0.11627197,0.023010254
1735322610413,2024-12-27T18:03:30.413Z,42716,0.025512695,0.115722656,0.024047852
1735322610418,2024-12-27T18:03:30.418Z,42721,0.025146484,0.11987305,0.022766113
1735322610422,2024-12-27T18:03:30.422Z,42725,0.018249512,0.12640381,0.020080566
1735322610427,2024-12-27T18:03:30.427Z,42730,0.012573242,0.12701416,0.018066406
1735322610433,2024-12-27T18:03:30.433Z,42736,0.016418457,0.12005615,0.019348145
1735322610458,2024-12-27T18:03:30.458Z,42761,0.020629883,0.115600586,0.021972656
1735322610464,2024-12-27T18:03:30.464Z,42767,0.017944336,0.11627197,0.020751953
1735322610469,2024-12-27T18:03:30.469Z,42772,0.015808105,0.11651611,0.01751709
1735322610474,2024-12-27T18:03:30.474Z,42777,0.014831543,0.11779785,0.0178833
1735322610480,2024-12-27T18:03:30.480Z,42783,0.016418457,0.12036133,0.018432617
1735322610486,2024-12-27T18:03:30.486Z,42789,0.021484375,0.12188721,0.017700195
1735322610506,2024-12-27T18:03:30.506Z,42809,0.024414062,0.12207031,0.020446777
1735322610512,2024-12-27T18:03:30.512Z,42815,0.023803711,0.11791992,0.025756836
1735322610518,2024-12-27T18:03:30.518Z,42821,0.019165039,0.11279297,0.026123047
1735322610524,2024-12-27T18:03:30.524Z,42827,0.016296387,0.11315918,0.022766113
1735322610530,2024-12-27T18:03:30.530Z,42833,0.021057129,0.119506836,0.020568848
1735322610547,2024-12-27T18:03:30.547Z,42850,0.024169922,0.12286377,0.018249512
1735322610553,2024-12-27T18:03:30.553Z,42856,0.019592285,0.120788574,0.018310547
1735322610558,2024-12-27T18:03:30.558Z,42861,0.018371582,0.12060547,0.019104004
1735322610597,2024-12-27T18:03:30.597Z,42900,0.020141602,0.12036133,0.020935059
1735322610603,2024-12-27T18:03:30.603Z,42906,0.018371582,0.1182251,0.023254395
1735322610609,2024-12-27T18:03:30.609Z,42912,0.018188477,0.117248535,0.023620605
1735322610615,2024-12-27T18:03:30.615Z,42918,0.020935059,0.11932373,0.021850586
1735322610621,2024-12-27T18:03:30.621Z,42924,0.022766113,0.12188721,0.021606445
1735322610637,2024-12-27T18:03:30.637Z,42940,0.024353027,0.12243652,0.023132324
1735322610643,2024-12-27T18:03:30.643Z,42946,0.019714355,0.1237793,0.02319336
1735322610649,2024-12-27T18:03:30.649Z,42952,0.013671875,0.12371826,0.021972656
1735322610654,2024-12-27T18:03:30.654Z,42957,0.018371582,0.121520996,0.024108887
1735322610660,2024-12-27T18:03:30.660Z,42963,0.02331543,0.121032715,0.023498535
1735322610666,2024-12-27T18:03:30.666Z,42969,0.01977539,0.11987305,0.020263672
1735322610685,2024-12-27T18:03:30.685Z,42988,0.017089844,0.11694336,0.020202637
1735322610690,2024-12-27T18:03:30.690Z,42993,0.01928711,0.11584473,0.021728516
1735322610696,2024-12-27T18:03:30.696Z,42999,0.019165039,0.11920166,0.020202637
1735322610701,2024-12-27T18:03:30.701Z,43004,0.020202637,0.12109375,0.021118164
1735322610706,2024-12-27T18:03:30.706Z,43009,0.025146484,0.118774414,0.025146484
1735322610728,2024-12-27T18:03:30.728Z,43031,0.025878906,0.118652344,0.02911377
1735322610734,2024-12-27T18:03:30.734Z,43037,0.022949219,0.11993408,0.032470703
1735322610739,2024-12-27T18:03:30.739Z,43042,0.020935059,0.117492676,0.030517578
1735322610745,2024-12-27T18:03:30.745Z,43048,0.018066406,0.11602783,0.026428223
1735322610773,2024-12-27T18:03:30.773Z,43076,0.014221191,0.11553955,0.021911621
1735322610779,2024-12-27T18:03:30.779Z,43082,0.015380859,0.11645508,0.01928711
1735322610785,2024-12-27T18:03:30.785Z,43088,0.018005371,0.119384766,0.016967773
1735322610790,2024-12-27T18:03:30.790Z,43093,0.022033691,0.12158203,0.021911621
1735322610797,2024-12-27T18:03:30.797Z,43100,0.022827148,0.12042236,0.028686523
1735322610817,2024-12-27T18:03:30.817Z,43120,0.021606445,0.11804199,0.031555176
1735322610823,2024-12-27T18:03:30.823Z,43126,0.021240234,0.11798096,0.03289795
1735322610829,2024-12-27T18:03:30.829Z,43132,0.01977539,0.11682129,0.03100586
1735322610836,2024-12-27T18:03:30.836Z,43139,0.016601562,0.116760254,0.026306152
1735322610863,2024-12-27T18:03:30.863Z,43166,0.01751709,0.11895752,0.02520752
1735322610869,2024-12-27T18:03:30.869Z,43172,0.020568848,0.12023926,0.024047852
1735322610914,2024-12-27T18:03:30.914Z,43217,0.020385742,0.11999512,0.023376465
1735322610922,2024-12-27T18:03:30.922Z,43225,0.01776123,0.11816406,0.024353027
1735322610930,2024-12-27T18:03:30.930Z,43233,0.018249512,0.11798096,0.026733398
1735322610938,2024-12-27T18:03:30.938Z,43241,0.020019531,0.1194458,0.02911377
1735322610946,2024-12-27T18:03:30.946Z,43249,0.01965332,0.121520996,0.029541016
1735322610954,2024-12-27T18:03:30.954Z,43257,0.020446777,0.122558594,0.029174805
1735322610961,2024-12-27T18:03:30.961Z,43264,0.019714355,0.1227417,0.026306152
1735322610968,2024-12-27T18:03:30.968Z,43271,0.016296387,0.12036133,0.022094727
1735322610975,2024-12-27T18:03:30.975Z,43278,0.016784668,0.11853027,0.020202637
1735322610982,2024-12-27T18:03:30.982Z,43285,0.020629883,0.12005615,0.02166748
1735322610988,2024-12-27T18:03:30.988Z,43291,0.02154541,0.12145996,0.026184082
1735322611000,2024-12-27T18:03:31Z,43303,0.021240234,0.120910645,0.02709961
1735322611006,2024-12-27T18:03:31.006Z,43309,0.020751953,0.12005615,0.028015137
1735322611012,2024-12-27T18:03:31.012Z,43315,0.022216797,0.11956787,0.027770996
1735322611017,2024-12-27T18:03:31.017Z,43320,0.021484375,0.11871338,0.02746582
1735322611024,2024-12-27T18:03:31.024Z,43327,0.020263672,0.117492676,0.026855469
1735322611043,2024-12-27T18:03:31.043Z,43346,0.019958496,0.118774414,0.024902344
1735322611049,2024-12-27T18:03:31.049Z,43352,0.020874023,0.12072754,0.023986816
1735322611055,2024-12-27T18:03:31.055Z,43358,0.021850586,0.11932373,0.026062012
1735322611061,2024-12-27T18:03:31.061Z,43364,0.022277832,0.11810303,0.027648926
1735322611087,2024-12-27T18:03:31.087Z,43390,0.022277832,0.11828613,0.028930664
1735322611092,2024-12-27T18:03:31.092Z,43395,0.022644043,0.11907959,0.028503418
1735322611097,2024-12-27T18:03:31.097Z,43400,0.020996094,0.120788574,0.02722168
1735322611103,2024-12-27T18:03:31.103Z,43406,0.01953125,0.12072754,0.026550293
1735322611110,2024-12-27T18:03:31.110Z,43413,0.018981934,0.119628906,0.024963379
1735322611132,2024-12-27T18:03:31.132Z,43435,0.018798828,0.11859131,0.024719238
1735322611138,2024-12-27T18:03:31.138Z,43441,0.01953125,0.117126465,0.02709961
1735322611144,2024-12-27T18:03:31.144Z,43447,0.020446777,0.117492676,0.027404785
1735322611150,2024-12-27T18:03:31.150Z,43453,0.01977539,0.11987305,0.026672363
1735322611177,2024-12-27T18:03:31.177Z,43480,0.020935059,0.11981201,0.027526855
1735322611182,2024-12-27T18:03:31.182Z,43485,0.021606445,0.117126465,0.030212402
1735322611187,2024-12-27T18:03:31.187Z,43490,0.019836426,0.11621094,0.030517578
1735322611191,2024-12-27T18:03:31.191Z,43494,0.018981934,0.1171875,0.02960205
1735322611222,2024-12-27T18:03:31.222Z,43525,0.01928711,0.1194458,0.029785156
1735322611229,2024-12-27T18:03:31.229Z,43532,0.019470215,0.11816406,0.028198242
1735322611236,2024-12-27T18:03:31.236Z,43539,0.019348145,0.11456299,0.026428223
1735322611242,2024-12-27T18:03:31.242Z,43545,0.019042969,0.11431885,0.025634766
1735322611248,2024-12-27T18:03:31.248Z,43551,0.017822266,0.11651611,0.027954102
1735322611269,2024-12-27T18:03:31.269Z,43572,0.020263672,0.11682129,0.02960205
1735322611275,2024-12-27T18:03:31.275Z,43578,0.023132324,0.119506836,0.028442383
1735322611282,2024-12-27T18:03:31.282Z,43585,0.02166748,0.1217041,0.028503418
1735322611288,2024-12-27T18:03:31.288Z,43591,0.020263672,0.11639404,0.028930664
1735322611312,2024-12-27T18:03:31.312Z,43615,0.015808105,0.11395264,0.031188965
1735322611319,2024-12-27T18:03:31.319Z,43622,0.014038086,0.11578369,0.03503418
1735322611326,2024-12-27T18:03:31.326Z,43629,0.016235352,0.115234375,0.03466797
1735322611334,2024-12-27T18:03:31.334Z,43637,0.018127441,0.11450195,0.02911377
1735322611340,2024-12-27T18:03:31.340Z,43643,0.018005371,0.11584473,0.02520752
1735322611405,2024-12-27T18:03:31.405Z,43708,0.017150879,0.11651611,0.019714355
1735322611411,2024-12-27T18:03:31.411Z,43714,0.01977539,0.11773682,0.016357422
1735322611418,2024-12-27T18:03:31.418Z,43721,0.024658203,0.11883545,0.022033691
1735322611424,2024-12-27T18:03:31.424Z,43727,0.026000977,0.117248535,0.030029297
1735322611430,2024-12-27T18:03:31.430Z,43733,0.019042969,0.11541748,0.03363037
1735322611438,2024-12-27T18:03:31.438Z,43741,0.012939453,0.116882324,0.033935547
1735322611452,2024-12-27T18:03:31.452Z,43755,0.017456055,0.11627197,0.032592773
1735322611459,2024-12-27T18:03:31.459Z,43762,0.022888184,0.1161499,0.028686523
1735322611466,2024-12-27T18:03:31.466Z,43769,0.022216797,0.119262695,0.022399902
1735322611473,2024-12-27T18:03:31.473Z,43776,0.020812988,0.12011719,0.02166748
1735322611479,2024-12-27T18:03:31.479Z,43782,0.019592285,0.11907959,0.023864746
1735322611493,2024-12-27T18:03:31.493Z,43796,0.01586914,0.11791992,0.0234375
1735322611500,2024-12-27T18:03:31.500Z,43803,0.018737793,0.11645508,0.023010254
1735322611506,2024-12-27T18:03:31.506Z,43809,0.01965332,0.11541748,0.02368164
1735322611511,2024-12-27T18:03:31.511Z,43814,0.01953125,0.112976074,0.024719238
1735322611517,2024-12-27T18:03:31.517Z,43820,0.017944336,0.11340332,0.022338867
1735322611521,2024-12-27T18:03:31.521Z,43824,0.018676758,0.115112305,0.020996094
1735322611541,2024-12-27T18:03:31.541Z,43844,0.022827148,0.116760254,0.02166748
1735322611547,2024-12-27T18:03:31.547Z,43850,0.021057129,0.11779785,0.0234375
1735322611553,2024-12-27T18:03:31.553Z,43856,0.017822266,0.11834717,0.025390625
1735322611558,2024-12-27T18:03:31.558Z,43861,0.020324707,0.11828613,0.026855469
1735322611564,2024-12-27T18:03:31.564Z,43867,0.02130127,0.11834717,0.024658203
1735322611582,2024-12-27T18:03:31.582Z,43885,0.020507812,0.11779785,0.02355957
1735322611588,2024-12-27T18:03:31.588Z,43891,0.018981934,0.11602783,0.02331543
1735322611593,2024-12-27T18:03:31.593Z,43896,0.01550293,0.11602783,0.022033691
1735322611599,2024-12-27T18:03:31.599Z,43902,0.01171875,0.11730957,0.018676758
1735322611628,2024-12-27T18:03:31.628Z,43931,0.012451172,0.119628906,0.015075684
1735322611635,2024-12-27T18:03:31.635Z,43938,0.015686035,0.12200928,0.013366699
1735322611640,2024-12-27T18:03:31.640Z,43943,0.020629883,0.12286377,0.015197754
1735322611646,2024-12-27T18:03:31.646Z,43949,0.022766113,0.121520996,0.019714355
1735322611652,2024-12-27T18:03:31.652Z,43955,0.022338867,0.11999512,0.023864746
1735322611673,2024-12-27T18:03:31.673Z,43976,0.021362305,0.11871338,0.026000977
1735322611678,2024-12-27T18:03:31.678Z,43981,0.016418457,0.11773682,0.028747559
1735322611684,2024-12-27T18:03:31.684Z,43987,0.011779785,0.11578369,0.024291992
1735322611689,2024-12-27T18:03:31.689Z,43992,0.014404297,0.11584473,0.019104004
1735322611765,2024-12-27T18:03:31.765Z,44068,0.020996094,0.12084961,0.018249512
1735322611778,2024-12-27T18:03:31.778Z,44081,0.020507812,0.12445068,0.016601562
1735322611790,2024-12-27T18:03:31.790Z,44093,0.017028809,0.123535156,0.014038086
1735322611800,2024-12-27T18:03:31.800Z,44103,0.016601562,0.12121582,0.0138549805
1735322611808,2024-12-27T18:03:31.808Z,44111,0.016906738,0.11883545,0.015136719
1735322611817,2024-12-27T18:03:31.817Z,44120,0.019226074,0.11834717,0.019958496
1735322611825,2024-12-27T18:03:31.825Z,44128,0.016357422,0.11968994,0.022094727
1735322611832,2024-12-27T18:03:31.832Z,44135,0.01159668,0.11993408,0.020935059
1735322611839,2024-12-27T18:03:31.839Z,44142,0.012634277,0.12219238,0.01953125
1735322611846,2024-12-27T18:03:31.846Z,44149,0.015319824,0.12451172,0.016418457
1735322611853,2024-12-27T18:03:31.853Z,44156,0.016845703,0.12402344,0.016784668
1735322611859,2024-12-27T18:03:31.859Z,44162,0.017456055,0.123046875,0.019042969
1735322611865,2024-12-27T18:03:31.865Z,44168,0.016784668,0.12133789,0.016296387
1735322611870,2024-12-27T18:03:31.870Z,44173,0.016967773,0.11956787,0.01574707
1735322611875,2024-12-27T18:03:31.875Z,44178,0.016174316,0.119018555,0.017150879
1735322611880,2024-12-27T18:03:31.880Z,44183,0.012512207,0.1194458,0.018005371
1735322611900,2024-12-27T18:03:31.900Z,44203,0.012145996,0.119628906,0.018798828
1735322611906,2024-12-27T18:03:31.906Z,44209,0.013671875,0.12207031,0.018493652
1735322611911,2024-12-27T18:03:31.911Z,44214,0.01586914,0.124572754,0.016601562
1735322611917,2024-12-27T18:03:31.917Z,44220,0.01586914,0.12237549,0.016601562
1735322611922,2024-12-27T18:03:31.922Z,44225,0.012512207,0.119384766,0.017150879
1735322611928,2024-12-27T18:03:31.928Z,44231,0.013366699,0.1182251,0.016784668
1735322611948,2024-12-27T18:03:31.948Z,44251,0.0154418945,0.11981201,0.017822266
1735322611953,2024-12-27T18:03:31.953Z,44256,0.015319824,0.12237549,0.019958496
1735322611958,2024-12-27T18:03:31.958Z,44261,0.014160156,0.12188721,0.017028809
1735322611964,2024-12-27T18:03:31.964Z,44267,0.015014648,0.11883545,0.015136719
1735322611969,2024-12-27T18:03:31.969Z,44272,0.014099121,0.11773682,0.014160156
1735322611987,2024-12-27T18:03:31.987Z,44290,0.012451172,0.11828613,0.013061523
1735322611992,2024-12-27T18:03:31.992Z,44295,0.011291504,0.118652344,0.012329102
1735322611999,2024-12-27T18:03:31.999Z,44302,0.012329102,0.11968994,0.011291504
1735322612005,2024-12-27T18:03:32.005Z,44308,0.014892578,0.11999512,0.013671875
1735322612032,2024-12-27T18:03:32.032Z,44335,0.017578125,0.11999512,0.019592285
1735322612038,2024-12-27T18:03:32.038Z,44341,0.015563965,0.12030029,0.022033691
1735322612043,2024-12-27T18:03:32.043Z,44346,0.013427734,0.121398926,0.02154541
1735322612049,2024-12-27T18:03:32.049Z,44352,0.012207031,0.12084961,0.018859863
1735322612055,2024-12-27T18:03:32.055Z,44358,0.0099487305,0.121398926,0.01361084
1735322612170,2024-12-27T18:03:32.170Z,44473,0.011962891,0.123046875,0.011657715
1735322612220,2024-12-27T18:03:32.220Z,44523,0.014343262,0.12487793,0.011169434
1735322612232,2024-12-27T18:03:32.232Z,44535,0.013000488,0.12402344,0.010131836
1735322612244,2024-12-27T18:03:32.244Z,44547,0.013244629,0.12207031,0.011352539
1735322612253,2024-12-27T18:03:32.253Z,44556,0.014038086,0.123168945,0.01550293
1735322612262,2024-12-27T18:03:32.262Z,44565,0.011779785,0.1239624,0.017028809
1735322612270,2024-12-27T18:03:32.270Z,44573,0.0119018555,0.12359619,0.018310547
1735322612279,2024-12-27T18:03:32.279Z,44582,0.014099121,0.12536621,0.0178833
1735322612286,2024-12-27T18:03:32.286Z,44589,0.013366699,0.12731934,0.016174316
1735322612293,2024-12-27T18:03:32.293Z,44596,0.012939453,0.12561035,0.016662598
1735322612300,2024-12-27T18:03:32.300Z,44603,0.009887695,0.12432861,0.013244629
1735322612306,2024-12-27T18:03:32.306Z,44609,0.0138549805,0.12738037,0.011962891
1735322612312,2024-12-27T18:03:32.312Z,44615,0.012023926,0.124694824,0.012817383
1735322612318,2024-12-27T18:03:32.318Z,44621,0.012023926,0.1274414,0.012573242
1735322612323,2024-12-27T18:03:32.323Z,44626,0.010986328,0.12786865,0.013549805
1735322612328,2024-12-27T18:03:32.328Z,44631,0.01171875,0.12487793,0.015991211
1735322612333,2024-12-27T18:03:32.333Z,44636,0.01184082,0.123535156,0.017028809
1735322612338,2024-12-27T18:03:32.338Z,44641,0.011413574,0.12414551,0.01361084
1735322612357,2024-12-27T18:03:32.357Z,44660,0.010131836,0.12542725,0.009155273
1735322612363,2024-12-27T18:03:32.363Z,44666,0.01171875,0.12487793,0.008483887
1735322612369,2024-12-27T18:03:32.369Z,44672,0.011474609,0.12426758,0.011352539
1735322612374,2024-12-27T18:03:32.374Z,44677,0.010375977,0.12438965,0.013793945
1735322612379,2024-12-27T18:03:32.379Z,44682,0.011230469,0.12347412,0.013793945
1735322612392,2024-12-27T18:03:32.392Z,44695,0.013122559,0.122802734,0.01361084
1735322612483,2024-12-27T18:03:32.483Z,44786,0.011657715,0.12384033,0.01361084
1735322612488,2024-12-27T18:03:32.488Z,44791,0.01171875,0.12451172,0.013122559
1735322612494,2024-12-27T18:03:32.494Z,44797,0.0119018555,0.1251831,0.012573242
1735322612500,2024-12-27T18:03:32.500Z,44803,0.011047363,0.1270752,0.01184082
1735322612505,2024-12-27T18:03:32.505Z,44808,0.0126953125,0.12689209,0.012329102
1735322612511,2024-12-27T18:03:32.511Z,44814,0.011657715,0.1251831,0.013549805
1735322612533,2024-12-27T18:03:32.533Z,44836,0.010559082,0.123046875,0.013061523
1735322612539,2024-12-27T18:03:32.539Z,44842,0.011047363,0.12310791,0.012451172
1735322612546,2024-12-27T18:03:32.546Z,44849,0.011413574,0.12554932,0.0119018555
1735322612553,2024-12-27T18:03:32.553Z,44856,0.010070801,0.12762451,0.01171875
1735322612559,2024-12-27T18:03:32.559Z,44862,0.010986328,0.12841797,0.011657715
1735322612711,2024-12-27T18:03:32.711Z,45014,0.010681152,0.12762451,0.011230469
1735322612715,2024-12-27T18:03:32.715Z,45018,0.010375977,0.12567139,0.014221191
1735322612722,2024-12-27T18:03:32.722Z,45025,0.011047363,0.12475586,0.014221191
1735322612730,2024-12-27T18:03:32.730Z,45033,0.011962891,0.12579346,0.013427734
1735322612737,2024-12-27T18:03:32.737Z,45040,0.012512207,0.12731934,0.012023926
1735322612757,2024-12-27T18:03:32.757Z,45060,0.012329102,0.12817383,0.012268066
1735322612767,2024-12-27T18:03:32.767Z,45070,0.012207031,0.12756348,0.012756348
1735322612775,2024-12-27T18:03:32.775Z,45078,0.010986328,0.12658691,0.011474609
1735322612783,2024-12-27T18:03:32.783Z,45086,0.009460449,0.1251831,0.0107421875
1735322612790,2024-12-27T18:03:32.790Z,45093,0.009460449,0.12426758,0.0115356445
1735322612798,2024-12-27T18:03:32.798Z,45101,0.010253906,0.12445068,0.0119018555
1735322612805,2024-12-27T18:03:32.805Z,45108,0.010070801,0.12609863,0.011657715
1735322612812,2024-12-27T18:03:32.812Z,45115,0.010253906,0.12591553,0.009094238
1735322612819,2024-12-27T18:03:32.819Z,45122,0.010192871,0.12445068,0.009887695
1735322612824,2024-12-27T18:03:32.824Z,45127,0.010070801,0.123168945,0.0107421875
1735322612830,2024-12-27T18:03:32.830Z,45133,0.010437012,0.1251831,0.011413574
1735322612893,2024-12-27T18:03:32.893Z,45196,0.010070801,0.12683105,0.011108398
1735322612900,2024-12-27T18:03:32.900Z,45203,0.009887695,0.12585449,0.011657715
1735322612906,2024-12-27T18:03:32.906Z,45209,0.011047363,0.124694824,0.013427734
1735322612933,2024-12-27T18:03:32.933Z,45236,0.010986328,0.12475586,0.010803223
1735322612940,2024-12-27T18:03:32.940Z,45243,0.010925293,0.1262207,0.011352539
1735322612948,2024-12-27T18:03:32.948Z,45251,0.011474609,0.12652588,0.0138549805
1735322612956,2024-12-27T18:03:32.956Z,45259,0.010925293,0.12664795,0.012207031
1735322612963,2024-12-27T18:03:32.963Z,45266,0.010314941,0.12805176,0.010986328
1735322612971,2024-12-27T18:03:32.971Z,45274,0.011047363,0.12713623,0.010620117
1735322612984,2024-12-27T18:03:32.984Z,45287,0.011169434,0.12640381,0.008361816
1735322612991,2024-12-27T18:03:32.991Z,45294,0.010925293,0.12609863,0.006286621
1735322612997,2024-12-27T18:03:32.997Z,45300,0.010803223,0.12695312,0.012451172
1735322613003,2024-12-27T18:03:33.003Z,45306,0.010620117,0.12585449,0.013244629
1735322613009,2024-12-27T18:03:33.009Z,45312,0.010009766,0.124816895,0.0115356445
1735322613023,2024-12-27T18:03:33.023Z,45326,0.010925293,0.12420654,0.009155273
1735322613029,2024-12-27T18:03:33.029Z,45332,0.011352539,0.12573242,0.007019043
1735322613034,2024-12-27T18:03:33.034Z,45337,0.010925293,0.12628174,0.0078125
1735322613040,2024-12-27T18:03:33.040Z,45343,0.012268066,0.12438965,0.010192871
1735322613046,2024-12-27T18:03:33.046Z,45349,0.0126953125,0.124572754,0.0119018555
1735322613051,2024-12-27T18:03:33.051Z,45354,0.011413574,0.12585449,0.012573242
1735322613071,2024-12-27T18:03:33.071Z,45374,0.011230469,0.12548828,0.0126953125
1735322613076,2024-12-27T18:03:33.076Z,45379,0.010803223,0.12591553,0.012512207
1735322613082,2024-12-27T18:03:33.082Z,45385,0.011047363,0.12640381,0.011352539
1735322613088,2024-12-27T18:03:33.088Z,45391,0.011291504,0.12701416,0.010131836
1735322613096,2024-12-27T18:03:33.096Z,45399,0.012023926,0.12670898,0.010986328
1735322613118,2024-12-27T18:03:33.118Z,45421,0.012023926,0.12512207,0.010620117
1735322613132,2024-12-27T18:03:33.132Z,45435,0.010131836,0.12542725,0.007507324
1735322613143,2024-12-27T18:03:33.143Z,45446,0.011474609,0.12799072,0.008605957
1735322613156,2024-12-27T18:03:33.156Z,45459,0.012207031,0.12890625,0.011169434
1735322613166,2024-12-27T18:03:33.166Z,45469,0.011230469,0.12664795,0.011047363
1735322613173,2024-12-27T18:03:33.173Z,45476,0.010925293,0.12554932,0.011047363
1735322613179,2024-12-27T18:03:33.179Z,45482,0.0099487305,0.12658691,0.0119018555
1735322613186,2024-12-27T18:03:33.186Z,45489,0.010620117,0.12615967,0.010437012
1735322613192,2024-12-27T18:03:33.192Z,45495,0.012023926,0.12805176,0.0115356445
1735322613198,2024-12-27T18:03:33.198Z,45501,0.012145996,0.13049316,0.011962891
1735322613204,2024-12-27T18:03:33.204Z,45507,0.012023926,0.13049316,0.010681152
1735322613211,2024-12-27T18:03:33.211Z,45514,0.0119018555,0.12908936,0.009399414
1735322613216,2024-12-27T18:03:33.216Z,45519,0.011169434,0.12884521,0.009277344
1735322613222,2024-12-27T18:03:33.222Z,45525,0.011962891,0.12823486,0.009887695
1735322613226,2024-12-27T18:03:33.226Z,45529,0.011169434,0.12756348,0.008605957
1735322613231,2024-12-27T18:03:33.231Z,45534,0.010498047,0.12823486,0.009887695
1735322613250,2024-12-27T18:03:33.250Z,45553,0.0107421875,0.12945557,0.010986328
1735322613255,2024-12-27T18:03:33.255Z,45558,0.010192871,0.12963867,0.011108398
1735322613260,2024-12-27T18:03:33.260Z,45563,0.012756348,0.13031006,0.013000488
1735322613265,2024-12-27T18:03:33.265Z,45568,0.012512207,0.13140869,0.013244629
1735322613293,2024-12-27T18:03:33.293Z,45596,0.011108398,0.1305542,0.012512207
1735322613299,2024-12-27T18:03:33.299Z,45602,0.010986328,0.12774658,0.010192871
1735322613305,2024-12-27T18:03:33.305Z,45608,0.009643555,0.12713623,0.008422852
1735322613310,2024-12-27T18:03:33.310Z,45613,0.011474609,0.12780762,0.010437012
1735322613318,2024-12-27T18:03:33.318Z,45621,0.01171875,0.12890625,0.010131836
1735322613337,2024-12-27T18:03:33.337Z,45640,0.009216309,0.12957764,0.010009766
1735322613343,2024-12-27T18:03:33.343Z,45646,0.011169434,0.12890625,0.012207031
1735322613348,2024-12-27T18:03:33.348Z,45651,0.0126953125,0.1274414,0.013000488
1735322613354,2024-12-27T18:03:33.354Z,45657,0.01171875,0.12670898,0.012023926
1735322613386,2024-12-27T18:03:33.386Z,45689,0.009643555,0.12695312,0.010864258
1735322613392,2024-12-27T18:03:33.392Z,45695,0.009887695,0.12792969,0.010253906
1735322613398,2024-12-27T18:03:33.398Z,45701,0.011413574,0.12689209,0.010253906
1735322613405,2024-12-27T18:03:33.405Z,45708,0.012390137,0.12731934,0.010864258
1735322613427,2024-12-27T18:03:33.427Z,45730,0.010925293,0.12860107,0.012207031
1735322613434,2024-12-27T18:03:33.434Z,45737,0.010437012,0.12658691,0.013427734
1735322613440,2024-12-27T18:03:33.440Z,45743,0.010620117,0.12548828,0.013183594
1735322613446,2024-12-27T18:03:33.446Z,45749,0.011291504,0.1274414,0.012268066
1735322613453,2024-12-27T18:03:33.453Z,45756,0.012512207,0.12884521,0.012023926
1735322613471,2024-12-27T18:03:33.471Z,45774,0.010253906,0.1274414,0.011962891
1735322613476,2024-12-27T18:03:33.476Z,45779,0.009887695,0.12585449,0.010009766
1735322613483,2024-12-27T18:03:33.483Z,45786,0.010681152,0.12664795,0.009338379
1735322613489,2024-12-27T18:03:33.489Z,45792,0.008605957,0.12780762,0.009033203
1735322613517,2024-12-27T18:03:33.517Z,45820,0.0107421875,0.1270752,0.008972168
1735322613524,2024-12-27T18:03:33.524Z,45827,0.012329102,0.12695312,0.011169434
1735322613530,2024-12-27T18:03:33.530Z,45833,0.0107421875,0.12561035,0.011962891
1735322613537,2024-12-27T18:03:33.537Z,45840,0.010131836,0.12463379,0.013671875
1735322613543,2024-12-27T18:03:33.543Z,45846,0.011291504,0.12530518,0.014404297
1735322613562,2024-12-27T18:03:33.562Z,45865,0.010375977,0.12646484,0.012512207
1735322613570,2024-12-27T18:03:33.570Z,45873,0.008178711,0.12628174,0.010803223
1735322613575,2024-12-27T18:03:33.575Z,45878,0.008544922,0.12567139,0.009765625
1735322613580,2024-12-27T18:03:33.580Z,45883,0.01184082,0.12561035,0.010498047
1735322613608,2024-12-27T18:03:33.608Z,45911,0.012268066,0.12554932,0.012390137
1735322613613,2024-12-27T18:03:33.613Z,45916,0.011779785,0.12548828,0.013061523
1735322613620,2024-12-27T18:03:33.620Z,45923,0.011657715,0.12579346,0.011047363
1735322613626,2024-12-27T18:03:33.626Z,45929,0.00970459,0.12640381,0.009887695
1735322613632,2024-12-27T18:03:33.632Z,45935,0.008361816,0.12902832,0.010070801
1735322613652,2024-12-27T18:03:33.652Z,45955,0.010864258,0.12988281,0.012084961
1735322613659,2024-12-27T18:03:33.659Z,45962,0.010375977,0.12762451,0.0119018555
1735322613664,2024-12-27T18:03:33.664Z,45967,0.009033203,0.12554932,0.010620117
1735322613670,2024-12-27T18:03:33.670Z,45973,0.008666992,0.12554932,0.0099487305
1735322613698,2024-12-27T18:03:33.698Z,46001,0.009765625,0.12646484,0.009765625
1735322613748,2024-12-27T18:03:33.748Z,46051,0.010437012,0.12792969,0.010009766
1735322613756,2024-12-27T18:03:33.756Z,46059,0.010559082,0.12817383,0.009399414
1735322613763,2024-12-27T18:03:33.763Z,46066,0.011352539,0.12799072,0.01184082
1735322613769,2024-12-27T18:03:33.769Z,46072,0.010070801,0.12731934,0.012268066
1735322613776,2024-12-27T18:03:33.776Z,46079,0.009094238,0.124572754,0.008850098
1735322613788,2024-12-27T18:03:33.788Z,46091,0.0107421875,0.12365723,0.008666992
1735322613795,2024-12-27T18:03:33.795Z,46098,0.009460449,0.12609863,0.008666992
1735322613802,2024-12-27T18:03:33.802Z,46105,0.008544922,0.12652588,0.007507324
1735322613809,2024-12-27T18:03:33.809Z,46112,0.011352539,0.12548828,0.0087890625
1735322613814,2024-12-27T18:03:33.814Z,46117,0.012268066,0.12664795,0.012145996
1735322613821,2024-12-27T18:03:33.821Z,46124,0.011169434,0.12548828,0.01361084
1735322613836,2024-12-27T18:03:33.836Z,46139,0.010498047,0.123413086,0.012451172
1735322613842,2024-12-27T18:03:33.842Z,46145,0.010009766,0.12628174,0.010986328
1735322613847,2024-12-27T18:03:33.847Z,46150,0.012207031,0.12872314,0.011108398
1735322613853,2024-12-27T18:03:33.853Z,46156,0.0119018555,0.1270752,0.009277344
1735322613859,2024-12-27T18:03:33.859Z,46162,0.0095825195,0.12713623,0.007446289
1735322613877,2024-12-27T18:03:33.877Z,46180,0.010375977,0.12866211,0.00793457
1735322613925,2024-12-27T18:03:33.925Z,46228,0.010498047,0.12628174,0.009216309
1735322613931,2024-12-27T18:03:33.931Z,46234,0.0099487305,0.1251831,0.010986328
1735322613938,2024-12-27T18:03:33.938Z,46241,0.010070801,0.12738037,0.009338379
1735322613944,2024-12-27T18:03:33.944Z,46247,0.011413574,0.12854004,0.0079956055
1735322613950,2024-12-27T18:03:33.950Z,46253,0.01159668,0.12896729,0.01159668
1735322613957,2024-12-27T18:03:33.957Z,46260,0.011230469,0.1282959,0.012573242
1735322613972,2024-12-27T18:03:33.972Z,46275,0.010864258,0.12731934,0.0119018555
1735322613977,2024-12-27T18:03:33.977Z,46280,0.010803223,0.12750244,0.010498047
1735322613982,2024-12-27T18:03:33.982Z,46285,0.010437012,0.12805176,0.007446289
1735322613988,2024-12-27T18:03:33.988Z,46291,0.011230469,0.12878418,0.00793457
1735322613993,2024-12-27T18:03:33.993Z,46296,0.011962891,0.1274414,0.009338379
1735322614012,2024-12-27T18:03:34.012Z,46315,0.0107421875,0.12579346,0.008178711
1735322614020,2024-12-27T18:03:34.020Z,46323,0.011047363,0.12652588,0.007507324
1735322614027,2024-12-27T18:03:34.027Z,46330,0.012634277,0.12915039,0.0095825195
1735322614033,2024-12-27T18:03:34.033Z,46336,0.01171875,0.1305542,0.011169434
1735322614042,2024-12-27T18:03:34.042Z,46345,0.010192871,0.12982178,0.010192871
1735322614047,2024-12-27T18:03:34.047Z,46350,0.010314941,0.12860107,0.010803223
1735322614060,2024-12-27T18:03:34.060Z,46363,0.010070801,0.12646484,0.0119018555
1735322614107,2024-12-27T18:03:34.107Z,46410,0.010314941,0.12475586,0.010925293
1735322614113,2024-12-27T18:03:34.113Z,46416,0.011169434,0.12731934,0.009155273
1735322614119,2024-12-27T18:03:34.119Z,46422,0.012023926,0.12921143,0.008422852
1735322614127,2024-12-27T18:03:34.127Z,46430,0.012329102,0.12878418,0.00970459
1735322614133,2024-12-27T18:03:34.133Z,46436,0.01159668,0.1274414,0.011962891
1735322614153,2024-12-27T18:03:34.153Z,46456,0.011291504,0.12731934,0.012573242
1735322614159,2024-12-27T18:03:34.159Z,46462,0.010803223,0.1282959,0.011291504
1735322614165,2024-12-27T18:03:34.165Z,46468,0.011047363,0.12866211,0.009094238
1735322614172,2024-12-27T18:03:34.172Z,46475,0.0099487305,0.12860107,0.005432129
1735322614177,2024-12-27T18:03:34.177Z,46480,0.0107421875,0.12750244,0.006713867
1735322614192,2024-12-27T18:03:34.192Z,46495,0.01184082,0.12756348,0.009643555
1735322614198,2024-12-27T18:03:34.198Z,46501,0.010986328,0.12866211,0.0115356445
1735322614204,2024-12-27T18:03:34.204Z,46507,0.010864258,0.12713623,0.01184082
1735322614209,2024-12-27T18:03:34.209Z,46512,0.010559082,0.12689209,0.012023926
1735322614215,2024-12-27T18:03:34.215Z,46518,0.011047363,0.12854004,0.012084961
1735322614221,2024-12-27T18:03:34.221Z,46524,0.010864258,0.12731934,0.0107421875
1735322614284,2024-12-27T18:03:34.284Z,46587,0.010375977,0.12628174,0.008972168
1735322614291,2024-12-27T18:03:34.291Z,46594,0.010925293,0.12780762,0.008056641
1735322614298,2024-12-27T18:03:34.298Z,46601,0.011413574,0.1270752,0.008300781
1735322614304,2024-12-27T18:03:34.304Z,46607,0.011962891,0.12591553,0.010192871
1735322614309,2024-12-27T18:03:34.309Z,46612,0.01171875,0.12713623,0.012145996
1735322614315,2024-12-27T18:03:34.315Z,46618,0.011779785,0.1270752,0.01361084
1735322614332,2024-12-27T18:03:34.332Z,46635,0.010375977,0.12548828,0.012878418
1735322614339,2024-12-27T18:03:34.339Z,46642,0.010375977,0.12646484,0.009460449
1735322614346,2024-12-27T18:03:34.346Z,46649,0.011291504,0.1282959,0.0076904297
1735322614352,2024-12-27T18:03:34.352Z,46655,0.010437012,0.12823486,0.0072021484
1735322614359,2024-12-27T18:03:34.359Z,46662,0.0095825195,0.12640381,0.0059814453
1735322614465,2024-12-27T18:03:34.465Z,46768,0.010437012,0.12591553,0.008911133
1735322614471,2024-12-27T18:03:34.471Z,46774,0.01159668,0.12664795,0.011169434
1735322614557,2024-12-27T18:03:34.557Z,46860,0.0115356445,0.12634277,0.013122559
1735322614565,2024-12-27T18:03:34.565Z,46868,0.010925293,0.12652588,0.0138549805
1735322614571,2024-12-27T18:03:34.571Z,46874,0.011413574,0.12786865,0.012512207
1735322614578,2024-12-27T18:03:34.578Z,46881,0.012023926,0.12878418,0.010803223
1735322614586,2024-12-27T18:03:34.586Z,46889,0.010437012,0.12750244,0.009216309
1735322614603,2024-12-27T18:03:34.603Z,46906,0.008422852,0.12579346,0.007080078
1735322614610,2024-12-27T18:03:34.610Z,46913,0.0095825195,0.12579346,0.0056152344
1735322614617,2024-12-27T18:03:34.617Z,46920,0.011352539,0.12731934,0.007873535
1735322614624,2024-12-27T18:03:34.624Z,46927,0.011657715,0.1281128,0.011047363
1735322614630,2024-12-27T18:03:34.630Z,46933,0.012573242,0.12805176,0.012756348
1735322614642,2024-12-27T18:03:34.642Z,46945,0.008666992,0.12890625,0.0037841797
1735322614698,2024-12-27T18:03:34.698Z,47001,0.0119018555,0.12945557,0.0044555664
1735322614703,2024-12-27T18:03:34.703Z,47006,0.013366699,0.13287354,0.0015258789
1735322614713,2024-12-27T18:03:34.713Z,47016,0.012573242,0.13946533,0.007873535
1735322614723,2024-12-27T18:03:34.723Z,47026,0.012207031,0.13867188,0.015625
1735322614731,2024-12-27T18:03:34.731Z,47034,0.013061523,0.13415527,0.018615723
1735322614738,2024-12-27T18:03:34.738Z,47041,0.011047363,0.13415527,0.018188477
1735322614742,2024-12-27T18:03:34.742Z,47045,0.009887695,0.1348877,0.014709473
1735322614748,2024-12-27T18:03:34.748Z,47051,0.009643555,0.13415527,0.006652832
1735322614755,2024-12-27T18:03:34.755Z,47058,0.011230469,0.13635254,0.002319336
1735322614762,2024-12-27T18:03:34.762Z,47065,0.014282227,0.140625,0.0053100586
1735322614767,2024-12-27T18:03:34.767Z,47070,0.015563965,0.1427002,0.010681152
1735322614773,2024-12-27T18:03:34.773Z,47076,0.0138549805,0.14154053,0.015686035
1735322614779,2024-12-27T18:03:34.779Z,47082,0.012329102,0.14245605,0.008117676
1735322614785,2024-12-27T18:03:34.785Z,47088,0.012817383,0.1463623,0.0061035156
1735322614874,2024-12-27T18:03:34.874Z,47177,0.011474609,0.14587402,0.006164551
1735322614879,2024-12-27T18:03:34.879Z,47182,0.011352539,0.1428833,0.009887695
1735322614884,2024-12-27T18:03:34.884Z,47187,0.013427734,0.14239502,0.014343262
1735322614889,2024-12-27T18:03:34.889Z,47192,0.01361084,0.14520264,0.016967773
1735322614894,2024-12-27T18:03:34.894Z,47197,0.012390137,0.14508057,0.016784668
1735322614913,2024-12-27T18:03:34.913Z,47216,0.012023926,0.14257812,0.013427734
1735322614920,2024-12-27T18:03:34.920Z,47223,0.010986328,0.14190674,0.010803223
1735322614926,2024-12-27T18:03:34.926Z,47229,0.010986328,0.14251709,0.012390137
1735322614933,2024-12-27T18:03:34.933Z,47236,0.012756348,0.14349365,0.013061523
1735322614943,2024-12-27T18:03:34.943Z,47246,0.013366699,0.14300537,0.009765625
1735322614949,2024-12-27T18:03:34.949Z,47252,0.012878418,0.1427002,0.006713867
1735322614960,2024-12-27T18:03:34.960Z,47263,0.01159668,0.13702393,0.0134887695
1735322614965,2024-12-27T18:03:34.965Z,47268,0.0134887695,0.13964844,0.013183594
1735322614971,2024-12-27T18:03:34.971Z,47274,0.013671875,0.13903809,0.010986328
1735322614977,2024-12-27T18:03:34.977Z,47280,0.013427734,0.14013672,0.011413574
1735322614982,2024-12-27T18:03:34.982Z,47285,0.013244629,0.13928223,0.011169434
1735322615002,2024-12-27T18:03:35.002Z,47305,0.012451172,0.13562012,0.010131836
1735322615007,2024-12-27T18:03:35.007Z,47310,0.012207031,0.1338501,0.009887695
1735322615012,2024-12-27T18:03:35.012Z,47315,0.012268066,0.13378906,0.010620117
1735322615016,2024-12-27T18:03:35.016Z,47319,0.012939453,0.13378906,0.010986328
1735322615022,2024-12-27T18:03:35.022Z,47325,0.01361084,0.13378906,0.010253906
1735322615027,2024-12-27T18:03:35.027Z,47330,0.01373291,0.13421631,0.014709473
1735322615096,2024-12-27T18:03:35.096Z,47399,0.014953613,0.13238525,0.017700195
1735322615101,2024-12-27T18:03:35.101Z,47404,0.013549805,0.13085938,0.013305664
1735322615138,2024-12-27T18:03:35.138Z,47441,0.0138549805,0.13153076,0.012329102
1735322615144,2024-12-27T18:03:35.144Z,47447,0.013366699,0.13134766,0.013427734
1735322615150,2024-12-27T18:03:35.150Z,47453,0.010009766,0.1295166,0.011413574
1735322615157,2024-12-27T18:03:35.157Z,47460,0.012939453,0.1295166,0.006164551
1735322615163,2024-12-27T18:03:35.163Z,47466,0.014770508,0.1315918,0.007019043
1735322615171,2024-12-27T18:03:35.171Z,47474,0.013244629,0.12988281,0.008972168
1735322615189,2024-12-27T18:03:35.189Z,47492,0.013000488,0.12738037,0.009765625
1735322615196,2024-12-27T18:03:35.196Z,47499,0.015014648,0.12805176,0.01159668
1735322615202,2024-12-27T18:03:35.202Z,47505,0.016235352,0.12701416,0.016418457
1735322615209,2024-12-27T18:03:35.209Z,47512,0.013366699,0.12402344,0.016052246
1735322615215,2024-12-27T18:03:35.215Z,47518,0.010375977,0.12188721,0.009216309
1735322615227,2024-12-27T18:03:35.227Z,47530,0.012207031,0.121154785,0.0068969727
