Timestamp (ms),ISO DateTime,Elapsed Time (ms),Acceleration X,Acceleration Y,Acceleration Z
1725817787208,2024-09-08T17:49:47.208Z,80340,0.041931152,1.0043335,-0.0038452148
1725817787250,2024-09-08T17:49:47.250Z,80382,0.035888672,1.0123901,-0.015808105
1725817787294,2024-09-08T17:49:47.294Z,80426,0.04309082,1.0026855,-0.024841309
1725817787339,2024-09-08T17:49:47.339Z,80471,0.03930664,1.0025635,-0.020874023
1725817787384,2024-09-08T17:49:47.384Z,80516,0.032348633,1.0032959,-0.020751953
1725817787429,2024-09-08T17:49:47.429Z,80561,0.03692627,0.98913574,-6.713867E-4
1725817787437,2024-09-08T17:49:47.437Z,80569,0.028320312,1.0010986,-0.014038086
1725817787476,2024-09-08T17:49:47.476Z,80608,0.030883789,1.0167236,0.017822266
1725817787521,2024-09-08T17:49:47.521Z,80653,0.033203125,1.0201416,0.017089844
1725817787569,2024-09-08T17:49:47.569Z,80701,0.02709961,1.0210571,-0.0034179688
1725817787615,2024-09-08T17:49:47.615Z,80747,0.02746582,1.012207,0.011169434
1725817787661,2024-09-08T17:49:47.661Z,80793,0.032470703,1.0039673,-0.00390625
1725817787706,2024-09-08T17:49:47.706Z,80838,0.033691406,1.0036621,-0.0025634766
1725817787750,2024-09-08T17:49:47.750Z,80882,0.032470703,0.9921875,-0.004760742
1725817787796,2024-09-08T17:49:47.796Z,80928,0.035705566,0.993103,-0.0071411133
1725817787840,2024-09-08T17:49:47.840Z,80972,0.033935547,0.98742676,-0.007019043
1725817787860,2024-09-08T17:49:47.860Z,80992,0.034484863,0.9819946,-0.012207031
1725817787886,2024-09-08T17:49:47.886Z,81018,0.0435791,0.97595215,-0.0057373047
1725817787933,2024-09-08T17:49:47.933Z,81065,0.03942871,0.97943115,-0.015686035
1725817787974,2024-09-08T17:49:47.974Z,81106,0.036132812,0.9821167,-0.017822266
1725817788025,2024-09-08T17:49:48.025Z,81157,0.053527832,0.98968506,0.0020751953
1725817788067,2024-09-08T17:49:48.067Z,81199,0.039001465,0.98339844,-0.032409668
1725817788113,2024-09-08T17:49:48.113Z,81245,0.035217285,0.9713135,-0.045715332
1725817788156,2024-09-08T17:49:48.156Z,81288,0.025878906,0.9718628,-0.027160645
1725817788201,2024-09-08T17:49:48.201Z,81333,0.021728516,0.96698,-0.038269043
1725817788246,2024-09-08T17:49:48.246Z,81378,0.03137207,0.9744873,-0.0345459
1725817788268,2024-09-08T17:49:48.268Z,81400,0.03552246,0.9744873,-0.043273926
1725817788289,2024-09-08T17:49:48.289Z,81421,0.016418457,0.9727783,-0.055786133
1725817788333,2024-09-08T17:49:48.333Z,81465,0.027709961,0.9771118,-0.047607422
1725817788382,2024-09-08T17:49:48.382Z,81514,0.023803711,0.98706055,-0.059936523
1725817788428,2024-09-08T17:49:48.428Z,81560,0.019592285,0.99139404,-0.07287598
1725817788470,2024-09-08T17:49:48.470Z,81602,0.026550293,0.986145,-0.064697266
1725817788515,2024-09-08T17:49:48.515Z,81647,0.036499023,0.99053955,-0.062683105
1725817788562,2024-09-08T17:49:48.562Z,81694,0.026245117,0.9932251,-0.06976318
1725817788607,2024-09-08T17:49:48.607Z,81739,0.026794434,0.9973755,-0.061462402
1725817788656,2024-09-08T17:49:48.656Z,81788,0.028564453,0.99676514,-0.06390381
1725817788694,2024-09-08T17:49:48.694Z,81826,0.027832031,1.0142822,-0.078063965
1725817788711,2024-09-08T17:49:48.711Z,81843,0.02722168,1.0215454,-0.06036377
1725817788737,2024-09-08T17:49:48.737Z,81869,0.022460938,1.0280151,-0.07385254
1725817788783,2024-09-08T17:49:48.783Z,81915,0.03137207,1.0279541,-0.073791504
1725817788830,2024-09-08T17:49:48.830Z,81962,0.035217285,1.0189209,-0.06048584
1725817788876,2024-09-08T17:49:48.876Z,82008,0.020141602,1.0130615,-0.073791504
1725817788920,2024-09-08T17:49:48.920Z,82052,0.047790527,1.0010986,-0.063964844
1725817788966,2024-09-08T17:49:48.966Z,82098,0.03778076,0.9837036,-0.076171875
1725817789024,2024-09-08T17:49:49.024Z,82156,0.036376953,0.97406006,-0.09442139
1725817789055,2024-09-08T17:49:49.055Z,82187,0.032714844,0.998291,-0.07556152
1725817789101,2024-09-08T17:49:49.101Z,82233,0.03363037,1.0170288,-0.093566895
1725817789124,2024-09-08T17:49:49.124Z,82256,0.04071045,0.9986572,-0.07312012
1725817789143,2024-09-08T17:49:49.143Z,82275,0.0211792,0.98986816,-0.09051514
1725817789188,2024-09-08T17:49:49.188Z,82320,0.025512695,1.003418,-0.099243164
1725817789235,2024-09-08T17:49:49.235Z,82367,0.023254395,1.0117798,-0.09283447
1725817789281,2024-09-08T17:49:49.281Z,82413,0.029541016,1.012146,-0.089416504
1725817789326,2024-09-08T17:49:49.326Z,82458,0.026794434,1.0043945,-0.0848999
1725817789370,2024-09-08T17:49:49.370Z,82502,0.02911377,1.0021973,-0.09136963
1725817789416,2024-09-08T17:49:49.416Z,82548,0.021057129,0.98846436,-0.098083496
1725817789462,2024-09-08T17:49:49.462Z,82594,0.036376953,0.98358154,-0.09686279
1725817789508,2024-09-08T17:49:49.508Z,82640,0.045715332,0.9904175,-0.09063721
1725817789530,2024-09-08T17:49:49.530Z,82662,0.026245117,0.9816284,-0.10430908
1725817789550,2024-09-08T17:49:49.550Z,82682,0.03466797,0.98327637,-0.12097168
1725817789593,2024-09-08T17:49:49.593Z,82725,0.036376953,1.0005493,-0.10107422
1725817789638,2024-09-08T17:49:49.638Z,82770,0.019165039,0.99316406,-0.093688965
1725817789687,2024-09-08T17:49:49.687Z,82819,0.031555176,0.98950195,-0.11407471
1725817789734,2024-09-08T17:49:49.734Z,82866,0.03741455,0.9993286,-0.10601807
1725817789776,2024-09-08T17:49:49.776Z,82908,0.036499023,1.0238037,-0.08227539
1725817789821,2024-09-08T17:49:49.821Z,82953,0.017578125,1.0497437,-0.11743164
1725817789867,2024-09-08T17:49:49.867Z,82999,0.027404785,1.074707,-0.11102295
1725817789913,2024-09-08T17:49:49.913Z,83045,0.024719238,1.0800781,-0.11871338
1725817789955,2024-09-08T17:49:49.955Z,83087,0.051574707,1.0880127,-0.09893799
1725817789985,2024-09-08T17:49:49.985Z,83117,0.034606934,1.0865479,-0.13110352
1725817790006,2024-09-08T17:49:50.006Z,83138,0.030944824,1.0961304,-0.14343262
1725817790054,2024-09-08T17:49:50.054Z,83186,0.040283203,1.0924683,-0.10211182
1725817790089,2024-09-08T17:49:50.089Z,83221,0.036132812,1.0845947,-0.16503906
1725817790135,2024-09-08T17:49:50.135Z,83267,0.040527344,1.032898,-0.13885498
1725817790182,2024-09-08T17:49:50.182Z,83314,0.030700684,0.9659424,-0.11236572
1725817790224,2024-09-08T17:49:50.224Z,83356,0.029663086,0.9267578,-0.1348877
1725817790268,2024-09-08T17:49:50.268Z,83400,0.034362793,0.9172363,-0.15881348
1725817790361,2024-09-08T17:49:50.361Z,83493,0.037902832,0.92211914,-0.086364746
1725817790381,2024-09-08T17:49:50.381Z,83513,0.055114746,0.98669434,-0.12445068
1725817790402,2024-09-08T17:49:50.402Z,83534,0.039001465,1.003479,-0.12176514
1725817790414,2024-09-08T17:49:50.414Z,83546,0.0068359375,1.0040283,-0.11975098
1725817790495,2024-09-08T17:49:50.495Z,83627,0.02935791,1.0057373,-0.10247803
1725817790516,2024-09-08T17:49:50.516Z,83648,0.04345703,0.99884033,-0.11065674
1725817790538,2024-09-08T17:49:50.538Z,83670,0.023010254,1.0210571,-0.13500977
1725817790585,2024-09-08T17:49:50.585Z,83717,0.018737793,1.0352173,-0.10430908
1725817790630,2024-09-08T17:49:50.630Z,83762,0.024414062,1.055603,-0.10662842
1725817790675,2024-09-08T17:49:50.675Z,83807,0.030395508,1.0539551,-0.1307373
1725817790721,2024-09-08T17:49:50.721Z,83853,0.041748047,1.0232544,-0.09832764
1725817790765,2024-09-08T17:49:50.765Z,83897,0.026367188,1.0229492,-0.1251831
1725817790786,2024-09-08T17:49:50.786Z,83918,0.04260254,1.0178223,-0.10675049
1725817790811,2024-09-08T17:49:50.811Z,83943,0.019592285,0.99902344,-0.10357666
1725817790854,2024-09-08T17:49:50.854Z,83986,0.026367188,1.0043945,-0.11651611
1725817790899,2024-09-08T17:49:50.899Z,84031,0.028625488,1.0229492,-0.121032715
1725817790991,2024-09-08T17:49:50.991Z,84123,0.024108887,1.0492554,-0.12567139
1725817791011,2024-09-08T17:49:51.011Z,84143,0.024780273,1.0753174,-0.1251831
1725817791034,2024-09-08T17:49:51.034Z,84166,0.025512695,1.0856934,-0.13922119
1725817791079,2024-09-08T17:49:51.079Z,84211,0.028930664,1.0726318,-0.12896729
1725817791124,2024-09-08T17:49:51.124Z,84256,0.035095215,1.0453491,-0.11669922
1725817791169,2024-09-08T17:49:51.169Z,84301,0.032348633,1.0181885,-0.121398926
1725817791216,2024-09-08T17:49:51.216Z,84348,0.030822754,0.9916992,-0.12249756
1725817791236,2024-09-08T17:49:51.236Z,84368,0.036865234,0.9790039,-0.11273193
1725817791258,2024-09-08T17:49:51.258Z,84390,0.035461426,0.95532227,-0.10803223
1725817791306,2024-09-08T17:49:51.306Z,84438,0.024902344,0.9449463,-0.11578369
1725817791353,2024-09-08T17:49:51.353Z,84485,0.03338623,0.9633789,-0.12200928
1725817791394,2024-09-08T17:49:51.394Z,84526,0.0345459,1.008667,-0.121276855
1725817791442,2024-09-08T17:49:51.442Z,84574,0.020690918,1.0531616,-0.14379883
1725817791486,2024-09-08T17:49:51.486Z,84618,0.013549805,1.0726929,-0.15270996
1725817791528,2024-09-08T17:49:51.528Z,84660,0.04486084,1.0602417,-0.112976074
1725817791575,2024-09-08T17:49:51.575Z,84707,0.03857422,1.0427246,-0.118774414
1725817791664,2024-09-08T17:49:51.664Z,84796,0.03704834,1.0361938,-0.12438965
1725817791682,2024-09-08T17:49:51.682Z,84814,0.039733887,1.0523682,-0.113342285
1725817791698,2024-09-08T17:49:51.698Z,84830,0.027770996,1.0266113,-0.11431885
1725817791710,2024-09-08T17:49:51.710Z,84842,0.042053223,1.0424805,-0.11236572
1725817791752,2024-09-08T17:49:51.752Z,84884,0.041503906,1.0354004,-0.08648682
1725817791802,2024-09-08T17:49:51.802Z,84934,0.03881836,1.0426025,-0.121154785
1725817791846,2024-09-08T17:49:51.846Z,84978,0.019165039,1.0419312,-0.099731445
1725817791893,2024-09-08T17:49:51.893Z,85025,0.0012207031,1.0334473,-0.11151123
1725817791935,2024-09-08T17:49:51.935Z,85067,0.033813477,1.0310669,-0.099243164
1725817791981,2024-09-08T17:49:51.981Z,85113,0.043395996,1.0386963,-0.08831787
1725817792029,2024-09-08T17:49:52.029Z,85161,0.023803711,1.0117798,-0.08721924
1725817792057,2024-09-08T17:49:52.057Z,85189,0.01550293,0.9962158,-0.10107422
1725817792075,2024-09-08T17:49:52.075Z,85207,0.046325684,0.9637451,-0.074523926
1725817792115,2024-09-08T17:49:52.115Z,85247,0.041259766,0.95098877,-0.087890625
1725817792163,2024-09-08T17:49:52.163Z,85295,0.0423584,0.9586792,-0.07373047
1725817792205,2024-09-08T17:49:52.205Z,85337,0.045776367,0.9866333,-0.08026123
1725817792249,2024-09-08T17:49:52.249Z,85381,0.040222168,1.0176392,-0.09899902
1725817792293,2024-09-08T17:49:52.293Z,85425,0.052856445,1.0623169,-0.08276367
1725817792341,2024-09-08T17:49:52.341Z,85473,0.036621094,1.0587158,-0.06530762
1725817792385,2024-09-08T17:49:52.385Z,85517,0.025939941,1.0332642,-0.09222412
1725817792431,2024-09-08T17:49:52.431Z,85563,0.037841797,0.9963379,-0.07318115
1725817792450,2024-09-08T17:49:52.450Z,85582,0.024536133,0.9884033,-0.083496094
1725817792475,2024-09-08T17:49:52.475Z,85607,0.03967285,0.98217773,-0.049560547
1725817792521,2024-09-08T17:49:52.521Z,85653,0.023132324,0.9790039,-0.08178711
1725817792564,2024-09-08T17:49:52.564Z,85696,0.057495117,0.9694824,-0.03100586
1725817792610,2024-09-08T17:49:52.610Z,85742,0.022827148,0.97198486,-0.060913086
1725817792657,2024-09-08T17:49:52.657Z,85789,0.04840088,0.9654541,-0.02758789
1725817792699,2024-09-08T17:49:52.699Z,85831,0.035705566,0.9668579,-0.026550293
1725817792746,2024-09-08T17:49:52.746Z,85878,0.020507812,0.95654297,-0.028015137
1725817792790,2024-09-08T17:49:52.790Z,85922,0.020080566,0.93530273,-0.028259277
1725817792834,2024-09-08T17:49:52.834Z,85966,0.030029297,0.9390259,-0.020935059
1725817792881,2024-09-08T17:49:52.881Z,86013,0.021118164,0.9205322,0.004638672
1725817792899,2024-09-08T17:49:52.899Z,86031,0.027282715,0.9158325,-0.009460449
1725817792924,2024-09-08T17:49:52.924Z,86056,0.017028809,0.9185791,0.015808105
1725817792970,2024-09-08T17:49:52.970Z,86102,0.0032958984,0.9421387,0.025756836
1725817793016,2024-09-08T17:49:53.016Z,86148,0.0022583008,0.96954346,0.05505371
1725817793063,2024-09-08T17:49:53.063Z,86195,-0.0063476562,1.0248413,0.0037841797
1725817793107,2024-09-08T17:49:53.107Z,86239,0.01586914,1.0341797,0.057006836
1725817793148,2024-09-08T17:49:53.148Z,86280,0.017700195,1.0117188,0.007873535
1725817793195,2024-09-08T17:49:53.195Z,86327,0.0524292,0.9691162,-0.0040893555
1725817793240,2024-09-08T17:49:53.240Z,86372,0.057861328,0.9489746,0.007446289
1725817793286,2024-09-08T17:49:53.286Z,86418,0.03765869,0.99243164,-0.0013427734
1725817793308,2024-09-08T17:49:53.308Z,86440,0.044128418,1.0181885,-0.020812988
1725817793330,2024-09-08T17:49:53.330Z,86462,0.053588867,1.0276489,-0.013244629
1725817793375,2024-09-08T17:49:53.375Z,86507,0.026245117,1.0322266,-0.01928711
1725817793421,2024-09-08T17:49:53.421Z,86553,0.03161621,1.006897,-0.01373291
1725817793465,2024-09-08T17:49:53.465Z,86597,0.01184082,0.99920654,-0.009155273
1725817793511,2024-09-08T17:49:53.511Z,86643,0.020446777,0.9956665,0.026184082
1725817793557,2024-09-08T17:49:53.557Z,86689,0.026977539,1.0081177,0.054016113
1725817793599,2024-09-08T17:49:53.599Z,86731,0.015075684,0.99176025,0.007507324
1725817793646,2024-09-08T17:49:53.646Z,86778,0.029174805,0.99816895,0.011413574
1725817793691,2024-09-08T17:49:53.691Z,86823,0.03479004,0.9976196,0.0026245117
1725817793712,2024-09-08T17:49:53.712Z,86844,0.03491211,1.0003052,6.1035156E-4
1725817793733,2024-09-08T17:49:53.733Z,86865,0.022033691,1.0015869,-0.012207031
1725817793779,2024-09-08T17:49:53.779Z,86911,0.030883789,1.008606,-0.013793945
1725817793825,2024-09-08T17:49:53.825Z,86957,0.03656006,1.0247803,-0.0045776367
1725817793870,2024-09-08T17:49:53.870Z,87002,0.033996582,1.0236816,-0.0064697266
1725817793916,2024-09-08T17:49:53.916Z,87048,0.028442383,1.0142822,-0.0154418945
1725817793960,2024-09-08T17:49:53.960Z,87092,0.03112793,1.0130615,-0.012939453
1725817794011,2024-09-08T17:49:54.011Z,87143,0.041137695,1.0113525,-0.0037231445
1725817794049,2024-09-08T17:49:54.049Z,87181,0.03869629,1.0004883,-0.0025634766
1725817794095,2024-09-08T17:49:54.095Z,87227,0.03967285,1.001648,-0.0056762695
1725817794142,2024-09-08T17:49:54.142Z,87274,0.03753662,0.9957886,-4.272461E-4
1725817794161,2024-09-08T17:49:54.161Z,87293,0.037902832,0.9918213,-0.0016479492
1725817794186,2024-09-08T17:49:54.186Z,87318,0.035461426,0.9887085,-0.0154418945
1725817794229,2024-09-08T17:49:54.229Z,87361,0.033081055,0.97998047,-0.015625
1725817794276,2024-09-08T17:49:54.276Z,87408,0.028137207,0.973999,-0.024719238
1725817794318,2024-09-08T17:49:54.318Z,87450,0.032104492,0.9738159,-0.004699707
1725817794367,2024-09-08T17:49:54.367Z,87499,0.036132812,0.97540283,-0.022338867
1725817794412,2024-09-08T17:49:54.412Z,87544,0.026367188,0.97784424,-0.023803711
1725817794456,2024-09-08T17:49:54.456Z,87588,0.024536133,0.98535156,-0.038635254
1725817794501,2024-09-08T17:49:54.501Z,87633,0.028686523,0.99505615,-0.038269043
1725817794545,2024-09-08T17:49:54.545Z,87677,0.026916504,1.0120239,-0.04248047
1725817794565,2024-09-08T17:49:54.565Z,87697,0.02532959,1.0164185,-0.048095703
1725817794588,2024-09-08T17:49:54.588Z,87720,0.022583008,1.0201416,-0.04534912
1725817794634,2024-09-08T17:49:54.634Z,87766,0.018432617,1.0124512,-0.040100098
1725817794681,2024-09-08T17:49:54.681Z,87813,0.016052246,0.99346924,-0.046936035
1725817794724,2024-09-08T17:49:54.724Z,87856,0.018737793,0.9884033,-0.040161133
1725817794771,2024-09-08T17:49:54.771Z,87903,0.022216797,0.98809814,-0.035217285
1725817794815,2024-09-08T17:49:54.815Z,87947,0.023376465,0.9828491,-0.038330078
1725817794860,2024-09-08T17:49:54.860Z,87992,0.01550293,0.9801636,-0.05303955
1725817794905,2024-09-08T17:49:54.905Z,88037,0.015075684,0.97961426,-0.05456543
1725817794948,2024-09-08T17:49:54.948Z,88080,0.038146973,0.9920654,-0.046447754
1725817794966,2024-09-08T17:49:54.966Z,88098,0.050598145,1.0012207,-0.05340576
1725817794994,2024-09-08T17:49:54.994Z,88126,0.01776123,0.9868164,-0.07165527
1725817795040,2024-09-08T17:49:55.040Z,88172,0.02947998,0.975647,-0.05596924
1725817795084,2024-09-08T17:49:55.084Z,88216,0.02960205,0.96728516,-0.046203613
1725817795129,2024-09-08T17:49:55.129Z,88261,0.030517578,0.96325684,-0.06768799
1725817795173,2024-09-08T17:49:55.173Z,88305,0.021606445,0.96398926,-0.04748535
1725817795220,2024-09-08T17:49:55.220Z,88352,0.0076904297,1.0031128,-0.08312988
1725817795274,2024-09-08T17:49:55.274Z,88406,0.02355957,1.0285645,-0.07183838
1725817795309,2024-09-08T17:49:55.309Z,88441,0.020141602,1.0279541,-0.070129395
1725817795354,2024-09-08T17:49:55.354Z,88486,0.03277588,1.0247803,-0.06964111
1725817795400,2024-09-08T17:49:55.400Z,88532,0.04425049,1.0117188,-0.089538574
1725817795417,2024-09-08T17:49:55.417Z,88549,0.028930664,1.0244141,-0.0803833
1725817795445,2024-09-08T17:49:55.445Z,88577,0.03253174,1.0148926,-0.050354004
1725817795489,2024-09-08T17:49:55.489Z,88621,0.041748047,1.0098877,-0.09442139
1725817795534,2024-09-08T17:49:55.534Z,88666,0.040893555,1.0036011,-0.059570312
1725817795586,2024-09-08T17:49:55.586Z,88718,0.030822754,0.9984131,-0.068725586
1725817795623,2024-09-08T17:49:55.623Z,88755,0.0357666,1.0059204,-0.09277344
1725817795669,2024-09-08T17:49:55.669Z,88801,0.02947998,1.0054321,-0.08642578
1725817795716,2024-09-08T17:49:55.716Z,88848,0.02960205,1.0026245,-0.073913574
1725817795760,2024-09-08T17:49:55.760Z,88892,0.036499023,0.9987793,-0.09088135
1725817795805,2024-09-08T17:49:55.805Z,88937,0.02911377,0.9941406,-0.08148193
1725817795825,2024-09-08T17:49:55.825Z,88957,0.030578613,0.9890747,-0.08544922
1725817795847,2024-09-08T17:49:55.847Z,88979,0.03918457,0.98547363,-0.08654785
1725817795894,2024-09-08T17:49:55.894Z,89026,0.05029297,0.9880371,-0.079711914
1725817795942,2024-09-08T17:49:55.942Z,89074,0.04119873,0.9915161,-0.10235596
1725817795982,2024-09-08T17:49:55.982Z,89114,0.044067383,1.0023804,-0.0892334
1725817796134,2024-09-08T17:49:56.134Z,89266,0.029296875,1.0116577,-0.09857178
1725817796159,2024-09-08T17:49:56.159Z,89291,0.04449463,1.0342407,-0.09753418
1725817796178,2024-09-08T17:49:56.178Z,89310,0.04296875,1.0316772,-0.10394287
1725817796197,2024-09-08T17:49:56.197Z,89329,0.017700195,1.0262451,-0.10443115
1725817796209,2024-09-08T17:49:56.209Z,89341,0.018859863,1.0213013,-0.10510254
1725817796220,2024-09-08T17:49:56.220Z,89352,0.028198242,1.0197144,-0.11633301
1725817796254,2024-09-08T17:49:56.254Z,89386,0.038635254,1.0145264,-0.1159668
1725817796300,2024-09-08T17:49:56.300Z,89432,0.025268555,1.0158691,-0.105285645
1725817796347,2024-09-08T17:49:56.347Z,89479,0.04083252,1.0100098,-0.10345459
1725817796388,2024-09-08T17:49:56.388Z,89520,0.04699707,1.0060425,-0.120666504
1725817796436,2024-09-08T17:49:56.436Z,89568,0.033447266,0.9968262,-0.12145996
1725817796480,2024-09-08T17:49:56.480Z,89612,0.023620605,0.9741821,-0.09442139
1725817796525,2024-09-08T17:49:56.525Z,89657,0.02947998,0.9570923,-0.13537598
1725817796569,2024-09-08T17:49:56.569Z,89701,0.031311035,0.9641113,-0.1361084
1725817796616,2024-09-08T17:49:56.616Z,89748,0.041259766,1.0041504,-0.12390137
1725817796667,2024-09-08T17:49:56.667Z,89799,0.05908203,1.0342407,-0.11413574
1725817796683,2024-09-08T17:49:56.683Z,89815,0.035583496,1.0395508,-0.11383057
1725817796700,2024-09-08T17:49:56.700Z,89832,0.049621582,1.0255127,-0.10974121
1725817796748,2024-09-08T17:49:56.748Z,89880,0.047546387,1.0404663,-0.14898682
1725817796795,2024-09-08T17:49:56.795Z,89927,0.03729248,1.0560913,-0.12835693
1725817796843,2024-09-08T17:49:56.843Z,89975,0.042053223,1.0549927,-0.12023926
1725817796884,2024-09-08T17:49:56.884Z,90016,0.02746582,1.0437012,-0.13739014
1725817796940,2024-09-08T17:49:56.940Z,90072,0.041870117,1.0402222,-0.10479736
1725817796973,2024-09-08T17:49:56.973Z,90105,0.028442383,1.0380859,-0.13098145
1725817797027,2024-09-08T17:49:57.027Z,90159,0.027709961,1.0313721,-0.12548828
1725817797065,2024-09-08T17:49:57.065Z,90197,0.020935059,1.0297852,-0.12359619
1725817797084,2024-09-08T17:49:57.084Z,90216,0.030395508,1.0273438,-0.13397217
1725817797109,2024-09-08T17:49:57.109Z,90241,0.033081055,1.0134888,-0.11566162
1725817797154,2024-09-08T17:49:57.154Z,90286,0.03375244,1.0142822,-0.13330078
1725817797202,2024-09-08T17:49:57.202Z,90334,0.04034424,1.0101318,-0.113098145
1725817797252,2024-09-08T17:49:57.252Z,90384,0.023254395,1.0178833,-0.13586426
1725817797290,2024-09-08T17:49:57.290Z,90422,0.031066895,0.9949951,-0.12536621
1725817797336,2024-09-08T17:49:57.336Z,90468,0.03845215,1.0043335,-0.11975098
1725817797380,2024-09-08T17:49:57.380Z,90512,0.030639648,0.99450684,-0.117614746
1725817797427,2024-09-08T17:49:57.427Z,90559,0.032348633,0.989624,-0.12664795
1725817797471,2024-09-08T17:49:57.471Z,90603,0.033996582,1.000061,-0.1182251
1725817797490,2024-09-08T17:49:57.490Z,90622,0.036254883,1.0199585,-0.12060547
1725817797513,2024-09-08T17:49:57.513Z,90645,0.042236328,1.0335693,-0.12957764
1725817797568,2024-09-08T17:49:57.568Z,90700,0.03668213,1.0441895,-0.12365723
1725817797609,2024-09-08T17:49:57.609Z,90741,0.04119873,1.0567017,-0.12365723
1725817797650,2024-09-08T17:49:57.650Z,90782,0.038391113,1.060791,-0.13311768
1725817797694,2024-09-08T17:49:57.694Z,90826,0.02935791,1.0443726,-0.12634277
1725817797739,2024-09-08T17:49:57.739Z,90871,0.030944824,0.99432373,-0.11053467
1725817797785,2024-09-08T17:49:57.785Z,90917,0.034362793,0.9440918,-0.11065674
1725817797828,2024-09-08T17:49:57.828Z,90960,0.033447266,0.9172363,-0.107543945
1725817797876,2024-09-08T17:49:57.876Z,91008,0.033691406,0.94311523,-0.113586426
1725817797922,2024-09-08T17:49:57.922Z,91054,0.021606445,1.0108643,-0.13220215
1725817797943,2024-09-08T17:49:57.943Z,91075,0.03564453,1.0241089,-0.11987305
1725817797981,2024-09-08T17:49:57.981Z,91113,0.020874023,1.0142822,-0.14147949
1725817798020,2024-09-08T17:49:58.020Z,91152,0.02758789,1.0095825,-0.13208008
1725817798055,2024-09-08T17:49:58.055Z,91187,0.04559326,0.9802246,-0.103393555
1725817798102,2024-09-08T17:49:58.102Z,91234,0.041931152,1.0123291,-0.15460205
1725817798144,2024-09-08T17:49:58.144Z,91276,0.03503418,1.052185,-0.119018555
1725817798235,2024-09-08T17:49:58.235Z,91367,0.02166748,1.0653687,-0.1437378
1725817798254,2024-09-08T17:49:58.254Z,91386,0.035949707,1.0289307,-0.13397217
1725817798278,2024-09-08T17:49:58.278Z,91410,0.036743164,1.0057373,-0.119384766
1725817798326,2024-09-08T17:49:58.326Z,91458,0.02722168,1.0072021,-0.1270752
1725817798344,2024-09-08T17:49:58.344Z,91476,0.03857422,1.0372925,-0.12097168
1725817798368,2024-09-08T17:49:58.368Z,91500,0.037902832,1.0758667,-0.12945557
1725817798413,2024-09-08T17:49:58.413Z,91545,0.034729004,1.0909424,-0.12939453
1725817798459,2024-09-08T17:49:58.459Z,91591,0.041992188,1.076355,-0.109802246
1725817798506,2024-09-08T17:49:58.506Z,91638,0.026428223,1.0598755,-0.13018799
1725817798550,2024-09-08T17:49:58.550Z,91682,0.035888672,1.0354004,-0.09906006
1725817798596,2024-09-08T17:49:58.596Z,91728,0.03778076,1.0238647,-0.10473633
1725817798640,2024-09-08T17:49:58.640Z,91772,0.024230957,1.008606,-0.110961914
1725817798684,2024-09-08T17:49:58.684Z,91816,0.022155762,0.9971924,-0.10046387
1725817798730,2024-09-08T17:49:58.730Z,91862,0.036010742,0.99627686,-0.09509277
1725817798750,2024-09-08T17:49:58.750Z,91882,0.010498047,0.9907837,-0.09564209
1725817798775,2024-09-08T17:49:58.775Z,91907,0.01928711,0.9911499,-0.10961914
1725817798822,2024-09-08T17:49:58.822Z,91954,0.02923584,0.977417,-0.086242676
1725817798867,2024-09-08T17:49:58.867Z,91999,0.030090332,0.986084,-0.11608887
1725817798909,2024-09-08T17:49:58.909Z,92041,0.0211792,1.00354,-0.10406494
1725817798956,2024-09-08T17:49:58.956Z,92088,0.030822754,1.0214233,-0.10021973
1725817798999,2024-09-08T17:49:58.999Z,92131,0.021118164,1.0265503,-0.09875488
1725817799044,2024-09-08T17:49:59.044Z,92176,0.030761719,1.0192261,-0.10418701
1725817799087,2024-09-08T17:49:59.087Z,92219,0.030517578,0.99816895,-0.074645996
1725817799133,2024-09-08T17:49:59.133Z,92265,0.04248047,0.99420166,-0.095214844
1725817799187,2024-09-08T17:49:59.187Z,92319,0.030029297,0.9834595,-0.074645996
1725817799204,2024-09-08T17:49:59.204Z,92336,0.028686523,0.9867554,-0.071899414
1725817799221,2024-09-08T17:49:59.221Z,92353,0.02557373,1.0009766,-0.09063721
1725817799269,2024-09-08T17:49:59.269Z,92401,0.033447266,1.0116577,-0.06298828
1725817799315,2024-09-08T17:49:59.315Z,92447,0.016723633,1.0255737,-0.082092285
1725817799358,2024-09-08T17:49:59.358Z,92490,0.025390625,1.020874,-0.072387695
1725817799404,2024-09-08T17:49:59.404Z,92536,0.039855957,1.0087891,-0.054992676
1725817799448,2024-09-08T17:49:59.448Z,92580,0.028747559,1.0054932,-0.07092285
1725817799495,2024-09-08T17:49:59.495Z,92627,0.043029785,0.9954834,-0.06341553
1725817799539,2024-09-08T17:49:59.539Z,92671,0.036743164,0.9821167,-0.06628418
1725817799586,2024-09-08T17:49:59.586Z,92718,0.05493164,0.98760986,-0.024658203
1725817799604,2024-09-08T17:49:59.604Z,92736,0.042053223,0.9589844,-0.014953613
1725817799627,2024-09-08T17:49:59.627Z,92759,0.033447266,0.94641113,-0.036865234
1725817799673,2024-09-08T17:49:59.673Z,92805,0.023742676,0.9690552,-0.042114258
1725817799719,2024-09-08T17:49:59.719Z,92851,0.01953125,0.9818115,-0.03112793
1725817799765,2024-09-08T17:49:59.765Z,92897,0.03527832,0.9732666,-0.03100586
1725817799810,2024-09-08T17:49:59.810Z,92942,0.032958984,0.97650146,-0.009216309
1725817799861,2024-09-08T17:49:59.861Z,92993,0.05596924,0.9691162,0.013305664
1725817799900,2024-09-08T17:49:59.900Z,93032,0.041870117,0.97473145,-0.005004883
1725817799946,2024-09-08T17:49:59.946Z,93078,0.014160156,0.9508667,-0.0026855469
1725817799992,2024-09-08T17:49:59.992Z,93124,0.007446289,0.9660034,-0.03656006
1725817800015,2024-09-08T17:50:00.015Z,93147,0.016906738,0.9683838,0.0031738281
1725817800036,2024-09-08T17:50:00.036Z,93168,0.0061035156,0.95880127,0.020202637
1725817800077,2024-09-08T17:50:00.077Z,93209,0.0049438477,0.9777832,0.017944336
1725817800123,2024-09-08T17:50:00.123Z,93255,0.046203613,0.9937134,0.05883789
1725817800170,2024-09-08T17:50:00.170Z,93302,0.04095459,1.0216675,0.016601562
1725817800217,2024-09-08T17:50:00.217Z,93349,0.039733887,1.0073242,0.01751709
1725817800262,2024-09-08T17:50:00.262Z,93394,0.017089844,1.020874,-0.01159668
1725817800307,2024-09-08T17:50:00.307Z,93439,0.048828125,0.9816284,-0.011169434
1725817800350,2024-09-08T17:50:00.350Z,93482,0.030090332,0.9541626,0.0079956055
1725817800395,2024-09-08T17:50:00.395Z,93527,0.037353516,0.9673462,-0.015625
1725817800440,2024-09-08T17:50:00.440Z,93572,0.041259766,0.99676514,-0.0028686523
1725817800458,2024-09-08T17:50:00.458Z,93590,0.0335083,1.0219116,-0.0021362305
1725817800484,2024-09-08T17:50:00.484Z,93616,0.029541016,1.0279541,-0.004760742
1725817800530,2024-09-08T17:50:00.530Z,93662,0.03302002,1.0336304,0.012451172
1725817800622,2024-09-08T17:50:00.622Z,93754,0.025634766,0.9898071,0.050720215
1725817800639,2024-09-08T17:50:00.639Z,93771,0.011413574,0.99957275,0.018859863
1725817800666,2024-09-08T17:50:00.666Z,93798,0.03894043,1.008606,0.026672363
1725817800707,2024-09-08T17:50:00.707Z,93839,0.028320312,1.0184326,0.006713867
1725817800754,2024-09-08T17:50:00.754Z,93886,0.040283203,1.001831,0.016540527
1725817800800,2024-09-08T17:50:00.800Z,93932,0.04827881,1.0101318,-0.003479004
1725817800845,2024-09-08T17:50:00.845Z,93977,0.020202637,0.9968872,-9.765625E-4
1725817800864,2024-09-08T17:50:00.864Z,93996,0.03100586,0.98724365,0.005493164
1725817800888,2024-09-08T17:50:00.888Z,94020,0.026123047,0.9916992,0.008056641
1725817800934,2024-09-08T17:50:00.934Z,94066,0.04284668,0.99731445,0.0234375
1725817800981,2024-09-08T17:50:00.981Z,94113,0.02947998,1.0093384,0.005554199
1725817801026,2024-09-08T17:50:01.026Z,94158,0.038635254,1.0002441,0.020019531
1725817801070,2024-09-08T17:50:01.070Z,94202,0.02923584,1.0065918,0.012023926
1725817801115,2024-09-08T17:50:01.115Z,94247,0.04309082,1.0082397,0.0061035156
1725817801158,2024-09-08T17:50:01.158Z,94290,0.0446167,1.0039673,0.010864258
1725817801205,2024-09-08T17:50:01.205Z,94337,0.028259277,0.99346924,0.010437012
1725817801249,2024-09-08T17:50:01.249Z,94381,0.030822754,1.00177,-0.0020141602
1725817801266,2024-09-08T17:50:01.266Z,94398,0.023803711,0.9991455,0.0107421875
1725817801292,2024-09-08T17:50:01.292Z,94424,0.028442383,1.0101318,-0.0154418945
1725817801339,2024-09-08T17:50:01.339Z,94471,0.014099121,0.979126,-0.012512207
1725817801385,2024-09-08T17:50:01.385Z,94517,0.025512695,0.9914551,-0.035461426
1725817801430,2024-09-08T17:50:01.430Z,94562,0.028259277,0.98657227,-0.014099121
1725817801476,2024-09-08T17:50:01.476Z,94608,0.03894043,0.98443604,-0.0036621094
1725817801519,2024-09-08T17:50:01.519Z,94651,0.041015625,1.0108643,-0.021484375
1725817801564,2024-09-08T17:50:01.564Z,94696,0.028076172,0.98028564,0.019470215
1725817801609,2024-09-08T17:50:01.609Z,94741,0.013366699,1.001648,-0.049743652
1725817801655,2024-09-08T17:50:01.655Z,94787,0.021972656,0.9873047,-0.0032348633
1725817801699,2024-09-08T17:50:01.699Z,94831,0.012023926,0.99108887,-0.018188477
1725817801718,2024-09-08T17:50:01.718Z,94850,0.01727295,0.99487305,-0.038208008
1725817801751,2024-09-08T17:50:01.751Z,94883,0.0068359375,0.9973755,-0.013122559
1725817801788,2024-09-08T17:50:01.788Z,94920,0.006286621,1.003418,-0.03930664
1725817801834,2024-09-08T17:50:01.834Z,94966,0.031188965,0.99450684,-0.019958496
1725817801880,2024-09-08T17:50:01.880Z,95012,0.027648926,0.9891968,-0.027954102
1725817801925,2024-09-08T17:50:01.925Z,95057,0.013061523,0.98999023,-0.03778076
1725817801968,2024-09-08T17:50:01.968Z,95100,0.030395508,0.9772339,-0.032714844
1725817802014,2024-09-08T17:50:02.014Z,95146,0.028076172,0.99383545,-0.045898438
1725817802059,2024-09-08T17:50:02.059Z,95191,0.028686523,1.0115356,-0.035339355
1725817802104,2024-09-08T17:50:02.104Z,95236,0.028137207,1.0338745,-0.05303955
1725817802122,2024-09-08T17:50:02.122Z,95254,0.0095825195,1.0275879,-0.056396484
1725817802148,2024-09-08T17:50:02.148Z,95280,0.023071289,1.0238647,-0.041137695
1725817802194,2024-09-08T17:50:02.194Z,95326,0.03375244,1.0108643,-0.04626465
1725817802239,2024-09-08T17:50:02.239Z,95371,0.030578613,1.0023804,-0.047058105
1725817802286,2024-09-08T17:50:02.286Z,95418,0.024169922,1.0059204,-0.047790527
1725817802329,2024-09-08T17:50:02.329Z,95461,0.030334473,0.9959717,-0.041015625
1725817802374,2024-09-08T17:50:02.374Z,95506,0.033691406,1.0037842,-0.049194336
1725817802421,2024-09-08T17:50:02.421Z,95553,0.026000977,0.9995117,-0.04248047
1725817802465,2024-09-08T17:50:02.465Z,95597,0.026550293,0.99993896,-0.059020996
1725817802511,2024-09-08T17:50:02.511Z,95643,0.022460938,0.99346924,-0.07733154
1725817802527,2024-09-08T17:50:02.527Z,95659,0.034362793,0.98742676,-0.052490234
1725817802554,2024-09-08T17:50:02.554Z,95686,0.021057129,0.9973755,-0.06982422
1725817802600,2024-09-08T17:50:02.600Z,95732,0.033325195,0.9873047,-0.064208984
1725817802645,2024-09-08T17:50:02.645Z,95777,0.029724121,1.0027466,-0.07318115
1725817802690,2024-09-08T17:50:02.690Z,95822,0.018310547,0.9904175,-0.071777344
1725817802734,2024-09-08T17:50:02.734Z,95866,0.018127441,0.9743042,-0.05847168
1725817802779,2024-09-08T17:50:02.779Z,95911,0.043273926,0.989563,-0.07043457
1725817802825,2024-09-08T17:50:02.825Z,95957,0.019226074,0.9979248,-0.061950684
1725817802869,2024-09-08T17:50:02.869Z,96001,0.037353516,1.0006714,-0.0836792
1725817802915,2024-09-08T17:50:02.915Z,96047,0.03729248,0.9970093,-0.07659912
1725817802959,2024-09-08T17:50:02.959Z,96091,0.038146973,1.0041504,-0.07672119
1725817802975,2024-09-08T17:50:02.975Z,96107,0.031982422,1.0043945,-0.085510254
1725817803004,2024-09-08T17:50:03.004Z,96136,0.028808594,0.99823,-0.085876465
1725817803049,2024-09-08T17:50:03.049Z,96181,0.018005371,0.9873657,-0.08654785
1725817803095,2024-09-08T17:50:03.095Z,96227,0.026916504,0.9862671,-0.08331299
1725817803139,2024-09-08T17:50:03.139Z,96271,0.036315918,1.0041504,-0.093933105
1725817803183,2024-09-08T17:50:03.183Z,96315,0.022888184,1.0203857,-0.105163574
1725817803229,2024-09-08T17:50:03.229Z,96361,0.03137207,1.0348511,-0.11804199
1725817803273,2024-09-08T17:50:03.273Z,96405,0.027770996,1.0109863,-0.113586426
1725817803320,2024-09-08T17:50:03.320Z,96452,0.04425049,1.00354,-0.123291016
1725817803364,2024-09-08T17:50:03.364Z,96496,0.06738281,1.0047607,-0.07086182
1725817803382,2024-09-08T17:50:03.382Z,96514,0.05218506,0.98236084,-0.0770874
1725817803408,2024-09-08T17:50:03.408Z,96540,0.07446289,0.9890747,-0.09820557
1725817803454,2024-09-08T17:50:03.454Z,96586,0.04699707,0.9926758,-0.11834717
1725817803499,2024-09-08T17:50:03.499Z,96631,0.05987549,0.9859009,-0.10205078
1725817803548,2024-09-08T17:50:03.548Z,96680,0.05206299,1.020874,-0.11065674
1725817803589,2024-09-08T17:50:03.589Z,96721,0.043701172,1.0482178,-0.12738037
1725817803632,2024-09-08T17:50:03.632Z,96764,0.047058105,1.053894,-0.13916016
1725817803728,2024-09-08T17:50:03.728Z,96860,0.050354004,1.019165,-0.12866211
1725817803747,2024-09-08T17:50:03.747Z,96879,0.048828125,0.99279785,-0.13470459
1725817803769,2024-09-08T17:50:03.769Z,96901,0.060058594,0.9819336,-0.13568115
1725817803787,2024-09-08T17:50:03.787Z,96919,0.0869751,0.9848633,-0.11206055
1725817803812,2024-09-08T17:50:03.812Z,96944,0.07373047,0.98657227,-0.08874512
1725817803866,2024-09-08T17:50:03.866Z,96998,0.050354004,1.0046997,-0.15460205
1725817803903,2024-09-08T17:50:03.903Z,97035,0.04711914,1.0204468,-0.11187744
1725817803950,2024-09-08T17:50:03.950Z,97082,0.034301758,1.0449829,-0.12976074
1725817803994,2024-09-08T17:50:03.994Z,97126,0.03149414,1.0514526,-0.14208984
1725817804038,2024-09-08T17:50:04.038Z,97170,0.024780273,1.0626221,-0.1473999
1725817804084,2024-09-08T17:50:04.084Z,97216,0.027526855,1.0491333,-0.12384033
1725817804128,2024-09-08T17:50:04.128Z,97260,0.035827637,1.0317383,-0.12548828
1725817804172,2024-09-08T17:50:04.172Z,97304,0.05029297,1.0087891,-0.13085938
1725817804220,2024-09-08T17:50:04.220Z,97352,0.053710938,0.98431396,-0.09259033
1725817804240,2024-09-08T17:50:04.240Z,97372,0.048950195,0.99645996,-0.14538574
1725817804264,2024-09-08T17:50:04.264Z,97396,0.05328369,0.99121094,-0.10247803
1725817804310,2024-09-08T17:50:04.310Z,97442,0.043823242,0.9963989,-0.13452148
1725817804356,2024-09-08T17:50:04.356Z,97488,0.043518066,0.98498535,-0.12286377
1725817804399,2024-09-08T17:50:04.399Z,97531,0.023864746,0.98553467,-0.11859131
1725817804444,2024-09-08T17:50:04.444Z,97576,0.036193848,1.0109863,-0.14099121
1725817804490,2024-09-08T17:50:04.490Z,97622,0.02935791,0.9920044,-0.12957764
1725817804535,2024-09-08T17:50:04.535Z,97667,0.036376953,1.0068359,-0.13977051
1725817804581,2024-09-08T17:50:04.581Z,97713,0.043518066,1.0029907,-0.13012695
1725817804626,2024-09-08T17:50:04.626Z,97758,0.04724121,1.0263672,-0.1295166
1725817804647,2024-09-08T17:50:04.647Z,97779,0.039367676,1.0249634,-0.13623047
1725817804669,2024-09-08T17:50:04.669Z,97801,0.046325684,1.0067139,-0.11065674
1725817804714,2024-09-08T17:50:04.714Z,97846,0.035583496,1.0054932,-0.12823486
1725817804759,2024-09-08T17:50:04.759Z,97891,0.04119873,1.010437,-0.13043213
1725817804803,2024-09-08T17:50:04.803Z,97935,0.02947998,1.0159912,-0.15307617
1725817804849,2024-09-08T17:50:04.849Z,97981,0.037963867,1.0002441,-0.13104248
1725817804895,2024-09-08T17:50:04.895Z,98027,0.04852295,1.0143433,-0.13995361
1725817804939,2024-09-08T17:50:04.939Z,98071,0.041748047,1.0166626,-0.14245605
1725817805029,2024-09-08T17:50:05.029Z,98161,0.04724121,1.0120239,-0.14105225
1725817805045,2024-09-08T17:50:05.045Z,98177,0.046569824,1.0252686,-0.1329956
1725817805062,2024-09-08T17:50:05.062Z,98194,0.049438477,1.0188599,-0.13208008
1725817805074,2024-09-08T17:50:05.074Z,98206,0.027893066,1.0114136,-0.13464355
1725817805118,2024-09-08T17:50:05.118Z,98250,0.03302002,1.0074463,-0.13220215
1725817805208,2024-09-08T17:50:05.208Z,98340,0.03503418,0.9807129,-0.11645508
1725817805226,2024-09-08T17:50:05.226Z,98358,0.03100586,0.977478,-0.13238525
1725817805253,2024-09-08T17:50:05.253Z,98385,0.046447754,0.9819336,-0.12579346
1725817805300,2024-09-08T17:50:05.300Z,98432,0.03186035,0.99627686,-0.12487793
1725817805346,2024-09-08T17:50:05.346Z,98478,0.042053223,1.0076294,-0.13763428
1725817805389,2024-09-08T17:50:05.389Z,98521,0.05303955,1.0222168,-0.13330078
1725817805435,2024-09-08T17:50:05.435Z,98567,0.023132324,1.0239258,-0.12823486
1725817805478,2024-09-08T17:50:05.478Z,98610,0.041381836,1.0366821,-0.1385498
1725817805496,2024-09-08T17:50:05.496Z,98628,0.030090332,1.0362549,-0.13659668
1725817805522,2024-09-08T17:50:05.522Z,98654,0.034057617,1.029541,-0.124938965
1725817805568,2024-09-08T17:50:05.568Z,98700,0.048034668,1.0266724,-0.1293335
1725817805615,2024-09-08T17:50:05.615Z,98747,0.03137207,1.0084839,-0.13415527
1725817805659,2024-09-08T17:50:05.659Z,98791,0.057800293,0.99401855,-0.119140625
1725817805703,2024-09-08T17:50:05.703Z,98835,0.049987793,1.0072021,-0.1272583
1725817805748,2024-09-08T17:50:05.748Z,98880,0.043151855,1.0076904,-0.13238525
1725817805792,2024-09-08T17:50:05.792Z,98924,0.03894043,0.9822998,-0.12982178
1725817805841,2024-09-08T17:50:05.841Z,98973,0.039367676,0.9845581,-0.12567139
1725817805885,2024-09-08T17:50:05.885Z,99017,0.046081543,1.0050049,-0.12872314
1725817805904,2024-09-08T17:50:05.904Z,99036,0.032287598,1.0059814,-0.12750244
1725817805929,2024-09-08T17:50:05.929Z,99061,0.039733887,1.0095825,-0.12976074
1725817805974,2024-09-08T17:50:05.974Z,99106,0.042907715,0.99780273,-0.109375
1725817806020,2024-09-08T17:50:06.020Z,99152,0.040039062,1.0070801,-0.1395874
1725817806066,2024-09-08T17:50:06.066Z,99198,0.049560547,1.0267334,-0.12585449
1725817806109,2024-09-08T17:50:06.109Z,99241,0.04547119,1.0529785,-0.13214111
1725817806155,2024-09-08T17:50:06.155Z,99287,0.051574707,1.0754395,-0.12762451
1725817806199,2024-09-08T17:50:06.199Z,99331,0.048461914,1.0595703,-0.12896729
1725817806243,2024-09-08T17:50:06.243Z,99375,0.034973145,1.0358887,-0.12988281
1725817806289,2024-09-08T17:50:06.289Z,99421,0.050354004,1.0385132,-0.11694336
1725817806304,2024-09-08T17:50:06.304Z,99436,0.053527832,1.0497437,-0.13336182
1725817806334,2024-09-08T17:50:06.334Z,99466,0.047729492,1.0405884,-0.12097168
1725817806379,2024-09-08T17:50:06.379Z,99511,0.057250977,1.0410767,-0.13574219
1725817806471,2024-09-08T17:50:06.471Z,99603,0.05682373,1.0215454,-0.12750244
1725817806489,2024-09-08T17:50:06.489Z,99621,0.061157227,1.0140991,-0.12963867
1725817806514,2024-09-08T17:50:06.514Z,99646,0.05029297,1.0195312,-0.14709473
1725817806567,2024-09-08T17:50:06.567Z,99699,0.06463623,1.0252075,-0.13153076
1725817806609,2024-09-08T17:50:06.609Z,99741,0.042114258,1.0216064,-0.13623047
1725817806649,2024-09-08T17:50:06.649Z,99781,0.051696777,0.9987793,-0.124816895
1725817806694,2024-09-08T17:50:06.694Z,99826,0.047912598,0.98657227,-0.12817383
1725817806745,2024-09-08T17:50:06.745Z,99877,0.049865723,0.99731445,-0.11932373
1725817806762,2024-09-08T17:50:06.762Z,99894,0.046875,1.007019,-0.115722656
1725817806829,2024-09-08T17:50:06.829Z,99961,0.042053223,1.0043335,-0.12719727
1725817806846,2024-09-08T17:50:06.846Z,99978,0.05291748,0.9923706,-0.1027832
1725817806872,2024-09-08T17:50:06.872Z,100004,0.046447754,0.98461914,-0.123168945
1725817806919,2024-09-08T17:50:06.919Z,100051,0.03527832,0.97454834,-0.12164307
1725817806965,2024-09-08T17:50:06.965Z,100097,0.036071777,0.97753906,-0.10028076
1725817807009,2024-09-08T17:50:07.009Z,100141,0.05419922,0.99798584,-0.12512207
1725817807102,2024-09-08T17:50:07.102Z,100234,0.04559326,1.0140991,-0.1194458
1725817807121,2024-09-08T17:50:07.121Z,100253,0.036865234,1.0160522,-0.09265137
1725817807145,2024-09-08T17:50:07.145Z,100277,0.046569824,0.9986572,-0.10345459
1725817807162,2024-09-08T17:50:07.162Z,100294,0.04284668,0.9733887,-0.10284424
1725817807188,2024-09-08T17:50:07.188Z,100320,0.03894043,0.9729614,-0.08660889
1725817807233,2024-09-08T17:50:07.233Z,100365,0.055358887,0.9859009,-0.08648682
1725817807280,2024-09-08T17:50:07.280Z,100412,0.051696777,1.0053711,-0.10522461
1725817807327,2024-09-08T17:50:07.327Z,100459,0.04058838,1.010315,-0.08312988
1725817807371,2024-09-08T17:50:07.371Z,100503,0.045043945,1.024353,-0.07891846
1725817807417,2024-09-08T17:50:07.417Z,100549,0.048828125,1.0075684,-0.08251953
1725817807463,2024-09-08T17:50:07.463Z,100595,0.04156494,0.9780884,-0.05609131
1725817807506,2024-09-08T17:50:07.506Z,100638,0.036743164,0.9763794,-0.064086914
1725817807550,2024-09-08T17:50:07.550Z,100682,0.034729004,0.9715576,-0.06341553
1725817807565,2024-09-08T17:50:07.565Z,100697,0.03149414,0.9840698,-0.057861328
1725817807603,2024-09-08T17:50:07.603Z,100735,0.045288086,0.987854,-0.054138184
1725817807639,2024-09-08T17:50:07.639Z,100771,0.054626465,0.99572754,-0.051452637
1725817807686,2024-09-08T17:50:07.686Z,100818,0.04901123,1.0101929,-0.054382324
1725817807730,2024-09-08T17:50:07.730Z,100862,0.025268555,0.9928589,-0.047058105
1725817807776,2024-09-08T17:50:07.776Z,100908,0.039978027,0.97906494,-0.056884766
1725817807820,2024-09-08T17:50:07.820Z,100952,0.056030273,0.9672241,-0.03137207
1725817807864,2024-09-08T17:50:07.864Z,100996,0.024719238,0.98065186,-0.03967285
1725817807908,2024-09-08T17:50:07.908Z,101040,0.0126953125,0.99664307,-0.034729004
1725817807954,2024-09-08T17:50:07.954Z,101086,0.02935791,0.99835205,-0.041870117
1725817807998,2024-09-08T17:50:07.998Z,101130,0.028442383,1.0005493,-0.029846191
1725817808012,2024-09-08T17:50:08.012Z,101144,0.037231445,1.0010986,-0.022033691
1725817808051,2024-09-08T17:50:08.051Z,101183,0.02319336,0.9885254,-0.014221191
1725817808090,2024-09-08T17:50:08.090Z,101222,0.032348633,0.9859619,-0.026245117
1725817808136,2024-09-08T17:50:08.136Z,101268,0.029968262,0.9863281,-0.022583008
1725817808180,2024-09-08T17:50:08.180Z,101312,0.026306152,0.9942627,-0.0022583008
1725817808227,2024-09-08T17:50:08.227Z,101359,0.0079956055,0.9830322,0.0032958984
1725817808271,2024-09-08T17:50:08.271Z,101403,0.0026855469,0.9403076,0.021484375
1725817808312,2024-09-08T17:50:08.312Z,101444,0.0026855469,0.94195557,0.0357666
1725817808359,2024-09-08T17:50:08.359Z,101491,-0.0037841797,0.9807739,0.031921387
1725817808406,2024-09-08T17:50:08.406Z,101538,-0.0020751953,1.0267944,6.713867E-4
1725817808425,2024-09-08T17:50:08.425Z,101557,0.020141602,1.0427246,0.010375977
1725817808450,2024-09-08T17:50:08.450Z,101582,0.028564453,1.022644,-0.014831543
1725817808495,2024-09-08T17:50:08.495Z,101627,0.024414062,0.99609375,-0.007751465
1725817808542,2024-09-08T17:50:08.542Z,101674,0.008483887,0.96795654,-0.03253174
1725817808584,2024-09-08T17:50:08.584Z,101716,0.03668213,0.991272,0.01373291
1725817808629,2024-09-08T17:50:08.629Z,101761,0.0021362305,1.0254517,0.04156494
1725817808675,2024-09-08T17:50:08.675Z,101807,0.0072021484,1.0068359,0.026428223
1725817808721,2024-09-08T17:50:08.721Z,101853,-0.0016479492,1.0037842,0.07086182
1725817808766,2024-09-08T17:50:08.766Z,101898,-0.013305664,1.0021973,0.020019531
1725817808812,2024-09-08T17:50:08.812Z,101944,-0.016418457,1.0003662,0.010864258
1725817808828,2024-09-08T17:50:08.828Z,101960,-0.003112793,1.0149536,0.0024414062
1725817808853,2024-09-08T17:50:08.853Z,101985,-0.0065307617,1.0099487,0.019958496
1725817808899,2024-09-08T17:50:08.899Z,102031,0.0064086914,1.0025635,-0.0024414062
1725817808945,2024-09-08T17:50:08.945Z,102077,0.018005371,1.0021973,0.012268066
1725817808989,2024-09-08T17:50:08.989Z,102121,0.019165039,1.0028687,0.022705078
1725817809036,2024-09-08T17:50:09.036Z,102168,0.021362305,1.0100098,0.0071411133
1725817809080,2024-09-08T17:50:09.080Z,102212,0.008178711,1.0164185,0.0071411133
1725817809125,2024-09-08T17:50:09.125Z,102257,0.009887695,1.0306396,0.004333496
1725817809170,2024-09-08T17:50:09.170Z,102302,0.0115356445,1.0289917,0.013366699
1725817809212,2024-09-08T17:50:09.212Z,102344,-0.019836426,1.0089722,-0.0072631836
1725817809259,2024-09-08T17:50:09.259Z,102391,0.0021972656,0.9847412,0.015014648
1725817809274,2024-09-08T17:50:09.274Z,102406,0.01159668,0.9902954,0.025756836
1725817809302,2024-09-08T17:50:09.302Z,102434,-0.0072021484,0.99768066,0.017150879
1725817809352,2024-09-08T17:50:09.352Z,102484,0.012756348,1.008606,0.007385254
1725817809392,2024-09-08T17:50:09.392Z,102524,0.013183594,1.0003662,0.026672363
1725817809437,2024-09-08T17:50:09.437Z,102569,0.006958008,1.0064087,-0.024597168
1725817809484,2024-09-08T17:50:09.484Z,102616,0.018981934,0.9998169,0.010559082
1725817809529,2024-09-08T17:50:09.529Z,102661,0.009521484,1.0108032,-0.014831543
1725817809572,2024-09-08T17:50:09.572Z,102704,0.0095825195,1.00354,-0.012207031
1725817809618,2024-09-08T17:50:09.618Z,102750,0.0059814453,1.001648,-0.009277344
1725817809666,2024-09-08T17:50:09.666Z,102798,0.0022583008,0.9904785,-0.0013427734
1725817809685,2024-09-08T17:50:09.685Z,102817,-0.007385254,0.9980469,-0.009338379
1725817809709,2024-09-08T17:50:09.709Z,102841,-0.0064697266,0.99658203,-0.010070801
1725817809754,2024-09-08T17:50:09.754Z,102886,-0.004211426,0.99871826,-0.022827148
1725817809799,2024-09-08T17:50:09.799Z,102931,0.00390625,0.9916382,0.0028686523
1725817809844,2024-09-08T17:50:09.844Z,102976,0.008483887,0.9992676,-0.009033203
1725817809890,2024-09-08T17:50:09.890Z,103022,0.016967773,0.9890747,0.005493164
1725817809934,2024-09-08T17:50:09.934Z,103066,0.018066406,1.0036621,0.007446289
1725817809979,2024-09-08T17:50:09.979Z,103111,0.002380371,0.9907837,-7.9345703E-4
1725817810025,2024-09-08T17:50:10.025Z,103157,0.0018310547,0.9989624,-0.0569458
1725817810068,2024-09-08T17:50:10.068Z,103200,0.0075683594,1.003479,-0.043029785
1725817810082,2024-09-08T17:50:10.082Z,103214,-0.0037841797,1.0108643,-0.0178833
1725817810113,2024-09-08T17:50:10.113Z,103245,0.023986816,1.0130615,-0.041748047
1725817810159,2024-09-08T17:50:10.159Z,103291,0.00970459,1.0047607,-0.044128418
1725817810204,2024-09-08T17:50:10.204Z,103336,0.014160156,1.0102539,-0.03149414
1725817810257,2024-09-08T17:50:10.257Z,103389,0.0015869141,1.0133667,-0.04345703
1725817810294,2024-09-08T17:50:10.294Z,103426,0.008361816,1.0046387,-0.04852295
1725817810340,2024-09-08T17:50:10.340Z,103472,0.0075683594,1.0012817,-0.031188965
1725817810383,2024-09-08T17:50:10.383Z,103515,0.006591797,0.99560547,-0.049438477
1725817810429,2024-09-08T17:50:10.429Z,103561,-0.0021972656,0.97283936,-0.03704834
1725817810477,2024-09-08T17:50:10.477Z,103609,0.023803711,0.99468994,-0.028503418
1725817810518,2024-09-08T17:50:10.518Z,103650,0.0335083,1.0117188,-0.025024414
1725817810535,2024-09-08T17:50:10.535Z,103667,0.012268066,0.9977417,-0.046020508
1725817810576,2024-09-08T17:50:10.576Z,103708,-0.005126953,0.9906006,-0.072631836
1725817810610,2024-09-08T17:50:10.610Z,103742,-0.0032958984,1.0023804,-0.06628418
1725817810654,2024-09-08T17:50:10.654Z,103786,0.016540527,1.0094604,-0.0635376
1725817810699,2024-09-08T17:50:10.699Z,103831,0.019592285,1.0126953,-0.073791504
1725817810747,2024-09-08T17:50:10.747Z,103879,0.013671875,1.0023804,-0.05682373
1725817810790,2024-09-08T17:50:10.790Z,103922,0.030639648,0.9996948,-0.07733154
1725817810835,2024-09-08T17:50:10.835Z,103967,0.021484375,0.98931885,-0.05029297
1725817810880,2024-09-08T17:50:10.880Z,104012,0.022888184,0.98443604,-0.07446289
1725817810934,2024-09-08T17:50:10.934Z,104066,0.029052734,0.97442627,-0.056762695
1725817810951,2024-09-08T17:50:10.951Z,104083,0.012634277,0.9812012,-0.06677246
1725817810968,2024-09-08T17:50:10.968Z,104100,0.024353027,0.98760986,-0.027648926
1725817811025,2024-09-08T17:50:11.025Z,104157,5.493164E-4,1.0647583,-0.17687988
1725817811058,2024-09-08T17:50:11.058Z,104190,0.045715332,1.0031128,-0.07183838
1725817811105,2024-09-08T17:50:11.105Z,104237,0.00982666,1.0,-0.10083008
1725817811150,2024-09-08T17:50:11.150Z,104282,0.021484375,0.99554443,-0.09887695
1725817811196,2024-09-08T17:50:11.196Z,104328,0.033813477,1.0023193,-0.10876465
1725817811238,2024-09-08T17:50:11.238Z,104370,0.028808594,1.008667,-0.09869385
1725817811284,2024-09-08T17:50:11.284Z,104416,0.016235352,0.98883057,-0.06713867
1725817811374,2024-09-08T17:50:11.374Z,104506,0.015197754,0.98205566,-0.09338379
1725817811391,2024-09-08T17:50:11.391Z,104523,0.019592285,0.9691162,-0.07330322
1725817811427,2024-09-08T17:50:11.427Z,104559,-0.001159668,0.9937134,-0.09112549
1725817811445,2024-09-08T17:50:11.445Z,104577,0.030395508,0.98913574,-0.093566895
1725817811463,2024-09-08T17:50:11.463Z,104595,-0.008117676,0.9859009,-0.13323975
1725817811512,2024-09-08T17:50:11.512Z,104644,0.028686523,0.98480225,-0.0947876
1725817811554,2024-09-08T17:50:11.554Z,104686,0.016601562,1.005249,-0.13110352
1725817811599,2024-09-08T17:50:11.599Z,104731,0.05029297,1.020874,-0.0970459
1725817811644,2024-09-08T17:50:11.644Z,104776,0.033569336,1.0374146,-0.13140869
1725817811688,2024-09-08T17:50:11.688Z,104820,0.02722168,1.0257568,-0.111206055
1725817811733,2024-09-08T17:50:11.733Z,104865,0.008178711,1.0246582,-0.15637207
1725817811779,2024-09-08T17:50:11.779Z,104911,0.018981934,1.0064697,-0.09222412
1725817811797,2024-09-08T17:50:11.797Z,104929,0.016540527,1.0101929,-0.12884521
1725817811825,2024-09-08T17:50:11.825Z,104957,0.037231445,1.0046387,-0.11114502
1725817811868,2024-09-08T17:50:11.868Z,105000,0.01574707,0.99005127,-0.14337158
1725817811915,2024-09-08T17:50:11.915Z,105047,0.040649414,0.99902344,-0.1296997
1725817811959,2024-09-08T17:50:11.959Z,105091,0.060546875,0.9908447,-0.10845947
1725817812005,2024-09-08T17:50:12.005Z,105137,0.019836426,0.97558594,-0.15203857
1725817812096,2024-09-08T17:50:12.096Z,105228,0.056030273,0.9958496,-0.15637207
1725817812114,2024-09-08T17:50:12.114Z,105246,0.039611816,1.0026855,-0.14093018
1725817812139,2024-09-08T17:50:12.139Z,105271,0.030273438,1.0009155,-0.16918945
1725817812184,2024-09-08T17:50:12.184Z,105316,0.033447266,0.99316406,-0.140625
1725817812200,2024-09-08T17:50:12.200Z,105332,0.02355957,0.98083496,-0.11242676
1725817812227,2024-09-08T17:50:12.227Z,105359,0.059326172,1.0216064,-0.17156982
1725817812318,2024-09-08T17:50:12.318Z,105450,0.019226074,1.0187988,-0.15716553
1725817812337,2024-09-08T17:50:12.337Z,105469,0.030151367,1.0402222,-0.16186523
1725817812366,2024-09-08T17:50:12.366Z,105498,0.05609131,1.0228882,-0.12890625
1725817812411,2024-09-08T17:50:12.411Z,105543,0.035888672,1.0209961,-0.14428711
1725817812454,2024-09-08T17:50:12.454Z,105586,0.034851074,1.0247192,-0.16003418
1725817812501,2024-09-08T17:50:12.501Z,105633,0.025817871,1.017395,-0.14593506
1725817812544,2024-09-08T17:50:12.544Z,105676,0.037231445,1.0150146,-0.15106201
1725817812592,2024-09-08T17:50:12.592Z,105724,0.021484375,1.0068359,-0.13049316
1725817812609,2024-09-08T17:50:12.609Z,105741,0.016723633,1.0055542,-0.15875244
1725817812634,2024-09-08T17:50:12.634Z,105766,0.027648926,1.0114136,-0.14135742
1725817812678,2024-09-08T17:50:12.678Z,105810,0.024475098,1.0170288,-0.15100098
1725817812723,2024-09-08T17:50:12.723Z,105855,0.046691895,1.0604248,-0.15045166
1725817812770,2024-09-08T17:50:12.770Z,105902,0.033325195,1.0574341,-0.1482544
1725817812814,2024-09-08T17:50:12.814Z,105946,0.017578125,1.0678711,-0.17102051
1725817812857,2024-09-08T17:50:12.857Z,105989,0.03778076,1.0600586,-0.14233398
1725817812948,2024-09-08T17:50:12.948Z,106080,0.038024902,1.0441895,-0.16333008
1725817812963,2024-09-08T17:50:12.963Z,106095,0.035583496,1.0114746,-0.1359253
1725817812992,2024-09-08T17:50:12.992Z,106124,0.020751953,1.0112915,-0.14764404
1725817813038,2024-09-08T17:50:13.038Z,106170,0.037841797,0.97839355,-0.13500977
1725817813054,2024-09-08T17:50:13.054Z,106186,0.04425049,0.9678345,-0.1418457
1725817813093,2024-09-08T17:50:13.093Z,106225,0.037597656,0.97216797,-0.12506104
1725817813129,2024-09-08T17:50:13.129Z,106261,0.033813477,0.9836426,-0.14538574
1725817813218,2024-09-08T17:50:13.218Z,106350,0.040649414,0.9829712,-0.12658691
1725817813232,2024-09-08T17:50:13.232Z,106364,0.033569336,0.9944458,-0.13684082
1725817813262,2024-09-08T17:50:13.262Z,106394,0.037963867,0.9958496,-0.13745117
1725817813310,2024-09-08T17:50:13.310Z,106442,0.032287598,1.0014038,-0.13879395
1725817813355,2024-09-08T17:50:13.355Z,106487,0.03894043,1.0053711,-0.14202881
1725817813400,2024-09-08T17:50:13.400Z,106532,0.034973145,1.0039062,-0.13824463
1725817813445,2024-09-08T17:50:13.445Z,106577,0.043151855,1.0233765,-0.14422607
1725817813459,2024-09-08T17:50:13.459Z,106591,0.03186035,1.022583,-0.14898682
1725817813487,2024-09-08T17:50:13.487Z,106619,0.03277588,1.0134888,-0.14593506
1725817813533,2024-09-08T17:50:13.533Z,106665,0.039123535,1.012207,-0.15032959
1725817813578,2024-09-08T17:50:13.578Z,106710,0.030700684,1.006897,-0.15002441
1725817813629,2024-09-08T17:50:13.629Z,106761,0.040771484,1.0001831,-0.1348877
1725817813669,2024-09-08T17:50:13.669Z,106801,0.02520752,0.99468994,-0.13476562
1725817813716,2024-09-08T17:50:13.716Z,106848,0.015930176,1.017395,-0.17095947
1725817813757,2024-09-08T17:50:13.757Z,106889,0.047668457,1.0049438,-0.12817383
1725817813803,2024-09-08T17:50:13.803Z,106935,0.027648926,1.0114136,-0.1494751
1725817813848,2024-09-08T17:50:13.848Z,106980,0.031433105,1.0177612,-0.171875
1725817813862,2024-09-08T17:50:13.862Z,106994,0.025878906,1.0256958,-0.14978027
1725817813892,2024-09-08T17:50:13.892Z,107024,0.037109375,1.036438,-0.18359375
1725817813938,2024-09-08T17:50:13.938Z,107070,0.041137695,1.0224609,-0.137146
1725817813983,2024-09-08T17:50:13.983Z,107115,0.022460938,1.0231934,-0.17944336
1725817814028,2024-09-08T17:50:14.028Z,107160,0.018859863,1.0187378,-0.16400146
1725817814074,2024-09-08T17:50:14.074Z,107206,0.043395996,1.0109863,-0.14709473
1725817814122,2024-09-08T17:50:14.122Z,107254,0.028198242,1.0144043,-0.16888428
1725817814163,2024-09-08T17:50:14.163Z,107295,0.034484863,1.017273,-0.1486206
1725817814208,2024-09-08T17:50:14.208Z,107340,0.04296875,1.0384521,-0.1538086
1725817814253,2024-09-08T17:50:14.253Z,107385,0.064819336,1.0282593,-0.1359253
1725817814299,2024-09-08T17:50:14.299Z,107431,0.047607422,1.0145264,-0.14727783
1725817814314,2024-09-08T17:50:14.314Z,107446,0.059509277,1.0172119,-0.15161133
1725817814351,2024-09-08T17:50:14.351Z,107483,0.048461914,0.9837036,-0.15289307
1725817814387,2024-09-08T17:50:14.387Z,107519,0.049926758,0.96661377,-0.1541748
1725817814433,2024-09-08T17:50:14.433Z,107565,0.04284668,0.986145,-0.18054199
1725817814477,2024-09-08T17:50:14.477Z,107609,0.040527344,0.99017334,-0.15856934
1725817814522,2024-09-08T17:50:14.522Z,107654,0.058898926,1.0158691,-0.1595459
1725817814567,2024-09-08T17:50:14.567Z,107699,0.047973633,1.006958,-0.15985107
1725817814612,2024-09-08T17:50:14.612Z,107744,0.040771484,1.0158081,-0.17449951
1725817814658,2024-09-08T17:50:14.658Z,107790,0.049438477,1.0079956,-0.15039062
1725817814704,2024-09-08T17:50:14.704Z,107836,0.0390625,0.99224854,-0.16204834
1725817814719,2024-09-08T17:50:14.719Z,107851,0.04626465,0.970459,-0.13830566
1725817814748,2024-09-08T17:50:14.748Z,107880,0.06317139,0.9970093,-0.1574707
1725817814793,2024-09-08T17:50:14.793Z,107925,0.031982422,0.9970093,-0.14056396
1725817814839,2024-09-08T17:50:14.839Z,107971,0.043945312,1.0170288,-0.15960693
1725817814886,2024-09-08T17:50:14.886Z,108018,0.047424316,1.0113525,-0.15264893
1725817814932,2024-09-08T17:50:14.932Z,108064,0.041748047,1.0280762,-0.13769531
1725817814975,2024-09-08T17:50:14.975Z,108107,0.02508545,1.0314941,-0.16033936
1725817815064,2024-09-08T17:50:15.064Z,108196,0.037841797,1.013977,-0.14605713
1725817815081,2024-09-08T17:50:15.081Z,108213,0.02911377,0.99957275,-0.15979004
1725817815107,2024-09-08T17:50:15.107Z,108239,0.037353516,0.98620605,-0.13916016
1725817815121,2024-09-08T17:50:15.121Z,108253,0.039733887,0.99816895,-0.15447998
1725817815154,2024-09-08T17:50:15.154Z,108286,0.028442383,0.9899292,-0.15612793
1725817815199,2024-09-08T17:50:15.199Z,108331,0.04650879,0.99823,-0.1593628
1725817815243,2024-09-08T17:50:15.243Z,108375,0.05279541,1.0100098,-0.13830566
1725817815290,2024-09-08T17:50:15.290Z,108422,0.034851074,1.012085,-0.16668701
1725817815335,2024-09-08T17:50:15.335Z,108467,0.045288086,0.99121094,-0.16174316
1725817815377,2024-09-08T17:50:15.377Z,108509,0.037597656,0.9962158,-0.16046143
1725817815430,2024-09-08T17:50:15.430Z,108562,0.046813965,0.9884033,-0.13995361
1725817815469,2024-09-08T17:50:15.469Z,108601,0.04473877,0.9942627,-0.14404297
1725817815514,2024-09-08T17:50:15.514Z,108646,0.045532227,1.0119629,-0.15533447
1725817815531,2024-09-08T17:50:15.531Z,108663,0.05218506,1.0465088,-0.1340332
1725817815566,2024-09-08T17:50:15.566Z,108698,0.022155762,1.0080566,-0.13012695
1725817815604,2024-09-08T17:50:15.604Z,108736,0.050231934,0.99664307,-0.14556885
1725817815651,2024-09-08T17:50:15.651Z,108783,0.06085205,0.9794922,-0.09307861
1725817815696,2024-09-08T17:50:15.696Z,108828,0.03540039,0.98883057,-0.13452148
1725817815743,2024-09-08T17:50:15.743Z,108875,0.04876709,0.98779297,-0.1138916
1725817815786,2024-09-08T17:50:15.786Z,108918,0.03668213,0.9938965,-0.122802734
1725817815831,2024-09-08T17:50:15.831Z,108963,0.0345459,1.0136719,-0.13464355
1725817815874,2024-09-08T17:50:15.874Z,109006,0.042114258,1.0320435,-0.10217285
1725817815928,2024-09-08T17:50:15.928Z,109060,0.023925781,1.036499,-0.15496826
1725817815966,2024-09-08T17:50:15.966Z,109098,0.031677246,1.0224609,-0.1262207
1725817815986,2024-09-08T17:50:15.986Z,109118,0.023132324,1.0151367,-0.11895752
1725817816007,2024-09-08T17:50:16.007Z,109139,0.0546875,1.001648,-0.09613037
1725817816053,2024-09-08T17:50:16.053Z,109185,0.020080566,0.99383545,-0.10418701
1725817816099,2024-09-08T17:50:16.099Z,109231,0.008911133,0.9674072,-0.09161377
1725817816145,2024-09-08T17:50:16.145Z,109277,0.053344727,0.98065186,-0.080200195
1725817816190,2024-09-08T17:50:16.190Z,109322,0.043029785,0.9718628,-0.07110596
1725817816235,2024-09-08T17:50:16.235Z,109367,0.011108398,0.98046875,-0.109680176
1725817816279,2024-09-08T17:50:16.279Z,109411,0.03778076,0.98791504,-0.04736328
1725817816325,2024-09-08T17:50:16.325Z,109457,0.042175293,1.0119019,-0.08343506
1725817816377,2024-09-08T17:50:16.377Z,109509,0.036376953,0.98913574,-0.06921387
1725817816392,2024-09-08T17:50:16.392Z,109524,0.016174316,0.9879761,-0.06323242
1725817816411,2024-09-08T17:50:16.411Z,109543,0.026611328,0.98443604,-0.0690918
1725817816458,2024-09-08T17:50:16.458Z,109590,0.022827148,0.9927368,-0.046936035
1725817816504,2024-09-08T17:50:16.504Z,109636,0.015319824,0.9981079,-0.076293945
1725817816549,2024-09-08T17:50:16.549Z,109681,0.026367188,0.9760132,-0.024047852
1725817816594,2024-09-08T17:50:16.594Z,109726,0.041381836,0.97753906,-0.027709961
1725817816641,2024-09-08T17:50:16.641Z,109773,0.027648926,0.9784546,-0.014221191
1725817816684,2024-09-08T17:50:16.684Z,109816,0.0095825195,0.9743042,-0.008972168
1725817816728,2024-09-08T17:50:16.728Z,109860,0.023742676,0.9602051,0.00390625
1725817816776,2024-09-08T17:50:16.776Z,109908,-6.1035156E-5,0.9772949,-0.0068359375
1725817816792,2024-09-08T17:50:16.792Z,109924,0.009399414,0.97442627,0.012939453
1725817816817,2024-09-08T17:50:16.817Z,109949,0.0029907227,0.9841919,-0.0059814453
1725817816866,2024-09-08T17:50:16.866Z,109998,0.013122559,0.9829712,-0.0045776367
1725817816910,2024-09-08T17:50:16.910Z,110042,-0.0060424805,1.0,-0.0016479492
1725817816959,2024-09-08T17:50:16.959Z,110091,0.009887695,1.013855,0.0036010742
1725817816998,2024-09-08T17:50:16.998Z,110130,0.02368164,1.0119629,0.0020751953
1725817817044,2024-09-08T17:50:17.044Z,110176,3.0517578E-4,0.996521,-0.0032348633
1725817817090,2024-09-08T17:50:17.090Z,110222,0.012268066,0.9880371,0.0056152344
1725817817132,2024-09-08T17:50:17.132Z,110264,0.021850586,0.9885864,-0.008239746
1725817817180,2024-09-08T17:50:17.180Z,110312,0.008239746,1.024353,0.006958008
1725817817224,2024-09-08T17:50:17.224Z,110356,0.020935059,1.0291748,0.03717041
1725817817241,2024-09-08T17:50:17.241Z,110373,0.0036621094,1.0235596,0.0037841797
1725817817268,2024-09-08T17:50:17.268Z,110400,0.012145996,0.9993286,0.010986328
1725817817314,2024-09-08T17:50:17.314Z,110446,0.015014648,0.9941406,0.014831543
1725817817360,2024-09-08T17:50:17.360Z,110492,0.01751709,1.0014648,0.01586914
1725817817402,2024-09-08T17:50:17.402Z,110534,0.019042969,1.0073242,0.015258789
1725817817449,2024-09-08T17:50:17.449Z,110581,0.014160156,1.0180664,-0.009765625
1725817817496,2024-09-08T17:50:17.496Z,110628,0.019165039,1.0109863,0.009155273
1725817817539,2024-09-08T17:50:17.539Z,110671,0.02709961,1.008606,0.015991211
1725817817584,2024-09-08T17:50:17.584Z,110716,0.028076172,1.0057983,-0.0099487305
1725817817629,2024-09-08T17:50:17.629Z,110761,0.034973145,0.9970093,0.016540527
1725817817647,2024-09-08T17:50:17.647Z,110779,0.016296387,1.0093994,-0.0078125
1725817817719,2024-09-08T17:50:17.719Z,110851,0.024169922,1.0009766,0.0032348633
1725817817735,2024-09-08T17:50:17.735Z,110867,0.020690918,0.9924927,-0.006591797
1725817817762,2024-09-08T17:50:17.762Z,110894,0.030395508,0.9819946,-4.272461E-4
1725817817808,2024-09-08T17:50:17.808Z,110940,0.022705078,0.99108887,-0.012939453
1725817817854,2024-09-08T17:50:17.854Z,110986,0.030273438,0.9920654,-6.1035156E-4
1725817817898,2024-09-08T17:50:17.898Z,111030,0.01965332,1.0012817,-0.023986816
1725817817946,2024-09-08T17:50:17.946Z,111078,0.027160645,0.99401855,0.0015869141
1725817818033,2024-09-08T17:50:18.033Z,111165,0.027038574,1.0090942,-0.033691406
1725817818050,2024-09-08T17:50:18.050Z,111182,0.024047852,1.0007935,-0.008605957
1725817818067,2024-09-08T17:50:18.067Z,111199,0.018371582,1.0082397,-0.046936035
1725817818077,2024-09-08T17:50:18.077Z,111209,0.020080566,1.0076904,-0.024841309
1725817818122,2024-09-08T17:50:18.122Z,111254,0.022949219,1.0159912,-0.028503418
1725817818167,2024-09-08T17:50:18.167Z,111299,0.026916504,1.0012207,-0.03466797
1725817818214,2024-09-08T17:50:18.214Z,111346,0.0211792,0.9918213,-0.039123535
1725817818262,2024-09-08T17:50:18.262Z,111394,0.018493652,0.99017334,-0.03717041
1725817818302,2024-09-08T17:50:18.302Z,111434,0.02166748,0.99346924,-0.0368042
1725817818351,2024-09-08T17:50:18.351Z,111483,0.019836426,0.99786377,-0.061828613
1725817818395,2024-09-08T17:50:18.395Z,111527,0.034851074,0.9939575,-0.0037231445
1725817818437,2024-09-08T17:50:18.437Z,111569,0.010375977,1.0018921,-0.05053711
1725817818484,2024-09-08T17:50:18.484Z,111616,0.023620605,1.0100708,-0.05053711
1725817818501,2024-09-08T17:50:18.501Z,111633,0.021057129,1.0042114,-0.036132812
1725817818540,2024-09-08T17:50:18.540Z,111672,0.013183594,1.02771,-0.077819824
1725817818573,2024-09-08T17:50:18.573Z,111705,0.03265381,1.0126953,-0.030151367
1725817818621,2024-09-08T17:50:18.621Z,111753,0.031799316,0.9973755,-0.0635376
1725817818666,2024-09-08T17:50:18.666Z,111798,0.02178955,1.00531,-0.06549072
1725817818708,2024-09-08T17:50:18.708Z,111840,0.040222168,0.98950195,-0.044555664
1725817818753,2024-09-08T17:50:18.753Z,111885,0.037353516,0.9906616,-0.062805176
1725817818799,2024-09-08T17:50:18.799Z,111931,0.03338623,0.9929199,-0.060058594
1725817818844,2024-09-08T17:50:18.844Z,111976,0.03302002,0.9991455,-0.064086914
1725817818887,2024-09-08T17:50:18.887Z,112019,0.027038574,1.0089111,-0.075683594
1725817818901,2024-09-08T17:50:18.901Z,112033,0.02508545,1.0083008,-0.06011963
1725817818943,2024-09-08T17:50:18.943Z,112075,1.8310547E-4,1.0020752,-0.08404541
1725817818979,2024-09-08T17:50:18.979Z,112111,0.030090332,0.98779297,-0.072753906
1725817819025,2024-09-08T17:50:19.025Z,112157,0.03173828,0.97979736,-0.06549072
1725817819069,2024-09-08T17:50:19.069Z,112201,0.032043457,0.99261475,-0.08721924
1725817819112,2024-09-08T17:50:19.112Z,112244,0.03692627,0.9960327,-0.0569458
1725817819159,2024-09-08T17:50:19.159Z,112291,0.022644043,1.0070801,-0.09716797
1725817819205,2024-09-08T17:50:19.205Z,112337,0.045288086,1.0028076,-0.06329346
1725817819249,2024-09-08T17:50:19.249Z,112381,0.024291992,1.0095825,-0.08557129
1725817819295,2024-09-08T17:50:19.295Z,112427,0.029418945,0.9771118,-0.0692749
1725817819311,2024-09-08T17:50:19.311Z,112443,0.020996094,0.98651123,-0.09429932
1725817819337,2024-09-08T17:50:19.337Z,112469,0.028747559,0.9908447,-0.060791016
1725817819384,2024-09-08T17:50:19.384Z,112516,0.030090332,1.0247803,-0.09790039
1725817819430,2024-09-08T17:50:19.430Z,112562,0.016662598,1.0177002,-0.0892334
1725817819472,2024-09-08T17:50:19.472Z,112604,0.03277588,1.0068359,-0.11053467
1725817819518,2024-09-08T17:50:19.518Z,112650,0.032104492,0.98913574,-0.10095215
1725817819563,2024-09-08T17:50:19.563Z,112695,0.026000977,0.9881592,-0.10772705
1725817819611,2024-09-08T17:50:19.611Z,112743,0.04296875,0.9898071,-0.085632324
1725817819655,2024-09-08T17:50:19.655Z,112787,0.019836426,1.0048218,-0.10986328
1725817819700,2024-09-08T17:50:19.700Z,112832,0.045532227,0.98620605,-0.086364746
1725817819744,2024-09-08T17:50:19.744Z,112876,0.007019043,1.0061035,-0.10437012
1725817819759,2024-09-08T17:50:19.759Z,112891,0.028564453,1.0142822,-0.09869385
1725817819832,2024-09-08T17:50:19.832Z,112964,0.024536133,1.00531,-0.09313965
1725817819845,2024-09-08T17:50:19.845Z,112977,0.018310547,1.013916,-0.09411621
1725817819878,2024-09-08T17:50:19.878Z,113010,0.019897461,1.0217896,-0.10455322
1725817819923,2024-09-08T17:50:19.923Z,113055,0.031677246,1.0031128,-0.08666992
1725817819971,2024-09-08T17:50:19.971Z,113103,0.04058838,1.00177,-0.09887695
1725817820012,2024-09-08T17:50:20.012Z,113144,0.02734375,1.0088501,-0.09283447
1725817820106,2024-09-08T17:50:20.106Z,113238,0.03363037,1.020813,-0.10821533
1725817820120,2024-09-08T17:50:20.120Z,113252,0.047851562,1.0183105,-0.08807373
1725817820146,2024-09-08T17:50:20.146Z,113278,0.007080078,1.0081787,-0.1159668
1725817820158,2024-09-08T17:50:20.158Z,113290,0.039916992,0.9915161,-0.10412598
1725817820192,2024-09-08T17:50:20.192Z,113324,0.027160645,1.003479,-0.10736084
1725817820238,2024-09-08T17:50:20.238Z,113370,0.03741455,1.0006104,-0.09124756
1725817820283,2024-09-08T17:50:20.283Z,113415,0.01763916,1.012085,-0.13500977
1725817820331,2024-09-08T17:50:20.331Z,113463,0.039001465,1.0108643,-0.112854004
1725817820374,2024-09-08T17:50:20.374Z,113506,0.037475586,0.9819946,-0.10394287
1725817820419,2024-09-08T17:50:20.419Z,113551,0.036621094,0.982666,-0.14971924
1725817820465,2024-09-08T17:50:20.465Z,113597,0.05432129,0.9800415,-0.11199951
1725817820508,2024-09-08T17:50:20.508Z,113640,0.04260254,0.99420166,-0.12554932
1725817820553,2024-09-08T17:50:20.553Z,113685,0.036193848,1.005249,-0.11627197
1725817820569,2024-09-08T17:50:20.569Z,113701,0.027526855,1.0247803,-0.17382812
1725817820599,2024-09-08T17:50:20.599Z,113731,0.058898926,1.0407104,-0.114990234
1725817820643,2024-09-08T17:50:20.643Z,113775,0.032043457,1.041565,-0.13092041
1725817820688,2024-09-08T17:50:20.688Z,113820,0.046875,1.0441284,-0.16589355
1725817820734,2024-09-08T17:50:20.734Z,113866,0.04260254,1.017456,-0.123168945
1725817820778,2024-09-08T17:50:20.778Z,113910,0.044311523,1.0145874,-0.14581299
1725817820823,2024-09-08T17:50:20.823Z,113955,0.046875,1.0033569,-0.13970947
1725817820870,2024-09-08T17:50:20.870Z,114002,0.03277588,1.001648,-0.11987305
1725817820915,2024-09-08T17:50:20.915Z,114047,0.053955078,1.0079346,-0.13885498
1725817820958,2024-09-08T17:50:20.958Z,114090,0.036254883,1.0124512,-0.14874268
1725817821002,2024-09-08T17:50:21.002Z,114134,0.041259766,1.0073242,-0.10949707
1725817821017,2024-09-08T17:50:21.017Z,114149,0.04058838,1.0350342,-0.15600586
1725817821048,2024-09-08T17:50:21.048Z,114180,0.03918457,1.0150146,-0.12945557
1725817821099,2024-09-08T17:50:21.099Z,114231,0.024169922,1.0256958,-0.13720703
1725817821138,2024-09-08T17:50:21.138Z,114270,0.045776367,1.0114136,-0.14068604
1725817821184,2024-09-08T17:50:21.184Z,114316,0.045898438,1.0084229,-0.14208984
1725817821227,2024-09-08T17:50:21.227Z,114359,0.041931152,1.0126953,-0.11077881
1725817821280,2024-09-08T17:50:21.280Z,114412,0.041015625,1.0324097,-0.15228271
1725817821317,2024-09-08T17:50:21.317Z,114449,0.040161133,1.0236206,-0.15686035
1725817821409,2024-09-08T17:50:21.409Z,114541,0.047546387,1.0209961,-0.12542725
1725817821425,2024-09-08T17:50:21.425Z,114557,0.049926758,1.020752,-0.14355469
1725817821440,2024-09-08T17:50:21.440Z,114572,0.039489746,1.0189819,-0.14813232
1725817821454,2024-09-08T17:50:21.454Z,114586,0.049560547,1.00354,-0.13189697
1725817821503,2024-09-08T17:50:21.503Z,114635,0.034423828,0.9949951,-0.13146973
1725817821545,2024-09-08T17:50:21.545Z,114677,0.040771484,0.98461914,-0.13653564
1725817821589,2024-09-08T17:50:21.589Z,114721,0.053771973,0.98168945,-0.13519287
1725817821634,2024-09-08T17:50:21.634Z,114766,0.0345459,0.9963379,-0.12487793
1725817821677,2024-09-08T17:50:21.677Z,114809,0.04486084,0.99957275,-0.13049316
1725817821724,2024-09-08T17:50:21.724Z,114856,0.045776367,1.013916,-0.14251709
1725817821768,2024-09-08T17:50:21.768Z,114900,0.038146973,1.0175171,-0.12579346
1725817821816,2024-09-08T17:50:21.816Z,114948,0.04876709,1.0410156,-0.14056396
1725817821830,2024-09-08T17:50:21.830Z,114962,0.04107666,1.0286255,-0.14569092
1725817821858,2024-09-08T17:50:21.858Z,114990,0.03387451,1.0015259,-0.13409424
1725817821905,2024-09-08T17:50:21.905Z,115037,0.037353516,0.9876709,-0.13995361
1725817821950,2024-09-08T17:50:21.950Z,115082,0.054992676,0.99401855,-0.12823486
1725817821992,2024-09-08T17:50:21.992Z,115124,0.041870117,1.0048218,-0.1305542
1725817822042,2024-09-08T17:50:22.042Z,115174,0.042541504,1.0182495,-0.15118408
1725817822087,2024-09-08T17:50:22.087Z,115219,0.046936035,1.0240479,-0.12976074
1725817822128,2024-09-08T17:50:22.128Z,115260,0.053100586,1.046875,-0.14770508
1725817822174,2024-09-08T17:50:22.174Z,115306,0.051940918,1.0560303,-0.13555908
1725817822223,2024-09-08T17:50:22.223Z,115355,0.04083252,1.0343018,-0.14074707
1725817822262,2024-09-08T17:50:22.262Z,115394,0.036987305,0.99438477,-0.13671875
1725817822276,2024-09-08T17:50:22.276Z,115408,0.045410156,0.9746704,-0.13305664
1725817822307,2024-09-08T17:50:22.307Z,115439,0.0446167,0.9633179,-0.12683105
1725817822356,2024-09-08T17:50:22.356Z,115488,0.031799316,0.9638672,-0.1428833
1725817822397,2024-09-08T17:50:22.397Z,115529,0.059143066,0.9834595,-0.14489746
1725817822443,2024-09-08T17:50:22.443Z,115575,0.039245605,0.99401855,-0.1350708
1725817822489,2024-09-08T17:50:22.489Z,115621,0.043823242,1.0106201,-0.16046143
1725817822532,2024-09-08T17:50:22.532Z,115664,0.04840088,1.0274048,-0.14807129
1725817822580,2024-09-08T17:50:22.580Z,115712,0.048461914,1.0459595,-0.14099121
1725817822622,2024-09-08T17:50:22.622Z,115754,0.055236816,1.069397,-0.14526367
1725817822669,2024-09-08T17:50:22.669Z,115801,0.030273438,1.0576782,-0.1539917
1725817822685,2024-09-08T17:50:22.685Z,115817,0.047302246,1.0493164,-0.14233398
1725817822712,2024-09-08T17:50:22.712Z,115844,0.048095703,1.0247803,-0.12695312
1725817822805,2024-09-08T17:50:22.805Z,115937,0.03289795,1.0252686,-0.1486206
1725817822821,2024-09-08T17:50:22.821Z,115953,0.027648926,1.0245972,-0.13916016
1725817822848,2024-09-08T17:50:22.848Z,115980,0.034118652,1.0405273,-0.14215088
1725817822942,2024-09-08T17:50:22.942Z,116074,0.044189453,1.0164795,-0.10217285
1725817822957,2024-09-08T17:50:22.957Z,116089,0.026184082,1.0205688,-0.17382812
1725817822982,2024-09-08T17:50:22.982Z,116114,0.042053223,1.0048218,-0.13427734
1725817823039,2024-09-08T17:50:23.039Z,116171,0.03894043,1.0120239,-0.13378906
1725817823075,2024-09-08T17:50:23.075Z,116207,0.04333496,1.0134888,-0.1348877
1725817823089,2024-09-08T17:50:23.089Z,116221,0.035339355,1.013916,-0.14685059
1725817823118,2024-09-08T17:50:23.118Z,116250,0.050964355,1.0239868,-0.12908936
1725817823164,2024-09-08T17:50:23.164Z,116296,0.038024902,1.0306396,-0.109313965
1725817823209,2024-09-08T17:50:23.209Z,116341,0.030334473,1.0332031,-0.13122559
1725817823254,2024-09-08T17:50:23.254Z,116386,0.030212402,1.0079956,-0.123168945
1725817823297,2024-09-08T17:50:23.297Z,116429,0.04449463,0.9963989,-0.11450195
1725817823345,2024-09-08T17:50:23.345Z,116477,0.04156494,0.9963989,-0.11364746
1725817823392,2024-09-08T17:50:23.392Z,116524,0.034729004,1.0009766,-0.12677002
1725817823435,2024-09-08T17:50:23.435Z,116567,0.04522705,1.0128784,-0.11627197
1725817823479,2024-09-08T17:50:23.479Z,116611,0.051513672,1.0248413,-0.11004639
1725817823526,2024-09-08T17:50:23.526Z,116658,0.043823242,1.0094604,-0.109313965
1725817823543,2024-09-08T17:50:23.543Z,116675,0.043762207,1.0166626,-0.11437988
1725817823567,2024-09-08T17:50:23.567Z,116699,0.04699707,1.0206299,-0.09259033
1725817823613,2024-09-08T17:50:23.613Z,116745,0.04058838,1.0119629,-0.07897949
1725817823662,2024-09-08T17:50:23.662Z,116794,0.020080566,1.00354,-0.087524414
1725817823708,2024-09-08T17:50:23.708Z,116840,0.03112793,0.99572754,-0.09777832
1725817823750,2024-09-08T17:50:23.750Z,116882,0.031188965,0.9765625,-0.067993164
1725817823795,2024-09-08T17:50:23.795Z,116927,0.026306152,0.96435547,-0.08392334
1725817823844,2024-09-08T17:50:23.844Z,116976,0.049926758,0.96380615,-0.066101074
1725817823885,2024-09-08T17:50:23.885Z,117017,0.031799316,0.98443604,-0.09423828
1725817823932,2024-09-08T17:50:23.932Z,117064,0.04107666,0.9960327,-0.07763672
1725817823947,2024-09-08T17:50:23.947Z,117079,0.020202637,1.0095215,-0.09051514
1725817823972,2024-09-08T17:50:23.972Z,117104,0.038330078,1.0249023,-0.075683594
1725817824019,2024-09-08T17:50:24.019Z,117151,0.03302002,1.0082397,-0.04510498
1725817824065,2024-09-08T17:50:24.065Z,117197,0.016479492,0.97650146,-0.014221191
1725817824108,2024-09-08T17:50:24.108Z,117240,0.01574707,1.0020142,-0.11651611
1725817824154,2024-09-08T17:50:24.154Z,117286,0.04034424,0.963501,-0.080444336
1725817824198,2024-09-08T17:50:24.198Z,117330,0.0029907227,0.9733887,-0.02508545
1725817824248,2024-09-08T17:50:24.248Z,117380,0.023742676,1.0042114,-0.06762695
1725817824289,2024-09-08T17:50:24.289Z,117421,0.03894043,0.99121094,-0.0154418945
1725817824334,2024-09-08T17:50:24.334Z,117466,0.010559082,0.9939575,-0.040222168
1725817824351,2024-09-08T17:50:24.351Z,117483,0.0211792,0.98565674,-0.039611816
1725817824378,2024-09-08T17:50:24.378Z,117510,0.014160156,0.973999,-0.032348633
1725817824425,2024-09-08T17:50:24.425Z,117557,0.009765625,0.9701538,-0.021606445
1725817824468,2024-09-08T17:50:24.468Z,117600,0.0076904297,0.975708,-0.013671875
1725817824515,2024-09-08T17:50:24.515Z,117647,0.0065307617,0.97857666,-0.0063476562
1725817824560,2024-09-08T17:50:24.560Z,117692,-0.002746582,0.9846802,-0.008544922
1725817824604,2024-09-08T17:50:24.604Z,117736,0.009094238,0.9816284,0.0087890625
1725817824648,2024-09-08T17:50:24.648Z,117780,0.009338379,0.9885254,0.033569336
1725817824693,2024-09-08T17:50:24.693Z,117825,-0.020812988,0.97735596,0.006225586
1725817824739,2024-09-08T17:50:24.739Z,117871,0.014099121,0.96539307,0.00970459
1725817824783,2024-09-08T17:50:24.783Z,117915,0.032958984,0.9835205,0.026977539
1725817824797,2024-09-08T17:50:24.797Z,117929,-0.022399902,1.0003662,0.0036621094
1725817824827,2024-09-08T17:50:24.827Z,117959,-0.009155273,0.9963989,-0.0025024414
1725817824874,2024-09-08T17:50:24.874Z,118006,0.001159668,0.9891968,0.039978027
1725817824921,2024-09-08T17:50:24.921Z,118053,-0.010620117,0.99993896,0.027038574
1725817824964,2024-09-08T17:50:24.964Z,118096,-0.026184082,1.0019531,0.047607422
1725817825010,2024-09-08T17:50:25.010Z,118142,-0.02947998,1.0093384,0.055114746
1725817825095,2024-09-08T17:50:25.095Z,118227,-0.028076172,1.0031738,0.04437256
1725817825103,2024-09-08T17:50:25.103Z,118235,-0.023986816,1.0076294,0.038208008
1725817825139,2024-09-08T17:50:25.139Z,118271,-0.041809082,1.0048828,0.040771484
1725817825185,2024-09-08T17:50:25.185Z,118317,-0.028259277,1.0081787,0.049560547
1725817825192,2024-09-08T17:50:25.192Z,118324,-0.032287598,0.99438477,0.048950195
1725817825229,2024-09-08T17:50:25.229Z,118361,-0.025817871,0.993103,0.04876709
