Timestamp (ms),ISO DateTime,Elapsed Time (ms),Acceleration X,Acceleration Y,Acceleration Z
1725950325023,2024-09-10T06:38:45.023Z,29806,-0.101501465,0.97314453,-0.07537842
1725950325066,2024-09-10T06:38:45.066Z,29849,-0.10046387,0.991333,-0.07244873
1725950325108,2024-09-10T06:38:45.108Z,29891,-0.099975586,1.0001221,-0.07171631
1725950325156,2024-09-10T06:38:45.156Z,29939,-0.099609375,1.0081177,-0.078125
1725950325201,2024-09-10T06:38:45.201Z,29984,-0.10626221,1.0114136,-0.08331299
1725950325243,2024-09-10T06:38:45.243Z,30026,-0.09680176,1.0089722,-0.08605957
1725950325288,2024-09-10T06:38:45.288Z,30071,-0.09814453,0.99523926,-0.08996582
1725950325339,2024-09-10T06:38:45.339Z,30122,-0.094055176,0.9974365,-0.09399414
1725950325359,2024-09-10T06:38:45.359Z,30142,-0.103637695,0.9975586,-0.0881958
1725950325383,2024-09-10T06:38:45.383Z,30166,-0.09466553,1.0056763,-0.087768555
1725950325429,2024-09-10T06:38:45.429Z,30212,-0.09338379,1.00354,-0.092163086
1725950325477,2024-09-10T06:38:45.477Z,30260,-0.09893799,0.99591064,-0.10461426
1725950325521,2024-09-10T06:38:45.521Z,30304,-0.093688965,0.98913574,-0.1194458
1725950325567,2024-09-10T06:38:45.567Z,30350,-0.106933594,0.9680786,-0.1496582
1725950325611,2024-09-10T06:38:45.611Z,30394,-0.08166504,0.9929199,-0.12408447
1725950325656,2024-09-10T06:38:45.656Z,30439,-0.121276855,0.9785156,-0.12225342
1725950325701,2024-09-10T06:38:45.701Z,30484,-0.08312988,0.97052,-0.1329956
1725950325743,2024-09-10T06:38:45.743Z,30526,-0.08093262,0.97302246,-0.12200928
1725950325764,2024-09-10T06:38:45.764Z,30547,-0.08239746,0.98431396,-0.12957764
1725950325788,2024-09-10T06:38:45.788Z,30571,-0.074279785,0.9821167,-0.12561035
1725950325834,2024-09-10T06:38:45.834Z,30617,-0.06829834,0.9802246,-0.13208008
1725950325882,2024-09-10T06:38:45.882Z,30665,-0.087768555,0.9606323,-0.1375122
1725950325924,2024-09-10T06:38:45.924Z,30707,-0.07354736,0.97821045,-0.15350342
1725950325971,2024-09-10T06:38:45.971Z,30754,-0.09692383,0.97229004,-0.17529297
1725950326016,2024-09-10T06:38:46.016Z,30799,-0.0914917,0.9873047,-0.18511963
1725950326061,2024-09-10T06:38:46.061Z,30844,-0.103027344,1.0003052,-0.20019531
1725950326106,2024-09-10T06:38:46.106Z,30889,-0.115356445,0.98150635,-0.21661377
1725950326151,2024-09-10T06:38:46.151Z,30934,-0.07519531,0.99346924,-0.20837402
1725950326172,2024-09-10T06:38:46.172Z,30955,-0.11004639,0.9780884,-0.20324707
1725950326193,2024-09-10T06:38:46.193Z,30976,-0.10760498,0.9812622,-0.21643066
1725950326241,2024-09-10T06:38:46.241Z,31024,-0.095947266,0.97821045,-0.22277832
1725950326286,2024-09-10T06:38:46.286Z,31069,-0.089538574,0.99005127,-0.22198486
1725950326331,2024-09-10T06:38:46.331Z,31114,-0.09918213,0.9810791,-0.22131348
1725950326377,2024-09-10T06:38:46.377Z,31160,-0.09118652,0.9703369,-0.22271729
1725950326420,2024-09-10T06:38:46.420Z,31203,-0.092285156,0.96765137,-0.21435547
1725950326467,2024-09-10T06:38:46.467Z,31250,-0.10021973,0.9450073,-0.22088623
1725950326509,2024-09-10T06:38:46.509Z,31292,-0.087890625,0.94226074,-0.22705078
1725950326558,2024-09-10T06:38:46.558Z,31341,-0.11029053,0.9454956,-0.22650146
1725950326598,2024-09-10T06:38:46.598Z,31381,-0.08984375,0.96643066,-0.2401123
1725950326623,2024-09-10T06:38:46.623Z,31406,-0.10681152,0.9642334,-0.23724365
1725950326644,2024-09-10T06:38:46.644Z,31427,-0.10632324,0.96673584,-0.2487793
1725950326693,2024-09-10T06:38:46.693Z,31476,-0.11175537,0.95892334,-0.24621582
1725950326734,2024-09-10T06:38:46.734Z,31517,-0.094055176,0.9755249,-0.2590332
1725950326778,2024-09-10T06:38:46.778Z,31561,-0.08831787,0.986084,-0.25286865
1725950326823,2024-09-10T06:38:46.823Z,31606,-0.09802246,0.99365234,-0.2678833
1725950326867,2024-09-10T06:38:46.867Z,31650,-0.107543945,0.99298096,-0.26757812
1725950326912,2024-09-10T06:38:46.912Z,31695,-0.089660645,0.9937744,-0.26922607
1725950326959,2024-09-10T06:38:46.959Z,31742,-0.11090088,0.97717285,-0.2659912
1725950327008,2024-09-10T06:38:47.008Z,31791,-0.09576416,1.0012817,-0.2783203
1725950327031,2024-09-10T06:38:47.031Z,31814,-0.10021973,1.0063477,-0.269104
1725950327053,2024-09-10T06:38:47.053Z,31836,-0.113342285,0.9991455,-0.2421875
1725950327096,2024-09-10T06:38:47.096Z,31879,-0.093811035,0.9916382,-0.25231934
1725950327141,2024-09-10T06:38:47.141Z,31924,-0.09436035,1.0061035,-0.2675171
1725950327189,2024-09-10T06:38:47.189Z,31972,-0.1274414,0.9891968,-0.25421143
1725950327235,2024-09-10T06:38:47.235Z,32018,-0.11230469,0.97180176,-0.24499512
1725950327275,2024-09-10T06:38:47.275Z,32058,-0.10992432,0.9604492,-0.24932861
1725950327320,2024-09-10T06:38:47.320Z,32103,-0.10992432,0.9641113,-0.24383545
1725950327368,2024-09-10T06:38:47.368Z,32151,-0.10473633,0.96813965,-0.24957275
1725950327416,2024-09-10T06:38:47.416Z,32199,-0.12097168,0.96899414,-0.26287842
1725950327440,2024-09-10T06:38:47.440Z,32223,-0.11804199,0.97546387,-0.26202393
1725950327500,2024-09-10T06:38:47.500Z,32283,-0.117248535,0.9807129,-0.26013184
1725950327519,2024-09-10T06:38:47.519Z,32302,-0.12133789,0.9680176,-0.25915527
1725950327542,2024-09-10T06:38:47.542Z,32325,-0.11462402,0.95410156,-0.2592163
1725950327590,2024-09-10T06:38:47.590Z,32373,-0.11828613,0.9571533,-0.26202393
1725950327636,2024-09-10T06:38:47.636Z,32419,-0.12200928,0.9835205,-0.28173828
1725950327679,2024-09-10T06:38:47.679Z,32462,-0.13085938,0.98254395,-0.27252197
1725950327729,2024-09-10T06:38:47.729Z,32512,-0.13806152,0.9807129,-0.2685547
1725950327773,2024-09-10T06:38:47.773Z,32556,-0.121276855,0.9885864,-0.25427246
1725950327814,2024-09-10T06:38:47.814Z,32597,-0.12878418,0.97766113,-0.27368164
1725950327863,2024-09-10T06:38:47.863Z,32646,-0.123046875,0.98223877,-0.2775879
1725950327887,2024-09-10T06:38:47.887Z,32670,-0.13140869,0.993042,-0.2791748
1725950327908,2024-09-10T06:38:47.908Z,32691,-0.11608887,1.013916,-0.2756958
1725950327950,2024-09-10T06:38:47.950Z,32733,-0.13891602,1.0010986,-0.27093506
1725950327993,2024-09-10T06:38:47.993Z,32776,-0.13195801,0.97772217,-0.27062988
1725950328041,2024-09-10T06:38:48.041Z,32824,-0.12121582,0.9738159,-0.26293945
1725950328084,2024-09-10T06:38:48.084Z,32867,-0.12432861,0.98236084,-0.27319336
1725950328128,2024-09-10T06:38:48.128Z,32911,-0.111816406,0.9938965,-0.28125
1725950328176,2024-09-10T06:38:48.176Z,32959,-0.11804199,0.9968262,-0.26782227
1725950328222,2024-09-10T06:38:48.222Z,33005,-0.12231445,0.9855957,-0.2689209
1725950328264,2024-09-10T06:38:48.264Z,33047,-0.10461426,0.987854,-0.270813
1725950328281,2024-09-10T06:38:48.281Z,33064,-0.12200928,0.9904785,-0.2633667
1725950328309,2024-09-10T06:38:48.309Z,33092,-0.12927246,0.9888916,-0.29248047
1725950328400,2024-09-10T06:38:48.400Z,33183,-0.12542725,0.99438477,-0.27478027
1725950328428,2024-09-10T06:38:48.428Z,33211,-0.117492676,1.0030518,-0.25726318
1725950328442,2024-09-10T06:38:48.442Z,33225,-0.11669922,0.9961548,-0.27008057
1725950328485,2024-09-10T06:38:48.485Z,33268,-0.120666504,1.0050659,-0.28198242
1725950328532,2024-09-10T06:38:48.532Z,33315,-0.13287354,1.012085,-0.27996826
1725950328577,2024-09-10T06:38:48.577Z,33360,-0.13165283,1.0166626,-0.28637695
1725950328626,2024-09-10T06:38:48.626Z,33409,-0.12878418,1.0040894,-0.2769165
1725950328671,2024-09-10T06:38:48.671Z,33454,-0.13232422,0.9890137,-0.27697754
1725950328692,2024-09-10T06:38:48.692Z,33475,-0.13433838,0.9715576,-0.27197266
1725950328760,2024-09-10T06:38:48.760Z,33543,-0.13995361,0.9633789,-0.2668457
1725950328780,2024-09-10T06:38:48.780Z,33563,-0.13214111,0.96917725,-0.26348877
1725950328801,2024-09-10T06:38:48.801Z,33584,-0.13623047,0.96343994,-0.26104736
1725950328851,2024-09-10T06:38:48.851Z,33634,-0.14794922,0.95751953,-0.2727661
1725950328899,2024-09-10T06:38:48.899Z,33682,-0.14593506,0.9522705,-0.26019287
1725950328938,2024-09-10T06:38:48.938Z,33721,-0.14562988,0.9517822,-0.2526245
1725950328996,2024-09-10T06:38:48.996Z,33779,-0.14056396,0.9533081,-0.25628662
1725950329032,2024-09-10T06:38:49.032Z,33815,-0.13452148,0.9550781,-0.2592163
1725950329076,2024-09-10T06:38:49.076Z,33859,-0.14160156,0.95513916,-0.25872803
1725950329120,2024-09-10T06:38:49.120Z,33903,-0.14367676,0.94781494,-0.25354004
1725950329143,2024-09-10T06:38:49.143Z,33926,-0.14440918,0.9337158,-0.25610352
1725950329164,2024-09-10T06:38:49.164Z,33947,-0.1239624,0.93951416,-0.2479248
1725950329210,2024-09-10T06:38:49.210Z,33993,-0.13275146,0.9524536,-0.256958
1725950329262,2024-09-10T06:38:49.262Z,34045,-0.14349365,0.979126,-0.2699585
1725950329298,2024-09-10T06:38:49.298Z,34081,-0.15533447,1.0110474,-0.270813
1725950329391,2024-09-10T06:38:49.391Z,34174,-0.16870117,1.0497437,-0.27947998
1725950329408,2024-09-10T06:38:49.408Z,34191,-0.16333008,1.0982666,-0.28533936
1725950329431,2024-09-10T06:38:49.431Z,34214,-0.17736816,1.0991821,-0.31207275
1725950329478,2024-09-10T06:38:49.478Z,34261,-0.16589355,1.0697021,-0.30151367
1725950329524,2024-09-10T06:38:49.524Z,34307,-0.14776611,1.0394287,-0.2715454
1725950329541,2024-09-10T06:38:49.541Z,34324,-0.15447998,1.0075073,-0.27270508
1725950329565,2024-09-10T06:38:49.565Z,34348,-0.1352539,1.0111084,-0.2555542
1725950329613,2024-09-10T06:38:49.613Z,34396,-0.1274414,1.0042114,-0.23394775
1725950329658,2024-09-10T06:38:49.658Z,34441,-0.12823486,0.9914551,-0.24920654
1725950329704,2024-09-10T06:38:49.704Z,34487,-0.13903809,0.96777344,-0.24291992
1725950329748,2024-09-10T06:38:49.748Z,34531,-0.13671875,0.97125244,-0.2524414
1725950329795,2024-09-10T06:38:49.795Z,34578,-0.13922119,0.9678955,-0.24456787
1725950329838,2024-09-10T06:38:49.838Z,34621,-0.13745117,0.9718628,-0.24719238
1725950329884,2024-09-10T06:38:49.884Z,34667,-0.1461792,0.95233154,-0.2508545
1725950329930,2024-09-10T06:38:49.930Z,34713,-0.13970947,0.9500122,-0.24389648
1725950329949,2024-09-10T06:38:49.949Z,34732,-0.12988281,0.96203613,-0.2331543
1725950329973,2024-09-10T06:38:49.973Z,34756,-0.1472168,0.95825195,-0.24780273
1725950330018,2024-09-10T06:38:50.018Z,34801,-0.15423584,0.944397,-0.22302246
1725950330065,2024-09-10T06:38:50.065Z,34848,-0.1560669,0.94610596,-0.21557617
1725950330111,2024-09-10T06:38:50.111Z,34894,-0.13690186,0.9456787,-0.19848633
1725950330154,2024-09-10T06:38:50.154Z,34937,-0.117370605,0.9524536,-0.20202637
1725950330201,2024-09-10T06:38:50.201Z,34984,-0.15673828,0.9406128,-0.19799805
1725950330247,2024-09-10T06:38:50.247Z,35030,-0.16143799,0.94195557,-0.18695068
1725950330292,2024-09-10T06:38:50.292Z,35075,-0.1373291,0.9382324,-0.18286133
1725950330335,2024-09-10T06:38:50.335Z,35118,-0.15008545,0.93927,-0.1932373
1725950330378,2024-09-10T06:38:50.378Z,35161,-0.16326904,0.93774414,-0.1918335
1725950330395,2024-09-10T06:38:50.395Z,35178,-0.16949463,0.94244385,-0.18829346
1725950330422,2024-09-10T06:38:50.422Z,35205,-0.1505127,0.95269775,-0.18914795
1725950330468,2024-09-10T06:38:50.468Z,35251,-0.1494751,0.9440918,-0.18536377
1725950330513,2024-09-10T06:38:50.513Z,35296,-0.16503906,0.9439087,-0.19104004
1725950330559,2024-09-10T06:38:50.559Z,35342,-0.15234375,0.9491577,-0.18530273
1725950330605,2024-09-10T06:38:50.605Z,35388,-0.14758301,0.9664917,-0.1921997
1725950330650,2024-09-10T06:38:50.650Z,35433,-0.15509033,0.9747925,-0.20275879
1725950330695,2024-09-10T06:38:50.695Z,35478,-0.15460205,0.97717285,-0.19403076
1725950330741,2024-09-10T06:38:50.741Z,35524,-0.14593506,0.9844971,-0.18341064
1725950330786,2024-09-10T06:38:50.786Z,35569,-0.14251709,1.0001831,-0.19873047
1725950330807,2024-09-10T06:38:50.807Z,35590,-0.16125488,1.019165,-0.2055664
1725950330828,2024-09-10T06:38:50.828Z,35611,-0.15899658,1.0335083,-0.20843506
1725950330873,2024-09-10T06:38:50.873Z,35656,-0.15112305,1.0354004,-0.20770264
1725950330918,2024-09-10T06:38:50.918Z,35701,-0.15466309,1.0251465,-0.19293213
1725950330965,2024-09-10T06:38:50.965Z,35748,-0.15301514,1.0198975,-0.1942749
1725950331009,2024-09-10T06:38:51.009Z,35792,-0.16583252,1.0168457,-0.20214844
1725950331055,2024-09-10T06:38:51.055Z,35838,-0.13812256,1.0203247,-0.18927002
1725950331101,2024-09-10T06:38:51.101Z,35884,-0.13110352,1.0216064,-0.16931152
1725950331145,2024-09-10T06:38:51.145Z,35928,-0.13873291,1.0150757,-0.17138672
1725950331190,2024-09-10T06:38:51.190Z,35973,-0.13311768,1.0186768,-0.18823242
1725950331211,2024-09-10T06:38:51.211Z,35994,-0.12530518,1.0090942,-0.18286133
1725950331236,2024-09-10T06:38:51.236Z,36019,-0.12866211,0.9772949,-0.17547607
1725950331278,2024-09-10T06:38:51.278Z,36061,-0.108947754,0.9764404,-0.16455078
1725950331324,2024-09-10T06:38:51.324Z,36107,-0.101867676,0.95965576,-0.17034912
1725950331371,2024-09-10T06:38:51.371Z,36154,-0.095947266,0.96606445,-0.16137695
1725950331416,2024-09-10T06:38:51.416Z,36199,-0.111328125,0.94506836,-0.13769531
1725950331461,2024-09-10T06:38:51.461Z,36244,-0.105529785,0.9366455,-0.11444092
1725950331506,2024-09-10T06:38:51.506Z,36289,-0.10638428,0.93566895,-0.08105469
1725950331551,2024-09-10T06:38:51.551Z,36334,-0.1149292,0.94506836,-0.11004639
1725950331603,2024-09-10T06:38:51.603Z,36386,-0.107666016,0.97509766,-0.1539917
1725950331639,2024-09-10T06:38:51.639Z,36422,-0.1194458,0.99816895,-0.18395996
1725950331658,2024-09-10T06:38:51.658Z,36441,-0.11798096,0.99786377,-0.1965332
1725950331684,2024-09-10T06:38:51.684Z,36467,-0.11279297,1.0010986,-0.19702148
1725950331729,2024-09-10T06:38:51.729Z,36512,-0.10797119,0.9784546,-0.17474365
1725950331773,2024-09-10T06:38:51.773Z,36556,-0.10876465,0.9545288,-0.14282227
1725950331820,2024-09-10T06:38:51.820Z,36603,-0.11376953,0.9459839,-0.13098145
1725950331864,2024-09-10T06:38:51.864Z,36647,-0.11859131,0.95184326,-0.10449219
1725950331908,2024-09-10T06:38:51.908Z,36691,-0.119628906,0.9882202,-0.10748291
1725950331956,2024-09-10T06:38:51.956Z,36739,-0.12182617,1.0128784,-0.119506836
1725950331999,2024-09-10T06:38:51.999Z,36782,-0.13653564,1.0152588,-0.12286377
1725950332045,2024-09-10T06:38:52.045Z,36828,-0.12945557,1.0072632,-0.12915039
1725950332063,2024-09-10T06:38:52.063Z,36846,-0.11846924,0.9974365,-0.14416504
1725950332086,2024-09-10T06:38:52.086Z,36869,-0.112854004,0.98321533,-0.14312744
1725950332133,2024-09-10T06:38:52.133Z,36916,-0.107666016,0.9851074,-0.14776611
1725950332179,2024-09-10T06:38:52.179Z,36962,-0.09039307,0.9515991,-0.14141846
1725950332227,2024-09-10T06:38:52.227Z,37010,-0.09802246,0.9487915,-0.14324951
1725950332270,2024-09-10T06:38:52.270Z,37053,-0.10424805,0.9498291,-0.16827393
1725950332315,2024-09-10T06:38:52.315Z,37098,-0.11450195,0.9688721,-0.16918945
1725950332360,2024-09-10T06:38:52.360Z,37143,-0.120910645,0.97546387,-0.17407227
1725950332451,2024-09-10T06:38:52.451Z,37234,-0.1237793,0.96777344,-0.17572021
1725950332471,2024-09-10T06:38:52.471Z,37254,-0.1227417,0.97802734,-0.15472412
1725950332490,2024-09-10T06:38:52.490Z,37273,-0.12896729,0.9923706,-0.15270996
1725950332504,2024-09-10T06:38:52.504Z,37287,-0.1295166,1.0031128,-0.14678955
1725950332538,2024-09-10T06:38:52.538Z,37321,-0.12878418,1.0041504,-0.1496582
1725950332586,2024-09-10T06:38:52.586Z,37369,-0.12237549,0.9906006,-0.16168213
1725950332629,2024-09-10T06:38:52.629Z,37412,-0.12017822,0.98516846,-0.1786499
1725950332675,2024-09-10T06:38:52.675Z,37458,-0.12573242,0.9852295,-0.19152832
1725950332722,2024-09-10T06:38:52.722Z,37505,-0.13928223,0.9729004,-0.19018555
1725950332766,2024-09-10T06:38:52.766Z,37549,-0.14239502,0.9638672,-0.19537354
1725950332809,2024-09-10T06:38:52.809Z,37592,-0.13861084,0.94763184,-0.18572998
1725950332854,2024-09-10T06:38:52.854Z,37637,-0.14013672,0.95318604,-0.18585205
1725950332899,2024-09-10T06:38:52.899Z,37682,-0.14605713,0.958313,-0.20703125
1725950332917,2024-09-10T06:38:52.917Z,37700,-0.1539917,0.97039795,-0.21569824
1725950332943,2024-09-10T06:38:52.943Z,37726,-0.13684082,0.97473145,-0.21264648
1725950332987,2024-09-10T06:38:52.987Z,37770,-0.14807129,0.9723511,-0.22235107
1725950333035,2024-09-10T06:38:53.035Z,37818,-0.1453247,0.97991943,-0.22149658
1725950333080,2024-09-10T06:38:53.080Z,37863,-0.13812256,0.9844971,-0.2154541
1725950333125,2024-09-10T06:38:53.125Z,37908,-0.14746094,0.979126,-0.23571777
1725950333171,2024-09-10T06:38:53.171Z,37954,-0.1352539,0.975647,-0.22503662
1725950333216,2024-09-10T06:38:53.216Z,37999,-0.1361084,0.96832275,-0.22607422
1725950333263,2024-09-10T06:38:53.263Z,38046,-0.13549805,0.9640503,-0.25146484
1725950333305,2024-09-10T06:38:53.305Z,38088,-0.1359253,0.956604,-0.23986816
1725950333325,2024-09-10T06:38:53.325Z,38108,-0.13787842,0.94781494,-0.23278809
1725950333349,2024-09-10T06:38:53.349Z,38132,-0.1383667,0.9536743,-0.24182129
1725950333393,2024-09-10T06:38:53.393Z,38176,-0.14172363,0.9761963,-0.25494385
1725950333439,2024-09-10T06:38:53.439Z,38222,-0.15289307,0.97875977,-0.27148438
1725950333485,2024-09-10T06:38:53.485Z,38268,-0.15570068,0.9532471,-0.24645996
1725950333528,2024-09-10T06:38:53.528Z,38311,-0.17492676,0.92474365,-0.25787354
1725950333575,2024-09-10T06:38:53.575Z,38358,-0.14813232,0.94525146,-0.25653076
1725950333621,2024-09-10T06:38:53.621Z,38404,-0.14263916,0.9584961,-0.2682495
1725950333663,2024-09-10T06:38:53.663Z,38446,-0.15411377,0.9654541,-0.2682495
1725950333710,2024-09-10T06:38:53.710Z,38493,-0.15515137,0.98291016,-0.25219727
1725950333733,2024-09-10T06:38:53.733Z,38516,-0.16973877,0.9898071,-0.26257324
1725950333755,2024-09-10T06:38:53.755Z,38538,-0.15240479,0.9937134,-0.27423096
1725950333799,2024-09-10T06:38:53.799Z,38582,-0.16278076,0.99108887,-0.2748413
1725950333843,2024-09-10T06:38:53.843Z,38626,-0.15814209,0.9907837,-0.27722168
1725950333891,2024-09-10T06:38:53.891Z,38674,-0.15557861,0.986084,-0.2723999
1725950333979,2024-09-10T06:38:53.979Z,38762,-0.15393066,0.98309326,-0.2923584
1725950333996,2024-09-10T06:38:53.996Z,38779,-0.16137695,0.96539307,-0.2833252
1725950334023,2024-09-10T06:38:54.023Z,38806,-0.16204834,0.94989014,-0.27716064
1725950334069,2024-09-10T06:38:54.069Z,38852,-0.1427002,0.9569092,-0.26019287
1725950334114,2024-09-10T06:38:54.114Z,38897,-0.14904785,0.9578247,-0.27801514
1725950334159,2024-09-10T06:38:54.159Z,38942,-0.17272949,0.95098877,-0.3015747
1725950334177,2024-09-10T06:38:54.177Z,38960,-0.16107178,0.9641113,-0.29840088
1725950334201,2024-09-10T06:38:54.201Z,38984,-0.16125488,0.9700928,-0.29138184
1725950334293,2024-09-10T06:38:54.293Z,39076,-0.1619873,0.96728516,-0.29437256
1725950334311,2024-09-10T06:38:54.311Z,39094,-0.1652832,0.9666748,-0.30267334
1725950334338,2024-09-10T06:38:54.338Z,39121,-0.1685791,0.9655762,-0.30438232
1725950334383,2024-09-10T06:38:54.383Z,39166,-0.16461182,0.95666504,-0.30169678
1725950334429,2024-09-10T06:38:54.429Z,39212,-0.16552734,0.9401245,-0.29919434
1725950334475,2024-09-10T06:38:54.475Z,39258,-0.1519165,0.93426514,-0.2902832
1725950334518,2024-09-10T06:38:54.518Z,39301,-0.15667725,0.9382324,-0.28533936
1725950334564,2024-09-10T06:38:54.564Z,39347,-0.15625,0.93725586,-0.29748535
1725950334584,2024-09-10T06:38:54.584Z,39367,-0.14990234,0.9368286,-0.2919922
1725950334609,2024-09-10T06:38:54.609Z,39392,-0.15228271,0.94873047,-0.29266357
1725950334654,2024-09-10T06:38:54.654Z,39437,-0.16131592,0.9647827,-0.3008423
1725950334700,2024-09-10T06:38:54.700Z,39483,-0.15698242,0.9706421,-0.30163574
1725950334744,2024-09-10T06:38:54.744Z,39527,-0.15759277,0.9697876,-0.29504395
1725950334791,2024-09-10T06:38:54.791Z,39574,-0.15991211,0.98791504,-0.30499268
1725950334834,2024-09-10T06:38:54.834Z,39617,-0.15692139,0.99853516,-0.30755615
1725950334878,2024-09-10T06:38:54.878Z,39661,-0.1642456,0.99328613,-0.30651855
1725950334926,2024-09-10T06:38:54.926Z,39709,-0.16131592,0.9827881,-0.30212402
1725950334967,2024-09-10T06:38:54.967Z,39750,-0.16070557,0.9744873,-0.29919434
1725950334991,2024-09-10T06:38:54.991Z,39774,-0.15734863,0.97106934,-0.30340576
1725950335020,2024-09-10T06:38:55.020Z,39803,-0.15563965,0.9654541,-0.30249023
1725950335053,2024-09-10T06:38:55.053Z,39836,-0.15393066,0.96795654,-0.29223633
1725950335103,2024-09-10T06:38:55.103Z,39886,-0.15435791,0.96661377,-0.29437256
1725950335147,2024-09-10T06:38:55.147Z,39930,-0.15802002,0.96435547,-0.29840088
1725950335194,2024-09-10T06:38:55.194Z,39977,-0.15856934,0.9714966,-0.29675293
1725950335238,2024-09-10T06:38:55.238Z,40021,-0.15966797,0.9729614,-0.29608154
1725950335284,2024-09-10T06:38:55.284Z,40067,-0.15814209,0.9717407,-0.29821777
1725950335329,2024-09-10T06:38:55.329Z,40112,-0.1574707,0.95880127,-0.29534912
1725950335374,2024-09-10T06:38:55.374Z,40157,-0.15478516,0.9519043,-0.29681396
1725950335418,2024-09-10T06:38:55.418Z,40201,-0.14953613,0.9522705,-0.29412842
1725950335437,2024-09-10T06:38:55.437Z,40220,-0.16015625,0.9473877,-0.29486084
1725950335462,2024-09-10T06:38:55.462Z,40245,-0.16101074,0.9489136,-0.29968262
1725950335510,2024-09-10T06:38:55.510Z,40293,-0.15447998,0.9616699,-0.29388428
1725950335555,2024-09-10T06:38:55.555Z,40338,-0.1593628,0.9779663,-0.3008423
1725950335599,2024-09-10T06:38:55.599Z,40382,-0.16339111,0.9827881,-0.30285645
1725950335644,2024-09-10T06:38:55.644Z,40427,-0.16113281,0.9762573,-0.31054688
1725950335690,2024-09-10T06:38:55.690Z,40473,-0.15722656,0.9661865,-0.2930298
1725950335734,2024-09-10T06:38:55.734Z,40517,-0.15802002,0.9645996,-0.2984619
1725950335780,2024-09-10T06:38:55.780Z,40563,-0.1595459,0.9660034,-0.2965088
1725950335825,2024-09-10T06:38:55.825Z,40608,-0.16003418,0.975708,-0.30804443
1725950335844,2024-09-10T06:38:55.844Z,40627,-0.16271973,0.9902954,-0.30737305
1725950335868,2024-09-10T06:38:55.868Z,40651,-0.16821289,1.0046387,-0.30480957
1725950335914,2024-09-10T06:38:55.914Z,40697,-0.1706543,1.0165405,-0.31115723
1725950335960,2024-09-10T06:38:55.960Z,40743,-0.16247559,1.0142212,-0.31274414
1725950336004,2024-09-10T06:38:56.004Z,40787,-0.16113281,1.0129395,-0.31097412
1725950336050,2024-09-10T06:38:56.050Z,40833,-0.1593628,1.0144653,-0.30682373
1725950336096,2024-09-10T06:38:56.096Z,40879,-0.16210938,1.022522,-0.3088379
1725950336140,2024-09-10T06:38:56.140Z,40923,-0.16491699,1.0244141,-0.31304932
1725950336186,2024-09-10T06:38:56.186Z,40969,-0.1661377,1.0163574,-0.3017578
1725950336229,2024-09-10T06:38:56.229Z,41012,-0.16345215,1.0133057,-0.30255127
1725950336248,2024-09-10T06:38:56.248Z,41031,-0.15753174,1.0007324,-0.30194092
1725950336274,2024-09-10T06:38:56.274Z,41057,-0.16778564,0.99176025,-0.3118286
1725950336320,2024-09-10T06:38:56.320Z,41103,-0.16033936,0.98760986,-0.3065796
1725950336367,2024-09-10T06:38:56.367Z,41150,-0.16143799,0.9880371,-0.30096436
1725950336457,2024-09-10T06:38:56.457Z,41240,-0.15795898,0.9711914,-0.27972412
1725950336476,2024-09-10T06:38:56.476Z,41259,-0.15899658,0.9729614,-0.2868042
1725950336511,2024-09-10T06:38:56.511Z,41294,-0.16314697,0.9607544,-0.29748535
1725950336543,2024-09-10T06:38:56.543Z,41326,-0.1593628,0.97351074,-0.28320312
1725950336589,2024-09-10T06:38:56.589Z,41372,-0.16186523,0.96191406,-0.2869873
1725950336638,2024-09-10T06:38:56.638Z,41421,-0.1673584,0.9550781,-0.2826538
1725950336679,2024-09-10T06:38:56.679Z,41462,-0.15045166,0.95391846,-0.27319336
1725950336697,2024-09-10T06:38:56.697Z,41480,-0.15887451,0.96136475,-0.28826904
1725950336722,2024-09-10T06:38:56.722Z,41505,-0.16491699,0.9697876,-0.2874756
1725950336768,2024-09-10T06:38:56.768Z,41551,-0.16174316,0.9678955,-0.28186035
1725950336815,2024-09-10T06:38:56.815Z,41598,-0.14666748,0.9608154,-0.2791748
1725950336859,2024-09-10T06:38:56.859Z,41642,-0.16174316,0.9439697,-0.2861328
1725950336906,2024-09-10T06:38:56.906Z,41689,-0.15216064,0.93096924,-0.26654053
1725950336949,2024-09-10T06:38:56.949Z,41732,-0.13983154,0.9279785,-0.26116943
1725950336994,2024-09-10T06:38:56.994Z,41777,-0.13623047,0.93029785,-0.26434326
1725950337084,2024-09-10T06:38:57.084Z,41867,-0.14154053,0.9365845,-0.25860596
1725950337103,2024-09-10T06:38:57.103Z,41886,-0.14453125,0.94903564,-0.25299072
1725950337121,2024-09-10T06:38:57.121Z,41904,-0.15393066,0.9688721,-0.26281738
1725950337136,2024-09-10T06:38:57.136Z,41919,-0.1416626,0.963501,-0.2506714
1725950337185,2024-09-10T06:38:57.185Z,41968,-0.1383667,0.9673462,-0.262146
1725950337223,2024-09-10T06:38:57.223Z,42006,-0.13897705,0.99090576,-0.25787354
1725950337264,2024-09-10T06:38:57.264Z,42047,-0.13458252,0.9929199,-0.25299072
1725950337310,2024-09-10T06:38:57.310Z,42093,-0.10845947,0.98431396,-0.22619629
1725950337355,2024-09-10T06:38:57.355Z,42138,-0.11633301,0.9680786,-0.21203613
1725950337400,2024-09-10T06:38:57.400Z,42183,-0.10827637,0.9645996,-0.21746826
1725950337443,2024-09-10T06:38:57.443Z,42226,-0.11450195,0.9570923,-0.22283936
1725950337489,2024-09-10T06:38:57.489Z,42272,-0.11224365,0.95306396,-0.22607422
1725950337508,2024-09-10T06:38:57.508Z,42291,-0.09637451,0.9492798,-0.2133789
1725950337533,2024-09-10T06:38:57.533Z,42316,-0.101135254,0.949646,-0.20507812
1725950337579,2024-09-10T06:38:57.579Z,42362,-0.09753418,0.9692993,-0.20257568
1725950337628,2024-09-10T06:38:57.628Z,42411,-0.13482666,0.9849243,-0.21264648
1725950337670,2024-09-10T06:38:57.670Z,42453,-0.119384766,1.0032959,-0.21575928
1725950337715,2024-09-10T06:38:57.715Z,42498,-0.13446045,0.9990845,-0.19689941
1725950337759,2024-09-10T06:38:57.759Z,42542,-0.10986328,0.99816895,-0.20471191
1725950337803,2024-09-10T06:38:57.803Z,42586,-0.11828613,0.99072266,-0.19482422
1725950337858,2024-09-10T06:38:57.858Z,42641,-0.12646484,0.9890747,-0.18762207
1725950337893,2024-09-10T06:38:57.893Z,42676,-0.11767578,0.9816284,-0.18554688
1725950337942,2024-09-10T06:38:57.942Z,42725,-0.10882568,0.97039795,-0.17364502
1725950337960,2024-09-10T06:38:57.960Z,42743,-0.113708496,0.97698975,-0.17120361
1725950337991,2024-09-10T06:38:57.991Z,42774,-0.11584473,0.9972534,-0.16210938
1725950338027,2024-09-10T06:38:58.027Z,42810,-0.0927124,1.0081177,-0.16937256
1725950338074,2024-09-10T06:38:58.074Z,42857,-0.09515381,0.9935913,-0.15625
1725950338121,2024-09-10T06:38:58.121Z,42904,-0.0982666,0.9751587,-0.13604736
1725950338211,2024-09-10T06:38:58.211Z,42994,-0.096191406,0.9613037,-0.12719727
1725950338232,2024-09-10T06:38:58.232Z,43015,-0.11230469,0.94854736,-0.115112305
1725950338259,2024-09-10T06:38:58.259Z,43042,-0.10223389,0.94866943,-0.11340332
1725950338298,2024-09-10T06:38:58.298Z,43081,-0.06817627,0.9659424,-0.09301758
1725950338344,2024-09-10T06:38:58.344Z,43127,-0.10443115,0.9824219,-0.08892822
1725950338360,2024-09-10T06:38:58.360Z,43143,-0.09075928,1.0006104,-0.10308838
1725950338387,2024-09-10T06:38:58.387Z,43170,-0.093933105,1.0085449,-0.078552246
1725950338433,2024-09-10T06:38:58.433Z,43216,-0.09844971,1.0161743,-0.043823242
1725950338479,2024-09-10T06:38:58.479Z,43262,-0.09869385,1.0046997,-0.051635742
1725950338524,2024-09-10T06:38:58.524Z,43307,-0.08477783,1.0059204,-0.062316895
1725950338572,2024-09-10T06:38:58.572Z,43355,-0.094055176,1.0203247,-0.07330322
1725950338616,2024-09-10T06:38:58.616Z,43399,-0.07727051,1.0128784,-0.083618164
1725950338661,2024-09-10T06:38:58.661Z,43444,-0.06097412,0.99713135,-0.09094238
1725950338705,2024-09-10T06:38:58.705Z,43488,-0.057861328,0.97998047,-0.055236816
1725950338749,2024-09-10T06:38:58.749Z,43532,-0.051696777,0.95910645,-0.059936523
1725950338768,2024-09-10T06:38:58.768Z,43551,-0.03515625,0.9534912,-0.06793213
1725950338791,2024-09-10T06:38:58.791Z,43574,-0.04888916,0.9577637,-0.05645752
1725950338838,2024-09-10T06:38:58.838Z,43621,-0.066223145,0.96972656,-0.06732178
1725950338884,2024-09-10T06:38:58.884Z,43667,-0.04901123,0.97875977,-0.054992676
1725950338928,2024-09-10T06:38:58.928Z,43711,-0.07788086,1.0,-0.026123047
1725950338973,2024-09-10T06:38:58.973Z,43756,-0.085876465,1.0077515,-0.015930176
1725950339019,2024-09-10T06:38:59.019Z,43802,-0.103271484,1.0022583,-0.013061523
1725950339063,2024-09-10T06:38:59.063Z,43846,-0.08728027,0.9984131,-0.028320312
1725950339109,2024-09-10T06:38:59.109Z,43892,-0.074523926,0.99072266,-0.049804688
1725950339154,2024-09-10T06:38:59.154Z,43937,-0.07720947,0.99035645,-0.060791016
1725950339173,2024-09-10T06:38:59.173Z,43956,-0.068603516,0.9904175,-0.095825195
1725950339199,2024-09-10T06:38:59.199Z,43982,-0.06652832,0.9871216,-0.10437012
1725950339250,2024-09-10T06:38:59.250Z,44033,-0.07312012,0.98895264,-0.11303711
1725950339289,2024-09-10T06:38:59.289Z,44072,-0.078125,0.98638916,-0.11230469
1725950339426,2024-09-10T06:38:59.426Z,44209,-0.08605957,0.9868164,-0.11541748
1725950339447,2024-09-10T06:38:59.447Z,44230,-0.09289551,0.9834595,-0.121276855
1725950339468,2024-09-10T06:38:59.468Z,44251,-0.08758545,0.9893799,-0.12585449
1725950339486,2024-09-10T06:38:59.486Z,44269,-0.0927124,0.984375,-0.13543701
1725950339512,2024-09-10T06:38:59.512Z,44295,-0.096191406,0.98742676,-0.13684082
1725950339558,2024-09-10T06:38:59.558Z,44341,-0.11016846,1.0140991,-0.14770508
1725950339605,2024-09-10T06:38:59.605Z,44388,-0.11395264,1.0170288,-0.15289307
1725950339625,2024-09-10T06:38:59.625Z,44408,-0.124938965,0.99884033,-0.15362549
1725950339650,2024-09-10T06:38:59.650Z,44433,-0.12371826,0.9719238,-0.15209961
1725950339696,2024-09-10T06:38:59.696Z,44479,-0.10601807,0.95269775,-0.15979004
1725950339740,2024-09-10T06:38:59.740Z,44523,-0.10949707,0.9661255,-0.16436768
1725950339786,2024-09-10T06:38:59.786Z,44569,-0.10070801,0.9945679,-0.17755127
1725950339828,2024-09-10T06:38:59.828Z,44611,-0.119140625,1.0010986,-0.20214844
1725950339876,2024-09-10T06:38:59.876Z,44659,-0.13916016,0.980896,-0.20568848
1725950339921,2024-09-10T06:38:59.921Z,44704,-0.14422607,0.98327637,-0.20098877
1725950339966,2024-09-10T06:38:59.966Z,44749,-0.12249756,0.97998047,-0.19238281
1725950340010,2024-09-10T06:39:00.010Z,44793,-0.13018799,0.9772949,-0.19567871
1725950340027,2024-09-10T06:39:00.027Z,44810,-0.1362915,0.9772339,-0.20440674
1725950340058,2024-09-10T06:39:00.058Z,44841,-0.13446045,0.9782715,-0.21258545
1725950340097,2024-09-10T06:39:00.097Z,44880,-0.14331055,0.9782715,-0.22247314
1725950340143,2024-09-10T06:39:00.143Z,44926,-0.13842773,0.96936035,-0.206604
1725950340191,2024-09-10T06:39:00.191Z,44974,-0.14581299,0.96136475,-0.19793701
1725950340233,2024-09-10T06:39:00.233Z,45016,-0.1383667,0.9628906,-0.20245361
1725950340277,2024-09-10T06:39:00.277Z,45060,-0.1305542,0.9885254,-0.2243042
1725950340322,2024-09-10T06:39:00.322Z,45105,-0.14221191,0.9980469,-0.22277832
1725950340368,2024-09-10T06:39:00.368Z,45151,-0.15057373,0.98339844,-0.22454834
1725950340412,2024-09-10T06:39:00.412Z,45195,-0.12939453,0.9696655,-0.22143555
1725950340428,2024-09-10T06:39:00.428Z,45211,-0.12524414,0.9529419,-0.21362305
1725950340456,2024-09-10T06:39:00.456Z,45239,-0.12591553,0.960083,-0.2276001
1725950340504,2024-09-10T06:39:00.504Z,45287,-0.12841797,0.9793091,-0.24194336
1725950340547,2024-09-10T06:39:00.547Z,45330,-0.14068604,0.9859009,-0.23651123
1725950340593,2024-09-10T06:39:00.593Z,45376,-0.13934326,0.9890137,-0.23095703
1725950340639,2024-09-10T06:39:00.639Z,45422,-0.12475586,0.9869995,-0.23461914
1725950340686,2024-09-10T06:39:00.686Z,45469,-0.1359253,0.9796753,-0.2376709
1725950340729,2024-09-10T06:39:00.729Z,45512,-0.1375122,0.97283936,-0.22937012
1725950340773,2024-09-10T06:39:00.773Z,45556,-0.12902832,0.98846436,-0.23883057
1725950340821,2024-09-10T06:39:00.821Z,45604,-0.12988281,0.9802246,-0.23944092
1725950340863,2024-09-10T06:39:00.863Z,45646,-0.13543701,0.9674072,-0.24023438
1725950340881,2024-09-10T06:39:00.881Z,45664,-0.14282227,0.9614868,-0.24145508
1725950340907,2024-09-10T06:39:00.907Z,45690,-0.13500977,0.96154785,-0.23480225
1725950341001,2024-09-10T06:39:01.001Z,45784,-0.13671875,0.9623413,-0.23858643
1725950341019,2024-09-10T06:39:01.019Z,45802,-0.13793945,0.95892334,-0.2388916
1725950341040,2024-09-10T06:39:01.040Z,45823,-0.13720703,0.9561157,-0.24084473
1725950341089,2024-09-10T06:39:01.089Z,45872,-0.14056396,0.9576416,-0.24468994
1725950341134,2024-09-10T06:39:01.134Z,45917,-0.13360596,0.9501343,-0.2376709
1725950341179,2024-09-10T06:39:01.179Z,45962,-0.14331055,0.928772,-0.2456665
1725950341224,2024-09-10T06:39:01.224Z,46007,-0.13665771,0.9417114,-0.25335693
1725950341269,2024-09-10T06:39:01.269Z,46052,-0.14031982,0.95806885,-0.24902344
1725950341288,2024-09-10T06:39:01.288Z,46071,-0.14508057,0.95770264,-0.25836182
1725950341311,2024-09-10T06:39:01.311Z,46094,-0.14477539,0.9570923,-0.26257324
1725950341360,2024-09-10T06:39:01.360Z,46143,-0.15002441,0.96728516,-0.27514648
1725950341404,2024-09-10T06:39:01.404Z,46187,-0.15600586,0.9717407,-0.29351807
1725950341446,2024-09-10T06:39:01.446Z,46229,-0.14434814,0.9779663,-0.28466797
1725950341492,2024-09-10T06:39:01.492Z,46275,-0.14801025,0.963501,-0.26019287
1725950341538,2024-09-10T06:39:01.538Z,46321,-0.14691162,0.9533081,-0.28497314
1725950341583,2024-09-10T06:39:01.583Z,46366,-0.14001465,0.9592285,-0.2944336
1725950341629,2024-09-10T06:39:01.629Z,46412,-0.14978027,0.9800415,-0.29821777
1725950341674,2024-09-10T06:39:01.674Z,46457,-0.14923096,0.97662354,-0.2987671
1725950341694,2024-09-10T06:39:01.694Z,46477,-0.15924072,0.9647217,-0.28167725
1725950341719,2024-09-10T06:39:01.719Z,46502,-0.16619873,0.9628296,-0.28875732
1725950341764,2024-09-10T06:39:01.764Z,46547,-0.1671753,0.9798584,-0.3126831
1725950341810,2024-09-10T06:39:01.810Z,46593,-0.16864014,0.9941406,-0.3118286
1725950341855,2024-09-10T06:39:01.855Z,46638,-0.18920898,0.9899292,-0.30371094
1725950341901,2024-09-10T06:39:01.901Z,46684,-0.1829834,0.9816284,-0.29681396
1725950341953,2024-09-10T06:39:01.953Z,46736,-0.18328857,0.9678955,-0.3071289
1725950342035,2024-09-10T06:39:02.035Z,46818,-0.1628418,0.9723511,-0.3032837
1725950342053,2024-09-10T06:39:02.053Z,46836,-0.15509033,0.98217773,-0.30212402
1725950342078,2024-09-10T06:39:02.078Z,46861,-0.16326904,0.9800415,-0.31726074
1725950342124,2024-09-10T06:39:02.124Z,46907,-0.17730713,0.97473145,-0.32989502
1725950342141,2024-09-10T06:39:02.141Z,46924,-0.17108154,0.9884033,-0.30413818
1725950342168,2024-09-10T06:39:02.168Z,46951,-0.17840576,0.97283936,-0.30456543
1725950342214,2024-09-10T06:39:02.214Z,46997,-0.15795898,0.95581055,-0.31530762
1725950342260,2024-09-10T06:39:02.260Z,47043,-0.16827393,0.9506836,-0.31518555
1725950342349,2024-09-10T06:39:02.349Z,47132,-0.14849854,0.9581909,-0.3104248
1725950342368,2024-09-10T06:39:02.368Z,47151,-0.1486206,0.9536133,-0.31378174
1725950342394,2024-09-10T06:39:02.394Z,47177,-0.15026855,0.9404297,-0.31176758
1725950342438,2024-09-10T06:39:02.438Z,47221,-0.14959717,0.9398804,-0.30932617
1725950342483,2024-09-10T06:39:02.483Z,47266,-0.14666748,0.95410156,-0.30456543
1725950342530,2024-09-10T06:39:02.530Z,47313,-0.1439209,0.96417236,-0.31689453
1725950342547,2024-09-10T06:39:02.547Z,47330,-0.15771484,0.9647827,-0.3274536
1725950342573,2024-09-10T06:39:02.573Z,47356,-0.15539551,0.98114014,-0.32330322
1725950342619,2024-09-10T06:39:02.619Z,47402,-0.15722656,1.0046387,-0.32684326
1725950342665,2024-09-10T06:39:02.665Z,47448,-0.16174316,1.0195312,-0.33874512
1725950342710,2024-09-10T06:39:02.710Z,47493,-0.16296387,1.0331421,-0.3369751
1725950342756,2024-09-10T06:39:02.756Z,47539,-0.16815186,1.0309448,-0.33770752
1725950342800,2024-09-10T06:39:02.800Z,47583,-0.16656494,1.0358887,-0.335083
1725950342844,2024-09-10T06:39:02.844Z,47627,-0.15899658,1.0199585,-0.32659912
1725950342888,2024-09-10T06:39:02.888Z,47671,-0.15667725,1.0070801,-0.32531738
1725950342937,2024-09-10T06:39:02.937Z,47720,-0.15698242,0.99505615,-0.32617188
1725950342954,2024-09-10T06:39:02.954Z,47737,-0.16009521,0.9841919,-0.3065796
1725950342976,2024-09-10T06:39:02.976Z,47759,-0.1529541,0.9716797,-0.30548096
1725950343024,2024-09-10T06:39:03.024Z,47807,-0.15533447,0.9604492,-0.30914307
1725950343069,2024-09-10T06:39:03.069Z,47852,-0.14593506,0.9694214,-0.29058838
1725950343113,2024-09-10T06:39:03.113Z,47896,-0.15136719,0.9674072,-0.27526855
1725950343160,2024-09-10T06:39:03.160Z,47943,-0.15557861,0.9674072,-0.29058838
1725950343203,2024-09-10T06:39:03.203Z,47986,-0.14697266,0.9649658,-0.28912354
1725950343248,2024-09-10T06:39:03.248Z,48031,-0.15539551,0.9753418,-0.2810669
1725950343293,2024-09-10T06:39:03.293Z,48076,-0.152771,1.0123901,-0.28955078
1725950343338,2024-09-10T06:39:03.338Z,48121,-0.1685791,1.0182495,-0.28216553
1725950343432,2024-09-10T06:39:03.432Z,48215,-0.17938232,1.00354,-0.27746582
1725950343450,2024-09-10T06:39:03.450Z,48233,-0.16473389,1.0046387,-0.26965332
1725950343468,2024-09-10T06:39:03.468Z,48251,-0.15045166,0.9989624,-0.26727295
1725950343524,2024-09-10T06:39:03.524Z,48307,-0.1586914,0.98657227,-0.27166748
1725950343543,2024-09-10T06:39:03.543Z,48326,-0.15539551,0.97528076,-0.26965332
1725950343565,2024-09-10T06:39:03.565Z,48348,-0.16119385,0.97442627,-0.2609253
1725950343610,2024-09-10T06:39:03.610Z,48393,-0.15130615,0.9677124,-0.25341797
1725950343655,2024-09-10T06:39:03.655Z,48438,-0.1619873,0.94311523,-0.25134277
1725950343700,2024-09-10T06:39:03.700Z,48483,-0.15612793,0.95147705,-0.2444458
1725950343744,2024-09-10T06:39:03.744Z,48527,-0.15100098,0.9505005,-0.24291992
1725950343792,2024-09-10T06:39:03.792Z,48575,-0.1593628,0.9324951,-0.2477417
1725950343808,2024-09-10T06:39:03.808Z,48591,-0.16674805,0.92700195,-0.23657227
1725950343832,2024-09-10T06:39:03.832Z,48615,-0.14807129,0.9333496,-0.22503662
1725950343878,2024-09-10T06:39:03.878Z,48661,-0.14624023,0.93981934,-0.22619629
1725950343924,2024-09-10T06:39:03.924Z,48707,-0.15740967,0.9520874,-0.23034668
1725950343969,2024-09-10T06:39:03.969Z,48752,-0.15856934,0.96661377,-0.23791504
1725950344016,2024-09-10T06:39:04.016Z,48799,-0.14941406,0.9725952,-0.22711182
1725950344060,2024-09-10T06:39:04.060Z,48843,-0.14691162,0.9737549,-0.2140503
1725950344103,2024-09-10T06:39:04.103Z,48886,-0.14678955,0.9672241,-0.22131348
1725950344148,2024-09-10T06:39:04.148Z,48931,-0.16247559,0.9533081,-0.22314453
1725950344195,2024-09-10T06:39:04.195Z,48978,-0.13397217,0.96936035,-0.21472168
1725950344212,2024-09-10T06:39:04.212Z,48995,-0.14770508,0.9859619,-0.20703125
1725950344238,2024-09-10T06:39:04.238Z,49021,-0.15600586,0.9841919,-0.21179199
1725950344330,2024-09-10T06:39:04.330Z,49113,-0.13891602,0.98620605,-0.206604
1725950344348,2024-09-10T06:39:04.348Z,49131,-0.16864014,0.98309326,-0.21618652
1725950344373,2024-09-10T06:39:04.373Z,49156,-0.15881348,0.9667969,-0.20251465
1725950344427,2024-09-10T06:39:04.427Z,49210,-0.13665771,0.95532227,-0.18829346
1725950344464,2024-09-10T06:39:04.464Z,49247,-0.1295166,0.9468384,-0.1854248
1725950344509,2024-09-10T06:39:04.509Z,49292,-0.1430664,0.9595947,-0.18603516
1725950344555,2024-09-10T06:39:04.555Z,49338,-0.13439941,1.0038452,-0.19128418
1725950344599,2024-09-10T06:39:04.599Z,49382,-0.1451416,1.0140381,-0.18011475
1725950344643,2024-09-10T06:39:04.643Z,49426,-0.16680908,1.00354,-0.18719482
1725950344660,2024-09-10T06:39:04.660Z,49443,-0.15429688,0.9828491,-0.16864014
1725950344698,2024-09-10T06:39:04.698Z,49481,-0.13757324,0.963562,-0.14520264
1725950344733,2024-09-10T06:39:04.733Z,49516,-0.14050293,0.94659424,-0.13562012
1725950344778,2024-09-10T06:39:04.778Z,49561,-0.11151123,0.9499512,-0.14672852
1725950344823,2024-09-10T06:39:04.823Z,49606,-0.14141846,0.9642334,-0.13800049
1725950344869,2024-09-10T06:39:04.869Z,49652,-0.15374756,0.9796753,-0.15740967
1725950344915,2024-09-10T06:39:04.915Z,49698,-0.15252686,0.98553467,-0.13574219
1725950344958,2024-09-10T06:39:04.958Z,49741,-0.15203857,0.9812012,-0.107421875
1725950345004,2024-09-10T06:39:05.004Z,49787,-0.15905762,0.9711914,-0.0970459
1725950345051,2024-09-10T06:39:05.051Z,49834,-0.1484375,0.98602295,-0.101745605
1725950345070,2024-09-10T06:39:05.070Z,49853,-0.12945557,0.99035645,-0.07446289
1725950345092,2024-09-10T06:39:05.092Z,49875,-0.119506836,0.99884033,-0.08526611
1725950345137,2024-09-10T06:39:05.137Z,49920,-0.1194458,0.98999023,-0.099487305
1725950345185,2024-09-10T06:39:05.185Z,49968,-0.12231445,0.98669434,-0.093322754
1725950345273,2024-09-10T06:39:05.273Z,50056,-0.112976074,0.98339844,-0.10424805
1725950345292,2024-09-10T06:39:05.292Z,50075,-0.11047363,0.9885864,-0.119384766
1725950345318,2024-09-10T06:39:05.318Z,50101,-0.090270996,0.97528076,-0.12567139
1725950345372,2024-09-10T06:39:05.372Z,50155,-0.09515381,0.97216797,-0.10992432
1725950345453,2024-09-10T06:39:05.453Z,50236,-0.08721924,0.9713745,-0.09375
1725950345469,2024-09-10T06:39:05.469Z,50252,-0.09222412,0.9916992,-0.058654785
1725950345486,2024-09-10T06:39:05.486Z,50269,-0.099121094,0.9970703,-0.019470215
1725950345502,2024-09-10T06:39:05.502Z,50285,-0.105163574,1.0084839,-0.015258789
1725950345587,2024-09-10T06:39:05.587Z,50370,-0.12432861,1.0157471,-0.051818848
1725950345603,2024-09-10T06:39:05.603Z,50386,-0.123168945,1.0248413,-0.084106445
1725950345632,2024-09-10T06:39:05.632Z,50415,-0.11773682,0.99975586,-0.08148193
1725950345678,2024-09-10T06:39:05.678Z,50461,-0.10620117,0.9613037,-0.072021484
1725950345722,2024-09-10T06:39:05.722Z,50505,-0.09466553,0.96954346,-0.049316406
1725950345769,2024-09-10T06:39:05.769Z,50552,-0.0970459,1.0025024,-0.03881836
1725950345813,2024-09-10T06:39:05.813Z,50596,-0.111328125,1.0291138,-0.049560547
1725950345859,2024-09-10T06:39:05.859Z,50642,-0.10876465,1.027832,-0.05303955
1725950345904,2024-09-10T06:39:05.904Z,50687,-0.10406494,0.9968262,-0.055114746
1725950345923,2024-09-10T06:39:05.923Z,50706,-0.107421875,0.96673584,-0.061584473
1725950345948,2024-09-10T06:39:05.948Z,50731,-0.117126465,0.98150635,-0.053527832
1725950345994,2024-09-10T06:39:05.994Z,50777,-0.113098145,1.015625,-0.047180176
1725950346039,2024-09-10T06:39:06.039Z,50822,-0.11566162,1.0244751,-0.047973633
1725950346083,2024-09-10T06:39:06.083Z,50866,-0.11212158,1.0085449,-0.047424316
1725950346128,2024-09-10T06:39:06.128Z,50911,-0.097229004,0.99157715,-0.042236328
1725950346175,2024-09-10T06:39:06.175Z,50958,-0.10229492,0.97473145,-0.048950195
1725950346218,2024-09-10T06:39:06.218Z,51001,-0.10809326,0.96380615,-0.060546875
1725950346264,2024-09-10T06:39:06.264Z,51047,-0.10668945,0.9711914,-0.058288574
1725950346321,2024-09-10T06:39:06.321Z,51104,-0.10247803,0.9998169,-0.061950684
1725950346337,2024-09-10T06:39:06.337Z,51120,-0.09844971,1.0371704,-0.05706787
1725950346354,2024-09-10T06:39:06.354Z,51137,-0.101135254,1.0411377,-0.058288574
1725950346399,2024-09-10T06:39:06.399Z,51182,-0.10131836,1.0271606,-0.064941406
1725950346444,2024-09-10T06:39:06.444Z,51227,-0.09716797,1.0084229,-0.055664062
1725950346490,2024-09-10T06:39:06.490Z,51273,-0.10247803,0.9951172,-0.0635376
1725950346535,2024-09-10T06:39:06.535Z,51318,-0.11706543,0.98760986,-0.061950684
1725950346581,2024-09-10T06:39:06.581Z,51364,-0.111694336,1.0083618,-0.058654785
1725950346625,2024-09-10T06:39:06.625Z,51408,-0.11273193,1.0151367,-0.05529785
1725950346668,2024-09-10T06:39:06.668Z,51451,-0.11376953,1.0079956,-0.07531738
1725950346714,2024-09-10T06:39:06.714Z,51497,-0.10131836,0.9990845,-0.07067871
1725950346730,2024-09-10T06:39:06.730Z,51513,-0.10180664,0.9904175,-0.06262207
1725950346758,2024-09-10T06:39:06.758Z,51541,-0.10266113,0.9992676,-0.071777344
1725950346803,2024-09-10T06:39:06.803Z,51586,-0.10882568,1.0097046,-0.06536865
1725950346849,2024-09-10T06:39:06.849Z,51632,-0.107666016,1.013855,-0.07727051
1725950346937,2024-09-10T06:39:06.937Z,51720,-0.1081543,1.0147705,-0.08721924
1725950346956,2024-09-10T06:39:06.956Z,51739,-0.10205078,1.0189819,-0.07287598
1725950346984,2024-09-10T06:39:06.984Z,51767,-0.107177734,0.99316406,-0.06732178
1725950347026,2024-09-10T06:39:07.026Z,51809,-0.091430664,0.9691162,-0.077819824
1725950347073,2024-09-10T06:39:07.073Z,51856,-0.10192871,0.97698975,-0.07989502
1725950347119,2024-09-10T06:39:07.119Z,51902,-0.107910156,0.99768066,-0.080200195
1725950347163,2024-09-10T06:39:07.163Z,51946,-0.10839844,1.0128784,-0.07946777
1725950347179,2024-09-10T06:39:07.179Z,51962,-0.11505127,1.0149536,-0.09350586
1725950347208,2024-09-10T06:39:07.208Z,51991,-0.11413574,0.99090576,-0.09173584
1725950347253,2024-09-10T06:39:07.253Z,52036,-0.10827637,0.98583984,-0.08001709
1725950347298,2024-09-10T06:39:07.298Z,52081,-0.09686279,0.9769287,-0.07159424
1725950347345,2024-09-10T06:39:07.345Z,52128,-0.107055664,0.9834595,-0.08538818
1725950347387,2024-09-10T06:39:07.387Z,52170,-0.10668945,0.98461914,-0.087524414
1725950347433,2024-09-10T06:39:07.433Z,52216,-0.10656738,0.99053955,-0.092285156
1725950347481,2024-09-10T06:39:07.481Z,52264,-0.10986328,0.9927368,-0.101989746
1725950347524,2024-09-10T06:39:07.524Z,52307,-0.10443115,0.99102783,-0.10864258
1725950347580,2024-09-10T06:39:07.580Z,52363,-0.10772705,0.99224854,-0.11218262
1725950347599,2024-09-10T06:39:07.599Z,52382,-0.11633301,0.9944458,-0.10760498
1725950347616,2024-09-10T06:39:07.616Z,52399,-0.121398926,1.0057983,-0.111450195
1725950347659,2024-09-10T06:39:07.659Z,52442,-0.12054443,1.0122681,-0.10888672
1725950347704,2024-09-10T06:39:07.704Z,52487,-0.14038086,1.010376,-0.10974121
1725950347747,2024-09-10T06:39:07.747Z,52530,-0.13983154,1.0317383,-0.11846924
1725950347794,2024-09-10T06:39:07.794Z,52577,-0.13922119,1.0240479,-0.12658691
1725950347838,2024-09-10T06:39:07.838Z,52621,-0.12005615,1.0047607,-0.13452148
1725950347883,2024-09-10T06:39:07.883Z,52666,-0.120666504,0.9935913,-0.12628174
1725950347929,2024-09-10T06:39:07.929Z,52712,-0.12976074,0.9885254,-0.1171875
1725950347974,2024-09-10T06:39:07.974Z,52757,-0.13470459,0.99438477,-0.122802734
1725950347991,2024-09-10T06:39:07.991Z,52774,-0.12884521,1.0084229,-0.11383057
1725950348017,2024-09-10T06:39:08.017Z,52800,-0.14068604,1.0040283,-0.10571289
1725950348064,2024-09-10T06:39:08.064Z,52847,-0.1428833,0.9916992,-0.11077881
1725950348108,2024-09-10T06:39:08.108Z,52891,-0.123413086,1.0026245,-0.101379395
1725950348153,2024-09-10T06:39:08.153Z,52936,-0.12487793,0.99053955,-0.10601807
1725950348197,2024-09-10T06:39:08.197Z,52980,-0.13006592,0.9724121,-0.13500977
1725950348243,2024-09-10T06:39:08.243Z,53026,-0.12451172,0.96606445,-0.13378906
1725950348290,2024-09-10T06:39:08.290Z,53073,-0.13208008,0.9700928,-0.15039062
1725950348335,2024-09-10T06:39:08.335Z,53118,-0.13092041,0.9645386,-0.15246582
1725950348379,2024-09-10T06:39:08.379Z,53162,-0.13562012,0.9692993,-0.15661621
1725950348424,2024-09-10T06:39:08.424Z,53207,-0.13153076,0.9796753,-0.15759277
1725950348442,2024-09-10T06:39:08.442Z,53225,-0.14501953,0.9883423,-0.16101074
1725950348468,2024-09-10T06:39:08.468Z,53251,-0.15020752,0.9812622,-0.16992188
1725950348514,2024-09-10T06:39:08.514Z,53297,-0.14575195,0.9760132,-0.16522217
1725950348557,2024-09-10T06:39:08.557Z,53340,-0.14221191,0.9828491,-0.15716553
1725950348604,2024-09-10T06:39:08.604Z,53387,-0.1437378,0.9864502,-0.16467285
1725950348648,2024-09-10T06:39:08.648Z,53431,-0.1461792,0.97576904,-0.17028809
1725950348694,2024-09-10T06:39:08.694Z,53477,-0.14190674,0.9764404,-0.17382812
1725950348740,2024-09-10T06:39:08.740Z,53523,-0.15893555,0.9725342,-0.1906128
1725950348786,2024-09-10T06:39:08.786Z,53569,-0.11975098,0.98010254,-0.20263672
1725950348830,2024-09-10T06:39:08.830Z,53613,-0.15899658,0.95739746,-0.21362305
1725950348850,2024-09-10T06:39:08.850Z,53633,-0.14233398,0.9689331,-0.20184326
1725950348873,2024-09-10T06:39:08.873Z,53656,-0.117370605,0.9668579,-0.20281982
1725950348917,2024-09-10T06:39:08.917Z,53700,-0.14215088,0.9807739,-0.23565674
1725950348963,2024-09-10T06:39:08.963Z,53746,-0.14422607,0.98724365,-0.22955322
1725950349008,2024-09-10T06:39:09.008Z,53791,-0.144104,0.9934082,-0.23632812
1725950349054,2024-09-10T06:39:09.054Z,53837,-0.12445068,0.9760742,-0.22949219
1725950349097,2024-09-10T06:39:09.097Z,53880,-0.12982178,0.97369385,-0.24334717
1725950349142,2024-09-10T06:39:09.142Z,53925,-0.14123535,0.96624756,-0.24060059
1725950349187,2024-09-10T06:39:09.187Z,53970,-0.13623047,0.9678345,-0.23522949
1725950349232,2024-09-10T06:39:09.232Z,54015,-0.13201904,0.9536743,-0.2368164
1725950349247,2024-09-10T06:39:09.247Z,54030,-0.124694824,0.94104004,-0.24475098
1725950349277,2024-09-10T06:39:09.277Z,54060,-0.1395874,0.9520874,-0.2522583
1725950349325,2024-09-10T06:39:09.325Z,54108,-0.14031982,0.94348145,-0.24822998
1725950349367,2024-09-10T06:39:09.367Z,54150,-0.14971924,0.93829346,-0.25646973
1725950349413,2024-09-10T06:39:09.413Z,54196,-0.13690186,0.94940186,-0.2510376
1725950349460,2024-09-10T06:39:09.460Z,54243,-0.14758301,0.97961426,-0.26623535
1725950349502,2024-09-10T06:39:09.502Z,54285,-0.15454102,0.97454834,-0.27819824
1725950349549,2024-09-10T06:39:09.549Z,54332,-0.16052246,0.98028564,-0.28277588
1725950349595,2024-09-10T06:39:09.595Z,54378,-0.15075684,0.9908447,-0.2803955
1725950349686,2024-09-10T06:39:09.686Z,54469,-0.14556885,0.9760132,-0.27612305
1725950349703,2024-09-10T06:39:09.703Z,54486,-0.16833496,0.95428467,-0.2783203
1725950349720,2024-09-10T06:39:09.720Z,54503,-0.15637207,0.94299316,-0.28253174
1725950349736,2024-09-10T06:39:09.736Z,54519,-0.14715576,0.9569092,-0.293396
1725950349772,2024-09-10T06:39:09.772Z,54555,-0.15258789,0.960022,-0.27868652
1725950349820,2024-09-10T06:39:09.820Z,54603,-0.16705322,0.95043945,-0.28771973
1725950349910,2024-09-10T06:39:09.910Z,54693,-0.15484619,0.960022,-0.29125977
1725950349926,2024-09-10T06:39:09.926Z,54709,-0.15216064,0.9628296,-0.29559326
1725950349953,2024-09-10T06:39:09.953Z,54736,-0.15478516,0.9672241,-0.29107666
1725950350005,2024-09-10T06:39:10.005Z,54788,-0.16870117,0.95770264,-0.30108643
1725950350045,2024-09-10T06:39:10.045Z,54828,-0.15478516,0.9532471,-0.30529785
1725950350088,2024-09-10T06:39:10.088Z,54871,-0.15045166,0.9610596,-0.3017578
1725950350103,2024-09-10T06:39:10.103Z,54886,-0.15570068,0.9593506,-0.302063
1725950350141,2024-09-10T06:39:10.141Z,54924,-0.16003418,0.95111084,-0.29589844
1725950350178,2024-09-10T06:39:10.178Z,54961,-0.15905762,0.9475708,-0.3032837
1725950350271,2024-09-10T06:39:10.271Z,55054,-0.15344238,0.9552002,-0.3046875
1725950350290,2024-09-10T06:39:10.290Z,55073,-0.16278076,0.94854736,-0.31469727
1725950350313,2024-09-10T06:39:10.313Z,55096,-0.15545654,0.9503174,-0.31549072
1725950350357,2024-09-10T06:39:10.357Z,55140,-0.15466309,0.95233154,-0.30413818
1725950350404,2024-09-10T06:39:10.404Z,55187,-0.15917969,0.960022,-0.31976318
1725950350449,2024-09-10T06:39:10.449Z,55232,-0.16052246,0.9725952,-0.3178711
1725950350493,2024-09-10T06:39:10.493Z,55276,-0.168396,0.97576904,-0.3250122
1725950350511,2024-09-10T06:39:10.511Z,55294,-0.175354,0.96777344,-0.3397827
1725950350538,2024-09-10T06:39:10.538Z,55321,-0.16809082,0.96691895,-0.3242798
1725950350628,2024-09-10T06:39:10.628Z,55411,-0.16900635,0.96691895,-0.31750488
1725950350645,2024-09-10T06:39:10.645Z,55428,-0.16662598,0.9602661,-0.32751465
1725950350717,2024-09-10T06:39:10.717Z,55500,-0.16900635,0.9640503,-0.33416748
1725950350733,2024-09-10T06:39:10.733Z,55516,-0.17462158,0.9594116,-0.32330322
1725950350761,2024-09-10T06:39:10.761Z,55544,-0.17456055,0.94866943,-0.3126831
1725950350810,2024-09-10T06:39:10.810Z,55593,-0.16998291,0.94873047,-0.32092285
1725950350853,2024-09-10T06:39:10.853Z,55636,-0.16265869,0.95684814,-0.3357544
1725950350899,2024-09-10T06:39:10.899Z,55682,-0.17199707,0.953125,-0.32641602
1725950350943,2024-09-10T06:39:10.943Z,55726,-0.17706299,0.9465332,-0.31951904
1725950350959,2024-09-10T06:39:10.959Z,55742,-0.17108154,0.94696045,-0.32348633
1725950350987,2024-09-10T06:39:10.987Z,55770,-0.1739502,0.9435425,-0.3265381
1725950351032,2024-09-10T06:39:11.032Z,55815,-0.16772461,0.9381714,-0.32110596
1725950351077,2024-09-10T06:39:11.077Z,55860,-0.16571045,0.9404907,-0.31982422
1725950351126,2024-09-10T06:39:11.126Z,55909,-0.16668701,0.9532471,-0.32592773
1725950351212,2024-09-10T06:39:11.212Z,55995,-0.17315674,0.96710205,-0.3347168
1725950351227,2024-09-10T06:39:11.227Z,56010,-0.1765747,0.96777344,-0.3305664
1725950351256,2024-09-10T06:39:11.256Z,56039,-0.17138672,0.97088623,-0.3289795
1725950351303,2024-09-10T06:39:11.303Z,56086,-0.16967773,0.96936035,-0.32757568
1725950351349,2024-09-10T06:39:11.349Z,56132,-0.1774292,0.9621582,-0.33258057
1725950351370,2024-09-10T06:39:11.370Z,56153,-0.17211914,0.96307373,-0.33587646
1725950351395,2024-09-10T06:39:11.395Z,56178,-0.17559814,0.9649658,-0.3366089
1725950351439,2024-09-10T06:39:11.439Z,56222,-0.1706543,0.96429443,-0.32598877
1725950351488,2024-09-10T06:39:11.488Z,56271,-0.1696167,0.96307373,-0.3218994
1725950351529,2024-09-10T06:39:11.529Z,56312,-0.16821289,0.9590454,-0.3244629
1725950351575,2024-09-10T06:39:11.575Z,56358,-0.16918945,0.9585571,-0.32843018
1725950351619,2024-09-10T06:39:11.619Z,56402,-0.16809082,0.96728516,-0.32989502
1725950351664,2024-09-10T06:39:11.664Z,56447,-0.16668701,0.99591064,-0.33062744
1725950351708,2024-09-10T06:39:11.708Z,56491,-0.17767334,1.0142212,-0.33880615
1725950351753,2024-09-10T06:39:11.753Z,56536,-0.18457031,1.027771,-0.35028076
1725950351805,2024-09-10T06:39:11.805Z,56588,-0.18634033,1.0370483,-0.34246826
1725950351823,2024-09-10T06:39:11.823Z,56606,-0.19158936,1.0307617,-0.33996582
1725950351843,2024-09-10T06:39:11.843Z,56626,-0.1831665,1.0335083,-0.3255005
1725950351888,2024-09-10T06:39:11.888Z,56671,-0.1651001,1.0422363,-0.33013916
1725950351932,2024-09-10T06:39:11.932Z,56715,-0.1763916,1.0425415,-0.33294678
1725950351980,2024-09-10T06:39:11.980Z,56763,-0.17010498,1.038269,-0.32513428
1725950352023,2024-09-10T06:39:12.023Z,56806,-0.16339111,1.019104,-0.30255127
1725950352069,2024-09-10T06:39:12.069Z,56852,-0.15039062,0.99993896,-0.3133545
1725950352115,2024-09-10T06:39:12.115Z,56898,-0.14978027,0.9803467,-0.29675293
1725950352157,2024-09-10T06:39:12.157Z,56940,-0.15875244,0.9711914,-0.26275635
1725950352173,2024-09-10T06:39:12.173Z,56956,-0.1482544,0.95648193,-0.26098633
1725950352201,2024-09-10T06:39:12.201Z,56984,-0.14923096,0.9503174,-0.27386475
1725950352249,2024-09-10T06:39:12.249Z,57032,-0.15307617,0.9417114,-0.26800537
1725950352292,2024-09-10T06:39:12.292Z,57075,-0.16418457,0.9362793,-0.25531006
1725950352338,2024-09-10T06:39:12.338Z,57121,-0.15325928,0.9338989,-0.24127197
1725950352385,2024-09-10T06:39:12.385Z,57168,-0.14624023,0.932312,-0.23120117
1725950352428,2024-09-10T06:39:12.428Z,57211,-0.1517334,0.9407959,-0.24035645
1725950352474,2024-09-10T06:39:12.474Z,57257,-0.14776611,0.9454346,-0.22229004
1725950352519,2024-09-10T06:39:12.519Z,57302,-0.14453125,0.9560547,-0.22094727
1725950352563,2024-09-10T06:39:12.563Z,57346,-0.14733887,0.96917725,-0.2300415
1725950352607,2024-09-10T06:39:12.607Z,57390,-0.14135742,0.9810791,-0.20672607
1725950352623,2024-09-10T06:39:12.623Z,57406,-0.15057373,0.9746094,-0.21435547
1725950352652,2024-09-10T06:39:12.652Z,57435,-0.14758301,0.97662354,-0.21221924
1725950352699,2024-09-10T06:39:12.699Z,57482,-0.1484375,0.9751587,-0.20562744
1725950352743,2024-09-10T06:39:12.743Z,57526,-0.15106201,0.9724121,-0.20263672
1725950352789,2024-09-10T06:39:12.789Z,57572,-0.14984131,0.96917725,-0.20483398
1725950352834,2024-09-10T06:39:12.834Z,57617,-0.15063477,0.97229004,-0.19610596
1725950352880,2024-09-10T06:39:12.880Z,57663,-0.15411377,0.9701538,-0.18493652
1725950352922,2024-09-10T06:39:12.922Z,57705,-0.15618896,0.9830322,-0.18786621
1725950352968,2024-09-10T06:39:12.968Z,57751,-0.15386963,0.99194336,-0.1828003
1725950353015,2024-09-10T06:39:13.015Z,57798,-0.1453247,0.98205566,-0.1762085
1725950353030,2024-09-10T06:39:13.030Z,57813,-0.13806152,0.970459,-0.17236328
1725950353057,2024-09-10T06:39:13.057Z,57840,-0.1574707,0.9567871,-0.15454102
1725950353103,2024-09-10T06:39:13.103Z,57886,-0.14263916,0.9628296,-0.16619873
1725950353148,2024-09-10T06:39:13.148Z,57931,-0.1361084,0.9536133,-0.15020752
1725950353191,2024-09-10T06:39:13.191Z,57974,-0.13470459,0.9558716,-0.13372803
1725950353237,2024-09-10T06:39:13.237Z,58020,-0.15942383,0.95233154,-0.14398193
1725950353284,2024-09-10T06:39:13.284Z,58067,-0.13928223,0.979126,-0.140625
1725950353329,2024-09-10T06:39:13.329Z,58112,-0.15332031,0.9749756,-0.14007568
1725950353373,2024-09-10T06:39:13.373Z,58156,-0.1564331,0.9749756,-0.13165283
1725950353419,2024-09-10T06:39:13.419Z,58202,-0.1552124,0.9758301,-0.13464355
1725950353438,2024-09-10T06:39:13.438Z,58221,-0.1529541,0.9769287,-0.13214111
1725950353475,2024-09-10T06:39:13.475Z,58258,-0.16400146,0.9647827,-0.11895752
1725950353508,2024-09-10T06:39:13.508Z,58291,-0.14093018,0.96325684,-0.12023926
1725950353555,2024-09-10T06:39:13.555Z,58338,-0.14263916,0.97406006,-0.13146973
1725950353597,2024-09-10T06:39:13.597Z,58380,-0.14160156,0.9879761,-0.11932373
1725950353645,2024-09-10T06:39:13.645Z,58428,-0.13873291,1.0044556,-0.11627197
1725950353688,2024-09-10T06:39:13.688Z,58471,-0.14831543,1.0024414,-0.12976074
1725950353734,2024-09-10T06:39:13.734Z,58517,-0.1508789,0.98828125,-0.12750244
1725950353824,2024-09-10T06:39:13.824Z,58607,-0.1373291,0.9925537,-0.12805176
1725950353842,2024-09-10T06:39:13.842Z,58625,-0.13238525,1.0073853,-0.14123535
1725950353869,2024-09-10T06:39:13.869Z,58652,-0.13830566,1.0028687,-0.13623047
1725950353885,2024-09-10T06:39:13.885Z,58668,-0.12963867,0.9871826,-0.12231445
1725950353912,2024-09-10T06:39:13.912Z,58695,-0.11212158,0.9678955,-0.08721924
1725950353957,2024-09-10T06:39:13.957Z,58740,-0.13116455,0.95874023,-0.07733154
1725950354003,2024-09-10T06:39:14.003Z,58786,-0.13391113,0.98394775,-0.07348633
1725950354048,2024-09-10T06:39:14.048Z,58831,-0.13977051,0.9755249,-0.099243164
1725950354092,2024-09-10T06:39:14.092Z,58875,-0.13793945,0.9824219,-0.09112549
1725950354142,2024-09-10T06:39:14.142Z,58925,-0.14678955,0.9937744,-0.097839355
1725950354185,2024-09-10T06:39:14.185Z,58968,-0.11981201,0.9882202,-0.09686279
1725950354228,2024-09-10T06:39:14.228Z,59011,-0.13208008,0.9949951,-0.08251953
1725950354273,2024-09-10T06:39:14.273Z,59056,-0.12884521,0.98413086,-0.080200195
1725950354289,2024-09-10T06:39:14.289Z,59072,-0.11212158,0.99420166,-0.08703613
1725950354320,2024-09-10T06:39:14.320Z,59103,-0.12133789,0.9706421,-0.08050537
1725950354364,2024-09-10T06:39:14.364Z,59147,-0.10809326,0.9761963,-0.060791016
1725950354408,2024-09-10T06:39:14.408Z,59191,-0.10266113,0.9779663,-0.07861328
1725950354453,2024-09-10T06:39:14.453Z,59236,-0.09100342,0.99383545,-0.07006836
1725950354500,2024-09-10T06:39:14.500Z,59283,-0.09240723,1.0123291,-0.09301758
1725950354543,2024-09-10T06:39:14.543Z,59326,-0.06439209,1.0200195,-0.09851074
1725950354588,2024-09-10T06:39:14.588Z,59371,-0.09649658,1.0155029,-0.10223389
1725950354635,2024-09-10T06:39:14.635Z,59418,-0.07446289,0.9963989,-0.13330078
1725950354677,2024-09-10T06:39:14.677Z,59460,-0.06341553,0.96643066,-0.1362915
1725950354692,2024-09-10T06:39:14.692Z,59475,-0.08239746,0.97698975,-0.12890625
1725950354722,2024-09-10T06:39:14.722Z,59505,-0.085632324,0.99591064,-0.12957764
1725950354768,2024-09-10T06:39:14.768Z,59551,-0.11456299,1.022522,-0.11871338
1725950354812,2024-09-10T06:39:14.812Z,59595,-0.09350586,1.0065918,-0.1239624
1725950354859,2024-09-10T06:39:14.859Z,59642,-0.08215332,0.98999023,-0.1416626
1725950354902,2024-09-10T06:39:14.902Z,59685,-0.07354736,0.9880371,-0.14074707
1725950354950,2024-09-10T06:39:14.950Z,59733,-0.05731201,0.98394775,-0.13574219
1725950354993,2024-09-10T06:39:14.993Z,59776,-0.058166504,0.9780884,-0.12371826
1725950355040,2024-09-10T06:39:15.040Z,59823,-0.07476807,0.9940796,-0.1385498
1725950355085,2024-09-10T06:39:15.085Z,59868,-0.103149414,1.0098877,-0.14868164
1725950355127,2024-09-10T06:39:15.127Z,59910,-0.11273193,1.0050659,-0.14001465
1725950355142,2024-09-10T06:39:15.142Z,59925,-0.096191406,0.98651123,-0.14874268
1725950355173,2024-09-10T06:39:15.173Z,59956,-0.10925293,0.9764404,-0.15893555
1725950355220,2024-09-10T06:39:15.220Z,60003,-0.11645508,0.9869385,-0.17132568
1725950355308,2024-09-10T06:39:15.308Z,60091,-0.11755371,0.9953613,-0.16827393
1725950355328,2024-09-10T06:39:15.328Z,60111,-0.10601807,0.9918823,-0.16851807
1725950355396,2024-09-10T06:39:15.396Z,60179,-0.12701416,0.98217773,-0.17633057
1725950355411,2024-09-10T06:39:15.411Z,60194,-0.12322998,0.9915161,-0.18469238
1725950355443,2024-09-10T06:39:15.443Z,60226,-0.13659668,0.9968262,-0.16931152
1725950355488,2024-09-10T06:39:15.488Z,60271,-0.12817383,0.9869995,-0.1494751
1725950355534,2024-09-10T06:39:15.534Z,60317,-0.13653564,0.98846436,-0.16156006
1725950355550,2024-09-10T06:39:15.550Z,60333,-0.09539795,0.9798584,-0.16485596
1725950355577,2024-09-10T06:39:15.577Z,60360,-0.105407715,0.9968262,-0.17358398
1725950355622,2024-09-10T06:39:15.622Z,60405,-0.12475586,0.9899292,-0.20092773
1725950355669,2024-09-10T06:39:15.669Z,60452,-0.1104126,0.9918213,-0.18127441
1725950355712,2024-09-10T06:39:15.712Z,60495,-0.14489746,1.0030518,-0.17523193
1725950355758,2024-09-10T06:39:15.758Z,60541,-0.1104126,1.0029297,-0.15631104
1725950355804,2024-09-10T06:39:15.804Z,60587,-0.10534668,1.0012207,-0.14886475
1725950355849,2024-09-10T06:39:15.849Z,60632,-0.10223389,0.98791504,-0.16967773
1725950355891,2024-09-10T06:39:15.891Z,60674,-0.09814453,0.99102783,-0.19445801
1725950355939,2024-09-10T06:39:15.939Z,60722,-0.10925293,0.989624,-0.21472168
1725950355955,2024-09-10T06:39:15.955Z,60738,-0.119384766,0.97802734,-0.20831299
1725950355981,2024-09-10T06:39:15.981Z,60764,-0.121398926,0.97314453,-0.2053833
1725950356026,2024-09-10T06:39:16.026Z,60809,-0.11126709,0.9748535,-0.20733643
1725950356075,2024-09-10T06:39:16.075Z,60858,-0.11883545,0.9866333,-0.19195557
1725950356117,2024-09-10T06:39:16.117Z,60900,-0.11621094,1.0067139,-0.18395996
1725950356164,2024-09-10T06:39:16.164Z,60947,-0.12176514,1.0028076,-0.1873169
1725950356209,2024-09-10T06:39:16.209Z,60992,-0.12310791,0.99975586,-0.1873169
1725950356254,2024-09-10T06:39:16.254Z,61037,-0.11328125,0.99572754,-0.17687988
1725950356296,2024-09-10T06:39:16.296Z,61079,-0.112976074,0.9795532,-0.19586182
1725950356346,2024-09-10T06:39:16.346Z,61129,-0.10925293,0.9557495,-0.20257568
1725950356388,2024-09-10T06:39:16.388Z,61171,-0.10546875,0.95147705,-0.20275879
1725950356404,2024-09-10T06:39:16.404Z,61187,-0.10455322,0.94366455,-0.20770264
1725950356476,2024-09-10T06:39:16.476Z,61259,-0.107910156,0.9603882,-0.21936035
1725950356489,2024-09-10T06:39:16.489Z,61272,-0.10479736,0.9633179,-0.21704102
1725950356521,2024-09-10T06:39:16.521Z,61304,-0.105285645,0.9641113,-0.22943115
1725950356569,2024-09-10T06:39:16.569Z,61352,-0.118652344,0.96429443,-0.23791504
1725950356614,2024-09-10T06:39:16.614Z,61397,-0.11138916,0.97613525,-0.2401123
1725950356658,2024-09-10T06:39:16.658Z,61441,-0.1326294,0.9790039,-0.24163818
1725950356702,2024-09-10T06:39:16.702Z,61485,-0.092041016,0.9972534,-0.21203613
1725950356749,2024-09-10T06:39:16.749Z,61532,-0.10253906,0.99450684,-0.22662354
1725950356793,2024-09-10T06:39:16.793Z,61576,-0.08947754,0.99035645,-0.2543335
1725950356808,2024-09-10T06:39:16.808Z,61591,-0.10345459,0.9819336,-0.2600708
1725950356841,2024-09-10T06:39:16.841Z,61624,-0.1027832,0.97216797,-0.2567749
1725950356890,2024-09-10T06:39:16.890Z,61673,-0.115600586,0.9699707,-0.24633789
1725950356926,2024-09-10T06:39:16.926Z,61709,-0.10864258,0.9815674,-0.23046875
1725950356971,2024-09-10T06:39:16.971Z,61754,-0.11340332,0.9790039,-0.20153809
1725950357016,2024-09-10T06:39:17.016Z,61799,-0.09643555,0.96203613,-0.20233154
1725950357062,2024-09-10T06:39:17.062Z,61845,-0.08648682,0.95251465,-0.24072266
1725950357152,2024-09-10T06:39:17.152Z,61935,-0.10095215,0.9350586,-0.2791748
1725950357167,2024-09-10T06:39:17.167Z,61950,-0.109191895,0.9321289,-0.277771
1725950357195,2024-09-10T06:39:17.195Z,61978,-0.14202881,0.9077759,-0.25720215
1725950357207,2024-09-10T06:39:17.207Z,61990,-0.08306885,0.9315796,-0.25512695
1725950357241,2024-09-10T06:39:17.241Z,62024,-0.08911133,0.95080566,-0.28881836
1725950357287,2024-09-10T06:39:17.287Z,62070,-0.14776611,0.9595947,-0.29663086
1725950357332,2024-09-10T06:39:17.332Z,62115,-0.099243164,0.9746094,-0.28204346
1725950357381,2024-09-10T06:39:17.381Z,62164,-0.10601807,0.96313477,-0.2796631
1725950357424,2024-09-10T06:39:17.424Z,62207,-0.0970459,0.9711304,-0.31237793
1725950357470,2024-09-10T06:39:17.470Z,62253,-0.1184082,0.9789429,-0.29125977
1725950357513,2024-09-10T06:39:17.513Z,62296,-0.12866211,0.987854,-0.29107666
1725950357558,2024-09-10T06:39:17.558Z,62341,-0.12414551,0.9733887,-0.28479004
1725950357603,2024-09-10T06:39:17.603Z,62386,-0.10333252,0.9700928,-0.3163452
1725950357648,2024-09-10T06:39:17.648Z,62431,-0.12738037,0.95410156,-0.2960205
1725950357665,2024-09-10T06:39:17.665Z,62448,-0.119018555,0.93322754,-0.30474854
1725950357693,2024-09-10T06:39:17.693Z,62476,-0.09503174,0.9248657,-0.30493164
1725950357739,2024-09-10T06:39:17.739Z,62522,-0.10443115,0.9284668,-0.3022461
1725950357785,2024-09-10T06:39:17.785Z,62568,-0.109191895,0.9483032,-0.31524658
1725950357830,2024-09-10T06:39:17.830Z,62613,-0.13104248,0.94940186,-0.30859375
1725950357873,2024-09-10T06:39:17.873Z,62656,-0.11437988,0.9869385,-0.30792236
1725950357916,2024-09-10T06:39:17.916Z,62699,-0.13446045,0.9979248,-0.3010254
1725950357960,2024-09-10T06:39:17.960Z,62743,-0.13623047,1.0073242,-0.30462646
1725950358009,2024-09-10T06:39:18.009Z,62792,-0.12414551,0.994812,-0.3213501
1725950358055,2024-09-10T06:39:18.055Z,62838,-0.10595703,0.97332764,-0.33703613
1725950358070,2024-09-10T06:39:18.070Z,62853,-0.09698486,0.946167,-0.32641602
1725950358097,2024-09-10T06:39:18.097Z,62880,-0.10644531,0.9385376,-0.33355713
1725950358143,2024-09-10T06:39:18.143Z,62926,-0.099731445,0.9534302,-0.3383789
1725950358187,2024-09-10T06:39:18.187Z,62970,-0.11376953,0.95184326,-0.35760498
1725950358233,2024-09-10T06:39:18.233Z,63016,-0.10821533,0.9644165,-0.34881592
1725950358282,2024-09-10T06:39:18.282Z,63065,-0.11907959,0.98876953,-0.33190918
1725950358327,2024-09-10T06:39:18.327Z,63110,-0.12982178,1.0186768,-0.31500244
1725950358368,2024-09-10T06:39:18.368Z,63151,-0.12652588,0.9949951,-0.3223877
1725950358414,2024-09-10T06:39:18.414Z,63197,-0.13684082,0.97491455,-0.33532715
1725950358461,2024-09-10T06:39:18.461Z,63244,-0.12420654,0.9439697,-0.33935547
1725950358478,2024-09-10T06:39:18.478Z,63261,-0.11065674,0.9380493,-0.32989502
1725950358505,2024-09-10T06:39:18.505Z,63288,-0.113342285,0.94433594,-0.3392334
1725950358548,2024-09-10T06:39:18.548Z,63331,-0.11834717,0.9649658,-0.31762695
1725950358592,2024-09-10T06:39:18.592Z,63375,-0.12384033,0.9805298,-0.3366089
1725950358637,2024-09-10T06:39:18.637Z,63420,-0.14056396,0.98217773,-0.31591797
1725950358683,2024-09-10T06:39:18.683Z,63466,-0.13122559,0.99694824,-0.32574463
1725950358732,2024-09-10T06:39:18.732Z,63515,-0.14855957,0.9874878,-0.3397827
1725950358771,2024-09-10T06:39:18.771Z,63554,-0.13903809,0.9885864,-0.31445312
1725950358819,2024-09-10T06:39:18.819Z,63602,-0.13397217,0.9702759,-0.32177734
1725950358864,2024-09-10T06:39:18.864Z,63647,-0.14038086,0.95422363,-0.3085327
1725950358910,2024-09-10T06:39:18.910Z,63693,-0.13360596,0.93756104,-0.31658936
1725950358924,2024-09-10T06:39:18.924Z,63707,-0.1394043,0.9255371,-0.3274536
1725950358952,2024-09-10T06:39:18.952Z,63735,-0.113220215,0.9178467,-0.30249023
1725950358999,2024-09-10T06:39:18.999Z,63782,-0.14208984,0.9083252,-0.2913208
1725950359044,2024-09-10T06:39:19.044Z,63827,-0.10247803,0.92285156,-0.35150146
1725950359086,2024-09-10T06:39:19.086Z,63869,-0.13513184,0.9217529,-0.35998535
1725950359133,2024-09-10T06:39:19.133Z,63916,-0.1595459,0.9428711,-0.3289795
1725950359180,2024-09-10T06:39:19.180Z,63963,-0.13745117,0.94207764,-0.35021973
1725950359221,2024-09-10T06:39:19.221Z,64004,-0.113586426,0.94451904,-0.33807373
1725950359268,2024-09-10T06:39:19.268Z,64051,-0.12866211,0.9389038,-0.3779297
1725950359312,2024-09-10T06:39:19.312Z,64095,-0.14459229,0.93463135,-0.34747314
1725950359328,2024-09-10T06:39:19.328Z,64111,-0.13085938,0.9397583,-0.33441162
1725950359357,2024-09-10T06:39:19.357Z,64140,-0.11779785,0.93707275,-0.36260986
1725950359402,2024-09-10T06:39:19.402Z,64185,-0.10723877,0.9389038,-0.35021973
1725950359494,2024-09-10T06:39:19.494Z,64277,-0.14056396,0.93359375,-0.3423462
1725950359509,2024-09-10T06:39:19.509Z,64292,-0.1182251,0.9484863,-0.3508911
1725950359538,2024-09-10T06:39:19.538Z,64321,-0.12042236,0.95758057,-0.32769775
1725950359582,2024-09-10T06:39:19.582Z,64365,-0.13793945,0.96777344,-0.34381104
1725950359629,2024-09-10T06:39:19.629Z,64412,-0.14996338,0.9772949,-0.36187744
1725950359671,2024-09-10T06:39:19.671Z,64454,-0.13238525,1.0001221,-0.35375977
1725950359717,2024-09-10T06:39:19.717Z,64500,-0.14086914,1.015625,-0.33599854
1725950359732,2024-09-10T06:39:19.732Z,64515,-0.13580322,1.0385742,-0.37261963
1725950359763,2024-09-10T06:39:19.763Z,64546,-0.16925049,1.0378418,-0.3838501
1725950359809,2024-09-10T06:39:19.809Z,64592,-0.1430664,1.0783691,-0.3675537
1725950359854,2024-09-10T06:39:19.854Z,64637,-0.14398193,1.0712891,-0.35882568
1725950359898,2024-09-10T06:39:19.898Z,64681,-0.16113281,1.0788574,-0.3656006
1725950359945,2024-09-10T06:39:19.945Z,64728,-0.14788818,1.0758667,-0.350708
1725950359988,2024-09-10T06:39:19.988Z,64771,-0.16003418,1.0205688,-0.29803467
1725950360033,2024-09-10T06:39:20.033Z,64816,-0.18444824,1.0109863,-0.23699951
1725950360079,2024-09-10T06:39:20.079Z,64862,-0.16259766,1.0255737,-0.26867676
1725950360121,2024-09-10T06:39:20.121Z,64904,-0.13720703,1.0053711,-0.31414795
1725950360171,2024-09-10T06:39:20.171Z,64954,-0.1404419,0.9667969,-0.29681396
1725950360187,2024-09-10T06:39:20.187Z,64970,-0.15563965,0.95910645,-0.28863525
1725950360215,2024-09-10T06:39:20.215Z,64998,-0.16784668,0.9616699,-0.2871704
1725950360258,2024-09-10T06:39:20.258Z,65041,-0.16052246,0.9638672,-0.28668213
1725950360305,2024-09-10T06:39:20.305Z,65088,-0.15966797,0.95202637,-0.26715088
1725950360348,2024-09-10T06:39:20.348Z,65131,-0.15527344,0.94970703,-0.26867676
1725950360394,2024-09-10T06:39:20.394Z,65177,-0.1665039,0.9520874,-0.2734375
1725950360438,2024-09-10T06:39:20.438Z,65221,-0.15753174,0.9602051,-0.27172852
1725950360481,2024-09-10T06:39:20.481Z,65264,-0.16693115,0.94836426,-0.25531006
1725950360528,2024-09-10T06:39:20.528Z,65311,-0.13598633,0.9524536,-0.23956299
1725950360572,2024-09-10T06:39:20.572Z,65355,-0.17572021,0.95391846,-0.23699951
1725950360620,2024-09-10T06:39:20.620Z,65403,-0.16992188,0.9598999,-0.24090576
1725950360633,2024-09-10T06:39:20.633Z,65416,-0.14807129,0.96398926,-0.2033081
1725950360663,2024-09-10T06:39:20.663Z,65446,-0.16082764,0.960022,-0.19091797
1725950360709,2024-09-10T06:39:20.709Z,65492,-0.14550781,0.96484375,-0.18865967
1725950360754,2024-09-10T06:39:20.754Z,65537,-0.1385498,0.9489746,-0.19488525
1725950360800,2024-09-10T06:39:20.800Z,65583,-0.14453125,0.93133545,-0.20391846
1725950360844,2024-09-10T06:39:20.844Z,65627,-0.085510254,0.9412842,-0.20495605
1725950360894,2024-09-10T06:39:20.894Z,65677,-0.09887695,0.96276855,-0.18023682
1725950360932,2024-09-10T06:39:20.932Z,65715,-0.12683105,0.9530029,-0.19342041
1725950360977,2024-09-10T06:39:20.977Z,65760,-0.10998535,0.9387207,-0.19995117
1725950360995,2024-09-10T06:39:20.995Z,65778,-0.09161377,0.958374,-0.17681885
1725950361022,2024-09-10T06:39:21.022Z,65805,-0.13482666,0.961853,-0.14147949
1725950361068,2024-09-10T06:39:21.068Z,65851,-0.11541748,0.9663086,-0.13745117
1725950361113,2024-09-10T06:39:21.113Z,65896,-0.115600586,0.96881104,-0.112976074
1725950361159,2024-09-10T06:39:21.159Z,65942,-0.13775635,0.9796753,-0.10107422
1725950361250,2024-09-10T06:39:21.250Z,66033,-0.13195801,0.99487305,-0.12939453
1725950361268,2024-09-10T06:39:21.268Z,66051,-0.117492676,0.9885254,-0.14782715
1725950361336,2024-09-10T06:39:21.336Z,66119,-0.11090088,0.9824829,-0.15856934
1725950361351,2024-09-10T06:39:21.351Z,66134,-0.08416748,0.97473145,-0.1350708
1725950361382,2024-09-10T06:39:21.382Z,66165,-0.08685303,0.96588135,-0.13677979
1725950361429,2024-09-10T06:39:21.429Z,66212,-0.080322266,0.96691895,-0.12799072
1725950361445,2024-09-10T06:39:21.445Z,66228,-0.06439209,0.9717407,-0.11199951
1725950361479,2024-09-10T06:39:21.479Z,66262,-0.08282471,0.9540405,-0.07647705
1725950361518,2024-09-10T06:39:21.518Z,66301,-0.08050537,0.97198486,-0.044555664
1725950361564,2024-09-10T06:39:21.564Z,66347,-0.0949707,0.9852295,-0.04510498
1725950361610,2024-09-10T06:39:21.610Z,66393,-0.10272217,1.0096436,-0.06011963
1725950361654,2024-09-10T06:39:21.654Z,66437,-0.10021973,1.003479,-0.07470703
1725950361697,2024-09-10T06:39:21.697Z,66480,-0.08392334,0.9766846,-0.07757568
1725950361739,2024-09-10T06:39:21.739Z,66522,-0.0647583,0.9701538,-0.060791016
1725950361783,2024-09-10T06:39:21.783Z,66566,-0.06304932,0.9768677,-0.06286621
1725950361830,2024-09-10T06:39:21.830Z,66613,-0.08312988,0.98065186,-0.07116699
1725950361840,2024-09-10T06:39:21.840Z,66623,-0.09588623,0.9923096,-0.057556152
1725950396307,2024-09-10T06:39:56.307Z,101090,-0.09338379,0.9907837,-0.07946777
1725950396344,2024-09-10T06:39:56.344Z,101127,-0.10070801,1.0084229,-0.08544922
1725950396389,2024-09-10T06:39:56.389Z,101172,-0.09222412,1.0093994,-0.08416748
1725950396434,2024-09-10T06:39:56.434Z,101217,-0.09118652,1.006958,-0.08843994
1725950396479,2024-09-10T06:39:56.479Z,101262,-0.09667969,0.9985962,-0.092041016
1725950396524,2024-09-10T06:39:56.524Z,101307,-0.09643555,0.9962158,-0.088134766
1725950396569,2024-09-10T06:39:56.569Z,101352,-0.10437012,0.99975586,-0.08929443
1725950396617,2024-09-10T06:39:56.617Z,101400,-0.097351074,1.0044556,-0.091430664
1725950396662,2024-09-10T06:39:56.662Z,101445,-0.10284424,1.0062256,-0.10119629
1725950396708,2024-09-10T06:39:56.708Z,101491,-0.11029053,1.0095825,-0.10784912
1725950396752,2024-09-10T06:39:56.752Z,101535,-0.10662842,0.9991455,-0.10650635
1725950396778,2024-09-10T06:39:56.778Z,101561,-0.10443115,0.99365234,-0.11407471
1725950396800,2024-09-10T06:39:56.800Z,101583,-0.109191895,0.99108887,-0.109069824
1725950396842,2024-09-10T06:39:56.842Z,101625,-0.109191895,0.9953613,-0.107910156
1725950396887,2024-09-10T06:39:56.887Z,101670,-0.10827637,1.0047607,-0.111450195
1725950396932,2024-09-10T06:39:56.932Z,101715,-0.11450195,1.0077515,-0.11755371
1725950396976,2024-09-10T06:39:56.976Z,101759,-0.117248535,0.9953003,-0.117492676
1725950397023,2024-09-10T06:39:57.023Z,101806,-0.10131836,0.9915161,-0.11639404
1725950397067,2024-09-10T06:39:57.067Z,101850,-0.10241699,0.9915161,-0.118774414
1725950397112,2024-09-10T06:39:57.112Z,101895,-0.105651855,0.9840698,-0.12390137
1725950397156,2024-09-10T06:39:57.156Z,101939,-0.10772705,0.97924805,-0.1184082
1725950397181,2024-09-10T06:39:57.181Z,101964,-0.10107422,0.98760986,-0.12548828
1725950397199,2024-09-10T06:39:57.199Z,101982,-0.101135254,0.9985962,-0.13104248
1725950397244,2024-09-10T06:39:57.244Z,102027,-0.11053467,1.0057983,-0.14685059
1725950397292,2024-09-10T06:39:57.292Z,102075,-0.11151123,1.0044556,-0.1550293
1725950397336,2024-09-10T06:39:57.336Z,102119,-0.11791992,0.99005127,-0.16137695
1725950397387,2024-09-10T06:39:57.387Z,102170,-0.10662842,0.9904175,-0.15979004
1725950397428,2024-09-10T06:39:57.428Z,102211,-0.1161499,0.9849243,-0.16247559
1725950397470,2024-09-10T06:39:57.470Z,102253,-0.11871338,0.9836426,-0.1661377
1725950397516,2024-09-10T06:39:57.516Z,102299,-0.11480713,0.97320557,-0.16503906
1725950397562,2024-09-10T06:39:57.562Z,102345,-0.10247803,0.9738159,-0.17199707
1725950397588,2024-09-10T06:39:57.588Z,102371,-0.1071167,0.9920044,-0.18707275
1725950397607,2024-09-10T06:39:57.607Z,102390,-0.11773682,0.9859009,-0.20489502
1725950397653,2024-09-10T06:39:57.653Z,102436,-0.11785889,0.9772949,-0.2111206
1725950397700,2024-09-10T06:39:57.700Z,102483,-0.12567139,0.95947266,-0.20306396
1725950397742,2024-09-10T06:39:57.742Z,102525,-0.08770752,0.9545288,-0.2163086
1725950397785,2024-09-10T06:39:57.785Z,102568,-0.10308838,0.9524536,-0.21691895
1725950397832,2024-09-10T06:39:57.832Z,102615,-0.12384033,0.94970703,-0.2265625
1725950397878,2024-09-10T06:39:57.878Z,102661,-0.09020996,0.96655273,-0.22338867
1725950397926,2024-09-10T06:39:57.926Z,102709,-0.09667969,0.98083496,-0.24243164
1725950397967,2024-09-10T06:39:57.967Z,102750,-0.108947754,0.97943115,-0.23687744
1725950398012,2024-09-10T06:39:58.012Z,102795,-0.103637695,0.97143555,-0.23840332
1725950398038,2024-09-10T06:39:58.038Z,102821,-0.103027344,0.979126,-0.23522949
1725950398062,2024-09-10T06:39:58.062Z,102845,-0.10522461,0.97888184,-0.24804688
1725950398101,2024-09-10T06:39:58.101Z,102884,-0.10797119,0.9758301,-0.25708008
1725950398147,2024-09-10T06:39:58.147Z,102930,-0.12011719,0.97351074,-0.2703247
1725950398192,2024-09-10T06:39:58.192Z,102975,-0.11248779,0.9572754,-0.2626953
1725950398241,2024-09-10T06:39:58.241Z,103024,-0.11413574,0.95635986,-0.2659912
1725950398285,2024-09-10T06:39:58.285Z,103068,-0.11578369,0.96051025,-0.27929688
1725950398326,2024-09-10T06:39:58.326Z,103109,-0.122924805,0.97180176,-0.28955078
1725950398371,2024-09-10T06:39:58.371Z,103154,-0.109680176,0.98583984,-0.29541016
1725950398418,2024-09-10T06:39:58.418Z,103201,-0.1305542,0.9847412,-0.29864502
1725950398445,2024-09-10T06:39:58.445Z,103228,-0.121154785,0.97314453,-0.28979492
1725950398466,2024-09-10T06:39:58.466Z,103249,-0.10406494,0.97088623,-0.26861572
1725950398509,2024-09-10T06:39:58.509Z,103292,-0.09185791,0.96728516,-0.26141357
1725950398552,2024-09-10T06:39:58.552Z,103335,-0.09613037,0.9666748,-0.28607178
1725950398597,2024-09-10T06:39:58.597Z,103380,-0.097595215,0.9663696,-0.28460693
1725950398641,2024-09-10T06:39:58.641Z,103424,-0.101501465,0.9626465,-0.288208
1725950398685,2024-09-10T06:39:58.685Z,103468,-0.10028076,0.9550171,-0.28997803
1725950398733,2024-09-10T06:39:58.733Z,103516,-0.103271484,0.9699707,-0.29510498
1725950398777,2024-09-10T06:39:58.777Z,103560,-0.12121582,0.9605713,-0.31323242
1725950398822,2024-09-10T06:39:58.822Z,103605,-0.103393555,0.96173096,-0.30969238
1725950398848,2024-09-10T06:39:58.848Z,103631,-0.109680176,0.9655762,-0.31878662
1725950398873,2024-09-10T06:39:58.873Z,103656,-0.11730957,0.9645386,-0.31604004
1725950398908,2024-09-10T06:39:58.908Z,103691,-0.10681152,0.961853,-0.30847168
1725950398959,2024-09-10T06:39:58.959Z,103742,-0.10058594,0.96276855,-0.3022461
1725950399002,2024-09-10T06:39:59.002Z,103785,-0.099365234,0.9649048,-0.30786133
1725950399048,2024-09-10T06:39:59.048Z,103831,-0.09820557,0.9515381,-0.30303955
1725950399091,2024-09-10T06:39:59.091Z,103874,-0.08709717,0.95825195,-0.3045044
1725950399137,2024-09-10T06:39:59.137Z,103920,-0.07952881,0.96588135,-0.28955078
1725950399183,2024-09-10T06:39:59.183Z,103966,-0.088012695,0.96209717,-0.3067627
1725950399228,2024-09-10T06:39:59.228Z,104011,-0.08984375,0.9637451,-0.30615234
1725950399274,2024-09-10T06:39:59.274Z,104057,-0.09698486,0.947937,-0.2962036
1725950399299,2024-09-10T06:39:59.299Z,104082,-0.06970215,0.9645386,-0.3154297
1725950399316,2024-09-10T06:39:59.316Z,104099,-0.10180664,0.96606445,-0.31115723
1725950399362,2024-09-10T06:39:59.362Z,104145,-0.10571289,0.95391846,-0.32366943
1725950399407,2024-09-10T06:39:59.407Z,104190,-0.07757568,0.96240234,-0.31011963
1725950399454,2024-09-10T06:39:59.454Z,104237,-0.090270996,0.9688721,-0.31658936
1725950399496,2024-09-10T06:39:59.496Z,104279,-0.103515625,0.9526367,-0.33007812
1725950399541,2024-09-10T06:39:59.541Z,104324,-0.08581543,0.9428711,-0.3314209
1725950399587,2024-09-10T06:39:59.587Z,104370,-0.09075928,0.93951416,-0.3302002
1725950399633,2024-09-10T06:39:59.633Z,104416,-0.0736084,0.9579468,-0.3310547
1725950399679,2024-09-10T06:39:59.679Z,104462,-0.091430664,0.9528198,-0.3307495
1725950399705,2024-09-10T06:39:59.705Z,104488,-0.09350586,0.9523926,-0.33770752
1725950399726,2024-09-10T06:39:59.726Z,104509,-0.07891846,0.9595337,-0.32763672
1725950399764,2024-09-10T06:39:59.764Z,104547,-0.08673096,0.9694214,-0.3284912
1725950399813,2024-09-10T06:39:59.813Z,104596,-0.09484863,0.9581299,-0.34301758
1725950399859,2024-09-10T06:39:59.859Z,104642,-0.090026855,0.9484863,-0.33691406
1725950399907,2024-09-10T06:39:59.907Z,104690,-0.08917236,0.94537354,-0.32330322
1725950399948,2024-09-10T06:39:59.948Z,104731,-0.08074951,0.95410156,-0.3227539
1725950399992,2024-09-10T06:39:59.992Z,104775,-0.08880615,0.95477295,-0.33947754
1725950400037,2024-09-10T06:40:00.037Z,104820,-0.099975586,0.96099854,-0.3381958
1725950400081,2024-09-10T06:40:00.081Z,104864,-0.091918945,0.96984863,-0.33966064
1725950400106,2024-09-10T06:40:00.106Z,104889,-0.094055176,0.97314453,-0.3477173
1725950400130,2024-09-10T06:40:00.130Z,104913,-0.09710693,0.97888184,-0.34088135
1725950400171,2024-09-10T06:40:00.171Z,104954,-0.1026001,0.980896,-0.32330322
1725950400218,2024-09-10T06:40:00.218Z,105001,-0.09918213,0.97784424,-0.3397827
1725950400264,2024-09-10T06:40:00.264Z,105047,-0.10876465,0.97924805,-0.34887695
1725950400307,2024-09-10T06:40:00.307Z,105090,-0.10748291,0.98498535,-0.33563232
1725950400355,2024-09-10T06:40:00.355Z,105138,-0.103027344,0.9819336,-0.3324585
1725950400396,2024-09-10T06:40:00.396Z,105179,-0.11102295,0.9769287,-0.3248291
1725950400443,2024-09-10T06:40:00.443Z,105226,-0.10272217,0.97979736,-0.33770752
1725950400489,2024-09-10T06:40:00.489Z,105272,-0.113220215,0.9793701,-0.32641602
1725950400535,2024-09-10T06:40:00.535Z,105318,-0.10534668,0.9859619,-0.33270264
1725950400561,2024-09-10T06:40:00.561Z,105344,-0.10308838,0.98291016,-0.32806396
1725950400586,2024-09-10T06:40:00.586Z,105369,-0.10522461,0.9894409,-0.33569336
1725950400621,2024-09-10T06:40:00.621Z,105404,-0.11022949,0.99694824,-0.33355713
1725950400670,2024-09-10T06:40:00.670Z,105453,-0.10583496,1.0137329,-0.33599854
1725950400711,2024-09-10T06:40:00.711Z,105494,-0.105407715,1.0248413,-0.33392334
1725950400758,2024-09-10T06:40:00.758Z,105541,-0.11816406,1.0167847,-0.3322754
1725950400802,2024-09-10T06:40:00.802Z,105585,-0.119018555,1.00177,-0.33398438
1725950400846,2024-09-10T06:40:00.846Z,105629,-0.10870361,0.9974365,-0.32250977
1725950400892,2024-09-10T06:40:00.892Z,105675,-0.11151123,0.99401855,-0.31079102
1725950400943,2024-09-10T06:40:00.943Z,105726,-0.12145996,0.9849243,-0.31817627
1725950400968,2024-09-10T06:40:00.968Z,105751,-0.11871338,0.9765625,-0.31451416
1725950400989,2024-09-10T06:40:00.989Z,105772,-0.114990234,0.9738159,-0.30010986
1725950401027,2024-09-10T06:40:01.027Z,105810,-0.105895996,0.97491455,-0.29437256
1725950401073,2024-09-10T06:40:01.073Z,105856,-0.11248779,0.9701538,-0.2965088
1725950401119,2024-09-10T06:40:01.119Z,105902,-0.112854004,0.95983887,-0.29205322
1725950401161,2024-09-10T06:40:01.161Z,105944,-0.11029053,0.9425659,-0.22930908
1725950401207,2024-09-10T06:40:01.207Z,105990,-0.1730957,0.9626465,-0.1326294
1725950401251,2024-09-10T06:40:01.251Z,106034,-0.10015869,0.989563,-0.29779053
1725950401296,2024-09-10T06:40:01.296Z,106079,-0.107543945,0.9680176,-0.33129883
1725950401342,2024-09-10T06:40:01.342Z,106125,-0.13812256,0.9696655,-0.29364014
1725950401366,2024-09-10T06:40:01.366Z,106149,-0.13122559,0.97802734,-0.30126953
1725950401389,2024-09-10T06:40:01.389Z,106172,-0.13250732,0.9779053,-0.30584717
1725950401431,2024-09-10T06:40:01.431Z,106214,-0.11437988,0.96954346,-0.31280518
1725950401477,2024-09-10T06:40:01.477Z,106260,-0.12957764,0.9498291,-0.30462646
1725950401523,2024-09-10T06:40:01.523Z,106306,-0.12384033,0.94384766,-0.29187012
1725950401567,2024-09-10T06:40:01.567Z,106350,-0.1182251,0.94281006,-0.29327393
1725950401611,2024-09-10T06:40:01.611Z,106394,-0.10858154,0.96307373,-0.29595947
1725950401657,2024-09-10T06:40:01.657Z,106440,-0.10797119,0.97943115,-0.2709961
1725950401702,2024-09-10T06:40:01.702Z,106485,-0.13739014,0.97143555,-0.27062988
1725950401747,2024-09-10T06:40:01.747Z,106530,-0.08917236,0.99560547,-0.22814941
1725950401792,2024-09-10T06:40:01.792Z,106575,-0.093444824,1.0063477,-0.20300293
1725950401817,2024-09-10T06:40:01.817Z,106600,-0.09954834,1.0216675,-0.24682617
1725950401841,2024-09-10T06:40:01.841Z,106624,-0.10321045,1.0068359,-0.3048706
1725950401882,2024-09-10T06:40:01.882Z,106665,-0.0949707,1.0015259,-0.30578613
1725950401927,2024-09-10T06:40:01.927Z,106710,-0.086242676,0.99798584,-0.30926514
1725950401972,2024-09-10T06:40:01.972Z,106755,-0.08251953,0.9841919,-0.28997803
1725950402017,2024-09-10T06:40:02.017Z,106800,-0.07519531,0.97839355,-0.2697754
1725950402063,2024-09-10T06:40:02.063Z,106846,-0.074401855,0.9779663,-0.2244873
1725950402107,2024-09-10T06:40:02.107Z,106890,-0.099731445,0.97265625,-0.2119751
1725950402153,2024-09-10T06:40:02.153Z,106936,-0.10491943,0.97094727,-0.19903564
1725950402196,2024-09-10T06:40:02.196Z,106979,-0.09454346,0.982666,-0.2000122
1725950402223,2024-09-10T06:40:02.223Z,107006,-0.088378906,0.9747925,-0.21350098
1725950402247,2024-09-10T06:40:02.247Z,107030,-0.0949707,0.9555054,-0.2442627
1725950402286,2024-09-10T06:40:02.286Z,107069,-0.09490967,0.95147705,-0.24310303
1725950402331,2024-09-10T06:40:02.331Z,107114,-0.08984375,0.95410156,-0.23535156
1725950402376,2024-09-10T06:40:02.376Z,107159,-0.07952881,0.94226074,-0.21777344
1725950402423,2024-09-10T06:40:02.423Z,107206,-0.09423828,0.9331665,-0.20941162
1725950402469,2024-09-10T06:40:02.469Z,107252,-0.09899902,0.9539795,-0.18585205
1725950402512,2024-09-10T06:40:02.512Z,107295,-0.093933105,0.9800415,-0.17755127
1725950402556,2024-09-10T06:40:02.556Z,107339,-0.08911133,0.9815674,-0.1329956
1725950402600,2024-09-10T06:40:02.600Z,107383,-0.10681152,0.97979736,-0.16156006
1725950402624,2024-09-10T06:40:02.624Z,107407,-0.09655762,0.9994507,-0.1453247
1725950402644,2024-09-10T06:40:02.644Z,107427,-0.10394287,1.0126343,-0.14782715
1725950402689,2024-09-10T06:40:02.689Z,107472,-0.09411621,1.0142212,-0.14953613
1725950402733,2024-09-10T06:40:02.733Z,107516,-0.098083496,0.982666,-0.1482544
1725950402783,2024-09-10T06:40:02.783Z,107566,-0.083618164,0.9667969,-0.15167236
1725950402826,2024-09-10T06:40:02.826Z,107609,-0.088378906,0.9602661,-0.14544678
1725950402870,2024-09-10T06:40:02.870Z,107653,-0.06518555,0.9694214,-0.15551758
1725950402916,2024-09-10T06:40:02.916Z,107699,-0.09838867,0.9595947,-0.15454102
1725950402962,2024-09-10T06:40:02.962Z,107745,-0.08026123,0.9855957,-0.15063477
1725950403007,2024-09-10T06:40:03.007Z,107790,-0.10229492,0.9830322,-0.10638428
1725950403051,2024-09-10T06:40:03.051Z,107834,-0.07421875,1.0080566,-0.10241699
1725950403073,2024-09-10T06:40:03.073Z,107856,-0.13366699,0.9968872,-0.07507324
1725950403100,2024-09-10T06:40:03.100Z,107883,-0.105895996,0.98724365,-0.071899414
1725950403141,2024-09-10T06:40:03.141Z,107924,-0.12835693,0.9692993,-0.056518555
1725950403186,2024-09-10T06:40:03.186Z,107969,-0.061401367,0.99072266,-0.07409668
1725950403232,2024-09-10T06:40:03.232Z,108015,-0.11224365,0.9834595,-0.05505371
1725950403277,2024-09-10T06:40:03.277Z,108060,-0.09552002,1.0012207,-0.08660889
1725950403322,2024-09-10T06:40:03.322Z,108105,-0.10638428,0.9915161,-0.08758545
1725950403366,2024-09-10T06:40:03.366Z,108149,-0.09362793,1.0001221,-0.04437256
1725950403411,2024-09-10T06:40:03.411Z,108194,-0.08428955,0.970459,-0.064819336
1725950403457,2024-09-10T06:40:03.457Z,108240,-0.08288574,1.0004883,-0.05206299
1725950403481,2024-09-10T06:40:03.481Z,108264,-0.09484863,0.9945679,-0.057006836
1725950403506,2024-09-10T06:40:03.506Z,108289,-0.09777832,0.9851074,-0.052001953
1725950403547,2024-09-10T06:40:03.547Z,108330,-0.10491943,1.007019,-0.030029297
1725950403592,2024-09-10T06:40:03.592Z,108375,-0.11151123,0.996521,-0.036743164
1725950403636,2024-09-10T06:40:03.636Z,108419,-0.114990234,0.99749756,-0.029052734
1725950403682,2024-09-10T06:40:03.682Z,108465,-0.103515625,0.99957275,-0.02142334
1725950403727,2024-09-10T06:40:03.727Z,108510,-0.11694336,0.9953613,-0.0178833
1725950403773,2024-09-10T06:40:03.773Z,108556,-0.10595703,0.9724121,-0.041748047
1725950403817,2024-09-10T06:40:03.817Z,108600,-0.113586426,0.9710083,-0.076416016
1725950403863,2024-09-10T06:40:03.863Z,108646,-0.11022949,1.0090942,-0.06866455
1725950403890,2024-09-10T06:40:03.890Z,108673,-0.119140625,1.0385132,-0.046325684
1725950403909,2024-09-10T06:40:03.909Z,108692,-0.093688965,1.0308838,-0.04284668
1725950403949,2024-09-10T06:40:03.949Z,108732,-0.07922363,1.0219116,-0.048095703
1725950403998,2024-09-10T06:40:03.998Z,108781,-0.057128906,1.0231323,-0.03253174
1725950404042,2024-09-10T06:40:04.042Z,108825,-0.061462402,1.0059814,-0.053527832
1725950404086,2024-09-10T06:40:04.086Z,108869,-0.07110596,1.0366211,-0.053344727
1725950404132,2024-09-10T06:40:04.132Z,108915,-0.073791504,1.0307007,-0.07885742
1725950404176,2024-09-10T06:40:04.176Z,108959,-0.103149414,0.95806885,-0.026611328
1725950404223,2024-09-10T06:40:04.223Z,109006,-0.091430664,0.95062256,-0.04333496
1725950404314,2024-09-10T06:40:04.314Z,109097,-0.1083374,0.96673584,-0.06591797
1725950404340,2024-09-10T06:40:04.340Z,109123,-0.11437988,1.0158081,-0.07702637
1725950404361,2024-09-10T06:40:04.361Z,109144,-0.10223389,1.0547485,-0.1359253
1725950404376,2024-09-10T06:40:04.376Z,109159,-0.119506836,1.0122681,-0.08258057
1725950404402,2024-09-10T06:40:04.402Z,109185,-0.08569336,1.0526733,-0.09033203
1725950404447,2024-09-10T06:40:04.447Z,109230,-0.10809326,1.0314331,-0.09362793
1725950404492,2024-09-10T06:40:04.492Z,109275,-0.113586426,0.97473145,-0.060546875
1725950404536,2024-09-10T06:40:04.536Z,109319,-0.07763672,0.9580078,-0.064453125
1725950404582,2024-09-10T06:40:04.582Z,109365,-0.070617676,0.94421387,-0.04547119
1725950404627,2024-09-10T06:40:04.627Z,109410,-0.07501221,0.9463501,-0.059631348
1725950404672,2024-09-10T06:40:04.672Z,109455,-0.06854248,0.98791504,-0.08453369
1725950404717,2024-09-10T06:40:04.717Z,109500,-0.075927734,1.0142212,-0.105285645
1725950404745,2024-09-10T06:40:04.745Z,109528,-0.09112549,1.0306396,-0.11755371
1725950404771,2024-09-10T06:40:04.771Z,109554,-0.09692383,1.0170288,-0.11773682
1725950404804,2024-09-10T06:40:04.804Z,109587,-0.0904541,1.0012817,-0.091918945
1725950404852,2024-09-10T06:40:04.852Z,109635,-0.092041016,0.9970703,-0.09411621
1725950404903,2024-09-10T06:40:04.903Z,109686,-0.10168457,0.9902954,-0.097839355
1725950404940,2024-09-10T06:40:04.940Z,109723,-0.09100342,0.9937744,-0.11175537
1725950404986,2024-09-10T06:40:04.986Z,109769,-0.092041016,1.0002441,-0.12219238
1725950405032,2024-09-10T06:40:05.032Z,109815,-0.09454346,1.0133667,-0.14318848
1725950405079,2024-09-10T06:40:05.079Z,109862,-0.09442139,1.0056152,-0.14581299
1725950405123,2024-09-10T06:40:05.123Z,109906,-0.09741211,0.9963379,-0.13476562
1725950405145,2024-09-10T06:40:05.145Z,109928,-0.08526611,0.998291,-0.13323975
1725950405166,2024-09-10T06:40:05.166Z,109949,-0.10272217,0.9894409,-0.1272583
1725950405212,2024-09-10T06:40:05.212Z,109995,-0.09240723,0.9979248,-0.1352539
1725950405255,2024-09-10T06:40:05.255Z,110038,-0.108947754,0.9916992,-0.14501953
1725950405303,2024-09-10T06:40:05.303Z,110086,-0.107177734,0.99243164,-0.15167236
1725950405347,2024-09-10T06:40:05.347Z,110130,-0.10333252,0.98321533,-0.15802002
1725950405391,2024-09-10T06:40:05.391Z,110174,-0.09313965,0.99768066,-0.16009521
1725950405442,2024-09-10T06:40:05.442Z,110225,-0.11401367,0.99487305,-0.17388916
1725950405482,2024-09-10T06:40:05.482Z,110265,-0.0793457,0.98272705,-0.18530273
1725950405528,2024-09-10T06:40:05.528Z,110311,-0.124816895,0.96569824,-0.17358398
1725950405550,2024-09-10T06:40:05.550Z,110333,-0.07409668,0.9763794,-0.17974854
1725950405569,2024-09-10T06:40:05.569Z,110352,-0.10559082,0.9672241,-0.18200684
1725950405616,2024-09-10T06:40:05.616Z,110399,-0.08856201,0.99853516,-0.19659424
1725950405662,2024-09-10T06:40:05.662Z,110445,-0.12133789,0.9892578,-0.19659424
1725950405707,2024-09-10T06:40:05.707Z,110490,-0.10656738,0.99658203,-0.20776367
1725950405751,2024-09-10T06:40:05.751Z,110534,-0.09625244,0.991272,-0.20544434
1725950405797,2024-09-10T06:40:05.797Z,110580,-0.10809326,0.9684448,-0.21459961
1725950405841,2024-09-10T06:40:05.841Z,110624,-0.093444824,0.95043945,-0.21551514
1725950405888,2024-09-10T06:40:05.888Z,110671,-0.10870361,0.95147705,-0.23638916
1725950405932,2024-09-10T06:40:05.932Z,110715,-0.10998535,0.9515381,-0.2290039
1725950405977,2024-09-10T06:40:05.977Z,110760,-0.11364746,0.96868896,-0.22680664
1725950406001,2024-09-10T06:40:06.001Z,110784,-0.093566895,0.97491455,-0.22167969
1725950406019,2024-09-10T06:40:06.019Z,110802,-0.1105957,0.97753906,-0.23632812
1725950406067,2024-09-10T06:40:06.067Z,110850,-0.10455322,1.0038452,-0.25354004
1725950406112,2024-09-10T06:40:06.112Z,110895,-0.10571289,0.99902344,-0.25933838
1725950406203,2024-09-10T06:40:06.203Z,110986,-0.11437988,0.9702759,-0.25634766
1725950406229,2024-09-10T06:40:06.229Z,111012,-0.10430908,0.972229,-0.25567627
1725950406255,2024-09-10T06:40:06.255Z,111038,-0.10064697,0.9766846,-0.25634766
1725950406289,2024-09-10T06:40:06.289Z,111072,-0.10925293,0.98254395,-0.27490234
1725950406337,2024-09-10T06:40:06.337Z,111120,-0.1083374,0.9678345,-0.26757812
1725950406383,2024-09-10T06:40:06.383Z,111166,-0.10357666,0.97491455,-0.2791748
1725950406405,2024-09-10T06:40:06.405Z,111188,-0.09613037,0.9642334,-0.276062
1725950406424,2024-09-10T06:40:06.424Z,111207,-0.104003906,0.949646,-0.2803955
1725950406472,2024-09-10T06:40:06.472Z,111255,-0.08544922,0.95477295,-0.2897339
1725950406517,2024-09-10T06:40:06.517Z,111300,-0.09991455,0.940979,-0.288208
1725950406562,2024-09-10T06:40:06.562Z,111345,-0.088256836,0.9562378,-0.293396
1725950406607,2024-09-10T06:40:06.607Z,111390,-0.10467529,0.9569092,-0.30023193
1725950406651,2024-09-10T06:40:06.651Z,111434,-0.09326172,0.9641113,-0.30096436
1725950406698,2024-09-10T06:40:06.698Z,111481,-0.10015869,0.9674072,-0.3092041
1725950406742,2024-09-10T06:40:06.742Z,111525,-0.0960083,0.96661377,-0.2962036
1725950406788,2024-09-10T06:40:06.788Z,111571,-0.097839355,0.9569702,-0.3126831
1725950406810,2024-09-10T06:40:06.810Z,111593,-0.105285645,0.95184326,-0.3164673
1725950406833,2024-09-10T06:40:06.833Z,111616,-0.09429932,0.96759033,-0.31427002
1725950406876,2024-09-10T06:40:06.876Z,111659,-0.101501465,0.96588135,-0.3227539
1725950406923,2024-09-10T06:40:06.923Z,111706,-0.10876465,0.95892334,-0.33312988
1725950406968,2024-09-10T06:40:06.968Z,111751,-0.11645508,0.9449463,-0.3110962
1725950407011,2024-09-10T06:40:07.011Z,111794,-0.095458984,0.94085693,-0.3109131
1725950407055,2024-09-10T06:40:07.055Z,111838,-0.09967041,0.9343872,-0.32092285
1725950407102,2024-09-10T06:40:07.102Z,111885,-0.10839844,0.92803955,-0.3145752
1725950407148,2024-09-10T06:40:07.148Z,111931,-0.08392334,0.949646,-0.30767822
1725950407192,2024-09-10T06:40:07.192Z,111975,-0.10357666,0.94366455,-0.31323242
1725950407237,2024-09-10T06:40:07.237Z,112020,-0.093322754,0.95251465,-0.3133545
1725950407263,2024-09-10T06:40:07.263Z,112046,-0.11126709,0.947937,-0.302063
1725950407326,2024-09-10T06:40:07.326Z,112109,-0.084350586,0.96258545,-0.307312
1725950407351,2024-09-10T06:40:07.351Z,112134,-0.09991455,0.95947266,-0.3189087
1725950407371,2024-09-10T06:40:07.371Z,112154,-0.078186035,0.9812622,-0.30413818
1725950407416,2024-09-10T06:40:07.416Z,112199,-0.09991455,0.9678345,-0.31451416
1725950407462,2024-09-10T06:40:07.462Z,112245,-0.09686279,0.9532471,-0.32080078
1725950407507,2024-09-10T06:40:07.507Z,112290,-0.097839355,0.9501343,-0.30786133
1725950407552,2024-09-10T06:40:07.552Z,112335,-0.08129883,0.9567871,-0.30975342
1725950407598,2024-09-10T06:40:07.598Z,112381,-0.09655762,0.94885254,-0.31463623
1725950407642,2024-09-10T06:40:07.642Z,112425,-0.087646484,0.95428467,-0.32598877
1725950407668,2024-09-10T06:40:07.668Z,112451,-0.09655762,0.95043945,-0.32250977
1725950407691,2024-09-10T06:40:07.691Z,112474,-0.085876465,0.9597168,-0.31835938
1725950407731,2024-09-10T06:40:07.731Z,112514,-0.097229004,0.95562744,-0.32196045
1725950407777,2024-09-10T06:40:07.777Z,112560,-0.08795166,0.96203613,-0.3267212
1725950407821,2024-09-10T06:40:07.821Z,112604,-0.09613037,0.96710205,-0.3347168
1725950407866,2024-09-10T06:40:07.866Z,112649,-0.09631348,0.97351074,-0.34118652
1725950407911,2024-09-10T06:40:07.911Z,112694,-0.09552002,0.97436523,-0.32873535
1725950407955,2024-09-10T06:40:07.955Z,112738,-0.0925293,0.98083496,-0.33935547
1725950408001,2024-09-10T06:40:08.001Z,112784,-0.10797119,0.979187,-0.34204102
1725950408046,2024-09-10T06:40:08.046Z,112829,-0.09844971,0.9920044,-0.35058594
1725950408069,2024-09-10T06:40:08.069Z,112852,-0.10632324,0.9807739,-0.3366089
1725950408091,2024-09-10T06:40:08.091Z,112874,-0.0970459,0.98443604,-0.34375
1725950408136,2024-09-10T06:40:08.136Z,112919,-0.107299805,0.9741211,-0.33270264
1725950408180,2024-09-10T06:40:08.180Z,112963,-0.10266113,0.9703369,-0.34692383
1725950408227,2024-09-10T06:40:08.227Z,113010,-0.10498047,0.9642334,-0.3468628
1725950408273,2024-09-10T06:40:08.273Z,113056,-0.10064697,0.95843506,-0.33758545
1725950408316,2024-09-10T06:40:08.316Z,113099,-0.09698486,0.9555054,-0.34350586
1725950408362,2024-09-10T06:40:08.362Z,113145,-0.099121094,0.9678345,-0.35443115
1725950408406,2024-09-10T06:40:08.406Z,113189,-0.099243164,0.9928589,-0.3557129
1725950408465,2024-09-10T06:40:08.465Z,113248,-0.11248779,1.0032959,-0.36413574
1725950408544,2024-09-10T06:40:08.544Z,113327,-0.10601807,1.0144653,-0.3517456
1725950408568,2024-09-10T06:40:08.568Z,113351,-0.11480713,1.0075073,-0.3557129
1725950408589,2024-09-10T06:40:08.589Z,113372,-0.10467529,1.0110474,-0.3564453
1725950408606,2024-09-10T06:40:08.606Z,113389,-0.10876465,1.0117798,-0.34448242
1725950408639,2024-09-10T06:40:08.639Z,113422,-0.12335205,1.0014038,-0.3482666
1725950408675,2024-09-10T06:40:08.675Z,113458,-0.124816895,0.9762573,-0.3378296
1725950408721,2024-09-10T06:40:08.721Z,113504,-0.11090088,0.9694824,-0.33184814
1725950408767,2024-09-10T06:40:08.767Z,113550,-0.09643555,0.979126,-0.333313
1725950408811,2024-09-10T06:40:08.811Z,113594,-0.114990234,0.9779053,-0.31414795
1725950408857,2024-09-10T06:40:08.857Z,113640,-0.13238525,0.96466064,-0.30828857
1725950408903,2024-09-10T06:40:08.903Z,113686,-0.09954834,0.982605,-0.2929077
1725950408927,2024-09-10T06:40:08.927Z,113710,-0.10308838,0.98168945,-0.3048706
1725950408948,2024-09-10T06:40:08.948Z,113731,-0.11785889,0.97094727,-0.31774902
1725950409038,2024-09-10T06:40:09.038Z,113821,-0.11340332,0.9593506,-0.31451416
1725950409061,2024-09-10T06:40:09.061Z,113844,-0.11517334,0.9495239,-0.28485107
1725950409080,2024-09-10T06:40:09.080Z,113863,-0.13763428,0.9560547,-0.25427246
1725950409129,2024-09-10T06:40:09.129Z,113912,-0.11431885,0.9611206,-0.28381348
1725950409175,2024-09-10T06:40:09.175Z,113958,-0.101989746,0.95892334,-0.3034668
1725950409217,2024-09-10T06:40:09.217Z,114000,-0.10900879,0.9539795,-0.29089355
1725950409261,2024-09-10T06:40:09.261Z,114044,-0.111572266,0.9594116,-0.29516602
1725950409309,2024-09-10T06:40:09.309Z,114092,-0.113098145,0.9793091,-0.2786255
1725950409332,2024-09-10T06:40:09.332Z,114115,-0.10083008,0.9998779,-0.26470947
1725950409356,2024-09-10T06:40:09.356Z,114139,-0.10961914,1.0089111,-0.26135254
1725950409396,2024-09-10T06:40:09.396Z,114179,-0.10345459,1.012207,-0.26611328
1725950409441,2024-09-10T06:40:09.441Z,114224,-0.10858154,1.0026245,-0.27770996
1725950409487,2024-09-10T06:40:09.487Z,114270,-0.097717285,0.9926758,-0.2644043
1725950409532,2024-09-10T06:40:09.532Z,114315,-0.10461426,0.98968506,-0.26470947
1725950409575,2024-09-10T06:40:09.575Z,114358,-0.09490967,0.97424316,-0.27398682
1725950409623,2024-09-10T06:40:09.623Z,114406,-0.08728027,0.9580078,-0.27423096
1725950409666,2024-09-10T06:40:09.666Z,114449,-0.07922363,0.9585571,-0.25878906
1725950409711,2024-09-10T06:40:09.711Z,114494,-0.07489014,0.95928955,-0.25720215
1725950409758,2024-09-10T06:40:09.758Z,114541,-0.06945801,0.9713745,-0.24963379
1725950409781,2024-09-10T06:40:09.781Z,114564,-0.074279785,0.98168945,-0.2454834
1725950409805,2024-09-10T06:40:09.805Z,114588,-0.09387207,0.99420166,-0.23950195
1725950409846,2024-09-10T06:40:09.846Z,114629,-0.08728027,0.9976196,-0.2296753
1725950409892,2024-09-10T06:40:09.892Z,114675,-0.082336426,1.0007935,-0.22784424
1725950409936,2024-09-10T06:40:09.936Z,114719,-0.08001709,0.99664307,-0.25335693
1725950409982,2024-09-10T06:40:09.982Z,114765,-0.07861328,0.98791504,-0.25958252
1725950410027,2024-09-10T06:40:10.027Z,114810,-0.091308594,0.980896,-0.26019287
1725950410072,2024-09-10T06:40:10.072Z,114855,-0.09967041,0.967041,-0.26281738
1725950410117,2024-09-10T06:40:10.117Z,114900,-0.073913574,0.98480225,-0.24224854
1725950410162,2024-09-10T06:40:10.162Z,114945,-0.10900879,0.9810791,-0.21807861
1725950410187,2024-09-10T06:40:10.187Z,114970,-0.07305908,0.98950195,-0.23852539
1725950410204,2024-09-10T06:40:10.204Z,114987,-0.121154785,0.97210693,-0.2288208
1725950410297,2024-09-10T06:40:10.297Z,115080,-0.09277344,0.9780884,-0.22766113
1725950410322,2024-09-10T06:40:10.322Z,115105,-0.10296631,0.9688721,-0.20690918
1725950410340,2024-09-10T06:40:10.340Z,115123,-0.10058594,0.97088623,-0.1998291
1725950410387,2024-09-10T06:40:10.387Z,115170,-0.1005249,0.97528076,-0.20166016
1725950410431,2024-09-10T06:40:10.431Z,115214,-0.11993408,0.9776001,-0.1977539
1725950410477,2024-09-10T06:40:10.477Z,115260,-0.117370605,0.98217773,-0.19647217
1725950410523,2024-09-10T06:40:10.523Z,115306,-0.10205078,0.97839355,-0.19012451
1725950410567,2024-09-10T06:40:10.567Z,115350,-0.1005249,0.9890747,-0.16271973
1725950410591,2024-09-10T06:40:10.591Z,115374,-0.120910645,0.97576904,-0.17279053
1725950410615,2024-09-10T06:40:10.615Z,115398,-0.105895996,0.98272705,-0.17340088
1725950410656,2024-09-10T06:40:10.656Z,115439,-0.10418701,0.9814453,-0.15100098
1725950410702,2024-09-10T06:40:10.702Z,115485,-0.09539795,0.97332764,-0.14959717
1725950410749,2024-09-10T06:40:10.749Z,115532,-0.09246826,0.961853,-0.13934326
1725950410792,2024-09-10T06:40:10.792Z,115575,-0.09655762,0.94854736,-0.12738037
1725950410836,2024-09-10T06:40:10.836Z,115619,-0.083618164,0.9569702,-0.13458252
1725950410885,2024-09-10T06:40:10.885Z,115668,-0.08630371,0.96643066,-0.11517334
1725950410927,2024-09-10T06:40:10.927Z,115710,-0.081848145,0.97802734,-0.10614014
1725950410973,2024-09-10T06:40:10.973Z,115756,-0.08703613,0.9743042,-0.09472656
1725950411018,2024-09-10T06:40:11.018Z,115801,-0.1015625,0.9824219,-0.09899902
1725950411041,2024-09-10T06:40:11.041Z,115824,-0.09875488,0.98291016,-0.067993164
1725950411060,2024-09-10T06:40:11.060Z,115843,-0.105285645,0.9957886,-0.03753662
1725950411107,2024-09-10T06:40:11.107Z,115890,-0.10357666,1.0008545,-0.0234375
1725950411152,2024-09-10T06:40:11.152Z,115935,-0.10620117,0.99816895,-0.017822266
1725950411197,2024-09-10T06:40:11.197Z,115980,-0.08709717,0.99591064,-0.033569336
1725950411241,2024-09-10T06:40:11.241Z,116024,-0.08441162,0.98968506,-0.064941406
1725950411286,2024-09-10T06:40:11.286Z,116069,-0.07928467,0.9968872,-0.06628418
1725950411331,2024-09-10T06:40:11.331Z,116114,-0.09869385,0.99468994,-0.07940674
1725950411423,2024-09-10T06:40:11.423Z,116206,-0.09777832,0.9857178,-0.08734131
1725950411450,2024-09-10T06:40:11.450Z,116233,-0.10192871,0.9821167,-0.06311035
1725950411474,2024-09-10T06:40:11.474Z,116257,-0.10882568,0.9771118,-0.059692383
1725950411511,2024-09-10T06:40:11.511Z,116294,-0.120910645,0.9925537,-0.05847168
1725950411531,2024-09-10T06:40:11.531Z,116314,-0.12237549,1.013855,-0.049804688
1725950411555,2024-09-10T06:40:11.555Z,116338,-0.11682129,1.0140991,-0.05847168
1725950411601,2024-09-10T06:40:11.601Z,116384,-0.109558105,1.0015869,-0.06866455
1725950411646,2024-09-10T06:40:11.646Z,116429,-0.11352539,0.99279785,-0.07421875
1725950411690,2024-09-10T06:40:11.690Z,116473,-0.11767578,0.9873657,-0.083984375
1725950411737,2024-09-10T06:40:11.737Z,116520,-0.117004395,0.9873047,-0.09454346
1725950411783,2024-09-10T06:40:11.783Z,116566,-0.11505127,0.9869995,-0.103271484
1725950411829,2024-09-10T06:40:11.829Z,116612,-0.12286377,0.9891968,-0.1083374
1725950411852,2024-09-10T06:40:11.852Z,116635,-0.1237793,0.9897461,-0.10839844
1725950411875,2024-09-10T06:40:11.875Z,116658,-0.11627197,0.9846802,-0.115234375
1725950411916,2024-09-10T06:40:11.916Z,116699,-0.11352539,0.9770508,-0.112976074
1725950411962,2024-09-10T06:40:11.962Z,116745,-0.10394287,0.9616089,-0.13122559
1725950412006,2024-09-10T06:40:12.006Z,116789,-0.10083008,0.95635986,-0.14440918
1725950412052,2024-09-10T06:40:12.052Z,116835,-0.09814453,0.9672241,-0.14501953
1725950412097,2024-09-10T06:40:12.097Z,116880,-0.09490967,0.97631836,-0.16320801
1725950412141,2024-09-10T06:40:12.141Z,116924,-0.11798096,0.96875,-0.17883301
1725950412191,2024-09-10T06:40:12.191Z,116974,-0.09472656,0.9711304,-0.18591309
1725950412231,2024-09-10T06:40:12.231Z,117014,-0.12774658,0.95617676,-0.19970703
1725950412278,2024-09-10T06:40:12.278Z,117061,-0.109436035,0.977417,-0.22039795
1725950412303,2024-09-10T06:40:12.303Z,117086,-0.12615967,0.97924805,-0.21240234
1725950412331,2024-09-10T06:40:12.331Z,117114,-0.1239624,0.9939575,-0.22937012
1725950412367,2024-09-10T06:40:12.367Z,117150,-0.12677002,0.98291016,-0.22058105
1725950412412,2024-09-10T06:40:12.412Z,117195,-0.12872314,0.97283936,-0.23919678
1725950412456,2024-09-10T06:40:12.456Z,117239,-0.11218262,0.9686279,-0.25720215
1725950412502,2024-09-10T06:40:12.502Z,117285,-0.11578369,0.9827881,-0.24761963
1725950412549,2024-09-10T06:40:12.549Z,117332,-0.120788574,0.99835205,-0.2588501
1725950412591,2024-09-10T06:40:12.591Z,117374,-0.1260376,0.9830322,-0.26678467
1725950412636,2024-09-10T06:40:12.636Z,117419,-0.14208984,0.9818115,-0.276062
1725950412684,2024-09-10T06:40:12.684Z,117467,-0.115722656,0.99890137,-0.272583
1725950412712,2024-09-10T06:40:12.712Z,117495,-0.13250732,0.9916992,-0.27496338
1725950412735,2024-09-10T06:40:12.735Z,117518,-0.14727783,0.96936035,-0.27923584
1725950412771,2024-09-10T06:40:12.771Z,117554,-0.1350708,0.9560547,-0.28277588
1725950412816,2024-09-10T06:40:12.816Z,117599,-0.11975098,0.9547119,-0.26611328
1725950412862,2024-09-10T06:40:12.862Z,117645,-0.13909912,0.9484253,-0.27178955
1725950412908,2024-09-10T06:40:12.908Z,117691,-0.11645508,0.9451294,-0.27990723
1725950412953,2024-09-10T06:40:12.953Z,117736,-0.11254883,0.9515991,-0.29748535
1725950412999,2024-09-10T06:40:12.999Z,117782,-0.123168945,0.95233154,-0.2930298
1725950413043,2024-09-10T06:40:13.043Z,117826,-0.1260376,0.93914795,-0.30004883
1725950413086,2024-09-10T06:40:13.086Z,117869,-0.121276855,0.9440918,-0.3133545
1725950413110,2024-09-10T06:40:13.110Z,117893,-0.11694336,0.93011475,-0.3083496
1725950413130,2024-09-10T06:40:13.130Z,117913,-0.122558594,0.9328613,-0.32470703
1725950413177,2024-09-10T06:40:13.177Z,117960,-0.13317871,0.9326172,-0.32281494
1725950413223,2024-09-10T06:40:13.223Z,118006,-0.12548828,0.95007324,-0.32818604
1725950413267,2024-09-10T06:40:13.267Z,118050,-0.12615967,0.96606445,-0.32330322
1725950413312,2024-09-10T06:40:13.312Z,118095,-0.13256836,0.9651489,-0.29077148
1725950413356,2024-09-10T06:40:13.356Z,118139,-0.1394043,0.9647217,-0.31774902
1725950413403,2024-09-10T06:40:13.403Z,118186,-0.10827637,0.9884033,-0.28570557
1725950413448,2024-09-10T06:40:13.448Z,118231,-0.11859131,0.99658203,-0.2954712
1725950413493,2024-09-10T06:40:13.493Z,118276,-0.12731934,0.9848633,-0.31207275
1725950413535,2024-09-10T06:40:13.535Z,118318,-0.12390137,0.9730835,-0.29278564
1725950413558,2024-09-10T06:40:13.558Z,118341,-0.115600586,0.96765137,-0.28271484
1725950413582,2024-09-10T06:40:13.582Z,118365,-0.12487793,0.96014404,-0.28155518
1725950413624,2024-09-10T06:40:13.624Z,118407,-0.13043213,0.958313,-0.2960205
1725950413671,2024-09-10T06:40:13.671Z,118454,-0.1239624,0.95788574,-0.29284668
1725950413717,2024-09-10T06:40:13.717Z,118500,-0.15124512,0.9466553,-0.28826904
1725950413761,2024-09-10T06:40:13.761Z,118544,-0.12695312,0.9561157,-0.29431152
1725950413807,2024-09-10T06:40:13.807Z,118590,-0.13513184,0.96813965,-0.30548096
1725950413852,2024-09-10T06:40:13.852Z,118635,-0.14611816,0.9714966,-0.30993652
1725950413897,2024-09-10T06:40:13.897Z,118680,-0.15393066,0.97247314,-0.30218506
1725950413943,2024-09-10T06:40:13.943Z,118726,-0.12915039,0.9862671,-0.2944336
1725950413966,2024-09-10T06:40:13.966Z,118749,-0.14770508,0.97979736,-0.3081665
1725950413989,2024-09-10T06:40:13.989Z,118772,-0.14886475,0.9663086,-0.30560303
1725950414031,2024-09-10T06:40:14.031Z,118814,-0.14459229,0.9527588,-0.29089355
1725950414076,2024-09-10T06:40:14.076Z,118859,-0.12896729,0.95928955,-0.30023193
1725950414122,2024-09-10T06:40:14.122Z,118905,-0.13317871,0.9621582,-0.3046875
1725950414168,2024-09-10T06:40:14.168Z,118951,-0.13574219,0.9674072,-0.31072998
1725950414212,2024-09-10T06:40:14.212Z,118995,-0.14587402,0.96551514,-0.3112793
1725950414256,2024-09-10T06:40:14.256Z,119039,-0.1381836,0.9644165,-0.31237793
1725950414302,2024-09-10T06:40:14.302Z,119085,-0.13787842,0.97198486,-0.29223633
1725950414348,2024-09-10T06:40:14.348Z,119131,-0.13269043,0.9763794,-0.29858398
1725950414371,2024-09-10T06:40:14.371Z,119154,-0.124572754,0.9784546,-0.30169678
1725950414389,2024-09-10T06:40:14.389Z,119172,-0.12695312,0.982666,-0.30706787
1725950414438,2024-09-10T06:40:14.438Z,119221,-0.12182617,0.9842529,-0.30511475
1725950414481,2024-09-10T06:40:14.481Z,119264,-0.1217041,0.9710083,-0.30859375
1725950414526,2024-09-10T06:40:14.526Z,119309,-0.123168945,0.9661865,-0.3112793
1725950414572,2024-09-10T06:40:14.572Z,119355,-0.1303711,0.9729004,-0.31921387
1725950414616,2024-09-10T06:40:14.616Z,119399,-0.1282959,0.9782715,-0.32128906
1725950414661,2024-09-10T06:40:14.661Z,119444,-0.13421631,0.97247314,-0.32641602
1725950414707,2024-09-10T06:40:14.707Z,119490,-0.13354492,0.95996094,-0.31713867
1725950414751,2024-09-10T06:40:14.751Z,119534,-0.13079834,0.9578247,-0.31970215
1725950414797,2024-09-10T06:40:14.797Z,119580,-0.14593506,0.9519043,-0.3206787
1725950414823,2024-09-10T06:40:14.823Z,119606,-0.140625,0.95874023,-0.32873535
1725950414849,2024-09-10T06:40:14.849Z,119632,-0.14276123,0.9594116,-0.30914307
1725950414887,2024-09-10T06:40:14.887Z,119670,-0.13745117,0.9616699,-0.32055664
1725950414931,2024-09-10T06:40:14.931Z,119714,-0.14923096,0.9522705,-0.3170166
1725950414978,2024-09-10T06:40:14.978Z,119761,-0.14385986,0.9553833,-0.31048584
1725950415023,2024-09-10T06:40:15.023Z,119806,-0.13604736,0.9602051,-0.31591797
1725950415067,2024-09-10T06:40:15.067Z,119850,-0.14508057,0.9534912,-0.30426025
1725950415111,2024-09-10T06:40:15.111Z,119894,-0.14331055,0.9465332,-0.29315186
1725950415156,2024-09-10T06:40:15.156Z,119939,-0.1404419,0.9399414,-0.29162598
1725950415202,2024-09-10T06:40:15.202Z,119985,-0.13708496,0.9366455,-0.2991333
1725950415227,2024-09-10T06:40:15.227Z,120010,-0.13934326,0.93774414,-0.31030273
1725950415252,2024-09-10T06:40:15.252Z,120035,-0.13824463,0.9399414,-0.30822754
1725950415291,2024-09-10T06:40:15.291Z,120074,-0.13287354,0.9406128,-0.32720947
1725950415338,2024-09-10T06:40:15.338Z,120121,-0.13134766,0.95269775,-0.32617188
1725950415380,2024-09-10T06:40:15.380Z,120163,-0.13977051,0.95880127,-0.3310547
1725950415426,2024-09-10T06:40:15.426Z,120209,-0.1362915,0.970459,-0.3363037
1725950415473,2024-09-10T06:40:15.473Z,120256,-0.13824463,0.96881104,-0.3151245
1725950415517,2024-09-10T06:40:15.517Z,120300,-0.121520996,0.9789429,-0.3371582
1725950415561,2024-09-10T06:40:15.561Z,120344,-0.14758301,0.9977417,-0.3632202
1725950415607,2024-09-10T06:40:15.607Z,120390,-0.1519165,1.0236206,-0.3366089
1725950415630,2024-09-10T06:40:15.630Z,120413,-0.13696289,1.0496826,-0.33642578
1725950415653,2024-09-10T06:40:15.653Z,120436,-0.15197754,1.0429688,-0.33691406
1725950415696,2024-09-10T06:40:15.696Z,120479,-0.15350342,1.0441895,-0.36132812
1725950415743,2024-09-10T06:40:15.743Z,120526,-0.16467285,1.0305176,-0.36090088
1725950415785,2024-09-10T06:40:15.785Z,120568,-0.12939453,1.0499268,-0.3232422
1725950415833,2024-09-10T06:40:15.833Z,120616,-0.13433838,1.0338135,-0.3287964
1725950415877,2024-09-10T06:40:15.877Z,120660,-0.15661621,1.0183716,-0.34851074
1725950415923,2024-09-10T06:40:15.923Z,120706,-0.14593506,1.0036621,-0.33398438
1725950415966,2024-09-10T06:40:15.966Z,120749,-0.1293335,1.0131836,-0.2952881
1725950416011,2024-09-10T06:40:16.011Z,120794,-0.12677002,0.9995117,-0.28240967
1725950416056,2024-09-10T06:40:16.056Z,120839,-0.14440918,0.986145,-0.2980957
1725950416083,2024-09-10T06:40:16.083Z,120866,-0.13140869,1.0012817,-0.28009033
1725950416108,2024-09-10T06:40:16.108Z,120891,-0.14746094,0.9937134,-0.26983643
1725950416146,2024-09-10T06:40:16.146Z,120929,-0.13305664,0.99017334,-0.28955078
1725950416191,2024-09-10T06:40:16.191Z,120974,-0.1295166,0.96032715,-0.27972412
1725950416237,2024-09-10T06:40:16.237Z,121020,-0.12463379,0.96136475,-0.26379395
1725950416281,2024-09-10T06:40:16.281Z,121064,-0.13085938,0.95440674,-0.274292
1725950416330,2024-09-10T06:40:16.330Z,121113,-0.12219238,0.9664917,-0.2802124
1725950416372,2024-09-10T06:40:16.372Z,121155,-0.10491943,0.9489746,-0.24475098
1725950416417,2024-09-10T06:40:16.417Z,121200,-0.11993408,0.9208374,-0.24316406
1725950416461,2024-09-10T06:40:16.461Z,121244,-0.1060791,0.93573,-0.22521973
1725950416484,2024-09-10T06:40:16.484Z,121267,-0.11682129,0.9232178,-0.22540283
1725950416518,2024-09-10T06:40:16.518Z,121301,-0.11621094,0.92785645,-0.23693848
1725950416550,2024-09-10T06:40:16.550Z,121333,-0.10882568,0.9371338,-0.22375488
1725950416596,2024-09-10T06:40:16.596Z,121379,-0.10144043,0.96295166,-0.19958496
1725950416641,2024-09-10T06:40:16.641Z,121424,-0.08190918,1.0029907,-0.20141602
1725950416688,2024-09-10T06:40:16.688Z,121471,-0.10101318,1.0008545,-0.19543457
1725950416731,2024-09-10T06:40:16.731Z,121514,-0.08331299,1.0036011,-0.19934082
1725950416776,2024-09-10T06:40:16.776Z,121559,-0.07928467,0.99194336,-0.17785645
1725950416830,2024-09-10T06:40:16.830Z,121613,-0.06817627,1.0012207,-0.1842041
1725950416870,2024-09-10T06:40:16.870Z,121653,-0.08276367,0.991333,-0.18151855
1725950416896,2024-09-10T06:40:16.896Z,121679,-0.038330078,0.99279785,-0.18200684
1725950416919,2024-09-10T06:40:16.919Z,121702,-0.061584473,0.97631836,-0.17077637
1725950416957,2024-09-10T06:40:16.957Z,121740,-0.04724121,0.9744873,-0.19140625
1725950417002,2024-09-10T06:40:17.002Z,121785,-0.06756592,0.96655273,-0.14013672
1725950417047,2024-09-10T06:40:17.047Z,121830,-0.058288574,0.9465332,-0.13793945
1725950417092,2024-09-10T06:40:17.092Z,121875,-0.0078125,0.95977783,-0.1161499
1725950417136,2024-09-10T06:40:17.136Z,121919,-0.058166504,0.96850586,-0.073913574
1725950417181,2024-09-10T06:40:17.181Z,121964,-0.04449463,0.98760986,-0.105041504
1725950417228,2024-09-10T06:40:17.228Z,122011,-0.04901123,1.0044556,-0.093322754
1725950417272,2024-09-10T06:40:17.272Z,122055,-0.043823242,1.0212402,-0.07873535
1725950417318,2024-09-10T06:40:17.318Z,122101,-0.07165527,0.99468994,-0.07910156
1725950417341,2024-09-10T06:40:17.341Z,122124,-0.036987305,0.9869385,-0.074523926
1725950417374,2024-09-10T06:40:17.374Z,122157,-0.03100586,0.9793701,-0.051452637
1725950417407,2024-09-10T06:40:17.407Z,122190,-0.03729248,0.97161865,-0.035217285
1725950417464,2024-09-10T06:40:17.464Z,122247,-0.020629883,0.9796753,-0.024536133
1725950417507,2024-09-10T06:40:17.507Z,122290,-0.02709961,0.98498535,-0.034851074
1725950417543,2024-09-10T06:40:17.543Z,122326,-0.023254395,0.97143555,-0.03967285
1725950417587,2024-09-10T06:40:17.587Z,122370,0.0010375977,0.9748535,-0.018005371
1725950417631,2024-09-10T06:40:17.631Z,122414,-0.04260254,0.9862671,0.019226074
1725950417677,2024-09-10T06:40:17.677Z,122460,-0.029907227,0.97528076,0.009155273
1725950417723,2024-09-10T06:40:17.723Z,122506,-0.018920898,0.9880371,0.020935059
1725950417749,2024-09-10T06:40:17.749Z,122532,-0.031982422,1.0042114,0.011169434
1725950417776,2024-09-10T06:40:17.776Z,122559,-0.022827148,0.9815674,7.9345703E-4
1725950417809,2024-09-10T06:40:17.809Z,122592,-0.022155762,0.98669434,0.0045776367
1725950417857,2024-09-10T06:40:17.857Z,122640,-0.013793945,0.9619751,0.017578125
1725950417902,2024-09-10T06:40:17.902Z,122685,-0.0036010742,0.9622803,0.021362305
1725950417946,2024-09-10T06:40:17.946Z,122729,-0.020568848,0.99279785,0.014953613
1725950417993,2024-09-10T06:40:17.993Z,122776,-0.039611816,1.0085449,0.013366699
1725950418035,2024-09-10T06:40:18.035Z,122818,-0.03540039,1.019165,0.032287598
1725950418082,2024-09-10T06:40:18.082Z,122865,-0.018005371,1.0025024,0.026000977
1725950418130,2024-09-10T06:40:18.130Z,122913,-0.017578125,0.9957886,0.029296875
1725950418152,2024-09-10T06:40:18.152Z,122935,-0.0146484375,0.9857178,0.04449463
1725950418172,2024-09-10T06:40:18.172Z,122955,-0.018920898,1.001831,0.028869629
1725950418215,2024-09-10T06:40:18.215Z,122998,-0.019042969,1.0337524,0.025024414
1725950418261,2024-09-10T06:40:18.261Z,123044,-0.0234375,1.0195923,0.01751709
1725950418305,2024-09-10T06:40:18.305Z,123088,-0.014282227,0.9984741,-0.0072631836
1725950418352,2024-09-10T06:40:18.352Z,123135,-0.023742676,0.9805298,0.010437012
1725950418397,2024-09-10T06:40:18.397Z,123180,-0.01739502,0.94714355,0.028503418
1725950418441,2024-09-10T06:40:18.441Z,123224,0.020263672,0.94854736,0.0076293945
1725950418485,2024-09-10T06:40:18.485Z,123268,-0.034240723,0.9977417,-0.04321289
1725950418535,2024-09-10T06:40:18.535Z,123318,0.0059814453,1.008606,-0.003540039
1725950418559,2024-09-10T06:40:18.559Z,123342,-0.036193848,1.0506592,0.018859863
1725950418581,2024-09-10T06:40:18.581Z,123364,-0.013244629,1.0463867,-0.014038086
1725950418622,2024-09-10T06:40:18.622Z,123405,-0.027832031,1.0100098,0.0064086914
1725950418665,2024-09-10T06:40:18.665Z,123448,0.040222168,1.0037842,-0.04522705
1725950418712,2024-09-10T06:40:18.712Z,123495,-0.02960205,0.9845581,-0.057495117
1725950418755,2024-09-10T06:40:18.755Z,123538,-0.011230469,0.9838867,-0.097473145
1725950418803,2024-09-10T06:40:18.803Z,123586,-0.046569824,0.972229,-0.06665039
1725950418847,2024-09-10T06:40:18.847Z,123630,-0.015319824,0.99591064,-0.07196045
1725950418891,2024-09-10T06:40:18.891Z,123674,-0.07092285,1.0170288,-0.07019043
1725950418937,2024-09-10T06:40:18.937Z,123720,-0.062683105,1.0049438,-0.06732178
1725950418983,2024-09-10T06:40:18.983Z,123766,-0.05908203,0.9882202,-0.0947876
1725950419008,2024-09-10T06:40:19.008Z,123791,-0.06378174,0.97454834,-0.099853516
1725950419033,2024-09-10T06:40:19.033Z,123816,-0.06109619,0.975647,-0.121398926
1725950419070,2024-09-10T06:40:19.070Z,123853,-0.068115234,0.96380615,-0.1437378
1725950419117,2024-09-10T06:40:19.117Z,123900,-0.12640381,0.9532471,-0.15753174
1725950419163,2024-09-10T06:40:19.163Z,123946,-0.041503906,1.0115356,-0.18597412
1725950419208,2024-09-10T06:40:19.208Z,123991,-0.12017822,0.993042,-0.15686035
1725950419251,2024-09-10T06:40:19.251Z,124034,-0.13421631,1.0042114,-0.18096924
1725950419297,2024-09-10T06:40:19.297Z,124080,-0.0647583,1.0080566,-0.18701172
1725950419343,2024-09-10T06:40:19.343Z,124126,-0.10394287,0.9828491,-0.18139648
1725950419388,2024-09-10T06:40:19.388Z,124171,-0.07122803,1.0046997,-0.19909668
1725950419413,2024-09-10T06:40:19.413Z,124196,-0.11517334,0.9873657,-0.21618652
1725950419437,2024-09-10T06:40:19.437Z,124220,-0.081726074,0.9694824,-0.21716309
1725950419476,2024-09-10T06:40:19.476Z,124259,-0.11383057,0.93292236,-0.20928955
1725950419521,2024-09-10T06:40:19.521Z,124304,-0.082336426,0.9442749,-0.21185303
1725950419567,2024-09-10T06:40:19.567Z,124350,-0.10223389,0.9398804,-0.22497559
1725950419612,2024-09-10T06:40:19.612Z,124395,-0.09509277,0.97436523,-0.2565918
1725950419657,2024-09-10T06:40:19.657Z,124440,-0.12957764,0.9536133,-0.25372314
1725950419704,2024-09-10T06:40:19.704Z,124487,-0.107055664,0.95874023,-0.2654419
1725950419749,2024-09-10T06:40:19.749Z,124532,-0.09887695,0.954834,-0.2565918
1725950419793,2024-09-10T06:40:19.793Z,124576,-0.10626221,0.9538574,-0.27545166
1725950419816,2024-09-10T06:40:19.816Z,124599,-0.1060791,0.9564209,-0.28564453
1725950419839,2024-09-10T06:40:19.839Z,124622,-0.113586426,0.9562988,-0.2876587
1725950419881,2024-09-10T06:40:19.881Z,124664,-0.12628174,0.95214844,-0.29248047
1725950419927,2024-09-10T06:40:19.927Z,124710,-0.095703125,0.9928589,-0.29455566
1725950419971,2024-09-10T06:40:19.971Z,124754,-0.13922119,0.9760742,-0.2855835
1725950420017,2024-09-10T06:40:20.017Z,124800,-0.109802246,0.991272,-0.29388428
1725950420062,2024-09-10T06:40:20.062Z,124845,-0.12207031,0.9848633,-0.30444336
1725950420108,2024-09-10T06:40:20.108Z,124891,-0.15759277,0.9841919,-0.28985596
1725950420152,2024-09-10T06:40:20.152Z,124935,-0.12701416,0.994812,-0.28857422
1725950420198,2024-09-10T06:40:20.198Z,124981,-0.13598633,0.9859619,-0.29241943
1725950420243,2024-09-10T06:40:20.243Z,125026,-0.12750244,0.98358154,-0.30023193
1725950420267,2024-09-10T06:40:20.267Z,125050,-0.13391113,0.9690552,-0.30474854
1725950420286,2024-09-10T06:40:20.286Z,125069,-0.1437378,0.9671631,-0.30950928
1725950420333,2024-09-10T06:40:20.333Z,125116,-0.13482666,0.9793701,-0.29486084
1725950420378,2024-09-10T06:40:20.378Z,125161,-0.1404419,0.98205566,-0.2929077
1725950420420,2024-09-10T06:40:20.420Z,125203,-0.14685059,0.9924927,-0.30212402
1725950420467,2024-09-10T06:40:20.467Z,125250,-0.1463623,0.9807129,-0.30029297
1725950420512,2024-09-10T06:40:20.512Z,125295,-0.15454102,0.9744873,-0.30426025
1725950420558,2024-09-10T06:40:20.558Z,125341,-0.15374756,0.9680176,-0.3060913
1725950420603,2024-09-10T06:40:20.603Z,125386,-0.14520264,0.96881104,-0.3001709
1725950420649,2024-09-10T06:40:20.649Z,125432,-0.14624023,0.970459,-0.30743408
