Timestamp (ms),ISO DateTime,Elapsed Time (ms),Acceleration X,Acceleration Y,Acceleration Z
1725699015514,2024-09-07T08:50:15.514Z,59953,0.29089355,0.92211914,0.16998291
1725699015556,2024-09-07T08:50:15.556Z,59995,0.20983887,0.902771,0.17883301
1725699015599,2024-09-07T08:50:15.599Z,60038,0.27960205,0.9411621,0.101379395
1725699015645,2024-09-07T08:50:15.645Z,60084,0.22174072,0.92633057,0.123046875
1725699015689,2024-09-07T08:50:15.689Z,60128,0.26153564,0.94317627,0.10748291
1725699015734,2024-09-07T08:50:15.734Z,60173,0.29180908,0.99017334,0.12445068
1725699015779,2024-09-07T08:50:15.779Z,60218,0.23754883,1.0580444,0.18267822
1725699015831,2024-09-07T08:50:15.831Z,60270,0.22229004,1.0942993,0.23236084
1725699015850,2024-09-07T08:50:15.850Z,60289,0.2574463,1.1119995,0.3293457
1725699015873,2024-09-07T08:50:15.873Z,60312,0.17370605,1.0634766,0.2972412
1725699015919,2024-09-07T08:50:15.919Z,60358,0.23028564,0.9467163,0.11621094
1725699015968,2024-09-07T08:50:15.968Z,60407,0.25653076,0.9020386,0.022583008
1725699016011,2024-09-07T08:50:16.011Z,60450,0.22076416,0.8656006,0.07171631
1725699016058,2024-09-07T08:50:16.058Z,60497,0.25787354,0.8779907,0.041381836
1725699016103,2024-09-07T08:50:16.103Z,60542,0.26849365,0.8876953,0.030639648
1725699016145,2024-09-07T08:50:16.145Z,60584,0.28790283,0.9041748,0.016052246
1725699016195,2024-09-07T08:50:16.195Z,60634,0.31201172,0.93829346,0.107299805
1725699016235,2024-09-07T08:50:16.235Z,60674,0.24658203,1.0025024,0.16748047
1725699016256,2024-09-07T08:50:16.256Z,60695,0.33447266,1.0015869,0.05230713
1725699016282,2024-09-07T08:50:16.282Z,60721,0.2800293,0.8960571,0.13739014
1725699016324,2024-09-07T08:50:16.324Z,60763,0.24969482,0.86120605,0.16168213
1725699016377,2024-09-07T08:50:16.377Z,60816,0.30670166,0.8583374,0.15917969
1725699016413,2024-09-07T08:50:16.413Z,60852,0.2364502,0.94207764,0.11071777
1725699016462,2024-09-07T08:50:16.462Z,60901,0.26208496,0.9885864,0.117614746
1725699016506,2024-09-07T08:50:16.506Z,60945,0.2593994,0.9840088,0.109680176
1725699016549,2024-09-07T08:50:16.549Z,60988,0.25732422,0.9564209,0.09661865
1725699016599,2024-09-07T08:50:16.599Z,61038,0.20471191,0.93377686,0.08294678
1725699016643,2024-09-07T08:50:16.643Z,61082,0.22711182,0.89385986,0.103149414
1725699016683,2024-09-07T08:50:16.683Z,61122,0.24584961,0.8911133,0.1038208
1725699016702,2024-09-07T08:50:16.702Z,61141,0.19873047,0.96362305,0.122680664
1725699016728,2024-09-07T08:50:16.728Z,61167,0.2119751,1.0285645,0.12225342
1725699016774,2024-09-07T08:50:16.774Z,61213,0.3057251,1.0131836,0.12109375
1725699016820,2024-09-07T08:50:16.820Z,61259,0.24798584,0.9744873,0.15252686
1725699016866,2024-09-07T08:50:16.866Z,61305,0.22607422,0.9680786,0.17297363
1725699016910,2024-09-07T08:50:16.910Z,61349,0.2803955,1.0200806,0.14324951
1725699016957,2024-09-07T08:50:16.957Z,61396,0.31640625,1.0203247,0.12335205
1725699017000,2024-09-07T08:50:17Z,61439,0.23468018,0.9317627,0.15002441
1725699017046,2024-09-07T08:50:17.046Z,61485,0.2633667,0.93322754,0.17437744
1725699017090,2024-09-07T08:50:17.090Z,61529,0.20159912,0.9845581,0.15209961
1725699017112,2024-09-07T08:50:17.112Z,61551,0.21936035,1.0029907,0.05340576
1725699017133,2024-09-07T08:50:17.133Z,61572,0.23162842,0.94525146,0.07281494
1725699017180,2024-09-07T08:50:17.180Z,61619,0.24658203,0.9203491,0.10223389
1725699017227,2024-09-07T08:50:17.227Z,61666,0.1864624,0.98547363,0.1963501
1725699017269,2024-09-07T08:50:17.269Z,61708,0.20794678,1.145813,0.20617676
1725699017318,2024-09-07T08:50:17.318Z,61757,0.20855713,0.79937744,0.039794922
1725699017363,2024-09-07T08:50:17.363Z,61802,0.29162598,0.9498291,0.053344727
1725699017408,2024-09-07T08:50:17.408Z,61847,0.11431885,0.9885864,0.06439209
1725699017453,2024-09-07T08:50:17.453Z,61892,0.21069336,0.977478,-0.022399902
1725699017496,2024-09-07T08:50:17.496Z,61935,0.2897339,0.930603,0.11315918
1725699017518,2024-09-07T08:50:17.518Z,61957,0.24206543,1.1170044,0.21508789
1725699017539,2024-09-07T08:50:17.539Z,61978,0.24035645,0.9682007,0.026611328
1725699017584,2024-09-07T08:50:17.584Z,62023,0.17553711,0.93218994,0.07019043
1725699017629,2024-09-07T08:50:17.629Z,62068,0.20703125,0.9725342,0.02947998
1725699017675,2024-09-07T08:50:17.675Z,62114,0.16479492,0.96221924,0.10601807
1725699017720,2024-09-07T08:50:17.720Z,62159,0.21398926,0.99853516,0.111572266
1725699017767,2024-09-07T08:50:17.767Z,62206,0.27752686,0.8793335,0.0357666
1725699017816,2024-09-07T08:50:17.816Z,62255,0.23626709,1.0003662,-0.037109375
1725699017855,2024-09-07T08:50:17.855Z,62294,0.20880127,1.0302124,0.009338379
1725699017899,2024-09-07T08:50:17.899Z,62338,0.25500488,1.020752,0.0107421875
1725699017949,2024-09-07T08:50:17.949Z,62388,0.28564453,1.0009766,-0.014221191
1725699017970,2024-09-07T08:50:17.970Z,62409,0.26971436,1.0254517,0.030212402
1725699017989,2024-09-07T08:50:17.989Z,62428,0.21990967,1.0621948,0.11175537
1725699018034,2024-09-07T08:50:18.034Z,62473,0.2755127,1.0838013,0.07446289
1725699018078,2024-09-07T08:50:18.078Z,62517,0.2536621,0.96362305,0.060180664
1725699018124,2024-09-07T08:50:18.124Z,62563,0.24615479,0.92211914,0.036621094
1725699018168,2024-09-07T08:50:18.168Z,62607,0.2354126,0.9172363,0.032592773
1725699018216,2024-09-07T08:50:18.216Z,62655,0.27697754,0.98791504,-0.03741455
1725699018262,2024-09-07T08:50:18.262Z,62701,0.2718506,1.0634155,0.01550293
1725699018304,2024-09-07T08:50:18.304Z,62743,0.29003906,1.0100708,0.037597656
1725699018351,2024-09-07T08:50:18.351Z,62790,0.2960205,0.9904785,-0.06317139
1725699018376,2024-09-07T08:50:18.376Z,62815,0.30462646,0.9671631,-0.012145996
1725699018394,2024-09-07T08:50:18.394Z,62833,0.28533936,0.96313477,-0.02130127
1725699018435,2024-09-07T08:50:18.435Z,62874,0.26843262,0.9578247,-0.041870117
1725699018486,2024-09-07T08:50:18.486Z,62925,0.2559204,0.9769287,-0.04425049
1725699018532,2024-09-07T08:50:18.532Z,62971,0.27667236,0.98724365,9.765625E-4
1725699018576,2024-09-07T08:50:18.576Z,63015,0.25701904,1.0814819,-0.037475586
1725699018620,2024-09-07T08:50:18.620Z,63059,0.30303955,0.98547363,-0.06378174
1725699018664,2024-09-07T08:50:18.664Z,63103,0.33831787,1.0622559,-0.041992188
1725699018709,2024-09-07T08:50:18.709Z,63148,0.28808594,1.0718384,0.012268066
1725699018756,2024-09-07T08:50:18.756Z,63195,0.26446533,1.0401001,-0.08087158
1725699018778,2024-09-07T08:50:18.778Z,63217,0.31085205,1.0142212,-0.057922363
1725699018796,2024-09-07T08:50:18.796Z,63235,0.31054688,0.98431396,-0.022338867
1725699018839,2024-09-07T08:50:18.839Z,63278,0.2668457,1.0036011,-0.04864502
1725699018892,2024-09-07T08:50:18.892Z,63331,0.28912354,0.975647,-0.021057129
1725699018936,2024-09-07T08:50:18.936Z,63375,0.25585938,0.9770508,-0.035095215
1725699018981,2024-09-07T08:50:18.981Z,63420,0.21124268,0.9317627,0.018737793
1725699019025,2024-09-07T08:50:19.025Z,63464,0.24694824,0.8773804,0.03326416
1725699019072,2024-09-07T08:50:19.072Z,63511,0.24993896,0.90411377,-0.03491211
1725699019115,2024-09-07T08:50:19.115Z,63554,0.24285889,0.9627075,-0.07128906
1725699019159,2024-09-07T08:50:19.159Z,63598,0.25891113,0.9926758,-0.06274414
1725699019205,2024-09-07T08:50:19.205Z,63644,0.28424072,1.0316772,-0.06732178
1725699019227,2024-09-07T08:50:19.227Z,63666,0.27600098,1.1011963,-0.06414795
1725699019249,2024-09-07T08:50:19.249Z,63688,0.2645874,1.1091919,-0.039245605
1725699019294,2024-09-07T08:50:19.294Z,63733,0.30523682,1.1171875,-0.07458496
1725699019339,2024-09-07T08:50:19.339Z,63778,0.23175049,1.0930176,-0.015258789
1725699019382,2024-09-07T08:50:19.382Z,63821,0.19274902,1.0099487,0.16687012
1725699019429,2024-09-07T08:50:19.429Z,63868,0.2520752,1.0635986,-0.011169434
1725699019474,2024-09-07T08:50:19.474Z,63913,0.3110962,1.1417847,-0.13110352
1725699019522,2024-09-07T08:50:19.522Z,63961,0.27490234,1.0593262,-0.018798828
1725699019566,2024-09-07T08:50:19.566Z,64005,0.2659912,1.06427,-0.050048828
1725699019612,2024-09-07T08:50:19.612Z,64051,0.23010254,1.0140991,-0.035949707
1725699019641,2024-09-07T08:50:19.641Z,64080,0.26782227,1.0076294,-0.054138184
1725699019666,2024-09-07T08:50:19.666Z,64105,0.25238037,0.98895264,-0.030273438
1725699019700,2024-09-07T08:50:19.700Z,64139,0.2514038,0.9939575,-0.03479004
1725699019744,2024-09-07T08:50:19.744Z,64183,0.26586914,0.99938965,-0.031188965
1725699019791,2024-09-07T08:50:19.791Z,64230,0.2662964,0.99780273,-0.012084961
1725699019836,2024-09-07T08:50:19.836Z,64275,0.26104736,1.0029297,-0.046203613
1725699019885,2024-09-07T08:50:19.885Z,64324,0.21862793,0.9686279,-0.0014038086
1725699019923,2024-09-07T08:50:19.923Z,64362,0.21789551,0.9510498,0.03918457
1725699019976,2024-09-07T08:50:19.976Z,64415,0.24035645,1.0025024,0.0071411133
1725699020022,2024-09-07T08:50:20.022Z,64461,0.25915527,1.0501099,-0.033935547
1725699020048,2024-09-07T08:50:20.048Z,64487,0.25628662,1.0518799,-0.06616211
1725699020069,2024-09-07T08:50:20.069Z,64508,0.28790283,1.0081787,-0.030151367
1725699020102,2024-09-07T08:50:20.102Z,64541,0.23083496,1.0020752,-0.0036621094
1725699020150,2024-09-07T08:50:20.150Z,64589,0.23797607,0.9954834,-0.01361084
1725699020198,2024-09-07T08:50:20.198Z,64637,0.28625488,0.977417,-0.010681152
1725699020244,2024-09-07T08:50:20.244Z,64683,0.27612305,0.9719238,0.017456055
1725699020286,2024-09-07T08:50:20.286Z,64725,0.22265625,0.94958496,0.056030273
1725699020336,2024-09-07T08:50:20.336Z,64775,0.23138428,0.9317627,0.028137207
1725699020376,2024-09-07T08:50:20.376Z,64815,0.2675171,0.91711426,0.05517578
1725699020419,2024-09-07T08:50:20.419Z,64858,0.25073242,0.9224243,0.0814209
1725699020465,2024-09-07T08:50:20.465Z,64904,0.24859619,0.9552002,0.075927734
1725699020485,2024-09-07T08:50:20.485Z,64924,0.21740723,0.97491455,0.052856445
1725699020509,2024-09-07T08:50:20.509Z,64948,0.21826172,0.9229126,0.10668945
1725699020554,2024-09-07T08:50:20.554Z,64993,0.24371338,0.87976074,0.1182251
1725699020604,2024-09-07T08:50:20.604Z,65043,0.2475586,0.8915405,0.095581055
1725699020645,2024-09-07T08:50:20.645Z,65084,0.22955322,0.89068604,0.113220215
1725699020690,2024-09-07T08:50:20.690Z,65129,0.22723389,0.9012451,0.09411621
1725699020736,2024-09-07T08:50:20.736Z,65175,0.23431396,0.87335205,0.14666748
1725699020783,2024-09-07T08:50:20.783Z,65222,0.26776123,0.8845215,0.10650635
1725699020874,2024-09-07T08:50:20.874Z,65313,0.25701904,0.8466797,0.17553711
1725699020896,2024-09-07T08:50:20.896Z,65335,0.2255249,0.8466797,0.2010498
1725699020917,2024-09-07T08:50:20.917Z,65356,0.22521973,0.8477783,0.19799805
1725699020929,2024-09-07T08:50:20.929Z,65368,0.16693115,0.8777466,0.2322998
1725699020965,2024-09-07T08:50:20.965Z,65404,0.26080322,0.9172363,0.21118164
1725699021004,2024-09-07T08:50:21.004Z,65443,0.24633789,0.9534302,0.19476318
1725699021049,2024-09-07T08:50:21.049Z,65488,0.27093506,0.9602661,0.2019043
1725699021096,2024-09-07T08:50:21.096Z,65535,0.28814697,0.939209,0.22381592
1725699021139,2024-09-07T08:50:21.139Z,65578,0.23718262,0.9161377,0.2366333
1725699021186,2024-09-07T08:50:21.186Z,65625,0.17901611,0.8795166,0.22253418
1725699021231,2024-09-07T08:50:21.231Z,65670,0.16314697,0.85510254,0.3411255
1725699021278,2024-09-07T08:50:21.278Z,65717,0.093688965,0.9569092,0.3585205
1725699021303,2024-09-07T08:50:21.303Z,65742,0.15820312,1.0385742,0.22973633
1725699021325,2024-09-07T08:50:21.325Z,65764,0.23071289,0.9590454,0.26324463
1725699021363,2024-09-07T08:50:21.363Z,65802,0.2705078,0.89801025,0.23791504
1725699021413,2024-09-07T08:50:21.413Z,65852,0.24542236,0.8718872,0.27868652
1725699021457,2024-09-07T08:50:21.457Z,65896,0.25909424,0.90130615,0.33337402
1725699021505,2024-09-07T08:50:21.505Z,65944,0.2508545,0.95318604,0.33624268
1725699021548,2024-09-07T08:50:21.548Z,65987,0.25219727,0.9807739,0.31304932
1725699021591,2024-09-07T08:50:21.591Z,66030,0.24267578,0.96624756,0.29223633
1725699021636,2024-09-07T08:50:21.636Z,66075,0.2564087,0.92541504,0.2593994
1725699021682,2024-09-07T08:50:21.682Z,66121,0.27001953,0.8862915,0.23474121
1725699021729,2024-09-07T08:50:21.729Z,66168,0.28070068,0.88739014,0.2498169
1725699021749,2024-09-07T08:50:21.749Z,66188,0.26330566,0.91516113,0.26263428
1725699021768,2024-09-07T08:50:21.768Z,66207,0.22387695,0.93981934,0.2713623
1725699021819,2024-09-07T08:50:21.819Z,66258,0.2255249,0.94921875,0.28009033
1725699021859,2024-09-07T08:50:21.859Z,66298,0.24249268,0.9331665,0.24505615
1725699021904,2024-09-07T08:50:21.904Z,66343,0.246521,0.8918457,0.27111816
1725699021949,2024-09-07T08:50:21.949Z,66388,0.2444458,0.90179443,0.24853516
1725699021996,2024-09-07T08:50:21.996Z,66435,0.24450684,0.9265137,0.22973633
1725699022044,2024-09-07T08:50:22.044Z,66483,0.22717285,0.9447632,0.23577881
1725699022086,2024-09-07T08:50:22.086Z,66525,0.21923828,0.9512329,0.18286133
1725699022128,2024-09-07T08:50:22.128Z,66567,0.23797607,0.91082764,0.16253662
1725699022146,2024-09-07T08:50:22.146Z,66585,0.27331543,0.8815918,0.17913818
1725699022171,2024-09-07T08:50:22.171Z,66610,0.24694824,0.91851807,0.17089844
1725699022219,2024-09-07T08:50:22.219Z,66658,0.2098999,0.934021,0.17266846
1725699022264,2024-09-07T08:50:22.264Z,66703,0.21057129,0.91186523,0.14025879
1725699022310,2024-09-07T08:50:22.310Z,66749,0.30804443,0.9069214,0.16955566
1725699022356,2024-09-07T08:50:22.356Z,66795,0.24267578,0.9602661,0.13739014
1725699022400,2024-09-07T08:50:22.400Z,66839,0.25616455,1.0029297,0.18652344
1725699022447,2024-09-07T08:50:22.447Z,66886,0.3170166,1.0036621,0.1586914
1725699022488,2024-09-07T08:50:22.488Z,66927,0.2390747,0.9852905,0.09692383
1725699022533,2024-09-07T08:50:22.533Z,66972,0.18273926,0.8998413,0.11608887
1725699022553,2024-09-07T08:50:22.553Z,66992,0.29901123,0.8803711,0.08618164
1725699022577,2024-09-07T08:50:22.577Z,67016,0.24017334,0.8652954,0.07751465
1725699022623,2024-09-07T08:50:22.623Z,67062,0.26745605,0.8874512,0.09283447
1725699022667,2024-09-07T08:50:22.667Z,67106,0.25628662,0.9182739,0.121276855
1725699022713,2024-09-07T08:50:22.713Z,67152,0.23913574,0.9400635,0.072387695
1725699022759,2024-09-07T08:50:22.759Z,67198,0.2685547,0.97039795,0.022094727
1725699022806,2024-09-07T08:50:22.806Z,67245,0.24914551,0.93725586,0.121398926
1725699022851,2024-09-07T08:50:22.851Z,67290,0.2659912,1.0003052,0.06225586
1725699022897,2024-09-07T08:50:22.897Z,67336,0.25769043,1.0403442,0.089904785
1725699022939,2024-09-07T08:50:22.939Z,67378,0.25836182,1.0664062,0.08135986
1725699023034,2024-09-07T08:50:23.034Z,67473,0.2886963,1.0266724,0.076293945
1725699023058,2024-09-07T08:50:23.058Z,67497,0.17938232,0.9142456,0.12756348
1725699023080,2024-09-07T08:50:23.080Z,67519,0.2699585,1.0484009,0.05078125
1725699023120,2024-09-07T08:50:23.120Z,67559,0.35211182,1.0869141,0.08239746
1725699023138,2024-09-07T08:50:23.138Z,67577,0.32263184,1.069397,0.051696777
1725699023164,2024-09-07T08:50:23.164Z,67603,0.21282959,0.9435425,0.06573486
1725699023209,2024-09-07T08:50:23.209Z,67648,0.18890381,0.7767334,0.09625244
1725699023259,2024-09-07T08:50:23.259Z,67698,0.2097168,0.91156006,0.057006836
1725699023300,2024-09-07T08:50:23.300Z,67739,0.24713135,0.9238281,-0.05206299
1725699023346,2024-09-07T08:50:23.346Z,67785,0.28240967,0.9238281,-0.032104492
1725699023388,2024-09-07T08:50:23.388Z,67827,0.2506714,0.9367676,-0.019104004
1725699023408,2024-09-07T08:50:23.408Z,67847,0.25531006,0.97454834,-0.03338623
1725699023433,2024-09-07T08:50:23.433Z,67872,0.3015747,0.99871826,-0.033813477
1725699023479,2024-09-07T08:50:23.479Z,67918,0.28393555,1.0339966,-0.022521973
1725699023526,2024-09-07T08:50:23.526Z,67965,0.28112793,1.1257324,0.037902832
1725699023573,2024-09-07T08:50:23.573Z,68012,0.29180908,0.98895264,0.05218506
1725699023616,2024-09-07T08:50:23.616Z,68055,0.28186035,0.9470825,-0.05596924
1725699023662,2024-09-07T08:50:23.662Z,68101,0.25836182,0.94403076,-0.06359863
1725699023706,2024-09-07T08:50:23.706Z,68145,0.31030273,0.98187256,-0.06719971
1725699023752,2024-09-07T08:50:23.752Z,68191,0.28668213,0.97961426,-0.0925293
1725699023798,2024-09-07T08:50:23.798Z,68237,0.27233887,1.0198364,-0.1416626
1725699023822,2024-09-07T08:50:23.822Z,68261,0.31365967,0.9937134,-0.07336426
1725699023836,2024-09-07T08:50:23.836Z,68275,0.28759766,1.041687,-0.007080078
1725699023881,2024-09-07T08:50:23.881Z,68320,0.2567749,1.1889038,-0.15997314
1725699023932,2024-09-07T08:50:23.932Z,68371,0.25598145,0.96936035,-0.10852051
1725699023977,2024-09-07T08:50:23.977Z,68416,0.26782227,0.84588623,0.009399414
1725699024024,2024-09-07T08:50:24.024Z,68463,0.24475098,0.9180908,-0.10455322
1725699024067,2024-09-07T08:50:24.067Z,68506,0.24047852,0.95428467,-0.14916992
1725699024113,2024-09-07T08:50:24.113Z,68552,0.27282715,0.97052,-0.08276367
1725699024156,2024-09-07T08:50:24.156Z,68595,0.23937988,0.98657227,-0.08001709
1725699024202,2024-09-07T08:50:24.202Z,68641,0.28619385,0.975647,-0.09509277
1725699024247,2024-09-07T08:50:24.247Z,68686,0.28222656,0.9990845,-0.06359863
1725699024269,2024-09-07T08:50:24.269Z,68708,0.25610352,1.0302734,-0.058166504
1725699024290,2024-09-07T08:50:24.290Z,68729,0.27856445,0.9796753,-0.1239624
1725699024337,2024-09-07T08:50:24.337Z,68776,0.2508545,0.96087646,-0.12963867
1725699024380,2024-09-07T08:50:24.380Z,68819,0.23632812,0.9463501,-0.11816406
1725699024428,2024-09-07T08:50:24.428Z,68867,0.25830078,0.94854736,-0.18237305
1725699024476,2024-09-07T08:50:24.476Z,68915,0.2529297,0.9533081,-0.13354492
1725699024518,2024-09-07T08:50:24.518Z,68957,0.28863525,0.9890747,-0.15637207
1725699024561,2024-09-07T08:50:24.561Z,69000,0.2390747,1.0480957,-0.18725586
1725699024606,2024-09-07T08:50:24.606Z,69045,0.25946045,1.098938,-0.078430176
1725699024652,2024-09-07T08:50:24.652Z,69091,0.29968262,1.0894775,-0.1281128
1725699024676,2024-09-07T08:50:24.676Z,69115,0.2640381,1.0095825,-0.144104
1725699024698,2024-09-07T08:50:24.698Z,69137,0.21655273,1.010437,-0.15441895
1725699024739,2024-09-07T08:50:24.739Z,69178,0.2354126,0.95825195,-0.123168945
1725699024786,2024-09-07T08:50:24.786Z,69225,0.26068115,0.94610596,-0.12597656
1725699024831,2024-09-07T08:50:24.831Z,69270,0.24371338,0.95983887,-0.1619873
1725699024874,2024-09-07T08:50:24.874Z,69313,0.25268555,0.98291016,-0.17138672
1725699024920,2024-09-07T08:50:24.920Z,69359,0.22723389,0.9555664,-0.11602783
1725699024968,2024-09-07T08:50:24.968Z,69407,0.27593994,0.9595337,-0.099975586
1725699025008,2024-09-07T08:50:25.008Z,69447,0.26184082,0.9807129,-0.15600586
1725699025058,2024-09-07T08:50:25.058Z,69497,0.23779297,0.97869873,-0.15765381
1725699025074,2024-09-07T08:50:25.074Z,69513,0.28466797,0.9624634,-0.08093262
1725699025096,2024-09-07T08:50:25.096Z,69535,0.20703125,0.98864746,-0.08728027
1725699025144,2024-09-07T08:50:25.144Z,69583,0.25195312,0.98168945,-0.13439941
1725699025191,2024-09-07T08:50:25.191Z,69630,0.286438,0.9708252,-0.13916016
1725699025237,2024-09-07T08:50:25.237Z,69676,0.26184082,1.072937,-0.19561768
1725699025280,2024-09-07T08:50:25.280Z,69719,0.28778076,1.1435547,-0.19116211
1725699025324,2024-09-07T08:50:25.324Z,69763,0.28308105,1.1878662,-0.230896
1725699025371,2024-09-07T08:50:25.371Z,69810,0.24047852,1.1167603,-0.0018920898
1725699025417,2024-09-07T08:50:25.417Z,69856,0.24572754,1.0543213,-0.046081543
1725699025461,2024-09-07T08:50:25.461Z,69900,0.31036377,1.1246948,-0.28790283
1725699025510,2024-09-07T08:50:25.510Z,69949,0.27093506,1.045166,-0.2098999
1725699025537,2024-09-07T08:50:25.537Z,69976,0.30822754,1.0013428,-0.09350586
1725699025559,2024-09-07T08:50:25.559Z,69998,0.2904663,1.0144653,-0.1305542
1725699025592,2024-09-07T08:50:25.592Z,70031,0.2366333,0.9893799,-0.14129639
1725699025640,2024-09-07T08:50:25.640Z,70079,0.28381348,0.97094727,-0.07354736
1725699025685,2024-09-07T08:50:25.685Z,70124,0.30029297,1.0206299,-0.15704346
1725699025729,2024-09-07T08:50:25.729Z,70168,0.27435303,1.0101929,-0.16455078
1725699025778,2024-09-07T08:50:25.778Z,70217,0.22564697,0.9267578,0.04876709
1725699025821,2024-09-07T08:50:25.821Z,70260,0.2454834,1.0098877,-0.13061523
1725699025866,2024-09-07T08:50:25.866Z,70305,0.24206543,0.9725342,-0.1305542
1725699025906,2024-09-07T08:50:25.906Z,70345,0.25964355,0.94659424,-0.015319824
1725699025928,2024-09-07T08:50:25.928Z,70367,0.2975464,1.0341797,-0.08721924
1725699025951,2024-09-07T08:50:25.951Z,70390,0.22955322,1.0418091,-0.09710693
1725699026001,2024-09-07T08:50:26.001Z,70440,0.28704834,1.0441284,-0.10040283
1725699026048,2024-09-07T08:50:26.048Z,70487,0.28198242,0.9882202,-0.07342529
1725699026093,2024-09-07T08:50:26.093Z,70532,0.27233887,0.9750366,-0.051940918
1725699026137,2024-09-07T08:50:26.137Z,70576,0.26367188,0.9734497,-0.044128418
1725699026180,2024-09-07T08:50:26.180Z,70619,0.24951172,0.9468384,-0.012268066
1725699026228,2024-09-07T08:50:26.228Z,70667,0.26757812,0.94299316,-0.0056762695
1725699026273,2024-09-07T08:50:26.273Z,70712,0.20550537,0.9175415,0.019897461
1725699026320,2024-09-07T08:50:26.320Z,70759,0.25531006,0.89611816,0.040527344
1725699026345,2024-09-07T08:50:26.345Z,70784,0.26696777,0.8925171,0.08734131
1725699026368,2024-09-07T08:50:26.368Z,70807,0.18096924,0.9361572,0.06506348
1725699026403,2024-09-07T08:50:26.403Z,70842,0.17181396,0.902771,0.13446045
1725699026450,2024-09-07T08:50:26.450Z,70889,0.3145752,0.92718506,0.06365967
1725699026496,2024-09-07T08:50:26.496Z,70935,0.19854736,0.9351196,0.16253662
1725699026542,2024-09-07T08:50:26.542Z,70981,0.20220947,0.9569702,0.15350342
1725699026588,2024-09-07T08:50:26.588Z,71027,0.21655273,0.91241455,0.13220215
1725699026631,2024-09-07T08:50:26.631Z,71070,0.24938965,0.854126,0.18585205
1725699026678,2024-09-07T08:50:26.678Z,71117,0.21343994,0.86016846,0.15283203
1725699026722,2024-09-07T08:50:26.722Z,71161,0.21795654,0.8737793,0.17797852
1725699026745,2024-09-07T08:50:26.745Z,71184,0.19207764,0.8583374,0.23724365
1725699026768,2024-09-07T08:50:26.768Z,71207,0.22216797,0.8404541,0.18774414
1725699026810,2024-09-07T08:50:26.810Z,71249,0.20880127,0.85839844,0.19189453
1725699026857,2024-09-07T08:50:26.857Z,71296,0.20111084,0.88061523,0.22857666
1725699026901,2024-09-07T08:50:26.901Z,71340,0.19134521,0.92523193,0.2263794
1725699026945,2024-09-07T08:50:26.945Z,71384,0.25860596,0.90283203,0.2697754
1725699026992,2024-09-07T08:50:26.992Z,71431,0.15838623,0.89434814,0.19238281
1725699027038,2024-09-07T08:50:27.038Z,71477,0.2947998,0.88500977,0.25354004
1725699027081,2024-09-07T08:50:27.081Z,71520,0.2841797,0.89868164,0.3088379
1725699027124,2024-09-07T08:50:27.124Z,71563,0.21124268,1.0001221,0.23175049
1725699027172,2024-09-07T08:50:27.172Z,71611,0.24224854,0.987854,0.29925537
1725699027196,2024-09-07T08:50:27.196Z,71635,0.21850586,0.93084717,0.32373047
1725699027213,2024-09-07T08:50:27.213Z,71652,0.230896,0.88848877,0.29675293
1725699027260,2024-09-07T08:50:27.260Z,71699,0.23162842,0.89019775,0.2831421
1725699027305,2024-09-07T08:50:27.305Z,71744,0.23382568,0.9434204,0.27062988
1725699027350,2024-09-07T08:50:27.350Z,71789,0.24517822,0.96032715,0.29748535
1725699027395,2024-09-07T08:50:27.395Z,71834,0.2619629,0.9470215,0.28564453
1725699027442,2024-09-07T08:50:27.442Z,71881,0.2588501,0.9503784,0.24511719
1725699027490,2024-09-07T08:50:27.490Z,71929,0.25305176,0.9483032,0.2977295
1725699027531,2024-09-07T08:50:27.531Z,71970,0.22467041,0.96551514,0.2824707
1725699027575,2024-09-07T08:50:27.575Z,72014,0.23297119,0.9553833,0.2709961
1725699027598,2024-09-07T08:50:27.598Z,72037,0.21923828,0.91137695,0.27886963
1725699027620,2024-09-07T08:50:27.620Z,72059,0.23553467,0.91064453,0.2699585
1725699027663,2024-09-07T08:50:27.663Z,72102,0.2211914,0.95306396,0.23883057
1725699027710,2024-09-07T08:50:27.710Z,72149,0.2374878,0.9741211,0.24841309
1725699027755,2024-09-07T08:50:27.755Z,72194,0.2390747,0.95422363,0.24890137
1725699027800,2024-09-07T08:50:27.800Z,72239,0.25201416,0.91223145,0.25958252
1725699027847,2024-09-07T08:50:27.847Z,72286,0.24066162,0.89575195,0.25091553
1725699027892,2024-09-07T08:50:27.892Z,72331,0.24487305,0.9003906,0.22338867
1725699027937,2024-09-07T08:50:27.937Z,72376,0.22973633,0.916687,0.21844482
1725699027988,2024-09-07T08:50:27.988Z,72427,0.2420044,0.9416504,0.2290039
1725699028008,2024-09-07T08:50:28.008Z,72447,0.22930908,0.94714355,0.17785645
1725699028028,2024-09-07T08:50:28.028Z,72467,0.2290039,0.91363525,0.18054199
1725699028069,2024-09-07T08:50:28.069Z,72508,0.27111816,0.9013672,0.16534424
1725699028113,2024-09-07T08:50:28.113Z,72552,0.2423706,0.9022217,0.18121338
1725699028162,2024-09-07T08:50:28.162Z,72601,0.21472168,0.9248657,0.111694336
1725699028208,2024-09-07T08:50:28.208Z,72647,0.24328613,0.90063477,0.14367676
1725699028251,2024-09-07T08:50:28.251Z,72690,0.25701904,0.8828125,0.1305542
1725699028344,2024-09-07T08:50:28.344Z,72783,0.24414062,0.9093628,0.08483887
1725699028374,2024-09-07T08:50:28.374Z,72813,0.24261475,0.9435425,0.115722656
1725699028397,2024-09-07T08:50:28.397Z,72836,0.2163086,0.97753906,0.105651855
1725699028429,2024-09-07T08:50:28.429Z,72868,0.21221924,0.9642334,0.07110596
1725699028451,2024-09-07T08:50:28.451Z,72890,0.27520752,0.93151855,0.06774902
1725699028473,2024-09-07T08:50:28.473Z,72912,0.24603271,0.91186523,0.09741211
1725699028519,2024-09-07T08:50:28.519Z,72958,0.22558594,0.94885254,0.030395508
1725699028564,2024-09-07T08:50:28.564Z,73003,0.23382568,0.9454346,0.034973145
1725699028608,2024-09-07T08:50:28.608Z,73047,0.24963379,0.93444824,0.028503418
1725699028656,2024-09-07T08:50:28.656Z,73095,0.29022217,0.9500122,0.07281494
1725699028702,2024-09-07T08:50:28.702Z,73141,0.24957275,0.9863281,0.030944824
1725699028750,2024-09-07T08:50:28.750Z,73189,0.22290039,0.9882202,-0.03765869
1725699028791,2024-09-07T08:50:28.791Z,73230,0.30963135,0.95703125,0.014587402
1725699028839,2024-09-07T08:50:28.839Z,73278,0.2718506,0.9501343,0.032043457
1725699028860,2024-09-07T08:50:28.860Z,73299,0.23596191,0.9859619,-0.039123535
1725699028878,2024-09-07T08:50:28.878Z,73317,0.23095703,0.9573364,-0.026000977
1725699028927,2024-09-07T08:50:28.927Z,73366,0.3104248,0.96875,-0.07757568
1725699028972,2024-09-07T08:50:28.972Z,73411,0.27026367,0.97125244,-0.0015869141
1725699029017,2024-09-07T08:50:29.017Z,73456,0.25439453,0.9879761,-0.045410156
1725699029061,2024-09-07T08:50:29.061Z,73500,0.30688477,1.0084839,-0.113342285
1725699029105,2024-09-07T08:50:29.105Z,73544,0.274292,1.017334,-0.06744385
1725699029150,2024-09-07T08:50:29.150Z,73589,0.2675171,1.0162354,-0.053466797
1725699029197,2024-09-07T08:50:29.197Z,73636,0.28546143,1.0148315,-0.12408447
1725699029239,2024-09-07T08:50:29.239Z,73678,0.28009033,0.99645996,-0.11633301
1725699029262,2024-09-07T08:50:29.262Z,73701,0.27612305,0.9804077,-0.070129395
1725699029283,2024-09-07T08:50:29.283Z,73722,0.24835205,0.9736328,-0.11584473
1725699029329,2024-09-07T08:50:29.329Z,73768,0.2664795,0.93133545,-0.09057617
1725699029377,2024-09-07T08:50:29.377Z,73816,0.27807617,0.9454346,-0.047546387
1725699029468,2024-09-07T08:50:29.468Z,73907,0.2701416,1.0940552,-0.005432129
1725699029491,2024-09-07T08:50:29.491Z,73930,0.26086426,0.93273926,-0.06939697
1725699029510,2024-09-07T08:50:29.510Z,73949,0.31103516,0.9262085,-0.074401855
1725699029555,2024-09-07T08:50:29.555Z,73994,0.27697754,0.98828125,-0.08874512
1725699029601,2024-09-07T08:50:29.601Z,74040,0.23284912,1.0245972,-0.1161499
1725699029647,2024-09-07T08:50:29.647Z,74086,0.2265625,1.0091553,-0.14251709
1725699029697,2024-09-07T08:50:29.697Z,74136,0.27972412,0.9579468,-0.09906006
1725699029719,2024-09-07T08:50:29.719Z,74158,0.29681396,1.0072632,-0.101623535
1725699029747,2024-09-07T08:50:29.747Z,74186,0.25299072,1.0218506,-0.14367676
1725699029778,2024-09-07T08:50:29.778Z,74217,0.26263428,1.0489502,-0.15350342
1725699029826,2024-09-07T08:50:29.826Z,74265,0.23266602,1.0346069,-0.08013916
1725699029873,2024-09-07T08:50:29.873Z,74312,0.24633789,0.99090576,-0.093444824
1725699029918,2024-09-07T08:50:29.918Z,74357,0.27557373,0.95666504,-0.10491943
1725699029959,2024-09-07T08:50:29.959Z,74398,0.20800781,0.9782715,-0.13305664
1725699030005,2024-09-07T08:50:30.005Z,74444,0.28845215,0.9747925,-0.105651855
1725699030053,2024-09-07T08:50:30.053Z,74492,0.2625122,1.0075684,-0.13513184
1725699030096,2024-09-07T08:50:30.096Z,74535,0.3303833,1.0185547,-0.1361084
1725699030114,2024-09-07T08:50:30.114Z,74553,0.28356934,1.0401001,-0.16326904
1725699030137,2024-09-07T08:50:30.137Z,74576,0.2805786,1.0305176,-0.14239502
1725699030181,2024-09-07T08:50:30.181Z,74620,0.27355957,0.9945679,-0.09094238
1725699030234,2024-09-07T08:50:30.234Z,74673,0.2741089,0.99505615,-0.06335449
1725699030277,2024-09-07T08:50:30.277Z,74716,0.25024414,0.98358154,-0.09887695
1725699030328,2024-09-07T08:50:30.328Z,74767,0.22064209,0.97424316,-0.14929199
1725699030366,2024-09-07T08:50:30.366Z,74805,0.25482178,0.96191406,-0.17211914
1725699030412,2024-09-07T08:50:30.412Z,74851,0.23608398,0.9555664,-0.137146
1725699030460,2024-09-07T08:50:30.460Z,74899,0.19812012,0.96954346,-0.19671631
1725699030500,2024-09-07T08:50:30.500Z,74939,0.25750732,0.9664917,-0.18115234
1725699030520,2024-09-07T08:50:30.520Z,74959,0.2611084,0.99176025,-0.16082764
1725699030544,2024-09-07T08:50:30.544Z,74983,0.2401123,0.99664307,-0.12982178
1725699030592,2024-09-07T08:50:30.592Z,75031,0.27520752,1.0454102,-0.058410645
1725699030637,2024-09-07T08:50:30.637Z,75076,0.23114014,1.0112915,-0.11224365
1725699030681,2024-09-07T08:50:30.681Z,75120,0.25927734,0.9612427,-0.16009521
1725699030725,2024-09-07T08:50:30.725Z,75164,0.26678467,0.9557495,-0.16723633
1725699030771,2024-09-07T08:50:30.771Z,75210,0.23846436,0.97698975,-0.20593262
1725699030818,2024-09-07T08:50:30.818Z,75257,0.24560547,0.9691162,-0.17120361
1725699030859,2024-09-07T08:50:30.859Z,75298,0.26660156,1.0473022,-0.12310791
1725699030903,2024-09-07T08:50:30.903Z,75342,0.265625,1.0963745,-0.113098145
1725699030949,2024-09-07T08:50:30.949Z,75388,0.23956299,1.1506348,-0.19573975
1725699030967,2024-09-07T08:50:30.967Z,75406,0.29968262,1.1307983,-0.19708252
1725699030992,2024-09-07T08:50:30.992Z,75431,0.2763672,1.1282959,-0.17382812
1725699031038,2024-09-07T08:50:31.038Z,75477,0.27319336,1.0899658,-0.16625977
1725699031085,2024-09-07T08:50:31.085Z,75524,0.28967285,1.0671997,-0.1895752
1725699031130,2024-09-07T08:50:31.130Z,75569,0.26861572,1.0098267,-0.15222168
1725699031175,2024-09-07T08:50:31.175Z,75614,0.28009033,0.9935303,-0.16192627
1725699031221,2024-09-07T08:50:31.221Z,75660,0.21722412,0.97869873,-0.1538086
1725699031267,2024-09-07T08:50:31.267Z,75706,0.26330566,1.020813,-0.11920166
1725699031310,2024-09-07T08:50:31.310Z,75749,0.18548584,0.961853,0.0045166016
1725699031357,2024-09-07T08:50:31.357Z,75796,0.25183105,1.038147,-0.20343018
1725699031382,2024-09-07T08:50:31.382Z,75821,0.26312256,0.9764404,-0.13183594
1725699031404,2024-09-07T08:50:31.404Z,75843,0.26019287,0.93292236,-0.08929443
1725699031443,2024-09-07T08:50:31.443Z,75882,0.21942139,0.9450073,-0.099487305
1725699031490,2024-09-07T08:50:31.490Z,75929,0.28070068,0.9972534,-0.1496582
1725699031534,2024-09-07T08:50:31.534Z,75973,0.2366333,1.0088501,-0.11584473
1725699031581,2024-09-07T08:50:31.581Z,76020,0.23223877,1.0043335,-0.08331299
1725699031626,2024-09-07T08:50:31.626Z,76065,0.26416016,1.001831,-0.1159668
1725699031670,2024-09-07T08:50:31.670Z,76109,0.2364502,0.9651489,-0.07727051
1725699031721,2024-09-07T08:50:31.721Z,76160,0.21099854,0.9434204,-0.028747559
1725699031761,2024-09-07T08:50:31.761Z,76200,0.2432251,0.9472046,-0.029296875
1725699031789,2024-09-07T08:50:31.789Z,76228,0.20275879,0.9527588,-0.011108398
1725699031812,2024-09-07T08:50:31.812Z,76251,0.23724365,0.95751953,0.002746582
1725699031848,2024-09-07T08:50:31.848Z,76287,0.199646,0.9450073,0.05645752
1725699031898,2024-09-07T08:50:31.898Z,76337,0.23779297,0.9463501,0.023254395
1725699031940,2024-09-07T08:50:31.940Z,76379,0.22320557,0.9205322,0.11413574
1725699031986,2024-09-07T08:50:31.986Z,76425,0.19372559,0.93914795,0.067871094
1725699032032,2024-09-07T08:50:32.032Z,76471,0.20928955,0.93237305,0.06695557
1725699032080,2024-09-07T08:50:32.080Z,76519,0.22210693,0.91729736,0.1227417
1725699032122,2024-09-07T08:50:32.122Z,76561,0.20959473,0.9209595,0.1274414
1725699032165,2024-09-07T08:50:32.165Z,76604,0.2074585,0.9356079,0.13433838
1725699032213,2024-09-07T08:50:32.213Z,76652,0.15942383,0.9273071,0.12384033
1725699032231,2024-09-07T08:50:32.231Z,76670,0.19445801,0.8855591,0.17932129
1725699032252,2024-09-07T08:50:32.252Z,76691,0.22540283,0.83477783,0.15802002
1725699032300,2024-09-07T08:50:32.300Z,76739,0.15020752,0.8510132,0.15783691
1725699032349,2024-09-07T08:50:32.349Z,76788,0.19909668,0.8470459,0.21191406
1725699032392,2024-09-07T08:50:32.392Z,76831,0.21862793,0.8824463,0.22125244
1725699032437,2024-09-07T08:50:32.437Z,76876,0.17376709,0.8959961,0.21173096
1725699032482,2024-09-07T08:50:32.482Z,76921,0.2218628,0.9289551,0.24053955
1725699032528,2024-09-07T08:50:32.528Z,76967,0.19891357,0.9636841,0.27612305
1725699032571,2024-09-07T08:50:32.571Z,77010,0.18554688,0.986145,0.26446533
1725699032617,2024-09-07T08:50:32.617Z,77056,0.2076416,0.9360962,0.25323486
1725699032638,2024-09-07T08:50:32.638Z,77077,0.27197266,0.8907471,0.29138184
1725699032656,2024-09-07T08:50:32.656Z,77095,0.24389648,0.9157715,0.29626465
1725699032704,2024-09-07T08:50:32.704Z,77143,0.1743164,0.947937,0.3239746
1725699032749,2024-09-07T08:50:32.749Z,77188,0.23846436,0.92266846,0.35662842
1725699032795,2024-09-07T08:50:32.795Z,77234,0.23413086,0.90826416,0.31103516
1725699032839,2024-09-07T08:50:32.839Z,77278,0.25946045,0.9060669,0.29034424
1725699032889,2024-09-07T08:50:32.889Z,77328,0.24188232,0.9254761,0.30688477
1725699032928,2024-09-07T08:50:32.928Z,77367,0.24310303,0.9434204,0.31427002
1725699032973,2024-09-07T08:50:32.973Z,77412,0.23876953,0.9244995,0.32055664
1725699033018,2024-09-07T08:50:33.018Z,77457,0.24676514,0.9232178,0.32318115
1725699033038,2024-09-07T08:50:33.038Z,77477,0.2374878,0.9133301,0.2970581
1725699033063,2024-09-07T08:50:33.063Z,77502,0.2345581,0.9260254,0.26501465
1725699033107,2024-09-07T08:50:33.107Z,77546,0.23016357,0.9139404,0.26367188
1725699033156,2024-09-07T08:50:33.156Z,77595,0.22595215,0.9199219,0.25286865
1725699033200,2024-09-07T08:50:33.200Z,77639,0.23968506,0.9196167,0.25946045
1725699033247,2024-09-07T08:50:33.247Z,77686,0.2300415,0.94958496,0.24279785
1725699033295,2024-09-07T08:50:33.295Z,77734,0.23364258,0.9283447,0.27252197
1725699033337,2024-09-07T08:50:33.337Z,77776,0.23291016,0.92529297,0.21606445
1725699033382,2024-09-07T08:50:33.382Z,77821,0.23352051,0.8936157,0.23059082
1725699033430,2024-09-07T08:50:33.430Z,77869,0.23364258,0.90289307,0.20526123
1725699033473,2024-09-07T08:50:33.473Z,77912,0.23095703,0.9078369,0.20446777
1725699033494,2024-09-07T08:50:33.494Z,77933,0.23852539,0.9395752,0.15441895
1725699033561,2024-09-07T08:50:33.561Z,78000,0.22198486,0.94244385,0.17572021
1725699033582,2024-09-07T08:50:33.582Z,78021,0.25030518,0.9389038,0.17449951
1725699033603,2024-09-07T08:50:33.603Z,78042,0.23132324,0.92681885,0.15289307
1725699033650,2024-09-07T08:50:33.650Z,78089,0.24432373,0.9352417,0.1784668
1725699033694,2024-09-07T08:50:33.694Z,78133,0.2579956,0.93914795,0.06817627
1725699033741,2024-09-07T08:50:33.741Z,78180,0.18981934,0.9522705,0.087890625
1725699033787,2024-09-07T08:50:33.787Z,78226,0.246521,0.92419434,0.09313965
1725699033828,2024-09-07T08:50:33.828Z,78267,0.26574707,0.92541504,0.08239746
1725699033875,2024-09-07T08:50:33.875Z,78314,0.25598145,0.93078613,0.12585449
1725699033894,2024-09-07T08:50:33.894Z,78333,0.2286377,0.9429321,0.08099365
1725699033917,2024-09-07T08:50:33.917Z,78356,0.24243164,0.9089966,0.070007324
1725699033965,2024-09-07T08:50:33.965Z,78404,0.28735352,0.96954346,0.0068969727
1725699034010,2024-09-07T08:50:34.010Z,78449,0.2503662,0.9881592,0.037719727
1725699034057,2024-09-07T08:50:34.057Z,78496,0.22833252,0.9926758,-0.03338623
1725699034101,2024-09-07T08:50:34.101Z,78540,0.25476074,0.90966797,0.026245117
1725699034144,2024-09-07T08:50:34.144Z,78583,0.22601318,0.8677368,0.025878906
1725699034189,2024-09-07T08:50:34.189Z,78628,0.3213501,0.9057617,0.006591797
1725699034237,2024-09-07T08:50:34.237Z,78676,0.18927002,0.9920654,-0.03363037
1725699034279,2024-09-07T08:50:34.279Z,78718,0.24627686,0.9892578,-0.083984375
1725699034301,2024-09-07T08:50:34.301Z,78740,0.30841064,0.98217773,-0.05822754
1725699034324,2024-09-07T08:50:34.324Z,78763,0.28564453,0.9962158,-0.07940674
1725699034368,2024-09-07T08:50:34.368Z,78807,0.23962402,1.0354614,-0.09484863
1725699034413,2024-09-07T08:50:34.413Z,78852,0.23236084,1.0545044,-0.12072754
1725699034458,2024-09-07T08:50:34.458Z,78897,0.25097656,1.0258179,-0.16564941
1725699034507,2024-09-07T08:50:34.507Z,78946,0.24206543,0.97558594,-0.11254883
1725699034553,2024-09-07T08:50:34.553Z,78992,0.22644043,0.9269409,-0.08795166
1725699034596,2024-09-07T08:50:34.596Z,79035,0.24432373,0.9277954,-0.095947266
1725699034685,2024-09-07T08:50:34.685Z,79124,0.23754883,0.93573,-0.068481445
1725699034705,2024-09-07T08:50:34.705Z,79144,0.24169922,0.9619751,-0.070617676
1725699034726,2024-09-07T08:50:34.726Z,79165,0.27764893,0.97302246,-0.08355713
1725699034739,2024-09-07T08:50:34.739Z,79178,0.29943848,0.973938,-0.06201172
1725699034774,2024-09-07T08:50:34.774Z,79213,0.2695923,1.0307617,-0.121398926
1725699034825,2024-09-07T08:50:34.825Z,79264,0.28790283,1.0704956,-0.10662842
1725699034864,2024-09-07T08:50:34.864Z,79303,0.2581787,1.0178833,-0.03338623
1725699034918,2024-09-07T08:50:34.918Z,79357,0.2579956,0.9711304,-0.18701172
1725699034958,2024-09-07T08:50:34.958Z,79397,0.24359131,0.9767456,-0.114990234
1725699035003,2024-09-07T08:50:35.003Z,79442,0.24389648,0.9694824,-0.11187744
1725699035048,2024-09-07T08:50:35.048Z,79487,0.27734375,0.96881104,-0.171875
1725699035091,2024-09-07T08:50:35.091Z,79530,0.23205566,0.99816895,-0.19256592
1725699035134,2024-09-07T08:50:35.134Z,79573,0.258667,1.0117798,-0.19177246
1725699035150,2024-09-07T08:50:35.150Z,79589,0.23059082,1.0266113,-0.094177246
1725699035178,2024-09-07T08:50:35.178Z,79617,0.2703247,1.0772095,-0.0914917
1725699035227,2024-09-07T08:50:35.227Z,79666,0.2557373,1.0135498,-0.1585083
1725699035274,2024-09-07T08:50:35.274Z,79713,0.24157715,0.9585571,-0.10070801
1725699035314,2024-09-07T08:50:35.314Z,79753,0.27850342,0.95874023,-0.13153076
1725699035365,2024-09-07T08:50:35.365Z,79804,0.19195557,0.9688721,-0.16552734
1725699035406,2024-09-07T08:50:35.406Z,79845,0.2855835,0.92663574,-0.12188721
1725699035451,2024-09-07T08:50:35.451Z,79890,0.27526855,0.9891968,-0.18249512
1725699035495,2024-09-07T08:50:35.495Z,79934,0.23779297,1.0067749,-0.18457031
1725699035540,2024-09-07T08:50:35.540Z,79979,0.24945068,1.0595093,-0.14385986
1725699035560,2024-09-07T08:50:35.560Z,79999,0.20758057,1.0936279,-0.10809326
1725699035595,2024-09-07T08:50:35.595Z,80034,0.25146484,1.0577393,-0.1395874
1725699035629,2024-09-07T08:50:35.629Z,80068,0.26257324,0.9666748,-0.16290283
1725699035676,2024-09-07T08:50:35.676Z,80115,0.21960449,0.94177246,-0.15014648
1725699035721,2024-09-07T08:50:35.721Z,80160,0.23016357,0.94384766,-0.18798828
1725699035764,2024-09-07T08:50:35.764Z,80203,0.28845215,0.9510498,-0.20050049
1725699035810,2024-09-07T08:50:35.810Z,80249,0.21557617,1.0032349,-0.17376709
1725699035856,2024-09-07T08:50:35.856Z,80295,0.22290039,1.0331421,-0.11645508
1725699035898,2024-09-07T08:50:35.898Z,80337,0.2647705,1.0349121,-0.13354492
1725699035951,2024-09-07T08:50:35.951Z,80390,0.25164795,0.97436523,-0.18652344
1725699036003,2024-09-07T08:50:36.003Z,80442,0.23522949,0.96606445,-0.1940918
1725699036024,2024-09-07T08:50:36.024Z,80463,0.21350098,0.9371338,-0.15655518
1725699036045,2024-09-07T08:50:36.045Z,80484,0.26116943,0.9711304,-0.15466309
1725699036078,2024-09-07T08:50:36.078Z,80517,0.230896,0.95861816,-0.15014648
1725699036125,2024-09-07T08:50:36.125Z,80564,0.22479248,0.9402466,-0.13439941
1725699036168,2024-09-07T08:50:36.168Z,80607,0.2140503,0.9654541,-0.13763428
1725699036217,2024-09-07T08:50:36.217Z,80656,0.23657227,0.99572754,-0.15490723
1725699036261,2024-09-07T08:50:36.261Z,80700,0.21069336,1.0140991,-0.19012451
1725699036307,2024-09-07T08:50:36.307Z,80746,0.21508789,1.027771,-0.15509033
1725699036355,2024-09-07T08:50:36.355Z,80794,0.28735352,1.0613403,-0.18487549
1725699036400,2024-09-07T08:50:36.400Z,80839,0.24694824,1.0401611,-0.17297363
1725699036422,2024-09-07T08:50:36.422Z,80861,0.2244873,1.1358032,-0.2163086
1725699036446,2024-09-07T08:50:36.446Z,80885,0.27142334,1.1008911,-0.18243408
1725699036482,2024-09-07T08:50:36.482Z,80921,0.22442627,1.0848999,-0.14117432
1725699036529,2024-09-07T08:50:36.529Z,80968,0.23895264,1.0756836,-0.12780762
1725699036578,2024-09-07T08:50:36.578Z,81017,0.26031494,1.0797119,-0.20269775
1725699036620,2024-09-07T08:50:36.620Z,81059,0.25653076,1.0339966,-0.19494629
1725699036671,2024-09-07T08:50:36.671Z,81110,0.23596191,0.9923706,-0.10668945
1725699036716,2024-09-07T08:50:36.716Z,81155,0.23461914,0.970459,-0.10266113
1725699036754,2024-09-07T08:50:36.754Z,81193,0.3076172,1.0177612,-0.21832275
1725699036800,2024-09-07T08:50:36.800Z,81239,0.23968506,0.97869873,-0.16235352
1725699036820,2024-09-07T08:50:36.820Z,81259,0.2668457,0.9638672,-0.16015625
1725699036844,2024-09-07T08:50:36.844Z,81283,0.2574463,0.9702759,-0.12646484
1725699036893,2024-09-07T08:50:36.893Z,81332,0.18389893,0.9684448,-0.09124756
1725699036945,2024-09-07T08:50:36.945Z,81384,0.27392578,1.0109253,-0.1453247
1725699036982,2024-09-07T08:50:36.982Z,81421,0.24511719,1.0027466,-0.1383667
1725699037024,2024-09-07T08:50:37.024Z,81463,0.24249268,1.0130005,-0.16394043
1725699037070,2024-09-07T08:50:37.070Z,81509,0.29309082,1.0010986,-0.11956787
1725699037117,2024-09-07T08:50:37.117Z,81556,0.27630615,0.9849243,-0.1027832
1725699037161,2024-09-07T08:50:37.161Z,81600,0.23956299,1.0039062,-0.118896484
1725699037208,2024-09-07T08:50:37.208Z,81647,0.28985596,1.0064697,-0.06317139
1725699037251,2024-09-07T08:50:37.251Z,81690,0.25482178,0.97943115,-0.039978027
1725699037273,2024-09-07T08:50:37.273Z,81712,0.2866211,0.986084,-0.13323975
1725699037295,2024-09-07T08:50:37.295Z,81734,0.21258545,0.928833,-0.019836426
1725699037338,2024-09-07T08:50:37.338Z,81777,0.2512207,0.9224243,-0.058776855
1725699037384,2024-09-07T08:50:37.384Z,81823,0.25543213,0.90075684,0.034973145
1725699037431,2024-09-07T08:50:37.431Z,81870,0.23248291,0.92285156,0.030334473
1725699037477,2024-09-07T08:50:37.477Z,81916,0.23175049,0.9666748,-0.026000977
1725699037519,2024-09-07T08:50:37.519Z,81958,0.24249268,0.9492798,0.09265137
1725699037565,2024-09-07T08:50:37.565Z,82004,0.21020508,0.95166016,0.059814453
1725699037613,2024-09-07T08:50:37.613Z,82052,0.21862793,0.93969727,0.058288574
1725699037653,2024-09-07T08:50:37.653Z,82092,0.21032715,0.89038086,0.11254883
1725699037676,2024-09-07T08:50:37.676Z,82115,0.21221924,0.90057373,0.083496094
1725699037700,2024-09-07T08:50:37.700Z,82139,0.19927979,0.87457275,0.15234375
1725699037743,2024-09-07T08:50:37.743Z,82182,0.21948242,0.9144287,0.13720703
1725699037791,2024-09-07T08:50:37.791Z,82230,0.17816162,0.9067383,0.13342285
1725699037837,2024-09-07T08:50:37.837Z,82276,0.20550537,0.88842773,0.17272949
1725699037882,2024-09-07T08:50:37.882Z,82321,0.19519043,0.86364746,0.23303223
1725699037927,2024-09-07T08:50:37.927Z,82366,0.19897461,0.90283203,0.17962646
1725699037972,2024-09-07T08:50:37.972Z,82411,0.17297363,0.9248657,0.21069336
1725699038017,2024-09-07T08:50:38.017Z,82456,0.15783691,0.90844727,0.26672363
1725699038061,2024-09-07T08:50:38.061Z,82500,0.16339111,0.9156494,0.2515869
1725699038086,2024-09-07T08:50:38.086Z,82525,0.17871094,0.8935547,0.25915527
1725699038105,2024-09-07T08:50:38.105Z,82544,0.23547363,0.90252686,0.29779053
1725699038148,2024-09-07T08:50:38.148Z,82587,0.20684814,0.9324951,0.24316406
1725699038194,2024-09-07T08:50:38.194Z,82633,0.26843262,0.9480591,0.2658081
1725699038239,2024-09-07T08:50:38.239Z,82678,0.23364258,0.9553833,0.2685547
1725699038284,2024-09-07T08:50:38.284Z,82723,0.22393799,0.9219971,0.2906494
1725699038330,2024-09-07T08:50:38.330Z,82769,0.19750977,0.8978882,0.30737305
1725699038375,2024-09-07T08:50:38.375Z,82814,0.19055176,0.9032593,0.36431885
1725699038420,2024-09-07T08:50:38.420Z,82859,0.1671753,0.97351074,0.3748169
1725699038468,2024-09-07T08:50:38.468Z,82907,0.1694336,0.993042,0.31585693
1725699038510,2024-09-07T08:50:38.510Z,82949,0.20367432,0.90460205,0.3330078
1725699038528,2024-09-07T08:50:38.528Z,82967,0.21209717,0.88287354,0.27197266
1725699038552,2024-09-07T08:50:38.552Z,82991,0.23364258,0.8786011,0.3012085
1725699038598,2024-09-07T08:50:38.598Z,83037,0.2131958,0.92077637,0.31201172
1725699038646,2024-09-07T08:50:38.646Z,83085,0.22424316,0.9588623,0.31689453
1725699038689,2024-09-07T08:50:38.689Z,83128,0.2156372,0.9768677,0.31488037
1725699038736,2024-09-07T08:50:38.736Z,83175,0.22503662,0.9684448,0.29534912
1725699038780,2024-09-07T08:50:38.780Z,83219,0.22088623,0.94488525,0.28918457
1725699038825,2024-09-07T08:50:38.825Z,83264,0.2296753,0.9069824,0.2909546
1725699038873,2024-09-07T08:50:38.873Z,83312,0.23052979,0.92071533,0.28326416
1725699038916,2024-09-07T08:50:38.916Z,83355,0.23095703,0.9428711,0.2939453
1725699038934,2024-09-07T08:50:38.934Z,83373,0.24029541,0.94750977,0.28149414
1725699038959,2024-09-07T08:50:38.959Z,83398,0.24737549,0.92388916,0.28704834
1725699039004,2024-09-07T08:50:39.004Z,83443,0.23150635,0.91082764,0.25842285
1725699039051,2024-09-07T08:50:39.051Z,83490,0.23968506,0.9112549,0.2644043
1725699039096,2024-09-07T08:50:39.096Z,83535,0.21514893,0.9123535,0.2746582
1725699039140,2024-09-07T08:50:39.140Z,83579,0.21002197,0.93640137,0.2562256
1725699039184,2024-09-07T08:50:39.184Z,83623,0.21466064,0.90875244,0.26080322
1725699039236,2024-09-07T08:50:39.236Z,83675,0.21289062,0.9123535,0.21380615
1725699039274,2024-09-07T08:50:39.274Z,83713,0.22851562,0.90545654,0.2255249
1725699039320,2024-09-07T08:50:39.320Z,83759,0.22491455,0.90997314,0.21124268
1725699039340,2024-09-07T08:50:39.340Z,83779,0.21929932,0.9324341,0.20141602
1725699039364,2024-09-07T08:50:39.364Z,83803,0.21575928,0.93414307,0.17456055
1725699039409,2024-09-07T08:50:39.409Z,83848,0.2397461,0.92803955,0.11755371
1725699039454,2024-09-07T08:50:39.454Z,83893,0.22821045,0.9059448,0.16278076
1725699039499,2024-09-07T08:50:39.499Z,83938,0.25598145,0.89990234,0.111572266
1725699039547,2024-09-07T08:50:39.547Z,83986,0.23614502,0.9172363,0.11932373
1725699039590,2024-09-07T08:50:39.590Z,84029,0.22662354,0.95025635,0.06756592
1725699039633,2024-09-07T08:50:39.633Z,84072,0.23468018,0.9501343,0.08483887
1725699039679,2024-09-07T08:50:39.679Z,84118,0.25561523,0.97229004,0.087402344
1725699039727,2024-09-07T08:50:39.727Z,84166,0.20843506,0.9727783,0.10748291
1725699039749,2024-09-07T08:50:39.749Z,84188,0.25183105,1.0205078,-0.010620117
1725699039770,2024-09-07T08:50:39.770Z,84209,0.30841064,0.98742676,0.061523438
1725699039814,2024-09-07T08:50:39.814Z,84253,0.24731445,0.909729,0.111816406
1725699039860,2024-09-07T08:50:39.860Z,84299,0.26464844,0.94592285,0.024047852
1725699039905,2024-09-07T08:50:39.905Z,84344,0.2253418,0.9637451,0.033203125
1725699039950,2024-09-07T08:50:39.950Z,84389,0.23449707,0.9421387,-0.015197754
1725699039997,2024-09-07T08:50:39.997Z,84436,0.25201416,0.93536377,-0.039978027
1725699040039,2024-09-07T08:50:40.039Z,84478,0.21697998,0.9246216,0.010925293
1725699040086,2024-09-07T08:50:40.086Z,84525,0.24584961,0.934021,-0.021972656
1725699040129,2024-09-07T08:50:40.129Z,84568,0.2607422,0.953125,-0.030517578
1725699040173,2024-09-07T08:50:40.173Z,84612,0.23480225,0.98876953,-0.07293701
1725699040190,2024-09-07T08:50:40.190Z,84629,0.2849121,0.97979736,-0.062194824
1725699040218,2024-09-07T08:50:40.218Z,84657,0.2765503,0.94573975,-0.06628418
1725699040268,2024-09-07T08:50:40.268Z,84707,0.2678833,0.9312744,-0.113342285
1725699040310,2024-09-07T08:50:40.310Z,84749,0.21697998,0.99279785,-0.055480957
1725699040356,2024-09-07T08:50:40.356Z,84795,0.3262329,1.1412964,-0.13171387
1725699040405,2024-09-07T08:50:40.405Z,84844,0.31591797,0.87353516,-0.0017089844
1725699040445,2024-09-07T08:50:40.445Z,84884,0.2010498,0.98168945,-0.029296875
1725699040488,2024-09-07T08:50:40.488Z,84927,0.22912598,0.96295166,-0.1572876
1725699040541,2024-09-07T08:50:40.541Z,84980,0.27252197,0.9284668,-0.088134766
1725699040578,2024-09-07T08:50:40.578Z,85017,0.27215576,0.9874878,-0.0814209
1725699040601,2024-09-07T08:50:40.601Z,85040,0.29675293,1.0552368,-0.088134766
1725699040623,2024-09-07T08:50:40.623Z,85062,0.2529297,1.086731,-0.13555908
1725699040669,2024-09-07T08:50:40.669Z,85108,0.24420166,1.0261841,-0.12536621
1725699040716,2024-09-07T08:50:40.716Z,85155,0.30010986,1.0561523,-0.079589844
1725699040759,2024-09-07T08:50:40.759Z,85198,0.25769043,0.9503784,-0.057617188
1725699040807,2024-09-07T08:50:40.807Z,85246,0.23486328,0.95965576,-0.10998535
1725699040856,2024-09-07T08:50:40.856Z,85295,0.23516846,0.9906616,-0.1687622
1725699040896,2024-09-07T08:50:40.896Z,85335,0.26171875,0.94226074,-0.11114502
1725699040945,2024-09-07T08:50:40.945Z,85384,0.29205322,0.9298096,-0.115600586
1725699041033,2024-09-07T08:50:41.033Z,85472,0.21734619,0.9976196,-0.16290283
1725699041050,2024-09-07T08:50:41.050Z,85489,0.24682617,1.0021973,-0.14221191
1725699041066,2024-09-07T08:50:41.066Z,85505,0.2456665,0.9951782,-0.08508301
1725699041078,2024-09-07T08:50:41.078Z,85517,0.2753296,0.9838867,-0.046691895
1725699041115,2024-09-07T08:50:41.115Z,85554,0.269104,0.92108154,-0.101867676
1725699041164,2024-09-07T08:50:41.164Z,85603,0.23034668,1.0170898,-0.1663208
1725699041208,2024-09-07T08:50:41.208Z,85647,0.24804688,1.0427246,-0.11468506
1725699041254,2024-09-07T08:50:41.254Z,85693,0.2886963,1.0471802,-0.10491943
1725699041298,2024-09-07T08:50:41.298Z,85737,0.2277832,1.0073853,-0.12799072
1725699041343,2024-09-07T08:50:41.343Z,85782,0.2555542,0.9597168,-0.14117432
1725699041391,2024-09-07T08:50:41.391Z,85830,0.25830078,0.96313477,-0.11199951
1725699041436,2024-09-07T08:50:41.436Z,85875,0.20129395,1.0258179,-0.11895752
1725699041454,2024-09-07T08:50:41.454Z,85893,0.2689209,1.0130005,-0.09710693
1725699041475,2024-09-07T08:50:41.475Z,85914,0.25250244,0.97509766,-0.08392334
1725699041525,2024-09-07T08:50:41.525Z,85964,0.21685791,0.99121094,-0.13946533
1725699041572,2024-09-07T08:50:41.572Z,86011,0.2637329,0.97088623,-0.1852417
1725699041614,2024-09-07T08:50:41.614Z,86053,0.27612305,0.9777832,-0.18066406
1725699041657,2024-09-07T08:50:41.657Z,86096,0.23132324,1.0048828,-0.13024902
1725699041705,2024-09-07T08:50:41.705Z,86144,0.2076416,1.0275269,-0.09234619
1725699041751,2024-09-07T08:50:41.751Z,86190,0.29882812,1.0128174,-0.115722656
1725699041793,2024-09-07T08:50:41.793Z,86232,0.22625732,0.99432373,-0.1026001
1725699041841,2024-09-07T08:50:41.841Z,86280,0.22424316,0.9672241,-0.13977051
1725699041861,2024-09-07T08:50:41.861Z,86300,0.2935791,0.9528198,-0.11981201
1725699041883,2024-09-07T08:50:41.883Z,86322,0.1673584,0.9852295,-0.121276855
1725699041928,2024-09-07T08:50:41.928Z,86367,0.23809814,1.0058594,-0.11895752
1725699041977,2024-09-07T08:50:41.977Z,86416,0.2894287,0.9796753,-0.10443115
1725699042019,2024-09-07T08:50:42.019Z,86458,0.20397949,0.9329834,-0.10620117
1725699042065,2024-09-07T08:50:42.065Z,86504,0.24780273,0.96417236,-0.17840576
1725699042110,2024-09-07T08:50:42.110Z,86549,0.22961426,0.9938965,-0.117248535
1725699042154,2024-09-07T08:50:42.154Z,86593,0.1798706,1.0187988,-0.06536865
1725699042202,2024-09-07T08:50:42.202Z,86641,0.2593994,1.007019,-0.114868164
1725699042246,2024-09-07T08:50:42.246Z,86685,0.25756836,0.99591064,-0.16564941
1725699042266,2024-09-07T08:50:42.266Z,86705,0.17456055,1.020874,-0.1817627
1725699042289,2024-09-07T08:50:42.289Z,86728,0.22625732,0.9674072,-0.1227417
1725699042334,2024-09-07T08:50:42.334Z,86773,0.24517822,0.9723511,-0.116882324
1725699042380,2024-09-07T08:50:42.380Z,86819,0.16479492,1.0021362,-0.114746094
1725699042427,2024-09-07T08:50:42.427Z,86866,0.2033081,1.0248413,-0.13812256
1725699042473,2024-09-07T08:50:42.473Z,86912,0.23999023,0.982666,-0.13757324
1725699042516,2024-09-07T08:50:42.516Z,86955,0.2078247,0.9534302,-0.120788574
1725699042563,2024-09-07T08:50:42.563Z,87002,0.23382568,0.9638672,-0.14031982
1725699042606,2024-09-07T08:50:42.606Z,87045,0.21844482,0.9675293,-0.13537598
1725699042649,2024-09-07T08:50:42.649Z,87088,0.21984863,0.9805908,-0.15026855
1725699042694,2024-09-07T08:50:42.694Z,87133,0.23272705,0.98791504,-0.12060547
1725699042713,2024-09-07T08:50:42.713Z,87152,0.2543335,1.034668,-0.117492676
1725699042738,2024-09-07T08:50:42.738Z,87177,0.18066406,1.0891724,-0.1027832
1725699042785,2024-09-07T08:50:42.785Z,87224,0.22875977,1.1015015,-0.118652344
1725699042829,2024-09-07T08:50:42.829Z,87268,0.2746582,1.145874,-0.16491699
1725699042876,2024-09-07T08:50:42.876Z,87315,0.21594238,1.1345215,-0.12158203
1725699042921,2024-09-07T08:50:42.921Z,87360,0.19805908,1.0602417,-0.046203613
1725699042965,2024-09-07T08:50:42.965Z,87404,0.2935791,1.1195679,-0.17449951
1725699043010,2024-09-07T08:50:43.010Z,87449,0.27227783,1.0836792,-0.19525146
1725699043053,2024-09-07T08:50:43.053Z,87492,0.26898193,1.0383301,-0.13989258
1725699043102,2024-09-07T08:50:43.102Z,87541,0.2744751,1.0412598,-0.12261963
1725699043121,2024-09-07T08:50:43.121Z,87560,0.20123291,1.0824585,-0.23052979
1725699043144,2024-09-07T08:50:43.144Z,87583,0.23400879,1.0540161,-0.17120361
1725699043190,2024-09-07T08:50:43.190Z,87629,0.2368164,0.98254395,-0.12390137
1725699043280,2024-09-07T08:50:43.280Z,87719,0.21356201,0.9758301,-0.15533447
1725699043301,2024-09-07T08:50:43.301Z,87740,0.13793945,0.9624634,-0.08544922
1725699043325,2024-09-07T08:50:43.325Z,87764,0.2243042,0.8907471,1.8310547E-4
1725699043368,2024-09-07T08:50:43.368Z,87807,0.21765137,1.0066528,-0.22338867
1725699043413,2024-09-07T08:50:43.413Z,87852,0.20080566,0.9406128,-0.07836914
1725699043458,2024-09-07T08:50:43.458Z,87897,0.23181152,1.0062866,-0.080566406
1725699043505,2024-09-07T08:50:43.505Z,87944,0.24359131,0.98101807,-0.093566895
1725699043519,2024-09-07T08:50:43.519Z,87958,0.24993896,1.0436401,-0.16430664
1725699043547,2024-09-07T08:50:43.547Z,87986,0.25769043,0.99938965,-0.045898438
1725699043593,2024-09-07T08:50:43.593Z,88032,0.2230835,1.0753174,-0.13879395
1725699043642,2024-09-07T08:50:43.642Z,88081,0.2290039,0.98846436,-0.070129395
1725699043686,2024-09-07T08:50:43.686Z,88125,0.2640381,0.94262695,-0.0064697266
1725699043732,2024-09-07T08:50:43.732Z,88171,0.20928955,0.9338989,-0.03729248
1725699043774,2024-09-07T08:50:43.774Z,88213,0.18890381,0.9362793,0.021057129
1725699043821,2024-09-07T08:50:43.821Z,88260,0.1887207,0.9376831,-0.033325195
1725699043866,2024-09-07T08:50:43.866Z,88305,0.18066406,0.8921509,0.0524292
1725699043912,2024-09-07T08:50:43.912Z,88351,0.21844482,0.8756714,0.062316895
1725699043955,2024-09-07T08:50:43.955Z,88394,0.19940186,0.8991699,0.090148926
1725699043975,2024-09-07T08:50:43.975Z,88414,0.21252441,0.90338135,0.13183594
1725699043997,2024-09-07T08:50:43.997Z,88436,0.18157959,0.94873047,0.051635742
1725699044042,2024-09-07T08:50:44.042Z,88481,0.21838379,0.932312,0.14880371
1725699044092,2024-09-07T08:50:44.092Z,88531,0.24572754,0.9295044,0.13885498
1725699044133,2024-09-07T08:50:44.133Z,88572,0.17584229,0.9515991,0.1305542
1725699044183,2024-09-07T08:50:44.183Z,88622,0.20733643,0.9281616,0.16027832
1725699044228,2024-09-07T08:50:44.228Z,88667,0.22076416,0.9168091,0.17871094
1725699044272,2024-09-07T08:50:44.272Z,88711,0.16491699,0.90319824,0.1607666
1725699044317,2024-09-07T08:50:44.317Z,88756,0.18481445,0.869751,0.19958496
1725699044364,2024-09-07T08:50:44.364Z,88803,0.1697998,0.8312378,0.19342041
1725699044388,2024-09-07T08:50:44.388Z,88827,0.18237305,0.76605225,0.23626709
1725699044411,2024-09-07T08:50:44.411Z,88850,0.1998291,0.7940674,0.24719238
1725699044449,2024-09-07T08:50:44.449Z,88888,0.15692139,0.93859863,0.24493408
1725699044497,2024-09-07T08:50:44.497Z,88936,0.13500977,1.0547485,0.18585205
1725699044545,2024-09-07T08:50:44.545Z,88984,0.22009277,1.0560913,0.27331543
1725699044589,2024-09-07T08:50:44.589Z,89028,0.16107178,0.9636841,0.2567749
1725699044630,2024-09-07T08:50:44.630Z,89069,0.18841553,0.8983154,0.26763916
1725699044675,2024-09-07T08:50:44.675Z,89114,0.1628418,0.885376,0.31530762
1725699044720,2024-09-07T08:50:44.720Z,89159,0.17559814,0.9520874,0.284729
1725699044763,2024-09-07T08:50:44.763Z,89202,0.2130127,0.9760132,0.28338623
1725699044780,2024-09-07T08:50:44.780Z,89219,0.23406982,0.9702759,0.27905273
1725699044808,2024-09-07T08:50:44.808Z,89247,0.23303223,0.95825195,0.27941895
1725699044855,2024-09-07T08:50:44.855Z,89294,0.22631836,0.93634033,0.29718018
1725699044898,2024-09-07T08:50:44.898Z,89337,0.2506714,0.9338379,0.29534912
1725699044947,2024-09-07T08:50:44.947Z,89386,0.19702148,0.9304199,0.29327393
1725699044993,2024-09-07T08:50:44.993Z,89432,0.21020508,0.9572754,0.25653076
1725699045029,2024-09-07T08:50:45.029Z,89468,0.17675781,0.9395752,0.2805786
1725699045075,2024-09-07T08:50:45.075Z,89514,0.168396,0.93951416,0.28155518
1725699045120,2024-09-07T08:50:45.120Z,89559,0.18518066,0.9202881,0.3265381
1725699045165,2024-09-07T08:50:45.165Z,89604,0.12945557,0.94299316,0.2814331
1725699045210,2024-09-07T08:50:45.210Z,89649,0.14379883,0.96661377,0.2539673
