Timestamp (ms),ISO DateTime,Elapsed Time (ms),Acceleration X,Acceleration Y,Acceleration Z
1725699754727,2024-09-07T09:02:34.727Z,55818,0.0725708,0.9651489,0.033447266
1725699754770,2024-09-07T09:02:34.770Z,55861,0.044921875,0.9707031,0.004333496
1725699754813,2024-09-07T09:02:34.813Z,55904,0.08709717,0.98687744,0.055236816
1725699754857,2024-09-07T09:02:34.857Z,55948,0.03741455,0.99487305,0.0028076172
1725699754865,2024-09-07T09:02:34.865Z,55956,0.04333496,1.0015259,0.00982666
1725699754906,2024-09-07T09:02:34.906Z,55997,0.06121826,0.996521,0.018554688
1725699754953,2024-09-07T09:02:34.953Z,56044,0.048095703,0.9908447,-0.008239746
1725699754999,2024-09-07T09:02:34.999Z,56090,0.08331299,0.98223877,0.016845703
1725699755047,2024-09-07T09:02:35.047Z,56138,0.06048584,0.98168945,-0.02368164
1725699755091,2024-09-07T09:02:35.091Z,56182,0.04925537,1.0067139,-0.021118164
1725699755135,2024-09-07T09:02:35.135Z,56226,0.06994629,1.0217896,-0.012939453
1725699755181,2024-09-07T09:02:35.181Z,56272,0.041870117,1.0332642,-0.05505371
1725699755225,2024-09-07T09:02:35.225Z,56316,0.05871582,1.0476074,-0.027832031
1725699755272,2024-09-07T09:02:35.272Z,56363,0.043273926,1.0446777,-0.06903076
1725699755333,2024-09-07T09:02:35.333Z,56424,0.070007324,1.0502319,-0.032287598
1725699755359,2024-09-07T09:02:35.359Z,56450,0.037902832,1.0327148,-0.066467285
1725699755381,2024-09-07T09:02:35.381Z,56472,0.0501709,1.0332642,-0.06951904
1725699755402,2024-09-07T09:02:35.402Z,56493,0.05731201,1.0025024,-0.025146484
1725699755447,2024-09-07T09:02:35.447Z,56538,0.026245117,1.0039062,-0.08331299
1725699755493,2024-09-07T09:02:35.493Z,56584,0.049438477,0.9805908,-0.03643799
1725699755540,2024-09-07T09:02:35.540Z,56631,0.04724121,0.9847412,-0.0713501
1725699755586,2024-09-07T09:02:35.586Z,56677,0.042114258,0.99438477,-0.08129883
1725699755630,2024-09-07T09:02:35.630Z,56721,0.031799316,1.0064697,-0.07635498
1725699755677,2024-09-07T09:02:35.677Z,56768,0.034729004,1.0092163,-0.07891846
1725699755704,2024-09-07T09:02:35.704Z,56795,0.052978516,1.0269165,-0.049926758
1725699755724,2024-09-07T09:02:35.724Z,56815,0.037109375,1.0127563,-0.116882324
1725699755762,2024-09-07T09:02:35.762Z,56853,0.04144287,1.0202637,-0.0826416
1725699755809,2024-09-07T09:02:35.809Z,56900,0.04650879,1.0087891,-0.09490967
1725699755857,2024-09-07T09:02:35.857Z,56948,0.03930664,1.0175781,-0.10784912
1725699755902,2024-09-07T09:02:35.902Z,56993,0.038635254,1.003418,-0.08557129
1725699755945,2024-09-07T09:02:35.945Z,57036,0.044006348,1.0144653,-0.10736084
1725699755989,2024-09-07T09:02:35.989Z,57080,0.033813477,1.0090942,-0.08508301
1725699756037,2024-09-07T09:02:36.037Z,57128,0.06329346,1.0327148,-0.11102295
1725699756083,2024-09-07T09:02:36.083Z,57174,0.030944824,1.0355835,-0.09875488
1725699756124,2024-09-07T09:02:36.124Z,57215,0.035827637,1.0302124,-0.10498047
1725699756148,2024-09-07T09:02:36.148Z,57239,0.05065918,1.0343018,-0.111206055
1725699756169,2024-09-07T09:02:36.169Z,57260,0.04852295,1.0324097,-0.08734131
1725699756217,2024-09-07T09:02:36.217Z,57308,0.04724121,1.0252075,-0.09887695
1725699756260,2024-09-07T09:02:36.260Z,57351,0.025146484,1.0072021,-0.095214844
1725699756307,2024-09-07T09:02:36.307Z,57398,0.044555664,1.012207,-0.114990234
1725699756350,2024-09-07T09:02:36.350Z,57441,0.048950195,0.9921875,-0.08380127
1725699756409,2024-09-07T09:02:36.409Z,57500,0.031982422,1.0098877,-0.11212158
1725699756440,2024-09-07T09:02:36.440Z,57531,0.032165527,1.010498,-0.08703613
1725699756483,2024-09-07T09:02:36.483Z,57574,0.034729004,1.0332642,-0.14013672
1725699756530,2024-09-07T09:02:36.530Z,57621,0.039001465,1.022644,-0.10180664
1725699756552,2024-09-07T09:02:36.552Z,57643,0.031799316,1.0325928,-0.11431885
1725699756572,2024-09-07T09:02:36.572Z,57663,0.030700684,1.0149536,-0.10998535
1725699756617,2024-09-07T09:02:36.617Z,57708,0.03253174,1.0189209,-0.12597656
1725699756664,2024-09-07T09:02:36.664Z,57755,0.026489258,0.9909668,-0.10467529
1725699756707,2024-09-07T09:02:36.707Z,57798,0.04852295,0.99334717,-0.12023926
1725699756755,2024-09-07T09:02:36.755Z,57846,0.027770996,0.98931885,-0.123535156
1725699756802,2024-09-07T09:02:36.802Z,57893,0.030578613,0.9973755,-0.13916016
1725699756845,2024-09-07T09:02:36.845Z,57936,0.030883789,1.0084839,-0.13708496
1725699756897,2024-09-07T09:02:36.897Z,57988,0.05529785,1.0049438,-0.15838623
1725699756935,2024-09-07T09:02:36.935Z,58026,0.0178833,1.0088501,-0.1184082
1725699756959,2024-09-07T09:02:36.959Z,58050,0.056030273,1.0228882,-0.16455078
1725699756978,2024-09-07T09:02:36.978Z,58069,0.030456543,1.0209961,-0.1461792
1725699757024,2024-09-07T09:02:37.024Z,58115,0.034179688,1.0064697,-0.15045166
1725699757074,2024-09-07T09:02:37.074Z,58165,0.030151367,1.0150146,-0.16046143
1725699757115,2024-09-07T09:02:37.115Z,58206,0.020812988,1.0042114,-0.13873291
1725699757160,2024-09-07T09:02:37.160Z,58251,0.04095459,0.9971924,-0.14910889
1725699757205,2024-09-07T09:02:37.205Z,58296,0.019470215,1.0090332,-0.1531372
1725699757251,2024-09-07T09:02:37.251Z,58342,0.033813477,1.0106812,-0.1461792
1725699757295,2024-09-07T09:02:37.295Z,58386,0.024719238,1.0140381,-0.13427734
1725699757341,2024-09-07T09:02:37.341Z,58432,0.05078125,1.0371704,-0.16241455
1725699757386,2024-09-07T09:02:37.386Z,58477,0.013244629,1.0430298,-0.13452148
1725699757413,2024-09-07T09:02:37.413Z,58504,0.024291992,1.0448608,-0.15582275
1725699757433,2024-09-07T09:02:37.433Z,58524,0.051574707,1.0598145,-0.13354492
1725699757473,2024-09-07T09:02:37.473Z,58564,0.020751953,1.0638428,-0.14453125
1725699757520,2024-09-07T09:02:37.520Z,58611,0.02722168,1.0861816,-0.1630249
1725699757564,2024-09-07T09:02:37.564Z,58655,0.038635254,1.109436,-0.17199707
1725699757610,2024-09-07T09:02:37.610Z,58701,0.05126953,1.09375,-0.09875488
1725699757656,2024-09-07T09:02:37.656Z,58747,0.028198242,1.1455688,-0.1854248
1725699757702,2024-09-07T09:02:37.702Z,58793,0.04815674,1.1020508,-0.107055664
1725699757745,2024-09-07T09:02:37.745Z,58836,0.039916992,1.1430054,-0.1673584
1725699757788,2024-09-07T09:02:37.788Z,58879,0.043945312,1.1026001,-0.10241699
1725699757810,2024-09-07T09:02:37.810Z,58901,0.054138184,1.1271973,-0.13513184
1725699757831,2024-09-07T09:02:37.831Z,58922,0.05078125,1.0944824,-0.107543945
1725699757881,2024-09-07T09:02:37.881Z,58972,0.049194336,1.0836182,-0.10559082
1725699757924,2024-09-07T09:02:37.924Z,59015,0.04156494,1.0658569,-0.10095215
1725699757969,2024-09-07T09:02:37.969Z,59060,0.059570312,1.0517578,-0.08270264
1725699758018,2024-09-07T09:02:38.018Z,59109,0.043945312,1.0257568,-0.0715332
1725699758058,2024-09-07T09:02:38.058Z,59149,0.04888916,1.001648,-0.038391113
1725699758102,2024-09-07T09:02:38.102Z,59193,0.05505371,1.0078735,-0.04095459
1725699758149,2024-09-07T09:02:38.149Z,59240,0.024475098,1.0037842,-0.084472656
1725699758194,2024-09-07T09:02:38.194Z,59285,0.043762207,1.0089111,-0.062805176
1725699758215,2024-09-07T09:02:38.215Z,59306,0.064208984,0.99487305,-0.012268066
1725699758235,2024-09-07T09:02:38.235Z,59326,0.031982422,0.9942627,-0.066589355
1725699758280,2024-09-07T09:02:38.280Z,59371,0.031066895,0.9537964,0.043762207
1725699758330,2024-09-07T09:02:38.330Z,59421,0.050598145,0.9631958,0.013122559
1725699758375,2024-09-07T09:02:38.375Z,59466,0.048339844,0.9043579,0.04949951
1725699758425,2024-09-07T09:02:38.425Z,59516,0.0657959,0.92785645,0.03277588
1725699758465,2024-09-07T09:02:38.465Z,59556,0.07556152,0.89886475,0.07824707
1725699758511,2024-09-07T09:02:38.511Z,59602,0.07611084,0.9053955,0.08526611
1725699758558,2024-09-07T09:02:38.558Z,59649,0.08325195,0.8937378,0.12567139
1725699758603,2024-09-07T09:02:38.603Z,59694,0.08557129,0.9077759,0.11834717
1725699758646,2024-09-07T09:02:38.646Z,59737,0.09448242,0.9112549,0.110961914
1725699758670,2024-09-07T09:02:38.670Z,59761,0.0881958,0.93200684,0.14874268
1725699758686,2024-09-07T09:02:38.686Z,59777,0.082092285,0.9289551,0.16015625
1725699758729,2024-09-07T09:02:38.729Z,59820,0.078186035,0.9389038,0.15484619
1725699758780,2024-09-07T09:02:38.780Z,59871,0.06451416,0.9022827,0.17541504
1725699758824,2024-09-07T09:02:38.824Z,59915,0.07952881,0.9317627,0.1951294
1725699758869,2024-09-07T09:02:38.869Z,59960,0.10119629,0.944458,0.22576904
1725699758915,2024-09-07T09:02:38.915Z,60006,0.10168457,1.0125122,0.17810059
1725699758961,2024-09-07T09:02:38.961Z,60052,0.117614746,0.9939575,0.2374878
1725699759003,2024-09-07T09:02:39.003Z,60094,0.10498047,0.98986816,0.19952393
1725699759050,2024-09-07T09:02:39.050Z,60141,0.16003418,0.9744873,0.21026611
1725699759070,2024-09-07T09:02:39.070Z,60161,0.08874512,0.98254395,0.15686035
1725699759092,2024-09-07T09:02:39.092Z,60183,0.14428711,0.9807739,0.21258545
1725699759137,2024-09-07T09:02:39.137Z,60228,0.09112549,0.97314453,0.18951416
1725699759181,2024-09-07T09:02:39.181Z,60272,0.109802246,0.97052,0.22796631
1725699759230,2024-09-07T09:02:39.230Z,60321,0.0814209,0.96936035,0.21679688
1725699759278,2024-09-07T09:02:39.278Z,60369,0.12677002,0.96954346,0.25854492
1725699759321,2024-09-07T09:02:39.321Z,60412,0.10089111,0.9835205,0.1887207
1725699759364,2024-09-07T09:02:39.364Z,60455,0.10797119,0.991272,0.21838379
1725699759410,2024-09-07T09:02:39.410Z,60501,0.110961914,1.020752,0.20629883
1725699759454,2024-09-07T09:02:39.454Z,60545,0.12524414,0.99194336,0.24041748
1725699759473,2024-09-07T09:02:39.473Z,60564,0.11383057,0.979187,0.22283936
1725699759497,2024-09-07T09:02:39.497Z,60588,0.14013672,0.9765625,0.22869873
1725699759545,2024-09-07T09:02:39.545Z,60636,0.076171875,0.9714966,0.20092773
1725699759589,2024-09-07T09:02:39.589Z,60680,0.11663818,0.9954834,0.1951294
1725699759632,2024-09-07T09:02:39.632Z,60723,0.101379395,0.9883423,0.20324707
1725699759681,2024-09-07T09:02:39.681Z,60772,0.10858154,0.9934082,0.19458008
1725699759725,2024-09-07T09:02:39.725Z,60816,0.105163574,0.97528076,0.18896484
1725699759769,2024-09-07T09:02:39.769Z,60860,0.09820557,0.975647,0.1954956
1725699759816,2024-09-07T09:02:39.816Z,60907,0.09875488,0.9785156,0.19006348
1725699759863,2024-09-07T09:02:39.863Z,60954,0.08581543,0.9904785,0.19049072
1725699759904,2024-09-07T09:02:39.904Z,60995,0.10266113,0.9991455,0.20800781
1725699759927,2024-09-07T09:02:39.927Z,61018,0.08685303,0.9962158,0.18682861
1725699759948,2024-09-07T09:02:39.948Z,61039,0.10308838,0.9864502,0.19171143
1725699759993,2024-09-07T09:02:39.993Z,61084,0.078125,0.9898071,0.17456055
1725699760038,2024-09-07T09:02:40.038Z,61129,0.08709717,0.9718628,0.20709229
1725699760082,2024-09-07T09:02:40.082Z,61173,0.08508301,0.9857178,0.18615723
1725699760128,2024-09-07T09:02:40.128Z,61219,0.085510254,0.9819336,0.20953369
1725699760176,2024-09-07T09:02:40.176Z,61267,0.085998535,0.9979248,0.1685791
1725699760221,2024-09-07T09:02:40.221Z,61312,0.097351074,0.9686279,0.1987915
1725699760267,2024-09-07T09:02:40.267Z,61358,0.078125,0.9871216,0.15759277
1725699760311,2024-09-07T09:02:40.311Z,61402,0.085876465,0.97247314,0.18603516
1725699760335,2024-09-07T09:02:40.335Z,61426,0.095581055,0.9719238,0.17016602
1725699760365,2024-09-07T09:02:40.365Z,61456,0.091796875,0.98706055,0.13031006
1725699760400,2024-09-07T09:02:40.400Z,61491,0.07421875,0.9734497,0.13861084
1725699760442,2024-09-07T09:02:40.442Z,61533,0.099609375,0.9840088,0.13079834
1725699760537,2024-09-07T09:02:40.537Z,61628,0.070373535,0.99420166,0.120788574
1725699760558,2024-09-07T09:02:40.558Z,61649,0.092163086,0.9968872,0.14324951
1725699760576,2024-09-07T09:02:40.576Z,61667,0.056884766,0.9884033,0.103759766
1725699760622,2024-09-07T09:02:40.622Z,61713,0.06286621,1.0218506,0.107055664
1725699760670,2024-09-07T09:02:40.670Z,61761,0.08648682,0.99731445,0.13372803
1725699760716,2024-09-07T09:02:40.716Z,61807,0.0435791,1.0178223,0.057495117
1725699760737,2024-09-07T09:02:40.737Z,61828,0.08325195,1.0008545,0.13201904
1725699760759,2024-09-07T09:02:40.759Z,61850,0.074401855,1.0095825,0.053771973
1725699760806,2024-09-07T09:02:40.806Z,61897,0.061645508,1.0172119,0.026672363
1725699760848,2024-09-07T09:02:40.848Z,61939,0.067871094,1.0129395,0.06738281
1725699760894,2024-09-07T09:02:40.894Z,61985,0.059692383,1.0154419,0.037902832
1725699760940,2024-09-07T09:02:40.940Z,62031,0.05718994,1.0164795,0.042907715
1725699760985,2024-09-07T09:02:40.985Z,62076,0.045410156,1.0202026,0.021362305
1725699761030,2024-09-07T09:02:41.030Z,62121,0.055725098,1.0048828,0.030822754
1725699761076,2024-09-07T09:02:41.076Z,62167,0.054260254,1.0046997,0.01751709
1725699761119,2024-09-07T09:02:41.119Z,62210,0.043884277,0.9993286,0.0068359375
1725699761164,2024-09-07T09:02:41.164Z,62255,0.058898926,0.99554443,0.024597168
1725699761184,2024-09-07T09:02:41.184Z,62275,0.056518555,1.0064697,-5.493164E-4
1725699761207,2024-09-07T09:02:41.207Z,62298,0.03552246,1.0089722,-0.0025634766
1725699761253,2024-09-07T09:02:41.253Z,62344,0.035705566,0.9960327,-0.0053710938
1725699761299,2024-09-07T09:02:41.299Z,62390,0.050109863,1.0006714,-0.011413574
1725699761345,2024-09-07T09:02:41.345Z,62436,0.045288086,1.0020752,-0.013427734
1725699761391,2024-09-07T09:02:41.391Z,62482,0.032226562,0.98168945,-0.005554199
1725699761437,2024-09-07T09:02:41.437Z,62528,0.044128418,0.9597168,-0.005432129
1725699761482,2024-09-07T09:02:41.482Z,62573,0.05645752,0.9661865,-0.016235352
1725699761526,2024-09-07T09:02:41.526Z,62617,0.045959473,0.9829712,0.0053100586
1725699761571,2024-09-07T09:02:41.571Z,62662,0.014770508,1.0058594,-0.057250977
1725699761593,2024-09-07T09:02:41.593Z,62684,0.049560547,1.0171509,-0.03289795
1725699761615,2024-09-07T09:02:41.615Z,62706,0.045959473,1.0371704,-0.026855469
1725699761668,2024-09-07T09:02:41.668Z,62759,0.028015137,1.0158081,-0.026611328
1725699761705,2024-09-07T09:02:41.705Z,62796,0.04876709,1.0255127,-0.04107666
1725699761751,2024-09-07T09:02:41.751Z,62842,0.024230957,1.0083008,-0.0435791
1725699761795,2024-09-07T09:02:41.795Z,62886,0.04815674,1.017395,-0.03955078
1725699761841,2024-09-07T09:02:41.841Z,62932,0.037475586,1.0159912,-0.04486084
1725699761884,2024-09-07T09:02:41.884Z,62975,0.036987305,1.0144653,-0.048950195
1725699761928,2024-09-07T09:02:41.928Z,63019,0.013916016,1.0092163,-0.05267334
1725699761978,2024-09-07T09:02:41.978Z,63069,0.0357666,1.0108032,-0.05596924
1725699762004,2024-09-07T09:02:42.004Z,63095,0.052490234,1.0149536,-0.05206299
1725699762024,2024-09-07T09:02:42.024Z,63115,0.014221191,1.0194702,-0.057128906
1725699762063,2024-09-07T09:02:42.063Z,63154,0.028930664,1.0270386,-0.053955078
1725699762109,2024-09-07T09:02:42.109Z,63200,0.034851074,1.0028076,-0.06072998
1725699762158,2024-09-07T09:02:42.158Z,63249,0.021362305,0.98443604,-0.057556152
1725699762214,2024-09-07T09:02:42.214Z,63305,0.04498291,0.99554443,-0.045043945
1725699762242,2024-09-07T09:02:42.242Z,63333,0.06750488,1.0065308,-0.058776855
1725699762290,2024-09-07T09:02:42.290Z,63381,0.0064697266,1.017395,-0.078125
1725699762337,2024-09-07T09:02:42.337Z,63428,0.05895996,1.0344238,-0.037902832
1725699762385,2024-09-07T09:02:42.385Z,63476,0.025878906,1.0367432,-0.083740234
1725699762421,2024-09-07T09:02:42.421Z,63512,0.024230957,1.0201416,-0.09887695
1725699762438,2024-09-07T09:02:42.438Z,63529,0.054016113,1.0084229,-0.10235596
1725699762470,2024-09-07T09:02:42.470Z,63561,0.0335083,1.0001221,-0.068603516
1725699762514,2024-09-07T09:02:42.514Z,63605,0.038024902,0.9851074,-0.04534912
1725699762559,2024-09-07T09:02:42.559Z,63650,0.045410156,1.0063477,-0.1048584
1725699762606,2024-09-07T09:02:42.606Z,63697,0.026672363,1.0140991,-0.10449219
1725699762651,2024-09-07T09:02:42.651Z,63742,0.045532227,1.0109253,-0.08227539
1725699762697,2024-09-07T09:02:42.697Z,63788,0.032104492,1.0072632,-0.059448242
1725699762742,2024-09-07T09:02:42.742Z,63833,0.02923584,1.0279541,-0.11853027
1725699762786,2024-09-07T09:02:42.786Z,63877,0.019165039,1.0078735,-0.04559326
1725699762829,2024-09-07T09:02:42.829Z,63920,0.036865234,1.0285645,-0.10272217
1725699762846,2024-09-07T09:02:42.846Z,63937,0.043823242,0.9938965,-0.060791016
1725699762874,2024-09-07T09:02:42.874Z,63965,0.018005371,1.0220337,-0.1260376
1725699762917,2024-09-07T09:02:42.917Z,64008,0.04144287,0.9938965,-0.07879639
1725699762965,2024-09-07T09:02:42.965Z,64056,0.033325195,1.0095215,-0.09307861
1725699763009,2024-09-07T09:02:43.009Z,64100,0.034240723,1.0109253,-0.105651855
1725699763058,2024-09-07T09:02:43.058Z,64149,0.031433105,0.99823,-0.10144043
1725699763098,2024-09-07T09:02:43.098Z,64189,0.0357666,1.0264893,-0.1048584
1725699763146,2024-09-07T09:02:43.146Z,64237,0.02960205,1.0064087,-0.11303711
1725699763193,2024-09-07T09:02:43.193Z,64284,0.055847168,1.0234375,-0.0993042
1725699763232,2024-09-07T09:02:43.232Z,64323,0.044189453,1.0214233,-0.11029053
1725699763250,2024-09-07T09:02:43.250Z,64341,0.024902344,1.0256348,-0.13122559
1725699763273,2024-09-07T09:02:43.273Z,64364,0.060668945,1.0288696,-0.10601807
1725699763320,2024-09-07T09:02:43.320Z,64411,0.041809082,1.0302734,-0.15771484
1725699763367,2024-09-07T09:02:43.367Z,64458,0.049560547,1.0140991,-0.08666992
1725699763416,2024-09-07T09:02:43.416Z,64507,0.03265381,1.0269775,-0.16455078
1725699763461,2024-09-07T09:02:43.461Z,64552,0.051574707,1.0082397,-0.099487305
1725699763509,2024-09-07T09:02:43.509Z,64600,0.024780273,1.0021973,-0.13916016
1725699763554,2024-09-07T09:02:43.554Z,64645,0.030761719,1.00354,-0.11303711
1725699763597,2024-09-07T09:02:43.597Z,64688,0.034240723,0.9941406,-0.12896729
1725699763639,2024-09-07T09:02:43.639Z,64730,0.028625488,1.005249,-0.13983154
1725699763684,2024-09-07T09:02:43.684Z,64775,0.038879395,1.0064087,-0.10998535
1725699763704,2024-09-07T09:02:43.704Z,64795,0.038085938,1.0110474,-0.11987305
1725699763728,2024-09-07T09:02:43.728Z,64819,0.03753662,1.0050049,-0.13946533
1725699763776,2024-09-07T09:02:43.776Z,64867,0.027160645,1.005249,-0.1227417
1725699763822,2024-09-07T09:02:43.822Z,64913,0.029052734,1.0154419,-0.11932373
1725699763864,2024-09-07T09:02:43.864Z,64955,0.0289917,1.0165405,-0.12689209
1725699763913,2024-09-07T09:02:43.913Z,65004,0.027648926,1.0278931,-0.13568115
1725699763955,2024-09-07T09:02:43.955Z,65046,0.05834961,1.0296631,-0.111206055
1725699763998,2024-09-07T09:02:43.998Z,65089,0.0034179688,1.0128174,-0.1251831
1725699764045,2024-09-07T09:02:44.045Z,65136,0.030639648,1.0334473,-0.1461792
1725699764092,2024-09-07T09:02:44.092Z,65183,0.02331543,1.0568848,-0.08898926
1725699764115,2024-09-07T09:02:44.115Z,65206,0.0146484375,1.0564575,-0.1430664
1725699764136,2024-09-07T09:02:44.136Z,65227,0.028442383,1.0886841,-0.13470459
1725699764178,2024-09-07T09:02:44.178Z,65269,0.0018920898,1.1378174,-0.15863037
1725699764222,2024-09-07T09:02:44.222Z,65313,0.06903076,1.1835938,-0.1494751
1725699764276,2024-09-07T09:02:44.276Z,65367,0.009765625,1.1564331,-0.17266846
1725699764318,2024-09-07T09:02:44.318Z,65409,0.04699707,1.1548462,-0.15820312
1725699764361,2024-09-07T09:02:44.361Z,65452,0.038635254,1.1239014,-0.111694336
1725699764408,2024-09-07T09:02:44.408Z,65499,0.040161133,1.1245117,-0.12982178
1725699764449,2024-09-07T09:02:44.449Z,65540,0.034240723,1.1220093,-0.14056396
1725699764500,2024-09-07T09:02:44.500Z,65591,0.058654785,1.1143799,-0.109436035
1725699764524,2024-09-07T09:02:44.524Z,65615,0.04321289,1.0895996,-0.07989502
1725699764548,2024-09-07T09:02:44.548Z,65639,0.051208496,1.0768433,-0.12408447
1725699764582,2024-09-07T09:02:44.582Z,65673,0.08312988,1.0506592,-0.059326172
1725699764628,2024-09-07T09:02:44.628Z,65719,0.03656006,1.0435791,-0.081970215
1725699764674,2024-09-07T09:02:44.674Z,65765,0.06793213,1.0359497,-0.054260254
1725699764722,2024-09-07T09:02:44.722Z,65813,0.032348633,1.0335693,-0.06744385
1725699764766,2024-09-07T09:02:44.766Z,65857,0.085510254,1.0350342,-0.015014648
1725699764811,2024-09-07T09:02:44.811Z,65902,0.06536865,0.99468994,-0.037597656
1725699764858,2024-09-07T09:02:44.858Z,65949,0.065979004,0.9807739,0.015808105
1725699764902,2024-09-07T09:02:44.902Z,65993,0.05090332,0.9523926,-0.022338867
1725699764946,2024-09-07T09:02:44.946Z,66037,0.07635498,0.91381836,0.0501709
1725699764968,2024-09-07T09:02:44.968Z,66059,0.09057617,0.8999634,0.052734375
1725699764990,2024-09-07T09:02:44.990Z,66081,0.05255127,0.89501953,0.087524414
1725699765032,2024-09-07T09:02:45.032Z,66123,0.016540527,0.9022217,0.080200195
1725699765082,2024-09-07T09:02:45.082Z,66173,0.0859375,0.8796387,0.12738037
1725699765126,2024-09-07T09:02:45.126Z,66217,0.0982666,0.8788452,0.06976318
1725699765172,2024-09-07T09:02:45.172Z,66263,0.099487305,0.8739624,0.15942383
1725699765216,2024-09-07T09:02:45.216Z,66307,0.06427002,0.89868164,0.13891602
1725699765261,2024-09-07T09:02:45.261Z,66352,0.12213135,0.932251,0.1359253
1725699765303,2024-09-07T09:02:45.303Z,66394,0.12982178,0.8983154,0.18457031
1725699765348,2024-09-07T09:02:45.348Z,66439,0.1340332,0.85357666,0.22589111
1725699765369,2024-09-07T09:02:45.369Z,66460,0.1583252,0.8668213,0.22045898
1725699765394,2024-09-07T09:02:45.394Z,66485,0.13623047,0.90234375,0.16149902
1725699765440,2024-09-07T09:02:45.440Z,66531,0.12866211,0.9547119,0.23040771
1725699765485,2024-09-07T09:02:45.485Z,66576,0.053527832,1.0385132,0.18481445
1725699765532,2024-09-07T09:02:45.532Z,66623,0.08996582,1.0299683,0.25878906
1725699765577,2024-09-07T09:02:45.577Z,66668,0.13092041,0.96698,0.15594482
1725699765621,2024-09-07T09:02:45.621Z,66712,0.18603516,0.9466553,0.18066406
1725699765666,2024-09-07T09:02:45.666Z,66757,0.17199707,0.93292236,0.22149658
1725699765710,2024-09-07T09:02:45.710Z,66801,0.11706543,0.9855957,0.19042969
1725699765755,2024-09-07T09:02:45.755Z,66846,0.105041504,0.9906616,0.22106934
1725699765777,2024-09-07T09:02:45.777Z,66868,0.107421875,0.9911499,0.20074463
1725699765795,2024-09-07T09:02:45.795Z,66886,0.1237793,0.9746704,0.20031738
1725699765842,2024-09-07T09:02:45.842Z,66933,0.14221191,0.9918213,0.19030762
1725699765888,2024-09-07T09:02:45.888Z,66979,0.15289307,1.0152588,0.18786621
1725699765938,2024-09-07T09:02:45.938Z,67029,0.12689209,1.0010986,0.19750977
1725699765980,2024-09-07T09:02:45.980Z,67071,0.1404419,1.0019531,0.16369629
1725699766027,2024-09-07T09:02:46.027Z,67118,0.13287354,0.97125244,0.17089844
1725699766069,2024-09-07T09:02:46.069Z,67160,0.14733887,0.973999,0.15777588
1725699766117,2024-09-07T09:02:46.117Z,67208,0.122680664,0.99090576,0.18481445
1725699766162,2024-09-07T09:02:46.162Z,67253,0.10418701,1.0113525,0.19274902
1725699766204,2024-09-07T09:02:46.204Z,67295,0.13586426,0.99884033,0.23962402
1725699766223,2024-09-07T09:02:46.223Z,67314,0.10748291,0.9953613,0.14837646
1725699766248,2024-09-07T09:02:46.248Z,67339,0.10028076,0.97143555,0.17980957
1725699766296,2024-09-07T09:02:46.296Z,67387,0.089904785,0.9716797,0.1873169
1725699766338,2024-09-07T09:02:46.338Z,67429,0.10455322,0.9718628,0.21209717
1725699766384,2024-09-07T09:02:46.384Z,67475,0.057128906,0.9821167,0.16760254
1725699766430,2024-09-07T09:02:46.430Z,67521,0.11151123,0.9734497,0.19378662
1725699766473,2024-09-07T09:02:46.473Z,67564,0.08148193,0.99090576,0.14672852
1725699766524,2024-09-07T09:02:46.524Z,67615,0.105407715,0.97546387,0.16278076
1725699766564,2024-09-07T09:02:46.564Z,67655,0.10803223,0.9793091,0.12097168
1725699766610,2024-09-07T09:02:46.610Z,67701,0.11883545,0.9690552,0.1439209
1725699766631,2024-09-07T09:02:46.631Z,67722,0.107788086,0.9831543,0.13531494
1725699766652,2024-09-07T09:02:46.652Z,67743,0.10583496,0.9902954,0.12628174
1725699766700,2024-09-07T09:02:46.700Z,67791,0.09326172,1.0023804,0.12567139
1725699766745,2024-09-07T09:02:46.745Z,67836,0.10882568,0.9946289,0.14520264
1725699766789,2024-09-07T09:02:46.789Z,67880,0.101257324,0.9830322,0.118896484
1725699766836,2024-09-07T09:02:46.836Z,67927,0.10241699,0.98657227,0.105773926
1725699766881,2024-09-07T09:02:46.881Z,67972,0.09442139,0.99176025,0.098083496
1725699766930,2024-09-07T09:02:46.930Z,68021,0.082336426,1.0001221,0.10131836
1725699766973,2024-09-07T09:02:46.973Z,68064,0.08148193,0.99468994,0.07159424
1725699767014,2024-09-07T09:02:47.014Z,68105,0.06945801,1.0102539,0.08331299
1725699767039,2024-09-07T09:02:47.039Z,68130,0.068237305,0.98809814,0.052124023
1725699767060,2024-09-07T09:02:47.060Z,68151,0.070373535,0.9884033,0.0635376
1725699767103,2024-09-07T09:02:47.103Z,68194,0.044433594,1.0200806,-0.009033203
1725699767149,2024-09-07T09:02:47.149Z,68240,0.08502197,0.9844971,0.055603027
1725699767195,2024-09-07T09:02:47.195Z,68286,0.051635742,1.020935,-0.0037231445
1725699767238,2024-09-07T09:02:47.238Z,68329,0.04626465,1.0004272,0.010803223
1725699767285,2024-09-07T09:02:47.285Z,68376,0.049438477,0.97943115,0.0072631836
1725699767331,2024-09-07T09:02:47.331Z,68422,0.044189453,0.9954834,0.00579834
1725699767372,2024-09-07T09:02:47.372Z,68463,0.05230713,0.9763794,-0.0036010742
1725699767420,2024-09-07T09:02:47.420Z,68511,0.04473877,0.986084,0.022155762
1725699767465,2024-09-07T09:02:47.465Z,68556,0.055664062,0.99468994,-0.028686523
1725699767489,2024-09-07T09:02:47.489Z,68580,0.0052490234,1.0115967,-0.02947998
1725699767511,2024-09-07T09:02:47.511Z,68602,0.034362793,1.0021362,-0.008605957
1725699767553,2024-09-07T09:02:47.553Z,68644,0.042541504,1.0122681,-0.033203125
1725699767601,2024-09-07T09:02:47.601Z,68692,0.03173828,1.0119019,-0.024902344
1725699767646,2024-09-07T09:02:47.646Z,68737,0.04547119,1.0133667,-0.034851074
1725699767692,2024-09-07T09:02:47.692Z,68783,0.049987793,1.0217285,-0.02178955
1725699767738,2024-09-07T09:02:47.738Z,68829,-0.0017700195,1.0206299,-0.08215332
1725699767777,2024-09-07T09:02:47.777Z,68868,0.026000977,1.0120239,-0.034606934
1725699767822,2024-09-07T09:02:47.822Z,68913,0.023864746,0.99993896,-0.043945312
1725699767873,2024-09-07T09:02:47.873Z,68964,0.019470215,0.9994507,-0.05218506
1725699767899,2024-09-07T09:02:47.899Z,68990,0.02532959,0.9994507,-0.0793457
1725699767921,2024-09-07T09:02:47.921Z,69012,0.012756348,1.0134888,-0.083862305
1725699767956,2024-09-07T09:02:47.956Z,69047,0.014465332,1.0089722,-0.0647583
1725699768015,2024-09-07T09:02:48.015Z,69106,0.012634277,1.0061646,-0.07598877
1725699768048,2024-09-07T09:02:48.048Z,69139,0.012756348,0.98742676,-0.070007324
1725699768096,2024-09-07T09:02:48.096Z,69187,0.01159668,0.9828491,-0.08782959
1725699768141,2024-09-07T09:02:48.141Z,69232,0.03466797,0.99212646,-0.10070801
1725699768185,2024-09-07T09:02:48.185Z,69276,0.017700195,1.0048828,-0.07147217
1725699768233,2024-09-07T09:02:48.233Z,69324,0.017578125,1.0182495,-0.103393555
1725699768276,2024-09-07T09:02:48.276Z,69367,0.028259277,1.0340576,-0.09875488
1725699768298,2024-09-07T09:02:48.298Z,69389,0.016235352,1.0576172,-0.09765625
1725699768319,2024-09-07T09:02:48.319Z,69410,-0.008911133,1.0336914,-0.095214844
1725699768363,2024-09-07T09:02:48.363Z,69454,0.038513184,1.0408936,-0.09448242
1725699768408,2024-09-07T09:02:48.408Z,69499,-0.0072021484,1.0227661,-0.1038208
1725699768454,2024-09-07T09:02:48.454Z,69545,-0.022399902,1.0181274,-0.1149292
1725699768499,2024-09-07T09:02:48.499Z,69590,0.017150879,1.0036011,-0.06982422
1725699768545,2024-09-07T09:02:48.545Z,69636,0.0052490234,1.0045166,-0.113586426
1725699768590,2024-09-07T09:02:48.590Z,69681,0.019042969,0.9923096,-0.111083984
1725699768638,2024-09-07T09:02:48.638Z,69729,0.004760742,1.0133057,-0.09118652
1725699768682,2024-09-07T09:02:48.682Z,69773,0.0045776367,0.99450684,-0.1149292
1725699768725,2024-09-07T09:02:48.725Z,69816,9.765625E-4,1.0064697,-0.10119629
1725699768746,2024-09-07T09:02:48.746Z,69837,0.03881836,1.0217896,-0.10253906
1725699768769,2024-09-07T09:02:48.769Z,69860,0.026977539,1.0216064,-0.099121094
1725699768813,2024-09-07T09:02:48.813Z,69904,-7.324219E-4,1.0340576,-0.12237549
1725699768859,2024-09-07T09:02:48.859Z,69950,0.033996582,1.026001,-0.048339844
1725699768905,2024-09-07T09:02:48.905Z,69996,0.006652832,1.0134888,-0.12835693
1725699768949,2024-09-07T09:02:48.949Z,70040,0.052734375,1.0101929,-0.06591797
1725699768994,2024-09-07T09:02:48.994Z,70085,-0.013916016,1.0108032,-0.09729004
1725699769038,2024-09-07T09:02:49.038Z,70129,0.017089844,1.0123901,-0.09240723
1725699769085,2024-09-07T09:02:49.085Z,70176,0.0134887695,1.0111084,-0.093322754
1725699769129,2024-09-07T09:02:49.129Z,70220,-0.0034179688,1.0008545,-0.07501221
1725699769151,2024-09-07T09:02:49.151Z,70242,0.024902344,1.010437,-0.08996582
1725699769174,2024-09-07T09:02:49.174Z,70265,0.013427734,1.0206909,-0.10266113
1725699769221,2024-09-07T09:02:49.221Z,70312,0.0045166016,1.013977,-0.07385254
1725699769266,2024-09-07T09:02:49.266Z,70357,0.019042969,1.0304565,-0.107910156
1725699769312,2024-09-07T09:02:49.312Z,70403,9.1552734E-4,1.0094604,-0.08654785
1725699769356,2024-09-07T09:02:49.356Z,70447,0.008605957,1.0305786,-0.11694336
1725699769397,2024-09-07T09:02:49.397Z,70488,0.04046631,1.0189209,-0.09692383
1725699769444,2024-09-07T09:02:49.444Z,70535,0.02532959,1.0198364,-0.09710693
1725699769491,2024-09-07T09:02:49.491Z,70582,0.018920898,1.022583,-0.0982666
1725699769536,2024-09-07T09:02:49.536Z,70627,0.008850098,1.0221558,-0.12615967
1725699769560,2024-09-07T09:02:49.560Z,70651,0.0134887695,1.0369873,-0.11883545
1725699769581,2024-09-07T09:02:49.581Z,70672,0.032958984,1.0338135,-0.09069824
1725699769622,2024-09-07T09:02:49.622Z,70713,0.021972656,1.0358276,-0.118652344
1725699769671,2024-09-07T09:02:49.671Z,70762,-6.1035156E-5,1.0270996,-0.11456299
1725699769716,2024-09-07T09:02:49.716Z,70807,0.017333984,1.02948,-0.13720703
1725699769762,2024-09-07T09:02:49.762Z,70853,0.020935059,1.0292969,-0.08404541
1725699769806,2024-09-07T09:02:49.806Z,70897,0.0126953125,1.0375977,-0.14782715
1725699769850,2024-09-07T09:02:49.850Z,70941,0.013427734,1.0394287,-0.1149292
1725699769895,2024-09-07T09:02:49.895Z,70986,0.029418945,1.0681152,-0.12927246
1725699769940,2024-09-07T09:02:49.940Z,71031,0.0056152344,1.0765381,-0.120666504
1725699769962,2024-09-07T09:02:49.962Z,71053,0.049743652,1.0999146,-0.107910156
1725699769985,2024-09-07T09:02:49.985Z,71076,0.003967285,1.159668,-0.17810059
1725699770030,2024-09-07T09:02:50.030Z,71121,0.04675293,1.1624146,-0.13256836
1725699770077,2024-09-07T09:02:50.077Z,71168,0.030517578,1.1733398,-0.13146973
1725699770121,2024-09-07T09:02:50.121Z,71212,0.030090332,1.1698608,-0.15270996
1725699770168,2024-09-07T09:02:50.168Z,71259,0.04437256,1.1617432,-0.10626221
1725699770214,2024-09-07T09:02:50.214Z,71305,0.057800293,1.1604004,-0.10424805
1725699770256,2024-09-07T09:02:50.256Z,71347,0.026611328,1.1340332,-0.11834717
1725699770304,2024-09-07T09:02:50.304Z,71395,0.05090332,1.1299438,-0.11236572
1725699770345,2024-09-07T09:02:50.345Z,71436,0.03314209,1.1115723,-0.060058594
1725699770389,2024-09-07T09:02:50.389Z,71480,0.020507812,1.1311035,-0.11785889
1725699770409,2024-09-07T09:02:50.409Z,71500,0.05230713,1.0831299,-0.07788086
1725699770435,2024-09-07T09:02:50.435Z,71526,0.045654297,1.0788574,-0.045410156
1725699770478,2024-09-07T09:02:50.478Z,71569,0.043762207,1.019043,-0.043395996
1725699770527,2024-09-07T09:02:50.527Z,71618,0.05432129,1.0213013,-0.027709961
1725699770569,2024-09-07T09:02:50.569Z,71660,0.030822754,0.9949341,-0.012329102
1725699770613,2024-09-07T09:02:50.613Z,71704,0.046569824,0.97052,0.004760742
1725699770660,2024-09-07T09:02:50.660Z,71751,0.0071411133,0.9187012,-0.0146484375
1725699770707,2024-09-07T09:02:50.707Z,71798,0.043151855,0.87286377,0.06921387
1725699770748,2024-09-07T09:02:50.748Z,71839,0.025268555,0.826355,0.092041016
1725699770794,2024-09-07T09:02:50.794Z,71885,0.037597656,0.8096924,0.02532959
1725699770812,2024-09-07T09:02:50.812Z,71903,0.06781006,0.7633667,0.19128418
1725699770840,2024-09-07T09:02:50.840Z,71931,0.04949951,0.8267822,0.042236328
1725699770884,2024-09-07T09:02:50.884Z,71975,0.05883789,0.80596924,0.17095947
1725699770930,2024-09-07T09:02:50.930Z,72021,0.10345459,0.8782959,0.17370605
1725699770974,2024-09-07T09:02:50.974Z,72065,0.08062744,0.91955566,0.123291016
1725699771020,2024-09-07T09:02:51.020Z,72111,0.11517334,0.90527344,0.2019043
1725699771065,2024-09-07T09:02:51.065Z,72156,0.1182251,0.9049072,0.18707275
1725699771112,2024-09-07T09:02:51.112Z,72203,0.08703613,0.93096924,0.12475586
1725699771159,2024-09-07T09:02:51.159Z,72250,0.1449585,0.9209595,0.21826172
1725699771201,2024-09-07T09:02:51.201Z,72292,0.097961426,0.9727173,0.2041626
1725699771223,2024-09-07T09:02:51.223Z,72314,0.073913574,0.96221924,0.22528076
1725699771241,2024-09-07T09:02:51.241Z,72332,0.13848877,0.97052,0.2796631
1725699771290,2024-09-07T09:02:51.290Z,72381,0.12402344,0.9783325,0.222229
1725699771336,2024-09-07T09:02:51.336Z,72427,0.10803223,0.965271,0.22979736
1725699771380,2024-09-07T09:02:51.380Z,72471,0.119140625,1.0066528,0.21844482
1725699771423,2024-09-07T09:02:51.423Z,72514,0.09442139,0.994751,0.1940918
1725699771472,2024-09-07T09:02:51.472Z,72563,0.11871338,1.0222778,0.18933105
1725699771517,2024-09-07T09:02:51.517Z,72608,0.10321045,0.99768066,0.15966797
1725699771561,2024-09-07T09:02:51.561Z,72652,0.14233398,1.0100098,0.18664551
1725699771604,2024-09-07T09:02:51.604Z,72695,0.14868164,0.9807129,0.22210693
1725699771650,2024-09-07T09:02:51.650Z,72741,0.109802246,0.99938965,0.17138672
1725699771671,2024-09-07T09:02:51.671Z,72762,0.13500977,0.97198486,0.23309326
1725699771694,2024-09-07T09:02:51.694Z,72785,0.11010742,0.99572754,0.15435791
1725699771739,2024-09-07T09:02:51.739Z,72830,0.13531494,0.9764404,0.17150879
1725699771784,2024-09-07T09:02:51.784Z,72875,0.14123535,0.986084,0.17462158
1725699771832,2024-09-07T09:02:51.832Z,72923,0.12872314,1.0025635,0.1749878
1725699771877,2024-09-07T09:02:51.877Z,72968,0.128479,0.9987793,0.17773438
1725699771917,2024-09-07T09:02:51.917Z,73008,0.08947754,0.9876709,0.1473999
1725699771964,2024-09-07T09:02:51.964Z,73055,0.13330078,0.9663086,0.19537354
1725699772012,2024-09-07T09:02:52.012Z,73103,0.07684326,0.97406006,0.14343262
1725699772060,2024-09-07T09:02:52.060Z,73151,0.0947876,0.9619751,0.18127441
1725699772081,2024-09-07T09:02:52.081Z,73172,0.07348633,0.98516846,0.14520264
1725699772100,2024-09-07T09:02:52.100Z,73191,0.09051514,0.989563,0.19976807
1725699772144,2024-09-07T09:02:52.144Z,73235,0.08294678,1.012207,0.14221191
1725699772191,2024-09-07T09:02:52.191Z,73282,0.103393555,1.0090332,0.13555908
1725699772237,2024-09-07T09:02:52.237Z,73328,0.08251953,0.98223877,0.11071777
1725699772281,2024-09-07T09:02:52.281Z,73372,0.09967041,0.96832275,0.14520264
1725699772321,2024-09-07T09:02:52.321Z,73412,0.06750488,0.9998779,0.074645996
1725699772377,2024-09-07T09:02:52.377Z,73468,0.08685303,0.98431396,0.15179443
1725699772414,2024-09-07T09:02:52.414Z,73505,0.07489014,0.98480225,0.0791626
1725699772461,2024-09-07T09:02:52.461Z,73552,0.10449219,0.98553467,0.091430664
1725699772479,2024-09-07T09:02:52.479Z,73570,0.059326172,0.99108887,0.072265625
1725699772504,2024-09-07T09:02:52.504Z,73595,0.07281494,0.9892578,0.06530762
1725699772548,2024-09-07T09:02:52.548Z,73639,0.08605957,1.0091553,0.034973145
1725699772597,2024-09-07T09:02:52.597Z,73688,0.046020508,1.0151978,0.04046631
1725699772643,2024-09-07T09:02:52.643Z,73734,0.08227539,0.998291,0.06567383
1725699772685,2024-09-07T09:02:52.685Z,73776,0.078430176,1.0196533,0.031066895
1725699772733,2024-09-07T09:02:52.733Z,73824,0.057128906,1.003479,0.056274414
1725699772773,2024-09-07T09:02:52.773Z,73864,0.04675293,0.9968872,0.036376953
1725699772819,2024-09-07T09:02:52.819Z,73910,0.05114746,1.0187378,0.024902344
1725699772864,2024-09-07T09:02:52.864Z,73955,0.035705566,1.0,0.041625977
1725699772909,2024-09-07T09:02:52.909Z,74000,0.0524292,1.0090942,0.009094238
1725699772929,2024-09-07T09:02:52.929Z,74020,0.046691895,0.9894409,0.031188965
1725699772952,2024-09-07T09:02:52.952Z,74043,0.026428223,0.9923706,-0.0032348633
1725699772996,2024-09-07T09:02:52.996Z,74087,0.027709961,1.0032349,-0.005004883
1725699773043,2024-09-07T09:02:53.043Z,74134,0.031921387,1.0038452,-0.014892578
1725699773097,2024-09-07T09:02:53.097Z,74188,0.028076172,1.0117188,-0.02947998
1725699773133,2024-09-07T09:02:53.133Z,74224,0.048034668,0.9976196,0.010192871
1725699773180,2024-09-07T09:02:53.180Z,74271,0.027954102,1.0066528,-0.047790527
1725699773227,2024-09-07T09:02:53.227Z,74318,0.013916016,0.9953003,0.0029296875
1725699773271,2024-09-07T09:02:53.271Z,74362,0.03753662,0.9920044,-0.034484863
1725699773315,2024-09-07T09:02:53.315Z,74406,0.047546387,0.9789429,-0.03479004
1725699773334,2024-09-07T09:02:53.334Z,74425,0.026306152,0.9918213,-0.04748535
1725699773358,2024-09-07T09:02:53.358Z,74449,0.034301758,0.98187256,-0.03918457
1725699773402,2024-09-07T09:02:53.402Z,74493,0.02520752,1.0147705,-0.05340576
1725699773450,2024-09-07T09:02:53.450Z,74541,0.050476074,0.991272,-0.006225586
1725699773494,2024-09-07T09:02:53.494Z,74585,0.00579834,1.0024414,-0.09008789
1725699773537,2024-09-07T09:02:53.537Z,74628,0.03302002,1.008728,-0.049621582
1725699773582,2024-09-07T09:02:53.582Z,74673,0.014831543,1.0214233,-0.09454346
1725699773628,2024-09-07T09:02:53.628Z,74719,0.038085938,1.0289307,-0.029541016
1725699773675,2024-09-07T09:02:53.675Z,74766,0.028808594,1.020874,-0.08087158
1725699773722,2024-09-07T09:02:53.722Z,74813,0.00970459,1.0241089,-0.09069824
1725699773739,2024-09-07T09:02:53.739Z,74830,0.05340576,1.0161743,-0.070373535
1725699773761,2024-09-07T09:02:53.761Z,74852,0.002746582,0.99676514,-0.08093262
1725699773810,2024-09-07T09:02:53.810Z,74901,0.015625,1.0426636,-0.105163574
1725699773854,2024-09-07T09:02:53.854Z,74945,0.038085938,1.0151978,-0.05340576
1725699773902,2024-09-07T09:02:53.902Z,74993,0.012451172,1.0261841,-0.12005615
1725699773949,2024-09-07T09:02:53.949Z,75040,0.018127441,1.0006104,-0.09661865
1725699773986,2024-09-07T09:02:53.986Z,75077,0.032043457,0.99780273,-0.084228516
1725699774033,2024-09-07T09:02:54.033Z,75124,0.0053100586,0.99768066,-0.10040283
1725699774080,2024-09-07T09:02:54.080Z,75171,0.024841309,1.0004272,-0.091796875
1725699774123,2024-09-07T09:02:54.123Z,75214,0.0095825195,0.99554443,-0.111816406
1725699774176,2024-09-07T09:02:54.176Z,75267,0.019958496,1.0120239,-0.079956055
1725699774196,2024-09-07T09:02:54.196Z,75287,0.019470215,1.003418,-0.10870361
1725699774217,2024-09-07T09:02:54.217Z,75308,0.0051879883,1.0108643,-0.13305664
1725699774258,2024-09-07T09:02:54.258Z,75349,0.0076293945,1.0030518,-0.09686279
1725699774352,2024-09-07T09:02:54.352Z,75443,0.0012207031,1.020935,-0.14050293
1725699774372,2024-09-07T09:02:54.372Z,75463,0.029968262,1.0304565,-0.095581055
1725699774392,2024-09-07T09:02:54.392Z,75483,1.2207031E-4,1.039917,-0.12384033
1725699774439,2024-09-07T09:02:54.439Z,75530,0.028686523,1.0620728,-0.14477539
1725699774487,2024-09-07T09:02:54.487Z,75578,0.00970459,1.0211792,-0.1270752
1725699774531,2024-09-07T09:02:54.531Z,75622,0.048095703,1.0615234,-0.08770752
1725699774574,2024-09-07T09:02:54.574Z,75665,0.003479004,1.0407715,-0.1729126
1725699774593,2024-09-07T09:02:54.593Z,75684,0.014709473,1.020752,-0.15368652
1725699774617,2024-09-07T09:02:54.617Z,75708,0.035888672,1.0353394,-0.109313965
1725699774665,2024-09-07T09:02:54.665Z,75756,0.0345459,1.0079956,-0.11663818
1725699774712,2024-09-07T09:02:54.712Z,75803,0.023376465,1.0131226,-0.1116333
1725699774756,2024-09-07T09:02:54.756Z,75847,0.022338867,1.0291138,-0.114990234
1725699774801,2024-09-07T09:02:54.801Z,75892,0.031799316,1.013916,-0.15637207
1725699774844,2024-09-07T09:02:54.844Z,75935,0.056762695,0.994812,-0.072265625
1725699774890,2024-09-07T09:02:54.890Z,75981,0.035461426,1.02771,-0.16503906
1725699774935,2024-09-07T09:02:54.935Z,76026,-0.0056762695,1.0029297,-0.12200928
1725699774985,2024-09-07T09:02:54.985Z,76076,0.046203613,1.0472412,-0.15905762
1725699775011,2024-09-07T09:02:55.011Z,76102,0.03527832,1.0047607,-0.12731934
1725699775028,2024-09-07T09:02:55.028Z,76119,0.030334473,1.0222168,-0.16674805
1725699775068,2024-09-07T09:02:55.068Z,76159,0.039733887,1.0319824,-0.12506104
1725699775117,2024-09-07T09:02:55.117Z,76208,0.022644043,1.0431519,-0.16925049
1725699775159,2024-09-07T09:02:55.159Z,76250,0.034973145,1.0245361,-0.13793945
1725699775205,2024-09-07T09:02:55.205Z,76296,0.04675293,1.072815,-0.17224121
1725699775253,2024-09-07T09:02:55.253Z,76344,0.037902832,1.1010132,-0.15795898
1725699775295,2024-09-07T09:02:55.295Z,76386,0.035827637,1.1505127,-0.15466309
1725699775338,2024-09-07T09:02:55.338Z,76429,0.06427002,1.1818237,-0.13995361
1725699775385,2024-09-07T09:02:55.385Z,76476,0.023376465,1.1741333,-0.1375122
1725699775429,2024-09-07T09:02:55.429Z,76520,0.055419922,1.1742554,-0.14581299
1725699775446,2024-09-07T09:02:55.446Z,76537,0.041748047,1.1663208,-0.14916992
1725699775479,2024-09-07T09:02:55.479Z,76570,0.05609131,1.1376343,-0.09197998
1725699775518,2024-09-07T09:02:55.518Z,76609,0.08251953,1.1712036,-0.11035156
1725699775562,2024-09-07T09:02:55.562Z,76653,0.018371582,1.1481323,-0.11004639
1725699775610,2024-09-07T09:02:55.610Z,76701,0.04046631,1.1408081,-0.12585449
1725699775656,2024-09-07T09:02:55.656Z,76747,0.059265137,1.1079102,-0.07220459
1725699775699,2024-09-07T09:02:55.699Z,76790,0.04095459,1.0332031,-0.051635742
1725699775744,2024-09-07T09:02:55.744Z,76835,0.061523438,1.036499,-0.061950684
1725699775791,2024-09-07T09:02:55.791Z,76882,0.023254395,0.9963379,-0.04815674
1725699775834,2024-09-07T09:02:55.834Z,76925,0.064819336,0.9938965,-0.038757324
1725699775858,2024-09-07T09:02:55.858Z,76949,0.055114746,0.9517212,-0.0068359375
1725699775881,2024-09-07T09:02:55.881Z,76972,0.03265381,0.9581299,-0.027709961
1725699775922,2024-09-07T09:02:55.922Z,77013,0.06713867,0.9173584,0.032287598
1725699775969,2024-09-07T09:02:55.969Z,77060,0.042236328,0.91174316,0.044433594
1725699776017,2024-09-07T09:02:56.017Z,77108,0.06359863,0.8956909,0.06652832
1725699776061,2024-09-07T09:02:56.061Z,77152,0.039367676,0.8609009,0.059631348
1725699776107,2024-09-07T09:02:56.107Z,77198,0.07537842,0.8560791,0.068359375
1725699776153,2024-09-07T09:02:56.153Z,77244,0.08618164,0.8317871,0.081848145
1725699776203,2024-09-07T09:02:56.203Z,77294,0.078430176,0.8378906,0.118652344
1725699776242,2024-09-07T09:02:56.242Z,77333,0.059509277,0.84088135,0.0925293
1725699776267,2024-09-07T09:02:56.267Z,77358,0.10772705,0.86968994,0.16003418
1725699776289,2024-09-07T09:02:56.289Z,77380,0.07879639,0.87158203,0.14605713
1725699776328,2024-09-07T09:02:56.328Z,77419,0.0826416,0.8955078,0.14648438
1725699776377,2024-09-07T09:02:56.377Z,77468,0.10015869,0.9165039,0.17462158
1725699776421,2024-09-07T09:02:56.421Z,77512,0.083740234,0.9701538,0.20153809
1725699776467,2024-09-07T09:02:56.467Z,77558,0.07293701,0.9746094,0.23162842
1725699776510,2024-09-07T09:02:56.510Z,77601,0.10394287,1.0197144,0.21508789
1725699776556,2024-09-07T09:02:56.556Z,77647,0.08557129,1.0015869,0.25286865
1725699776600,2024-09-07T09:02:56.600Z,77691,0.10430908,0.99212646,0.19299316
1725699776644,2024-09-07T09:02:56.644Z,77735,0.13647461,1.0014648,0.19891357
1725699776695,2024-09-07T09:02:56.695Z,77786,0.114746094,1.0010376,0.21166992
1725699776715,2024-09-07T09:02:56.715Z,77806,0.110839844,1.0026245,0.14605713
1725699776733,2024-09-07T09:02:56.733Z,77824,0.15032959,0.97698975,0.19000244
1725699776779,2024-09-07T09:02:56.779Z,77870,0.111206055,0.97839355,0.14996338
1725699776823,2024-09-07T09:02:56.823Z,77914,0.11791992,0.9830322,0.1954956
1725699776870,2024-09-07T09:02:56.870Z,77961,0.12231445,1.0046997,0.22662354
1725699776918,2024-09-07T09:02:56.918Z,78009,0.10656738,1.0021362,0.18261719
1725699776966,2024-09-07T09:02:56.966Z,78057,0.1418457,0.99853516,0.21063232
1725699777005,2024-09-07T09:02:57.005Z,78096,0.103515625,0.98968506,0.11621094
1725699777053,2024-09-07T09:02:57.053Z,78144,0.17407227,0.9666748,0.21484375
1725699777096,2024-09-07T09:02:57.096Z,78187,0.10760498,0.9963989,0.12084961
1725699777118,2024-09-07T09:02:57.118Z,78209,0.12475586,0.9829712,0.2300415
1725699777139,2024-09-07T09:02:57.139Z,78230,0.09790039,1.0015259,0.17578125
1725699777182,2024-09-07T09:02:57.182Z,78273,0.12677002,0.9686279,0.20385742
1725699777229,2024-09-07T09:02:57.229Z,78320,0.07788086,0.98413086,0.12756348
1725699777275,2024-09-07T09:02:57.275Z,78366,0.11730957,0.9657593,0.1696167
1725699777319,2024-09-07T09:02:57.319Z,78410,0.08074951,0.99993896,0.11743164
1725699777365,2024-09-07T09:02:57.365Z,78456,0.075927734,0.9771118,0.123413086
1725699777408,2024-09-07T09:02:57.408Z,78499,0.0692749,1.0021973,0.11273193
1725699777456,2024-09-07T09:02:57.456Z,78547,0.085876465,0.9752197,0.117248535
1725699777501,2024-09-07T09:02:57.501Z,78592,0.08850098,0.9794922,0.12011719
1725699777524,2024-09-07T09:02:57.524Z,78615,0.095458984,0.9761963,0.16345215
1725699777548,2024-09-07T09:02:57.548Z,78639,0.05859375,0.99102783,0.0982666
1725699777587,2024-09-07T09:02:57.587Z,78678,0.074035645,0.9784546,0.121520996
1725699777634,2024-09-07T09:02:57.634Z,78725,0.086242676,0.9959717,0.06506348
1725699777682,2024-09-07T09:02:57.682Z,78773,0.057556152,0.99017334,0.06213379
1725699777725,2024-09-07T09:02:57.725Z,78816,0.037109375,0.98669434,0.04711914
1725699777766,2024-09-07T09:02:57.766Z,78857,0.113708496,0.99713135,0.052490234
1725699777813,2024-09-07T09:02:57.813Z,78904,0.039916992,0.9979248,0.031677246
1725699777858,2024-09-07T09:02:57.858Z,78949,0.05505371,0.993103,0.051086426
1725699777906,2024-09-07T09:02:57.906Z,78997,0.072143555,0.99572754,-0.0018310547
1725699777951,2024-09-07T09:02:57.951Z,79042,0.02319336,0.97772217,0.03149414
1725699777975,2024-09-07T09:02:57.975Z,79066,0.003479004,0.9879761,0.03173828
1725699777997,2024-09-07T09:02:57.997Z,79088,0.08026123,0.9984741,0.023376465
1725699778037,2024-09-07T09:02:58.037Z,79128,0.028503418,1.008728,-0.01373291
1725699778082,2024-09-07T09:02:58.082Z,79173,0.02532959,1.0130005,-0.017456055
1725699778129,2024-09-07T09:02:58.129Z,79220,0.05822754,1.0241699,0.031066895
1725699778177,2024-09-07T09:02:58.177Z,79268,0.006164551,1.0180054,-0.030273438
1725699778220,2024-09-07T09:02:58.220Z,79311,0.037719727,1.0187378,-0.034057617
1725699778263,2024-09-07T09:02:58.263Z,79354,0.045166016,1.006958,-0.0068359375
1725699778310,2024-09-07T09:02:58.310Z,79401,0.025512695,0.9935913,-0.056030273
1725699778355,2024-09-07T09:02:58.355Z,79446,0.059448242,0.958374,0.024536133
1725699778375,2024-09-07T09:02:58.375Z,79466,0.043945312,0.99542236,-0.07196045
1725699778398,2024-09-07T09:02:58.398Z,79489,0.025146484,0.9968262,-0.02545166
1725699778443,2024-09-07T09:02:58.443Z,79534,0.028137207,1.0201416,-0.07348633
1725699778488,2024-09-07T09:02:58.488Z,79579,0.046569824,1.0087891,-0.033447266
1725699778533,2024-09-07T09:02:58.533Z,79624,0.034240723,1.0258789,-0.09008789
1725699778577,2024-09-07T09:02:58.577Z,79668,0.0044555664,1.0122681,-0.08660889
1725699778623,2024-09-07T09:02:58.623Z,79714,0.024414062,1.022644,-0.034240723
1725699778671,2024-09-07T09:02:58.671Z,79762,0.008117676,1.0045776,-0.076538086
1725699778718,2024-09-07T09:02:58.718Z,79809,0.032836914,1.0044556,-0.051757812
1725699778760,2024-09-07T09:02:58.760Z,79851,0.010131836,1.0010376,-0.11029053
1725699778780,2024-09-07T09:02:58.780Z,79871,0.032104492,1.0222778,-0.08239746
1725699778802,2024-09-07T09:02:58.802Z,79893,-0.014709473,1.026062,-0.117614746
1725699778848,2024-09-07T09:02:58.848Z,79939,0.04321289,0.99261475,-0.066589355
1725699778892,2024-09-07T09:02:58.892Z,79983,0.03112793,1.0089111,-0.10015869
1725699778941,2024-09-07T09:02:58.941Z,80032,0.037841797,1.0131836,-0.061706543
1725699778984,2024-09-07T09:02:58.984Z,80075,-0.0053100586,1.0040283,-0.115722656
1725699779032,2024-09-07T09:02:59.032Z,80123,0.042785645,1.0423584,-0.09375
1725699779074,2024-09-07T09:02:59.074Z,80165,0.056640625,1.0117188,-0.10241699
1725699779118,2024-09-07T09:02:59.118Z,80209,0.0095825195,1.0198364,-0.12597656
1725699779164,2024-09-07T09:02:59.164Z,80255,0.037109375,1.0286255,-0.09625244
1725699779212,2024-09-07T09:02:59.212Z,80303,0.028930664,1.0304565,-0.099365234
1725699779232,2024-09-07T09:02:59.232Z,80323,0.022155762,1.0125122,-0.10076904
1725699779252,2024-09-07T09:02:59.252Z,80343,0.016906738,1.0352783,-0.14154053
1725699779297,2024-09-07T09:02:59.297Z,80388,0.021362305,1.0183105,-0.122558594
1725699779345,2024-09-07T09:02:59.345Z,80436,0.032226562,1.0089722,-0.064208984
1725699779390,2024-09-07T09:02:59.390Z,80481,0.012634277,1.0252075,-0.13110352
1725699779436,2024-09-07T09:02:59.436Z,80527,0.010375977,1.0323486,-0.123046875
1725699779482,2024-09-07T09:02:59.482Z,80573,0.013366699,1.024231,-0.10064697
1725699779573,2024-09-07T09:02:59.573Z,80664,0.01953125,1.020935,-0.123291016
1725699779589,2024-09-07T09:02:59.589Z,80680,0.0075683594,1.0151367,-0.14526367
1725699779613,2024-09-07T09:02:59.613Z,80704,0.0063476562,0.98187256,-0.11541748
1725699779626,2024-09-07T09:02:59.626Z,80717,0.03186035,1.0198364,-0.092163086
1725699779654,2024-09-07T09:02:59.654Z,80745,-0.004699707,1.010437,-0.16534424
1725699779705,2024-09-07T09:02:59.705Z,80796,0.019958496,1.0302734,-0.12243652
1725699779747,2024-09-07T09:02:59.747Z,80838,-0.013183594,1.0297241,-0.14648438
1725699779795,2024-09-07T09:02:59.795Z,80886,0.035095215,1.0321655,-0.15203857
1725699779840,2024-09-07T09:02:59.840Z,80931,-0.00793457,1.0283203,-0.12835693
1725699779882,2024-09-07T09:02:59.882Z,80973,0.006713867,1.0127563,-0.1237793
1725699779931,2024-09-07T09:02:59.931Z,81022,0.003967285,1.0099487,-0.16101074
1725699779976,2024-09-07T09:02:59.976Z,81067,0.020202637,1.0355225,-0.15374756
1725699780017,2024-09-07T09:03:00.017Z,81108,0.028381348,1.0302124,-0.12982178
1725699780038,2024-09-07T09:03:00.038Z,81129,0.009155273,1.0535278,-0.16052246
1725699780062,2024-09-07T09:03:00.062Z,81153,0.013122559,1.0838623,-0.17907715
1725699780108,2024-09-07T09:03:00.108Z,81199,0.012634277,1.0997925,-0.16998291
1725699780152,2024-09-07T09:03:00.152Z,81243,0.017028809,1.1262207,-0.1453247
1725699780198,2024-09-07T09:03:00.198Z,81289,0.04876709,1.175354,-0.113708496
1725699780245,2024-09-07T09:03:00.245Z,81336,-0.028320312,1.1710815,-0.20611572
1725699780290,2024-09-07T09:03:00.290Z,81381,0.05505371,1.1702881,-0.13208008
1725699780335,2024-09-07T09:03:00.335Z,81426,0.025390625,1.1588135,-0.10235596
1725699780378,2024-09-07T09:03:00.378Z,81469,0.03314209,1.1282959,-0.13391113
1725699780423,2024-09-07T09:03:00.423Z,81514,0.0211792,1.157898,-0.117126465
1725699780469,2024-09-07T09:03:00.469Z,81560,4.272461E-4,1.1278687,-0.12719727
1725699780486,2024-09-07T09:03:00.486Z,81577,0.039245605,1.1185303,-0.114746094
1725699780511,2024-09-07T09:03:00.511Z,81602,0.044128418,1.1131592,-0.08660889
1725699780560,2024-09-07T09:03:00.560Z,81651,0.015625,1.0894775,-0.08081055
1725699780606,2024-09-07T09:03:00.606Z,81697,0.002746582,1.1047974,-0.08526611
1725699780698,2024-09-07T09:03:00.698Z,81789,0.0014648438,1.0511475,-0.08911133
1725699780719,2024-09-07T09:03:00.719Z,81810,0.010375977,1.0097656,-0.066467285
1725699780739,2024-09-07T09:03:00.739Z,81830,0.008239746,0.9645386,-0.025756836
1725699780783,2024-09-07T09:03:00.783Z,81874,0.026733398,0.9435425,-0.041809082
1725699780829,2024-09-07T09:03:00.829Z,81920,0.02758789,0.94647217,-0.019104004
1725699780875,2024-09-07T09:03:00.875Z,81966,0.0068969727,0.92089844,-0.008728027
1725699780894,2024-09-07T09:03:00.894Z,81985,0.0032958984,0.92303467,-0.0022583008
1725699780919,2024-09-07T09:03:00.919Z,82010,0.030944824,0.91156006,0.025817871
1725699780962,2024-09-07T09:03:00.962Z,82053,0.056884766,0.9170532,0.053833008
1725699781010,2024-09-07T09:03:01.010Z,82101,-0.003967285,0.8744507,0.0076293945
1725699781055,2024-09-07T09:03:01.055Z,82146,0.04510498,0.88946533,0.060058594
1725699781100,2024-09-07T09:03:01.100Z,82191,0.06500244,0.8120117,0.11328125
1725699781143,2024-09-07T09:03:01.143Z,82234,0.05718994,0.80493164,0.107299805
1725699781187,2024-09-07T09:03:01.187Z,82278,0.07531738,0.79418945,0.1807251
1725699781232,2024-09-07T09:03:01.232Z,82323,0.10900879,0.8383179,0.19140625
1725699781278,2024-09-07T09:03:01.278Z,82369,0.043029785,0.960022,0.07946777
1725699781293,2024-09-07T09:03:01.293Z,82384,0.10650635,1.0463867,0.15515137
1725699781321,2024-09-07T09:03:01.321Z,82412,0.011962891,1.0657349,0.21124268
1725699781368,2024-09-07T09:03:01.368Z,82459,0.050048828,1.0105591,0.16473389
1725699781412,2024-09-07T09:03:01.412Z,82503,0.22149658,0.9193115,0.19696045
1725699781458,2024-09-07T09:03:01.458Z,82549,0.21862793,0.8842163,0.15100098
1725699781504,2024-09-07T09:03:01.504Z,82595,0.1885376,0.9503784,0.1463623
1725699781550,2024-09-07T09:03:01.550Z,82641,0.11779785,1.0266113,0.13562012
1725699781595,2024-09-07T09:03:01.595Z,82686,0.040222168,1.0545044,0.18737793
1725699781639,2024-09-07T09:03:01.639Z,82730,0.083496094,1.015686,0.20599365
1725699781685,2024-09-07T09:03:01.685Z,82776,0.14929199,0.98779297,0.22070312
1725699781733,2024-09-07T09:03:01.733Z,82824,0.10864258,0.9819336,0.20928955
1725699781753,2024-09-07T09:03:01.753Z,82844,0.09576416,1.015686,0.16064453
1725699781770,2024-09-07T09:03:01.770Z,82861,0.1005249,1.0340576,0.15429688
1725699781821,2024-09-07T09:03:01.821Z,82912,0.107910156,1.0130005,0.12731934
1725699781866,2024-09-07T09:03:01.866Z,82957,0.12835693,0.9869995,0.1473999
1725699781907,2024-09-07T09:03:01.907Z,82998,0.10522461,0.9977417,0.14837646
1725699781955,2024-09-07T09:03:01.955Z,83046,0.11230469,0.9940796,0.19714355
1725699781999,2024-09-07T09:03:01.999Z,83090,0.08856201,1.0107422,0.14849854
1725699782042,2024-09-07T09:03:02.042Z,83133,0.09906006,0.9960327,0.117004395
1725699782089,2024-09-07T09:03:02.089Z,83180,0.09710693,1.043335,0.08843994
1725699782136,2024-09-07T09:03:02.136Z,83227,0.1295166,1.0073853,0.10192871
1725699782159,2024-09-07T09:03:02.159Z,83250,0.10845947,1.0073853,0.049987793
1725699782180,2024-09-07T09:03:02.180Z,83271,0.13415527,1.0123291,0.107055664
1725699782221,2024-09-07T09:03:02.221Z,83312,0.103027344,0.9991455,0.07635498
1725699782267,2024-09-07T09:03:02.267Z,83358,0.11785889,0.9770508,0.09698486
1725699782315,2024-09-07T09:03:02.315Z,83406,0.087402344,0.96307373,0.08026123
1725699782360,2024-09-07T09:03:02.360Z,83451,0.11303711,0.9871216,0.12884521
1725699782406,2024-09-07T09:03:02.406Z,83497,0.059387207,0.998291,0.18304443
1725699782449,2024-09-07T09:03:02.449Z,83540,0.024047852,1.0021973,0.31048584
1725699782489,2024-09-07T09:03:02.489Z,83580,-0.036621094,0.989624,0.41412354
1725699782533,2024-09-07T09:03:02.533Z,83624,0.053588867,0.9769287,0.3173828
1725699782541,2024-09-07T09:03:02.541Z,83632,0.099121094,0.9460449,0.21734619
1725699782579,2024-09-07T09:03:02.579Z,83670,0.152771,0.92492676,0.21466064
1725699782623,2024-09-07T09:03:02.623Z,83714,0.15356445,0.9310913,0.16394043
