Timestamp (ms),ISO DateTime,Elapsed Time (ms),Acceleration X,Acceleration Y,Acceleration Z
1725722018994,2024-09-07T15:13:38.994Z,154474,0.09741211,0.92211914,0.2546997
1725722019015,2024-09-07T15:13:39.015Z,154495,0.07879639,0.9499512,0.24584961
1725722019037,2024-09-07T15:13:39.037Z,154517,0.1026001,0.9837036,0.2218628
1725722019082,2024-09-07T15:13:39.082Z,154562,0.117004395,1.0020142,0.2388916
1725722019129,2024-09-07T15:13:39.129Z,154609,0.14233398,1.005188,0.22583008
1725722019175,2024-09-07T15:13:39.175Z,154655,0.12872314,0.9934082,0.21130371
1725722019216,2024-09-07T15:13:39.216Z,154696,0.087768555,0.95825195,0.24279785
1725722019273,2024-09-07T15:13:39.273Z,154753,0.07354736,0.94415283,0.19165039
1725722019317,2024-09-07T15:13:39.317Z,154797,0.12017822,0.9217529,0.20397949
1725722019360,2024-09-07T15:13:39.360Z,154840,0.122802734,0.92181396,0.20227051
1725722019404,2024-09-07T15:13:39.404Z,154884,0.12359619,0.9319458,0.1663208
1725722019426,2024-09-07T15:13:39.426Z,154906,0.12860107,0.9522705,0.20367432
1725722019446,2024-09-07T15:13:39.446Z,154926,0.14465332,0.97454834,0.25079346
1725722019489,2024-09-07T15:13:39.489Z,154969,0.10015869,0.9515991,0.22460938
1725722019536,2024-09-07T15:13:39.536Z,155016,0.12054443,0.95562744,0.19976807
1725722019584,2024-09-07T15:13:39.584Z,155064,0.101379395,0.9439087,0.19415283
1725722019628,2024-09-07T15:13:39.628Z,155108,0.089904785,0.95007324,0.17492676
1725722019676,2024-09-07T15:13:39.676Z,155156,0.070495605,0.9989624,0.14117432
1725722019722,2024-09-07T15:13:39.722Z,155202,0.072265625,0.9891968,0.17224121
1725722019760,2024-09-07T15:13:39.760Z,155240,0.095336914,0.989624,0.15405273
1725722019811,2024-09-07T15:13:39.811Z,155291,0.07659912,0.9684448,0.1586914
1725722019836,2024-09-07T15:13:39.836Z,155316,0.080566406,0.97161865,0.14892578
1725722019855,2024-09-07T15:13:39.855Z,155335,0.07543945,0.97473145,0.18286133
1725722019891,2024-09-07T15:13:39.891Z,155371,0.06695557,0.99420166,0.19665527
1725722019957,2024-09-07T15:13:39.957Z,155437,0.030029297,1.0224609,0.20031738
1725722019988,2024-09-07T15:13:39.988Z,155468,0.0635376,1.020935,0.22009277
1725722020036,2024-09-07T15:13:40.036Z,155516,0.076293945,0.97106934,0.21118164
1725722020078,2024-09-07T15:13:40.078Z,155558,0.05822754,0.96313477,0.1831665
1725722020124,2024-09-07T15:13:40.124Z,155604,0.05718994,0.9873657,0.15124512
1725722020171,2024-09-07T15:13:40.171Z,155651,0.038879395,0.98791504,0.15216064
1725722020216,2024-09-07T15:13:40.216Z,155696,0.02557373,0.958313,0.14886475
1725722020258,2024-09-07T15:13:40.258Z,155738,0.03717041,0.95391846,0.13769531
1725722020286,2024-09-07T15:13:40.286Z,155766,0.05731201,0.9842529,0.14990234
1725722020304,2024-09-07T15:13:40.304Z,155784,0.03515625,1.0054932,0.1408081
1725722020343,2024-09-07T15:13:40.343Z,155823,0.02331543,1.0320435,0.12805176
1725722020391,2024-09-07T15:13:40.391Z,155871,0.097839355,1.0252686,0.09863281
1725722020488,2024-09-07T15:13:40.488Z,155968,0.09112549,1.0187988,0.086364746
1725722020527,2024-09-07T15:13:40.527Z,156007,0.045837402,0.9975586,0.097961426
1725722020543,2024-09-07T15:13:40.543Z,156023,0.072021484,1.0091553,0.087646484
1725722020569,2024-09-07T15:13:40.569Z,156049,0.051635742,1.0305176,0.09338379
1725722020613,2024-09-07T15:13:40.613Z,156093,0.056030273,1.067688,0.11218262
1725722020668,2024-09-07T15:13:40.668Z,156148,0.06573486,1.0449219,0.14404297
1725722020707,2024-09-07T15:13:40.707Z,156187,0.07720947,0.99438477,0.16864014
1725722020728,2024-09-07T15:13:40.728Z,156208,0.06085205,0.9111328,0.16918945
1725722020749,2024-09-07T15:13:40.749Z,156229,0.053710938,0.9616089,0.17480469
1725722020794,2024-09-07T15:13:40.794Z,156274,0.055908203,0.96832275,0.12451172
1725722020846,2024-09-07T15:13:40.846Z,156326,0.03253174,0.989563,0.09686279
1725722020891,2024-09-07T15:13:40.891Z,156371,0.044555664,1.0402222,0.055480957
1725722020940,2024-09-07T15:13:40.940Z,156420,0.040893555,1.0274658,0.053344727
1725722020977,2024-09-07T15:13:40.977Z,156457,0.05029297,1.0093384,0.049621582
1725722021022,2024-09-07T15:13:41.022Z,156502,0.0715332,1.020752,0.04724121
1725722021072,2024-09-07T15:13:41.072Z,156552,0.04534912,0.9729614,0.13061523
1725722021100,2024-09-07T15:13:41.100Z,156580,0.11663818,1.0378418,0.07952881
1725722021117,2024-09-07T15:13:41.117Z,156597,0.027648926,0.98339844,0.094055176
1725722021154,2024-09-07T15:13:41.154Z,156634,0.085754395,1.0698853,0.0793457
1725722021201,2024-09-07T15:13:41.201Z,156681,0.027160645,1.0229492,0.099121094
1725722021252,2024-09-07T15:13:41.252Z,156732,0.08557129,1.0596924,0.07171631
1725722021296,2024-09-07T15:13:41.296Z,156776,0.032348633,0.95996094,0.08850098
1725722021340,2024-09-07T15:13:41.340Z,156820,0.11254883,1.0170288,0.076049805
1725722021388,2024-09-07T15:13:41.388Z,156868,0.06121826,1.0142822,0.08502197
1725722021429,2024-09-07T15:13:41.429Z,156909,0.09716797,1.0546265,0.10736084
1725722021478,2024-09-07T15:13:41.478Z,156958,0.07092285,1.074585,0.09100342
1725722021515,2024-09-07T15:13:41.515Z,156995,0.085632324,1.081665,0.10296631
1725722021534,2024-09-07T15:13:41.534Z,157014,0.06695557,1.0731201,0.061645508
1725722021558,2024-09-07T15:13:41.558Z,157038,0.07647705,1.0671997,0.07885742
1725722021602,2024-09-07T15:13:41.602Z,157082,0.054504395,1.0766602,0.072509766
1725722021656,2024-09-07T15:13:41.656Z,157136,0.038879395,1.0634155,0.10223389
1725722021700,2024-09-07T15:13:41.700Z,157180,0.0715332,1.0543213,0.083740234
1725722021748,2024-09-07T15:13:41.748Z,157228,0.05126953,1.0177002,0.080200195
1725722021787,2024-09-07T15:13:41.787Z,157267,0.099487305,1.0178833,0.045043945
1725722021826,2024-09-07T15:13:41.826Z,157306,0.03161621,0.980896,0.07757568
1725722021881,2024-09-07T15:13:41.881Z,157361,0.070251465,1.0525513,0.013122559
1725722021926,2024-09-07T15:13:41.926Z,157406,0.031799316,1.0345459,0.053833008
1725722021956,2024-09-07T15:13:41.956Z,157436,0.09729004,1.0211182,0.020019531
1725722021983,2024-09-07T15:13:41.983Z,157463,0.06011963,0.996521,0.09490967
1725722022009,2024-09-07T15:13:42.009Z,157489,0.03125,1.0007324,0.032104492
1725722022058,2024-09-07T15:13:42.058Z,157538,0.03314209,0.98394775,0.06738281
1725722022104,2024-09-07T15:13:42.104Z,157584,0.06286621,0.9928589,0.1060791
1725722022150,2024-09-07T15:13:42.150Z,157630,0.055114746,1.0134888,0.082458496
1725722022195,2024-09-07T15:13:42.195Z,157675,0.030395508,1.0131226,0.061157227
1725722022239,2024-09-07T15:13:42.239Z,157719,0.057128906,1.0167236,0.06414795
1725722022285,2024-09-07T15:13:42.285Z,157765,0.016662598,1.0095825,0.07873535
1725722022331,2024-09-07T15:13:42.331Z,157811,0.04046631,1.0327759,0.024963379
1725722022360,2024-09-07T15:13:42.360Z,157840,0.065979004,1.0144043,0.04876709
1725722022381,2024-09-07T15:13:42.381Z,157861,0.059509277,0.98223877,0.064208984
1725722022410,2024-09-07T15:13:42.410Z,157890,0.083740234,1.0122681,0.022094727
1725722022459,2024-09-07T15:13:42.459Z,157939,0.04663086,0.9928589,0.062805176
1725722022505,2024-09-07T15:13:42.505Z,157985,0.045532227,0.9771118,0.03491211
1725722022555,2024-09-07T15:13:42.555Z,158035,0.045715332,0.9621582,0.041381836
1725722022597,2024-09-07T15:13:42.597Z,158077,0.025817871,0.953125,0.058898926
1725722022643,2024-09-07T15:13:42.643Z,158123,0.04852295,0.9751587,0.046813965
1725722022693,2024-09-07T15:13:42.693Z,158173,0.025390625,0.9873657,0.099853516
1725722022736,2024-09-07T15:13:42.736Z,158216,0.04547119,1.0137329,0.1508789
1725722022779,2024-09-07T15:13:42.779Z,158259,0.04827881,1.0161743,0.1798706
1725722022808,2024-09-07T15:13:42.808Z,158288,0.06591797,1.0164795,0.16546631
1725722022825,2024-09-07T15:13:42.825Z,158305,0.07409668,1.0283203,0.10266113
1725722022861,2024-09-07T15:13:42.861Z,158341,0.07104492,1.0267944,0.103881836
1725722022908,2024-09-07T15:13:42.908Z,158388,0.09082031,1.0106201,0.12164307
1725722022958,2024-09-07T15:13:42.958Z,158438,0.083984375,0.9946289,0.120788574
1725722023006,2024-09-07T15:13:43.006Z,158486,0.10498047,0.98095703,0.09674072
1725722023048,2024-09-07T15:13:43.048Z,158528,0.10595703,0.95758057,0.12695312
1725722023094,2024-09-07T15:13:43.094Z,158574,0.09173584,0.94940186,0.10058594
1725722023141,2024-09-07T15:13:43.141Z,158621,0.09490967,0.9267578,0.14923096
1725722023188,2024-09-07T15:13:43.188Z,158668,0.10992432,0.94036865,0.16461182
1725722023219,2024-09-07T15:13:43.219Z,158699,0.079711914,0.9752197,0.1706543
1725722023240,2024-09-07T15:13:43.240Z,158720,0.11468506,0.98461914,0.18817139
1725722023267,2024-09-07T15:13:43.267Z,158747,0.13623047,0.9725342,0.1574707
1725722023320,2024-09-07T15:13:43.320Z,158800,0.13690186,0.9361572,0.1651001
1725722023364,2024-09-07T15:13:43.364Z,158844,0.12506104,0.9349365,0.14575195
1725722023412,2024-09-07T15:13:43.412Z,158892,0.13043213,0.93536377,0.14611816
1725722023455,2024-09-07T15:13:43.455Z,158935,0.11816406,0.91656494,0.18304443
1725722023499,2024-09-07T15:13:43.499Z,158979,0.11804199,0.9187622,0.1854248
1725722023542,2024-09-07T15:13:43.542Z,159022,0.110839844,0.9644165,0.18225098
1725722023594,2024-09-07T15:13:43.594Z,159074,0.13067627,1.020874,0.19091797
1725722023623,2024-09-07T15:13:43.623Z,159103,0.14782715,1.0482178,0.1906128
1725722023642,2024-09-07T15:13:43.642Z,159122,0.13323975,0.99560547,0.1730957
1725722023672,2024-09-07T15:13:43.672Z,159152,0.15594482,0.9525757,0.1862793
1725722023719,2024-09-07T15:13:43.719Z,159199,0.16064453,0.9473877,0.19134521
1725722023770,2024-09-07T15:13:43.770Z,159250,0.15307617,0.96765137,0.18457031
1725722023812,2024-09-07T15:13:43.812Z,159292,0.12878418,0.9768677,0.17016602
1725722023858,2024-09-07T15:13:43.858Z,159338,0.14123535,0.99884033,0.19085693
1725722023905,2024-09-07T15:13:43.905Z,159385,0.159729,0.99871826,0.19329834
1725722023948,2024-09-07T15:13:43.948Z,159428,0.1395874,0.9925537,0.15948486
1725722023993,2024-09-07T15:13:43.993Z,159473,0.13848877,0.98516846,0.16729736
1725722024043,2024-09-07T15:13:44.043Z,159523,0.13391113,0.98223877,0.17150879
1725722024074,2024-09-07T15:13:44.074Z,159554,0.13555908,0.9641113,0.18829346
1725722024094,2024-09-07T15:13:44.094Z,159574,0.12506104,0.97106934,0.18469238
1725722024121,2024-09-07T15:13:44.121Z,159601,0.12872314,0.9812012,0.20031738
1725722024172,2024-09-07T15:13:44.172Z,159652,0.13256836,0.97753906,0.1954956
1725722024219,2024-09-07T15:13:44.219Z,159699,0.13134766,0.97650146,0.19335938
1725722024264,2024-09-07T15:13:44.264Z,159744,0.12615967,0.9700928,0.17895508
1725722024312,2024-09-07T15:13:44.312Z,159792,0.12249756,0.9614258,0.17767334
1725722024352,2024-09-07T15:13:44.352Z,159832,0.11798096,0.9637451,0.18322754
1725722024399,2024-09-07T15:13:44.399Z,159879,0.11224365,0.9657593,0.18267822
1725722024446,2024-09-07T15:13:44.446Z,159926,0.10473633,0.9706421,0.16003418
1725722024484,2024-09-07T15:13:44.484Z,159964,0.11114502,0.9747925,0.15722656
1725722024507,2024-09-07T15:13:44.507Z,159987,0.10650635,0.9732666,0.14508057
1725722024577,2024-09-07T15:13:44.577Z,160057,0.09643555,0.9692383,0.12890625
1725722024594,2024-09-07T15:13:44.594Z,160074,0.09454346,0.96173096,0.124938965
1725722024618,2024-09-07T15:13:44.618Z,160098,0.101379395,0.9613037,0.13183594
1725722024671,2024-09-07T15:13:44.671Z,160151,0.084106445,0.9753418,0.10223389
1725722024714,2024-09-07T15:13:44.714Z,160194,0.08026123,0.9746094,0.10437012
1725722024766,2024-09-07T15:13:44.766Z,160246,0.10266113,1.006958,0.112976074
1725722024805,2024-09-07T15:13:44.805Z,160285,0.0680542,0.9859009,0.099731445
1725722024848,2024-09-07T15:13:44.848Z,160328,0.085510254,0.9814453,0.10888672
1725722024875,2024-09-07T15:13:44.875Z,160355,0.06976318,0.99713135,0.09448242
1725722024893,2024-09-07T15:13:44.893Z,160373,0.0501709,1.0117798,0.07525635
1725722024931,2024-09-07T15:13:44.931Z,160411,0.055236816,1.0164185,0.08215332
1725722024985,2024-09-07T15:13:44.985Z,160465,0.061035156,1.0031738,0.08734131
1725722025029,2024-09-07T15:13:45.029Z,160509,0.04058838,0.98376465,0.07763672
1725722025074,2024-09-07T15:13:45.074Z,160554,0.051452637,0.9755249,0.08996582
1725722025112,2024-09-07T15:13:45.112Z,160592,0.051757812,0.9769287,0.06274414
1725722025162,2024-09-07T15:13:45.162Z,160642,0.013977051,0.96881104,0.025939941
1725722025208,2024-09-07T15:13:45.208Z,160688,0.03479004,1.0021973,0.054138184
1725722025256,2024-09-07T15:13:45.256Z,160736,0.041625977,0.99780273,0.047546387
1725722025298,2024-09-07T15:13:45.298Z,160778,0.051086426,0.9813843,0.04107666
1725722025320,2024-09-07T15:13:45.320Z,160800,0.023071289,0.98376465,0.016906738
1725722025340,2024-09-07T15:13:45.340Z,160820,0.03112793,1.0015259,0.041931152
1725722025384,2024-09-07T15:13:45.384Z,160864,0.024475098,1.0093994,0.038757324
1725722025431,2024-09-07T15:13:45.431Z,160911,0.018005371,1.0088501,0.014404297
1725722025479,2024-09-07T15:13:45.479Z,160959,0.026000977,1.0093994,0.0020751953
1725722025525,2024-09-07T15:13:45.525Z,161005,0.042175293,1.0317993,0.023376465
1725722025568,2024-09-07T15:13:45.568Z,161048,0.040527344,1.0459595,0.05810547
1725722025615,2024-09-07T15:13:45.615Z,161095,0.03173828,1.0164185,0.030456543
1725722025664,2024-09-07T15:13:45.664Z,161144,0.040893555,0.9902954,0.03967285
1725722025704,2024-09-07T15:13:45.704Z,161184,0.071899414,1.0211182,0.026245117
1725722025735,2024-09-07T15:13:45.735Z,161215,-0.0026855469,1.0106812,0.017150879
1725722025755,2024-09-07T15:13:45.755Z,161235,0.070129395,1.0236816,-0.013122559
1725722025785,2024-09-07T15:13:45.785Z,161265,0.018615723,0.9918823,0.02758789
1725722025832,2024-09-07T15:13:45.832Z,161312,0.09790039,1.0545044,0.029968262
1725722025883,2024-09-07T15:13:45.883Z,161363,0.064453125,1.0126953,0.0637207
1725722025931,2024-09-07T15:13:45.931Z,161411,0.07891846,0.97320557,0.06060791
1725722025974,2024-09-07T15:13:45.974Z,161454,0.03643799,0.97979736,-0.006958008
1725722026017,2024-09-07T15:13:46.017Z,161497,0.038757324,0.9673462,0.057678223
1725722026066,2024-09-07T15:13:46.066Z,161546,0.09222412,1.0372925,-0.0012817383
1725722026111,2024-09-07T15:13:46.111Z,161591,-0.0021362305,0.9746094,0.025268555
1725722026138,2024-09-07T15:13:46.138Z,161618,0.0579834,1.0036621,-0.030517578
1725722026156,2024-09-07T15:13:46.156Z,161636,0.023620605,0.9934082,0.02722168
1725722026190,2024-09-07T15:13:46.190Z,161670,0.07318115,1.034729,-0.0037841797
1725722026242,2024-09-07T15:13:46.242Z,161722,0.017700195,1.0056152,0.029541016
1725722026286,2024-09-07T15:13:46.286Z,161766,0.08294678,1.027771,-0.022033691
1725722026327,2024-09-07T15:13:46.327Z,161807,0.018981934,1.0249023,-0.013122559
1725722026376,2024-09-07T15:13:46.376Z,161856,0.087524414,1.0617065,-0.08068848
1725722026422,2024-09-07T15:13:46.422Z,161902,0.0021972656,1.0204468,0.053222656
1725722026468,2024-09-07T15:13:46.468Z,161948,0.09667969,1.0837402,0.1159668
1725722026515,2024-09-07T15:13:46.515Z,161995,0.11804199,1.0286865,0.022399902
1725722026557,2024-09-07T15:13:46.557Z,162037,0.06890869,1.0556641,0.0053100586
1725722026580,2024-09-07T15:13:46.580Z,162060,0.04449463,1.0966187,0.035827637
1725722026600,2024-09-07T15:13:46.600Z,162080,0.07080078,1.0870972,0.020385742
1725722026641,2024-09-07T15:13:46.641Z,162121,0.0368042,1.0638428,0.0579834
1725722026693,2024-09-07T15:13:46.693Z,162173,0.044067383,1.0698853,0.04321289
1725722026738,2024-09-07T15:13:46.738Z,162218,0.04937744,1.06427,0.047973633
1725722026784,2024-09-07T15:13:46.784Z,162264,0.04296875,1.0662842,0.048583984
1725722026831,2024-09-07T15:13:46.831Z,162311,0.049072266,1.0723877,0.05206299
1725722026874,2024-09-07T15:13:46.874Z,162354,0.023986816,1.0546265,0.08154297
1725722026918,2024-09-07T15:13:46.918Z,162398,0.06304932,1.0318604,0.042175293
1725722026962,2024-09-07T15:13:46.962Z,162442,0.039489746,1.0048218,0.05090332
1725722026991,2024-09-07T15:13:46.991Z,162471,0.03729248,1.0910645,-0.050842285
1725722027011,2024-09-07T15:13:47.011Z,162491,0.023376465,1.0238037,0.052001953
1725722027049,2024-09-07T15:13:47.049Z,162529,0.04852295,1.048523,0.021240234
1725722027102,2024-09-07T15:13:47.102Z,162582,0.010620117,1.0317383,-0.039001465
1725722027144,2024-09-07T15:13:47.144Z,162624,0.050842285,0.98968506,0.028137207
1725722027191,2024-09-07T15:13:47.191Z,162671,0.02545166,0.9692993,0.0914917
1725722027235,2024-09-07T15:13:47.235Z,162715,0.046325684,1.0113525,0.045166016
1725722027281,2024-09-07T15:13:47.281Z,162761,0.053771973,1.0050049,0.05303955
1725722027324,2024-09-07T15:13:47.324Z,162804,0.035888672,0.9911499,0.07928467
1725722027367,2024-09-07T15:13:47.367Z,162847,0.064697266,1.0238647,0.04522705
1725722027389,2024-09-07T15:13:47.389Z,162869,0.041931152,0.9971924,0.10638428
1725722027410,2024-09-07T15:13:47.410Z,162890,0.061584473,1.0152588,0.051757812
1725722027450,2024-09-07T15:13:47.450Z,162930,0.0014038086,1.00531,0.0925293
1725722027504,2024-09-07T15:13:47.504Z,162984,0.046020508,1.0235596,0.07330322
1725722027550,2024-09-07T15:13:47.550Z,163030,0.055847168,1.0114746,0.05102539
1725722027594,2024-09-07T15:13:47.594Z,163074,0.06896973,0.99035645,0.052246094
1725722027638,2024-09-07T15:13:47.638Z,163118,0.04626465,0.9909668,0.10687256
1725722027685,2024-09-07T15:13:47.685Z,163165,0.04827881,1.0119629,0.13378906
1725722027731,2024-09-07T15:13:47.731Z,163211,0.08093262,1.0264893,0.11016846
1725722027775,2024-09-07T15:13:47.775Z,163255,0.08654785,1.0125122,0.092163086
1725722027818,2024-09-07T15:13:47.818Z,163298,0.08276367,0.98895264,0.06317139
1725722027841,2024-09-07T15:13:47.841Z,163321,0.084472656,0.96362305,0.08532715
1725722027859,2024-09-07T15:13:47.859Z,163339,0.08782959,0.9677124,0.08087158
1725722027903,2024-09-07T15:13:47.903Z,163383,0.069885254,0.9685669,0.088012695
1725722027955,2024-09-07T15:13:47.955Z,163435,0.048095703,0.9696655,0.107666016
1725722027998,2024-09-07T15:13:47.998Z,163478,0.04937744,1.00177,0.12640381
1725722028047,2024-09-07T15:13:48.047Z,163527,0.08111572,1.0150757,0.1352539
1725722028088,2024-09-07T15:13:48.088Z,163568,0.060668945,0.99005127,0.125
1725722028133,2024-09-07T15:13:48.133Z,163613,0.07702637,0.9779663,0.16400146
1725722028179,2024-09-07T15:13:48.179Z,163659,0.125,0.97943115,0.18151855
1725722028222,2024-09-07T15:13:48.222Z,163702,0.092285156,0.96118164,0.16949463
1725722028243,2024-09-07T15:13:48.243Z,163723,0.11450195,0.95202637,0.17565918
1725722028261,2024-09-07T15:13:48.261Z,163741,0.12530518,0.9658203,0.18701172
1725722028320,2024-09-07T15:13:48.320Z,163800,0.115112305,0.9569092,0.19659424
1725722028358,2024-09-07T15:13:48.358Z,163838,0.12097168,0.9302368,0.20452881
1725722028403,2024-09-07T15:13:48.403Z,163883,0.09893799,0.9376831,0.20959473
1725722028452,2024-09-07T15:13:48.452Z,163932,0.10028076,0.97491455,0.21697998
1725722028494,2024-09-07T15:13:48.494Z,163974,0.10662842,0.972229,0.2489624
1725722028537,2024-09-07T15:13:48.537Z,164017,0.12573242,0.9753418,0.23236084
1725722028583,2024-09-07T15:13:48.583Z,164063,0.15594482,0.94036865,0.25177002
1725722028628,2024-09-07T15:13:48.628Z,164108,0.11456299,0.9104614,0.2602539
1725722028655,2024-09-07T15:13:48.655Z,164135,0.11975098,0.9095459,0.27069092
1725722028671,2024-09-07T15:13:48.671Z,164151,0.111450195,0.91467285,0.2711792
1725722028712,2024-09-07T15:13:48.712Z,164192,0.123168945,0.92767334,0.26391602
1725722028768,2024-09-07T15:13:48.768Z,164248,0.12512207,0.92456055,0.26745605
1725722028814,2024-09-07T15:13:48.814Z,164294,0.1352539,0.9295044,0.28875732
1725722028851,2024-09-07T15:13:48.851Z,164331,0.13867188,0.94641113,0.2892456
1725722028900,2024-09-07T15:13:48.900Z,164380,0.12884521,0.9671631,0.27319336
1725722028944,2024-09-07T15:13:48.944Z,164424,0.14544678,0.9755249,0.28814697
1725722028991,2024-09-07T15:13:48.991Z,164471,0.1651001,0.95910645,0.27661133
1725722029037,2024-09-07T15:13:49.037Z,164517,0.1538086,0.9472046,0.26348877
1725722029079,2024-09-07T15:13:49.079Z,164559,0.16906738,0.9536133,0.27514648
1725722029103,2024-09-07T15:13:49.103Z,164583,0.16778564,0.9557495,0.27648926
1725722029119,2024-09-07T15:13:49.119Z,164599,0.15496826,0.9525757,0.28363037
1725722029163,2024-09-07T15:13:49.163Z,164643,0.14538574,0.94421387,0.28308105
1725722029216,2024-09-07T15:13:49.216Z,164696,0.14221191,0.94262695,0.289917
1725722029259,2024-09-07T15:13:49.259Z,164739,0.13677979,0.9550171,0.2866211
1725722029308,2024-09-07T15:13:49.308Z,164788,0.13995361,0.95599365,0.28552246
1725722029347,2024-09-07T15:13:49.347Z,164827,0.13189697,0.9532471,0.2783203
1725722029393,2024-09-07T15:13:49.393Z,164873,0.13677979,0.94989014,0.28607178
1725722029442,2024-09-07T15:13:49.442Z,164922,0.1482544,0.94836426,0.30639648
1725722029489,2024-09-07T15:13:49.489Z,164969,0.14343262,0.94989014,0.30767822
1725722029517,2024-09-07T15:13:49.517Z,164997,0.13287354,0.94610596,0.29486084
1725722029533,2024-09-07T15:13:49.533Z,165013,0.1416626,0.9525757,0.28112793
1725722029567,2024-09-07T15:13:49.567Z,165047,0.13970947,0.94921875,0.2767334
1725722029624,2024-09-07T15:13:49.624Z,165104,0.12347412,0.93725586,0.2713623
1725722029662,2024-09-07T15:13:49.662Z,165142,0.11663818,0.91986084,0.23950195
1725722029707,2024-09-07T15:13:49.707Z,165187,0.12432861,0.93481445,0.2557373
1725722029752,2024-09-07T15:13:49.752Z,165232,0.13433838,0.9645386,0.25653076
1725722029803,2024-09-07T15:13:49.803Z,165283,0.13006592,0.97406006,0.2446289
1725722029843,2024-09-07T15:13:49.843Z,165323,0.1270752,0.97961426,0.24719238
1725722029886,2024-09-07T15:13:49.886Z,165366,0.119140625,0.98339844,0.2559204
1725722029912,2024-09-07T15:13:49.912Z,165392,0.09466553,0.9846802,0.22723389
1725722029930,2024-09-07T15:13:49.930Z,165410,0.0814209,0.98236084,0.23303223
1725722029979,2024-09-07T15:13:49.979Z,165459,0.074157715,0.9694214,0.21502686
1725722030020,2024-09-07T15:13:50.020Z,165500,0.072631836,0.95617676,0.22167969
1725722030072,2024-09-07T15:13:50.072Z,165552,0.07354736,0.9520874,0.22381592
1725722030114,2024-09-07T15:13:50.114Z,165594,0.06604004,0.9547119,0.22619629
1725722030157,2024-09-07T15:13:50.157Z,165637,0.06939697,0.96954346,0.20050049
1725722030205,2024-09-07T15:13:50.205Z,165685,0.07849121,0.96209717,0.18920898
1725722030248,2024-09-07T15:13:50.248Z,165728,0.05834961,0.9433594,0.17486572
1725722030294,2024-09-07T15:13:50.294Z,165774,0.07159424,0.9578247,0.14642334
1725722030348,2024-09-07T15:13:50.348Z,165828,0.062561035,0.97454834,0.14453125
1725722030370,2024-09-07T15:13:50.370Z,165850,0.061462402,0.9840088,0.13275146
1725722030388,2024-09-07T15:13:50.388Z,165868,0.054992676,0.99749756,0.15063477
1725722030422,2024-09-07T15:13:50.422Z,165902,0.049987793,0.9961548,0.14587402
1725722030470,2024-09-07T15:13:50.470Z,165950,0.03375244,0.9758301,0.1317749
1725722030519,2024-09-07T15:13:50.519Z,165999,0.039978027,0.97650146,0.12530518
1725722030564,2024-09-07T15:13:50.564Z,166044,0.056762695,0.97454834,0.13323975
1725722030611,2024-09-07T15:13:50.611Z,166091,0.0037841797,1.0044556,0.070739746
1725722030655,2024-09-07T15:13:50.655Z,166135,0.015930176,1.0015869,0.06347656
1725722030698,2024-09-07T15:13:50.698Z,166178,0.023925781,0.9879761,0.0869751
1725722030741,2024-09-07T15:13:50.741Z,166221,0.047424316,0.9985962,0.10321045
1725722030770,2024-09-07T15:13:50.770Z,166250,0.02722168,1.0005493,0.061645508
1725722030791,2024-09-07T15:13:50.791Z,166271,0.032836914,1.0098877,0.053344727
1725722030826,2024-09-07T15:13:50.826Z,166306,0.0390625,1.0236816,0.04473877
1725722030930,2024-09-07T15:13:50.930Z,166410,0.013427734,1.012146,0.016540527
1725722030960,2024-09-07T15:13:50.960Z,166440,0.024047852,0.99554443,0.011474609
1725722030980,2024-09-07T15:13:50.980Z,166460,0.027404785,0.9951782,0.043273926
1725722031005,2024-09-07T15:13:51.005Z,166485,0.04510498,1.0076904,0.04449463
1725722031057,2024-09-07T15:13:51.057Z,166537,0.02911377,1.0195923,0.053100586
1725722031106,2024-09-07T15:13:51.106Z,166586,-0.0051879883,0.99871826,0.043151855
1725722031163,2024-09-07T15:13:51.163Z,166643,0.01171875,1.0285034,0.02557373
1725722031187,2024-09-07T15:13:51.187Z,166667,0.006713867,1.0131836,0.02154541
1725722031204,2024-09-07T15:13:51.204Z,166684,0.06750488,1.0718994,-0.015625
1725722031230,2024-09-07T15:13:51.230Z,166710,-0.01940918,1.0296631,0.01550293
1725722031284,2024-09-07T15:13:51.284Z,166764,0.05987549,1.0206909,-0.024719238
1725722031328,2024-09-07T15:13:51.328Z,166808,0.022399902,1.0083008,-9.765625E-4
1725722031374,2024-09-07T15:13:51.374Z,166854,0.036865234,1.0480347,0.091552734
1725722031419,2024-09-07T15:13:51.419Z,166899,0.073913574,1.1203613,0.14208984
1725722031463,2024-09-07T15:13:51.463Z,166943,0.04840088,0.94537354,0.014099121
1725722031512,2024-09-07T15:13:51.512Z,166992,0.04522705,0.93359375,6.1035156E-4
1725722031555,2024-09-07T15:13:51.555Z,167035,0.01776123,0.9838867,0.06817627
1725722031585,2024-09-07T15:13:51.585Z,167065,0.066345215,0.98272705,0.02947998
1725722031605,2024-09-07T15:13:51.605Z,167085,0.039489746,0.9361572,0.025024414
1725722031637,2024-09-07T15:13:51.637Z,167117,0.04107666,1.0074463,-0.008850098
1725722031689,2024-09-07T15:13:51.689Z,167169,0.011291504,1.0303345,0.010620117
1725722031733,2024-09-07T15:13:51.733Z,167213,0.020202637,1.0959473,-0.06512451
1725722031778,2024-09-07T15:13:51.778Z,167258,0.06750488,1.0596313,0.032348633
1725722031823,2024-09-07T15:13:51.823Z,167303,0.0869751,1.0310669,0.048217773
1725722031871,2024-09-07T15:13:51.871Z,167351,0.021118164,1.0031738,0.030090332
1725722031912,2024-09-07T15:13:51.912Z,167392,0.05621338,1.0005493,-0.020629883
1725722031958,2024-09-07T15:13:51.958Z,167438,0.022705078,0.9866333,0.024719238
1725722032003,2024-09-07T15:13:52.003Z,167483,0.05090332,1.0401001,0.010192871
1725722032027,2024-09-07T15:13:52.027Z,167507,0.013366699,0.9962158,0.015991211
1725722032043,2024-09-07T15:13:52.043Z,167523,0.061706543,0.9962158,-0.044921875
1725722032090,2024-09-07T15:13:52.090Z,167570,0.008666992,1.0118408,0.024291992
1725722032141,2024-09-07T15:13:52.141Z,167621,0.08996582,1.072876,0.013427734
1725722032182,2024-09-07T15:13:52.182Z,167662,0.049560547,1.0446777,0.00970459
1725722032227,2024-09-07T15:13:52.227Z,167707,0.016906738,1.0391235,-0.044799805
1725722032274,2024-09-07T15:13:52.274Z,167754,0.043762207,1.0570068,0.025634766
1725722032318,2024-09-07T15:13:52.318Z,167798,0.06317139,1.0866089,0.03942871
1725722032363,2024-09-07T15:13:52.363Z,167843,0.004333496,1.0413818,0.028503418
1725722032415,2024-09-07T15:13:52.415Z,167895,0.0592041,1.0621948,-0.023010254
1725722032438,2024-09-07T15:13:52.438Z,167918,0.029296875,1.0484619,0.010986328
1725722032456,2024-09-07T15:13:52.456Z,167936,0.025878906,1.090271,-0.0020751953
1725722032491,2024-09-07T15:13:52.491Z,167971,0.0072021484,1.0733643,0.05291748
1725722032541,2024-09-07T15:13:52.541Z,168021,0.028015137,1.0752563,0.046325684
1725722032591,2024-09-07T15:13:52.591Z,168071,0.016174316,1.0783081,0.036499023
1725722032639,2024-09-07T15:13:52.639Z,168119,0.026550293,1.0609741,-0.026245117
1725722032678,2024-09-07T15:13:52.678Z,168158,0.039123535,1.0457153,-0.008911133
1725722032730,2024-09-07T15:13:52.730Z,168210,0.02532959,1.0648193,-0.056152344
1725722032767,2024-09-07T15:13:52.767Z,168247,0.004211426,0.9871826,0.080322266
1725722032812,2024-09-07T15:13:52.812Z,168292,0.06542969,1.0314331,0.06262207
1725722032834,2024-09-07T15:13:52.834Z,168314,0.016052246,1.06073,-0.040161133
1725722032852,2024-09-07T15:13:52.852Z,168332,0.016418457,0.96777344,0.0064697266
1725722032902,2024-09-07T15:13:52.902Z,168382,0.051574707,1.0040894,-0.031555176
1725722032949,2024-09-07T15:13:52.949Z,168429,0.01763916,0.9812012,0.031555176
1725722032994,2024-09-07T15:13:52.994Z,168474,0.054992676,1.0119019,-0.015808105
1725722033037,2024-09-07T15:13:53.037Z,168517,0.022033691,1.0093994,-0.005126953
1725722033083,2024-09-07T15:13:53.083Z,168563,0.059265137,1.0178833,-0.026733398
1725722033176,2024-09-07T15:13:53.176Z,168656,0.026245117,1.0213623,0.07702637
1725722033204,2024-09-07T15:13:53.204Z,168684,0.042297363,1.0316162,0.101501465
1725722033223,2024-09-07T15:13:53.223Z,168703,0.037475586,1.0238037,0.07562256
1725722033255,2024-09-07T15:13:53.255Z,168735,0.034606934,0.99884033,0.07183838
1725722033268,2024-09-07T15:13:53.268Z,168748,0.055236816,1.0093994,0.04168701
1725722033301,2024-09-07T15:13:53.301Z,168781,0.015625,0.97717285,0.068237305
1725722033354,2024-09-07T15:13:53.354Z,168834,0.08099365,1.0197144,0.030151367
1725722033399,2024-09-07T15:13:53.399Z,168879,0.020324707,0.9694824,0.09613037
1725722033443,2024-09-07T15:13:53.443Z,168923,0.06768799,1.0033569,0.06323242
1725722033490,2024-09-07T15:13:53.490Z,168970,0.05633545,1.0040283,0.11669922
1725722033532,2024-09-07T15:13:53.532Z,169012,0.043701172,1.0145874,0.09313965
1725722033578,2024-09-07T15:13:53.578Z,169058,0.04724121,1.0447998,0.091308594
1725722033624,2024-09-07T15:13:53.624Z,169104,0.034057617,1.0369873,0.097839355
1725722033667,2024-09-07T15:13:53.667Z,169147,0.03265381,1.0182495,0.057006836
1725722033690,2024-09-07T15:13:53.690Z,169170,0.04473877,0.9758301,0.12365723
1725722033710,2024-09-07T15:13:53.710Z,169190,0.06903076,0.9489136,0.11047363
1725722033755,2024-09-07T15:13:53.755Z,169235,0.050109863,0.9639282,0.09295654
1725722033799,2024-09-07T15:13:53.799Z,169279,0.05230713,0.97875977,0.11743164
1725722033852,2024-09-07T15:13:53.852Z,169332,0.081726074,0.9741821,0.13317871
1725722033892,2024-09-07T15:13:53.892Z,169372,0.07745361,0.944397,0.16320801
1725722033943,2024-09-07T15:13:53.943Z,169423,0.07067871,0.9359131,0.17803955
1725722033986,2024-09-07T15:13:53.986Z,169466,0.06793213,0.9560547,0.16949463
1725722034031,2024-09-07T15:13:54.031Z,169511,0.08050537,0.9744873,0.1694336
1725722034072,2024-09-07T15:13:54.072Z,169552,0.049621582,0.9755249,0.17791748
1725722034100,2024-09-07T15:13:54.100Z,169580,0.05267334,0.98968506,0.15350342
1725722034124,2024-09-07T15:13:54.124Z,169604,0.0690918,0.99853516,0.15789795
1725722034156,2024-09-07T15:13:54.156Z,169636,0.068725586,0.9859619,0.199646
1725722034209,2024-09-07T15:13:54.209Z,169689,0.09240723,0.96429443,0.20166016
1725722034253,2024-09-07T15:13:54.253Z,169733,0.06488037,0.94329834,0.22595215
1725722034300,2024-09-07T15:13:54.300Z,169780,0.070007324,0.9649658,0.21057129
1725722034353,2024-09-07T15:13:54.353Z,169833,0.10290527,0.953125,0.2253418
1725722034391,2024-09-07T15:13:54.391Z,169871,0.09820557,0.9164429,0.24395752
1725722034435,2024-09-07T15:13:54.435Z,169915,0.1104126,0.89837646,0.23052979
1725722034478,2024-09-07T15:13:54.478Z,169958,0.121154785,0.8869629,0.23504639
1725722034529,2024-09-07T15:13:54.529Z,170009,0.11328125,0.9158325,0.24316406
1725722034558,2024-09-07T15:13:54.558Z,170038,0.06890869,0.97314453,0.21636963
1725722034584,2024-09-07T15:13:54.584Z,170064,0.1161499,0.9958496,0.24609375
1725722034622,2024-09-07T15:13:54.622Z,170102,0.10797119,1.0010986,0.24542236
1725722034656,2024-09-07T15:13:54.656Z,170136,0.09716797,1.0020752,0.22827148
1725722034704,2024-09-07T15:13:54.704Z,170184,0.090270996,0.98217773,0.2230835
1725722034751,2024-09-07T15:13:54.751Z,170231,0.09075928,0.9682007,0.21502686
1725722034798,2024-09-07T15:13:54.798Z,170278,0.101623535,0.96813965,0.22039795
1725722034836,2024-09-07T15:13:54.836Z,170316,0.07543945,0.9694824,0.23297119
1725722034882,2024-09-07T15:13:54.882Z,170362,0.0947876,0.97924805,0.25476074
1725722034930,2024-09-07T15:13:54.930Z,170410,0.06707764,0.9790039,0.24304199
1725722034959,2024-09-07T15:13:54.959Z,170439,0.088256836,0.9760742,0.22619629
1725722034979,2024-09-07T15:13:54.979Z,170459,0.11279297,0.9692383,0.20898438
1725722035012,2024-09-07T15:13:55.012Z,170492,0.11834717,0.96710205,0.19189453
1725722035063,2024-09-07T15:13:55.063Z,170543,0.117492676,0.9828491,0.20465088
1725722035109,2024-09-07T15:13:55.109Z,170589,0.123291016,0.99157715,0.22558594
1725722035155,2024-09-07T15:13:55.155Z,170635,0.109680176,0.98431396,0.23980713
1725722035197,2024-09-07T15:13:55.197Z,170677,0.08288574,0.9800415,0.21960449
1725722035246,2024-09-07T15:13:55.246Z,170726,0.08154297,0.9602051,0.20385742
1725722035287,2024-09-07T15:13:55.287Z,170767,0.09442139,0.9609375,0.2064209
1725722035335,2024-09-07T15:13:55.335Z,170815,0.08258057,0.9609375,0.18103027
1725722035364,2024-09-07T15:13:55.364Z,170844,0.080078125,0.96569824,0.16107178
1725722035388,2024-09-07T15:13:55.388Z,170868,0.06652832,0.9788208,0.15734863
1725722035415,2024-09-07T15:13:55.415Z,170895,0.066467285,0.97369385,0.17034912
1725722035464,2024-09-07T15:13:55.464Z,170944,0.061767578,0.97265625,0.15667725
1725722035509,2024-09-07T15:13:55.509Z,170989,0.046203613,0.9784546,0.1515503
1725722035556,2024-09-07T15:13:55.556Z,171036,0.070129395,0.98443604,0.15014648
1725722035602,2024-09-07T15:13:55.602Z,171082,0.054870605,0.9807129,0.13983154
1725722035647,2024-09-07T15:13:55.647Z,171127,0.055603027,0.9692993,0.14434814
1725722035694,2024-09-07T15:13:55.694Z,171174,0.057434082,0.95635986,0.12097168
1725722035739,2024-09-07T15:13:55.739Z,171219,0.06262207,0.95288086,0.11437988
1725722035782,2024-09-07T15:13:55.782Z,171262,0.056030273,0.9614258,0.0871582
1725722035807,2024-09-07T15:13:55.807Z,171287,0.036193848,0.98065186,0.082336426
1725722035822,2024-09-07T15:13:55.822Z,171302,0.048950195,0.9979248,0.085876465
1725722035870,2024-09-07T15:13:55.870Z,171350,0.03100586,0.9921875,0.083496094
1725722035918,2024-09-07T15:13:55.918Z,171398,0.022216797,0.99957275,0.06958008
1725722035964,2024-09-07T15:13:55.964Z,171444,0.0635376,1.0187378,0.055419922
1725722036008,2024-09-07T15:13:56.008Z,171488,0.072753906,0.9924927,0.07965088
1725722036057,2024-09-07T15:13:56.057Z,171537,0.027404785,0.9882202,0.051330566
1725722036102,2024-09-07T15:13:56.102Z,171582,0.03479004,0.9741821,0.0061035156
1725722036142,2024-09-07T15:13:56.142Z,171622,0.041870117,0.98187256,0.026062012
1725722036189,2024-09-07T15:13:56.189Z,171669,0.03955078,0.9807739,0.009399414
1725722036216,2024-09-07T15:13:56.216Z,171696,0.044433594,0.9928589,-6.713867E-4
1725722036237,2024-09-07T15:13:56.237Z,171717,-0.0033569336,0.9920654,0.023254395
1725722036270,2024-09-07T15:13:56.270Z,171750,0.039794922,1.0091553,-0.04107666
1725722036325,2024-09-07T15:13:56.325Z,171805,0.0071411133,1.0065308,0.010253906
1725722036367,2024-09-07T15:13:56.367Z,171847,0.0345459,1.0062866,-0.025817871
1725722036415,2024-09-07T15:13:56.415Z,171895,0.038635254,1.0202637,0.0036010742
1725722036458,2024-09-07T15:13:56.458Z,171938,0.056518555,1.0393066,0.0072631836
1725722036503,2024-09-07T15:13:56.503Z,171983,0.044677734,1.0928345,0.016418457
1725722036548,2024-09-07T15:13:56.548Z,172028,0.05718994,1.0929565,-0.010437012
1725722036595,2024-09-07T15:13:56.595Z,172075,0.0725708,0.973938,-0.038024902
1725722036627,2024-09-07T15:13:56.627Z,172107,0.03729248,0.94866943,0.012634277
1725722036645,2024-09-07T15:13:56.645Z,172125,0.04309082,1.0395508,-0.07183838
1725722036675,2024-09-07T15:13:56.675Z,172155,0.0072631836,1.0181274,0.008605957
1725722036729,2024-09-07T15:13:56.729Z,172209,0.04522705,0.9840088,-0.08496094
1725722036771,2024-09-07T15:13:56.771Z,172251,0.029663086,0.9423828,-0.018249512
1725722036818,2024-09-07T15:13:56.818Z,172298,-0.0036010742,1.0343628,-0.078430176
1725722036863,2024-09-07T15:13:56.863Z,172343,0.0053710938,1.0681763,-0.046203613
1725722036906,2024-09-07T15:13:56.906Z,172386,0.040649414,1.0587158,-0.03656006
1725722036952,2024-09-07T15:13:56.952Z,172432,-0.016601562,0.99884033,-0.026306152
1725722036999,2024-09-07T15:13:56.999Z,172479,0.04272461,1.0257568,-0.06744385
1725722037044,2024-09-07T15:13:57.044Z,172524,0.011962891,0.99298096,-0.041625977
1725722037071,2024-09-07T15:13:57.071Z,172551,0.034118652,1.0339355,-0.07397461
1725722037093,2024-09-07T15:13:57.093Z,172573,-0.0041503906,1.0302124,-0.042114258
1725722037126,2024-09-07T15:13:57.126Z,172606,0.056152344,1.043396,-0.090148926
1725722037177,2024-09-07T15:13:57.177Z,172657,0.08343506,1.0355835,-0.018493652
1725722037224,2024-09-07T15:13:57.224Z,172704,0.042236328,1.0219727,-0.013977051
1725722037267,2024-09-07T15:13:57.267Z,172747,0.019165039,1.015686,-0.09283447
1725722037313,2024-09-07T15:13:57.313Z,172793,0.0119018555,1.0211792,-0.06274414
1725722037360,2024-09-07T15:13:57.360Z,172840,0.055725098,1.0664062,-0.025146484
1725722037401,2024-09-07T15:13:57.401Z,172881,-0.0056152344,1.0881958,0.008117676
1725722037450,2024-09-07T15:13:57.450Z,172930,0.028198242,1.1029663,-0.009033203
1725722037478,2024-09-07T15:13:57.478Z,172958,-0.0026245117,1.1069336,-0.04949951
1725722037495,2024-09-07T15:13:57.495Z,172975,0.0107421875,1.0969849,-0.051086426
1725722037529,2024-09-07T15:13:57.529Z,173009,0.0029296875,1.076294,-0.0068359375
1725722037584,2024-09-07T15:13:57.584Z,173064,0.030578613,1.0751953,-0.013671875
1725722037631,2024-09-07T15:13:57.631Z,173111,-0.0078125,1.0629883,0.012451172
1725722037674,2024-09-07T15:13:57.674Z,173154,0.04425049,1.0805054,-0.046813965
1725722037719,2024-09-07T15:13:57.719Z,173199,0.010803223,1.043335,-0.048828125
1725722037766,2024-09-07T15:13:57.766Z,173246,0.039855957,1.0258179,-0.034606934
1725722037808,2024-09-07T15:13:57.808Z,173288,0.015930176,1.0325317,-0.0390625
1725722037855,2024-09-07T15:13:57.855Z,173335,0.030090332,0.99523926,0.006958008
1725722037883,2024-09-07T15:13:57.883Z,173363,0.036621094,1.0314331,-0.051330566
1725722037906,2024-09-07T15:13:57.906Z,173386,-0.003112793,0.9897461,-0.022827148
1725722037934,2024-09-07T15:13:57.934Z,173414,0.04296875,1.0223999,-0.05596924
1725722037987,2024-09-07T15:13:57.987Z,173467,0.002746582,1.0129395,-0.044311523
1725722038028,2024-09-07T15:13:58.028Z,173508,0.028747559,1.0172119,-0.04840088
1725722038073,2024-09-07T15:13:58.073Z,173553,0.014099121,1.0127563,-0.03479004
1725722038121,2024-09-07T15:13:58.121Z,173601,0.02355957,1.019104,-0.023742676
1725722038162,2024-09-07T15:13:58.162Z,173642,0.026367188,1.0253296,-0.008483887
1725722038210,2024-09-07T15:13:58.210Z,173690,0.012268066,1.0061646,0.010009766
1725722038254,2024-09-07T15:13:58.254Z,173734,0.042419434,1.0095825,0.008422852
1725722038347,2024-09-07T15:13:58.347Z,173827,0.015930176,1.0031738,0.028808594
1725722038374,2024-09-07T15:13:58.374Z,173854,0.018249512,1.0097656,0.032409668
1725722038393,2024-09-07T15:13:58.393Z,173873,0.043945312,1.0291138,0.027282715
1725722038403,2024-09-07T15:13:58.403Z,173883,0.016174316,1.0263062,0.027282715
1725722038431,2024-09-07T15:13:58.431Z,173911,0.030944824,0.9921875,0.021911621
1725722038476,2024-09-07T15:13:58.476Z,173956,0.05670166,0.9837036,0.015197754
1725722038525,2024-09-07T15:13:58.525Z,174005,0.034484863,0.99835205,0.040527344
1725722038569,2024-09-07T15:13:58.569Z,174049,0.06072998,1.0278931,0.0014648438
1725722038615,2024-09-07T15:13:58.615Z,174095,0.08251953,1.0184326,0.0048828125
1725722038659,2024-09-07T15:13:58.659Z,174139,0.06958008,0.98394775,0.05633545
1725722038705,2024-09-07T15:13:58.705Z,174185,0.031921387,0.9863281,0.06628418
1725722038728,2024-09-07T15:13:58.728Z,174208,0.013000488,0.9968262,0.051635742
1725722038768,2024-09-07T15:13:58.768Z,174248,0.038330078,0.97662354,0.083496094
1725722038802,2024-09-07T15:13:58.802Z,174282,0.0256958,0.96655273,0.09100342
1725722038844,2024-09-07T15:13:58.844Z,174324,0.024353027,0.96325684,0.10491943
1725722038892,2024-09-07T15:13:58.892Z,174372,0.042541504,0.9818115,0.065979004
1725722038936,2024-09-07T15:13:58.936Z,174416,0.07116699,0.98083496,0.08282471
1725722038984,2024-09-07T15:13:58.984Z,174464,0.076416016,1.0144043,0.07092285
1725722039025,2024-09-07T15:13:59.025Z,174505,0.068603516,0.991272,0.085998535
1725722039070,2024-09-07T15:13:59.070Z,174550,0.10192871,0.9975586,0.050048828
1725722039113,2024-09-07T15:13:59.113Z,174593,0.0725708,0.96533203,0.12261963
1725722039139,2024-09-07T15:13:59.139Z,174619,0.09063721,0.9442749,0.14520264
1725722039157,2024-09-07T15:13:59.157Z,174637,0.07116699,0.9591675,0.17810059
1725722039196,2024-09-07T15:13:59.196Z,174676,0.07965088,0.98083496,0.2197876
1725722039243,2024-09-07T15:13:59.243Z,174723,0.06640625,0.9710083,0.22509766
1725722039297,2024-09-07T15:13:59.297Z,174777,0.09509277,1.0042725,0.19781494
1725722039338,2024-09-07T15:13:59.338Z,174818,0.06036377,1.0202026,0.1652832
1725722039384,2024-09-07T15:13:59.384Z,174864,0.11065674,1.0147095,0.14819336
1725722039429,2024-09-07T15:13:59.429Z,174909,0.13848877,0.95373535,0.14727783
1725722039473,2024-09-07T15:13:59.473Z,174953,0.1449585,0.9434204,0.15423584
1725722039517,2024-09-07T15:13:59.517Z,174997,0.117248535,0.9226074,0.17285156
1725722039562,2024-09-07T15:13:59.562Z,175042,0.11291504,0.9304199,0.19628906
1725722039587,2024-09-07T15:13:59.587Z,175067,0.1026001,0.9512329,0.18157959
1725722039616,2024-09-07T15:13:59.616Z,175096,0.12701416,0.946228,0.20385742
1725722039650,2024-09-07T15:13:59.650Z,175130,0.14202881,0.9447632,0.22625732
1725722039699,2024-09-07T15:13:59.699Z,175179,0.10986328,0.9723511,0.1930542
1725722039744,2024-09-07T15:13:59.744Z,175224,0.12591553,1.0023804,0.17468262
1725722039792,2024-09-07T15:13:59.792Z,175272,0.16210938,0.9874878,0.2154541
1725722039832,2024-09-07T15:13:59.832Z,175312,0.1593628,0.9622803,0.19476318
1725722039877,2024-09-07T15:13:59.877Z,175357,0.15948486,0.9528198,0.21099854
1725722039923,2024-09-07T15:13:59.923Z,175403,0.13964844,0.96209717,0.23895264
1725722039969,2024-09-07T15:13:59.969Z,175449,0.10229492,0.9769287,0.21051025
1725722039995,2024-09-07T15:13:59.995Z,175475,0.10839844,0.99365234,0.20214844
1725722040012,2024-09-07T15:14:00.012Z,175492,0.13232422,0.9968872,0.22491455
1725722040050,2024-09-07T15:14:00.050Z,175530,0.12652588,0.993042,0.19177246
1725722040102,2024-09-07T15:14:00.102Z,175582,0.1204834,0.98028564,0.18115234
1725722040148,2024-09-07T15:14:00.148Z,175628,0.12615967,0.9737549,0.20281982
1725722040194,2024-09-07T15:14:00.194Z,175674,0.13708496,0.9812012,0.20227051
1725722040238,2024-09-07T15:14:00.238Z,175718,0.1104126,0.97991943,0.19641113
1725722040285,2024-09-07T15:14:00.285Z,175765,0.11230469,0.9717407,0.1984253
1725722040331,2024-09-07T15:14:00.331Z,175811,0.109802246,0.95758057,0.19207764
1725722040376,2024-09-07T15:14:00.376Z,175856,0.12591553,0.9644165,0.20819092
1725722040406,2024-09-07T15:14:00.406Z,175886,0.1081543,0.9699707,0.18969727
1725722040428,2024-09-07T15:14:00.428Z,175908,0.107055664,0.967041,0.17736816
1725722040455,2024-09-07T15:14:00.455Z,175935,0.108947754,0.958313,0.19006348
1725722040509,2024-09-07T15:14:00.509Z,175989,0.093566895,0.9559326,0.18951416
1725722040552,2024-09-07T15:14:00.552Z,176032,0.093444824,0.9851074,0.18084717
1725722040645,2024-09-07T15:14:00.645Z,176125,0.0826416,0.9944458,0.16766357
1725722040673,2024-09-07T15:14:00.673Z,176153,0.08319092,0.97021484,0.15637207
1725722040691,2024-09-07T15:14:00.691Z,176171,0.06866455,0.95965576,0.13720703
1725722040724,2024-09-07T15:14:00.724Z,176204,0.079833984,0.96173096,0.12677002
1725722040777,2024-09-07T15:14:00.777Z,176257,0.0947876,0.96520996,0.16143799
1725722040826,2024-09-07T15:14:00.826Z,176306,0.07672119,0.9998779,0.15924072
1725722040851,2024-09-07T15:14:00.851Z,176331,0.064208984,1.0204468,0.11419678
1725722040871,2024-09-07T15:14:00.871Z,176351,0.06573486,1.0046387,0.09790039
1725722040905,2024-09-07T15:14:00.905Z,176385,0.06768799,0.97906494,0.10107422
1725722040960,2024-09-07T15:14:00.960Z,176440,0.05596924,0.96777344,0.09063721
1725722041005,2024-09-07T15:14:01.005Z,176485,0.04437256,0.9841919,0.06896973
1725722041050,2024-09-07T15:14:01.050Z,176530,0.05407715,0.9918213,0.084106445
1725722041092,2024-09-07T15:14:01.092Z,176572,0.05328369,1.0166016,0.07849121
1725722041140,2024-09-07T15:14:01.140Z,176620,0.029785156,1.0136719,0.06591797
1725722041183,2024-09-07T15:14:01.183Z,176663,0.0637207,1.0152588,0.05529785
1725722041227,2024-09-07T15:14:01.227Z,176707,0.05718994,1.0084229,0.07836914
1725722041252,2024-09-07T15:14:01.252Z,176732,0.049316406,0.99786377,0.048706055
1725722041274,2024-09-07T15:14:01.274Z,176754,0.032409668,0.98999023,0.039367676
1725722041311,2024-09-07T15:14:01.311Z,176791,0.008300781,0.98394775,0.016174316
1725722041364,2024-09-07T15:14:01.364Z,176844,0.077819824,0.9984741,0.019592285
1725722041412,2024-09-07T15:14:01.412Z,176892,0.039733887,0.96990967,7.9345703E-4
1725722041453,2024-09-07T15:14:01.453Z,176933,-0.0056762695,0.96655273,-7.324219E-4
1725722041495,2024-09-07T15:14:01.495Z,176975,0.051635742,0.97161865,0.0049438477
1725722041541,2024-09-07T15:14:01.541Z,177021,0.010131836,0.9994507,-0.01776123
1725722041591,2024-09-07T15:14:01.591Z,177071,0.013183594,1.0167847,-0.018188477
1725722041633,2024-09-07T15:14:01.633Z,177113,0.053771973,1.0314941,-0.01361084
1725722041660,2024-09-07T15:14:01.660Z,177140,0.027526855,1.0162354,0.0067749023
1725722041677,2024-09-07T15:14:01.677Z,177157,0.09246826,1.0594482,-0.05645752
1725722041717,2024-09-07T15:14:01.717Z,177197,0.015808105,1.0100098,-0.0032348633
1725722041767,2024-09-07T15:14:01.767Z,177247,0.08532715,1.0219116,-0.055419922
1725722041814,2024-09-07T15:14:01.814Z,177294,0.033935547,0.9527588,-0.0033569336
1725722041858,2024-09-07T15:14:01.858Z,177338,0.08496094,0.98724365,-0.05895996
1725722041904,2024-09-07T15:14:01.904Z,177384,0.020263672,1.0169678,-0.0357666
1725722041945,2024-09-07T15:14:01.945Z,177425,0.047607422,1.0524292,-0.058776855
1725722041991,2024-09-07T15:14:01.991Z,177471,0.0491333,1.0389404,-0.04321289
1725722042037,2024-09-07T15:14:02.037Z,177517,0.06726074,1.0150757,-0.048034668
1725722042083,2024-09-07T15:14:02.083Z,177563,0.009216309,0.9996338,-0.10101318
1725722042110,2024-09-07T15:14:02.110Z,177590,0.048339844,1.0164185,-0.10650635
1725722042130,2024-09-07T15:14:02.130Z,177610,-0.017333984,1.0093384,-0.10461426
1725722042166,2024-09-07T15:14:02.166Z,177646,0.011047363,1.0031128,-0.10272217
1725722042219,2024-09-07T15:14:02.219Z,177699,0.022644043,1.0012817,-0.06121826
1725722042262,2024-09-07T15:14:02.262Z,177742,0.040100098,1.019165,-0.028747559
1725722042307,2024-09-07T15:14:02.307Z,177787,0.024719238,0.97406006,-0.044555664
1725722042352,2024-09-07T15:14:02.352Z,177832,0.041137695,1.0021973,-0.10089111
1725722042397,2024-09-07T15:14:02.397Z,177877,0.003112793,1.0185547,-0.11035156
1725722042443,2024-09-07T15:14:02.443Z,177923,0.032165527,1.0327148,-0.09240723
1725722042487,2024-09-07T15:14:02.487Z,177967,0.07421875,1.0338745,-0.07611084
1725722042510,2024-09-07T15:14:02.510Z,177990,0.07281494,1.0384521,-0.04156494
1725722042527,2024-09-07T15:14:02.527Z,178007,0.060058594,1.0101929,-0.082092285
1725722042574,2024-09-07T15:14:02.574Z,178054,0.04675293,1.0062866,-0.07989502
1725722042621,2024-09-07T15:14:02.621Z,178101,0.035583496,1.0512085,-0.12426758
1725722042664,2024-09-07T15:14:02.664Z,178144,0.028869629,1.0371094,-0.09753418
1725722042708,2024-09-07T15:14:02.708Z,178188,0.03930664,1.0565796,-0.1373291
1725722042760,2024-09-07T15:14:02.760Z,178240,-0.012878418,1.024292,-0.04168701
1725722042803,2024-09-07T15:14:02.803Z,178283,0.050598145,1.1017456,-0.07525635
1725722042850,2024-09-07T15:14:02.850Z,178330,0.018737793,1.1026001,-0.110961914
1725722042897,2024-09-07T15:14:02.897Z,178377,0.020263672,1.0789795,-0.10650635
1725722042923,2024-09-07T15:14:02.923Z,178403,0.024169922,1.0907593,-0.055847168
1725722042940,2024-09-07T15:14:02.940Z,178420,-0.0053100586,1.097168,-0.06719971
1725722042975,2024-09-07T15:14:02.975Z,178455,-0.05126953,1.0999146,-0.034973145
1725722043028,2024-09-07T15:14:03.028Z,178508,0.061584473,1.1027832,-0.04260254
1725722043075,2024-09-07T15:14:03.075Z,178555,0.023620605,1.0576172,-0.08129883
1725722043116,2024-09-07T15:14:03.116Z,178596,0.021728516,1.0428467,-0.07122803
1725722043163,2024-09-07T15:14:03.163Z,178643,0.034729004,1.0914307,-0.072265625
1725722043207,2024-09-07T15:14:03.207Z,178687,0.01776123,1.0682983,-0.14923096
1725722043253,2024-09-07T15:14:03.253Z,178733,0.013183594,1.0131226,-0.13397217
1725722043299,2024-09-07T15:14:03.299Z,178779,0.009887695,0.9941406,-0.036132812
1725722043343,2024-09-07T15:14:03.343Z,178823,0.043945312,1.029541,-0.09710693
1725722043368,2024-09-07T15:14:03.368Z,178848,0.007751465,0.9971924,-0.101623535
1725722043387,2024-09-07T15:14:03.387Z,178867,0.0134887695,1.0064087,-0.13378906
1725722043432,2024-09-07T15:14:03.432Z,178912,0.024414062,0.9805298,-0.07489014
1725722043480,2024-09-07T15:14:03.480Z,178960,0.031677246,0.9829712,-0.08654785
1725722043522,2024-09-07T15:14:03.522Z,179002,0.043640137,0.9885254,-0.083618164
1725722043565,2024-09-07T15:14:03.565Z,179045,0.032714844,1.0014038,-0.07763672
1725722043614,2024-09-07T15:14:03.614Z,179094,0.07495117,1.0119629,-0.053771973
1725722043658,2024-09-07T15:14:03.658Z,179138,0.043518066,0.9984741,-0.056518555
1725722043703,2024-09-07T15:14:03.703Z,179183,0.042114258,1.0076294,-0.054260254
1725722043749,2024-09-07T15:14:03.749Z,179229,0.046203613,1.0081177,-0.02557373
1725722043776,2024-09-07T15:14:03.776Z,179256,0.042114258,1.0083008,-0.035827637
1725722043795,2024-09-07T15:14:03.795Z,179275,0.061767578,1.0079956,-0.05670166
1725722043838,2024-09-07T15:14:03.838Z,179318,0.025390625,0.9968872,0.024291992
1725722043883,2024-09-07T15:14:03.883Z,179363,0.061157227,1.0380249,0.011047363
1725722043928,2024-09-07T15:14:03.928Z,179408,0.08807373,1.0273438,0.0073242188
1725722043973,2024-09-07T15:14:03.973Z,179453,0.10015869,1.0313721,-0.022094727
1725722044018,2024-09-07T15:14:04.018Z,179498,0.07196045,0.98321533,0.052490234
1725722044065,2024-09-07T15:14:04.065Z,179545,0.13153076,0.9755249,0.02166748
1725722044108,2024-09-07T15:14:04.108Z,179588,0.08746338,0.96984863,0.029174805
1725722044152,2024-09-07T15:14:04.152Z,179632,0.008666992,0.9597168,0.05657959
1725722044180,2024-09-07T15:14:04.180Z,179660,0.079833984,1.0147095,0.004333496
1725722044199,2024-09-07T15:14:04.199Z,179679,0.072509766,0.9597168,0.08557129
1725722044240,2024-09-07T15:14:04.240Z,179720,0.066589355,0.9906616,-0.0020751953
1725722044286,2024-09-07T15:14:04.286Z,179766,0.04345703,0.9874878,0.07067871
1725722044333,2024-09-07T15:14:04.333Z,179813,0.10412598,0.9996948,0.065979004
1725722044377,2024-09-07T15:14:04.377Z,179857,0.121154785,0.9700928,0.08758545
1725722044420,2024-09-07T15:14:04.420Z,179900,0.10534668,0.94976807,0.12854004
1725722044465,2024-09-07T15:14:04.465Z,179945,0.12243652,0.96051025,0.1538086
1725722044514,2024-09-07T15:14:04.514Z,179994,0.099365234,0.9640503,0.2420044
1725722044558,2024-09-07T15:14:04.558Z,180038,0.14025879,0.9688721,0.19494629
1725722044607,2024-09-07T15:14:04.607Z,180087,0.099365234,0.982605,0.18585205
1725722044638,2024-09-07T15:14:04.638Z,180118,0.105407715,0.96221924,0.20172119
1725722044660,2024-09-07T15:14:04.660Z,180140,0.08874512,0.93670654,0.18048096
1725722044689,2024-09-07T15:14:04.689Z,180169,0.076293945,0.9213867,0.21960449
1725722044732,2024-09-07T15:14:04.732Z,180212,0.0914917,0.9090576,0.27075195
1725722044786,2024-09-07T15:14:04.786Z,180266,0.13061523,0.92858887,0.2680664
1725722044831,2024-09-07T15:14:04.831Z,180311,0.15576172,0.93444824,0.2677002
1725722044874,2024-09-07T15:14:04.874Z,180354,0.16448975,0.95996094,0.17730713
1725722044920,2024-09-07T15:14:04.920Z,180400,0.19384766,0.94451904,0.20715332
1725722044967,2024-09-07T15:14:04.967Z,180447,0.21539307,0.9467163,0.21582031
1725722045004,2024-09-07T15:14:05.004Z,180484,0.18878174,0.9472046,0.23132324
1725722045026,2024-09-07T15:14:05.026Z,180506,0.20166016,0.9375,0.2965088
1725722045047,2024-09-07T15:14:05.047Z,180527,0.18243408,0.9293823,0.32287598
1725722045095,2024-09-07T15:14:05.095Z,180575,0.19042969,0.9326782,0.26867676
1725722045146,2024-09-07T15:14:05.146Z,180626,0.16033936,0.9470825,0.2557373
1725722045188,2024-09-07T15:14:05.188Z,180668,0.17492676,0.95758057,0.21270752
1725722045234,2024-09-07T15:14:05.234Z,180714,0.17816162,0.9557495,0.24627686
1725722045280,2024-09-07T15:14:05.280Z,180760,0.17584229,0.97424316,0.24542236
1725722045323,2024-09-07T15:14:05.323Z,180803,0.15795898,1.0054932,0.23730469
1725722045372,2024-09-07T15:14:05.372Z,180852,0.16308594,0.9932251,0.23388672
1725722045415,2024-09-07T15:14:05.415Z,180895,0.144104,0.9807129,0.21105957
1725722045446,2024-09-07T15:14:05.446Z,180926,0.12805176,0.9342041,0.21868896
1725722045461,2024-09-07T15:14:05.461Z,180941,0.116882324,0.92437744,0.24328613
1725722045494,2024-09-07T15:14:05.494Z,180974,0.10583496,0.93725586,0.24334717
1725722045542,2024-09-07T15:14:05.542Z,181022,0.10101318,0.9573364,0.22247314
1725722045588,2024-09-07T15:14:05.588Z,181068,0.11785889,0.9734497,0.24432373
1725722045630,2024-09-07T15:14:05.630Z,181110,0.115478516,1.0368652,0.2565918
1725722064847,2024-09-07T15:14:24.847Z,200327,0.15478516,0.9381714,0.27301025
1725722064872,2024-09-07T15:14:24.872Z,200352,0.110839844,0.9656372,0.29455566
1725722064897,2024-09-07T15:14:24.897Z,200377,0.16949463,0.96466064,0.28997803
1725722064934,2024-09-07T15:14:24.934Z,200414,0.14007568,0.94647217,0.30517578
1725722064980,2024-09-07T15:14:24.980Z,200460,0.14703369,0.96118164,0.26190186
1725722065026,2024-09-07T15:14:25.026Z,200506,0.14971924,0.954895,0.25646973
1725722065071,2024-09-07T15:14:25.071Z,200551,0.12988281,0.946228,0.26171875
1725722065116,2024-09-07T15:14:25.116Z,200596,0.1307373,0.9602051,0.29681396
1725722065168,2024-09-07T15:14:25.168Z,200648,0.13287354,0.96307373,0.2828369
1725722065206,2024-09-07T15:14:25.206Z,200686,0.12597656,0.96221924,0.2765503
1725722065254,2024-09-07T15:14:25.254Z,200734,0.12524414,0.9666748,0.26239014
1725722065273,2024-09-07T15:14:25.273Z,200753,0.10144043,0.9537964,0.2711792
1725722065298,2024-09-07T15:14:25.298Z,200778,0.09539795,0.9547119,0.2687378
1725722065339,2024-09-07T15:14:25.339Z,200819,0.10272217,0.95751953,0.27392578
1725722065387,2024-09-07T15:14:25.387Z,200867,0.086242676,0.9553833,0.28796387
1725722065441,2024-09-07T15:14:25.441Z,200921,0.10949707,0.96447754,0.2546997
1725722065478,2024-09-07T15:14:25.478Z,200958,0.0993042,0.96136475,0.265625
1725722065526,2024-09-07T15:14:25.526Z,201006,0.114868164,0.9555054,0.26763916
1725722065569,2024-09-07T15:14:25.569Z,201049,0.115112305,0.946228,0.25317383
1725722065620,2024-09-07T15:14:25.620Z,201100,0.09869385,0.92578125,0.2738037
1725722065659,2024-09-07T15:14:25.659Z,201139,0.10412598,0.90826416,0.26757812
1725722065689,2024-09-07T15:14:25.689Z,201169,0.12371826,0.95166016,0.2277832
1725722065711,2024-09-07T15:14:25.711Z,201191,0.10424805,0.9571533,0.17651367
1725722065744,2024-09-07T15:14:25.744Z,201224,0.14147949,0.9517212,0.2084961
1725722065791,2024-09-07T15:14:25.791Z,201271,0.081604004,0.9710083,0.23040771
1725722065839,2024-09-07T15:14:25.839Z,201319,0.068481445,0.975647,0.17486572
1725722065885,2024-09-07T15:14:25.885Z,201365,0.10345459,0.9940796,0.21520996
1725722065927,2024-09-07T15:14:25.927Z,201407,0.068237305,0.9585571,0.21826172
1725722065968,2024-09-07T15:14:25.968Z,201448,0.06713867,0.96917725,0.14343262
1725722066020,2024-09-07T15:14:26.020Z,201500,0.06921387,0.95965576,0.113220215
1725722066062,2024-09-07T15:14:26.062Z,201542,0.05999756,0.9659424,0.15472412
1725722066106,2024-09-07T15:14:26.106Z,201586,0.07891846,1.0067139,0.12982178
1725722066131,2024-09-07T15:14:26.131Z,201611,0.0847168,1.0109863,0.11065674
1725722066151,2024-09-07T15:14:26.151Z,201631,0.07684326,0.9784546,0.1171875
1725722066199,2024-09-07T15:14:26.199Z,201679,0.097351074,0.98687744,0.13000488
1725722066242,2024-09-07T15:14:26.242Z,201722,0.07910156,0.9779053,0.105407715
1725722066294,2024-09-07T15:14:26.294Z,201774,0.059753418,0.9772339,0.093322754
1725722066334,2024-09-07T15:14:26.334Z,201814,0.06384277,0.99694824,0.10858154
1725722066376,2024-09-07T15:14:26.376Z,201856,0.08294678,1.0187988,0.091430664
1725722066424,2024-09-07T15:14:26.424Z,201904,0.06237793,1.0074463,0.07318115
1725722066473,2024-09-07T15:14:26.473Z,201953,0.06903076,0.9932251,0.07128906
1725722066514,2024-09-07T15:14:26.514Z,201994,0.09741211,0.9801636,0.05895996
1725722066539,2024-09-07T15:14:26.539Z,202019,0.09576416,0.99975586,0.034240723
1725722066558,2024-09-07T15:14:26.558Z,202038,0.026000977,0.9761963,0.020874023
1725722066604,2024-09-07T15:14:26.604Z,202084,0.060058594,0.9863281,0.0146484375
1725722066646,2024-09-07T15:14:26.646Z,202126,0.03540039,0.99035645,0.009521484
1725722066690,2024-09-07T15:14:26.690Z,202170,0.041259766,1.0020752,-0.0048217773
1725722066744,2024-09-07T15:14:26.744Z,202224,0.056518555,1.0094604,0.002319336
1725722066781,2024-09-07T15:14:26.781Z,202261,0.012573242,0.9907837,0.0234375
1725722066828,2024-09-07T15:14:26.828Z,202308,0.087402344,1.0258179,-0.037841797
1725722066878,2024-09-07T15:14:26.878Z,202358,0.02331543,1.017395,0.029663086
1725722066915,2024-09-07T15:14:26.915Z,202395,0.0993042,1.0778809,0.016784668
1725722066935,2024-09-07T15:14:26.935Z,202415,0.040527344,1.0846558,0.025024414
1725722066959,2024-09-07T15:14:26.959Z,202439,0.12023926,1.0440063,-0.016174316
1725722067007,2024-09-07T15:14:27.007Z,202487,0.119628906,1.0033569,-0.034240723
1725722067055,2024-09-07T15:14:27.055Z,202535,0.0040283203,0.9112549,0.060791016
1725722067098,2024-09-07T15:14:27.098Z,202578,0.13806152,1.0490723,-0.13964844
1725722067139,2024-09-07T15:14:27.139Z,202619,-0.010131836,0.94592285,0.024658203
1725722067192,2024-09-07T15:14:27.192Z,202672,0.09063721,1.0136108,-0.048034668
1725722067237,2024-09-07T15:14:27.237Z,202717,0.0043945312,0.96795654,0.02319336
1725722067276,2024-09-07T15:14:27.276Z,202756,0.12011719,1.026062,-0.020568848
1725722067323,2024-09-07T15:14:27.323Z,202803,-0.010375977,0.9470215,0.04260254
1725722067368,2024-09-07T15:14:27.368Z,202848,0.09161377,0.9996338,-0.06512451
1725722067399,2024-09-07T15:14:27.399Z,202879,0.014953613,0.94659424,-0.024475098
1725722067420,2024-09-07T15:14:27.420Z,202900,0.031982422,1.0236206,-0.08416748
1725722067456,2024-09-07T15:14:27.456Z,202936,0.0107421875,1.0180664,-0.054626465
1725722067505,2024-09-07T15:14:27.505Z,202985,0.10076904,1.0415039,-0.083618164
1725722067548,2024-09-07T15:14:27.548Z,203028,0.019348145,0.99102783,-0.039733887
1725722067598,2024-09-07T15:14:27.598Z,203078,0.09008789,1.0380249,-0.12225342
1725722067639,2024-09-07T15:14:27.639Z,203119,-0.0033569336,1.0202026,-0.0569458
1725722067682,2024-09-07T15:14:27.682Z,203162,0.07366943,1.0668335,-0.05999756
1725722067735,2024-09-07T15:14:27.735Z,203215,0.05407715,1.029541,-0.03326416
1725722067771,2024-09-07T15:14:27.771Z,203251,0.079711914,1.0310059,-0.045959473
1725722067789,2024-09-07T15:14:27.789Z,203269,0.02734375,1.0311279,-0.029296875
1725722067815,2024-09-07T15:14:27.815Z,203295,0.06561279,1.0303955,-0.08306885
1725722067861,2024-09-07T15:14:27.861Z,203341,0.014099121,0.9902954,-0.053771973
1725722067909,2024-09-07T15:14:27.909Z,203389,0.06744385,1.0307617,-0.059692383
1725722067952,2024-09-07T15:14:27.952Z,203432,0.046447754,1.0390015,-0.040893555
1725722067996,2024-09-07T15:14:27.996Z,203476,0.03552246,1.0266724,-0.011779785
1725722068046,2024-09-07T15:14:28.046Z,203526,0.10760498,1.0708008,-0.079589844
1725722068090,2024-09-07T15:14:28.090Z,203570,0.023864746,1.0581055,-0.03967285
1725722068131,2024-09-07T15:14:28.131Z,203611,0.083740234,1.1087036,-0.05609131
1725722068185,2024-09-07T15:14:28.185Z,203665,0.12182617,1.0820923,-0.07165527
1725722068213,2024-09-07T15:14:28.213Z,203693,0.08917236,1.0706177,-0.08557129
1725722068236,2024-09-07T15:14:28.236Z,203716,0.0647583,1.0895996,-0.06756592
1725722068264,2024-09-07T15:14:28.264Z,203744,-9.765625E-4,1.1004639,-0.010009766
1725722068310,2024-09-07T15:14:28.310Z,203790,0.00970459,1.1154785,-0.044128418
1725722068363,2024-09-07T15:14:28.363Z,203843,0.011169434,1.0834961,-0.020996094
1725722068404,2024-09-07T15:14:28.404Z,203884,0.037719727,1.0271606,0.014465332
1725722068447,2024-09-07T15:14:28.447Z,203927,0.033935547,1.0198975,-0.02532959
1725722068497,2024-09-07T15:14:28.497Z,203977,0.020874023,1.0679321,-0.043701172
1725722068539,2024-09-07T15:14:28.539Z,204019,0.068237305,1.039917,-0.11035156
1725722068581,2024-09-07T15:14:28.581Z,204061,0.030273438,0.9879761,-0.055847168
1725722068625,2024-09-07T15:14:28.625Z,204105,0.048461914,1.0140991,-0.024047852
1725722068649,2024-09-07T15:14:28.649Z,204129,0.023254395,1.0317993,-0.056152344
1725722068675,2024-09-07T15:14:28.675Z,204155,0.05718994,1.0388184,-0.11816406
1725722068719,2024-09-07T15:14:28.719Z,204199,0.036499023,1.0053711,-0.063964844
1725722068761,2024-09-07T15:14:28.761Z,204241,0.03564453,1.0061646,-0.058044434
1725722068810,2024-09-07T15:14:28.810Z,204290,0.055541992,1.0040894,-0.03186035
1725722068854,2024-09-07T15:14:28.854Z,204334,0.034973145,0.98931885,-0.060424805
1725722068897,2024-09-07T15:14:28.897Z,204377,0.04675293,1.029602,-0.061401367
1725722068945,2024-09-07T15:14:28.945Z,204425,0.03753662,1.0112305,0.0051879883
1725722068989,2024-09-07T15:14:28.989Z,204469,0.046813965,1.0172119,0.024658203
1725722069031,2024-09-07T15:14:29.031Z,204511,-0.008728027,0.99676514,0.095947266
1725722069057,2024-09-07T15:14:29.057Z,204537,0.066223145,0.99523926,0.06604004
1725722069077,2024-09-07T15:14:29.077Z,204557,0.06842041,0.98376465,0.046875
1725722069122,2024-09-07T15:14:29.122Z,204602,0.05706787,0.9920044,0.018249512
1725722069168,2024-09-07T15:14:29.168Z,204648,0.061157227,0.9906006,0.06854248
1725722069218,2024-09-07T15:14:29.218Z,204698,0.08734131,1.0192871,0.0056762695
1725722069258,2024-09-07T15:14:29.258Z,204738,0.015319824,1.024353,-0.015258789
1725722069303,2024-09-07T15:14:29.303Z,204783,0.09350586,1.0301514,0.049072266
1725722069345,2024-09-07T15:14:29.345Z,204825,0.07800293,0.99450684,0.05206299
1725722069422,2024-09-07T15:14:29.422Z,204902,0.06933594,0.96850586,0.07543945
1725722069448,2024-09-07T15:14:29.448Z,204928,0.097839355,0.9595947,0.07824707
1725722069470,2024-09-07T15:14:29.470Z,204950,0.060424805,0.9299927,0.109375
1725722069488,2024-09-07T15:14:29.488Z,204968,0.1315918,0.94055176,0.08648682
1725722069525,2024-09-07T15:14:29.525Z,205005,0.10168457,0.93011475,0.14520264
1725722069593,2024-09-07T15:14:29.593Z,205073,0.109069824,0.95410156,0.13824463
1725722069632,2024-09-07T15:14:29.632Z,205112,0.07904053,0.98913574,0.07092285
1725722069665,2024-09-07T15:14:29.665Z,205145,0.10449219,0.9995117,0.12835693
1725722069705,2024-09-07T15:14:29.705Z,205185,0.14233398,1.0320435,0.0970459
1725722069749,2024-09-07T15:14:29.749Z,205229,0.08721924,0.9800415,0.11218262
1725722069800,2024-09-07T15:14:29.800Z,205280,0.0993042,0.95098877,0.11645508
1725722069844,2024-09-07T15:14:29.844Z,205324,0.092285156,0.9296875,0.1126709
1725722069886,2024-09-07T15:14:29.886Z,205366,0.10534668,0.9370117,0.17834473
1725722069906,2024-09-07T15:14:29.906Z,205386,0.08972168,0.9346924,0.20861816
1725722069930,2024-09-07T15:14:29.930Z,205410,0.07800293,0.949646,0.16534424
1725722069977,2024-09-07T15:14:29.977Z,205457,0.07232666,0.9499512,0.16790771
1725722070025,2024-09-07T15:14:30.025Z,205505,0.13128662,0.93743896,0.16143799
1725722070071,2024-09-07T15:14:30.071Z,205551,0.13079834,0.94744873,0.14971924
1725722070113,2024-09-07T15:14:30.113Z,205593,0.124938965,0.96588135,0.12786865
1725722070158,2024-09-07T15:14:30.158Z,205638,0.14752197,1.0025635,0.1104126
1725722070211,2024-09-07T15:14:30.211Z,205691,0.15618896,0.9716797,0.1843872
1725722070248,2024-09-07T15:14:30.248Z,205728,0.16534424,0.99139404,0.16497803
1725722070296,2024-09-07T15:14:30.296Z,205776,0.14294434,0.9727173,0.22113037
1725722070318,2024-09-07T15:14:30.318Z,205798,0.14208984,0.99957275,0.17596436
1725722070336,2024-09-07T15:14:30.336Z,205816,0.1359253,0.9923706,0.18841553
1725722070381,2024-09-07T15:14:30.381Z,205861,0.11859131,0.9906006,0.2019043
1725722070429,2024-09-07T15:14:30.429Z,205909,0.15545654,0.96691895,0.20953369
1725722070480,2024-09-07T15:14:30.480Z,205960,0.20245361,0.96972656,0.19171143
1725722070518,2024-09-07T15:14:30.518Z,205998,0.16375732,0.9707031,0.17669678
1725722070561,2024-09-07T15:14:30.561Z,206041,0.16534424,0.9991455,0.15496826
1725722070612,2024-09-07T15:14:30.612Z,206092,0.16265869,0.9973755,0.19311523
1725722070654,2024-09-07T15:14:30.654Z,206134,0.14294434,0.99139404,0.17340088
1725722070695,2024-09-07T15:14:30.695Z,206175,0.13775635,0.9743042,0.1850586
1725722070712,2024-09-07T15:14:30.712Z,206192,0.13897705,0.9584961,0.1642456
1725722070742,2024-09-07T15:14:30.742Z,206222,0.13555908,0.95513916,0.16070557
1725722070786,2024-09-07T15:14:30.786Z,206266,0.120910645,0.97473145,0.17687988
1725722070838,2024-09-07T15:14:30.838Z,206318,0.09106445,0.98028564,0.16436768
1725722070879,2024-09-07T15:14:30.879Z,206359,0.11682129,1.0126343,0.17785645
1725722070921,2024-09-07T15:14:30.921Z,206401,0.10656738,0.9939575,0.18695068
1725722070966,2024-09-07T15:14:30.966Z,206446,0.10998535,0.9818115,0.15570068
1725722071020,2024-09-07T15:14:31.020Z,206500,0.10168457,0.9685669,0.1574707
1725722071058,2024-09-07T15:14:31.058Z,206538,0.0869751,0.960083,0.14575195
1725722071103,2024-09-07T15:14:31.103Z,206583,0.07879639,0.9673462,0.1315918
1725722071145,2024-09-07T15:14:31.145Z,206625,0.087524414,0.973938,0.13995361
1725722071167,2024-09-07T15:14:31.167Z,206647,0.08276367,0.9724121,0.15783691
1725722071192,2024-09-07T15:14:31.192Z,206672,0.07293701,0.9741821,0.117248535
1725722071236,2024-09-07T15:14:31.236Z,206716,0.0713501,0.96936035,0.0947876
1725722071280,2024-09-07T15:14:31.280Z,206760,0.078186035,0.9883423,0.09082031
1725722071331,2024-09-07T15:14:31.331Z,206811,0.10449219,1.0266724,0.09942627
1725722071372,2024-09-07T15:14:31.372Z,206852,0.061279297,1.0040894,0.11657715
1725722071421,2024-09-07T15:14:31.421Z,206901,0.06982422,0.97943115,0.111816406
1725722071467,2024-09-07T15:14:31.467Z,206947,0.076416016,0.96398926,0.11230469
1725722071508,2024-09-07T15:14:31.508Z,206988,0.062438965,0.96173096,0.14013672
1725722071558,2024-09-07T15:14:31.558Z,207038,0.06945801,0.9928589,0.10882568
1725722071589,2024-09-07T15:14:31.589Z,207069,0.0647583,0.99468994,0.09051514
1725722071614,2024-09-07T15:14:31.614Z,207094,0.069885254,0.99017334,0.068237305
1725722071639,2024-09-07T15:14:31.639Z,207119,0.07537842,0.9992676,0.06237793
1725722071686,2024-09-07T15:14:31.686Z,207166,0.07922363,1.0147095,0.04119873
1725722071742,2024-09-07T15:14:31.742Z,207222,0.042236328,0.9804077,0.017333984
1725722071779,2024-09-07T15:14:31.779Z,207259,0.07647705,0.95648193,0.05090332
1725722071823,2024-09-07T15:14:31.823Z,207303,0.070129395,0.982605,0.03302002
1725722071866,2024-09-07T15:14:31.866Z,207346,0.06964111,0.9957886,0.049316406
1725722071913,2024-09-07T15:14:31.913Z,207393,0.07922363,1.0166016,0.07299805
1725722071967,2024-09-07T15:14:31.967Z,207447,0.06390381,1.0245361,0.066833496
1725722071996,2024-09-07T15:14:31.996Z,207476,0.070617676,1.0411987,-0.014099121
1725722072017,2024-09-07T15:14:32.017Z,207497,0.062438965,0.9752197,0.012084961
1725722072046,2024-09-07T15:14:32.046Z,207526,0.08068848,0.97161865,-0.042541504
1725722072090,2024-09-07T15:14:32.090Z,207570,0.034729004,0.951355,0.0025024414
1725722072137,2024-09-07T15:14:32.137Z,207617,0.08148193,1.008606,-0.05340576
1725722072184,2024-09-07T15:14:32.184Z,207664,0.02178955,0.9624634,0.051513672
1725722072232,2024-09-07T15:14:32.232Z,207712,0.13671875,1.0429077,-0.083984375
1725722072273,2024-09-07T15:14:32.273Z,207753,-0.009277344,0.9963379,0.038269043
1725722072322,2024-09-07T15:14:32.322Z,207802,0.079711914,1.0742188,-0.09490967
1725722072364,2024-09-07T15:14:32.364Z,207844,0.025634766,1.0123291,-0.028137207
1725722072407,2024-09-07T15:14:32.407Z,207887,0.07525635,1.0183716,-0.04522705
1725722072431,2024-09-07T15:14:32.431Z,207911,0.051574707,1.0119019,-0.018920898
1725722072451,2024-09-07T15:14:32.451Z,207931,0.06616211,1.0246582,0.014709473
1725722072496,2024-09-07T15:14:32.496Z,207976,0.12463379,1.0695801,-0.017456055
1725722072544,2024-09-07T15:14:32.544Z,208024,0.09289551,1.0557861,0.023742676
1725722072588,2024-09-07T15:14:32.588Z,208068,0.06976318,0.96203613,-0.0524292
1725722072637,2024-09-07T15:14:32.637Z,208117,0.054504395,0.93792725,-0.029785156
1725722072676,2024-09-07T15:14:32.676Z,208156,0.049987793,0.9918823,-0.066467285
1725722072722,2024-09-07T15:14:32.722Z,208202,0.029296875,0.9807739,-0.036499023
1725722072773,2024-09-07T15:14:32.773Z,208253,0.091308594,1.010376,-0.086364746
1725722072812,2024-09-07T15:14:32.812Z,208292,0.017211914,1.0073242,-0.033996582
1725722072835,2024-09-07T15:14:32.835Z,208315,0.048034668,1.0454102,-0.09222412
1725722072856,2024-09-07T15:14:32.856Z,208336,0.049926758,1.0189209,-0.056274414
1725722072907,2024-09-07T15:14:32.907Z,208387,0.05279541,1.0023804,-0.049194336
1725722072947,2024-09-07T15:14:32.947Z,208427,0.0960083,1.0372314,-0.052246094
1725722072997,2024-09-07T15:14:32.997Z,208477,0.04925537,0.99890137,0.013427734
1725722073037,2024-09-07T15:14:33.037Z,208517,0.09906006,0.98339844,-0.081726074
1725722073082,2024-09-07T15:14:33.082Z,208562,0.065979004,0.9810791,-0.050231934
1725722073126,2024-09-07T15:14:33.126Z,208606,0.07897949,1.0405273,-0.0345459
1725722073176,2024-09-07T15:14:33.176Z,208656,0.08880615,1.0502319,0.014465332
1725722073217,2024-09-07T15:14:33.217Z,208697,0.07775879,1.0443726,-0.013793945
1725722073246,2024-09-07T15:14:33.246Z,208726,0.0791626,1.0454102,-0.0040893555
1725722073264,2024-09-07T15:14:33.264Z,208744,0.09051514,1.0429077,-0.041625977
1725722073307,2024-09-07T15:14:33.307Z,208787,0.04046631,1.0474854,-0.022094727
1725722073362,2024-09-07T15:14:33.362Z,208842,0.08880615,1.0872192,-0.057434082
1725722073399,2024-09-07T15:14:33.399Z,208879,0.06628418,1.0686035,-0.048828125
1725722073444,2024-09-07T15:14:33.444Z,208924,0.09399414,1.0834961,-0.06384277
1725722073489,2024-09-07T15:14:33.489Z,208969,0.062316895,1.0960083,-0.041870117
1725722073531,2024-09-07T15:14:33.531Z,209011,0.014831543,1.0888062,-0.036071777
1725722073583,2024-09-07T15:14:33.583Z,209063,0.014587402,1.1064453,-0.07489014
1725722073622,2024-09-07T15:14:33.622Z,209102,0.029968262,1.0820923,-0.02923584
1725722073650,2024-09-07T15:14:33.650Z,209130,0.07507324,1.095581,-0.023254395
1725722073669,2024-09-07T15:14:33.669Z,209149,0.013244629,1.0397339,0.013244629
1725722073711,2024-09-07T15:14:33.711Z,209191,0.05493164,1.0203247,0.038146973
1725722073767,2024-09-07T15:14:33.767Z,209247,0.014831543,1.0803223,-0.05505371
1725722073802,2024-09-07T15:14:33.802Z,209282,0.08959961,1.0637817,-0.09350586
1725722073859,2024-09-07T15:14:33.859Z,209339,0.012268066,0.99072266,-0.023620605
1725722073894,2024-09-07T15:14:33.894Z,209374,0.08068848,1.0080566,-0.043762207
1725722073935,2024-09-07T15:14:33.935Z,209415,0.0049438477,0.9871826,0.02166748
1725722073989,2024-09-07T15:14:33.989Z,209469,0.058410645,1.0233154,-0.05847168
1725722074027,2024-09-07T15:14:34.027Z,209507,-0.005493164,0.98553467,-0.022888184
1725722074074,2024-09-07T15:14:34.074Z,209554,0.038024902,1.0028687,-0.06109619
1725722074097,2024-09-07T15:14:34.097Z,209577,0.026550293,0.9734497,0.0056762695
1725722074116,2024-09-07T15:14:34.116Z,209596,0.060424805,0.9571533,0.028564453
1725722074161,2024-09-07T15:14:34.161Z,209641,0.0871582,0.99975586,0.020507812
1725722074205,2024-09-07T15:14:34.205Z,209685,0.033203125,1.0219727,0.043029785
1725722074260,2024-09-07T15:14:34.260Z,209740,-0.01550293,1.0192871,0.13360596
1725722074299,2024-09-07T15:14:34.299Z,209779,0.10571289,1.0583496,0.03100586
1725722074340,2024-09-07T15:14:34.340Z,209820,0.036315918,1.041565,0.020690918
1725722074393,2024-09-07T15:14:34.393Z,209873,0.060668945,1.0161743,0.018554688
1725722074433,2024-09-07T15:14:34.433Z,209913,0.10479736,1.0276489,0.028320312
1725722074478,2024-09-07T15:14:34.478Z,209958,-0.007751465,0.96606445,0.17663574
1725722074505,2024-09-07T15:14:34.505Z,209985,0.026245117,1.0119019,0.06311035
1725722074525,2024-09-07T15:14:34.525Z,210005,0.08660889,0.98065186,0.028076172
1725722074613,2024-09-07T15:14:34.613Z,210093,0.09399414,0.9567871,0.0569458
1725722074631,2024-09-07T15:14:34.631Z,210111,0.084106445,0.9899292,0.078552246
1725722074658,2024-09-07T15:14:34.658Z,210138,0.07489014,0.98272705,0.07635498
1725722074701,2024-09-07T15:14:34.701Z,210181,0.053955078,0.9789429,0.11328125
1725722074745,2024-09-07T15:14:34.745Z,210225,0.058166504,0.97875977,0.11303711
1725722074791,2024-09-07T15:14:34.791Z,210271,0.033691406,0.99212646,0.10357666
1725722074841,2024-09-07T15:14:34.841Z,210321,0.040649414,1.0073853,0.07696533
1725722074884,2024-09-07T15:14:34.884Z,210364,0.048034668,0.9871826,0.08166504
1725722074909,2024-09-07T15:14:34.909Z,210389,0.07897949,0.9624634,0.107177734
1725722074929,2024-09-07T15:14:34.929Z,210409,0.09307861,0.93914795,0.11981201
1725722074972,2024-09-07T15:14:34.972Z,210452,0.070617676,0.9564209,0.14355469
1725722075020,2024-09-07T15:14:35.020Z,210500,0.06604004,0.9400635,0.22015381
1725722075062,2024-09-07T15:14:35.062Z,210542,0.14746094,0.9526367,0.1496582
1725722075111,2024-09-07T15:14:35.111Z,210591,0.0826416,0.97766113,0.17755127
1725722075155,2024-09-07T15:14:35.155Z,210635,0.09020996,1.0135498,0.13830566
1725722075197,2024-09-07T15:14:35.197Z,210677,0.14245605,1.0366211,0.1484375
1725722075248,2024-09-07T15:14:35.248Z,210728,0.08087158,0.99554443,0.16723633
1725722075294,2024-09-07T15:14:35.294Z,210774,0.088134766,0.99121094,0.10675049
1725722075336,2024-09-07T15:14:35.336Z,210816,0.10345459,0.95635986,0.16882324
1725722075362,2024-09-07T15:14:35.362Z,210842,0.119506836,0.91186523,0.20196533
1725722075383,2024-09-07T15:14:35.383Z,210863,0.08154297,0.86834717,0.17248535
1725722075420,2024-09-07T15:14:35.420Z,210900,0.10595703,0.90460205,0.18566895
1725722075478,2024-09-07T15:14:35.478Z,210958,0.11529541,0.96655273,0.26287842
1725722075516,2024-09-07T15:14:35.516Z,210996,0.13995361,0.994812,0.2119751
1725722075554,2024-09-07T15:14:35.554Z,211034,0.09918213,0.9611206,0.20581055
1725722075605,2024-09-07T15:14:35.605Z,211085,0.1204834,0.94085693,0.16101074
1725722075646,2024-09-07T15:14:35.646Z,211126,0.13342285,0.97094727,0.16357422
1725722075700,2024-09-07T15:14:35.700Z,211180,0.08105469,1.0026245,0.1897583
1725722075738,2024-09-07T15:14:35.738Z,211218,0.11029053,1.0392456,0.18707275
1725722075763,2024-09-07T15:14:35.763Z,211243,0.11505127,1.0059814,0.23632812
1725722075781,2024-09-07T15:14:35.781Z,211261,0.12384033,1.0036011,0.21948242
1725722075825,2024-09-07T15:14:35.825Z,211305,0.083618164,0.9674072,0.1951294
1725722075879,2024-09-07T15:14:35.879Z,211359,0.07611084,0.96466064,0.17346191
1725722075916,2024-09-07T15:14:35.916Z,211396,0.09240723,0.9680176,0.19335938
1725722075965,2024-09-07T15:14:35.965Z,211445,0.1381836,0.9786377,0.17852783
1725722076006,2024-09-07T15:14:36.006Z,211486,0.101745605,0.9651489,0.20654297
1725722076059,2024-09-07T15:14:36.059Z,211539,0.10644531,0.9803467,0.18841553
1725722076100,2024-09-07T15:14:36.100Z,211580,0.10101318,0.96936035,0.21606445
1725722076139,2024-09-07T15:14:36.139Z,211619,0.13970947,0.98376465,0.19189453
1725722076163,2024-09-07T15:14:36.163Z,211643,0.123168945,0.97351074,0.18756104
1725722076185,2024-09-07T15:14:36.185Z,211665,0.11639404,0.977417,0.17224121
1725722076230,2024-09-07T15:14:36.230Z,211710,0.12713623,0.9845581,0.19390869
1725722076276,2024-09-07T15:14:36.276Z,211756,0.08721924,0.977478,0.17797852
1725722076326,2024-09-07T15:14:36.326Z,211806,0.11785889,0.9914551,0.15814209
1725722076369,2024-09-07T15:14:36.369Z,211849,0.08294678,0.9798584,0.18395996
1725722076418,2024-09-07T15:14:36.418Z,211898,0.08166504,0.98968506,0.1765747
1725722076458,2024-09-07T15:14:36.458Z,211938,0.0949707,0.9852295,0.2234497
1725722076504,2024-09-07T15:14:36.504Z,211984,0.10571289,0.9901123,0.21472168
1725722076547,2024-09-07T15:14:36.547Z,212027,0.081726074,1.0123901,0.18011475
1725722076598,2024-09-07T15:14:36.598Z,212078,0.054138184,0.991272,0.16485596
1725722076625,2024-09-07T15:14:36.625Z,212105,0.11126709,0.9611206,0.14660645
1725722076649,2024-09-07T15:14:36.649Z,212129,0.07733154,0.95458984,0.15716553
1725722076680,2024-09-07T15:14:36.680Z,212160,0.058776855,0.95684814,0.12976074
1725722076727,2024-09-07T15:14:36.727Z,212207,0.05609131,0.9659424,0.11566162
1725722076776,2024-09-07T15:14:36.776Z,212256,0.06011963,0.9630127,0.13067627
1725722076817,2024-09-07T15:14:36.817Z,212297,0.06329346,0.9735718,0.116882324
1725722076863,2024-09-07T15:14:36.863Z,212343,0.06237793,0.9796753,0.103515625
1725722076907,2024-09-07T15:14:36.907Z,212387,0.047058105,0.9725952,0.10101318
1725722076958,2024-09-07T15:14:36.958Z,212438,0.07763672,0.98321533,0.087402344
1725722077000,2024-09-07T15:14:37Z,212480,0.07684326,0.99676514,0.06567383
1725722077033,2024-09-07T15:14:37.033Z,212513,0.068237305,0.9898071,0.085754395
1725722077056,2024-09-07T15:14:37.056Z,212536,0.07623291,1.0006104,0.072509766
1725722077085,2024-09-07T15:14:37.085Z,212565,0.047546387,0.98876953,0.052978516
1725722077131,2024-09-07T15:14:37.131Z,212611,0.049560547,1.0141602,0.05279541
1725722077181,2024-09-07T15:14:37.181Z,212661,0.08294678,1.0117798,0.0826416
1725722077228,2024-09-07T15:14:37.228Z,212708,0.07501221,1.0097656,0.07159424
1725722077265,2024-09-07T15:14:37.265Z,212745,0.07531738,1.0092773,0.06512451
1725722077316,2024-09-07T15:14:37.316Z,212796,0.059509277,0.99853516,0.068115234
1725722077355,2024-09-07T15:14:37.355Z,212835,0.06951904,1.0231323,0.053771973
1725722077404,2024-09-07T15:14:37.404Z,212884,0.08453369,0.9970703,0.06567383
1725722077434,2024-09-07T15:14:37.434Z,212914,0.062683105,0.97454834,0.05218506
1725722077454,2024-09-07T15:14:37.454Z,212934,0.098083496,0.9418335,0.045715332
1725722077490,2024-09-07T15:14:37.490Z,212970,0.0871582,0.9626465,0.052001953
1725722077540,2024-09-07T15:14:37.540Z,213020,0.030212402,0.9956665,-0.018676758
1725722077582,2024-09-07T15:14:37.582Z,213062,0.016296387,1.0332642,-0.034057617
1725722077624,2024-09-07T15:14:37.624Z,213104,0.055725098,1.0454712,-0.035888672
1725722077679,2024-09-07T15:14:37.679Z,213159,0.020446777,0.98291016,0.045654297
1725722077715,2024-09-07T15:14:37.715Z,213195,0.056518555,0.9613037,-0.027526855
1725722077761,2024-09-07T15:14:37.761Z,213241,0.07196045,0.9925537,-0.023864746
1725722077814,2024-09-07T15:14:37.814Z,213294,0.02722168,1.0044556,0.013183594
1725722077851,2024-09-07T15:14:37.851Z,213331,0.048583984,1.0701294,-0.04083252
1725722077874,2024-09-07T15:14:37.874Z,213354,0.032226562,1.1021729,0.029296875
1725722077895,2024-09-07T15:14:37.895Z,213375,0.15905762,1.0516968,-0.069885254
1725722077944,2024-09-07T15:14:37.944Z,213424,0.054138184,0.9144287,-0.0010986328
1725722077988,2024-09-07T15:14:37.988Z,213468,0.039794922,0.9483032,0.0045776367
1725722078033,2024-09-07T15:14:38.033Z,213513,0.096069336,1.0470581,-0.06713867
1725722078077,2024-09-07T15:14:38.077Z,213557,0.055480957,1.0194092,0.040649414
1725722078123,2024-09-07T15:14:38.123Z,213603,0.1104126,1.0357666,-0.05267334
1725722078166,2024-09-07T15:14:38.166Z,213646,0.018676758,0.8814087,0.033447266
1725722078213,2024-09-07T15:14:38.213Z,213693,0.11279297,0.9946289,-0.13018799
1725722078263,2024-09-07T15:14:38.263Z,213743,-0.023803711,0.930603,-0.0068359375
1725722078292,2024-09-07T15:14:38.292Z,213772,0.099121094,1.0524292,-0.13214111
1725722078316,2024-09-07T15:14:38.316Z,213796,-0.048583984,1.010437,-0.04321289
1725722078345,2024-09-07T15:14:38.345Z,213825,0.051879883,1.0355225,-0.10626221
1725722078393,2024-09-07T15:14:38.393Z,213873,0.04284668,1.0075684,-0.055480957
1725722078436,2024-09-07T15:14:38.436Z,213916,0.036499023,1.0513916,-0.07952881
1725722078485,2024-09-07T15:14:38.485Z,213965,0.017456055,1.0213013,-0.054992676
1725722078530,2024-09-07T15:14:38.530Z,214010,0.050109863,1.0317383,-0.101257324
1725722078571,2024-09-07T15:14:38.571Z,214051,0.057250977,1.0636597,-0.05303955
1725722078622,2024-09-07T15:14:38.622Z,214102,0.05609131,1.0769653,-0.021362305
1725722078714,2024-09-07T15:14:38.714Z,214194,0.020812988,0.9908447,-0.057922363
1725722078745,2024-09-07T15:14:38.745Z,214225,0.09674072,1.0028076,-0.12786865
1725722078767,2024-09-07T15:14:38.767Z,214247,-0.0030517578,1.001648,-0.04449463
1725722078788,2024-09-07T15:14:38.788Z,214268,0.043029785,1.0462036,-0.06719971
1725722078806,2024-09-07T15:14:38.806Z,214286,0.028625488,1.0442505,-0.042114258
1725722078839,2024-09-07T15:14:38.839Z,214319,0.035888672,1.0570068,-0.056396484
1725722078885,2024-09-07T15:14:38.885Z,214365,0.045898438,1.0505981,-0.06573486
1725722078935,2024-09-07T15:14:38.935Z,214415,0.1171875,1.0626831,-0.12701416
1725722078979,2024-09-07T15:14:38.979Z,214459,0.091918945,1.0814209,-0.14001465
1725722079030,2024-09-07T15:14:39.030Z,214510,0.08795166,1.1594238,-0.16680908
1725722079068,2024-09-07T15:14:39.068Z,214548,-0.013793945,1.1378784,-0.14141846
1725722079118,2024-09-07T15:14:39.118Z,214598,0.033325195,1.0943604,-0.08270264
1725722079148,2024-09-07T15:14:39.148Z,214628,0.049194336,1.1362305,-0.07220459
1725722079167,2024-09-07T15:14:39.167Z,214647,-0.06085205,1.0182495,0.018737793
1725722079201,2024-09-07T15:14:39.201Z,214681,0.05670166,1.0803223,-0.08178711
1725722079250,2024-09-07T15:14:39.250Z,214730,-0.020935059,1.003418,-0.060668945
1725722079293,2024-09-07T15:14:39.293Z,214773,0.020935059,1.0231323,-0.028076172
1725722079346,2024-09-07T15:14:39.346Z,214826,0.028808594,0.98583984,0.00970459
1725722079382,2024-09-07T15:14:39.382Z,214862,0.034301758,0.9788208,0.006713867
1725722079434,2024-09-07T15:14:39.434Z,214914,0.04119873,1.020813,-0.05810547
1725722079474,2024-09-07T15:14:39.474Z,214954,0.005493164,1.0130005,-0.058166504
1725722079516,2024-09-07T15:14:39.516Z,214996,0.048706055,1.0122681,-0.078430176
1725722079537,2024-09-07T15:14:39.537Z,215017,0.04827881,1.0061646,-0.030456543
1725722079568,2024-09-07T15:14:39.568Z,215048,0.057739258,1.0283813,-0.04309082
1725722079608,2024-09-07T15:14:39.608Z,215088,-0.027526855,1.0151978,-0.05230713
1725722079656,2024-09-07T15:14:39.656Z,215136,0.076049805,1.0356445,-0.07952881
1725722079699,2024-09-07T15:14:39.699Z,215179,0.042236328,1.0178223,-0.013122559
1725722079752,2024-09-07T15:14:39.752Z,215232,0.030517578,1.0054932,-0.016418457
1725722079839,2024-09-07T15:14:39.839Z,215319,0.03881836,1.0021973,-0.04119873
1725722079877,2024-09-07T15:14:39.877Z,215357,-0.0030517578,0.9800415,0.013305664
1725722079897,2024-09-07T15:14:39.897Z,215377,0.08618164,0.9844971,-0.003112793
1725722079919,2024-09-07T15:14:39.919Z,215399,0.05682373,0.98095703,-0.02142334
1725722079934,2024-09-07T15:14:39.934Z,215414,0.0423584,0.9716797,0.032104492
1725722079967,2024-09-07T15:14:39.967Z,215447,0.057128906,0.9906616,0.046203613
1725722080013,2024-09-07T15:14:40.013Z,215493,0.030700684,1.0028687,0.10083008
1725722080058,2024-09-07T15:14:40.058Z,215538,-0.024353027,1.0009155,0.14129639
1725722080103,2024-09-07T15:14:40.103Z,215583,0.027404785,1.0526123,0.064208984
1725722080198,2024-09-07T15:14:40.198Z,215678,0.059509277,1.0360718,-0.028747559
1725722080233,2024-09-07T15:14:40.233Z,215713,0.057861328,1.0022583,-0.019897461
1725722080255,2024-09-07T15:14:40.255Z,215735,0.049316406,1.0143433,0.014221191
1725722080280,2024-09-07T15:14:40.280Z,215760,0.0647583,1.015564,0.01928711
1725722080328,2024-09-07T15:14:40.328Z,215808,0.0715332,0.99664307,0.026733398
1725722080371,2024-09-07T15:14:40.371Z,215851,0.052246094,0.99658203,0.0029296875
1725722080396,2024-09-07T15:14:40.396Z,215876,0.033813477,0.980896,0.026428223
1725722080423,2024-09-07T15:14:40.423Z,215903,0.04248047,0.96447754,0.016662598
1725722080460,2024-09-07T15:14:40.460Z,215940,0.057250977,0.9586792,0.05480957
1725722080507,2024-09-07T15:14:40.507Z,215987,0.066223145,0.9348755,0.106933594
1725722080550,2024-09-07T15:14:40.550Z,216030,0.049438477,0.9180908,0.16882324
1725722080600,2024-09-07T15:14:40.600Z,216080,0.06072998,0.9465332,0.17785645
1725722080649,2024-09-07T15:14:40.649Z,216129,0.018920898,0.98687744,0.16662598
1725722080686,2024-09-07T15:14:40.686Z,216166,0.026062012,1.0349121,0.13330078
1725722080735,2024-09-07T15:14:40.735Z,216215,0.07269287,1.0614014,0.10241699
1725722080779,2024-09-07T15:14:40.779Z,216259,0.09075928,1.0270996,0.10046387
1725722080806,2024-09-07T15:14:40.806Z,216286,0.09448242,0.9868164,0.09020996
1725722080830,2024-09-07T15:14:40.830Z,216310,0.0927124,0.96832275,0.09906006
1725722080866,2024-09-07T15:14:40.866Z,216346,0.10839844,0.9454956,0.13110352
1725722080965,2024-09-07T15:14:40.965Z,216445,0.08679199,0.91082764,0.14660645
1725722080998,2024-09-07T15:14:40.998Z,216478,0.08331299,0.87420654,0.17364502
1725722081022,2024-09-07T15:14:41.022Z,216502,0.05029297,0.9063721,0.20727539
1725722081048,2024-09-07T15:14:41.048Z,216528,0.05218506,0.94970703,0.24841309
1725722081094,2024-09-07T15:14:41.094Z,216574,0.08502197,0.9741211,0.18603516
1725722081137,2024-09-07T15:14:41.137Z,216617,0.08459473,0.99298096,0.112854004
1725722081186,2024-09-07T15:14:41.186Z,216666,0.09124756,1.017456,0.10070801
1725722081215,2024-09-07T15:14:41.215Z,216695,0.100097656,1.0177002,0.13122559
1725722081236,2024-09-07T15:14:41.236Z,216716,0.10784912,1.0144043,0.16320801
1725722081270,2024-09-07T15:14:41.270Z,216750,0.07775879,1.0164795,0.19470215
1725722081317,2024-09-07T15:14:41.317Z,216797,0.08099365,0.9968872,0.23413086
1725722081367,2024-09-07T15:14:41.367Z,216847,0.103271484,0.9657593,0.22296143
1725722081405,2024-09-07T15:14:41.405Z,216885,0.09490967,0.96154785,0.17840576
1725722081454,2024-09-07T15:14:41.454Z,216934,0.10998535,0.9748535,0.15844727
1725722081510,2024-09-07T15:14:41.510Z,216990,0.0960083,0.9963989,0.1729126
1725722081544,2024-09-07T15:14:41.544Z,217024,0.09069824,1.0005493,0.15545654
1725722081585,2024-09-07T15:14:41.585Z,217065,0.10217285,0.99542236,0.15966797
1725722081636,2024-09-07T15:14:41.636Z,217116,0.09234619,0.98431396,0.17419434
1725722081658,2024-09-07T15:14:41.658Z,217138,0.10839844,0.99121094,0.16674805
1725722081678,2024-09-07T15:14:41.678Z,217158,0.07476807,0.9797363,0.14764404
1725722081720,2024-09-07T15:14:41.720Z,217200,0.06097412,0.97265625,0.14703369
1725722081775,2024-09-07T15:14:41.775Z,217255,0.11010742,0.9830322,0.1595459
1725722081814,2024-09-07T15:14:41.814Z,217294,0.07763672,0.991272,0.16113281
1725722081856,2024-09-07T15:14:41.856Z,217336,0.04486084,0.98828125,0.13415527
1725722081903,2024-09-07T15:14:41.903Z,217383,0.06518555,0.9904785,0.16168213
1725722081949,2024-09-07T15:14:41.949Z,217429,0.10003662,0.9998779,0.18353271
1725722081992,2024-09-07T15:14:41.992Z,217472,0.09716797,1.0009155,0.18713379
1725722082086,2024-09-07T15:14:42.086Z,217566,0.06512451,0.98431396,0.1665039
1725722082108,2024-09-07T15:14:42.108Z,217588,0.075927734,0.9663696,0.12939453
1725722082134,2024-09-07T15:14:42.134Z,217614,0.060668945,0.96118164,0.10949707
1725722082156,2024-09-07T15:14:42.156Z,217636,0.06414795,0.9673462,0.11340332
1725722082172,2024-09-07T15:14:42.172Z,217652,0.06011963,0.9470215,0.1161499
1725722082216,2024-09-07T15:14:42.216Z,217696,0.059020996,0.9639282,0.12683105
1725722082263,2024-09-07T15:14:42.263Z,217743,0.07043457,0.9975586,0.07879639
1725722082306,2024-09-07T15:14:42.306Z,217786,0.038208008,0.9993286,0.07043457
1725722082359,2024-09-07T15:14:42.359Z,217839,0.04248047,0.9868164,0.08856201
1725722082403,2024-09-07T15:14:42.403Z,217883,0.066101074,0.98638916,0.05706787
1725722082440,2024-09-07T15:14:42.440Z,217920,0.10284424,0.9603882,0.08203125
1725722082463,2024-09-07T15:14:42.463Z,217943,0.10217285,0.95910645,0.07977295
1725722082486,2024-09-07T15:14:42.486Z,217966,0.053466797,0.9836426,0.045715332
1725722082532,2024-09-07T15:14:42.532Z,218012,0.039733887,1.0163574,1.8310547E-4
1725722082576,2024-09-07T15:14:42.576Z,218056,0.03869629,0.9805298,0.024597168
1725722082626,2024-09-07T15:14:42.626Z,218106,0.06237793,1.0049438,0.027954102
1725722082672,2024-09-07T15:14:42.672Z,218152,0.06652832,1.0256958,-0.007080078
1725722082710,2024-09-07T15:14:42.710Z,218190,0.024963379,1.0084229,-0.0014648438
1725722082760,2024-09-07T15:14:42.760Z,218240,0.042175293,1.0117798,0.011657715
1725722082803,2024-09-07T15:14:42.803Z,218283,0.08874512,1.0371094,-0.03125
1725722082845,2024-09-07T15:14:42.845Z,218325,-0.0119018555,0.9729004,-0.005126953
1725722082891,2024-09-07T15:14:42.891Z,218371,0.0637207,0.97546387,-0.016906738
1725722082903,2024-09-07T15:14:42.903Z,218383,0.061340332,0.98480225,-0.0423584
1725722082939,2024-09-07T15:14:42.939Z,218419,0.052612305,1.001709,-0.008544922
1725722082983,2024-09-07T15:14:42.983Z,218463,0.08709717,1.0700684,-0.09020996
1725722083032,2024-09-07T15:14:43.032Z,218512,0.048034668,1.0285645,-0.04095459
1725722083071,2024-09-07T15:14:43.071Z,218551,0.06689453,1.0214844,-0.1274414
1725722083123,2024-09-07T15:14:43.123Z,218603,0.053771973,0.9546509,-0.02557373
1725722083161,2024-09-07T15:14:43.161Z,218641,0.087890625,0.9980469,-0.0949707
1725722083230,2024-09-07T15:14:43.230Z,218710,0.04626465,0.99816895,7.324219E-4
1725722083254,2024-09-07T15:14:43.254Z,218734,0.10369873,1.0786133,-0.06896973
1725722083299,2024-09-07T15:14:43.299Z,218779,0.046142578,0.99694824,0.009277344
1725722083322,2024-09-07T15:14:43.322Z,218802,0.06439209,0.9714966,-0.11450195
1725722083340,2024-09-07T15:14:43.340Z,218820,0.03967285,0.94329834,-0.016601562
1725722083389,2024-09-07T15:14:43.389Z,218869,0.074157715,1.0332642,-0.1303711
1725722083433,2024-09-07T15:14:43.433Z,218913,0.017028809,0.9824829,-0.04296875
1725722083478,2024-09-07T15:14:43.478Z,218958,0.07775879,1.0511475,-0.18884277
1725722083520,2024-09-07T15:14:43.520Z,219000,-0.015930176,0.97442627,-0.075927734
1725722083575,2024-09-07T15:14:43.575Z,219055,0.08947754,0.973999,-0.12731934
1725722083613,2024-09-07T15:14:43.613Z,219093,0.09637451,0.99676514,-0.03173828
1725722083667,2024-09-07T15:14:43.667Z,219147,0.07312012,1.0309448,-0.0791626
1725722083703,2024-09-07T15:14:43.703Z,219183,0.031066895,1.0014648,-0.1116333
1725722083727,2024-09-07T15:14:43.727Z,219207,0.08996582,1.046875,-0.16223145
1725722083745,2024-09-07T15:14:43.745Z,219225,0.03277588,1.0082397,-0.081726074
1725722083796,2024-09-07T15:14:43.796Z,219276,0.090270996,1.0349121,-0.1237793
1725722083835,2024-09-07T15:14:43.835Z,219315,0.036071777,1.0543213,0.008666992
1725722083882,2024-09-07T15:14:43.882Z,219362,0.11828613,1.0484619,-0.07873535
1725722083927,2024-09-07T15:14:43.927Z,219407,0.032348633,0.958313,-0.08483887
1725722083978,2024-09-07T15:14:43.978Z,219458,0.07501221,1.00531,-0.13476562
1725722084019,2024-09-07T15:14:44.019Z,219499,0.04156494,0.9854126,-0.064208984
1725722084062,2024-09-07T15:14:44.062Z,219542,0.09320068,1.0231934,-0.1362915
1725722084112,2024-09-07T15:14:44.112Z,219592,0.025817871,1.0114136,-0.08325195
1725722084154,2024-09-07T15:14:44.154Z,219634,0.10827637,1.0645142,-0.10272217
1725722084174,2024-09-07T15:14:44.174Z,219654,0.06427002,1.1218872,-0.0748291
1725722084195,2024-09-07T15:14:44.195Z,219675,0.115478516,1.0901489,-0.13116455
1725722084243,2024-09-07T15:14:44.243Z,219723,0.11834717,1.0783081,-0.14117432
1725722084288,2024-09-07T15:14:44.288Z,219768,0.10394287,1.0977783,-0.1673584
1725722084340,2024-09-07T15:14:44.340Z,219820,0.051940918,1.0516357,-0.11553955
1725722084379,2024-09-07T15:14:44.379Z,219859,0.1293335,1.1046143,-0.1741333
1725722084421,2024-09-07T15:14:44.421Z,219901,0.0043945312,1.06604,-0.07354736
1725722084468,2024-09-07T15:14:44.468Z,219948,0.004638672,1.0866699,-0.07495117
1725722084511,2024-09-07T15:14:44.511Z,219991,0.02557373,1.0523682,-0.06896973
1725722084565,2024-09-07T15:14:44.565Z,220045,0.008056641,1.0599365,-0.071777344
1725722084598,2024-09-07T15:14:44.598Z,220078,-0.011108398,1.0558472,-0.044067383
1725722084624,2024-09-07T15:14:44.624Z,220104,0.05859375,1.0470581,-0.11993408
1725722084646,2024-09-07T15:14:44.646Z,220126,-0.011413574,1.0087891,-0.062927246
1725722084693,2024-09-07T15:14:44.693Z,220173,0.07342529,1.0195923,-0.07409668
1725722084748,2024-09-07T15:14:44.748Z,220228,-0.0024414062,0.9991455,-0.068359375
1725722084788,2024-09-07T15:14:44.788Z,220268,0.06573486,1.0187378,-0.12615967
1725722084830,2024-09-07T15:14:44.830Z,220310,0.038085938,0.99487305,-0.09857178
1725722084871,2024-09-07T15:14:44.871Z,220351,0.044006348,0.99157715,-0.0748291
1725722084919,2024-09-07T15:14:44.919Z,220399,0.041259766,1.0028076,-0.079956055
1725722084961,2024-09-07T15:14:44.961Z,220441,0.032226562,0.9876709,-0.039001465
1725722084985,2024-09-07T15:14:44.985Z,220465,0.06072998,1.0106201,-0.095825195
1725722085007,2024-09-07T15:14:45.007Z,220487,0.019104004,1.0153198,-0.041015625
1725722085052,2024-09-07T15:14:45.052Z,220532,0.04333496,1.0324097,-0.06713867
1725722085101,2024-09-07T15:14:45.101Z,220581,0.024108887,0.97991943,-0.030944824
1725722085148,2024-09-07T15:14:45.148Z,220628,0.018249512,0.9897461,-0.07092285
1725722085188,2024-09-07T15:14:45.188Z,220668,0.03778076,0.9779663,-0.009277344
1725722085231,2024-09-07T15:14:45.231Z,220711,0.07879639,0.9879761,-0.016296387
1725722085284,2024-09-07T15:14:45.284Z,220764,0.04888916,0.98223877,-0.008911133
1725722085324,2024-09-07T15:14:45.324Z,220804,0.044555664,1.0238037,0.012878418
1725722085365,2024-09-07T15:14:45.365Z,220845,0.057250977,1.0267944,0.068603516
1725722085424,2024-09-07T15:14:45.424Z,220904,0.05078125,1.0263062,0.028503418
1725722085461,2024-09-07T15:14:45.461Z,220941,0.0635376,1.0383301,-0.02130127
1725722085484,2024-09-07T15:14:45.484Z,220964,0.04260254,1.0001221,-0.0017700195
1725722085502,2024-09-07T15:14:45.502Z,220982,0.05645752,0.9890747,-0.007080078
1725722085544,2024-09-07T15:14:45.544Z,221024,0.07305908,0.99938965,0.03277588
1725722085599,2024-09-07T15:14:45.599Z,221079,0.038085938,0.97491455,0.03173828
1725722085640,2024-09-07T15:14:45.640Z,221120,0.06665039,1.0004272,-0.008056641
1725722085681,2024-09-07T15:14:45.681Z,221161,0.051757812,0.9725342,0.0892334
1725722085729,2024-09-07T15:14:45.729Z,221209,0.10974121,1.0083618,0.007080078
1725722085778,2024-09-07T15:14:45.778Z,221258,0.06585693,0.9777832,0.042907715
1725722085817,2024-09-07T15:14:45.817Z,221297,0.11462402,0.95758057,0.064208984
1725722085845,2024-09-07T15:14:45.845Z,221325,0.07751465,0.95495605,0.08532715
1725722085864,2024-09-07T15:14:45.864Z,221344,0.057250977,0.9595337,0.113586426
1725722085907,2024-09-07T15:14:45.907Z,221387,0.0690918,0.97509766,0.16088867
1725722085955,2024-09-07T15:14:45.955Z,221435,0.076171875,0.96307373,0.18469238
1725722085996,2024-09-07T15:14:45.996Z,221476,0.07397461,0.99554443,0.13671875
1725722086044,2024-09-07T15:14:46.044Z,221524,0.07745361,1.0161133,0.097961426
1725722086086,2024-09-07T15:14:46.086Z,221566,0.09814453,1.0144653,0.11541748
1725722086187,2024-09-07T15:14:46.187Z,221667,0.14318848,0.9769287,0.1560669
1725722086223,2024-09-07T15:14:46.223Z,221703,0.13226318,0.93414307,0.1352539
1725722086249,2024-09-07T15:14:46.249Z,221729,0.09484863,0.9041748,0.18902588
1725722086270,2024-09-07T15:14:46.270Z,221750,0.070495605,0.92492676,0.23449707
1725722086287,2024-09-07T15:14:46.287Z,221767,0.06964111,0.93096924,0.22784424
1725722086311,2024-09-07T15:14:46.311Z,221791,0.06427002,0.9348755,0.22210693
1725722086356,2024-09-07T15:14:46.356Z,221836,0.12872314,0.9851074,0.1418457
1725722086405,2024-09-07T15:14:46.405Z,221885,0.11242676,0.9909668,0.14526367
1725722086454,2024-09-07T15:14:46.454Z,221934,0.120910645,0.9746704,0.10974121
1725722086495,2024-09-07T15:14:46.495Z,221975,0.15893555,0.9962158,0.1529541
1725722086539,2024-09-07T15:14:46.539Z,222019,0.09954834,0.9790039,0.22113037
1725722086582,2024-09-07T15:14:46.582Z,222062,0.119628906,0.99261475,0.22363281
1725722086627,2024-09-07T15:14:46.627Z,222107,0.13104248,0.9821167,0.19793701
1725722086679,2024-09-07T15:14:46.679Z,222159,0.10723877,0.9677124,0.14678955
1725722086709,2024-09-07T15:14:46.709Z,222189,0.111816406,0.97198486,0.15740967
1725722086735,2024-09-07T15:14:46.735Z,222215,0.097961426,0.9857178,0.1541748
1725722086760,2024-09-07T15:14:46.760Z,222240,0.10620117,0.993042,0.17565918
1725722086806,2024-09-07T15:14:46.806Z,222286,0.10455322,1.0100098,0.19299316
1725722086853,2024-09-07T15:14:46.853Z,222333,0.12420654,1.0165405,0.22070312
1725722086895,2024-09-07T15:14:46.895Z,222375,0.13659668,0.98010254,0.21002197
1725722086944,2024-09-07T15:14:46.944Z,222424,0.0793457,0.9385376,0.16986084
1725722086985,2024-09-07T15:14:46.985Z,222465,0.109558105,0.9613037,0.14678955
1725722087038,2024-09-07T15:14:47.038Z,222518,0.07965088,0.97406006,0.15130615
1725722087081,2024-09-07T15:14:47.081Z,222561,0.0814209,0.9938965,0.14379883
1725722087104,2024-09-07T15:14:47.104Z,222584,0.11010742,1.0022583,0.14685059
1725722087136,2024-09-07T15:14:47.136Z,222616,0.10107422,0.97229004,0.17785645
1725722087169,2024-09-07T15:14:47.169Z,222649,0.09222412,0.9767456,0.14660645
1725722087214,2024-09-07T15:14:47.214Z,222694,0.05657959,0.9749756,0.14978027
1725722087268,2024-09-07T15:14:47.268Z,222748,0.08331299,0.97869873,0.15258789
1725722087300,2024-09-07T15:14:47.300Z,222780,0.09222412,0.9741211,0.1362915
1725722087352,2024-09-07T15:14:47.352Z,222832,0.051086426,0.9515381,0.08270264
1725722087395,2024-09-07T15:14:47.395Z,222875,0.048217773,0.9602051,0.06347656
1725722087440,2024-09-07T15:14:47.440Z,222920,0.038330078,0.9684448,0.09234619
1725722087482,2024-09-07T15:14:47.482Z,222962,0.09088135,0.9984741,0.047058105
1725722087508,2024-09-07T15:14:47.508Z,222988,0.054992676,0.9846802,0.03704834
1725722087531,2024-09-07T15:14:47.531Z,223011,0.037841797,0.9827881,0.0115356445
1725722087570,2024-09-07T15:14:47.570Z,223050,0.07373047,0.984375,0.04937744
1725722087620,2024-09-07T15:14:47.620Z,223100,0.072631836,0.9959717,0.032226562
1725722087666,2024-09-07T15:14:47.666Z,223146,0.040527344,1.0028687,-0.014892578
1725722087706,2024-09-07T15:14:47.706Z,223186,0.05834961,1.0305176,0.016235352
1725722087757,2024-09-07T15:14:47.757Z,223237,0.07507324,1.0652466,0.02911377
1725722087796,2024-09-07T15:14:47.796Z,223276,0.048583984,1.02771,0.04321289
1725722087841,2024-09-07T15:14:47.841Z,223321,0.0625,1.008728,-0.015808105
1725722087886,2024-09-07T15:14:47.886Z,223366,0.04815674,0.97943115,-0.002319336
1725722087934,2024-09-07T15:14:47.934Z,223414,0.0670166,0.9697876,0.010375977
1725722087957,2024-09-07T15:14:47.957Z,223437,0.031433105,1.0063477,-0.044189453
1725722087977,2024-09-07T15:14:47.977Z,223457,0.01159668,1.0114746,-0.040527344
1725722088021,2024-09-07T15:14:48.021Z,223501,0.04547119,1.027832,-0.02911377
1725722088067,2024-09-07T15:14:48.067Z,223547,0.03338623,1.0159912,-0.06439209
1725722088117,2024-09-07T15:14:48.117Z,223597,-0.020751953,0.99731445,-0.04736328
1725722088162,2024-09-07T15:14:48.162Z,223642,0.04333496,0.98620605,-0.06439209
1725722088200,2024-09-07T15:14:48.200Z,223680,0.026611328,0.9761963,-0.029418945
1725722088249,2024-09-07T15:14:48.249Z,223729,-0.00793457,0.9938965,-0.10571289
1725722088296,2024-09-07T15:14:48.296Z,223776,0.040283203,1.005249,-0.07733154
1725722088338,2024-09-07T15:14:48.338Z,223818,0.068847656,1.010315,-0.037841797
1725722088363,2024-09-07T15:14:48.363Z,223843,0.07318115,1.02594,-0.0814209
1725722088383,2024-09-07T15:14:48.383Z,223863,-0.0018920898,0.9995117,-0.084106445
1725722088425,2024-09-07T15:14:48.425Z,223905,0.045715332,1.0027466,-0.13433838
1725722088471,2024-09-07T15:14:48.471Z,223951,0.010070801,0.9746704,-0.12652588
1725722088521,2024-09-07T15:14:48.521Z,224001,0.06237793,0.9998169,-0.15704346
1725722088563,2024-09-07T15:14:48.563Z,224043,-0.05621338,0.97247314,-0.049194336
1725722088607,2024-09-07T15:14:48.607Z,224087,0.123168945,1.08844,-0.07244873
1725722088650,2024-09-07T15:14:48.650Z,224130,0.023010254,0.96295166,-0.11566162
1725722088700,2024-09-07T15:14:48.700Z,224180,-0.008239746,1.0095825,-0.13909912
1725722088741,2024-09-07T15:14:48.741Z,224221,-0.042541504,1.0136719,-0.12554932
1725722088765,2024-09-07T15:14:48.765Z,224245,0.03302002,1.0471802,-0.13146973
1725722088786,2024-09-07T15:14:48.786Z,224266,-0.004333496,0.9734497,-0.057556152
1725722088831,2024-09-07T15:14:48.831Z,224311,0.040039062,0.9841919,-0.12463379
1725722088881,2024-09-07T15:14:48.881Z,224361,-0.049438477,0.979126,-0.12731934
1725722088919,2024-09-07T15:14:48.919Z,224399,0.024047852,1.0198364,-0.21124268
1725722088970,2024-09-07T15:14:48.970Z,224450,0.0119018555,1.0184937,-0.1897583
1725722089018,2024-09-07T15:14:49.018Z,224498,0.005859375,1.0473022,-0.19122314
1725722089058,2024-09-07T15:14:49.058Z,224538,-0.04345703,1.03656,-0.10748291
1725722089100,2024-09-07T15:14:49.100Z,224580,0.064697266,1.0540161,-0.11743164
1725722089153,2024-09-07T15:14:49.153Z,224633,0.058898926,0.98010254,-0.08148193
1725722089193,2024-09-07T15:14:49.193Z,224673,0.010070801,0.9758911,-0.11553955
1725722089221,2024-09-07T15:14:49.221Z,224701,0.030700684,1.0148926,-0.12945557
1725722089242,2024-09-07T15:14:49.242Z,224722,0.016479492,0.99432373,-0.11022949
1725722089282,2024-09-07T15:14:49.282Z,224762,0.043518066,1.0085449,-0.11859131
1725722089327,2024-09-07T15:14:49.327Z,224807,0.025817871,1.0344238,-0.119628906
1725722089371,2024-09-07T15:14:49.371Z,224851,-0.0037841797,1.057251,-0.13323975
1725722089432,2024-09-07T15:14:49.432Z,224912,0.027526855,1.0366211,-0.082458496
1725722089467,2024-09-07T15:14:49.467Z,224947,0.038330078,1.074646,-0.14758301
1725722089560,2024-09-07T15:14:49.560Z,225040,0.028015137,1.072815,-0.18145752
1725722089594,2024-09-07T15:14:49.594Z,225074,0.09503174,1.0509033,-0.16461182
1725722089622,2024-09-07T15:14:49.622Z,225102,0.084472656,1.0354004,-0.13250732
1725722089644,2024-09-07T15:14:49.644Z,225124,0.020324707,1.0425415,-0.14447021
1725722089660,2024-09-07T15:14:49.660Z,225140,0.026550293,1.0518799,-0.17901611
1725722089685,2024-09-07T15:14:49.685Z,225165,0.0048217773,1.0236816,-0.16442871
1725722089732,2024-09-07T15:14:49.732Z,225212,0.09008789,1.0438843,-0.15014648
1725722089779,2024-09-07T15:14:49.779Z,225259,0.043518066,1.0284424,-0.14385986
1725722089829,2024-09-07T15:14:49.829Z,225309,0.008728027,1.055542,-0.12646484
1725722089868,2024-09-07T15:14:49.868Z,225348,0.051208496,1.0501099,-0.0914917
1725722089911,2024-09-07T15:14:49.911Z,225391,0.031433105,1.0458374,-0.07537842
1725722089960,2024-09-07T15:14:49.960Z,225440,0.05230713,1.0773315,-0.09313965
1725722090004,2024-09-07T15:14:50.004Z,225484,-0.053527832,1.0219116,-0.07550049
1725722090030,2024-09-07T15:14:50.030Z,225510,-0.01184082,1.0740967,-0.10614014
1725722090051,2024-09-07T15:14:50.051Z,225531,0.022705078,1.0354004,-0.04534912
1725722090091,2024-09-07T15:14:50.091Z,225571,0.040527344,1.0101929,-0.034729004
1725722090142,2024-09-07T15:14:50.142Z,225622,0.019348145,1.0084229,-0.04949951
1725722090181,2024-09-07T15:14:50.181Z,225661,-0.0056152344,0.9993286,-0.045410156
1725722090228,2024-09-07T15:14:50.228Z,225708,0.03173828,1.0249023,-0.07714844
1725722090270,2024-09-07T15:14:50.270Z,225750,0.00793457,1.024353,-0.043884277
1725722090321,2024-09-07T15:14:50.321Z,225801,0.03149414,1.0352783,-0.042663574
1725722090363,2024-09-07T15:14:50.363Z,225843,0.049865723,1.0201416,-0.048095703
1725722090412,2024-09-07T15:14:50.412Z,225892,0.039855957,1.0202026,-0.088256836
1725722090453,2024-09-07T15:14:50.453Z,225933,0.027160645,1.0040283,-0.099609375
1725722090473,2024-09-07T15:14:50.473Z,225953,0.04284668,0.9929199,-0.03564453
1725722090494,2024-09-07T15:14:50.494Z,225974,0.045776367,1.0186768,-0.035095215
1725722090540,2024-09-07T15:14:50.540Z,226020,6.713867E-4,1.0212402,-0.044311523
1725722090592,2024-09-07T15:14:50.592Z,226072,0.03643799,1.027771,-0.050109863
1725722090632,2024-09-07T15:14:50.632Z,226112,0.0569458,1.0231323,0.011230469
1725722090680,2024-09-07T15:14:50.680Z,226160,0.0357666,1.0093994,0.0045776367
1725722090722,2024-09-07T15:14:50.722Z,226202,0.007080078,0.99816895,0.02545166
1725722090773,2024-09-07T15:14:50.773Z,226253,0.04248047,1.0158081,0.029174805
1725722090823,2024-09-07T15:14:50.823Z,226303,0.030761719,1.0233765,-2.4414062E-4
1725722090861,2024-09-07T15:14:50.861Z,226341,0.03881836,1.0201416,0.0033569336
1725722090884,2024-09-07T15:14:50.884Z,226364,0.028442383,1.0023804,0.044128418
1725722090907,2024-09-07T15:14:50.907Z,226387,0.053100586,1.0091553,0.044006348
1725722090944,2024-09-07T15:14:50.944Z,226424,0.043151855,0.9677124,0.06652832
1725722090994,2024-09-07T15:14:50.994Z,226474,0.1005249,0.98779297,-4.8828125E-4
1725722091040,2024-09-07T15:14:51.040Z,226520,0.06072998,0.9736328,0.06488037
1725722091081,2024-09-07T15:14:51.081Z,226561,0.06842041,0.9789429,0.06286621
1725722091134,2024-09-07T15:14:51.134Z,226614,0.078308105,1.0305786,0.045776367
1725722091173,2024-09-07T15:14:51.173Z,226653,0.012268066,0.9940796,0.09716797
1725722091220,2024-09-07T15:14:51.220Z,226700,0.08148193,0.9904785,0.07867432
1725722091261,2024-09-07T15:14:51.261Z,226741,0.053710938,0.9591675,0.103393555
1725722091283,2024-09-07T15:14:51.283Z,226763,0.052856445,0.9655762,0.10632324
1725722091306,2024-09-07T15:14:51.306Z,226786,0.07104492,0.9625244,0.123413086
1725722091355,2024-09-07T15:14:51.355Z,226835,0.04437256,0.96624756,0.17022705
1725722091397,2024-09-07T15:14:51.397Z,226877,0.078186035,0.99884033,0.12426758
1725722091443,2024-09-07T15:14:51.443Z,226923,0.07385254,0.99102783,0.15063477
1725722091490,2024-09-07T15:14:51.490Z,226970,0.095825195,0.9783325,0.17407227
1725722091536,2024-09-07T15:14:51.536Z,227016,0.13439941,0.9873657,0.16625977
1725722091576,2024-09-07T15:14:51.576Z,227056,0.08630371,0.9534912,0.2140503
1725722091625,2024-09-07T15:14:51.625Z,227105,0.10101318,0.9660034,0.17907715
1725722091673,2024-09-07T15:14:51.673Z,227153,0.06591797,0.9470215,0.18218994
1725722091711,2024-09-07T15:14:51.711Z,227191,0.06750488,0.9266968,0.2444458
1725722091732,2024-09-07T15:14:51.732Z,227212,0.07543945,0.9284668,0.2567749
1725722091760,2024-09-07T15:14:51.760Z,227240,0.062072754,0.9248657,0.28289795
1725722091806,2024-09-07T15:14:51.806Z,227286,0.08355713,0.899292,0.2915039
1725722091848,2024-09-07T15:14:51.848Z,227328,0.09307861,0.8911133,0.31066895
1725722091893,2024-09-07T15:14:51.893Z,227373,0.12438965,0.9418335,0.25860596
1725722091939,2024-09-07T15:14:51.939Z,227419,0.15795898,0.9376221,0.26055908
1725722091982,2024-09-07T15:14:51.982Z,227462,0.16333008,0.9284668,0.26190186
1725722092025,2024-09-07T15:14:52.025Z,227505,0.15710449,0.946167,0.30267334
1725722092072,2024-09-07T15:14:52.072Z,227552,0.1574707,0.95288086,0.315979
1725722092115,2024-09-07T15:14:52.115Z,227595,0.14129639,0.9536743,0.28173828
1725722092139,2024-09-07T15:14:52.139Z,227619,0.14611816,0.9460449,0.3062744
1725722092163,2024-09-07T15:14:52.163Z,227643,0.16644287,0.9498291,0.30963135
1725722207654,2024-09-07T15:16:47.654Z,343134,-0.14361572,-0.97875977,0.13439941
1725722207692,2024-09-07T15:16:47.692Z,343172,-0.13195801,-0.97869873,0.13317871
1725722207719,2024-09-07T15:16:47.719Z,343199,-0.13269043,-0.97320557,0.1461792
1725722207764,2024-09-07T15:16:47.764Z,343244,-0.1375122,-0.9694214,0.14538574
1725722207811,2024-09-07T15:16:47.811Z,343291,-0.1529541,-0.9700928,0.14910889
1725722207860,2024-09-07T15:16:47.860Z,343340,-0.15844727,-0.9598999,0.14819336
1725722207906,2024-09-07T15:16:47.906Z,343386,-0.16046143,-0.94885254,0.13891602
1725722207947,2024-09-07T15:16:47.947Z,343427,-0.15539551,-0.94836426,0.1408081
1725722207989,2024-09-07T15:16:47.989Z,343469,-0.15515137,-0.95458984,0.15203857
1725722208037,2024-09-07T15:16:48.037Z,343517,-0.15039062,-0.9621582,0.14239502
1725722208065,2024-09-07T15:16:48.065Z,343545,-0.15014648,-0.9678345,0.15100098
1725722208090,2024-09-07T15:16:48.090Z,343570,-0.14916992,-0.9656372,0.15759277
1725722208126,2024-09-07T15:16:48.126Z,343606,-0.14697266,-0.9640503,0.13964844
1725722208175,2024-09-07T15:16:48.175Z,343655,-0.15411377,-0.9711304,0.14453125
1725722208220,2024-09-07T15:16:48.220Z,343700,-0.15466309,-0.97558594,0.15167236
1725722208261,2024-09-07T15:16:48.261Z,343741,-0.1486206,-0.97735596,0.14379883
1725722208310,2024-09-07T15:16:48.310Z,343790,-0.15252686,-0.9747925,0.14312744
1725722208351,2024-09-07T15:16:48.351Z,343831,-0.15216064,-0.9723511,0.14678955
1725722208396,2024-09-07T15:16:48.396Z,343876,-0.15270996,-0.96984863,0.13500977
1725722208444,2024-09-07T15:16:48.444Z,343924,-0.16070557,-0.96417236,0.14031982
1725722208486,2024-09-07T15:16:48.486Z,343966,-0.15594482,-0.95422363,0.13696289
1725722208518,2024-09-07T15:16:48.518Z,343998,-0.15246582,-0.9524536,0.14422607
1725722208545,2024-09-07T15:16:48.545Z,344025,-0.16247559,-0.949646,0.1385498
1725722208577,2024-09-07T15:16:48.577Z,344057,-0.17932129,-0.95758057,0.14935303
1725722208620,2024-09-07T15:16:48.620Z,344100,-0.16748047,-0.95758057,0.14709473
1725722208665,2024-09-07T15:16:48.665Z,344145,-0.17181396,-0.9476929,0.14575195
1725722208713,2024-09-07T15:16:48.713Z,344193,-0.17932129,-0.94610596,0.14727783
1725722208759,2024-09-07T15:16:48.759Z,344239,-0.17437744,-0.92614746,0.15032959
1725722208804,2024-09-07T15:16:48.804Z,344284,-0.15698242,-0.88690186,0.1519165
1725722208848,2024-09-07T15:16:48.848Z,344328,-0.14978027,-0.86120605,0.14648438
1725722208893,2024-09-07T15:16:48.893Z,344373,-0.14233398,-0.84069824,0.1461792
1725722208927,2024-09-07T15:16:48.927Z,344407,-0.13012695,-0.82751465,0.12915039
1725722208953,2024-09-07T15:16:48.953Z,344433,-0.11199951,-0.8198242,0.14978027
1725722208981,2024-09-07T15:16:48.981Z,344461,-0.122802734,-0.8466797,0.14447021
1725722209030,2024-09-07T15:16:49.030Z,344510,-0.13604736,-0.89764404,0.17590332
1725722209071,2024-09-07T15:16:49.071Z,344551,-0.15698242,-0.92962646,0.17871094
1725722209116,2024-09-07T15:16:49.116Z,344596,-0.14819336,-0.9156494,0.19018555
1725722209165,2024-09-07T15:16:49.165Z,344645,-0.15515137,-0.892334,0.21972656
1725722209206,2024-09-07T15:16:49.206Z,344686,-0.15893555,-0.90631104,0.18341064
1725722209251,2024-09-07T15:16:49.251Z,344731,-0.17926025,-0.9326172,0.20727539
1725722209296,2024-09-07T15:16:49.296Z,344776,-0.18902588,-0.9562988,0.19067383
1725722209325,2024-09-07T15:16:49.325Z,344805,-0.18383789,-0.94903564,0.20721436
1725722209390,2024-09-07T15:16:49.390Z,344870,-0.19018555,-0.9359131,0.23510742
1725722209416,2024-09-07T15:16:49.416Z,344896,-0.19818115,-0.92315674,0.23388672
1725722209443,2024-09-07T15:16:49.443Z,344923,-0.22955322,-0.9476929,0.23248291
1725722209476,2024-09-07T15:16:49.476Z,344956,-0.19732666,-0.9747925,0.2522583
1725722209521,2024-09-07T15:16:49.521Z,345001,-0.19152832,-0.961792,0.28118896
1725722209566,2024-09-07T15:16:49.566Z,345046,-0.1708374,-0.93981934,0.28649902
1725722209613,2024-09-07T15:16:49.613Z,345093,-0.16571045,-0.93444824,0.3036499
1725722209657,2024-09-07T15:16:49.657Z,345137,-0.19506836,-0.93634033,0.28631592
1725722209703,2024-09-07T15:16:49.703Z,345183,-0.22930908,-0.94921875,0.28179932
1725722209747,2024-09-07T15:16:49.747Z,345227,-0.20697021,-0.94677734,0.27954102
1725722209774,2024-09-07T15:16:49.774Z,345254,-0.21472168,-0.9348755,0.2607422
1725722209797,2024-09-07T15:16:49.797Z,345277,-0.18945312,-0.95513916,0.29040527
1725722209836,2024-09-07T15:16:49.836Z,345316,-0.19934082,-1.006897,0.25476074
1725722209882,2024-09-07T15:16:49.882Z,345362,-0.17938232,-1.0289917,0.2720337
1725722209926,2024-09-07T15:16:49.926Z,345406,-0.16442871,-0.9911499,0.2871704
1725722210018,2024-09-07T15:16:50.018Z,345498,-0.1453247,-0.9788208,0.26586914
1725722210044,2024-09-07T15:16:50.044Z,345524,-0.1585083,-0.96917725,0.2668457
1725722210073,2024-09-07T15:16:50.073Z,345553,-0.16113281,-0.94677734,0.23779297
1725722210105,2024-09-07T15:16:50.105Z,345585,-0.18371582,-0.9281006,0.19384766
1725722210151,2024-09-07T15:16:50.151Z,345631,-0.20153809,-0.9260254,0.2084961
1725722210176,2024-09-07T15:16:50.176Z,345656,-0.17095947,-0.928772,0.1895752
1725722210198,2024-09-07T15:16:50.198Z,345678,-0.16711426,-0.94940186,0.22729492
1725722210240,2024-09-07T15:16:50.240Z,345720,-0.14587402,-0.987854,0.21191406
1725722210287,2024-09-07T15:16:50.287Z,345767,-0.17022705,-1.0019531,0.2109375
1725722210330,2024-09-07T15:16:50.330Z,345810,-0.18969727,-1.0602417,0.21356201
1725722210377,2024-09-07T15:16:50.377Z,345857,-0.16687012,-1.0805664,0.20367432
1725722210421,2024-09-07T15:16:50.421Z,345901,-0.15783691,-1.0491333,0.24230957
1725722210512,2024-09-07T15:16:50.512Z,345992,-0.16101074,-1.0621948,0.25128174
1725722210537,2024-09-07T15:16:50.537Z,346017,-0.18664551,-1.0613403,0.234375
1725722210566,2024-09-07T15:16:50.566Z,346046,-0.24316406,-1.0770874,0.22607422
1725722210592,2024-09-07T15:16:50.592Z,346072,-0.22961426,-1.0496826,0.24847412
1725722210614,2024-09-07T15:16:50.614Z,346094,-0.21118164,-1.0250244,0.25427246
1725722210645,2024-09-07T15:16:50.645Z,346125,-0.18719482,-1.0291748,0.2538452
1725722210691,2024-09-07T15:16:50.691Z,346171,-0.20092773,-1.0258179,0.2600708
1725722210738,2024-09-07T15:16:50.738Z,346218,-0.1987915,-1.0356445,0.26324463
1725722210781,2024-09-07T15:16:50.781Z,346261,-0.20635986,-1.0230103,0.25994873
1725722210826,2024-09-07T15:16:50.826Z,346306,-0.2076416,-1.0031128,0.24737549
1725722210871,2024-09-07T15:16:50.871Z,346351,-0.19848633,-0.9920654,0.21636963
1725722210916,2024-09-07T15:16:50.916Z,346396,-0.18457031,-1.0061035,0.21325684
1725722210963,2024-09-07T15:16:50.963Z,346443,-0.16998291,-1.0065918,0.22540283
1725722211005,2024-09-07T15:16:51.005Z,346485,-0.20324707,-1.0071411,0.21759033
1725722211035,2024-09-07T15:16:51.035Z,346515,-0.23010254,-1.0158691,0.22570801
1725722211060,2024-09-07T15:16:51.060Z,346540,-0.22729492,-1.0106812,0.21057129
1725722211096,2024-09-07T15:16:51.096Z,346576,-0.21820068,-0.9894409,0.20806885
1725722211143,2024-09-07T15:16:51.143Z,346623,-0.23095703,-0.97717285,0.19555664
1725722211187,2024-09-07T15:16:51.187Z,346667,-0.25170898,-0.9526367,0.1854248
1725722211233,2024-09-07T15:16:51.233Z,346713,-0.27075195,-0.92736816,0.17773438
1725722211275,2024-09-07T15:16:51.275Z,346755,-0.26385498,-0.9160156,0.18719482
1725722211321,2024-09-07T15:16:51.321Z,346801,-0.26849365,-0.90771484,0.17285156
1725722211367,2024-09-07T15:16:51.367Z,346847,-0.2670288,-0.90789795,0.18292236
1725722211562,2024-09-07T15:16:51.562Z,347042,-0.25750732,-0.91693115,0.18487549
1725722211608,2024-09-07T15:16:51.608Z,347088,-0.26086426,-0.9331665,0.17852783
1725722211645,2024-09-07T15:16:51.645Z,347125,-0.27557373,-0.9520874,0.17071533
1725722211674,2024-09-07T15:16:51.674Z,347154,-0.270813,-0.95233154,0.17608643
1725722211696,2024-09-07T15:16:51.696Z,347176,-0.27478027,-0.94177246,0.17437744
1725722211722,2024-09-07T15:16:51.722Z,347202,-0.27404785,-0.9423828,0.1505127
1725722211744,2024-09-07T15:16:51.744Z,347224,-0.2553711,-0.93414307,0.1427002
1725722211767,2024-09-07T15:16:51.767Z,347247,-0.24804688,-0.9171753,0.15942383
1725722211791,2024-09-07T15:16:51.791Z,347271,-0.256958,-0.9171753,0.14202881
1725722211810,2024-09-07T15:16:51.810Z,347290,-0.27416992,-0.9116821,0.12908936
1725722211832,2024-09-07T15:16:51.832Z,347312,-0.27105713,-0.8933716,0.125
1725722211854,2024-09-07T15:16:51.854Z,347334,-0.25286865,-0.87719727,0.1171875
1725722211877,2024-09-07T15:16:51.877Z,347357,-0.25231934,-0.88549805,0.11315918
1725722211905,2024-09-07T15:16:51.905Z,347385,-0.25372314,-0.9019165,0.10443115
1725722211955,2024-09-07T15:16:51.955Z,347435,-0.24707031,-0.911499,0.116882324
1725722211996,2024-09-07T15:16:51.996Z,347476,-0.2520752,-0.9034424,0.115478516
1725722212040,2024-09-07T15:16:52.040Z,347520,-0.2644043,-0.8952637,0.11859131
1725722212086,2024-09-07T15:16:52.086Z,347566,-0.26434326,-0.87561035,0.103515625
1725722212134,2024-09-07T15:16:52.134Z,347614,-0.24353027,-0.8532715,0.10571289
1725722212176,2024-09-07T15:16:52.176Z,347656,-0.22161865,-0.8397217,0.09906006
1725722212221,2024-09-07T15:16:52.221Z,347701,-0.21911621,-0.83807373,0.08728027
1725722212248,2024-09-07T15:16:52.248Z,347728,-0.24035645,-0.86590576,0.07458496
1725722212273,2024-09-07T15:16:52.273Z,347753,-0.27600098,-0.9022217,0.043273926
1725722212311,2024-09-07T15:16:52.311Z,347791,-0.28405762,-0.920166,0.022521973
1725722212356,2024-09-07T15:16:52.356Z,347836,-0.27172852,-0.94970703,0.032836914
1725722212403,2024-09-07T15:16:52.403Z,347883,-0.27703857,-0.9918823,0.055419922
1725722212446,2024-09-07T15:16:52.446Z,347926,-0.26641846,-0.99438477,0.07299805
1725722212493,2024-09-07T15:16:52.493Z,347973,-0.2612915,-0.96313477,0.07476807
1725722212536,2024-09-07T15:16:52.536Z,348016,-0.28771973,-0.942688,0.062927246
1725722212582,2024-09-07T15:16:52.582Z,348062,-0.30914307,-0.9456787,0.044799805
1725722212626,2024-09-07T15:16:52.626Z,348106,-0.30322266,-0.94018555,0.05822754
1725722212672,2024-09-07T15:16:52.672Z,348152,-0.29608154,-0.93011475,0.07623291
1725722212705,2024-09-07T15:16:52.705Z,348185,-0.31304932,-0.9246826,0.05218506
1725722212729,2024-09-07T15:16:52.729Z,348209,-0.31524658,-0.93865967,0.051696777
1725722212759,2024-09-07T15:16:52.759Z,348239,-0.30932617,-0.9387207,0.06384277
1725722212807,2024-09-07T15:16:52.807Z,348287,-0.30303955,-0.93865967,0.06274414
1725722212855,2024-09-07T15:16:52.855Z,348335,-0.30316162,-0.9428711,0.070373535
1725722212896,2024-09-07T15:16:52.896Z,348376,-0.30023193,-0.94488525,0.061157227
1725722212940,2024-09-07T15:16:52.940Z,348420,-0.3065796,-0.947937,0.053588867
1725722212986,2024-09-07T15:16:52.986Z,348466,-0.3086548,-0.9571533,0.038635254
1725722213032,2024-09-07T15:16:53.032Z,348512,-0.2869873,-0.9510498,0.053222656
1725722213078,2024-09-07T15:16:53.078Z,348558,-0.27124023,-0.9493408,0.0579834
1725722213110,2024-09-07T15:16:53.110Z,348590,-0.27349854,-0.95111084,0.060302734
1725722213133,2024-09-07T15:16:53.133Z,348613,-0.27770996,-0.95251465,0.058410645
1725722213165,2024-09-07T15:16:53.165Z,348645,-0.2866211,-0.9312744,0.050598145
1725722213211,2024-09-07T15:16:53.211Z,348691,-0.2699585,-0.90319824,0.03387451
1725722213255,2024-09-07T15:16:53.255Z,348735,-0.23773193,-0.8804321,0.045959473
1725722213303,2024-09-07T15:16:53.303Z,348783,-0.2140503,-0.8649292,0.0513916
1725722213348,2024-09-07T15:16:53.348Z,348828,-0.1984253,-0.8690796,0.059265137
1725722213391,2024-09-07T15:16:53.391Z,348871,-0.22265625,-0.9002075,0.071899414
1725722213439,2024-09-07T15:16:53.439Z,348919,-0.24676514,-0.91485596,0.08306885
1725722213483,2024-09-07T15:16:53.483Z,348963,-0.25708008,-0.91851807,0.09362793
1725722213517,2024-09-07T15:16:53.517Z,348997,-0.2859497,-0.94281006,0.09057617
1725722213542,2024-09-07T15:16:53.542Z,349022,-0.27807617,-0.92004395,0.070373535
1725722213569,2024-09-07T15:16:53.569Z,349049,-0.2475586,-0.87615967,0.06335449
1725722213617,2024-09-07T15:16:53.617Z,349097,-0.26446533,-0.8634033,0.072753906
1725722213661,2024-09-07T15:16:53.661Z,349141,-0.2814331,-0.8666382,0.078063965
1725722213706,2024-09-07T15:16:53.706Z,349186,-0.2828369,-0.8648071,0.12506104
1725722213753,2024-09-07T15:16:53.753Z,349233,-0.2805786,-0.8552246,0.1652832
1725722213815,2024-09-07T15:16:53.815Z,349295,-0.27294922,-0.87023926,0.13879395
1725722213983,2024-09-07T15:16:53.983Z,349463,-0.27496338,-0.90008545,0.15484619
1725722214019,2024-09-07T15:16:54.019Z,349499,-0.28900146,-0.923584,0.17419434
1725722214051,2024-09-07T15:16:54.051Z,349531,-0.3209839,-0.9282837,0.14160156
1725722214081,2024-09-07T15:16:54.081Z,349561,-0.3126831,-0.9178467,0.13061523
1725722214105,2024-09-07T15:16:54.105Z,349585,-0.2913208,-0.9146118,0.15899658
1725722214126,2024-09-07T15:16:54.126Z,349606,-0.30895996,-0.93518066,0.16290283
1725722214146,2024-09-07T15:16:54.146Z,349626,-0.29870605,-0.9298096,0.16149902
1725722214168,2024-09-07T15:16:54.168Z,349648,-0.2541504,-0.92767334,0.18634033
1725722214188,2024-09-07T15:16:54.188Z,349668,-0.21917725,-0.95874023,0.23504639
1725722214214,2024-09-07T15:16:54.214Z,349694,-0.24279785,-0.97180176,0.21911621
1725722214245,2024-09-07T15:16:54.245Z,349725,-0.23614502,-0.97888184,0.19140625
1725722214291,2024-09-07T15:16:54.291Z,349771,-0.21954346,-0.96881104,0.20489502
1725722214338,2024-09-07T15:16:54.338Z,349818,-0.21063232,-0.9703369,0.20648193
1725722214360,2024-09-07T15:16:54.360Z,349840,-0.20825195,-0.99884033,0.2074585
1725722214380,2024-09-07T15:16:54.380Z,349860,-0.20092773,-1.0165405,0.1819458
1725722214425,2024-09-07T15:16:54.425Z,349905,-0.18896484,-1.0084229,0.2220459
1725722214476,2024-09-07T15:16:54.476Z,349956,-0.21148682,-0.99005127,0.2288208
1725722214517,2024-09-07T15:16:54.517Z,349997,-0.21087646,-1.0059204,0.17736816
1725722214561,2024-09-07T15:16:54.561Z,350041,-0.20605469,-0.98236084,0.21044922
1725722214605,2024-09-07T15:16:54.605Z,350085,-0.20153809,-0.95861816,0.19702148
1725722214650,2024-09-07T15:16:54.650Z,350130,-0.20617676,-0.97595215,0.18572998
1725722214695,2024-09-07T15:16:54.695Z,350175,-0.20391846,-0.99090576,0.15795898
1725722214789,2024-09-07T15:16:54.789Z,350269,-0.19824219,-1.0038452,0.18847656
1725722214818,2024-09-07T15:16:54.818Z,350298,-0.20513916,-1.0031738,0.203125
1725722214846,2024-09-07T15:16:54.846Z,350326,-0.21392822,-1.0147705,0.2078247
1725722214869,2024-09-07T15:16:54.869Z,350349,-0.22155762,-1.0213013,0.21600342
1725722214891,2024-09-07T15:16:54.891Z,350371,-0.19506836,-1.0197754,0.22174072
1725722214920,2024-09-07T15:16:54.920Z,350400,-0.19213867,-1.020752,0.20452881
1725722214973,2024-09-07T15:16:54.973Z,350453,-0.17486572,-1.0405884,0.19866943
