Timestamp (ms),ISO DateTime,Elapsed Time (ms),Acceleration X,Acceleration Y,Acceleration Z
1725699323763,2024-09-07T08:55:23.763Z,36084,0.17089844,0.8989258,0.20672607
1725699323805,2024-09-07T08:55:23.805Z,36126,0.16296387,0.8327637,0.15692139
1725699323850,2024-09-07T08:55:23.850Z,36171,0.19836426,0.8477173,0.16412354
1725699323897,2024-09-07T08:55:23.897Z,36218,0.24633789,0.928772,0.16027832
1725699323909,2024-09-07T08:55:23.909Z,36230,0.1772461,0.97869873,0.18896484
1725699323939,2024-09-07T08:55:23.939Z,36260,0.14263916,1.0427856,0.13848877
1725699323984,2024-09-07T08:55:23.984Z,36305,0.16711426,0.93640137,0.14025879
1725699324035,2024-09-07T08:55:24.035Z,36356,0.26000977,0.913208,0.13317871
1725699324080,2024-09-07T08:55:24.080Z,36401,0.15692139,0.9215698,0.11047363
1725699324125,2024-09-07T08:55:24.125Z,36446,0.1560669,0.9291382,0.16479492
1725699324171,2024-09-07T08:55:24.171Z,36492,0.16381836,0.95458984,0.11529541
1725699324217,2024-09-07T08:55:24.217Z,36538,0.2098999,0.98083496,0.07904053
1725699324261,2024-09-07T08:55:24.261Z,36582,0.23699951,0.9389038,0.13049316
1725699324309,2024-09-07T08:55:24.309Z,36630,0.1550293,0.97821045,0.051818848
1725699324354,2024-09-07T08:55:24.354Z,36675,0.21881104,0.9765625,0.052490234
1725699324378,2024-09-07T08:55:24.378Z,36699,0.22009277,0.95025635,0.05609131
1725699324397,2024-09-07T08:55:24.397Z,36718,0.22052002,0.93377686,0.029052734
1725699324439,2024-09-07T08:55:24.439Z,36760,0.23754883,0.9067383,0.035705566
1725699324486,2024-09-07T08:55:24.486Z,36807,0.20635986,0.9260864,0.0021972656
1725699324535,2024-09-07T08:55:24.535Z,36856,0.2453003,0.9454956,0.033447266
1725699324577,2024-09-07T08:55:24.577Z,36898,0.23925781,0.9906616,-0.018188477
1725699324622,2024-09-07T08:55:24.622Z,36943,0.20501709,1.0317383,0.013977051
1725699324667,2024-09-07T08:55:24.667Z,36988,0.1984253,1.0018921,-0.0057373047
1725699324712,2024-09-07T08:55:24.712Z,37033,0.21209717,1.0089111,-0.029968262
1725699324800,2024-09-07T08:55:24.800Z,37121,0.20922852,1.0021973,0.029296875
1725699324820,2024-09-07T08:55:24.820Z,37141,0.1928711,1.0481567,-0.022766113
1725699324840,2024-09-07T08:55:24.840Z,37161,0.16656494,1.0184326,0.007385254
1725699324856,2024-09-07T08:55:24.856Z,37177,0.19573975,0.98986816,0.03668213
1725699324885,2024-09-07T08:55:24.885Z,37206,0.21392822,1.0127563,0.0524292
1725699324931,2024-09-07T08:55:24.931Z,37252,0.13452148,1.0222778,0.027526855
1725699324977,2024-09-07T08:55:24.977Z,37298,0.17218018,0.98358154,0.0031738281
1725699325023,2024-09-07T08:55:25.023Z,37344,0.20733643,0.94659424,-0.04901123
1725699325070,2024-09-07T08:55:25.070Z,37391,0.13922119,0.9869995,-0.114990234
1725699325114,2024-09-07T08:55:25.114Z,37435,0.18676758,0.9453125,0.0056762695
1725699325160,2024-09-07T08:55:25.160Z,37481,0.20495605,0.9602661,-0.05895996
1725699325182,2024-09-07T08:55:25.182Z,37503,0.1899414,0.9957886,-0.103637695
1725699325203,2024-09-07T08:55:25.203Z,37524,0.2345581,0.9555054,-0.038879395
1725699325251,2024-09-07T08:55:25.251Z,37572,0.18927002,0.9663086,-0.087402344
1725699325293,2024-09-07T08:55:25.293Z,37614,0.21990967,0.9706421,-0.053588867
1725699325341,2024-09-07T08:55:25.341Z,37662,0.18707275,0.9916992,-0.05718994
1725699325386,2024-09-07T08:55:25.386Z,37707,0.20825195,1.0270386,-0.064697266
1725699325431,2024-09-07T08:55:25.431Z,37752,0.20654297,1.024231,-0.057250977
1725699325475,2024-09-07T08:55:25.475Z,37796,0.20562744,1.0299072,-0.07116699
1725699325518,2024-09-07T08:55:25.518Z,37839,0.1772461,1.0032959,-0.08514404
1725699325565,2024-09-07T08:55:25.565Z,37886,0.19903564,0.991333,-0.060546875
1725699325611,2024-09-07T08:55:25.611Z,37932,0.20965576,0.98358154,-0.091430664
1725699325631,2024-09-07T08:55:25.631Z,37952,0.20709229,0.9772339,-0.066833496
1725699325653,2024-09-07T08:55:25.653Z,37974,0.20269775,1.0181885,-0.1184082
1725699325699,2024-09-07T08:55:25.699Z,38020,0.21380615,1.0141602,-0.05810547
1725699325745,2024-09-07T08:55:25.745Z,38066,0.2043457,1.060669,-0.099975586
1725699325789,2024-09-07T08:55:25.789Z,38110,0.1998291,1.0355225,-0.103027344
1725699325838,2024-09-07T08:55:25.838Z,38159,0.21087646,1.0183716,-0.0769043
1725699325880,2024-09-07T08:55:25.880Z,38201,0.19592285,1.0076294,-0.12689209
1725699325924,2024-09-07T08:55:25.924Z,38245,0.18554688,0.9649048,-0.10986328
1725699325971,2024-09-07T08:55:25.971Z,38292,0.21881104,0.96746826,-0.11999512
1725699326019,2024-09-07T08:55:26.019Z,38340,0.18865967,0.98883057,-0.1508789
1725699326048,2024-09-07T08:55:26.048Z,38369,0.20031738,0.9976196,-0.125
1725699326072,2024-09-07T08:55:26.072Z,38393,0.20825195,1.0146484,-0.13702393
1725699326103,2024-09-07T08:55:26.103Z,38424,0.17218018,1.0159912,-0.15148926
1725699326149,2024-09-07T08:55:26.149Z,38470,0.22247314,1.0287476,-0.12573242
1725699326194,2024-09-07T08:55:26.194Z,38515,0.19012451,1.0220337,-0.13464355
1725699326238,2024-09-07T08:55:26.238Z,38559,0.18377686,1.0197754,-0.14025879
1725699326286,2024-09-07T08:55:26.286Z,38607,0.16345215,1.0161133,-0.11480713
1725699326333,2024-09-07T08:55:26.333Z,38654,0.20440674,1.0133667,-0.11315918
1725699326374,2024-09-07T08:55:26.374Z,38695,0.18249512,1.0141602,-0.097229004
1725699326421,2024-09-07T08:55:26.421Z,38742,0.19714355,1.027832,-0.1260376
1725699326448,2024-09-07T08:55:26.448Z,38769,0.19506836,0.99438477,-0.089904785
1725699326469,2024-09-07T08:55:26.469Z,38790,0.1739502,1.0140381,-0.14752197
1725699326509,2024-09-07T08:55:26.509Z,38830,0.19366455,1.0040894,-0.14709473
1725699326555,2024-09-07T08:55:26.555Z,38876,0.22174072,1.0039062,-0.13391113
1725699326600,2024-09-07T08:55:26.600Z,38921,0.19781494,1.0262451,-0.13000488
1725699326644,2024-09-07T08:55:26.644Z,38965,0.1630249,1.0592651,-0.16363525
1725699326690,2024-09-07T08:55:26.690Z,39011,0.19616699,1.0800171,-0.16778564
1725699326736,2024-09-07T08:55:26.736Z,39057,0.21783447,1.0788574,-0.117248535
1725699326780,2024-09-07T08:55:26.780Z,39101,0.19238281,1.114563,-0.118652344
1725699326825,2024-09-07T08:55:26.825Z,39146,0.18060303,1.0822144,-0.083496094
1725699326869,2024-09-07T08:55:26.869Z,39190,0.1873169,1.0883789,-0.14129639
1725699326889,2024-09-07T08:55:26.889Z,39210,0.19390869,1.0977173,-0.1505127
1725699326913,2024-09-07T08:55:26.913Z,39234,0.2487793,1.0877686,-0.10974121
1725699326958,2024-09-07T08:55:26.958Z,39279,0.17889404,1.088623,-0.14752197
1725699327005,2024-09-07T08:55:27.005Z,39326,0.1394043,1.0621948,-0.17340088
1725699327052,2024-09-07T08:55:27.052Z,39373,0.25274658,1.0359497,-0.07330322
1725699327098,2024-09-07T08:55:27.098Z,39419,0.1708374,1.0405884,-0.115356445
1725699327139,2024-09-07T08:55:27.139Z,39460,0.18591309,1.0621338,-0.14770508
1725699327184,2024-09-07T08:55:27.184Z,39505,0.19683838,1.0287476,-0.13104248
1725699327231,2024-09-07T08:55:27.231Z,39552,0.175354,1.0137329,-0.10321045
1725699327274,2024-09-07T08:55:27.274Z,39595,0.16992188,1.0126953,-0.12023926
1725699327297,2024-09-07T08:55:27.297Z,39618,0.18115234,1.0165405,-0.09661865
1725699327321,2024-09-07T08:55:27.321Z,39642,0.17810059,0.9984131,-0.10913086
1725699327361,2024-09-07T08:55:27.361Z,39682,0.2019043,1.0117798,-0.10668945
1725699327411,2024-09-07T08:55:27.411Z,39732,0.16394043,0.98309326,-0.08557129
1725699327454,2024-09-07T08:55:27.454Z,39775,0.17144775,0.96032715,-0.06542969
1725699327499,2024-09-07T08:55:27.499Z,39820,0.15991211,0.9735718,-0.056396484
1725699327543,2024-09-07T08:55:27.543Z,39864,0.23272705,0.9815674,-0.022949219
1725699327590,2024-09-07T08:55:27.590Z,39911,0.14892578,0.9963379,-0.07128906
1725699327634,2024-09-07T08:55:27.634Z,39955,0.20428467,1.0193481,-0.020446777
1725699327681,2024-09-07T08:55:27.681Z,40002,0.21148682,1.0112305,-0.041809082
1725699327704,2024-09-07T08:55:27.704Z,40025,0.16595459,0.9795532,0.032104492
1725699327719,2024-09-07T08:55:27.719Z,40040,0.16894531,0.94018555,0.08276367
1725699327767,2024-09-07T08:55:27.767Z,40088,0.1428833,0.9477539,0.014465332
1725699327813,2024-09-07T08:55:27.813Z,40134,0.18328857,0.9758301,0.0076904297
1725699327858,2024-09-07T08:55:27.858Z,40179,0.20605469,0.9277344,0.09210205
1725699327903,2024-09-07T08:55:27.903Z,40224,0.13079834,0.93774414,0.04888916
1725699327950,2024-09-07T08:55:27.950Z,40271,0.1295166,0.92755127,0.06921387
1725699327994,2024-09-07T08:55:27.994Z,40315,0.23248291,0.9193115,0.053649902
1725699328037,2024-09-07T08:55:28.037Z,40358,0.14447021,0.8833618,0.09246826
1725699328083,2024-09-07T08:55:28.083Z,40404,0.17437744,0.88897705,0.054626465
1725699328129,2024-09-07T08:55:28.129Z,40450,0.19995117,0.826416,0.18945312
1725699328149,2024-09-07T08:55:28.149Z,40470,0.20117188,0.88171387,0.11779785
1725699328170,2024-09-07T08:55:28.170Z,40491,0.175354,0.86816406,0.13781738
1725699328219,2024-09-07T08:55:28.219Z,40540,0.1651001,0.86431885,0.22302246
1725699328263,2024-09-07T08:55:28.263Z,40584,0.09399414,0.84936523,0.21655273
1725699328312,2024-09-07T08:55:28.312Z,40633,0.107666016,0.8953247,0.22283936
1725699328356,2024-09-07T08:55:28.356Z,40677,0.14849854,0.90844727,0.29803467
1725699328401,2024-09-07T08:55:28.401Z,40722,0.094177246,0.9741211,0.2734375
1725699328444,2024-09-07T08:55:28.444Z,40765,0.12072754,1.0269165,0.21325684
1725699328489,2024-09-07T08:55:28.489Z,40810,0.19024658,0.9824219,0.26080322
1725699328534,2024-09-07T08:55:28.534Z,40855,0.17126465,0.9522095,0.23492432
1725699328554,2024-09-07T08:55:28.554Z,40875,0.21124268,0.9309082,0.24835205
1725699328574,2024-09-07T08:55:28.574Z,40895,0.18225098,0.9066162,0.27416992
1725699328622,2024-09-07T08:55:28.622Z,40943,0.14593506,0.9205322,0.28656006
1725699328669,2024-09-07T08:55:28.669Z,40990,0.1609497,0.96643066,0.2555542
1725699328714,2024-09-07T08:55:28.714Z,41035,0.18688965,0.9862671,0.29992676
1725699328759,2024-09-07T08:55:28.759Z,41080,0.099853516,0.9946289,0.2672119
1725699328806,2024-09-07T08:55:28.806Z,41127,0.14886475,0.98010254,0.30133057
1725699328851,2024-09-07T08:55:28.851Z,41172,0.15802002,0.9678345,0.27789307
1725699328897,2024-09-07T08:55:28.897Z,41218,0.17443848,0.9628296,0.26409912
1725699328939,2024-09-07T08:55:28.939Z,41260,0.17352295,0.9364624,0.2506714
1725699328958,2024-09-07T08:55:28.958Z,41279,0.14227295,0.93774414,0.2675171
1725699328981,2024-09-07T08:55:28.981Z,41302,0.13647461,0.93151855,0.26287842
1725699329027,2024-09-07T08:55:29.027Z,41348,0.14801025,0.92785645,0.26519775
1725699329074,2024-09-07T08:55:29.074Z,41395,0.17010498,0.9263916,0.2520752
1725699329119,2024-09-07T08:55:29.119Z,41440,0.16204834,0.9661865,0.21228027
1725699329164,2024-09-07T08:55:29.164Z,41485,0.14239502,0.9158325,0.21606445
1725699329209,2024-09-07T08:55:29.209Z,41530,0.17108154,0.94366455,0.20703125
1725699329254,2024-09-07T08:55:29.254Z,41575,0.16192627,0.95007324,0.16973877
1725699329298,2024-09-07T08:55:29.298Z,41619,0.1619873,0.914917,0.19207764
1725699329345,2024-09-07T08:55:29.345Z,41666,0.171875,0.8948364,0.15441895
1725699329391,2024-09-07T08:55:29.391Z,41712,0.18981934,0.93640137,0.087646484
1725699329417,2024-09-07T08:55:29.417Z,41738,0.19891357,0.95965576,0.13171387
1725699329439,2024-09-07T08:55:29.439Z,41760,0.1763916,0.98168945,0.13952637
1725699329477,2024-09-07T08:55:29.477Z,41798,0.16436768,0.9866333,0.09460449
1725699329527,2024-09-07T08:55:29.527Z,41848,0.21392822,0.95111084,0.11102295
1725699329572,2024-09-07T08:55:29.572Z,41893,0.20904541,0.94085693,0.13635254
1725699329615,2024-09-07T08:55:29.615Z,41936,0.14251709,1.0009155,-0.0949707
1725699329665,2024-09-07T08:55:29.665Z,41986,0.20605469,0.9109497,0.11395264
1725699329711,2024-09-07T08:55:29.711Z,42032,0.16558838,0.95098877,0.001953125
1725699329750,2024-09-07T08:55:29.750Z,42071,0.18572998,0.9324341,-0.025146484
1725699329797,2024-09-07T08:55:29.797Z,42118,0.21166992,0.9135132,0.016479492
1725699329816,2024-09-07T08:55:29.816Z,42137,0.2286377,0.97216797,-0.013916016
1725699329836,2024-09-07T08:55:29.836Z,42157,0.203125,0.94610596,0.029968262
1725699329881,2024-09-07T08:55:29.881Z,42202,0.25183105,0.9508667,0.001953125
1725699329933,2024-09-07T08:55:29.933Z,42254,0.26031494,0.9647217,0.013549805
1725699329979,2024-09-07T08:55:29.979Z,42300,0.15515137,0.9911499,-0.0982666
1725699330021,2024-09-07T08:55:30.021Z,42342,0.21942139,0.97088623,-0.015808105
1725699330067,2024-09-07T08:55:30.067Z,42388,0.20153809,1.0001831,-0.08886719
1725699330110,2024-09-07T08:55:30.110Z,42431,0.19586182,0.9613037,-0.02545166
1725699330154,2024-09-07T08:55:30.154Z,42475,0.19696045,0.9918213,0.04522705
1725699330202,2024-09-07T08:55:30.202Z,42523,0.18426514,1.114502,0.017822266
1725699330227,2024-09-07T08:55:30.227Z,42548,0.30010986,1.3878174,-0.1459961
1725699330252,2024-09-07T08:55:30.252Z,42573,0.21380615,0.8536377,-0.019104004
1725699330287,2024-09-07T08:55:30.287Z,42608,0.18621826,0.8363037,0.09051514
1725699330334,2024-09-07T08:55:30.334Z,42655,0.13415527,1.0012817,-0.09777832
1725699330380,2024-09-07T08:55:30.380Z,42701,0.1708374,0.9805298,-0.13787842
1725699330425,2024-09-07T08:55:30.425Z,42746,0.1885376,0.95043945,-0.10998535
1725699330470,2024-09-07T08:55:30.470Z,42791,0.1640625,0.94641113,-0.07702637
1725699330514,2024-09-07T08:55:30.514Z,42835,0.18878174,0.9310303,-0.053710938
1725699330564,2024-09-07T08:55:30.564Z,42885,0.19116211,0.97003174,-0.113098145
1725699330604,2024-09-07T08:55:30.604Z,42925,0.16900635,0.99713135,-0.11853027
1725699330625,2024-09-07T08:55:30.625Z,42946,0.17712402,1.0180054,-0.05255127
1725699330645,2024-09-07T08:55:30.645Z,42966,0.1671753,1.0476074,-0.086120605
1725699330694,2024-09-07T08:55:30.694Z,43015,0.16888428,1.0852661,-0.07116699
1725699330738,2024-09-07T08:55:30.738Z,43059,0.17529297,1.0498047,-0.093444824
1725699330786,2024-09-07T08:55:30.786Z,43107,0.16668701,1.0256958,-0.09863281
1725699330828,2024-09-07T08:55:30.828Z,43149,0.17260742,1.0161743,-0.11853027
1725699330873,2024-09-07T08:55:30.873Z,43194,0.20129395,1.0088501,-0.096191406
1725699330921,2024-09-07T08:55:30.921Z,43242,0.20147705,1.0031128,-0.09637451
1725699330964,2024-09-07T08:55:30.964Z,43285,0.19122314,1.0187988,-0.13085938
1725699331011,2024-09-07T08:55:31.011Z,43332,0.13140869,1.0117188,-0.16619873
1725699331056,2024-09-07T08:55:31.056Z,43377,0.22650146,0.99853516,-0.11578369
1725699331080,2024-09-07T08:55:31.080Z,43401,0.2322998,0.98791504,-0.11090088
1725699331099,2024-09-07T08:55:31.099Z,43420,0.17858887,1.0256958,-0.17254639
1725699331139,2024-09-07T08:55:31.139Z,43460,0.21057129,0.9906006,-0.10491943
1725699331187,2024-09-07T08:55:31.187Z,43508,0.18426514,1.0626221,-0.15527344
1725699331234,2024-09-07T08:55:31.234Z,43555,0.08843994,1.105835,-0.09301758
1725699331280,2024-09-07T08:55:31.280Z,43601,0.17163086,1.0869751,-0.096069336
1725699331324,2024-09-07T08:55:31.324Z,43645,0.18560791,0.9706421,-0.14831543
1725699331372,2024-09-07T08:55:31.372Z,43693,0.15344238,0.9741211,-0.16015625
1725699331417,2024-09-07T08:55:31.417Z,43738,0.18780518,0.9923706,-0.13800049
1725699331465,2024-09-07T08:55:31.465Z,43786,0.17614746,1.0004883,-0.2277832
1725699331486,2024-09-07T08:55:31.486Z,43807,0.17248535,0.99365234,-0.16265869
1725699331500,2024-09-07T08:55:31.500Z,43821,0.22174072,0.97369385,-0.1595459
1725699331549,2024-09-07T08:55:31.549Z,43870,0.1515503,0.9746704,-0.15246582
1725699331598,2024-09-07T08:55:31.598Z,43919,0.20343018,1.0076904,-0.1973877
1725699331640,2024-09-07T08:55:31.640Z,43961,0.16455078,0.9951782,-0.13739014
1725699331686,2024-09-07T08:55:31.686Z,44007,0.15625,1.036438,-0.19281006
1725699331730,2024-09-07T08:55:31.730Z,44051,0.17089844,1.0386963,-0.1977539
1725699331777,2024-09-07T08:55:31.777Z,44098,0.18688965,1.0235596,-0.03137207
1725699331825,2024-09-07T08:55:31.825Z,44146,0.23144531,1.0471802,-0.0040283203
1725699331865,2024-09-07T08:55:31.865Z,44186,0.18347168,1.0116577,-0.107421875
1725699331884,2024-09-07T08:55:31.884Z,44205,0.19329834,1.0250854,-0.16784668
1725699331908,2024-09-07T08:55:31.908Z,44229,0.20550537,1.0650635,-0.16186523
1725699331952,2024-09-07T08:55:31.952Z,44273,0.2130127,1.1419678,-0.11578369
1725699332000,2024-09-07T08:55:32Z,44321,0.25109863,1.199585,-0.19836426
1725699332047,2024-09-07T08:55:32.047Z,44368,0.18078613,1.189209,-0.20581055
1725699332092,2024-09-07T08:55:32.092Z,44413,0.22039795,1.1225586,-0.14587402
1725699332135,2024-09-07T08:55:32.135Z,44456,0.18054199,1.0861206,-0.14355469
1725699332180,2024-09-07T08:55:32.180Z,44501,0.16479492,1.0704956,-0.17358398
1725699332228,2024-09-07T08:55:32.228Z,44549,0.19189453,1.038269,-0.14160156
1725699332272,2024-09-07T08:55:32.272Z,44593,0.13183594,0.951416,0.031555176
1725699332317,2024-09-07T08:55:32.317Z,44638,0.18334961,1.0730591,-0.16217041
1725699332340,2024-09-07T08:55:32.340Z,44661,0.21936035,1.0131836,-0.13555908
1725699332359,2024-09-07T08:55:32.359Z,44680,0.22088623,0.9580078,-0.06048584
1725699332402,2024-09-07T08:55:32.402Z,44723,0.1437378,0.97735596,-0.039611816
1725699332452,2024-09-07T08:55:32.452Z,44773,0.2218628,1.0303345,-0.09881592
1725699332496,2024-09-07T08:55:32.496Z,44817,0.256958,1.0598145,-0.13995361
1725699332540,2024-09-07T08:55:32.540Z,44861,0.17706299,1.0003052,-0.032043457
1725699332584,2024-09-07T08:55:32.584Z,44905,0.17340088,1.0154419,-0.04748535
1725699332633,2024-09-07T08:55:32.633Z,44954,0.22241211,1.038269,-0.091918945
1725699332677,2024-09-07T08:55:32.677Z,44998,0.19195557,1.0162354,-0.0040283203
1725699332724,2024-09-07T08:55:32.724Z,45045,0.18060303,1.0249023,-0.084350586
1725699332750,2024-09-07T08:55:32.750Z,45071,0.20916748,0.9633789,4.272461E-4
1725699332770,2024-09-07T08:55:32.770Z,45091,0.16619873,0.9157715,-0.0076293945
1725699332804,2024-09-07T08:55:32.804Z,45125,0.09063721,0.8918457,0.040771484
1725699332855,2024-09-07T08:55:32.855Z,45176,0.1638794,0.9126587,0.03741455
1725699332902,2024-09-07T08:55:32.902Z,45223,0.13848877,0.8989868,0.07556152
1725699332945,2024-09-07T08:55:32.945Z,45266,0.1529541,0.90686035,0.07348633
1725699332992,2024-09-07T08:55:32.992Z,45313,0.14819336,0.9373779,0.068725586
1725699333034,2024-09-07T08:55:33.034Z,45355,0.14135742,0.92541504,0.14849854
1725699333082,2024-09-07T08:55:33.082Z,45403,0.14361572,0.932312,0.10845947
1725699333122,2024-09-07T08:55:33.122Z,45443,0.1616211,0.90649414,0.15814209
1725699333141,2024-09-07T08:55:33.141Z,45462,0.10723877,0.93603516,0.06365967
1725699333165,2024-09-07T08:55:33.165Z,45486,0.15130615,0.8876953,0.16192627
1725699333213,2024-09-07T08:55:33.213Z,45534,0.14379883,0.86694336,0.19628906
1725699333260,2024-09-07T08:55:33.260Z,45581,0.13018799,0.8632202,0.21624756
1725699333307,2024-09-07T08:55:33.307Z,45628,0.15008545,0.8882446,0.23962402
1725699333352,2024-09-07T08:55:33.352Z,45673,0.10595703,0.9716797,0.2880249
1725699333396,2024-09-07T08:55:33.396Z,45717,0.09637451,0.94366455,0.22497559
1725699333441,2024-09-07T08:55:33.441Z,45762,0.14959717,0.9883423,0.17980957
1725699333487,2024-09-07T08:55:33.487Z,45808,0.16247559,0.9517822,0.1920166
1725699333533,2024-09-07T08:55:33.533Z,45854,0.16772461,0.9388428,0.19281006
1725699333576,2024-09-07T08:55:33.576Z,45897,0.15985107,0.9470825,0.19268799
1725699333601,2024-09-07T08:55:33.601Z,45922,0.15802002,0.9389038,0.25769043
1725699333624,2024-09-07T08:55:33.624Z,45945,0.12487793,0.9020996,0.30126953
1725699333663,2024-09-07T08:55:33.663Z,45984,0.11584473,0.9313965,0.3048706
1725699333711,2024-09-07T08:55:33.711Z,46032,0.13061523,0.9373779,0.30755615
1725699333757,2024-09-07T08:55:33.757Z,46078,0.09399414,0.9564209,0.28356934
1725699333800,2024-09-07T08:55:33.800Z,46121,0.13983154,0.9815674,0.26245117
1725699333846,2024-09-07T08:55:33.846Z,46167,0.123413086,0.91900635,0.26605225
1725699333892,2024-09-07T08:55:33.892Z,46213,0.17608643,0.9435425,0.23840332
1725699333935,2024-09-07T08:55:33.935Z,46256,0.14544678,0.9937134,0.19104004
1725699333980,2024-09-07T08:55:33.980Z,46301,0.12677002,0.94592285,0.3106079
1725699334000,2024-09-07T08:55:34Z,46321,0.12841797,0.96502686,0.28857422
1725699334022,2024-09-07T08:55:34.022Z,46343,0.1665039,0.98461914,0.28967285
1725699334072,2024-09-07T08:55:34.072Z,46393,0.11627197,0.96435547,0.3083496
1725699334116,2024-09-07T08:55:34.116Z,46437,0.15148926,0.98223877,0.2800293
1725699334160,2024-09-07T08:55:34.160Z,46481,0.15814209,0.9744873,0.286438
1725699334209,2024-09-07T08:55:34.209Z,46530,0.16204834,0.94818115,0.26611328
1725699334250,2024-09-07T08:55:34.250Z,46571,0.16949463,0.93829346,0.27575684
1725699334297,2024-09-07T08:55:34.297Z,46618,0.12768555,0.9430542,0.24163818
1725699334340,2024-09-07T08:55:34.340Z,46661,0.18377686,0.96118164,0.2902832
1725699334384,2024-09-07T08:55:34.384Z,46705,0.104003906,0.96813965,0.21429443
1725699334404,2024-09-07T08:55:34.404Z,46725,0.15270996,0.960022,0.24713135
1725699334427,2024-09-07T08:55:34.427Z,46748,0.09753418,0.9550781,0.19366455
1725699334475,2024-09-07T08:55:34.475Z,46796,0.10864258,0.94036865,0.18572998
1725699334521,2024-09-07T08:55:34.521Z,46842,0.21624756,0.91918945,0.29034424
1725699334566,2024-09-07T08:55:34.566Z,46887,0.107543945,0.9801636,0.14868164
1725699334609,2024-09-07T08:55:34.609Z,46930,0.15356445,0.95288086,0.17974854
1725699334653,2024-09-07T08:55:34.653Z,46974,0.13128662,0.9385376,0.13977051
1725699334700,2024-09-07T08:55:34.700Z,47021,0.1852417,0.92041016,0.15576172
1725699334745,2024-09-07T08:55:34.745Z,47066,0.14898682,0.9248047,0.13879395
1725699334790,2024-09-07T08:55:34.790Z,47111,0.16394043,0.9421387,0.15100098
1725699334833,2024-09-07T08:55:34.833Z,47154,0.11242676,0.9430542,0.09082031
1725699334853,2024-09-07T08:55:34.853Z,47174,0.19543457,0.9383545,0.064086914
1725699334878,2024-09-07T08:55:34.878Z,47199,0.15692139,0.9008179,0.07684326
1725699334924,2024-09-07T08:55:34.924Z,47245,0.18157959,0.9163208,0.055725098
1725699334970,2024-09-07T08:55:34.970Z,47291,0.18554688,0.9761963,0.06970215
1725699335014,2024-09-07T08:55:35.014Z,47335,0.12445068,1.001831,0.06774902
1725699335061,2024-09-07T08:55:35.061Z,47382,0.18939209,1.015564,0.0107421875
1725699335104,2024-09-07T08:55:35.104Z,47425,0.25500488,1.0079346,0.08166504
1725699335149,2024-09-07T08:55:35.149Z,47470,0.18981934,0.98205566,0.049316406
1725699335196,2024-09-07T08:55:35.196Z,47517,0.13226318,1.0488281,-0.059265137
1725699335239,2024-09-07T08:55:35.239Z,47560,0.17755127,0.9866333,-0.012084961
1725699335259,2024-09-07T08:55:35.259Z,47580,0.20355225,0.9937744,0.0064697266
1725699335281,2024-09-07T08:55:35.281Z,47602,0.19604492,0.9837036,0.05609131
1725699335331,2024-09-07T08:55:35.331Z,47652,0.14959717,1.0630493,-0.03552246
1725699335375,2024-09-07T08:55:35.375Z,47696,0.18914795,1.0031738,-0.018554688
1725699335419,2024-09-07T08:55:35.419Z,47740,0.25811768,0.9640503,0.057922363
1725699335463,2024-09-07T08:55:35.463Z,47784,0.1940918,0.9812012,-0.0034179688
1725699335508,2024-09-07T08:55:35.508Z,47829,0.18725586,0.96343994,-0.017822266
1725699335554,2024-09-07T08:55:35.554Z,47875,0.20678711,0.94970703,0.016113281
1725699335602,2024-09-07T08:55:35.602Z,47923,0.2189331,0.9798584,0.004638672
1725699335647,2024-09-07T08:55:35.647Z,47968,0.19403076,0.9682617,0.07513428
1725699335668,2024-09-07T08:55:35.668Z,47989,0.18347168,0.9854126,-0.028442383
1725699335688,2024-09-07T08:55:35.688Z,48009,0.20593262,0.9897461,-0.07659912
1725699335730,2024-09-07T08:55:35.730Z,48051,0.14233398,0.96917725,-0.08282471
1725699335782,2024-09-07T08:55:35.782Z,48103,0.1418457,0.9902954,-0.07775879
1725699335825,2024-09-07T08:55:35.825Z,48146,0.20550537,0.9538574,-0.022888184
1725699335871,2024-09-07T08:55:35.871Z,48192,0.1595459,1.0233154,-0.11669922
1725699335915,2024-09-07T08:55:35.915Z,48236,0.18664551,0.977478,-0.05114746
1725699335961,2024-09-07T08:55:35.961Z,48282,0.19250488,1.0153809,-0.10070801
1725699336004,2024-09-07T08:55:36.004Z,48325,0.128479,1.0594482,-0.06744385
1725699336050,2024-09-07T08:55:36.050Z,48371,0.17327881,1.0313721,-0.056518555
1725699336096,2024-09-07T08:55:36.096Z,48417,0.17327881,1.0386353,-0.10247803
1725699336119,2024-09-07T08:55:36.119Z,48440,0.17425537,1.0678711,-0.10546875
1725699336139,2024-09-07T08:55:36.139Z,48460,0.18963623,1.0197754,-0.08648682
1725699336184,2024-09-07T08:55:36.184Z,48505,0.1897583,0.9972534,-0.036254883
1725699336230,2024-09-07T08:55:36.230Z,48551,0.1951294,1.06781,-0.02923584
1725699336278,2024-09-07T08:55:36.278Z,48599,0.18945312,0.9717407,-0.050964355
1725699336321,2024-09-07T08:55:36.321Z,48642,0.23205566,0.9793701,-0.09283447
1725699336368,2024-09-07T08:55:36.368Z,48689,0.17889404,0.9937744,-0.07611084
1725699336411,2024-09-07T08:55:36.411Z,48732,0.18920898,0.98657227,-0.05529785
1725699336456,2024-09-07T08:55:36.456Z,48777,0.18151855,1.0407104,-0.101989746
1725699336504,2024-09-07T08:55:36.504Z,48825,0.1720581,1.0056152,-0.06915283
1725699336527,2024-09-07T08:55:36.527Z,48848,0.21166992,0.9708252,-0.09802246
1725699336540,2024-09-07T08:55:36.540Z,48861,0.17706299,0.970459,-0.08380127
1725699336589,2024-09-07T08:55:36.589Z,48910,0.1315918,0.9781494,-0.12945557
1725699336633,2024-09-07T08:55:36.633Z,48954,0.1751709,0.96698,-0.11291504
1725699336679,2024-09-07T08:55:36.679Z,49000,0.18780518,0.99053955,-0.15118408
1725699336727,2024-09-07T08:55:36.727Z,49048,0.20458984,0.9961548,-0.13903809
1725699336768,2024-09-07T08:55:36.768Z,49089,0.16601562,1.0119629,-0.15252686
1725699336821,2024-09-07T08:55:36.821Z,49142,0.17584229,1.0288696,-0.14782715
1725699336857,2024-09-07T08:55:36.857Z,49178,0.21679688,1.0220947,-0.1515503
1725699336904,2024-09-07T08:55:36.904Z,49225,0.17901611,1.0546875,-0.16625977
1725699336924,2024-09-07T08:55:36.924Z,49245,0.17962646,1.0306396,-0.13208008
1725699336948,2024-09-07T08:55:36.948Z,49269,0.18621826,1.0534058,-0.16046143
1725699336993,2024-09-07T08:55:36.993Z,49314,0.1640625,1.0288696,-0.14196777
1725699337039,2024-09-07T08:55:37.039Z,49360,0.17401123,1.0148315,-0.13842773
1725699337084,2024-09-07T08:55:37.084Z,49405,0.17944336,1.0160522,-0.13555908
1725699337130,2024-09-07T08:55:37.130Z,49451,0.10760498,1.0059204,-0.103271484
1725699337175,2024-09-07T08:55:37.175Z,49496,0.21826172,1.0171509,-0.10644531
1725699337221,2024-09-07T08:55:37.221Z,49542,0.18951416,1.0143433,-0.18774414
1725699337265,2024-09-07T08:55:37.265Z,49586,0.13830566,1.0350952,-0.18725586
1725699337311,2024-09-07T08:55:37.311Z,49632,0.24316406,1.0412598,-0.15783691
1725699337356,2024-09-07T08:55:37.356Z,49677,0.17254639,1.0357056,-0.089782715
1725699337378,2024-09-07T08:55:37.378Z,49699,0.1963501,1.1251221,-0.22113037
1725699337399,2024-09-07T08:55:37.399Z,49720,0.19299316,1.1796875,-0.18664551
1725699337444,2024-09-07T08:55:37.444Z,49765,0.2053833,1.1590576,-0.18035889
1725699337492,2024-09-07T08:55:37.492Z,49813,0.20129395,1.095398,-0.10760498
1725699337535,2024-09-07T08:55:37.535Z,49856,0.17602539,1.1085205,-0.20117188
1725699337582,2024-09-07T08:55:37.582Z,49903,0.17822266,1.0358276,-0.13226318
1725699337626,2024-09-07T08:55:37.626Z,49947,0.18933105,1.0391846,-0.12445068
1725699337672,2024-09-07T08:55:37.672Z,49993,0.12945557,1.0343018,-0.1706543
1725699337717,2024-09-07T08:55:37.717Z,50038,0.20141602,1.0131226,-0.11657715
1725699337761,2024-09-07T08:55:37.761Z,50082,0.18774414,0.99890137,-0.1026001
1725699337780,2024-09-07T08:55:37.780Z,50101,0.1539917,1.0698853,-0.15704346
1725699337801,2024-09-07T08:55:37.801Z,50122,0.15612793,1.0518799,-0.09063721
1725699337850,2024-09-07T08:55:37.850Z,50171,0.15667725,1.0357666,-0.10736084
1725699337896,2024-09-07T08:55:37.896Z,50217,0.15722656,1.0341797,-0.14331055
1725699337940,2024-09-07T08:55:37.940Z,50261,0.19604492,0.9777832,-0.03894043
1725699337986,2024-09-07T08:55:37.986Z,50307,0.20349121,1.0247192,-0.1005249
1725699338031,2024-09-07T08:55:38.031Z,50352,0.12780762,1.0009155,-0.02935791
1725699338074,2024-09-07T08:55:38.074Z,50395,0.1774292,0.99938965,-0.09320068
1725699338120,2024-09-07T08:55:38.120Z,50441,0.20349121,0.96258545,0.0036010742
1725699338169,2024-09-07T08:55:38.169Z,50490,0.16229248,0.9630127,-0.09680176
1725699338198,2024-09-07T08:55:38.198Z,50519,0.19140625,0.9524536,-0.032104492
1725699338223,2024-09-07T08:55:38.223Z,50544,0.21783447,0.94421387,0.03112793
1725699338252,2024-09-07T08:55:38.252Z,50573,0.15911865,0.9893799,-0.03387451
1725699338300,2024-09-07T08:55:38.300Z,50621,0.17437744,0.95440674,-0.010437012
1725699338348,2024-09-07T08:55:38.348Z,50669,0.199646,0.9034424,0.033325195
1725699338388,2024-09-07T08:55:38.388Z,50709,0.18127441,0.9213257,0.054016113
1725699338438,2024-09-07T08:55:38.438Z,50759,0.15649414,0.9138794,0.037475586
1725699338481,2024-09-07T08:55:38.481Z,50802,0.12786865,0.92663574,0.03894043
1725699338525,2024-09-07T08:55:38.525Z,50846,0.20788574,0.9154053,0.07800293
1725699338571,2024-09-07T08:55:38.571Z,50892,0.20343018,0.9440918,0.06378174
1725699338617,2024-09-07T08:55:38.617Z,50938,0.15551758,0.96588135,0.07495117
1725699338641,2024-09-07T08:55:38.641Z,50962,0.19335938,0.9656372,0.12597656
1725699338659,2024-09-07T08:55:38.659Z,50980,0.1560669,0.99224854,0.050109863
1725699338702,2024-09-07T08:55:38.702Z,51023,0.1272583,0.9168701,0.099365234
1725699338752,2024-09-07T08:55:38.752Z,51073,0.22338867,0.8769531,0.16363525
1725699338796,2024-09-07T08:55:38.796Z,51117,0.1305542,0.93969727,0.087524414
1725699338841,2024-09-07T08:55:38.841Z,51162,0.19744873,0.9281616,0.14959717
1725699338888,2024-09-07T08:55:38.888Z,51209,0.21594238,0.92767334,0.20257568
1725699338929,2024-09-07T08:55:38.929Z,51250,0.18060303,0.9613037,0.11871338
1725699338978,2024-09-07T08:55:38.978Z,51299,0.19482422,0.9216919,0.16345215
1725699339020,2024-09-07T08:55:39.020Z,51341,0.13873291,0.9380493,0.124572754
1725699339042,2024-09-07T08:55:39.042Z,51363,0.1395874,0.87646484,0.22174072
1725699339063,2024-09-07T08:55:39.063Z,51384,0.18023682,0.89715576,0.29388428
1725699339111,2024-09-07T08:55:39.111Z,51432,0.107788086,0.89953613,0.23468018
1725699339155,2024-09-07T08:55:39.155Z,51476,0.15795898,0.88897705,0.28582764
1725699339200,2024-09-07T08:55:39.200Z,51521,0.12243652,0.92419434,0.3180542
1725699339245,2024-09-07T08:55:39.245Z,51566,0.12823486,0.9842529,0.28082275
1725699339287,2024-09-07T08:55:39.287Z,51608,0.16741943,0.9926758,0.3602295
1725699339335,2024-09-07T08:55:39.335Z,51656,0.15795898,1.0418701,0.26513672
1725699339380,2024-09-07T08:55:39.380Z,51701,0.19726562,0.9907837,0.26794434
1725699339424,2024-09-07T08:55:39.424Z,51745,0.2197876,0.93341064,0.26898193
1725699339444,2024-09-07T08:55:39.444Z,51765,0.21661377,0.9083252,0.258667
1725699339467,2024-09-07T08:55:39.467Z,51788,0.19128418,0.8999634,0.30499268
1725699339512,2024-09-07T08:55:39.512Z,51833,0.17126465,0.96868896,0.27246094
1725699339561,2024-09-07T08:55:39.561Z,51882,0.18261719,1.0038452,0.29553223
1725699339604,2024-09-07T08:55:39.604Z,51925,0.11846924,0.9746094,0.30645752
1725699339652,2024-09-07T08:55:39.652Z,51973,0.18145752,0.91516113,0.26916504
1725699339694,2024-09-07T08:55:39.694Z,52015,0.22265625,0.85913086,0.25787354
1725699339741,2024-09-07T08:55:39.741Z,52062,0.25256348,0.8956299,0.27270508
1725699339786,2024-09-07T08:55:39.786Z,52107,0.21087646,0.96203613,0.23022461
1725699339832,2024-09-07T08:55:39.832Z,52153,0.22467041,0.9968872,0.22821045
1725699339874,2024-09-07T08:55:39.874Z,52195,0.24627686,0.996521,0.20703125
1725699339895,2024-09-07T08:55:39.895Z,52216,0.22827148,0.9729004,0.20397949
1725699339920,2024-09-07T08:55:39.920Z,52241,0.20831299,0.9281616,0.24285889
1725699339966,2024-09-07T08:55:39.966Z,52287,0.16595459,0.93029785,0.23944092
1725699340009,2024-09-07T08:55:40.009Z,52330,0.18347168,0.92962646,0.23632812
1725699340057,2024-09-07T08:55:40.057Z,52378,0.17358398,0.928772,0.19476318
1725699340102,2024-09-07T08:55:40.102Z,52423,0.17315674,0.93896484,0.17138672
1725699340145,2024-09-07T08:55:40.145Z,52466,0.16082764,0.96710205,0.12731934
1725699340191,2024-09-07T08:55:40.191Z,52512,0.24035645,0.8970947,0.22332764
1725699340236,2024-09-07T08:55:40.236Z,52557,0.19390869,0.9053345,0.13635254
1725699340281,2024-09-07T08:55:40.281Z,52602,0.19451904,0.92974854,0.111572266
1725699340297,2024-09-07T08:55:40.297Z,52618,0.20935059,0.9243164,0.11517334
1725699340322,2024-09-07T08:55:40.322Z,52643,0.2241211,0.9690552,0.10858154
1725699340377,2024-09-07T08:55:40.377Z,52698,0.190979,0.9517212,0.11730957
1725699340413,2024-09-07T08:55:40.413Z,52734,0.15942383,0.958313,0.07293701
1725699340460,2024-09-07T08:55:40.460Z,52781,0.21258545,0.9382324,0.07684326
1725699340506,2024-09-07T08:55:40.506Z,52827,0.15429688,0.94195557,0.043395996
1725699340550,2024-09-07T08:55:40.550Z,52871,0.20788574,0.92437744,0.07623291
1725699340594,2024-09-07T08:55:40.594Z,52915,0.18682861,0.965271,0.03527832
1725699340640,2024-09-07T08:55:40.640Z,52961,0.17028809,0.9882202,0.028320312
1725699340690,2024-09-07T08:55:40.690Z,53011,0.18890381,0.9546509,-0.019042969
1725699340715,2024-09-07T08:55:40.715Z,53036,0.20513916,0.9324951,1.2207031E-4
1725699340728,2024-09-07T08:55:40.728Z,53049,0.18408203,0.93322754,0.055908203
1725699340772,2024-09-07T08:55:40.772Z,53093,0.19238281,0.9779053,-0.0026245117
1725699340822,2024-09-07T08:55:40.822Z,53143,0.1821289,0.99542236,-0.037902832
1725699340866,2024-09-07T08:55:40.866Z,53187,0.22070312,1.0369263,-0.070739746
1725699340910,2024-09-07T08:55:40.910Z,53231,0.16210938,1.0201416,0.006164551
1725699340958,2024-09-07T08:55:40.958Z,53279,0.09210205,1.0408936,-0.02508545
1725699341000,2024-09-07T08:55:41Z,53321,0.28289795,1.036377,-0.0826416
1725699341042,2024-09-07T08:55:41.042Z,53363,0.11352539,1.0184326,-0.028015137
1725699341091,2024-09-07T08:55:41.091Z,53412,0.17718506,1.0119629,-0.05279541
1725699341136,2024-09-07T08:55:41.136Z,53457,0.17126465,0.95007324,0.035705566
1725699341160,2024-09-07T08:55:41.160Z,53481,0.17193604,1.0490112,-0.09643555
1725699341180,2024-09-07T08:55:41.180Z,53501,0.13409424,0.9276123,-0.007751465
1725699341222,2024-09-07T08:55:41.222Z,53543,0.20605469,1.0043335,-0.04675293
1725699341268,2024-09-07T08:55:41.268Z,53589,0.1762085,0.98461914,-0.078308105
1725699341318,2024-09-07T08:55:41.318Z,53639,0.19067383,0.9827881,-0.06359863
1725699341359,2024-09-07T08:55:41.359Z,53680,0.21459961,0.99884033,-0.06616211
1725699341408,2024-09-07T08:55:41.408Z,53729,0.1954956,1.0112915,-0.08325195
1725699341451,2024-09-07T08:55:41.451Z,53772,0.1687622,1.0418091,-0.14752197
1725699341496,2024-09-07T08:55:41.496Z,53817,0.1907959,1.0166626,-0.08227539
1725699341542,2024-09-07T08:55:41.542Z,53863,0.16864014,1.0278931,-0.049560547
1725699341561,2024-09-07T08:55:41.561Z,53882,0.15802002,1.0385132,-0.15228271
1725699341585,2024-09-07T08:55:41.585Z,53906,0.1652832,1.0253296,-0.15734863
1725699341627,2024-09-07T08:55:41.627Z,53948,0.16534424,1.0368042,-0.13061523
1725699341676,2024-09-07T08:55:41.676Z,53997,0.14733887,1.0178223,-0.10827637
1725699341720,2024-09-07T08:55:41.720Z,54041,0.19769287,1.03302,-0.15002441
1725699341769,2024-09-07T08:55:41.769Z,54090,0.13586426,1.0588379,-0.17889404
1725699341812,2024-09-07T08:55:41.812Z,54133,0.0803833,1.0549927,-0.1765747
1725699341854,2024-09-07T08:55:41.854Z,54175,0.17022705,1.0216064,-0.12878418
1725699341902,2024-09-07T08:55:41.902Z,54223,0.15887451,0.9970093,-0.041809082
1725699341943,2024-09-07T08:55:41.943Z,54264,0.16772461,1.0222778,-0.11743164
1725699341962,2024-09-07T08:55:41.962Z,54283,0.18878174,0.9232178,-0.07824707
1725699341989,2024-09-07T08:55:41.989Z,54310,0.13775635,0.93670654,-0.11553955
1725699342033,2024-09-07T08:55:42.033Z,54354,0.17694092,0.9645996,-0.15802002
1725699342080,2024-09-07T08:55:42.080Z,54401,0.18029785,1.0166016,-0.1583252
1725699342126,2024-09-07T08:55:42.126Z,54447,0.20336914,1.0082397,-0.07928467
1725699342167,2024-09-07T08:55:42.167Z,54488,0.17980957,1.0302124,-0.11730957
1725699342216,2024-09-07T08:55:42.216Z,54537,0.1875,1.0244751,-0.13269043
1725699342260,2024-09-07T08:55:42.260Z,54581,0.14660645,1.0140991,-0.13018799
1725699342305,2024-09-07T08:55:42.305Z,54626,0.17596436,1.0170898,-0.12860107
1725699342349,2024-09-07T08:55:42.349Z,54670,0.16326904,1.0523071,-0.18121338
1725699342394,2024-09-07T08:55:42.394Z,54715,0.15527344,1.0159912,-0.10241699
1725699342419,2024-09-07T08:55:42.419Z,54740,0.15405273,1.0639648,-0.14733887
1725699342438,2024-09-07T08:55:42.438Z,54759,0.13293457,1.0438232,-0.15753174
1725699342484,2024-09-07T08:55:42.484Z,54805,0.13995361,1.0105591,-0.12512207
1725699342529,2024-09-07T08:55:42.529Z,54850,0.16656494,0.9819946,-0.14764404
1725699342576,2024-09-07T08:55:42.576Z,54897,0.13220215,1.0090942,-0.17095947
1725699342626,2024-09-07T08:55:42.626Z,54947,0.124572754,1.0028076,-0.11480713
1725699342664,2024-09-07T08:55:42.664Z,54985,0.19714355,1.0188599,-0.113464355
1725699342709,2024-09-07T08:55:42.709Z,55030,0.13183594,0.9949341,-0.16278076
1725699342755,2024-09-07T08:55:42.755Z,55076,0.12475586,0.99658203,-0.14526367
1725699342804,2024-09-07T08:55:42.804Z,55125,0.14013672,0.9768677,-0.10192871
1725699342826,2024-09-07T08:55:42.826Z,55147,0.09875488,0.97180176,-0.14318848
1725699342842,2024-09-07T08:55:42.842Z,55163,0.12860107,1.0559082,-0.23803711
1725699342888,2024-09-07T08:55:42.888Z,55209,0.25042725,0.99542236,-0.13024902
1725699342935,2024-09-07T08:55:42.935Z,55256,0.15161133,1.0142212,-0.12219238
1725699342980,2024-09-07T08:55:42.980Z,55301,0.18041992,1.1386719,-0.1907959
1725699343026,2024-09-07T08:55:43.026Z,55347,0.16369629,1.1738892,-0.17254639
1725699343074,2024-09-07T08:55:43.074Z,55395,0.17266846,1.2047119,-0.1005249
1725699343114,2024-09-07T08:55:43.114Z,55435,0.20111084,1.1768799,-0.21728516
1725699343160,2024-09-07T08:55:43.160Z,55481,0.09112549,1.1087036,-0.16363525
1725699343207,2024-09-07T08:55:43.207Z,55528,0.19989014,1.0903931,-0.15386963
1725699343226,2024-09-07T08:55:43.226Z,55547,0.14111328,1.0281372,-0.15454102
1725699343256,2024-09-07T08:55:43.256Z,55577,0.17510986,1.0911865,-0.14672852
1725699343297,2024-09-07T08:55:43.297Z,55618,0.14263916,1.0471191,-0.13360596
1725699343338,2024-09-07T08:55:43.338Z,55659,0.12860107,1.0681152,-0.17669678
1725699343384,2024-09-07T08:55:43.384Z,55705,0.17901611,1.0244141,-0.105651855
1725699343432,2024-09-07T08:55:43.432Z,55753,0.117370605,1.06781,-0.1539917
1725699343476,2024-09-07T08:55:43.476Z,55797,0.15441895,1.0239258,-0.06628418
1725699343519,2024-09-07T08:55:43.519Z,55840,0.20471191,1.0571289,-0.12390137
1725699343567,2024-09-07T08:55:43.567Z,55888,0.1762085,0.9959717,-0.123535156
1725699343611,2024-09-07T08:55:43.611Z,55932,0.14587402,0.9989624,-0.06726074
1725699343654,2024-09-07T08:55:43.654Z,55975,0.26660156,1.0626221,-0.12689209
1725699343671,2024-09-07T08:55:43.671Z,55992,0.0960083,1.0186768,-0.04638672
1725699343699,2024-09-07T08:55:43.699Z,56020,0.17218018,1.0168457,-0.053710938
1725699343742,2024-09-07T08:55:43.742Z,56063,0.119628906,0.9857178,-0.094177246
1725699343791,2024-09-07T08:55:43.791Z,56112,0.1486206,0.9060669,0.013916016
1725699343836,2024-09-07T08:55:43.836Z,56157,0.14624023,0.8375244,0.038208008
1725699343880,2024-09-07T08:55:43.880Z,56201,0.12677002,0.8739624,0.01940918
1725699343929,2024-09-07T08:55:43.929Z,56250,0.08630371,0.84051514,0.17089844
1725699343971,2024-09-07T08:55:43.971Z,56292,0.13146973,0.9016113,0.12060547
1725699344016,2024-09-07T08:55:44.016Z,56337,0.12731934,0.9326172,0.10510254
1725699344061,2024-09-07T08:55:44.061Z,56382,0.09527588,0.9626465,0.0847168
1725699344084,2024-09-07T08:55:44.084Z,56405,0.16247559,0.9421387,0.12658691
1725699344108,2024-09-07T08:55:44.108Z,56429,0.17956543,0.88946533,0.2189331
1725699344147,2024-09-07T08:55:44.147Z,56468,0.10394287,0.91278076,0.15942383
1725699344197,2024-09-07T08:55:44.197Z,56518,0.11010742,0.8624878,0.15338135
1725699344243,2024-09-07T08:55:44.243Z,56564,0.09008789,0.8187866,0.23120117
1725699344284,2024-09-07T08:55:44.284Z,56605,0.16156006,0.8845215,0.23199463
1725699344329,2024-09-07T08:55:44.329Z,56650,0.10699463,0.96154785,0.107666016
1725699344377,2024-09-07T08:55:44.377Z,56698,0.14440918,0.9215698,0.24188232
1725699344420,2024-09-07T08:55:44.420Z,56741,0.15655518,0.9249878,0.24414062
1725699344473,2024-09-07T08:55:44.473Z,56794,0.13238525,0.92559814,0.1720581
1725699344504,2024-09-07T08:55:44.504Z,56825,0.16003418,0.8911743,0.21124268
1725699344525,2024-09-07T08:55:44.525Z,56846,0.33135986,0.96728516,0.13293457
1725699344553,2024-09-07T08:55:44.553Z,56874,0.23620605,0.9758911,0.17675781
1725699344597,2024-09-07T08:55:44.597Z,56918,0.24133301,0.97576904,0.23803711
1725699344649,2024-09-07T08:55:44.649Z,56970,0.2154541,0.9659424,0.24914551
1725699344691,2024-09-07T08:55:44.691Z,57012,0.22235107,0.9298096,0.21295166
1725699344740,2024-09-07T08:55:44.740Z,57061,0.27111816,0.8811035,0.26489258
1725699344780,2024-09-07T08:55:44.780Z,57101,0.24047852,0.8810425,0.2626953
1725699344828,2024-09-07T08:55:44.828Z,57149,0.24908447,0.93096924,0.28735352
1725699344868,2024-09-07T08:55:44.868Z,57189,0.20043945,0.99212646,0.24243164
1725699344890,2024-09-07T08:55:44.890Z,57211,0.23144531,1.0061646,0.29870605
1725699344963,2024-09-07T08:55:44.963Z,57284,0.1605835,0.98443604,0.23431396
1725699344987,2024-09-07T08:55:44.987Z,57308,0.2545166,0.942749,0.22393799
1725699345001,2024-09-07T08:55:45.001Z,57322,0.2662964,0.932251,0.29437256
1725699345048,2024-09-07T08:55:45.048Z,57369,0.27227783,0.9491577,0.3007202
1725699345096,2024-09-07T08:55:45.096Z,57417,0.2713623,0.9661865,0.24499512
1725699345138,2024-09-07T08:55:45.138Z,57459,0.20263672,0.98516846,0.2619629
1725699345184,2024-09-07T08:55:45.184Z,57505,0.27508545,0.96240234,0.29455566
1725699345228,2024-09-07T08:55:45.228Z,57549,0.21875,0.92144775,0.27124023
1725699345272,2024-09-07T08:55:45.272Z,57593,0.24450684,0.8890991,0.28881836
1725699345318,2024-09-07T08:55:45.318Z,57639,0.20391846,0.87323,0.25634766
1725699345341,2024-09-07T08:55:45.341Z,57662,0.20214844,0.95666504,0.20794678
1725699345361,2024-09-07T08:55:45.361Z,57682,0.20648193,0.98046875,0.23590088
1725699345408,2024-09-07T08:55:45.408Z,57729,0.17279053,0.9541626,0.22845459
1725699345453,2024-09-07T08:55:45.453Z,57774,0.20544434,0.92193604,0.21862793
1725699345501,2024-09-07T08:55:45.501Z,57822,0.1920166,0.901062,0.19854736
1725699345544,2024-09-07T08:55:45.544Z,57865,0.17889404,0.9116821,0.17596436
1725699345590,2024-09-07T08:55:45.590Z,57911,0.19689941,0.925354,0.19915771
1725699345636,2024-09-07T08:55:45.636Z,57957,0.16247559,0.92926025,0.17102051
1725699345681,2024-09-07T08:55:45.681Z,58002,0.16589355,0.95025635,0.1730957
1725699345728,2024-09-07T08:55:45.728Z,58049,0.19830322,0.9413452,0.15673828
1725699345750,2024-09-07T08:55:45.750Z,58071,0.16821289,0.9522705,0.14691162
1725699345772,2024-09-07T08:55:45.772Z,58093,0.16802979,0.944397,0.14221191
1725699345813,2024-09-07T08:55:45.813Z,58134,0.1807251,0.92041016,0.09753418
1725699345858,2024-09-07T08:55:45.858Z,58179,0.20056152,0.8822632,0.1326294
1725699345903,2024-09-07T08:55:45.903Z,58224,0.20275879,0.89593506,0.09454346
1725699345956,2024-09-07T08:55:45.956Z,58277,0.18286133,0.91448975,0.04498291
1725699345995,2024-09-07T08:55:45.995Z,58316,0.24719238,0.99627686,0.005554199
1725699346041,2024-09-07T08:55:46.041Z,58362,0.13739014,1.0059814,0.17681885
1725699346088,2024-09-07T08:55:46.088Z,58409,0.14971924,0.95770264,0.06878662
1725699346132,2024-09-07T08:55:46.132Z,58453,0.16680908,0.96795654,0.057250977
1725699346153,2024-09-07T08:55:46.153Z,58474,0.17327881,1.0026855,0.056396484
1725699346175,2024-09-07T08:55:46.175Z,58496,0.13879395,0.97576904,0.030761719
1725699346218,2024-09-07T08:55:46.218Z,58539,0.14233398,0.99871826,0.024475098
1725699346264,2024-09-07T08:55:46.264Z,58585,0.15045166,0.9838257,-0.038269043
1725699346312,2024-09-07T08:55:46.312Z,58633,0.09515381,1.0105591,-0.003112793
1725699346359,2024-09-07T08:55:46.359Z,58680,0.15692139,0.98760986,0.018920898
1725699346402,2024-09-07T08:55:46.402Z,58723,0.13946533,0.9891968,-0.0015258789
1725699346445,2024-09-07T08:55:46.445Z,58766,0.13336182,1.0053711,-0.03845215
1725699346490,2024-09-07T08:55:46.490Z,58811,0.14117432,1.0048218,-0.036865234
1725699346535,2024-09-07T08:55:46.535Z,58856,0.15698242,0.9788208,-0.023254395
1725699346579,2024-09-07T08:55:46.579Z,58900,0.21801758,0.9890747,-0.0546875
1725699346601,2024-09-07T08:55:46.601Z,58922,0.11785889,1.0233154,-0.039916992
1725699346623,2024-09-07T08:55:46.623Z,58944,0.15283203,1.0176392,-0.08166504
1725699346670,2024-09-07T08:55:46.670Z,58991,0.15301514,1.0264893,-0.06317139
1725699346715,2024-09-07T08:55:46.715Z,59036,0.13677979,0.9949341,-0.06213379
1725699346759,2024-09-07T08:55:46.759Z,59080,0.1640625,1.0179443,-0.12231445
1725699346804,2024-09-07T08:55:46.804Z,59125,0.14343262,1.0083008,-0.10076904
1725699346852,2024-09-07T08:55:46.852Z,59173,0.14996338,0.99468994,-0.09729004
1725699346895,2024-09-07T08:55:46.895Z,59216,0.13208008,1.0183716,-0.1482544
1725699346951,2024-09-07T08:55:46.951Z,59272,0.089538574,1.0770874,-0.08477783
1725699346983,2024-09-07T08:55:46.983Z,59304,0.13635254,1.020935,-0.044921875
1725699347002,2024-09-07T08:55:47.002Z,59323,0.15551758,0.98272705,-0.13891602
1725699347026,2024-09-07T08:55:47.026Z,59347,0.070739746,1.0183716,-0.1697998
1725699347073,2024-09-07T08:55:47.073Z,59394,0.14300537,0.98065186,-0.088134766
1725699347117,2024-09-07T08:55:47.117Z,59438,0.19110107,0.96759033,-0.099975586
1725699347162,2024-09-07T08:55:47.162Z,59483,0.1618042,1.0048828,-0.16796875
1725699347208,2024-09-07T08:55:47.208Z,59529,0.14349365,1.0169067,-0.14855957
1725699347255,2024-09-07T08:55:47.255Z,59576,0.18621826,1.0180054,-0.11047363
1725699347298,2024-09-07T08:55:47.298Z,59619,0.16156006,1.1185913,0.022033691
1725699347343,2024-09-07T08:55:47.343Z,59664,0.1862793,0.998291,-0.05078125
1725699347390,2024-09-07T08:55:47.390Z,59711,0.27252197,0.96276855,-0.08581543
1725699347410,2024-09-07T08:55:47.410Z,59731,0.09887695,0.9589844,-0.15570068
1725699347433,2024-09-07T08:55:47.433Z,59754,0.1529541,1.0487671,-0.17218018
1725699347477,2024-09-07T08:55:47.477Z,59798,0.21246338,1.008728,-0.099609375
1725699347522,2024-09-07T08:55:47.522Z,59843,0.14208984,0.99212646,-0.11022949
1725699347571,2024-09-07T08:55:47.571Z,59892,0.24188232,1.0649414,-0.17816162
1725699347616,2024-09-07T08:55:47.616Z,59937,0.184021,1.091919,-0.1772461
1725699347658,2024-09-07T08:55:47.658Z,59979,0.11242676,1.1080933,-0.12750244
1725699347709,2024-09-07T08:55:47.709Z,60030,0.10992432,1.0567017,-0.16033936
1725699347749,2024-09-07T08:55:47.749Z,60070,0.1375122,1.017273,-0.1875
1725699347794,2024-09-07T08:55:47.794Z,60115,0.15014648,0.9641113,-0.15447998
1725699347839,2024-09-07T08:55:47.839Z,60160,0.13354492,0.98028564,-0.19702148
1725699347857,2024-09-07T08:55:47.857Z,60178,0.11413574,0.99139404,-0.08892822
1725699347884,2024-09-07T08:55:47.884Z,60205,0.18041992,0.9989624,-0.020629883
1725699347929,2024-09-07T08:55:47.929Z,60250,0.18011475,1.041687,-0.06530762
1725699347977,2024-09-07T08:55:47.977Z,60298,0.1204834,0.9916382,-0.18798828
1725699348022,2024-09-07T08:55:48.022Z,60343,0.16009521,0.9418335,-0.13769531
1725699348063,2024-09-07T08:55:48.063Z,60384,0.16809082,0.9688721,-0.13720703
1725699348110,2024-09-07T08:55:48.110Z,60431,0.14605713,0.9841919,-0.19274902
1725699348157,2024-09-07T08:55:48.157Z,60478,0.1463623,0.98498535,-0.16223145
1725699348246,2024-09-07T08:55:48.246Z,60567,0.15148926,0.9998779,-0.16033936
1725699348263,2024-09-07T08:55:48.263Z,60584,0.15917969,1.020813,-0.18414307
1725699348278,2024-09-07T08:55:48.278Z,60599,0.111572266,1.0125122,-0.13031006
1725699348290,2024-09-07T08:55:48.290Z,60611,0.1472168,1.0535278,-0.05908203
1725699348340,2024-09-07T08:55:48.340Z,60661,0.16333008,1.0361328,-0.113098145
1725699348379,2024-09-07T08:55:48.379Z,60700,0.16412354,1.0189819,-0.17327881
1725699348424,2024-09-07T08:55:48.424Z,60745,0.16546631,1.0299683,-0.15484619
1725699348472,2024-09-07T08:55:48.472Z,60793,0.13946533,1.0393066,-0.09729004
1725699348560,2024-09-07T08:55:48.560Z,60881,0.20123291,1.0734863,-0.14489746
1725699348580,2024-09-07T08:55:48.580Z,60901,0.15197754,1.1298218,-0.12335205
1725699348605,2024-09-07T08:55:48.605Z,60926,0.13903809,1.2156982,-0.1774292
1725699348650,2024-09-07T08:55:48.650Z,60971,0.15551758,1.2219238,-0.1494751
1725699348669,2024-09-07T08:55:48.669Z,60990,0.15692139,1.1135864,-0.19702148
1725699348691,2024-09-07T08:55:48.691Z,61012,0.16821289,1.1193848,-0.20587158
1725699348739,2024-09-07T08:55:48.739Z,61060,0.19671631,1.0343018,-0.18023682
1725699348784,2024-09-07T08:55:48.784Z,61105,0.15374756,1.0194702,-0.14172363
1725699348831,2024-09-07T08:55:48.831Z,61152,0.08959961,0.9953613,-0.12036133
1725699348878,2024-09-07T08:55:48.878Z,61199,0.2006836,1.0540161,-0.24328613
1725699348923,2024-09-07T08:55:48.923Z,61244,0.10998535,0.8756714,0.20916748
1725699348965,2024-09-07T08:55:48.965Z,61286,0.24005127,1.0907593,-0.30743408
1725699349009,2024-09-07T08:55:49.009Z,61330,0.18121338,1.1185303,-0.13201904
1725699349056,2024-09-07T08:55:49.056Z,61377,0.21484375,1.043457,-0.0076904297
1725699349098,2024-09-07T08:55:49.098Z,61419,0.21289062,1.0950317,-0.18658447
1725699349117,2024-09-07T08:55:49.117Z,61438,0.18719482,1.0484619,-0.13574219
1725699349143,2024-09-07T08:55:49.143Z,61464,0.14715576,0.97869873,-0.05718994
1725699349187,2024-09-07T08:55:49.187Z,61508,0.15008545,0.96313477,-0.05114746
1725699349237,2024-09-07T08:55:49.237Z,61558,0.08850098,0.9503784,-0.020629883
1725699349278,2024-09-07T08:55:49.278Z,61599,0.13031006,0.99993896,-0.09423828
1725699349328,2024-09-07T08:55:49.328Z,61649,0.15008545,0.96832275,-0.031311035
1725699349369,2024-09-07T08:55:49.369Z,61690,0.11047363,0.93444824,0.016601562
1725699349416,2024-09-07T08:55:49.416Z,61737,0.16070557,0.9250488,-0.04711914
1725699349459,2024-09-07T08:55:49.459Z,61780,0.13641357,0.9364624,-0.035949707
1725699349504,2024-09-07T08:55:49.504Z,61825,0.16149902,0.8985596,0.082458496
1725699349519,2024-09-07T08:55:49.519Z,61840,0.18225098,0.9446411,-0.02947998
1725699349546,2024-09-07T08:55:49.546Z,61867,0.18035889,0.96343994,0.025634766
1725699349593,2024-09-07T08:55:49.593Z,61914,0.16589355,0.95965576,0.12261963
1725699349640,2024-09-07T08:55:49.640Z,61961,0.14569092,1.0032959,0.023864746
1725699349685,2024-09-07T08:55:49.685Z,62006,0.18231201,0.9279175,0.09008789
1725699349730,2024-09-07T08:55:49.730Z,62051,0.17260742,0.9717407,0.068725586
1725699349775,2024-09-07T08:55:49.775Z,62096,0.20947266,0.88391113,0.1472168
1725699349822,2024-09-07T08:55:49.822Z,62143,0.1272583,0.90075684,0.20544434
1725699349866,2024-09-07T08:55:49.866Z,62187,0.095214844,1.0025635,0.018493652
1725699349916,2024-09-07T08:55:49.916Z,62237,0.2234497,0.9558716,0.20599365
1725699349944,2024-09-07T08:55:49.944Z,62265,0.14068604,0.9406738,0.15484619
1725699349966,2024-09-07T08:55:49.966Z,62287,0.14202881,0.9076538,0.15948486
1725699349998,2024-09-07T08:55:49.998Z,62319,0.101623535,0.87805176,0.15667725
1725699350043,2024-09-07T08:55:50.043Z,62364,0.2366333,0.90283203,0.2241211
1725699350092,2024-09-07T08:55:50.092Z,62413,0.11212158,0.8911133,0.23724365
1725699350135,2024-09-07T08:55:50.135Z,62456,0.11444092,0.9226074,0.2286377
1725699350181,2024-09-07T08:55:50.181Z,62502,0.11437988,0.87280273,0.26965332
1725699350225,2024-09-07T08:55:50.225Z,62546,0.10595703,0.9160156,0.22180176
1725699350266,2024-09-07T08:55:50.266Z,62587,0.16448975,0.95269775,0.22192383
1725699350314,2024-09-07T08:55:50.314Z,62635,0.06304932,0.9526367,0.22528076
1725699350366,2024-09-07T08:55:50.366Z,62687,0.20507812,1.0100098,0.28845215
1725699350388,2024-09-07T08:55:50.388Z,62709,0.122924805,0.9499512,0.2666626
1725699350412,2024-09-07T08:55:50.412Z,62733,0.12347412,0.8765869,0.3394165
1725699350446,2024-09-07T08:55:50.446Z,62767,0.17382812,0.88623047,0.30303955
1725699350492,2024-09-07T08:55:50.492Z,62813,0.16662598,0.9369507,0.32409668
1725699350544,2024-09-07T08:55:50.544Z,62865,0.17529297,1.0343018,0.27038574
1725699350582,2024-09-07T08:55:50.582Z,62903,0.17889404,0.989624,0.30181885
1725699350630,2024-09-07T08:55:50.630Z,62951,0.1796875,0.97576904,0.27008057
1725699350673,2024-09-07T08:55:50.673Z,62994,0.15209961,0.8988037,0.27764893
1725699350718,2024-09-07T08:55:50.718Z,63039,0.19854736,0.89508057,0.29888916
1725699350762,2024-09-07T08:55:50.762Z,63083,0.16131592,0.92041016,0.29534912
1725699350779,2024-09-07T08:55:50.779Z,63100,0.22784424,0.9737549,0.3322754
1725699350809,2024-09-07T08:55:50.809Z,63130,0.15563965,0.99157715,0.25775146
1725699350853,2024-09-07T08:55:50.853Z,63174,0.18817139,0.9816284,0.27227783
1725699350898,2024-09-07T08:55:50.898Z,63219,0.20159912,0.9141846,0.34387207
1725699350939,2024-09-07T08:55:50.939Z,63260,0.1251831,0.9432373,0.2288208
1725699350985,2024-09-07T08:55:50.985Z,63306,0.20532227,0.927124,0.29248047
1725699351028,2024-09-07T08:55:51.028Z,63349,0.15527344,0.9683838,0.25878906
1725699351074,2024-09-07T08:55:51.074Z,63395,0.15301514,0.9545288,0.26763916
