Timestamp (ms),ISO DateTime,Elapsed Time (ms),Acceleration X,Acceleration Y,Acceleration Z
1725818586112,2024-09-08T18:03:06.112Z,226972,-0.10974121,-1.0402222,0.19573975
1725818586126,2024-09-08T18:03:06.126Z,226986,-0.08300781,-0.95996094,0.13964844
1725818586161,2024-09-08T18:03:06.161Z,227021,-0.073791504,-0.91015625,0.12713623
1725818586172,2024-09-08T18:03:06.172Z,227032,-0.061523438,-0.91204834,0.13195801
1725818586181,2024-09-08T18:03:06.181Z,227041,-0.06738281,-0.93444824,0.13922119
1725818586190,2024-09-08T18:03:06.190Z,227050,-0.0748291,-0.9627075,0.13305664
1725818586222,2024-09-08T18:03:06.222Z,227082,-0.10168457,-0.98101807,0.13165283
1725818586232,2024-09-08T18:03:06.232Z,227092,-0.107421875,-0.9529419,0.15100098
1725818586361,2024-09-08T18:03:06.361Z,227221,-0.09869385,-0.925354,0.13098145
1725818586370,2024-09-08T18:03:06.370Z,227230,-0.07757568,-0.88635254,0.13671875
1725818586380,2024-09-08T18:03:06.380Z,227240,-0.051208496,-0.8502197,0.15509033
1725818586403,2024-09-08T18:03:06.403Z,227263,-0.018676758,-0.82836914,0.1461792
1725818586543,2024-09-08T18:03:06.543Z,227403,-0.004638672,-0.8190918,0.12512207
1725818586635,2024-09-08T18:03:06.635Z,227495,-0.02923584,-0.84594727,0.12695312
1725818586658,2024-09-08T18:03:06.658Z,227518,-0.062316895,-0.88134766,0.15673828
1725818586682,2024-09-08T18:03:06.682Z,227542,-0.04345703,-0.8970337,0.15588379
1725818586695,2024-09-08T18:03:06.695Z,227555,-0.037841797,-0.8903198,0.15167236
1725818586707,2024-09-08T18:03:06.707Z,227567,-0.05419922,-0.9059448,0.14550781
1725818586718,2024-09-08T18:03:06.718Z,227578,-0.06628418,-0.9025879,0.17608643
1725818586728,2024-09-08T18:03:06.728Z,227588,-0.06896973,-0.9022827,0.17059326
1725818586763,2024-09-08T18:03:06.763Z,227623,-0.062927246,-0.91864014,0.18389893
1725818586808,2024-09-08T18:03:06.808Z,227668,-0.066589355,-0.9472656,0.18133545
1725818586861,2024-09-08T18:03:06.861Z,227721,-0.07092285,-0.95684814,0.14727783
1725818586915,2024-09-08T18:03:06.915Z,227775,-0.11053467,-0.9842529,0.15722656
1725818586933,2024-09-08T18:03:06.933Z,227793,-0.10131836,-0.97869873,0.16320801
1725818586945,2024-09-08T18:03:06.945Z,227805,-0.07354736,-0.99053955,0.15350342
1725818586991,2024-09-08T18:03:06.991Z,227851,-0.07098389,-1.0003662,0.17626953
1725818587037,2024-09-08T18:03:07.037Z,227897,-0.11682129,-1.0343018,0.18066406
1725818587091,2024-09-08T18:03:07.091Z,227951,-0.1270752,-1.0238037,0.20306396
1725818587125,2024-09-08T18:03:07.125Z,227985,-0.09899902,-1.0012207,0.19830322
1725818587172,2024-09-08T18:03:07.172Z,228032,-0.07269287,-0.9907837,0.22259521
1725818587218,2024-09-08T18:03:07.218Z,228078,-0.06738281,-0.9852905,0.19354248
1725818587275,2024-09-08T18:03:07.275Z,228135,-0.055236816,-0.977478,0.21221924
1725818587308,2024-09-08T18:03:07.308Z,228168,-0.06427002,-1.026062,0.21411133
1725818587355,2024-09-08T18:03:07.355Z,228215,-0.09246826,-1.0773315,0.22369385
1725818587376,2024-09-08T18:03:07.376Z,228236,-0.1328125,-1.1114502,0.21826172
1725818587396,2024-09-08T18:03:07.396Z,228256,-0.15753174,-1.0948486,0.19689941
1725818587441,2024-09-08T18:03:07.441Z,228301,-0.11859131,-1.06073,0.2140503
1725818587576,2024-09-08T18:03:07.576Z,228436,-0.105895996,-1.0219727,0.16271973
1725818587621,2024-09-08T18:03:07.621Z,228481,-0.10681152,-1.0111084,0.22131348
1725818587639,2024-09-08T18:03:07.639Z,228499,-0.12878418,-1.017273,0.20465088
1725818587666,2024-09-08T18:03:07.666Z,228526,-0.13964844,-1.0618286,0.2142334
1725818587773,2024-09-08T18:03:07.773Z,228633,-0.16015625,-1.098877,0.19812012
1725818587791,2024-09-08T18:03:07.791Z,228651,-0.11315918,-1.0751953,0.23699951
1725818587808,2024-09-08T18:03:07.808Z,228668,-0.09313965,-1.0227661,0.22247314
1725818587826,2024-09-08T18:03:07.826Z,228686,-0.10925293,-0.99554443,0.20928955
1725818587845,2024-09-08T18:03:07.845Z,228705,-0.1083374,-0.95996094,0.1739502
1725818587862,2024-09-08T18:03:07.862Z,228722,-0.10455322,-0.9647827,0.20233154
1725818587891,2024-09-08T18:03:07.891Z,228751,-0.1071167,-1.0198975,0.16986084
1725818587937,2024-09-08T18:03:07.937Z,228797,-0.1416626,-1.0870361,0.21569824
1725818587984,2024-09-08T18:03:07.984Z,228844,-0.13415527,-1.1132812,0.19134521
1725818588030,2024-09-08T18:03:08.030Z,228890,-0.109191895,-1.100708,0.21820068
1725818588074,2024-09-08T18:03:08.074Z,228934,-0.09844971,-1.1091919,0.1987915
1725818588122,2024-09-08T18:03:08.122Z,228982,-0.1274414,-1.1031494,0.22802734
1725818588165,2024-09-08T18:03:08.165Z,229025,-0.13555908,-1.078186,0.18878174
1725818588190,2024-09-08T18:03:08.190Z,229050,-0.1404419,-1.0494995,0.18603516
1725818588255,2024-09-08T18:03:08.255Z,229115,-0.15466309,-1.0369873,0.18414307
1725818588388,2024-09-08T18:03:08.388Z,229248,-0.15014648,-1.031189,0.19348145
1725818588409,2024-09-08T18:03:08.409Z,229269,-0.13195801,-1.0299072,0.15216064
1725818588429,2024-09-08T18:03:08.429Z,229289,-0.12731934,-1.0366821,0.19616699
1725818588444,2024-09-08T18:03:08.444Z,229304,-0.109436035,-1.0358887,0.19958496
1725818588456,2024-09-08T18:03:08.456Z,229316,-0.08569336,-1.0496216,0.2020874
1725818588473,2024-09-08T18:03:08.473Z,229333,-0.11975098,-1.0679932,0.18774414
1725818588610,2024-09-08T18:03:08.610Z,229470,-0.14294434,-1.0820923,0.20709229
1725818588701,2024-09-08T18:03:08.701Z,229561,-0.101379395,-1.0601196,0.18029785
1725818588719,2024-09-08T18:03:08.719Z,229579,-0.101135254,-1.0202637,0.1828003
1725818588735,2024-09-08T18:03:08.735Z,229595,-0.12402344,-0.9871216,0.17346191
1725818588749,2024-09-08T18:03:08.749Z,229609,-0.11993408,-0.9315796,0.1593628
1725818588761,2024-09-08T18:03:08.761Z,229621,-0.10412598,-0.8759155,0.15777588
1725818588771,2024-09-08T18:03:08.771Z,229631,-0.083740234,-0.8590088,0.14929199
1725818588786,2024-09-08T18:03:08.786Z,229646,-0.091674805,-0.836792,0.16271973
1725818588887,2024-09-08T18:03:08.887Z,229747,-0.11303711,-0.80841064,0.14398193
1725818588903,2024-09-08T18:03:08.903Z,229763,-0.14093018,-0.7548218,0.123413086
1725818588930,2024-09-08T18:03:08.930Z,229790,-0.14196777,-0.6777954,0.08508301
1725818588971,2024-09-08T18:03:08.971Z,229831,-0.10925293,-0.62579346,0.06555176
1725818589019,2024-09-08T18:03:09.019Z,229879,-0.13043213,-0.6326294,0.0670166
1725818589042,2024-09-08T18:03:09.042Z,229902,-0.14196777,-0.7548828,0.08874512
1725818589105,2024-09-08T18:03:09.105Z,229965,-0.18139648,-0.90167236,0.08325195
1725818589123,2024-09-08T18:03:09.123Z,229983,-0.23242188,-1.057373,0.08483887
1725818589154,2024-09-08T18:03:09.154Z,230014,-0.22729492,-1.1032715,0.1751709
1725818589199,2024-09-08T18:03:09.199Z,230059,-0.18383789,-1.017456,0.184021
1725818589243,2024-09-08T18:03:09.243Z,230103,-0.14508057,-0.91448975,0.14971924
1725818589287,2024-09-08T18:03:09.287Z,230147,-0.15319824,-0.8907471,0.12225342
1725818589330,2024-09-08T18:03:09.330Z,230190,-0.16833496,-0.9043579,0.14422607
1725818589378,2024-09-08T18:03:09.378Z,230238,-0.1616211,-0.9332886,0.14611816
1725818589421,2024-09-08T18:03:09.421Z,230281,-0.1428833,-0.960083,0.13653564
1725818589440,2024-09-08T18:03:09.440Z,230300,-0.16668701,-0.97314453,0.13189697
1725818589465,2024-09-08T18:03:09.465Z,230325,-0.17974854,-0.98895264,0.12249756
1725818589605,2024-09-08T18:03:09.605Z,230465,-0.1550293,-0.98223877,0.15264893
1725818589625,2024-09-08T18:03:09.625Z,230485,-0.1720581,-0.98913574,0.12683105
1725818589644,2024-09-08T18:03:09.644Z,230504,-0.17932129,-0.98223877,0.14581299
1725818589657,2024-09-08T18:03:09.657Z,230517,-0.15484619,-0.9765625,0.14025879
1725818589686,2024-09-08T18:03:09.686Z,230546,-0.12158203,-0.96655273,0.14337158
1725818589733,2024-09-08T18:03:09.733Z,230593,-0.1338501,-0.9515991,0.15045166
1725818589878,2024-09-08T18:03:09.878Z,230738,-0.14746094,-0.9641113,0.1003418
1725818589898,2024-09-08T18:03:09.898Z,230758,-0.15997314,-0.9529419,0.11846924
1725818589919,2024-09-08T18:03:09.919Z,230779,-0.1630249,-0.9301758,0.12060547
1725818589962,2024-09-08T18:03:09.962Z,230822,-0.16217041,-0.8826294,0.1138916
1725818589982,2024-09-08T18:03:09.982Z,230842,-0.1638794,-0.8409424,0.12786865
1725818590014,2024-09-08T18:03:10.014Z,230874,-0.19006348,-0.8345947,0.103149414
1725818590033,2024-09-08T18:03:10.033Z,230893,-0.18255615,-0.8598633,0.101379395
1725818590144,2024-09-08T18:03:10.144Z,231004,-0.1774292,-0.881958,0.07989502
1725818590160,2024-09-08T18:03:10.160Z,231020,-0.15527344,-0.8903198,0.14056396
1725818590176,2024-09-08T18:03:10.176Z,231036,-0.15979004,-0.92510986,0.13934326
1725818590187,2024-09-08T18:03:10.187Z,231047,-0.14056396,-0.93481445,0.10998535
1725818590229,2024-09-08T18:03:10.229Z,231089,-0.13287354,-0.91955566,0.14697266
1725818590323,2024-09-08T18:03:10.323Z,231183,-0.1663208,-0.91864014,0.10455322
1725818590341,2024-09-08T18:03:10.341Z,231201,-0.17449951,-0.9098511,0.11853027
1725818590354,2024-09-08T18:03:10.354Z,231214,-0.16040039,-0.9081421,0.11212158
1725818590457,2024-09-08T18:03:10.457Z,231317,-0.16955566,-0.8986206,0.124938965
1725818590473,2024-09-08T18:03:10.473Z,231333,-0.15423584,-0.91674805,0.11151123
1725818590487,2024-09-08T18:03:10.487Z,231347,-0.15496826,-0.9246826,0.13458252
1725818590499,2024-09-08T18:03:10.499Z,231359,-0.16711426,-0.93585205,0.12677002
1725818590544,2024-09-08T18:03:10.544Z,231404,-0.18493652,-0.946167,0.1437378
1725818590646,2024-09-08T18:03:10.646Z,231506,-0.1484375,-0.93933105,0.1574707
1725818590665,2024-09-08T18:03:10.665Z,231525,-0.14923096,-0.9645386,0.121032715
1725818590679,2024-09-08T18:03:10.679Z,231539,-0.14459229,-0.99798584,0.119506836
1725818590830,2024-09-08T18:03:10.830Z,231690,-0.14453125,-1.0284424,0.118896484
1725818590852,2024-09-08T18:03:10.852Z,231712,-0.09454346,-1.0197754,0.15771484
1725818590872,2024-09-08T18:03:10.872Z,231732,-0.109191895,-1.0386963,0.13671875
1725818590885,2024-09-08T18:03:10.885Z,231745,-0.13531494,-1.0405884,0.13189697
1725818590952,2024-09-08T18:03:10.952Z,231812,-0.12188721,-1.036499,0.123413086
1725818590968,2024-09-08T18:03:10.968Z,231828,-0.09991455,-1.0172119,0.16400146
1725818590987,2024-09-08T18:03:10.987Z,231847,-0.0947876,-0.9838867,0.15594482
1725818591003,2024-09-08T18:03:11.003Z,231863,-0.114990234,-0.9863281,0.16601562
1725818591036,2024-09-08T18:03:11.036Z,231896,-0.11047363,-0.9881592,0.1618042
1725818591224,2024-09-08T18:03:11.224Z,232084,-0.10443115,-1.0134888,0.1486206
1725818591243,2024-09-08T18:03:11.243Z,232103,-0.11981201,-1.036499,0.18597412
1725818591262,2024-09-08T18:03:11.262Z,232122,-0.13995361,-1.0528564,0.17346191
1725818591274,2024-09-08T18:03:11.274Z,232134,-0.110839844,-1.048645,0.1381836
1725818591285,2024-09-08T18:03:11.285Z,232145,-0.10803223,-1.02948,0.15655518
1725818591296,2024-09-08T18:03:11.296Z,232156,-0.13409424,-1.0493164,0.14910889
1725818591308,2024-09-08T18:03:11.308Z,232168,-0.11846924,-1.0298462,0.159729
1725818591351,2024-09-08T18:03:11.351Z,232211,-0.11248779,-1.0368042,0.20324707
1725818591402,2024-09-08T18:03:11.402Z,232262,-0.14593506,-1.0356445,0.18811035
1725818591447,2024-09-08T18:03:11.447Z,232307,-0.10491943,-1.0195312,0.21228027
1725818591536,2024-09-08T18:03:11.536Z,232396,-0.10656738,-1.0018921,0.21496582
1725818591555,2024-09-08T18:03:11.555Z,232415,-0.14624023,-1.0112305,0.21240234
1725818591575,2024-09-08T18:03:11.575Z,232435,-0.14929199,-1.0009155,0.20147705
1725818591589,2024-09-08T18:03:11.589Z,232449,-0.13153076,-0.9833374,0.19049072
1725818591625,2024-09-08T18:03:11.625Z,232485,-0.09979248,-0.9555664,0.19921875
1725818591671,2024-09-08T18:03:11.671Z,232531,-0.12298584,-0.9609375,0.16033936
1725818591717,2024-09-08T18:03:11.717Z,232577,-0.13763428,-0.9741211,0.18188477
1725818591762,2024-09-08T18:03:11.762Z,232622,-0.12005615,-0.9718628,0.15551758
1725818591808,2024-09-08T18:03:11.808Z,232668,-0.11462402,-1.0021973,0.1560669
1725818591854,2024-09-08T18:03:11.854Z,232714,-0.09185791,-1.0057373,0.18041992
1725818591897,2024-09-08T18:03:11.897Z,232757,-0.12677002,-1.0640869,0.15374756
1725818591952,2024-09-08T18:03:11.952Z,232812,-0.119628906,-1.1038208,0.1616211
1725818591969,2024-09-08T18:03:11.969Z,232829,-0.107788086,-1.1347656,0.14556885
1725818591982,2024-09-08T18:03:11.982Z,232842,-0.08929443,-1.1661987,0.20098877
1725818592039,2024-09-08T18:03:12.039Z,232899,-0.081726074,-1.1911011,0.20422363
1725818592078,2024-09-08T18:03:12.078Z,232938,-0.11126709,-1.1644897,0.18908691
1725818592120,2024-09-08T18:03:12.120Z,232980,-0.10424805,-1.1230469,0.2084961
1725818592178,2024-09-08T18:03:12.178Z,233038,-0.12536621,-1.0773315,0.27062988
1725818592212,2024-09-08T18:03:12.212Z,233072,-0.10473633,-1.0214844,0.18914795
1725818592260,2024-09-08T18:03:12.260Z,233120,-0.12573242,-1.0125122,0.215271
1725818592312,2024-09-08T18:03:12.312Z,233172,-0.13336182,-1.0356445,0.19390869
1725818592348,2024-09-08T18:03:12.348Z,233208,-0.12615967,-1.0583496,0.22973633
1725818592391,2024-09-08T18:03:12.391Z,233251,-0.13067627,-1.0635986,0.23132324
1725818592409,2024-09-08T18:03:12.409Z,233269,-0.14666748,-1.0721436,0.2703247
1725818592446,2024-09-08T18:03:12.446Z,233306,-0.11663818,-1.0297852,0.26379395
1725818592572,2024-09-08T18:03:12.572Z,233432,-0.12261963,-0.99194336,0.21911621
1725818592593,2024-09-08T18:03:12.593Z,233453,-0.12615967,-0.93634033,0.19573975
1725818592615,2024-09-08T18:03:12.615Z,233475,-0.1463623,-0.89630127,0.17071533
1725818592632,2024-09-08T18:03:12.632Z,233492,-0.15423584,-0.8497925,0.16540527
1725818592668,2024-09-08T18:03:12.668Z,233528,-0.14355469,-0.8243408,0.1651001
1725818592704,2024-09-08T18:03:12.704Z,233564,-0.14752197,-0.84143066,0.14569092
1725818592799,2024-09-08T18:03:12.799Z,233659,-0.18206787,-0.8722534,0.15185547
1725818592817,2024-09-08T18:03:12.817Z,233677,-0.22924805,-0.85772705,0.16131592
1725818592835,2024-09-08T18:03:12.835Z,233695,-0.17510986,-0.74279785,0.13098145
1725818592847,2024-09-08T18:03:12.847Z,233707,-0.08972168,-0.5907593,0.15393066
1725818592886,2024-09-08T18:03:12.886Z,233746,-0.081848145,-0.5685425,0.09295654
1725818592940,2024-09-08T18:03:12.940Z,233800,-0.08911133,-0.64886475,0.125
1725818592977,2024-09-08T18:03:12.977Z,233837,-0.18408203,-0.8111572,0.1741333
1725818593068,2024-09-08T18:03:13.068Z,233928,-0.30981445,-1.0305176,0.13354492
1725818593087,2024-09-08T18:03:13.087Z,233947,-0.3345337,-1.1403809,0.12573242
1725818593111,2024-09-08T18:03:13.111Z,233971,-0.20135498,-1.0636597,0.15307617
1725818593157,2024-09-08T18:03:13.157Z,234017,-0.12597656,-0.9309082,0.16467285
1725818593203,2024-09-08T18:03:13.203Z,234063,-0.12438965,-0.86621094,0.16564941
1725818593221,2024-09-08T18:03:13.221Z,234081,-0.15600586,-0.8822632,0.1296997
1725818593245,2024-09-08T18:03:13.245Z,234105,-0.17938232,-0.9093628,0.1449585
1725818593292,2024-09-08T18:03:13.292Z,234152,-0.20983887,-0.9538574,0.152771
1725818593338,2024-09-08T18:03:13.338Z,234198,-0.2006836,-0.96643066,0.13391113
1725818593380,2024-09-08T18:03:13.380Z,234240,-0.20446777,-0.9668579,0.17840576
1725818593428,2024-09-08T18:03:13.428Z,234288,-0.23883057,-0.9869995,0.15283203
1725818593471,2024-09-08T18:03:13.471Z,234331,-0.2524414,-0.9796753,0.11468506
1725818593517,2024-09-08T18:03:13.517Z,234377,-0.22113037,-0.94940186,0.17456055
1725818593561,2024-09-08T18:03:13.561Z,234421,-0.2253418,-0.9385376,0.14361572
1725818593607,2024-09-08T18:03:13.607Z,234467,-0.23016357,-0.921875,0.15411377
1725818593628,2024-09-08T18:03:13.628Z,234488,-0.24047852,-0.9212036,0.15283203
1725818593652,2024-09-08T18:03:13.652Z,234512,-0.25030518,-0.9206543,0.14099121
1725818593696,2024-09-08T18:03:13.696Z,234556,-0.26086426,-0.9282837,0.14038086
1725818593741,2024-09-08T18:03:13.741Z,234601,-0.2255249,-0.9136963,0.15704346
1725818593787,2024-09-08T18:03:13.787Z,234647,-0.24163818,-0.92663574,0.119262695
1725818593832,2024-09-08T18:03:13.832Z,234692,-0.21057129,-0.92059326,0.15612793
1725818593968,2024-09-08T18:03:13.968Z,234828,-0.21722412,-0.93408203,0.14807129
1725818594011,2024-09-08T18:03:14.011Z,234871,-0.222229,-0.9384155,0.16363525
1725818594029,2024-09-08T18:03:14.029Z,234889,-0.21832275,-0.90563965,0.14678955
1725818594051,2024-09-08T18:03:14.051Z,234911,-0.18395996,-0.8654785,0.13391113
1725818594103,2024-09-08T18:03:14.103Z,234963,-0.16571045,-0.8305664,0.13781738
1725818594118,2024-09-08T18:03:14.118Z,234978,-0.17041016,-0.8279419,0.13568115
1725818594155,2024-09-08T18:03:14.155Z,235015,-0.14129639,-0.8434448,0.15753174
1725818594173,2024-09-08T18:03:14.173Z,235033,-0.15551758,-0.8555298,0.11956787
1725818594187,2024-09-08T18:03:14.187Z,235047,-0.13800049,-0.86572266,0.14440918
1725818594232,2024-09-08T18:03:14.232Z,235092,-0.17669678,-0.93170166,0.112854004
1725818594283,2024-09-08T18:03:14.283Z,235143,-0.20080566,-0.927063,0.1665039
1725818594327,2024-09-08T18:03:14.327Z,235187,-0.21765137,-0.9598999,0.12042236
1725818594372,2024-09-08T18:03:14.372Z,235232,-0.21063232,-0.92700195,0.103393555
1725818594418,2024-09-08T18:03:14.418Z,235278,-0.21264648,-0.8977051,0.13183594
1725818594462,2024-09-08T18:03:14.462Z,235322,-0.17510986,-0.8985596,0.10394287
1725818594481,2024-09-08T18:03:14.481Z,235341,-0.17333984,-0.9048462,0.1484375
1725818594503,2024-09-08T18:03:14.503Z,235363,-0.19836426,-0.9647217,0.17523193
1725818594552,2024-09-08T18:03:14.552Z,235412,-0.16900635,-1.0039062,0.14953613
1725818594598,2024-09-08T18:03:14.598Z,235458,-0.12384033,-0.9972534,0.18060303
1725818594641,2024-09-08T18:03:14.641Z,235501,-0.16229248,-1.0228882,0.13366699
1725818594732,2024-09-08T18:03:14.732Z,235592,-0.18029785,-1.019043,0.15106201
1725818594750,2024-09-08T18:03:14.750Z,235610,-0.12188721,-1.0041504,0.1550293
1725818594775,2024-09-08T18:03:14.775Z,235635,-0.09020996,-0.9990845,0.13549805
1725818594867,2024-09-08T18:03:14.867Z,235727,-0.09765625,-1.0031738,0.15148926
1725818594884,2024-09-08T18:03:14.884Z,235744,-0.14379883,-1.0076904,0.16217041
1725818594903,2024-09-08T18:03:14.903Z,235763,-0.1005249,-0.97229004,0.12860107
1725818594914,2024-09-08T18:03:14.914Z,235774,-0.06793213,-0.9527588,0.17437744
1725818594955,2024-09-08T18:03:14.955Z,235815,-0.0680542,-0.97436523,0.13018799
1725818595000,2024-09-08T18:03:15Z,235860,-0.101989746,-1.0123901,0.14215088
1725818595091,2024-09-08T18:03:15.091Z,235951,-0.11669922,-1.0543823,0.13659668
1725818595110,2024-09-08T18:03:15.110Z,235970,-0.12371826,-1.0670166,0.1538086
1725818595146,2024-09-08T18:03:15.146Z,236006,-0.14160156,-1.0808105,0.13769531
1725818595182,2024-09-08T18:03:15.182Z,236042,-0.13031006,-1.0621948,0.19891357
1725818595225,2024-09-08T18:03:15.225Z,236085,-0.11834717,-1.0297852,0.14031982
1725818595271,2024-09-08T18:03:15.271Z,236131,-0.12145996,-1.0327148,0.17279053
1725818595316,2024-09-08T18:03:15.316Z,236176,-0.14971924,-1.0234375,0.14093018
1725818595333,2024-09-08T18:03:15.333Z,236193,-0.16442871,-1.0438232,0.11907959
1725818595360,2024-09-08T18:03:15.360Z,236220,-0.12054443,-1.0101929,0.2010498
1725818595406,2024-09-08T18:03:15.406Z,236266,-0.12011719,-1.0037231,0.12310791
1725818595451,2024-09-08T18:03:15.451Z,236311,-0.12042236,-1.0125732,0.15008545
1725818595498,2024-09-08T18:03:15.498Z,236358,-0.14343262,-1.0037842,0.16821289
1725818595542,2024-09-08T18:03:15.542Z,236402,-0.11468506,-0.98791504,0.16748047
1725818595588,2024-09-08T18:03:15.588Z,236448,-0.101501465,-0.98773193,0.18774414
1725818595630,2024-09-08T18:03:15.630Z,236490,-0.12023926,-1.0186157,0.16070557
1725818595676,2024-09-08T18:03:15.676Z,236536,-0.13684082,-1.0151367,0.20581055
1725818595722,2024-09-08T18:03:15.722Z,236582,-0.088256836,-0.98950195,0.1772461
1725818595774,2024-09-08T18:03:15.774Z,236634,-0.10308838,-1.0013428,0.15930176
1725818595791,2024-09-08T18:03:15.791Z,236651,-0.15863037,-1.0106201,0.16577148
1725818595808,2024-09-08T18:03:15.808Z,236668,-0.13745117,-1.0126343,0.18475342
1725818595856,2024-09-08T18:03:15.856Z,236716,-0.11053467,-1.0241699,0.168396
1725818595902,2024-09-08T18:03:15.902Z,236762,-0.09661865,-1.036377,0.16802979
1725818595947,2024-09-08T18:03:15.947Z,236807,-0.14141846,-1.0639038,0.20373535
1725818596038,2024-09-08T18:03:16.038Z,236898,-0.14544678,-1.1022949,0.15338135
1725818596057,2024-09-08T18:03:16.057Z,236917,-0.13415527,-1.1048584,0.20513916
1725818596081,2024-09-08T18:03:16.081Z,236941,-0.13769531,-1.1203613,0.1685791
1725818596128,2024-09-08T18:03:16.128Z,236988,-0.13183594,-1.0592651,0.21972656
1725818596148,2024-09-08T18:03:16.148Z,237008,-0.09020996,-1.017456,0.19445801
1725818596220,2024-09-08T18:03:16.220Z,237080,-0.07952881,-1.0117188,0.20098877
1725818596237,2024-09-08T18:03:16.237Z,237097,-0.13708496,-1.0403442,0.19940186
1725818596258,2024-09-08T18:03:16.258Z,237118,-0.16558838,-1.0517578,0.19641113
1725818596311,2024-09-08T18:03:16.311Z,237171,-0.11273193,-1.031189,0.16900635
1725818596350,2024-09-08T18:03:16.350Z,237210,-0.11260986,-1.0249634,0.16760254
1725818596395,2024-09-08T18:03:16.395Z,237255,-0.123535156,-1.010437,0.17010498
1725818596486,2024-09-08T18:03:16.486Z,237346,-0.13793945,-1.0525513,0.16278076
1725818596504,2024-09-08T18:03:16.504Z,237364,-0.13330078,-1.0523682,0.12921143
1725818596529,2024-09-08T18:03:16.529Z,237389,-0.12963867,-1.0471802,0.1765747
1725818596576,2024-09-08T18:03:16.576Z,237436,-0.13116455,-1.0291748,0.15789795
1725818596595,2024-09-08T18:03:16.595Z,237455,-0.14489746,-1.0187988,0.17529297
1725818596622,2024-09-08T18:03:16.622Z,237482,-0.14257812,-1.0202637,0.18566895
1725818596676,2024-09-08T18:03:16.676Z,237536,-0.15820312,-1.001831,0.2084961
1725818596712,2024-09-08T18:03:16.712Z,237572,-0.175354,-0.98480225,0.16314697
1725818596758,2024-09-08T18:03:16.758Z,237618,-0.15020752,-0.9158325,0.19122314
1725818596800,2024-09-08T18:03:16.800Z,237660,-0.15081787,-0.8694458,0.18572998
1725818596849,2024-09-08T18:03:16.849Z,237709,-0.13256836,-0.8283081,0.1906128
1725818596903,2024-09-08T18:03:16.903Z,237763,-0.16662598,-0.84265137,0.15710449
1725818596981,2024-09-08T18:03:16.981Z,237841,-0.16662598,-0.8286743,0.18322754
1725818597001,2024-09-08T18:03:17.001Z,237861,-0.1763916,-0.7843628,0.14678955
1725818597019,2024-09-08T18:03:17.019Z,237879,-0.15637207,-0.6958008,0.095458984
1725818597034,2024-09-08T18:03:17.034Z,237894,-0.13562012,-0.64501953,0.08831787
1725818597072,2024-09-08T18:03:17.072Z,237932,-0.1071167,-0.66186523,0.05456543
1725818597116,2024-09-08T18:03:17.116Z,237976,-0.10284424,-0.7349243,0.09020996
1725818597207,2024-09-08T18:03:17.207Z,238067,-0.15789795,-0.9127197,0.055908203
1725818597223,2024-09-08T18:03:17.223Z,238083,-0.24017334,-1.0639648,0.10638428
1725818597251,2024-09-08T18:03:17.251Z,238111,-0.199646,-1.0577393,0.11199951
1725818597296,2024-09-08T18:03:17.296Z,238156,-0.15063477,-1.0097046,0.09863281
1725818597340,2024-09-08T18:03:17.340Z,238200,-0.17956543,-0.9892578,0.06591797
1725818597385,2024-09-08T18:03:17.385Z,238245,-0.19763184,-0.9678345,0.094177246
1725818597403,2024-09-08T18:03:17.403Z,238263,-0.1484375,-0.9450073,0.0803833
1725818597430,2024-09-08T18:03:17.430Z,238290,-0.12017822,-0.90563965,0.12628174
1725818597477,2024-09-08T18:03:17.477Z,238337,-0.13537598,-0.9300537,0.068847656
1725818597528,2024-09-08T18:03:17.528Z,238388,-0.17700195,-0.9602051,0.13983154
1725818597567,2024-09-08T18:03:17.567Z,238427,-0.15783691,-0.9897461,0.14428711
1725818597612,2024-09-08T18:03:17.612Z,238472,-0.14770508,-0.9934082,0.13842773
1725818597656,2024-09-08T18:03:17.656Z,238516,-0.140625,-0.9699707,0.19812012
1725818597700,2024-09-08T18:03:17.700Z,238560,-0.16821289,-0.97857666,0.17529297
1725818597752,2024-09-08T18:03:17.752Z,238612,-0.18432617,-0.9829712,0.14068604
1725818597792,2024-09-08T18:03:17.792Z,238652,-0.16748047,-0.96936035,0.1595459
1725818597836,2024-09-08T18:03:17.836Z,238696,-0.15405273,-0.9637451,0.17163086
1725818597857,2024-09-08T18:03:17.857Z,238717,-0.12762451,-0.9406738,0.16107178
1725818597888,2024-09-08T18:03:17.888Z,238748,-0.1741333,-0.9765625,0.13513184
1725818597972,2024-09-08T18:03:17.972Z,238832,-0.21166992,-0.98028564,0.1515503
1725818597992,2024-09-08T18:03:17.992Z,238852,-0.20727539,-0.9680176,0.13635254
1725818598012,2024-09-08T18:03:18.012Z,238872,-0.18865967,-0.9039917,0.13861084
1725818598288,2024-09-08T18:03:18.288Z,239148,-0.14538574,-0.82507324,0.12335205
1725818598310,2024-09-08T18:03:18.310Z,239170,-0.13470459,-0.7859497,0.13171387
1725818598330,2024-09-08T18:03:18.330Z,239190,-0.14489746,-0.78411865,0.11651611
1725818598348,2024-09-08T18:03:18.348Z,239208,-0.1694336,-0.85009766,0.118652344
1725818598359,2024-09-08T18:03:18.359Z,239219,-0.15997314,-0.8890381,0.13189697
1725818598371,2024-09-08T18:03:18.371Z,239231,-0.20062256,-0.9268799,0.12823486
1725818598382,2024-09-08T18:03:18.382Z,239242,-0.18890381,-0.93927,0.12731934
1725818598418,2024-09-08T18:03:18.418Z,239278,-0.17907715,-0.95928955,0.10723877
1725818598428,2024-09-08T18:03:18.428Z,239288,-0.1920166,-0.96875,0.13970947
1725818598438,2024-09-08T18:03:18.438Z,239298,-0.19091797,-0.96551514,0.15789795
1725818598559,2024-09-08T18:03:18.559Z,239419,-0.12561035,-0.9314575,0.14770508
1725818598576,2024-09-08T18:03:18.576Z,239436,-0.14550781,-0.9059448,0.13128662
1725818598597,2024-09-08T18:03:18.597Z,239457,-0.17858887,-0.91137695,0.16101074
1725818598608,2024-09-08T18:03:18.608Z,239468,-0.17572021,-0.9159546,0.1640625
1725818598647,2024-09-08T18:03:18.647Z,239507,-0.14160156,-0.9227295,0.18078613
1725818598663,2024-09-08T18:03:18.663Z,239523,-0.21081543,-0.9645386,0.14831543
1725818598736,2024-09-08T18:03:18.736Z,239596,-0.18939209,-0.9637451,0.13470459
1725818598753,2024-09-08T18:03:18.753Z,239613,-0.15039062,-0.9534912,0.20202637
1725818598826,2024-09-08T18:03:18.826Z,239686,-0.15447998,-0.9536743,0.14050293
1725818598842,2024-09-08T18:03:18.842Z,239702,-0.20172119,-0.9746094,0.16296387
1725818598871,2024-09-08T18:03:18.871Z,239731,-0.20123291,-0.9874878,0.16668701
1725818598917,2024-09-08T18:03:18.917Z,239777,-0.14172363,-0.9851074,0.17779541
1725818598962,2024-09-08T18:03:18.962Z,239822,-0.12249756,-0.96417236,0.1463623
1725818599007,2024-09-08T18:03:19.007Z,239867,-0.16235352,-0.97631836,0.1897583
1725818599098,2024-09-08T18:03:19.098Z,239958,-0.1921997,-0.975647,0.16101074
1725818599117,2024-09-08T18:03:19.117Z,239977,-0.18536377,-0.95422363,0.16967773
1725818599136,2024-09-08T18:03:19.136Z,239996,-0.17700195,-0.9609375,0.115722656
1725818599185,2024-09-08T18:03:19.185Z,240045,-0.15875244,-0.94610596,0.17572021
1725818599202,2024-09-08T18:03:19.202Z,240062,-0.16925049,-0.9515381,0.14447021
1725818599241,2024-09-08T18:03:19.241Z,240101,-0.19146729,-0.96795654,0.093811035
1725818599365,2024-09-08T18:03:19.365Z,240225,-0.22418213,-1.0025024,0.15563965
1725818599384,2024-09-08T18:03:19.384Z,240244,-0.19311523,-1.0404663,0.12347412
1725818599403,2024-09-08T18:03:19.403Z,240263,-0.11907959,-1.0319214,0.16375732
1725818599418,2024-09-08T18:03:19.418Z,240278,-0.12164307,-1.0473633,0.19464111
1725818599455,2024-09-08T18:03:19.455Z,240315,-0.14672852,-1.0892334,0.20391846
1725818599499,2024-09-08T18:03:19.499Z,240359,-0.17907715,-1.09729,0.2376709
1725818599514,2024-09-08T18:03:19.514Z,240374,-0.14105225,-1.0809937,0.20050049
1725818599548,2024-09-08T18:03:19.548Z,240408,-0.10522461,-1.0478516,0.23083496
1725818599589,2024-09-08T18:03:19.589Z,240449,-0.097961426,-1.0300903,0.18902588
1725818599634,2024-09-08T18:03:19.634Z,240494,-0.11987305,-1.0302124,0.2119751
1725818599680,2024-09-08T18:03:19.680Z,240540,-0.09729004,-1.0252075,0.18347168
1725818599735,2024-09-08T18:03:19.735Z,240595,-0.12054443,-1.0130005,0.2053833
1725818599772,2024-09-08T18:03:19.772Z,240632,-0.09246826,-0.9880371,0.1807251
1725818599816,2024-09-08T18:03:19.816Z,240676,-0.09289551,-0.9723511,0.20391846
1725818599910,2024-09-08T18:03:19.910Z,240770,-0.081604004,-0.97283936,0.20245361
1725818599930,2024-09-08T18:03:19.930Z,240790,-0.11010742,-0.9777832,0.18389893
1725818599950,2024-09-08T18:03:19.950Z,240810,-0.12145996,-0.9974365,0.18835449
1725818599968,2024-09-08T18:03:19.968Z,240828,-0.11999512,-1.0003662,0.19171143
1725818599997,2024-09-08T18:03:19.997Z,240857,-0.12487793,-1.0289917,0.17480469
1725818600040,2024-09-08T18:03:20.040Z,240900,-0.1282959,-1.0492554,0.21228027
1725818600087,2024-09-08T18:03:20.087Z,240947,-0.11645508,-1.1026001,0.14819336
1725818600132,2024-09-08T18:03:20.132Z,240992,-0.13330078,-1.0986328,0.25097656
1725818600177,2024-09-08T18:03:20.177Z,241037,-0.15319824,-1.1315918,0.17370605
1725818600228,2024-09-08T18:03:20.228Z,241088,-0.13323975,-1.0776367,0.14459229
1725818600316,2024-09-08T18:03:20.316Z,241176,-0.11505127,-1.0354004,0.16003418
1725818600335,2024-09-08T18:03:20.335Z,241195,-0.10437012,-0.9866333,0.18292236
1725818600355,2024-09-08T18:03:20.355Z,241215,-0.067871094,-0.9909668,0.16125488
1725818600371,2024-09-08T18:03:20.371Z,241231,-0.10211182,-1.0425415,0.19299316
1725818600401,2024-09-08T18:03:20.401Z,241261,-0.11279297,-1.0810547,0.20733643
1725818600445,2024-09-08T18:03:20.445Z,241305,-0.137146,-1.0830078,0.2296753
1725818600535,2024-09-08T18:03:20.535Z,241395,-0.07727051,-1.0509033,0.20178223
1725818600556,2024-09-08T18:03:20.556Z,241416,-0.06390381,-1.0324097,0.18585205
1725818600581,2024-09-08T18:03:20.581Z,241441,-0.14025879,-1.0566406,0.1729126
1725818600633,2024-09-08T18:03:20.633Z,241493,-0.13983154,-1.0723877,0.20843506
1725818600718,2024-09-08T18:03:20.718Z,241578,-0.11968994,-1.0509644,0.121398926
1725818600737,2024-09-08T18:03:20.737Z,241597,-0.13195801,-1.001648,0.14916992
1725818600806,2024-09-08T18:03:20.806Z,241666,-0.13433838,-0.986084,0.13916016
1725818600825,2024-09-08T18:03:20.825Z,241685,-0.1194458,-0.9644165,0.16674805
1725818600841,2024-09-08T18:03:20.841Z,241701,-0.103393555,-0.9517822,0.16790771
1725818600896,2024-09-08T18:03:20.896Z,241756,-0.119018555,-0.9290161,0.14398193
1725818600911,2024-09-08T18:03:20.911Z,241771,-0.15887451,-0.9182739,0.13745117
1725818600941,2024-09-08T18:03:20.941Z,241801,-0.14318848,-0.90093994,0.11138916
1725818600996,2024-09-08T18:03:20.996Z,241856,-0.13043213,-0.8831787,0.1071167
1725818601032,2024-09-08T18:03:21.032Z,241892,-0.14379883,-0.87316895,0.1138916
1725818601120,2024-09-08T18:03:21.120Z,241980,-0.16271973,-0.8876343,0.12664795
1725818601144,2024-09-08T18:03:21.144Z,242004,-0.15686035,-0.8551636,0.11621094
1725818601213,2024-09-08T18:03:21.213Z,242073,-0.14318848,-0.7779541,0.10180664
1725818601232,2024-09-08T18:03:21.232Z,242092,-0.12158203,-0.68756104,0.10266113
1725818601251,2024-09-08T18:03:21.251Z,242111,-0.09515381,-0.63323975,0.089782715
1725818601301,2024-09-08T18:03:21.301Z,242161,-0.109558105,-0.6903076,0.12689209
1725818601354,2024-09-08T18:03:21.354Z,242214,-0.12121582,-0.8148804,0.15509033
1725818601374,2024-09-08T18:03:21.374Z,242234,-0.19146729,-0.993042,0.112976074
1725818601392,2024-09-08T18:03:21.392Z,242252,-0.20617676,-1.0532227,0.19671631
1725818601436,2024-09-08T18:03:21.436Z,242296,-0.15350342,-1.0221558,0.14813232
1725818601481,2024-09-08T18:03:21.481Z,242341,-0.11743164,-0.96777344,0.1772461
1725818601526,2024-09-08T18:03:21.526Z,242386,-0.13769531,-0.9790039,0.16009521
1725818601572,2024-09-08T18:03:21.572Z,242432,-0.14630127,-0.9614868,0.17852783
1725818601616,2024-09-08T18:03:21.616Z,242476,-0.13519287,-0.94244385,0.17608643
1725818601636,2024-09-08T18:03:21.636Z,242496,-0.11608887,-0.9520874,0.17102051
1725818601662,2024-09-08T18:03:21.662Z,242522,-0.13787842,-0.97265625,0.18041992
1725818601714,2024-09-08T18:03:21.714Z,242574,-0.12121582,-0.9654541,0.20196533
1725818601750,2024-09-08T18:03:21.750Z,242610,-0.15594482,-0.98376465,0.20373535
1725818601843,2024-09-08T18:03:21.843Z,242703,-0.12982178,-0.94744873,0.1427002
1725818601862,2024-09-08T18:03:21.862Z,242722,-0.12335205,-0.9378662,0.18640137
1725818601886,2024-09-08T18:03:21.886Z,242746,-0.16259766,-0.9595337,0.15185547
1725818601931,2024-09-08T18:03:21.931Z,242791,-0.13983154,-0.9645996,0.17608643
1725818602021,2024-09-08T18:03:22.021Z,242881,-0.12756348,-0.9783325,0.14898682
1725818602039,2024-09-08T18:03:22.039Z,242899,-0.14318848,-0.97558594,0.18121338
1725818602057,2024-09-08T18:03:22.057Z,242917,-0.13604736,-0.9800415,0.17456055
1725818602074,2024-09-08T18:03:22.074Z,242934,-0.14501953,-0.97839355,0.16607666
1725818602112,2024-09-08T18:03:22.112Z,242972,-0.15435791,-0.9640503,0.19598389
1725818602155,2024-09-08T18:03:22.155Z,243015,-0.14038086,-0.97210693,0.16973877
1725818602200,2024-09-08T18:03:22.200Z,243060,-0.12084961,-0.9550171,0.18432617
1725818602245,2024-09-08T18:03:22.245Z,243105,-0.14324951,-0.96118164,0.18060303
1725818602337,2024-09-08T18:03:22.337Z,243197,-0.17041016,-0.9706421,0.16485596
1725818602354,2024-09-08T18:03:22.354Z,243214,-0.14746094,-0.9544678,0.19012451
1725818602389,2024-09-08T18:03:22.389Z,243249,-0.1329956,-0.93566895,0.16400146
1725818602427,2024-09-08T18:03:22.427Z,243287,-0.14575195,-0.91748047,0.18493652
1725818602471,2024-09-08T18:03:22.471Z,243331,-0.1552124,-0.93408203,0.16680908
1725818602571,2024-09-08T18:03:22.571Z,243431,-0.15441895,-0.94696045,0.17303467
1725818602588,2024-09-08T18:03:22.588Z,243448,-0.14733887,-0.9402466,0.16583252
1725818602605,2024-09-08T18:03:22.605Z,243465,-0.12121582,-0.9133911,0.16674805
1725818602618,2024-09-08T18:03:22.618Z,243478,-0.1005249,-0.8840332,0.17651367
1725818602647,2024-09-08T18:03:22.647Z,243507,-0.10107422,-0.87823486,0.17382812
1725818602691,2024-09-08T18:03:22.691Z,243551,-0.1060791,-0.86920166,0.1671753
1725818602782,2024-09-08T18:03:22.782Z,243642,-0.082458496,-0.8624878,0.17779541
1725818602792,2024-09-08T18:03:22.792Z,243652,-0.062316895,-0.8387451,0.19500732
1725818602827,2024-09-08T18:03:22.827Z,243687,-0.07904053,-0.8387451,0.15478516
1725818602872,2024-09-08T18:03:22.872Z,243732,-0.095581055,-0.83325195,0.16351318
1725818602882,2024-09-08T18:03:22.882Z,243742,-0.09716797,-0.87677,0.16918945
1725818602918,2024-09-08T18:03:22.918Z,243778,-0.07904053,-0.8658447,0.16955566
1725818602962,2024-09-08T18:03:22.962Z,243822,-0.09210205,-0.8902588,0.15838623
1725818603006,2024-09-08T18:03:23.006Z,243866,-0.11431885,-0.9246826,0.13134766
1725818603097,2024-09-08T18:03:23.097Z,243957,-0.12158203,-0.95025635,0.20593262
1725818603109,2024-09-08T18:03:23.109Z,243969,-0.070007324,-0.93011475,0.17468262
1725818603142,2024-09-08T18:03:23.142Z,244002,-0.056518555,-0.95043945,0.15661621
1725818603187,2024-09-08T18:03:23.187Z,244047,-0.051208496,-0.94573975,0.19244385
1725818603232,2024-09-08T18:03:23.232Z,244092,-0.08013916,-0.9869995,0.2243042
1725818603282,2024-09-08T18:03:23.282Z,244142,-0.06463623,-0.9737549,0.17919922
1725818603327,2024-09-08T18:03:23.327Z,244187,-0.045898438,-0.987854,0.17346191
1725818603338,2024-09-08T18:03:23.338Z,244198,-0.03253174,-1.0010376,0.21368408
1725818603372,2024-09-08T18:03:23.372Z,244232,-0.051879883,-1.0447998,0.20703125
1725818603412,2024-09-08T18:03:23.412Z,244272,-0.085998535,-1.0667114,0.21392822
1725818603502,2024-09-08T18:03:23.502Z,244362,-0.048339844,-1.0359497,0.18530273
1725818603512,2024-09-08T18:03:23.512Z,244372,-0.013000488,-1.00354,0.18395996
1725818603547,2024-09-08T18:03:23.547Z,244407,-0.053771973,-0.9881592,0.20812988
1725818603592,2024-09-08T18:03:23.592Z,244452,-0.074157715,-0.9771118,0.20977783
1725818603683,2024-09-08T18:03:23.683Z,244543,-0.1270752,-0.99835205,0.18463135
1725818603693,2024-09-08T18:03:23.693Z,244553,-0.101623535,-0.9906006,0.21496582
1725818603703,2024-09-08T18:03:23.703Z,244563,-0.10809326,-1.0096436,0.22650146
1725818603727,2024-09-08T18:03:23.727Z,244587,-0.07647705,-0.98828125,0.21362305
1725818603772,2024-09-08T18:03:23.772Z,244632,-0.12042236,-1.0180664,0.18469238
1725818603817,2024-09-08T18:03:23.817Z,244677,-0.10998535,-1.0170288,0.20391846
1725818603862,2024-09-08T18:03:23.862Z,244722,-0.11437988,-1.0263062,0.20996094
1725818603952,2024-09-08T18:03:23.952Z,244812,-0.08099365,-1.0264893,0.21472168
1725818603962,2024-09-08T18:03:23.962Z,244822,-0.09411621,-1.0748291,0.18823242
1725818603997,2024-09-08T18:03:23.997Z,244857,-0.0692749,-1.0651855,0.23742676
1725818604042,2024-09-08T18:03:24.042Z,244902,-0.037231445,-1.0437012,0.22790527
1725818604087,2024-09-08T18:03:24.087Z,244947,-0.041381836,-1.0557251,0.22503662
1725818604132,2024-09-08T18:03:24.132Z,244992,-0.06530762,-1.0722656,0.22442627
1725818604143,2024-09-08T18:03:24.143Z,245003,-0.09527588,-1.0877075,0.21411133
1725818604177,2024-09-08T18:03:24.177Z,245037,-0.07116699,-1.0654297,0.2654419
1725818604222,2024-09-08T18:03:24.222Z,245082,-0.049560547,-1.0461426,0.22479248
1725818604277,2024-09-08T18:03:24.277Z,245137,-0.046081543,-1.0389404,0.24353027
1725818604312,2024-09-08T18:03:24.312Z,245172,-0.059631348,-1.050354,0.2546997
1725818604357,2024-09-08T18:03:24.357Z,245217,-0.07952881,-1.0709229,0.24737549
1725818604402,2024-09-08T18:03:24.402Z,245262,-0.09674072,-1.085083,0.2581787
1725818604447,2024-09-08T18:03:24.447Z,245307,-0.07733154,-1.086731,0.24456787
1725818604492,2024-09-08T18:03:24.492Z,245352,-0.12237549,-1.083313,0.26739502
1725818604537,2024-09-08T18:03:24.537Z,245397,-0.09991455,-1.064331,0.25012207
1725818604546,2024-09-08T18:03:24.546Z,245406,-0.10083008,-1.0324707,0.24163818
1725818604582,2024-09-08T18:03:24.582Z,245442,-0.11413574,-1.0254517,0.24810791
1725818604672,2024-09-08T18:03:24.672Z,245532,-0.08465576,-1.0064697,0.21765137
1725818604682,2024-09-08T18:03:24.682Z,245542,-0.08898926,-1.0247803,0.20483398
1725818604718,2024-09-08T18:03:24.718Z,245578,-0.080566406,-1.0354614,0.22296143
1725818604807,2024-09-08T18:03:24.807Z,245667,-0.107421875,-1.0640259,0.21118164
1725818604819,2024-09-08T18:03:24.819Z,245679,-0.064697266,-1.0449829,0.2423706
1725818604897,2024-09-08T18:03:24.897Z,245757,-0.058776855,-1.015564,0.19464111
1725818604918,2024-09-08T18:03:24.918Z,245778,-0.08898926,-0.9881592,0.25128174
1725818604942,2024-09-08T18:03:24.942Z,245802,-0.0713501,-0.9515381,0.20727539
1725818604952,2024-09-08T18:03:24.952Z,245812,-0.069885254,-0.9442749,0.1675415
1725818604987,2024-09-08T18:03:24.987Z,245847,-0.09265137,-0.96221924,0.17230225
1725818605077,2024-09-08T18:03:25.077Z,245937,-0.128479,-0.9602661,0.2286377
1725818605217,2024-09-08T18:03:25.217Z,246077,-0.09063721,-0.9177246,0.17211914
1725818605227,2024-09-08T18:03:25.227Z,246087,-0.070495605,-0.866333,0.1383667
1725818605238,2024-09-08T18:03:25.238Z,246098,-0.11291504,-0.87353516,0.18267822
1725818605249,2024-09-08T18:03:25.249Z,246109,-0.13452148,-0.8684082,0.17059326
1725818605302,2024-09-08T18:03:25.302Z,246162,-0.10870361,-0.8234863,0.16766357
1725818605397,2024-09-08T18:03:25.397Z,246257,-0.09588623,-0.758728,0.12231445
1725818605489,2024-09-08T18:03:25.489Z,246349,-0.09741211,-0.7074585,0.1439209
1725818605528,2024-09-08T18:03:25.528Z,246388,-0.09069824,-0.7130127,0.13641357
1725818605535,2024-09-08T18:03:25.535Z,246395,-0.08831787,-0.7369385,0.13372803
