Timestamp (ms),ISO DateTime,Elapsed Time (ms),Acceleration X,Acceleration Y,Acceleration Z
1735323750536,2024-12-27T18:22:30.536Z,131851,0.0072021484,-0.11743164,0.045166016
1735323750540,2024-12-27T18:22:30.540Z,131855,0.0051879883,-0.11608887,0.04559326
1735323750558,2024-12-27T18:22:30.558Z,131873,0.0032958984,-0.115600586,0.04473877
1735323750569,2024-12-27T18:22:30.569Z,131884,0.003540039,-0.114746094,0.045410156
1735323750579,2024-12-27T18:22:30.579Z,131894,0.003479004,-0.11413574,0.04449463
1735323750590,2024-12-27T18:22:30.590Z,131905,0.00390625,-0.114868164,0.044067383
1735323750600,2024-12-27T18:22:30.600Z,131915,0.0022583008,-0.114868164,0.04473877
1735323750609,2024-12-27T18:22:30.609Z,131924,3.0517578E-4,-0.11395264,0.04321289
1735323750618,2024-12-27T18:22:30.618Z,131933,0.0036010742,-0.11303711,0.044189453
1735323750627,2024-12-27T18:22:30.627Z,131942,0.0041503906,-0.113342285,0.045410156
1735323750639,2024-12-27T18:22:30.639Z,131954,3.6621094E-4,-0.11376953,0.045776367
1735323750647,2024-12-27T18:22:30.647Z,131962,-4.8828125E-4,-0.11444092,0.043151855
1735323750657,2024-12-27T18:22:30.657Z,131972,-0.0010986328,-0.11419678,0.0446167
1735323750665,2024-12-27T18:22:30.665Z,131980,-0.0014038086,-0.11273193,0.046081543
1735323750673,2024-12-27T18:22:30.673Z,131988,3.0517578E-4,-0.112854004,0.043701172
1735323750682,2024-12-27T18:22:30.682Z,131997,-7.324219E-4,-0.11462402,0.040527344
1735323750690,2024-12-27T18:22:30.690Z,132005,-0.001953125,-0.11633301,0.04260254
1735323750698,2024-12-27T18:22:30.698Z,132013,-0.0024414062,-0.115722656,0.0423584
1735323750707,2024-12-27T18:22:30.707Z,132022,-0.0020751953,-0.114746094,0.0423584
1735323750716,2024-12-27T18:22:30.716Z,132031,-0.0018310547,-0.11340332,0.043640137
1735323750724,2024-12-27T18:22:30.724Z,132039,-0.0026245117,-0.113586426,0.042663574
1735323750733,2024-12-27T18:22:30.733Z,132048,-0.0048217773,-0.11395264,0.04272461
1735323750742,2024-12-27T18:22:30.742Z,132057,-0.0022583008,-0.11413574,0.040893555
1735323750751,2024-12-27T18:22:30.751Z,132066,9.1552734E-4,-0.11529541,0.0413208
1735323750760,2024-12-27T18:22:30.760Z,132075,-3.6621094E-4,-0.11621094,0.041870117
1735323750768,2024-12-27T18:22:30.768Z,132083,-0.0026855469,-0.11419678,0.043640137
1735323750776,2024-12-27T18:22:30.776Z,132091,-0.0028076172,-0.11450195,0.04486084
1735323750785,2024-12-27T18:22:30.785Z,132100,-0.0036010742,-0.11578369,0.044006348
1735323750894,2024-12-27T18:22:30.894Z,132209,-0.007873535,-0.11645508,0.042114258
1735323750903,2024-12-27T18:22:30.903Z,132218,-0.010009766,-0.11505127,0.042053223
1735323750916,2024-12-27T18:22:30.916Z,132231,-0.0059814453,-0.113586426,0.04473877
1735323750931,2024-12-27T18:22:30.931Z,132246,-0.0064697266,-0.11462402,0.042907715
1735323750942,2024-12-27T18:22:30.942Z,132257,-0.008361816,-0.114746094,0.04272461
1735323750951,2024-12-27T18:22:30.951Z,132266,-0.008361816,-0.113708496,0.045288086
1735323750960,2024-12-27T18:22:30.960Z,132275,-0.0099487305,-0.11383057,0.043029785
1735323750968,2024-12-27T18:22:30.968Z,132283,-0.0076293945,-0.11621094,0.041259766
1735323750977,2024-12-27T18:22:30.977Z,132292,-0.010925293,-0.115234375,0.0423584
1735323750987,2024-12-27T18:22:30.987Z,132302,-0.012390137,-0.11450195,0.04284668
1735323750997,2024-12-27T18:22:30.997Z,132312,-0.011047363,-0.11407471,0.044067383
1735323751007,2024-12-27T18:22:31.007Z,132322,-0.0045776367,-0.114868164,0.043945312
1735323751016,2024-12-27T18:22:31.016Z,132331,-0.00579834,-0.11437988,0.044555664
1735323751027,2024-12-27T18:22:31.027Z,132342,-0.005432129,-0.11450195,0.04437256
1735323751035,2024-12-27T18:22:31.035Z,132350,-0.0034179688,-0.11413574,0.046569824
1735323751044,2024-12-27T18:22:31.044Z,132359,-0.0037841797,-0.115600586,0.04437256
1735323751053,2024-12-27T18:22:31.053Z,132368,-0.008239746,-0.11627197,0.042053223
1735323751062,2024-12-27T18:22:31.062Z,132377,-0.0034179688,-0.11608887,0.0423584
1735323751071,2024-12-27T18:22:31.071Z,132386,-1.2207031E-4,-0.11651611,0.0423584
1735323751081,2024-12-27T18:22:31.081Z,132396,-0.0028076172,-0.11602783,0.043518066
1735323751091,2024-12-27T18:22:31.091Z,132406,-0.0029907227,-0.11291504,0.04522705
1735323751100,2024-12-27T18:22:31.100Z,132415,-4.8828125E-4,-0.11187744,0.04522705
1735323751109,2024-12-27T18:22:31.109Z,132424,6.713867E-4,-0.11431885,0.046142578
1735323751119,2024-12-27T18:22:31.119Z,132434,-0.0016479492,-0.11444092,0.04522705
1735323751130,2024-12-27T18:22:31.130Z,132445,-0.005554199,-0.11383057,0.042236328
1735323751139,2024-12-27T18:22:31.139Z,132454,-0.003967285,-0.11260986,0.04095459
1735323751148,2024-12-27T18:22:31.148Z,132463,-2.4414062E-4,-0.111328125,0.04345703
1735323751158,2024-12-27T18:22:31.158Z,132473,-0.002380371,-0.11224365,0.043701172
1735323751168,2024-12-27T18:22:31.168Z,132483,-0.0053710938,-0.11206055,0.043518066
1735323751177,2024-12-27T18:22:31.177Z,132492,-0.002746582,-0.10925293,0.047424316
1735323751186,2024-12-27T18:22:31.186Z,132501,-0.004272461,-0.110961914,0.044677734
1735323751195,2024-12-27T18:22:31.195Z,132510,-0.006958008,-0.11248779,0.043823242
1735323751208,2024-12-27T18:22:31.208Z,132523,-0.006286621,-0.11077881,0.043884277
1735323751216,2024-12-27T18:22:31.216Z,132531,-0.006164551,-0.11114502,0.04144287
1735323751223,2024-12-27T18:22:31.223Z,132538,-0.006652832,-0.11260986,0.042175293
1735323751231,2024-12-27T18:22:31.231Z,132546,-0.010986328,-0.11151123,0.042114258
1735323751241,2024-12-27T18:22:31.241Z,132556,-0.00970459,-0.109680176,0.04473877
1735323751253,2024-12-27T18:22:31.253Z,132568,-0.0045166016,-0.10961914,0.046569824
1735323751262,2024-12-27T18:22:31.262Z,132577,-9.765625E-4,-0.10949707,0.04711914
1735323751270,2024-12-27T18:22:31.270Z,132585,-0.0010375977,-0.10852051,0.045776367
1735323751279,2024-12-27T18:22:31.279Z,132594,-0.0053710938,-0.109313965,0.04309082
1735323751287,2024-12-27T18:22:31.287Z,132602,-0.014465332,-0.109680176,0.039794922
1735323751296,2024-12-27T18:22:31.296Z,132611,-0.010559082,-0.107299805,0.04083252
1735323751305,2024-12-27T18:22:31.305Z,132620,-0.004760742,-0.105163574,0.043945312
1735323751313,2024-12-27T18:22:31.313Z,132628,-0.008605957,-0.105163574,0.043029785
1735323751322,2024-12-27T18:22:31.322Z,132637,-0.005554199,-0.10455322,0.046203613
1735323751330,2024-12-27T18:22:31.330Z,132645,0.0,-0.103881836,0.046875
1735323751345,2024-12-27T18:22:31.345Z,132660,-3.0517578E-4,-0.104003906,0.045288086
1735323751353,2024-12-27T18:22:31.353Z,132668,-0.006286621,-0.103637695,0.04107666
1735323751360,2024-12-27T18:22:31.360Z,132675,-0.008422852,-0.10424805,0.038269043
1735323751368,2024-12-27T18:22:31.368Z,132683,-0.005432129,-0.104003906,0.044555664
1735323751377,2024-12-27T18:22:31.377Z,132692,-0.002746582,-0.10345459,0.043884277
1735323751387,2024-12-27T18:22:31.387Z,132702,-0.006713867,-0.10357666,0.039489746
1735323751396,2024-12-27T18:22:31.396Z,132711,-0.003479004,-0.10131836,0.04547119
1735323751406,2024-12-27T18:22:31.406Z,132721,8.544922E-4,-0.10040283,0.046936035
1735323751414,2024-12-27T18:22:31.414Z,132729,-0.0013427734,-0.10205078,0.042907715
1735323751424,2024-12-27T18:22:31.424Z,132739,6.713867E-4,-0.10119629,0.043945312
1735323751433,2024-12-27T18:22:31.433Z,132748,0.0028686523,-0.10107422,0.043884277
1735323751444,2024-12-27T18:22:31.444Z,132759,0.0040893555,-0.10168457,0.04699707
1735323751454,2024-12-27T18:22:31.454Z,132769,-0.0025634766,-0.10241699,0.043395996
1735323751462,2024-12-27T18:22:31.462Z,132777,-0.004760742,-0.10406494,0.041137695
1735323751472,2024-12-27T18:22:31.472Z,132787,-0.006713867,-0.1038208,0.04296875
1735323751480,2024-12-27T18:22:31.480Z,132795,-0.0015869141,-0.10266113,0.04827881
1735323751488,2024-12-27T18:22:31.488Z,132803,-0.0010986328,-0.10266113,0.04840088
1735323751496,2024-12-27T18:22:31.496Z,132811,-0.0016479492,-0.10461426,0.04699707
1735323751504,2024-12-27T18:22:31.504Z,132819,0.0017700195,-0.10522461,0.051696777
1735323751513,2024-12-27T18:22:31.513Z,132828,-0.00390625,-0.10620117,0.047851562
1735323751521,2024-12-27T18:22:31.521Z,132836,-0.003112793,-0.10809326,0.04626465
1735323751529,2024-12-27T18:22:31.529Z,132844,-0.004699707,-0.107543945,0.047668457
1735323751537,2024-12-27T18:22:31.537Z,132852,-0.008544922,-0.1083374,0.04486084
1735323751549,2024-12-27T18:22:31.549Z,132864,-0.005432129,-0.107299805,0.047973633
1735323751556,2024-12-27T18:22:31.556Z,132871,-1.8310547E-4,-0.10614014,0.05126953
1735323751564,2024-12-27T18:22:31.564Z,132879,0.0017089844,-0.10681152,0.054748535
1735323751572,2024-12-27T18:22:31.572Z,132887,-0.0018920898,-0.107055664,0.051208496
1735323751579,2024-12-27T18:22:31.579Z,132894,-0.010314941,-0.10620117,0.04498291
1735323751590,2024-12-27T18:22:31.590Z,132905,-0.005493164,-0.10803223,0.04449463
1735323751599,2024-12-27T18:22:31.599Z,132914,-0.0017089844,-0.1083374,0.04498291
1735323751608,2024-12-27T18:22:31.608Z,132923,1.2207031E-4,-0.10650635,0.046813965
1735323751621,2024-12-27T18:22:31.621Z,132936,-0.003479004,-0.10473633,0.047973633
1735323751633,2024-12-27T18:22:31.633Z,132948,-0.0040283203,-0.103271484,0.048828125
1735323751641,2024-12-27T18:22:31.641Z,132956,-0.0021972656,-0.103271484,0.0513916
1735323751655,2024-12-27T18:22:31.655Z,132970,-0.0015258789,-0.103271484,0.04937744
1735323751665,2024-12-27T18:22:31.665Z,132980,-0.0073242188,-0.10345459,0.041503906
1735323751675,2024-12-27T18:22:31.675Z,132990,-0.0053100586,-0.10272217,0.044799805
1735323751688,2024-12-27T18:22:31.688Z,133003,0.0021972656,-0.10333252,0.048217773
1735323751696,2024-12-27T18:22:31.696Z,133011,-0.0032958984,-0.10205078,0.047424316
1735323751705,2024-12-27T18:22:31.705Z,133020,-0.0017700195,-0.10205078,0.04925537
1735323751713,2024-12-27T18:22:31.713Z,133028,-0.0072631836,-0.101745605,0.046020508
1735323751722,2024-12-27T18:22:31.722Z,133037,-0.0061035156,-0.101257324,0.047607422
1735323751729,2024-12-27T18:22:31.729Z,133044,-0.0041503906,-0.10131836,0.049865723
1735323751738,2024-12-27T18:22:31.738Z,133053,-0.0036010742,-0.10180664,0.047546387
1735323751746,2024-12-27T18:22:31.746Z,133061,-0.006713867,-0.101989746,0.047973633
1735323751754,2024-12-27T18:22:31.754Z,133069,-0.010253906,-0.10144043,0.045837402
1735323751762,2024-12-27T18:22:31.762Z,133077,-0.014282227,-0.101501465,0.044006348
1735323751770,2024-12-27T18:22:31.770Z,133085,-0.009521484,-0.10076904,0.04650879
1735323751788,2024-12-27T18:22:31.788Z,133103,-0.007385254,-0.10095215,0.046081543
1735323751796,2024-12-27T18:22:31.796Z,133111,-0.008178711,-0.10205078,0.050964355
1735323751804,2024-12-27T18:22:31.804Z,133119,-0.007751465,-0.10321045,0.04815674
1735323751812,2024-12-27T18:22:31.812Z,133127,-0.013122559,-0.105529785,0.044555664
1735323751820,2024-12-27T18:22:31.820Z,133135,-0.018066406,-0.1048584,0.046020508
1735323751832,2024-12-27T18:22:31.832Z,133147,-0.011413574,-0.103271484,0.046813965
1735323751839,2024-12-27T18:22:31.839Z,133154,-0.010192871,-0.10430908,0.04724121
1735323751877,2024-12-27T18:22:31.877Z,133192,-0.010620117,-0.10430908,0.04815674
1735323751887,2024-12-27T18:22:31.887Z,133202,-0.012390137,-0.10406494,0.04888916
1735323751895,2024-12-27T18:22:31.895Z,133210,-0.018493652,-0.10546875,0.047180176
1735323751903,2024-12-27T18:22:31.903Z,133218,-0.01977539,-0.107055664,0.044799805
1735323751914,2024-12-27T18:22:31.914Z,133229,-0.010681152,-0.10595703,0.05078125
1735323751923,2024-12-27T18:22:31.923Z,133238,-0.011413574,-0.10583496,0.04748535
1735323751974,2024-12-27T18:22:31.974Z,133289,-0.012084961,-0.10668945,0.050231934
1735323751984,2024-12-27T18:22:31.984Z,133299,-0.01550293,-0.10668945,0.047302246
1735323751991,2024-12-27T18:22:31.991Z,133306,-0.0178833,-0.1083374,0.04119873
1735323751999,2024-12-27T18:22:31.999Z,133314,-0.0095825195,-0.10626221,0.04925537
1735323752007,2024-12-27T18:22:32.007Z,133322,-0.008605957,-0.105285645,0.048461914
1735323752016,2024-12-27T18:22:32.016Z,133331,-0.016357422,-0.10675049,0.04675293
1735323752025,2024-12-27T18:22:32.025Z,133340,-0.020019531,-0.10662842,0.04876709
1735323752033,2024-12-27T18:22:32.033Z,133348,-0.016601562,-0.105163574,0.04748535
1735323752041,2024-12-27T18:22:32.041Z,133356,-0.00982666,-0.105529785,0.046081543
1735323752050,2024-12-27T18:22:32.050Z,133365,-0.00982666,-0.10546875,0.047973633
1735323752060,2024-12-27T18:22:32.060Z,133375,-0.00982666,-0.10699463,0.04864502
1735323752069,2024-12-27T18:22:32.069Z,133384,-0.015319824,-0.10638428,0.048828125
1735323752078,2024-12-27T18:22:32.078Z,133393,-0.018127441,-0.103759766,0.047424316
1735323752088,2024-12-27T18:22:32.088Z,133403,-0.012390137,-0.10211182,0.05114746
1735323752096,2024-12-27T18:22:32.096Z,133411,-0.009460449,-0.10449219,0.052490234
1735323752105,2024-12-27T18:22:32.105Z,133420,-0.0138549805,-0.10650635,0.04711914
1735323752149,2024-12-27T18:22:32.149Z,133464,-0.010253906,-0.10784912,0.051086426
1735323752158,2024-12-27T18:22:32.158Z,133473,-0.011962891,-0.10992432,0.049987793
1735323752165,2024-12-27T18:22:32.165Z,133480,-0.016967773,-0.10687256,0.054138184
1735323752173,2024-12-27T18:22:32.173Z,133488,-0.015075684,-0.10430908,0.050354004
1735323752180,2024-12-27T18:22:32.180Z,133495,-0.018127441,-0.10443115,0.05126953
1735323752188,2024-12-27T18:22:32.188Z,133503,-0.020690918,-0.10827637,0.048095703
1735323752197,2024-12-27T18:22:32.197Z,133512,-0.020751953,-0.11010742,0.046691895
1735323752205,2024-12-27T18:22:32.205Z,133520,-0.012756348,-0.11126709,0.05078125
1735323752212,2024-12-27T18:22:32.212Z,133527,-0.011230469,-0.111572266,0.055786133
1735323752220,2024-12-27T18:22:32.220Z,133535,-0.017456055,-0.109069824,0.055908203
1735323752228,2024-12-27T18:22:32.228Z,133543,-0.014221191,-0.10864258,0.053710938
1735323752238,2024-12-27T18:22:32.238Z,133553,-0.024414062,-0.11273193,0.046875
1735323752245,2024-12-27T18:22:32.245Z,133560,-0.033935547,-0.11627197,0.04736328
1735323752252,2024-12-27T18:22:32.252Z,133567,-0.025756836,-0.117126465,0.057922363
1735323752260,2024-12-27T18:22:32.260Z,133575,-0.018615723,-0.11785889,0.059936523
1735323752267,2024-12-27T18:22:32.267Z,133582,-0.016174316,-0.117248535,0.05834961
1735323752276,2024-12-27T18:22:32.276Z,133591,-0.017822266,-0.115112305,0.059448242
1735323752286,2024-12-27T18:22:32.286Z,133601,-0.016479492,-0.11669922,0.053466797
1735323752294,2024-12-27T18:22:32.294Z,133609,-0.024597168,-0.12011719,0.04711914
1735323752302,2024-12-27T18:22:32.302Z,133617,-0.026062012,-0.12133789,0.052124023
1735323752308,2024-12-27T18:22:32.308Z,133623,-0.022827148,-0.12017822,0.06237793
1735323752316,2024-12-27T18:22:32.316Z,133631,-0.016601562,-0.118774414,0.061584473
1735323752330,2024-12-27T18:22:32.330Z,133645,-0.014770508,-0.11706543,0.06188965
1735323752338,2024-12-27T18:22:32.338Z,133653,-0.011413574,-0.116760254,0.060791016
1735323752346,2024-12-27T18:22:32.346Z,133661,-0.015319824,-0.11566162,0.058654785
1735323752355,2024-12-27T18:22:32.355Z,133670,-0.02532959,-0.11773682,0.051757812
1735323752362,2024-12-27T18:22:32.362Z,133677,-0.015930176,-0.1217041,0.054016113
1735323752374,2024-12-27T18:22:32.374Z,133689,-0.012878418,-0.12225342,0.061584473
1735323752385,2024-12-27T18:22:32.385Z,133700,-0.014282227,-0.12121582,0.06335449
1735323752396,2024-12-27T18:22:32.396Z,133711,-0.016113281,-0.117248535,0.06555176
1735323752404,2024-12-27T18:22:32.404Z,133719,-0.0178833,-0.115722656,0.06378174
1735323752413,2024-12-27T18:22:32.413Z,133728,-0.016479492,-0.11975098,0.060302734
1735323752422,2024-12-27T18:22:32.422Z,133737,-0.022888184,-0.12145996,0.058898926
1735323752509,2024-12-27T18:22:32.509Z,133824,-0.0154418945,-0.12609863,0.05670166
1735323752516,2024-12-27T18:22:32.516Z,133831,-0.012207031,-0.13128662,0.062316895
1735323752524,2024-12-27T18:22:32.524Z,133839,-0.016235352,-0.13317871,0.06549072
1735323752532,2024-12-27T18:22:32.532Z,133847,-0.025878906,-0.12902832,0.061523438
1735323752540,2024-12-27T18:22:32.540Z,133855,-0.024414062,-0.12445068,0.068603516
1735323752550,2024-12-27T18:22:32.550Z,133865,-0.028137207,-0.12512207,0.064697266
1735323752558,2024-12-27T18:22:32.558Z,133873,-0.03100586,-0.12805176,0.059814453
1735323752566,2024-12-27T18:22:32.566Z,133881,-0.014831543,-0.12908936,0.061401367
1735323752574,2024-12-27T18:22:32.574Z,133889,-0.010253906,-0.13256836,0.05987549
1735323752581,2024-12-27T18:22:32.581Z,133896,-0.015014648,-0.13824463,0.059448242
1735323752589,2024-12-27T18:22:32.589Z,133904,-0.027282715,-0.14050293,0.060180664
1735323752599,2024-12-27T18:22:32.599Z,133914,-0.024841309,-0.13208008,0.06365967
1735323752606,2024-12-27T18:22:32.606Z,133921,-0.027282715,-0.13153076,0.061462402
1735323752616,2024-12-27T18:22:32.616Z,133931,-0.022094727,-0.13641357,0.05419922
1735323752625,2024-12-27T18:22:32.625Z,133940,-0.016662598,-0.13824463,0.05682373
1735323752632,2024-12-27T18:22:32.632Z,133947,-0.019897461,-0.13787842,0.05456543
1735323752641,2024-12-27T18:22:32.641Z,133956,-0.023925781,-0.1408081,0.05291748
1735323752649,2024-12-27T18:22:32.649Z,133964,-0.026489258,-0.13934326,0.059326172
1735323752657,2024-12-27T18:22:32.657Z,133972,-0.0256958,-0.13653564,0.058044434
1735323752664,2024-12-27T18:22:32.664Z,133979,-0.023376465,-0.13494873,0.0569458
1735323752671,2024-12-27T18:22:32.671Z,133986,-0.026977539,-0.13336182,0.051696777
1735323752678,2024-12-27T18:22:32.678Z,133993,-0.02545166,-0.13397217,0.052978516
1735323752687,2024-12-27T18:22:32.687Z,134002,-0.018554688,-0.13720703,0.055725098
1735323752695,2024-12-27T18:22:32.695Z,134010,-0.013061523,-0.14038086,0.063964844
1735323752704,2024-12-27T18:22:32.704Z,134019,-0.01776123,-0.14135742,0.061340332
1735323752733,2024-12-27T18:22:32.733Z,134048,-0.03326416,-0.13903809,0.05444336
1735323752742,2024-12-27T18:22:32.742Z,134057,-0.03363037,-0.13659668,0.056640625
1735323752751,2024-12-27T18:22:32.751Z,134066,-0.02557373,-0.1348877,0.05517578
1735323752759,2024-12-27T18:22:32.759Z,134074,-0.024353027,-0.13500977,0.050842285
1735323752767,2024-12-27T18:22:32.767Z,134082,-0.02319336,-0.13647461,0.056030273
1735323752775,2024-12-27T18:22:32.775Z,134090,-0.019714355,-0.13903809,0.06451416
1735323752828,2024-12-27T18:22:32.828Z,134143,-0.01739502,-0.13964844,0.06604004
1735323752835,2024-12-27T18:22:32.835Z,134150,-0.026794434,-0.13800049,0.06048584
1735323752844,2024-12-27T18:22:32.844Z,134159,-0.0390625,-0.13684082,0.05328369
1735323752853,2024-12-27T18:22:32.853Z,134168,-0.033203125,-0.13586426,0.054504395
1735323752861,2024-12-27T18:22:32.861Z,134176,-0.024719238,-0.13476562,0.05340576
1735323752872,2024-12-27T18:22:32.872Z,134187,-0.023620605,-0.13549805,0.05645752
1735323752881,2024-12-27T18:22:32.881Z,134196,-0.022949219,-0.13665771,0.06542969
1735323752891,2024-12-27T18:22:32.891Z,134206,-0.020263672,-0.13562012,0.06201172
1735323752899,2024-12-27T18:22:32.899Z,134214,-0.023254395,-0.13317871,0.060424805
1735323752906,2024-12-27T18:22:32.906Z,134221,-0.028320312,-0.13238525,0.057800293
1735323752915,2024-12-27T18:22:32.915Z,134230,-0.030456543,-0.13140869,0.056396484
1735323752919,2024-12-27T18:22:32.919Z,134234,-0.028198242,-0.13153076,0.05102539
1735323752927,2024-12-27T18:22:32.927Z,134242,-0.020935059,-0.13409424,0.05731201
1735323752935,2024-12-27T18:22:32.935Z,134250,-0.02154541,-0.1352539,0.058166504
1735323752945,2024-12-27T18:22:32.945Z,134260,-0.021057129,-0.13232422,0.06121826
1735323752952,2024-12-27T18:22:32.952Z,134267,-0.01928711,-0.1272583,0.06378174
1735323752960,2024-12-27T18:22:32.960Z,134275,-0.020996094,-0.12402344,0.06072998
1735323752967,2024-12-27T18:22:32.967Z,134282,-0.024047852,-0.12561035,0.053771973
1735323752976,2024-12-27T18:22:32.976Z,134291,-0.02758789,-0.12670898,0.051635742
1735323752984,2024-12-27T18:22:32.984Z,134299,-0.02508545,-0.1260376,0.05267334
1735323752992,2024-12-27T18:22:32.992Z,134307,-0.019042969,-0.12774658,0.053894043
1735323753000,2024-12-27T18:22:33Z,134315,-0.015380859,-0.12683105,0.060058594
1735323753007,2024-12-27T18:22:33.007Z,134322,-0.016540527,-0.12231445,0.06036377
1735323753015,2024-12-27T18:22:33.015Z,134330,-0.02154541,-0.11853027,0.05822754
1735323753028,2024-12-27T18:22:33.028Z,134343,-0.02319336,-0.118896484,0.052612305
1735323753038,2024-12-27T18:22:33.038Z,134353,-0.023620605,-0.11883545,0.048706055
1735323753045,2024-12-27T18:22:33.045Z,134360,-0.020812988,-0.119506836,0.05053711
1735323753093,2024-12-27T18:22:33.093Z,134408,-0.020996094,-0.12084961,0.049987793
1735323753100,2024-12-27T18:22:33.100Z,134415,-0.020874023,-0.121154785,0.04937744
1735323753107,2024-12-27T18:22:33.107Z,134422,-0.01977539,-0.119140625,0.052612305
1735323753115,2024-12-27T18:22:33.115Z,134430,-0.019104004,-0.117614746,0.050964355
1735323753123,2024-12-27T18:22:33.123Z,134438,-0.022399902,-0.114868164,0.049194336
1735323753141,2024-12-27T18:22:33.141Z,134456,-0.022827148,-0.113098145,0.045410156
1735323753149,2024-12-27T18:22:33.149Z,134464,-0.018005371,-0.113464355,0.043884277
1735323753156,2024-12-27T18:22:33.156Z,134471,-0.020629883,-0.11462402,0.04272461
1735323753163,2024-12-27T18:22:33.163Z,134478,-0.022338867,-0.114746094,0.041931152
1735323753170,2024-12-27T18:22:33.170Z,134485,-0.019348145,-0.11224365,0.04309082
1735323753177,2024-12-27T18:22:33.177Z,134492,-0.016235352,-0.10974121,0.043151855
1735323753186,2024-12-27T18:22:33.186Z,134501,-0.016845703,-0.10925293,0.042236328
1735323753193,2024-12-27T18:22:33.193Z,134508,-0.0154418945,-0.109558105,0.04296875
1735323753200,2024-12-27T18:22:33.200Z,134515,-0.014953613,-0.10784912,0.04498291
1735323753206,2024-12-27T18:22:33.206Z,134521,-0.01965332,-0.10803223,0.039733887
1735323753213,2024-12-27T18:22:33.213Z,134528,-0.021484375,-0.107910156,0.037597656
1735323753228,2024-12-27T18:22:33.228Z,134543,-0.021850586,-0.10748291,0.034484863
1735323753235,2024-12-27T18:22:33.235Z,134550,-0.018859863,-0.10803223,0.034240723
1735323753242,2024-12-27T18:22:33.242Z,134557,-0.016845703,-0.107910156,0.037902832
1735323753249,2024-12-27T18:22:33.249Z,134564,-0.015686035,-0.10839844,0.040161133
1735323753255,2024-12-27T18:22:33.255Z,134570,-0.014892578,-0.10870361,0.038879395
1735323753262,2024-12-27T18:22:33.262Z,134577,-0.017211914,-0.109191895,0.037841797
1735323753277,2024-12-27T18:22:33.277Z,134592,-0.021118164,-0.1105957,0.037109375
1735323753284,2024-12-27T18:22:33.284Z,134599,-0.025512695,-0.111572266,0.035888672
1735323753292,2024-12-27T18:22:33.292Z,134607,-0.02532959,-0.10961914,0.037109375
1735323753299,2024-12-27T18:22:33.299Z,134614,-0.02319336,-0.10864258,0.038635254
1735323753308,2024-12-27T18:22:33.308Z,134623,-0.027954102,-0.1083374,0.039123535
1735323753317,2024-12-27T18:22:33.317Z,134632,-0.02746582,-0.107299805,0.0413208
1735323753324,2024-12-27T18:22:33.324Z,134639,-0.026062012,-0.10784912,0.036743164
1735323753332,2024-12-27T18:22:33.332Z,134647,-0.025939941,-0.11035156,0.03363037
1735323753341,2024-12-27T18:22:33.341Z,134656,-0.022644043,-0.11199951,0.038024902
1735323753349,2024-12-27T18:22:33.349Z,134664,-0.024536133,-0.1104126,0.03894043
1735323753357,2024-12-27T18:22:33.357Z,134672,-0.028198242,-0.109436035,0.037109375
1735323753369,2024-12-27T18:22:33.369Z,134684,-0.028564453,-0.109436035,0.03845215
1735323753378,2024-12-27T18:22:33.378Z,134693,-0.03338623,-0.10845947,0.036743164
1735323753388,2024-12-27T18:22:33.388Z,134703,-0.0335083,-0.10797119,0.0368042
1735323753395,2024-12-27T18:22:33.395Z,134710,-0.031555176,-0.10821533,0.035949707
1735323753402,2024-12-27T18:22:33.402Z,134717,-0.030029297,-0.10839844,0.035217285
1735323753411,2024-12-27T18:22:33.411Z,134726,-0.025512695,-0.1081543,0.035888672
1735323753421,2024-12-27T18:22:33.421Z,134736,-0.029907227,-0.107666016,0.035217285
1735323753431,2024-12-27T18:22:33.431Z,134746,-0.03265381,-0.10736084,0.03387451
1735323753438,2024-12-27T18:22:33.438Z,134753,-0.030456543,-0.10644531,0.03704834
1735323753454,2024-12-27T18:22:33.454Z,134769,-0.028076172,-0.10601807,0.035949707
1735323753498,2024-12-27T18:22:33.498Z,134813,-0.029785156,-0.10479736,0.0368042
1735323753504,2024-12-27T18:22:33.504Z,134819,-0.034179688,-0.101867676,0.03753662
1735323753512,2024-12-27T18:22:33.512Z,134827,-0.03253174,-0.10101318,0.034179688
1735323753520,2024-12-27T18:22:33.520Z,134835,-0.031555176,-0.10095215,0.030456543
1735323753528,2024-12-27T18:22:33.528Z,134843,-0.032348633,-0.101379395,0.029541016
1735323753537,2024-12-27T18:22:33.537Z,134852,-0.03112793,-0.101989746,0.029724121
1735323753547,2024-12-27T18:22:33.547Z,134862,-0.028747559,-0.101135254,0.034301758
1735323753557,2024-12-27T18:22:33.557Z,134872,-0.02947998,-0.10021973,0.03704834
1735323753565,2024-12-27T18:22:33.565Z,134880,-0.030883789,-0.0993042,0.037109375
1735323753572,2024-12-27T18:22:33.572Z,134887,-0.030090332,-0.097961426,0.03656006
1735323753579,2024-12-27T18:22:33.579Z,134894,-0.028076172,-0.09875488,0.03643799
1735323753587,2024-12-27T18:22:33.587Z,134902,-0.035461426,-0.099365234,0.03326416
1735323753594,2024-12-27T18:22:33.594Z,134909,-0.036865234,-0.09942627,0.03173828
1735323753601,2024-12-27T18:22:33.601Z,134916,-0.030944824,-0.09967041,0.034362793
1735323753608,2024-12-27T18:22:33.608Z,134923,-0.03149414,-0.10070801,0.035888672
1735323753614,2024-12-27T18:22:33.614Z,134929,-0.034057617,-0.10131836,0.036376953
1735323753621,2024-12-27T18:22:33.621Z,134936,-0.031799316,-0.099731445,0.037963867
1735323753638,2024-12-27T18:22:33.638Z,134953,-0.032592773,-0.09802246,0.03845215
1735323753646,2024-12-27T18:22:33.646Z,134961,-0.035339355,-0.09869385,0.037109375
1735323753652,2024-12-27T18:22:33.652Z,134967,-0.037353516,-0.09906006,0.037353516
1735323753659,2024-12-27T18:22:33.659Z,134974,-0.03552246,-0.09942627,0.038208008
1735323753679,2024-12-27T18:22:33.679Z,134994,-0.03125,-0.10040283,0.03778076
1735323753691,2024-12-27T18:22:33.691Z,135006,-0.031921387,-0.10144043,0.03778076
1735323753701,2024-12-27T18:22:33.701Z,135016,-0.035583496,-0.09991455,0.03765869
1735323753711,2024-12-27T18:22:33.711Z,135026,-0.032348633,-0.09844971,0.03881836
1735323753717,2024-12-27T18:22:33.717Z,135032,-0.03314209,-0.09777832,0.03717041
1735323753728,2024-12-27T18:22:33.728Z,135043,-0.03692627,-0.09765625,0.035217285
1735323753735,2024-12-27T18:22:33.735Z,135050,-0.03668213,-0.09741211,0.036315918
1735323753744,2024-12-27T18:22:33.744Z,135059,-0.03253174,-0.097595215,0.03741455
1735323753753,2024-12-27T18:22:33.753Z,135068,-0.030273438,-0.09814453,0.03765869
1735323753768,2024-12-27T18:22:33.768Z,135083,-0.031982422,-0.09844971,0.03656006
1735323753778,2024-12-27T18:22:33.778Z,135093,-0.03326416,-0.09814453,0.036132812
1735323753788,2024-12-27T18:22:33.788Z,135103,-0.035217285,-0.09710693,0.034606934
1735323753797,2024-12-27T18:22:33.797Z,135112,-0.03717041,-0.097229004,0.033813477
1735323753806,2024-12-27T18:22:33.806Z,135121,-0.037719727,-0.097595215,0.03277588
1735323753814,2024-12-27T18:22:33.814Z,135129,-0.035217285,-0.09674072,0.03656006
1735323753821,2024-12-27T18:22:33.821Z,135136,-0.0357666,-0.09655762,0.038269043
1735323753830,2024-12-27T18:22:33.830Z,135145,-0.036499023,-0.095825195,0.03564453
1735323753837,2024-12-27T18:22:33.837Z,135152,-0.03491211,-0.09503174,0.035705566
1735323753858,2024-12-27T18:22:33.858Z,135173,-0.0357666,-0.096069336,0.03375244
1735323753867,2024-12-27T18:22:33.867Z,135182,-0.038085938,-0.09564209,0.033081055
1735323753875,2024-12-27T18:22:33.875Z,135190,-0.038635254,-0.09515381,0.03277588
1735323753882,2024-12-27T18:22:33.882Z,135197,-0.03656006,-0.09649658,0.033203125
1735323753903,2024-12-27T18:22:33.903Z,135218,-0.039489746,-0.09661865,0.033203125
1735323753911,2024-12-27T18:22:33.911Z,135226,-0.03930664,-0.09576416,0.033691406
1735323753919,2024-12-27T18:22:33.919Z,135234,-0.03692627,-0.09625244,0.036621094
1735323753929,2024-12-27T18:22:33.929Z,135244,-0.039978027,-0.09686279,0.034606934
1735323753936,2024-12-27T18:22:33.936Z,135251,-0.04107666,-0.097961426,0.03265381
1735323753995,2024-12-27T18:22:33.995Z,135310,-0.041381836,-0.09820557,0.034362793
1735323754002,2024-12-27T18:22:34.002Z,135317,-0.04296875,-0.09967041,0.03387451
1735323754013,2024-12-27T18:22:34.013Z,135328,-0.04449463,-0.101379395,0.031982422
1735323754024,2024-12-27T18:22:34.024Z,135339,-0.04168701,-0.101989746,0.034057617
1735323754033,2024-12-27T18:22:34.033Z,135348,-0.041259766,-0.10211182,0.035095215
1735323754041,2024-12-27T18:22:34.041Z,135356,-0.04309082,-0.10430908,0.032958984
1735323754049,2024-12-27T18:22:34.049Z,135364,-0.044128418,-0.10546875,0.035583496
1735323754055,2024-12-27T18:22:34.055Z,135370,-0.045532227,-0.105773926,0.0368042
1735323754062,2024-12-27T18:22:34.062Z,135377,-0.046142578,-0.10699463,0.035217285
1735323754071,2024-12-27T18:22:34.071Z,135386,-0.047058105,-0.10784912,0.03491211
1735323754078,2024-12-27T18:22:34.078Z,135393,-0.047668457,-0.1071167,0.034240723
1735323754085,2024-12-27T18:22:34.085Z,135400,-0.04626465,-0.10803223,0.032226562
1735323754094,2024-12-27T18:22:34.094Z,135409,-0.0446167,-0.109313965,0.03338623
1735323754101,2024-12-27T18:22:34.101Z,135416,-0.04449463,-0.109436035,0.035095215
1735323754109,2024-12-27T18:22:34.109Z,135424,-0.043823242,-0.10949707,0.035339355
1735323754115,2024-12-27T18:22:34.115Z,135430,-0.042907715,-0.10974121,0.036376953
1735323754121,2024-12-27T18:22:34.121Z,135436,-0.046081543,-0.11047363,0.034606934
1735323754130,2024-12-27T18:22:34.130Z,135445,-0.04724121,-0.11090088,0.0335083
1735323754138,2024-12-27T18:22:34.138Z,135453,-0.043273926,-0.11010742,0.03466797
1735323754144,2024-12-27T18:22:34.144Z,135459,-0.0423584,-0.10992432,0.035888672
1735323754151,2024-12-27T18:22:34.151Z,135466,-0.043395996,-0.110961914,0.03466797
1735323754158,2024-12-27T18:22:34.158Z,135473,-0.041015625,-0.11114502,0.03527832
1735323754172,2024-12-27T18:22:34.172Z,135487,-0.040100098,-0.11102295,0.036376953
1735323754179,2024-12-27T18:22:34.179Z,135494,-0.041931152,-0.111206055,0.03717041
1735323754187,2024-12-27T18:22:34.187Z,135502,-0.042907715,-0.11114502,0.03704834
1735323754193,2024-12-27T18:22:34.193Z,135508,-0.04272461,-0.11114502,0.036315918
1735323754218,2024-12-27T18:22:34.218Z,135533,-0.040405273,-0.11236572,0.035217285
1735323754226,2024-12-27T18:22:34.226Z,135541,-0.03967285,-0.11254883,0.035095215
1735323754233,2024-12-27T18:22:34.233Z,135548,-0.03942871,-0.11260986,0.036315918
1735323754239,2024-12-27T18:22:34.239Z,135554,-0.03894043,-0.11413574,0.03741455
1735323754246,2024-12-27T18:22:34.246Z,135561,-0.043762207,-0.11419678,0.037841797
1735323754262,2024-12-27T18:22:34.262Z,135577,-0.043395996,-0.112976074,0.038085938
1735323754268,2024-12-27T18:22:34.268Z,135583,-0.03881836,-0.11352539,0.038085938
1735323754275,2024-12-27T18:22:34.275Z,135590,-0.04095459,-0.11444092,0.035583496
1735323754281,2024-12-27T18:22:34.281Z,135596,-0.04260254,-0.112854004,0.038269043
1735323754308,2024-12-27T18:22:34.308Z,135623,-0.040161133,-0.11236572,0.038146973
1735323754314,2024-12-27T18:22:34.314Z,135629,-0.039794922,-0.11383057,0.037475586
1735323754321,2024-12-27T18:22:34.321Z,135636,-0.04309082,-0.113464355,0.038635254
1735323754329,2024-12-27T18:22:34.329Z,135644,-0.043395996,-0.11236572,0.03741455
1735323754338,2024-12-27T18:22:34.338Z,135653,-0.039978027,-0.11206055,0.037475586
1735323754353,2024-12-27T18:22:34.353Z,135668,-0.03967285,-0.11248779,0.03869629
1735323754360,2024-12-27T18:22:34.360Z,135675,-0.040039062,-0.113342285,0.03881836
1735323754370,2024-12-27T18:22:34.370Z,135685,-0.039855957,-0.11273193,0.039367676
1735323754379,2024-12-27T18:22:34.379Z,135694,-0.039916992,-0.11224365,0.03869629
1735323754397,2024-12-27T18:22:34.397Z,135712,-0.041015625,-0.113220215,0.03869629
1735323754404,2024-12-27T18:22:34.404Z,135719,-0.042236328,-0.11383057,0.03778076
1735323754411,2024-12-27T18:22:34.411Z,135726,-0.042785645,-0.112854004,0.037902832
1735323754419,2024-12-27T18:22:34.419Z,135734,-0.04144287,-0.111572266,0.039245605
1735323754426,2024-12-27T18:22:34.426Z,135741,-0.038146973,-0.11065674,0.040161133
1735323754444,2024-12-27T18:22:34.444Z,135759,-0.03668213,-0.11016846,0.042114258
1735323754450,2024-12-27T18:22:34.450Z,135765,-0.037353516,-0.11029053,0.041748047
1735323754457,2024-12-27T18:22:34.457Z,135772,-0.040405273,-0.11071777,0.039916992
1735323754464,2024-12-27T18:22:34.464Z,135779,-0.04321289,-0.11126709,0.037231445
1735323754490,2024-12-27T18:22:34.490Z,135805,-0.0435791,-0.11065674,0.037109375
1735323754497,2024-12-27T18:22:34.497Z,135812,-0.04046631,-0.10986328,0.038879395
1735323754503,2024-12-27T18:22:34.503Z,135818,-0.039001465,-0.10961914,0.040161133
1735323754510,2024-12-27T18:22:34.510Z,135825,-0.03881836,-0.108947754,0.04046631
1735323754533,2024-12-27T18:22:34.533Z,135848,-0.039123535,-0.10821533,0.04083252
1735323754540,2024-12-27T18:22:34.540Z,135855,-0.039611816,-0.10839844,0.040649414
1735323754547,2024-12-27T18:22:34.547Z,135862,-0.04168701,-0.10870361,0.039001465
1735323754553,2024-12-27T18:22:34.553Z,135868,-0.04168701,-0.10876465,0.038269043
1735323754560,2024-12-27T18:22:34.560Z,135875,-0.040893555,-0.109436035,0.03753662
1735323754577,2024-12-27T18:22:34.577Z,135892,-0.04321289,-0.109375,0.037963867
1735323754584,2024-12-27T18:22:34.584Z,135899,-0.040283203,-0.10803223,0.04071045
1735323754590,2024-12-27T18:22:34.590Z,135905,-0.037719727,-0.10876465,0.04144287
1735323754597,2024-12-27T18:22:34.597Z,135912,-0.040161133,-0.10839844,0.04119873
1735323754624,2024-12-27T18:22:34.624Z,135939,-0.040222168,-0.10845947,0.04046631
1735323754631,2024-12-27T18:22:34.631Z,135946,-0.041748047,-0.10974121,0.038391113
1735323754637,2024-12-27T18:22:34.637Z,135952,-0.04248047,-0.11029053,0.038757324
1735323754644,2024-12-27T18:22:34.644Z,135959,-0.039916992,-0.11004639,0.039733887
1735323754650,2024-12-27T18:22:34.650Z,135965,-0.03881836,-0.109558105,0.041992188
1735323754670,2024-12-27T18:22:34.670Z,135985,-0.03869629,-0.10900879,0.042053223
1735323754677,2024-12-27T18:22:34.677Z,135992,-0.0413208,-0.10870361,0.041931152
1735323754683,2024-12-27T18:22:34.683Z,135998,-0.04071045,-0.10882568,0.0423584
1735323754689,2024-12-27T18:22:34.689Z,136004,-0.040161133,-0.10858154,0.042541504
1735323754766,2024-12-27T18:22:34.766Z,136081,-0.04083252,-0.10839844,0.04272461
1735323754781,2024-12-27T18:22:34.781Z,136096,-0.042114258,-0.10852051,0.04107666
1735323754788,2024-12-27T18:22:34.788Z,136103,-0.043029785,-0.10797119,0.03930664
1735323754798,2024-12-27T18:22:34.798Z,136113,-0.040771484,-0.10809326,0.039123535
1735323754812,2024-12-27T18:22:34.812Z,136127,-0.039611816,-0.10809326,0.039794922
1735323754821,2024-12-27T18:22:34.821Z,136136,-0.038757324,-0.10681152,0.040283203
1735323754830,2024-12-27T18:22:34.830Z,136145,-0.039001465,-0.105285645,0.03967285
1735323754838,2024-12-27T18:22:34.838Z,136153,-0.03881836,-0.10418701,0.040161133
1735323754848,2024-12-27T18:22:34.848Z,136163,-0.037597656,-0.103759766,0.039978027
1735323754857,2024-12-27T18:22:34.857Z,136172,-0.038146973,-0.10424805,0.039367676
1735323754865,2024-12-27T18:22:34.865Z,136180,-0.040039062,-0.10424805,0.038269043
1735323754872,2024-12-27T18:22:34.872Z,136187,-0.040222168,-0.10424805,0.035888672
1735323754879,2024-12-27T18:22:34.879Z,136194,-0.039001465,-0.10308838,0.036315918
1735323754886,2024-12-27T18:22:34.886Z,136201,-0.038635254,-0.10180664,0.038085938
1735323754893,2024-12-27T18:22:34.893Z,136208,-0.03765869,-0.10144043,0.03765869
1735323754899,2024-12-27T18:22:34.899Z,136214,-0.0345459,-0.10064697,0.03955078
1735323754938,2024-12-27T18:22:34.938Z,136253,-0.03491211,-0.09967041,0.038330078
1735323754946,2024-12-27T18:22:34.946Z,136261,-0.039245605,-0.099121094,0.034484863
1735323754953,2024-12-27T18:22:34.953Z,136268,-0.039855957,-0.09832764,0.034606934
1735323754961,2024-12-27T18:22:34.961Z,136276,-0.038208008,-0.097351074,0.03314209
1735323754968,2024-12-27T18:22:34.968Z,136283,-0.034973145,-0.09631348,0.03326416
1735323754985,2024-12-27T18:22:34.985Z,136300,-0.033569336,-0.09655762,0.03540039
1735323754993,2024-12-27T18:22:34.993Z,136308,-0.033325195,-0.096069336,0.03527832
1735323755000,2024-12-27T18:22:35Z,136315,-0.031799316,-0.095458984,0.036132812
1735323755006,2024-12-27T18:22:35.006Z,136321,-0.031311035,-0.096191406,0.0357666
1735323755012,2024-12-27T18:22:35.012Z,136327,-0.033203125,-0.097351074,0.03289795
1735323755032,2024-12-27T18:22:35.032Z,136347,-0.03668213,-0.09674072,0.032714844
1735323755040,2024-12-27T18:22:35.040Z,136355,-0.03717041,-0.095581055,0.035583496
1735323755051,2024-12-27T18:22:35.051Z,136366,-0.0357666,-0.09655762,0.033569336
1735323755058,2024-12-27T18:22:35.058Z,136373,-0.03564453,-0.097351074,0.034362793
1735323755064,2024-12-27T18:22:35.064Z,136379,-0.036621094,-0.09753418,0.03704834
1735323755073,2024-12-27T18:22:35.073Z,136388,-0.03540039,-0.09857178,0.035339355
1735323755080,2024-12-27T18:22:35.080Z,136395,-0.033325195,-0.099243164,0.03717041
1735323755087,2024-12-27T18:22:35.087Z,136402,-0.03540039,-0.10095215,0.039611816
1735323755095,2024-12-27T18:22:35.095Z,136410,-0.04034424,-0.1026001,0.036132812
1735323755102,2024-12-27T18:22:35.102Z,136417,-0.043151855,-0.10168457,0.036193848
1735323755108,2024-12-27T18:22:35.108Z,136423,-0.04168701,-0.1005249,0.037841797
1735323755122,2024-12-27T18:22:35.122Z,136437,-0.041259766,-0.10101318,0.037109375
1735323755128,2024-12-27T18:22:35.128Z,136443,-0.039794922,-0.101257324,0.0368042
1735323755135,2024-12-27T18:22:35.135Z,136450,-0.038879395,-0.1015625,0.03918457
1735323755142,2024-12-27T18:22:35.142Z,136457,-0.03930664,-0.103027344,0.038635254
1735323755149,2024-12-27T18:22:35.149Z,136464,-0.044921875,-0.10455322,0.03668213
1735323755163,2024-12-27T18:22:35.163Z,136478,-0.045959473,-0.10418701,0.037353516
1735323755170,2024-12-27T18:22:35.170Z,136485,-0.04437256,-0.103637695,0.038024902
1735323755177,2024-12-27T18:22:35.177Z,136492,-0.047302246,-0.103637695,0.036010742
1735323755184,2024-12-27T18:22:35.184Z,136499,-0.045410156,-0.101623535,0.03527832
1735323755190,2024-12-27T18:22:35.190Z,136505,-0.038391113,-0.10076904,0.037231445
1735323755196,2024-12-27T18:22:35.196Z,136511,-0.036865234,-0.10095215,0.037231445
1735323755209,2024-12-27T18:22:35.209Z,136524,-0.039916992,-0.1015625,0.03149414
1735323755216,2024-12-27T18:22:35.216Z,136531,-0.039794922,-0.09942627,0.03338623
1735323755222,2024-12-27T18:22:35.222Z,136537,-0.037109375,-0.09906006,0.03387451
1735323755230,2024-12-27T18:22:35.230Z,136545,-0.038085938,-0.09954834,0.034484863
1735323755237,2024-12-27T18:22:35.237Z,136552,-0.04034424,-0.0993042,0.031066895
1735323755252,2024-12-27T18:22:35.252Z,136567,-0.038513184,-0.097961426,0.030578613
1735323755258,2024-12-27T18:22:35.258Z,136573,-0.033996582,-0.097473145,0.032043457
1735323755266,2024-12-27T18:22:35.266Z,136581,-0.03479004,-0.097229004,0.032043457
1735323755273,2024-12-27T18:22:35.273Z,136588,-0.034851074,-0.09692383,0.032348633
1735323755282,2024-12-27T18:22:35.282Z,136597,-0.03387451,-0.097229004,0.03161621
1735323755297,2024-12-27T18:22:35.297Z,136612,-0.035949707,-0.09967041,0.027709961
1735323755305,2024-12-27T18:22:35.305Z,136620,-0.03741455,-0.10021973,0.029052734
1735323755311,2024-12-27T18:22:35.311Z,136626,-0.03704834,-0.097839355,0.029174805
1735323755319,2024-12-27T18:22:35.319Z,136634,-0.03668213,-0.09625244,0.030151367
1735323755343,2024-12-27T18:22:35.343Z,136658,-0.03765869,-0.09613037,0.032165527
1735323755350,2024-12-27T18:22:35.350Z,136665,-0.039489746,-0.09631348,0.032958984
1735323755357,2024-12-27T18:22:35.357Z,136672,-0.03704834,-0.09674072,0.032287598
1735323755371,2024-12-27T18:22:35.371Z,136686,-0.03717041,-0.09741211,0.030944824
1735323755378,2024-12-27T18:22:35.378Z,136693,-0.036315918,-0.09991455,0.028686523
1735323755388,2024-12-27T18:22:35.388Z,136703,-0.037597656,-0.10144043,0.02911377
1735323755395,2024-12-27T18:22:35.395Z,136710,-0.038635254,-0.101745605,0.031677246
1735323755402,2024-12-27T18:22:35.402Z,136717,-0.038879395,-0.101623535,0.033935547
1735323755408,2024-12-27T18:22:35.408Z,136723,-0.043395996,-0.101867676,0.034057617
1735323755432,2024-12-27T18:22:35.432Z,136747,-0.041931152,-0.10107422,0.033569336
1735323755439,2024-12-27T18:22:35.439Z,136754,-0.04058838,-0.10089111,0.035217285
1735323755446,2024-12-27T18:22:35.446Z,136761,-0.047607422,-0.10253906,0.030456543
1735323755453,2024-12-27T18:22:35.453Z,136768,-0.044921875,-0.1048584,0.030395508
1735323755477,2024-12-27T18:22:35.477Z,136792,-0.040893555,-0.105163574,0.031555176
1735323755483,2024-12-27T18:22:35.483Z,136798,-0.042663574,-0.10394287,0.03363037
1735323755496,2024-12-27T18:22:35.496Z,136811,-0.043762207,-0.10296631,0.03515625
1735323755503,2024-12-27T18:22:35.503Z,136818,-0.044128418,-0.103271484,0.035461426
1735323755510,2024-12-27T18:22:35.510Z,136825,-0.045837402,-0.10626221,0.035217285
1735323755522,2024-12-27T18:22:35.522Z,136837,-0.050842285,-0.10803223,0.03289795
1735323755529,2024-12-27T18:22:35.529Z,136844,-0.04852295,-0.1060791,0.034179688
1735323755536,2024-12-27T18:22:35.536Z,136851,-0.046142578,-0.107299805,0.030334473
1735323755542,2024-12-27T18:22:35.542Z,136857,-0.041992188,-0.108947754,0.027282715
1735323755567,2024-12-27T18:22:35.567Z,136882,-0.04058838,-0.10772705,0.033203125
1735323755573,2024-12-27T18:22:35.573Z,136888,-0.04272461,-0.107055664,0.036010742
1735323755581,2024-12-27T18:22:35.581Z,136896,-0.0423584,-0.1060791,0.03692627
1735323755587,2024-12-27T18:22:35.587Z,136902,-0.05078125,-0.105163574,0.034423828
1735323755594,2024-12-27T18:22:35.594Z,136909,-0.053527832,-0.10632324,0.033935547
1735323755615,2024-12-27T18:22:35.615Z,136930,-0.046020508,-0.1060791,0.03338623
1735323755622,2024-12-27T18:22:35.622Z,136937,-0.03967285,-0.10668945,0.029174805
1735323755629,2024-12-27T18:22:35.629Z,136944,-0.03845215,-0.10888672,0.031677246
1735323755635,2024-12-27T18:22:35.635Z,136950,-0.04473877,-0.11029053,0.029785156
1735323755657,2024-12-27T18:22:35.657Z,136972,-0.046875,-0.10864258,0.034606934
1735323755665,2024-12-27T18:22:35.665Z,136980,-0.041992188,-0.10571289,0.041503906
1735323755672,2024-12-27T18:22:35.672Z,136987,-0.044006348,-0.10534668,0.037902832
1735323755680,2024-12-27T18:22:35.680Z,136995,-0.044067383,-0.10467529,0.033996582
1735323755688,2024-12-27T18:22:35.688Z,137003,-0.0423584,-0.105163574,0.03656006
1735323755703,2024-12-27T18:22:35.703Z,137018,-0.05053711,-0.10852051,0.02911377
1735323755709,2024-12-27T18:22:35.709Z,137024,-0.045532227,-0.10900879,0.03186035
1735323755717,2024-12-27T18:22:35.717Z,137032,-0.038513184,-0.1105957,0.038330078
1735323755724,2024-12-27T18:22:35.724Z,137039,-0.038085938,-0.11248779,0.04119873
1735323755749,2024-12-27T18:22:35.749Z,137064,-0.044006348,-0.10913086,0.041992188
1735323755756,2024-12-27T18:22:35.756Z,137071,-0.041381836,-0.10534668,0.04425049
1735323755800,2024-12-27T18:22:35.800Z,137115,-0.04284668,-0.105407715,0.042236328
1735323755807,2024-12-27T18:22:35.807Z,137122,-0.05645752,-0.10784912,0.029846191
1735323755815,2024-12-27T18:22:35.815Z,137130,-0.04925537,-0.105163574,0.03479004
1735323755823,2024-12-27T18:22:35.823Z,137138,-0.034851074,-0.106933594,0.03741455
1735323755830,2024-12-27T18:22:35.830Z,137145,-0.034179688,-0.11242676,0.038330078
1735323755838,2024-12-27T18:22:35.838Z,137153,-0.035095215,-0.115356445,0.046081543
1735323755845,2024-12-27T18:22:35.845Z,137160,-0.035583496,-0.11340332,0.04675293
1735323755885,2024-12-27T18:22:35.885Z,137200,-0.042053223,-0.11175537,0.04510498
1735323755892,2024-12-27T18:22:35.892Z,137207,-0.051086426,-0.11328125,0.03955078
1735323755900,2024-12-27T18:22:35.900Z,137215,-0.0602417,-0.11657715,0.036376953
1735323755907,2024-12-27T18:22:35.907Z,137222,-0.044555664,-0.115478516,0.041625977
1735323755915,2024-12-27T18:22:35.915Z,137230,-0.035217285,-0.117248535,0.039733887
1735323755923,2024-12-27T18:22:35.923Z,137238,-0.039489746,-0.12011719,0.04260254
1735323755931,2024-12-27T18:22:35.931Z,137246,-0.04071045,-0.12188721,0.044799805
1735323755942,2024-12-27T18:22:35.942Z,137257,-0.039855957,-0.119140625,0.04736328
1735323755949,2024-12-27T18:22:35.949Z,137264,-0.03765869,-0.11743164,0.04925537
1735323755956,2024-12-27T18:22:35.956Z,137271,-0.045532227,-0.11981201,0.04321289
1735323755962,2024-12-27T18:22:35.962Z,137277,-0.05633545,-0.12145996,0.03857422
1735323755972,2024-12-27T18:22:35.972Z,137287,-0.04827881,-0.119628906,0.039978027
1735323756019,2024-12-27T18:22:36.019Z,137334,-0.038391113,-0.1204834,0.036193848
1735323756025,2024-12-27T18:22:36.025Z,137340,-0.037475586,-0.12335205,0.03729248
1735323756032,2024-12-27T18:22:36.032Z,137347,-0.037963867,-0.12335205,0.047729492
1735323756039,2024-12-27T18:22:36.039Z,137354,-0.04083252,-0.119384766,0.049316406
1735323756045,2024-12-27T18:22:36.045Z,137360,-0.042907715,-0.11932373,0.04473877
1735323756052,2024-12-27T18:22:36.052Z,137367,-0.051635742,-0.12298584,0.040771484
1735323756154,2024-12-27T18:22:36.154Z,137469,-0.05596924,-0.12194824,0.042419434
1735323756162,2024-12-27T18:22:36.162Z,137477,-0.047546387,-0.12030029,0.040100098
1735323756169,2024-12-27T18:22:36.169Z,137484,-0.04272461,-0.12231445,0.034179688
1735323756176,2024-12-27T18:22:36.176Z,137491,-0.042785645,-0.123046875,0.03942871
1735323756184,2024-12-27T18:22:36.184Z,137499,-0.042053223,-0.12615967,0.03881836
1735323756191,2024-12-27T18:22:36.191Z,137506,-0.047058105,-0.12298584,0.042053223
1735323756206,2024-12-27T18:22:36.206Z,137521,-0.053100586,-0.1204834,0.044189453
1735323756212,2024-12-27T18:22:36.212Z,137527,-0.06286621,-0.122558594,0.038391113
1735323756218,2024-12-27T18:22:36.218Z,137533,-0.055358887,-0.12164307,0.042907715
1735323756224,2024-12-27T18:22:36.224Z,137539,-0.043029785,-0.11993408,0.039001465
1735323756231,2024-12-27T18:22:36.231Z,137546,-0.041748047,-0.12249756,0.034179688
1735323756235,2024-12-27T18:22:36.235Z,137550,-0.051452637,-0.12438965,0.041503906
1735323756246,2024-12-27T18:22:36.246Z,137561,-0.0390625,-0.1227417,0.042236328
1735323756252,2024-12-27T18:22:36.252Z,137567,-0.040405273,-0.12768555,0.039001465
1735323756259,2024-12-27T18:22:36.259Z,137574,-0.044433594,-0.1296997,0.04046631
1735323756266,2024-12-27T18:22:36.266Z,137581,-0.041748047,-0.13336182,0.041503906
1735323756272,2024-12-27T18:22:36.272Z,137587,-0.05114746,-0.13250732,0.040222168
1735323756278,2024-12-27T18:22:36.278Z,137593,-0.05822754,-0.12921143,0.037841797
1735323756290,2024-12-27T18:22:36.290Z,137605,-0.057495117,-0.13024902,0.037963867
1735323756296,2024-12-27T18:22:36.296Z,137611,-0.04852295,-0.13214111,0.03765869
1735323756303,2024-12-27T18:22:36.303Z,137618,-0.044311523,-0.13165283,0.04156494
1735323756308,2024-12-27T18:22:36.308Z,137623,-0.050231934,-0.1293335,0.04309082
1735323756315,2024-12-27T18:22:36.315Z,137630,-0.04840088,-0.12872314,0.03845215
1735323756332,2024-12-27T18:22:36.332Z,137647,-0.048950195,-0.1296997,0.04083252
1735323756338,2024-12-27T18:22:36.338Z,137653,-0.051574707,-0.12939453,0.03869629
1735323756344,2024-12-27T18:22:36.344Z,137659,-0.057128906,-0.13000488,0.03692627
1735323756383,2024-12-27T18:22:36.383Z,137698,-0.05822754,-0.1315918,0.036132812
1735323756390,2024-12-27T18:22:36.390Z,137705,-0.050842285,-0.12884521,0.040527344
1735323756397,2024-12-27T18:22:36.397Z,137712,-0.04626465,-0.12640381,0.03881836
1735323756404,2024-12-27T18:22:36.404Z,137719,-0.052734375,-0.1251831,0.03564453
1735323756411,2024-12-27T18:22:36.411Z,137726,-0.05340576,-0.12347412,0.038757324
1735323756468,2024-12-27T18:22:36.468Z,137783,-0.051940918,-0.12438965,0.036254883
1735323756474,2024-12-27T18:22:36.474Z,137789,-0.05303955,-0.12542725,0.036193848
1735323756482,2024-12-27T18:22:36.482Z,137797,-0.056884766,-0.12658691,0.035705566
1735323756489,2024-12-27T18:22:36.489Z,137804,-0.05114746,-0.12786865,0.03729248
1735323756495,2024-12-27T18:22:36.495Z,137810,-0.047302246,-0.12677002,0.035583496
1735323756502,2024-12-27T18:22:36.502Z,137817,-0.04864502,-0.1274414,0.032348633
1735323756515,2024-12-27T18:22:36.515Z,137830,-0.05102539,-0.13122559,0.029663086
1735323756522,2024-12-27T18:22:36.522Z,137837,-0.053588867,-0.13238525,0.031799316
1735323756528,2024-12-27T18:22:36.528Z,137843,-0.054992676,-0.13476562,0.033935547
1735323756534,2024-12-27T18:22:36.534Z,137849,-0.05102539,-0.13977051,0.03387451
1735323756540,2024-12-27T18:22:36.540Z,137855,-0.043273926,-0.14385986,0.038208008
1735323756558,2024-12-27T18:22:36.558Z,137873,-0.047790527,-0.14428711,0.040039062
1735323756562,2024-12-27T18:22:36.562Z,137877,-0.052490234,-0.14282227,0.040771484
1735323756568,2024-12-27T18:22:36.568Z,137883,-0.05102539,-0.14385986,0.039794922
1735323756574,2024-12-27T18:22:36.574Z,137889,-0.04626465,-0.14764404,0.04095459
1735323756580,2024-12-27T18:22:36.580Z,137895,-0.051757812,-0.15026855,0.042663574
1735323756586,2024-12-27T18:22:36.586Z,137901,-0.056274414,-0.14978027,0.038330078
1735323756602,2024-12-27T18:22:36.602Z,137917,-0.048828125,-0.14678955,0.04425049
1735323756609,2024-12-27T18:22:36.609Z,137924,-0.0390625,-0.14489746,0.05090332
1735323756616,2024-12-27T18:22:36.616Z,137931,-0.04272461,-0.1451416,0.048034668
1735323756623,2024-12-27T18:22:36.623Z,137938,-0.049865723,-0.14337158,0.05279541
1735323756629,2024-12-27T18:22:36.629Z,137944,-0.04724121,-0.14160156,0.0579834
1735323756635,2024-12-27T18:22:36.635Z,137950,-0.04827881,-0.14282227,0.048583984
1735323756650,2024-12-27T18:22:36.650Z,137965,-0.05114746,-0.14257812,0.047729492
1735323756700,2024-12-27T18:22:36.700Z,138015,-0.051574707,-0.13720703,0.046813965
1735323756708,2024-12-27T18:22:36.708Z,138023,-0.041931152,-0.13098145,0.05114746
1735323756716,2024-12-27T18:22:36.716Z,138031,-0.03643799,-0.13104248,0.055908203
1735323756725,2024-12-27T18:22:36.725Z,138040,-0.040222168,-0.13195801,0.05895996
1735323756733,2024-12-27T18:22:36.733Z,138048,-0.03753662,-0.13049316,0.059020996
1735323756740,2024-12-27T18:22:36.740Z,138055,-0.038391113,-0.13043213,0.0513916
1735323756747,2024-12-27T18:22:36.747Z,138062,-0.04663086,-0.12927246,0.052001953
1735323756753,2024-12-27T18:22:36.753Z,138068,-0.045837402,-0.12225342,0.054138184
1735323756758,2024-12-27T18:22:36.758Z,138073,-0.041381836,-0.117004395,0.053771973
1735323756765,2024-12-27T18:22:36.765Z,138080,-0.03881836,-0.115356445,0.056152344
1735323756771,2024-12-27T18:22:36.771Z,138086,-0.031433105,-0.11456299,0.056152344
1735323756835,2024-12-27T18:22:36.835Z,138150,-0.028442383,-0.114746094,0.05682373
1735323756844,2024-12-27T18:22:36.844Z,138159,-0.034484863,-0.114990234,0.05255127
1735323756854,2024-12-27T18:22:36.854Z,138169,-0.043945312,-0.11804199,0.045715332
1735323756865,2024-12-27T18:22:36.865Z,138180,-0.049621582,-0.117614746,0.04345703
1735323756875,2024-12-27T18:22:36.875Z,138190,-0.04119873,-0.11462402,0.045715332
1735323756882,2024-12-27T18:22:36.882Z,138197,-0.03515625,-0.11230469,0.0501709
1735323756890,2024-12-27T18:22:36.890Z,138205,-0.034057617,-0.111694336,0.049682617
1735323756897,2024-12-27T18:22:36.897Z,138212,-0.033935547,-0.11224365,0.05090332
1735323756903,2024-12-27T18:22:36.903Z,138218,-0.032470703,-0.11431885,0.05218506
1735323756909,2024-12-27T18:22:36.909Z,138224,-0.039367676,-0.11505127,0.047912598
1735323756916,2024-12-27T18:22:36.916Z,138231,-0.05090332,-0.11425781,0.040161133
1735323756924,2024-12-27T18:22:36.924Z,138239,-0.03930664,-0.11029053,0.044799805
1735323756932,2024-12-27T18:22:36.932Z,138247,-0.037353516,-0.11212158,0.040893555
1735323756940,2024-12-27T18:22:36.940Z,138255,-0.03564453,-0.1138916,0.04046631
1735323756946,2024-12-27T18:22:36.946Z,138261,-0.037597656,-0.11212158,0.043395996
1735323756952,2024-12-27T18:22:36.952Z,138267,-0.038208008,-0.11175537,0.04168701
1735323756962,2024-12-27T18:22:36.962Z,138277,-0.038513184,-0.11206055,0.04626465
1735323756968,2024-12-27T18:22:36.968Z,138283,-0.042541504,-0.11010742,0.043395996
1735323756976,2024-12-27T18:22:36.976Z,138291,-0.04486084,-0.109375,0.041748047
1735323756982,2024-12-27T18:22:36.982Z,138297,-0.04071045,-0.10839844,0.041931152
1735323756988,2024-12-27T18:22:36.988Z,138303,-0.037597656,-0.105773926,0.040100098
1735323756993,2024-12-27T18:22:36.993Z,138308,-0.03643799,-0.10461426,0.038146973
1735323757010,2024-12-27T18:22:37.010Z,138325,-0.03527832,-0.1038208,0.041809082
1735323757052,2024-12-27T18:22:37.052Z,138367,-0.033996582,-0.10467529,0.041015625
1735323757059,2024-12-27T18:22:37.059Z,138374,-0.032104492,-0.10809326,0.039611816
1735323757066,2024-12-27T18:22:37.066Z,138381,-0.032958984,-0.11114502,0.041137695
1735323757072,2024-12-27T18:22:37.072Z,138387,-0.03894043,-0.113708496,0.03668213
1735323757078,2024-12-27T18:22:37.078Z,138393,-0.04156494,-0.113464355,0.033813477
1735323757085,2024-12-27T18:22:37.085Z,138400,-0.036987305,-0.11187744,0.041381836
1735323757102,2024-12-27T18:22:37.102Z,138417,-0.039123535,-0.109313965,0.042297363
1735323757109,2024-12-27T18:22:37.109Z,138424,-0.03942871,-0.10583496,0.038879395
1735323757116,2024-12-27T18:22:37.116Z,138431,-0.035217285,-0.10595703,0.041625977
1735323757124,2024-12-27T18:22:37.124Z,138439,-0.038024902,-0.109069824,0.039489746
1735323757130,2024-12-27T18:22:37.130Z,138445,-0.039855957,-0.111083984,0.03942871
1735323757141,2024-12-27T18:22:37.141Z,138456,-0.038146973,-0.11315918,0.040405273
1735323757148,2024-12-27T18:22:37.148Z,138463,-0.039123535,-0.11810303,0.03656006
1735323757154,2024-12-27T18:22:37.154Z,138469,-0.043151855,-0.11846924,0.037719727
1735323757163,2024-12-27T18:22:37.163Z,138478,-0.045043945,-0.11175537,0.042419434
1735323757171,2024-12-27T18:22:37.171Z,138486,-0.04864502,-0.10595703,0.04095459
1735323757178,2024-12-27T18:22:37.178Z,138493,-0.046813965,-0.10461426,0.038024902
1735323757193,2024-12-27T18:22:37.193Z,138508,-0.045532227,-0.10595703,0.037109375
1735323757200,2024-12-27T18:22:37.200Z,138515,-0.04333496,-0.11004639,0.03845215
1735323757205,2024-12-27T18:22:37.205Z,138520,-0.037841797,-0.113708496,0.03869629
1735323757210,2024-12-27T18:22:37.210Z,138525,-0.038757324,-0.115722656,0.038391113
1735323757216,2024-12-27T18:22:37.216Z,138531,-0.040649414,-0.11450195,0.03704834
1735323757234,2024-12-27T18:22:37.234Z,138549,-0.041015625,-0.1105957,0.037719727
1735323757240,2024-12-27T18:22:37.240Z,138555,-0.046020508,-0.10626221,0.037719727
1735323757247,2024-12-27T18:22:37.247Z,138562,-0.047424316,-0.10321045,0.037841797
1735323757253,2024-12-27T18:22:37.253Z,138568,-0.045715332,-0.10144043,0.03857422
1735323757261,2024-12-27T18:22:37.261Z,138576,-0.041931152,-0.101989746,0.03729248
1735323757269,2024-12-27T18:22:37.269Z,138584,-0.036865234,-0.10449219,0.036865234
1735323757280,2024-12-27T18:22:37.280Z,138595,-0.034118652,-0.107788086,0.036499023
1735323757287,2024-12-27T18:22:37.287Z,138602,-0.03656006,-0.10876465,0.03466797
1735323757292,2024-12-27T18:22:37.292Z,138607,-0.041870117,-0.10650635,0.03527832
1735323757299,2024-12-27T18:22:37.299Z,138614,-0.042663574,-0.10412598,0.037719727
1735323757305,2024-12-27T18:22:37.305Z,138620,-0.04522705,-0.10241699,0.03869629
1735323757321,2024-12-27T18:22:37.321Z,138636,-0.049194336,-0.10247803,0.04095459
1735323757327,2024-12-27T18:22:37.327Z,138642,-0.045654297,-0.10241699,0.041748047
1735323757333,2024-12-27T18:22:37.333Z,138648,-0.04260254,-0.101379395,0.038024902
1735323757339,2024-12-27T18:22:37.339Z,138654,-0.043945312,-0.10119629,0.036010742
1735323757367,2024-12-27T18:22:37.367Z,138682,-0.0513916,-0.101135254,0.03289795
1735323757372,2024-12-27T18:22:37.372Z,138687,-0.050842285,-0.099487305,0.031188965
1735323757378,2024-12-27T18:22:37.378Z,138693,-0.043273926,-0.096069336,0.034362793
1735323757384,2024-12-27T18:22:37.384Z,138699,-0.039245605,-0.093933105,0.036132812
1735323757389,2024-12-27T18:22:37.389Z,138704,-0.038208008,-0.09320068,0.034362793
1735323757412,2024-12-27T18:22:37.412Z,138727,-0.03741455,-0.092041016,0.03552246
1735323757419,2024-12-27T18:22:37.419Z,138734,-0.037902832,-0.09136963,0.03515625
1735323757425,2024-12-27T18:22:37.425Z,138740,-0.043273926,-0.09057617,0.030517578
1735323757432,2024-12-27T18:22:37.432Z,138747,-0.040283203,-0.08935547,0.030090332
1735323757457,2024-12-27T18:22:37.457Z,138772,-0.03894043,-0.087768555,0.031311035
1735323757502,2024-12-27T18:22:37.502Z,138817,-0.036743164,-0.087524414,0.032043457
1735323757509,2024-12-27T18:22:37.509Z,138824,-0.03302002,-0.08831787,0.032714844
1735323757516,2024-12-27T18:22:37.516Z,138831,-0.035888672,-0.087402344,0.035461426
1735323757524,2024-12-27T18:22:37.524Z,138839,-0.036315918,-0.08648682,0.03692627
1735323757530,2024-12-27T18:22:37.530Z,138845,-0.039916992,-0.08679199,0.032287598
1735323757537,2024-12-27T18:22:37.537Z,138852,-0.042785645,-0.08654785,0.028320312
1735323757551,2024-12-27T18:22:37.551Z,138866,-0.03552246,-0.08557129,0.028198242
1735323757558,2024-12-27T18:22:37.558Z,138873,-0.032592773,-0.08557129,0.031311035
1735323757564,2024-12-27T18:22:37.564Z,138879,-0.037841797,-0.08581543,0.031433105
1735323757571,2024-12-27T18:22:37.571Z,138886,-0.034973145,-0.0859375,0.03253174
1735323757577,2024-12-27T18:22:37.577Z,138892,-0.032714844,-0.08660889,0.03149414
1735323757594,2024-12-27T18:22:37.594Z,138909,-0.03741455,-0.08703613,0.029174805
1735323757601,2024-12-27T18:22:37.601Z,138916,-0.0390625,-0.085876465,0.029785156
1735323757610,2024-12-27T18:22:37.610Z,138925,-0.038269043,-0.08532715,0.030090332
1735323757617,2024-12-27T18:22:37.617Z,138932,-0.03375244,-0.08679199,0.028320312
1735323757624,2024-12-27T18:22:37.624Z,138939,-0.032470703,-0.08807373,0.03173828
1735323757629,2024-12-27T18:22:37.629Z,138944,-0.039489746,-0.087524414,0.032470703
1735323757687,2024-12-27T18:22:37.687Z,139002,-0.043884277,-0.087402344,0.02923584
1735323757693,2024-12-27T18:22:37.693Z,139008,-0.042053223,-0.08758545,0.030517578
1735323757729,2024-12-27T18:22:37.729Z,139044,-0.03918457,-0.08874512,0.030639648
1735323757737,2024-12-27T18:22:37.737Z,139052,-0.03967285,-0.09008789,0.026062012
1735323757747,2024-12-27T18:22:37.747Z,139062,-0.042297363,-0.0904541,0.030273438
1735323757755,2024-12-27T18:22:37.755Z,139070,-0.04437256,-0.09100342,0.029052734
1735323757762,2024-12-27T18:22:37.762Z,139077,-0.042175293,-0.09246826,0.028259277
1735323757770,2024-12-27T18:22:37.770Z,139085,-0.043518066,-0.09234619,0.032958984
1735323757777,2024-12-27T18:22:37.777Z,139092,-0.048217773,-0.092285156,0.030883789
1735323757787,2024-12-27T18:22:37.787Z,139102,-0.049865723,-0.09295654,0.027404785
1735323757818,2024-12-27T18:22:37.818Z,139133,-0.04840088,-0.095214844,0.0289917
1735323757825,2024-12-27T18:22:37.825Z,139140,-0.051208496,-0.097595215,0.026916504
1735323757833,2024-12-27T18:22:37.833Z,139148,-0.050354004,-0.09869385,0.025024414
1735323757842,2024-12-27T18:22:37.842Z,139157,-0.045898438,-0.09899902,0.028503418
1735323757850,2024-12-27T18:22:37.850Z,139165,-0.047546387,-0.09967041,0.03186035
1735323757913,2024-12-27T18:22:37.913Z,139228,-0.050842285,-0.10040283,0.031799316
1735323757922,2024-12-27T18:22:37.922Z,139237,-0.049743652,-0.099487305,0.03277588
1735323757931,2024-12-27T18:22:37.931Z,139246,-0.050842285,-0.1003418,0.032409668
1735323757939,2024-12-27T18:22:37.939Z,139254,-0.056884766,-0.101745605,0.028015137
1735323758003,2024-12-27T18:22:38.003Z,139318,-0.05621338,-0.10229492,0.028625488
1735323758055,2024-12-27T18:22:38.055Z,139370,-0.05114746,-0.10229492,0.031677246
1735323758068,2024-12-27T18:22:38.068Z,139383,-0.049438477,-0.10247803,0.028137207
1735323758073,2024-12-27T18:22:38.073Z,139388,-0.05065918,-0.10235596,0.029846191
1735323758080,2024-12-27T18:22:38.080Z,139395,-0.051635742,-0.101989746,0.030456543
1735323758086,2024-12-27T18:22:38.086Z,139401,-0.053222656,-0.10089111,0.030151367
1735323758093,2024-12-27T18:22:38.093Z,139408,-0.05444336,-0.10180664,0.0289917
1735323758137,2024-12-27T18:22:38.137Z,139452,-0.0546875,-0.10369873,0.02722168
1735323758140,2024-12-27T18:22:38.140Z,139455,-0.053100586,-0.10437012,0.032714844
1735323758147,2024-12-27T18:22:38.147Z,139462,-0.051696777,-0.10546875,0.03289795
1735323758155,2024-12-27T18:22:38.155Z,139470,-0.05444336,-0.107666016,0.0335083
1735323758162,2024-12-27T18:22:38.162Z,139477,-0.056884766,-0.10748291,0.032714844
1735323758171,2024-12-27T18:22:38.171Z,139486,-0.052001953,-0.11218262,0.03668213
1735323758224,2024-12-27T18:22:38.224Z,139539,-0.05419922,-0.11071777,0.03137207
1735323758319,2024-12-27T18:22:38.319Z,139634,-0.051574707,-0.11138916,0.03338623
1735323758325,2024-12-27T18:22:38.325Z,139640,-0.0546875,-0.110961914,0.03692627
1735323758332,2024-12-27T18:22:38.332Z,139647,-0.05718994,-0.11010742,0.032836914
1735323758337,2024-12-27T18:22:38.337Z,139652,-0.055236816,-0.10882568,0.033325195
1735323758406,2024-12-27T18:22:38.406Z,139721,-0.05444336,-0.10876465,0.03161621
1735323758412,2024-12-27T18:22:38.412Z,139727,-0.049804688,-0.10748291,0.03314209
1735323758424,2024-12-27T18:22:38.424Z,139739,-0.050842285,-0.10784912,0.033996582
1735323758435,2024-12-27T18:22:38.435Z,139750,-0.053710938,-0.10803223,0.031311035
1735323758444,2024-12-27T18:22:38.444Z,139759,-0.05279541,-0.107421875,0.030761719
1735323758453,2024-12-27T18:22:38.453Z,139768,-0.051818848,-0.107421875,0.030212402
1735323758461,2024-12-27T18:22:38.461Z,139776,-0.051696777,-0.107421875,0.030883789
1735323758468,2024-12-27T18:22:38.468Z,139783,-0.051330566,-0.10845947,0.031799316
1735323758471,2024-12-27T18:22:38.471Z,139786,-0.05267334,-0.10760498,0.03186035
1735323758477,2024-12-27T18:22:38.477Z,139792,-0.0546875,-0.10797119,0.030944824
1735323758483,2024-12-27T18:22:38.483Z,139798,-0.055908203,-0.10803223,0.032470703
1735323758540,2024-12-27T18:22:38.540Z,139855,-0.053894043,-0.107177734,0.03149414
1735323758586,2024-12-27T18:22:38.586Z,139901,-0.050842285,-0.10668945,0.033996582
1735323758590,2024-12-27T18:22:38.590Z,139905,-0.052368164,-0.10736084,0.03100586
1735323758598,2024-12-27T18:22:38.598Z,139913,-0.0546875,-0.107421875,0.031433105
1735323758606,2024-12-27T18:22:38.606Z,139921,-0.053955078,-0.107299805,0.030639648
1735323758616,2024-12-27T18:22:38.616Z,139931,-0.051940918,-0.10827637,0.031433105
1735323758623,2024-12-27T18:22:38.623Z,139938,-0.05316162,-0.10784912,0.032409668
1735323758632,2024-12-27T18:22:38.632Z,139947,-0.051452637,-0.1071167,0.03326416
1735323758639,2024-12-27T18:22:38.639Z,139954,-0.05126953,-0.10809326,0.03253174
1735323758647,2024-12-27T18:22:38.647Z,139962,-0.054260254,-0.10858154,0.030700684
1735323758652,2024-12-27T18:22:38.652Z,139967,-0.052978516,-0.10864258,0.030456543
1735323758660,2024-12-27T18:22:38.660Z,139975,-0.053466797,-0.107910156,0.030944824
1735323758663,2024-12-27T18:22:38.663Z,139978,-0.052856445,-0.10809326,0.03314209
1735323758720,2024-12-27T18:22:38.720Z,140035,-0.05419922,-0.106933594,0.030029297
1735323758734,2024-12-27T18:22:38.734Z,140049,-0.054870605,-0.10473633,0.032043457
1735323758772,2024-12-27T18:22:38.772Z,140087,-0.052612305,-0.10406494,0.03161621
1735323758790,2024-12-27T18:22:38.790Z,140105,-0.051574707,-0.103271484,0.032409668
1735323758804,2024-12-27T18:22:38.804Z,140119,-0.05316162,-0.10241699,0.03100586
1735323758814,2024-12-27T18:22:38.814Z,140129,-0.053222656,-0.10217285,0.030029297
1735323758822,2024-12-27T18:22:38.822Z,140137,-0.054504395,-0.10180664,0.030639648
1735323758828,2024-12-27T18:22:38.828Z,140143,-0.053466797,-0.10180664,0.029541016
1735323758835,2024-12-27T18:22:38.835Z,140150,-0.050476074,-0.10131836,0.029052734
1735323758843,2024-12-27T18:22:38.843Z,140158,-0.04852295,-0.100097656,0.030273438
1735323758851,2024-12-27T18:22:38.851Z,140166,-0.049987793,-0.09918213,0.029968262
1735323758858,2024-12-27T18:22:38.858Z,140173,-0.05053711,-0.09851074,0.028808594
1735323758861,2024-12-27T18:22:38.861Z,140176,-0.051330566,-0.09814453,0.028747559
1735323758866,2024-12-27T18:22:38.866Z,140181,-0.052124023,-0.09741211,0.027832031
1735323758900,2024-12-27T18:22:38.900Z,140215,-0.04815674,-0.095214844,0.026367188
1735323758907,2024-12-27T18:22:38.907Z,140222,-0.045837402,-0.0947876,0.027770996
1735323758913,2024-12-27T18:22:38.913Z,140228,-0.045166016,-0.09429932,0.02746582
1735323758920,2024-12-27T18:22:38.920Z,140235,-0.04559326,-0.09454346,0.02734375
1735323758927,2024-12-27T18:22:38.927Z,140242,-0.045837402,-0.09313965,0.027770996
1735323758992,2024-12-27T18:22:38.992Z,140307,-0.045166016,-0.09240723,0.028137207
1735323758998,2024-12-27T18:22:38.998Z,140313,-0.045654297,-0.092163086,0.028198242
1735323759006,2024-12-27T18:22:39.006Z,140321,-0.047912598,-0.09265137,0.027770996
1735323759012,2024-12-27T18:22:39.012Z,140327,-0.04840088,-0.093566895,0.02709961
1735323759019,2024-12-27T18:22:39.019Z,140334,-0.047790527,-0.095336914,0.027893066
1735323759034,2024-12-27T18:22:39.034Z,140349,-0.048095703,-0.097595215,0.030029297
1735323759043,2024-12-27T18:22:39.043Z,140358,-0.0524292,-0.09753418,0.030456543
1735323759050,2024-12-27T18:22:39.050Z,140365,-0.053649902,-0.095336914,0.031799316
1735323759061,2024-12-27T18:22:39.061Z,140376,-0.05114746,-0.095703125,0.032165527
1735323759068,2024-12-27T18:22:39.068Z,140383,-0.048706055,-0.09655762,0.03277588
1735323759074,2024-12-27T18:22:39.074Z,140389,-0.050476074,-0.09698486,0.03326416
1735323759123,2024-12-27T18:22:39.123Z,140438,-0.049804688,-0.09814453,0.033447266
1735323759126,2024-12-27T18:22:39.126Z,140441,-0.04473877,-0.0982666,0.035217285
1735323759134,2024-12-27T18:22:39.134Z,140449,-0.048339844,-0.09753418,0.035461426
1735323759142,2024-12-27T18:22:39.142Z,140457,-0.052978516,-0.09649658,0.03314209
1735323759150,2024-12-27T18:22:39.150Z,140465,-0.047546387,-0.0960083,0.035217285
1735323759158,2024-12-27T18:22:39.158Z,140473,-0.043884277,-0.09741211,0.03491211
1735323759213,2024-12-27T18:22:39.213Z,140528,-0.043945312,-0.09967041,0.034729004
1735323759220,2024-12-27T18:22:39.220Z,140535,-0.045043945,-0.10095215,0.034423828
1735323759229,2024-12-27T18:22:39.229Z,140544,-0.04840088,-0.10040283,0.035461426
1735323759235,2024-12-27T18:22:39.235Z,140550,-0.051574707,-0.0993042,0.036621094
1735323759262,2024-12-27T18:22:39.262Z,140577,-0.049926758,-0.09863281,0.03515625
1735323759268,2024-12-27T18:22:39.268Z,140583,-0.047607422,-0.09802246,0.036987305
1735323759308,2024-12-27T18:22:39.308Z,140623,-0.04473877,-0.10040283,0.03918457
1735323759316,2024-12-27T18:22:39.316Z,140631,-0.046081543,-0.1003418,0.03881836
1735323759322,2024-12-27T18:22:39.322Z,140637,-0.05053711,-0.09942627,0.03930664
1735323759328,2024-12-27T18:22:39.328Z,140643,-0.050109863,-0.09832764,0.036743164
1735323759335,2024-12-27T18:22:39.335Z,140650,-0.05041504,-0.097717285,0.034851074
1735323759393,2024-12-27T18:22:39.393Z,140708,-0.048950195,-0.09661865,0.03564453
1735323759397,2024-12-27T18:22:39.397Z,140712,-0.044067383,-0.09564209,0.0368042
1735323759405,2024-12-27T18:22:39.405Z,140720,-0.049621582,-0.096191406,0.03503418
1735323759412,2024-12-27T18:22:39.412Z,140727,-0.05102539,-0.09716797,0.03314209
1735323759419,2024-12-27T18:22:39.419Z,140734,-0.05529785,-0.09790039,0.03161621
1735323759422,2024-12-27T18:22:39.422Z,140737,-0.053100586,-0.09301758,0.03314209
1735323759430,2024-12-27T18:22:39.430Z,140745,-0.051940918,-0.09301758,0.0335083
1735323759440,2024-12-27T18:22:39.440Z,140755,-0.051574707,-0.09655762,0.027160645
1735323759446,2024-12-27T18:22:39.446Z,140761,-0.049926758,-0.09625244,0.028808594
1735323759452,2024-12-27T18:22:39.452Z,140767,-0.04925537,-0.096191406,0.029785156
1735323759459,2024-12-27T18:22:39.459Z,140774,-0.053344727,-0.097717285,0.030090332
1735323759465,2024-12-27T18:22:39.465Z,140780,-0.05328369,-0.097717285,0.03137207
1735323759529,2024-12-27T18:22:39.529Z,140844,-0.055541992,-0.09741211,0.027526855
1735323759532,2024-12-27T18:22:39.532Z,140847,-0.049560547,-0.10333252,0.022521973
1735323759539,2024-12-27T18:22:39.539Z,140854,-0.052246094,-0.105773926,0.027709961
1735323759545,2024-12-27T18:22:39.545Z,140860,-0.059143066,-0.10467529,0.0256958
1735323759551,2024-12-27T18:22:39.551Z,140866,-0.05834961,-0.103637695,0.023071289
1735323759558,2024-12-27T18:22:39.558Z,140873,-0.05657959,-0.10119629,0.023864746
1735323759574,2024-12-27T18:22:39.574Z,140889,-0.052612305,-0.0960083,0.024963379
1735323759581,2024-12-27T18:22:39.581Z,140896,-0.05090332,-0.09265137,0.024291992
1735323759589,2024-12-27T18:22:39.589Z,140904,-0.050598145,-0.09661865,0.02520752
1735323759595,2024-12-27T18:22:39.595Z,140910,-0.049987793,-0.1026001,0.01977539
1735323759601,2024-12-27T18:22:39.601Z,140916,-0.049560547,-0.10424805,0.022827148
1735323759607,2024-12-27T18:22:39.607Z,140922,-0.04559326,-0.103393555,0.026672363
1735323759620,2024-12-27T18:22:39.620Z,140935,-0.05328369,-0.10253906,0.024230957
1735323759628,2024-12-27T18:22:39.628Z,140943,-0.061157227,-0.10546875,0.020874023
1735323759634,2024-12-27T18:22:39.634Z,140949,-0.05670166,-0.105407715,0.02130127
1735323759640,2024-12-27T18:22:39.640Z,140955,-0.04724121,-0.10437012,0.024780273
1735323759646,2024-12-27T18:22:39.646Z,140961,-0.04296875,-0.10614014,0.028564453
1735323759663,2024-12-27T18:22:39.663Z,140978,-0.04144287,-0.107299805,0.031799316
1735323759670,2024-12-27T18:22:39.670Z,140985,-0.043945312,-0.1060791,0.030029297
1735323759680,2024-12-27T18:22:39.680Z,140995,-0.047668457,-0.10675049,0.028869629
1735323759688,2024-12-27T18:22:39.688Z,141003,-0.05126953,-0.109313965,0.028320312
1735323759695,2024-12-27T18:22:39.695Z,141010,-0.0569458,-0.1104126,0.023254395
1735323759701,2024-12-27T18:22:39.701Z,141016,-0.0546875,-0.10888672,0.026672363
1735323759710,2024-12-27T18:22:39.710Z,141025,-0.04449463,-0.11248779,0.027160645
1735323759715,2024-12-27T18:22:39.715Z,141030,-0.04058838,-0.11743164,0.032226562
1735323759721,2024-12-27T18:22:39.721Z,141036,-0.04510498,-0.11657715,0.037597656
1735323759727,2024-12-27T18:22:39.727Z,141042,-0.047302246,-0.11431885,0.037475586
1735323759732,2024-12-27T18:22:39.732Z,141047,-0.051574707,-0.111816406,0.035827637
1735323759751,2024-12-27T18:22:39.751Z,141066,-0.053710938,-0.10992432,0.03161621
1735323759757,2024-12-27T18:22:39.757Z,141072,-0.04650879,-0.10974121,0.0345459
1735323759766,2024-12-27T18:22:39.766Z,141081,-0.037963867,-0.11193848,0.03338623
1735323759771,2024-12-27T18:22:39.771Z,141086,-0.044677734,-0.11254883,0.036315918
1735323759778,2024-12-27T18:22:39.778Z,141093,-0.04748535,-0.11413574,0.035888672
1735323759787,2024-12-27T18:22:39.787Z,141102,-0.045410156,-0.116760254,0.038146973
1735323759799,2024-12-27T18:22:39.799Z,141114,-0.04510498,-0.11791992,0.038330078
1735323759813,2024-12-27T18:22:39.813Z,141128,-0.05090332,-0.11853027,0.041503906
1735323759827,2024-12-27T18:22:39.827Z,141142,-0.05706787,-0.11920166,0.03643799
1735323759839,2024-12-27T18:22:39.839Z,141154,-0.062072754,-0.12060547,0.03338623
1735323759848,2024-12-27T18:22:39.848Z,141163,-0.05316162,-0.12121582,0.033569336
1735323759941,2024-12-27T18:22:39.941Z,141256,-0.04638672,-0.12188721,0.034057617
1735323759956,2024-12-27T18:22:39.956Z,141271,-0.051086426,-0.12322998,0.04046631
1735323759970,2024-12-27T18:22:39.970Z,141285,-0.05279541,-0.124572754,0.036315918
1735323759981,2024-12-27T18:22:39.981Z,141296,-0.051513672,-0.1237793,0.040527344
1735323759988,2024-12-27T18:22:39.988Z,141303,-0.056030273,-0.12158203,0.041503906
1735323759994,2024-12-27T18:22:39.994Z,141309,-0.060424805,-0.12030029,0.037902832
1735323760002,2024-12-27T18:22:40.002Z,141317,-0.06011963,-0.11859131,0.0357666
1735323760008,2024-12-27T18:22:40.008Z,141323,-0.058044434,-0.11798096,0.036987305
1735323760069,2024-12-27T18:22:40.069Z,141384,-0.05291748,-0.12017822,0.034423828
1735323760075,2024-12-27T18:22:40.075Z,141390,-0.04522705,-0.123168945,0.036010742
1735323760082,2024-12-27T18:22:40.082Z,141397,-0.04626465,-0.123168945,0.047668457
1735323760089,2024-12-27T18:22:40.089Z,141404,-0.057250977,-0.11627197,0.03479004
1735323760095,2024-12-27T18:22:40.095Z,141410,-0.059936523,-0.11743164,0.03302002
1735323760103,2024-12-27T18:22:40.103Z,141418,-0.051452637,-0.11853027,0.03375244
1735323760116,2024-12-27T18:22:40.116Z,141431,-0.054138184,-0.12164307,0.04473877
1735323760119,2024-12-27T18:22:40.119Z,141434,-0.04949951,-0.123168945,0.044189453
1735323760126,2024-12-27T18:22:40.126Z,141441,-0.0524292,-0.121154785,0.04309082
1735323760132,2024-12-27T18:22:40.132Z,141447,-0.06048584,-0.11956787,0.036254883
1735323760138,2024-12-27T18:22:40.138Z,141453,-0.06213379,-0.118896484,0.03173828
1735323760144,2024-12-27T18:22:40.144Z,141459,-0.05456543,-0.11981201,0.040100098
1735323760210,2024-12-27T18:22:40.210Z,141525,-0.05102539,-0.11779785,0.04522705
1735323760222,2024-12-27T18:22:40.222Z,141537,-0.051574707,-0.11669922,0.04156494
1735323760237,2024-12-27T18:22:40.237Z,141552,-0.057739258,-0.11419678,0.039794922
1735323760250,2024-12-27T18:22:40.250Z,141565,-0.055786133,-0.115234375,0.04034424
1735323760258,2024-12-27T18:22:40.258Z,141573,-0.049316406,-0.119628906,0.03302002
1735323760266,2024-12-27T18:22:40.266Z,141581,-0.04663086,-0.12145996,0.039611816
1735323760274,2024-12-27T18:22:40.274Z,141589,-0.047058105,-0.11999512,0.043823242
1735323760281,2024-12-27T18:22:40.281Z,141596,-0.052612305,-0.11773682,0.041503906
1735323760288,2024-12-27T18:22:40.288Z,141603,-0.053344727,-0.11682129,0.04260254
1735323760294,2024-12-27T18:22:40.294Z,141609,-0.051696777,-0.11956787,0.038269043
1735323760300,2024-12-27T18:22:40.300Z,141615,-0.054016113,-0.1217041,0.036987305
1735323760337,2024-12-27T18:22:40.337Z,141652,-0.044189453,-0.11682129,0.04083252
1735323760343,2024-12-27T18:22:40.343Z,141658,-0.043945312,-0.117126465,0.042541504
1735323760350,2024-12-27T18:22:40.350Z,141665,-0.045532227,-0.117004395,0.0413208
1735323760357,2024-12-27T18:22:40.357Z,141672,-0.04748535,-0.12194824,0.039794922
1735323760365,2024-12-27T18:22:40.365Z,141680,-0.05505371,-0.12719727,0.041259766
1735323760372,2024-12-27T18:22:40.372Z,141687,-0.055664062,-0.124816895,0.042236328
1735323760387,2024-12-27T18:22:40.387Z,141702,-0.051574707,-0.121398926,0.042541504
1735323760396,2024-12-27T18:22:40.396Z,141711,-0.043518066,-0.12084961,0.04083252
1735323760402,2024-12-27T18:22:40.402Z,141717,-0.045288086,-0.11981201,0.044128418
1735323760409,2024-12-27T18:22:40.409Z,141724,-0.04901123,-0.118652344,0.045776367
1735323760477,2024-12-27T18:22:40.477Z,141792,-0.051635742,-0.11932373,0.043945312
1735323760485,2024-12-27T18:22:40.485Z,141800,-0.050598145,-0.12188721,0.044006348
1735323760488,2024-12-27T18:22:40.488Z,141803,-0.05718994,-0.12451172,0.03857422
1735323760493,2024-12-27T18:22:40.493Z,141808,-0.051757812,-0.12200928,0.04046631
1735323760499,2024-12-27T18:22:40.499Z,141814,-0.05090332,-0.121398926,0.04095459
1735323760505,2024-12-27T18:22:40.505Z,141820,-0.052734375,-0.123046875,0.037109375
1735323760567,2024-12-27T18:22:40.567Z,141882,-0.049743652,-0.12432861,0.04248047
1735323760574,2024-12-27T18:22:40.574Z,141889,-0.05328369,-0.12554932,0.0413208
1735323760581,2024-12-27T18:22:40.581Z,141896,-0.05480957,-0.12908936,0.04168701
1735323760588,2024-12-27T18:22:40.588Z,141903,-0.055114746,-0.13153076,0.04248047
1735323760596,2024-12-27T18:22:40.596Z,141911,-0.06365967,-0.1359253,0.036315918
1735323760607,2024-12-27T18:22:40.607Z,141922,-0.06365967,-0.14233398,0.034118652
1735323760610,2024-12-27T18:22:40.610Z,141925,-0.06011963,-0.14752197,0.048217773
1735323760618,2024-12-27T18:22:40.618Z,141933,-0.05847168,-0.14971924,0.049865723
1735323760706,2024-12-27T18:22:40.706Z,142021,-0.069885254,-0.15527344,0.04638672
1735323760720,2024-12-27T18:22:40.720Z,142035,-0.07696533,-0.15539551,0.04901123
1735323760732,2024-12-27T18:22:40.732Z,142047,-0.06665039,-0.15454102,0.054138184
1735323760743,2024-12-27T18:22:40.743Z,142058,-0.06298828,-0.15783691,0.049621582
1735323760748,2024-12-27T18:22:40.748Z,142063,-0.06530762,-0.13580322,0.06085205
1735323760757,2024-12-27T18:22:40.757Z,142072,-0.070251465,-0.13616943,0.055358887
1735323760797,2024-12-27T18:22:40.797Z,142112,-0.057617188,-0.1340332,0.06317139
1735323760804,2024-12-27T18:22:40.804Z,142119,-0.05670166,-0.13342285,0.062316895
1735323760811,2024-12-27T18:22:40.811Z,142126,-0.053588867,-0.13232422,0.06604004
1735323760821,2024-12-27T18:22:40.821Z,142136,-0.052368164,-0.12768555,0.072143555
1735323760828,2024-12-27T18:22:40.828Z,142143,-0.05908203,-0.12060547,0.07147217
1735323760835,2024-12-27T18:22:40.835Z,142150,-0.05999756,-0.115600586,0.06640625
1735323760838,2024-12-27T18:22:40.838Z,142153,-0.042785645,-0.10675049,0.06347656
1735323760843,2024-12-27T18:22:40.843Z,142158,-0.044189453,-0.101989746,0.07019043
1735323760850,2024-12-27T18:22:40.850Z,142165,-0.04901123,-0.099487305,0.057678223
1735323760856,2024-12-27T18:22:40.856Z,142171,-0.047302246,-0.101379395,0.050964355
1735323760863,2024-12-27T18:22:40.863Z,142178,-0.035705566,-0.10406494,0.055725098
1735323760877,2024-12-27T18:22:40.877Z,142192,-0.035461426,-0.1081543,0.048339844
1735323760881,2024-12-27T18:22:40.881Z,142196,-0.039794922,-0.103149414,0.05706787
1735323760889,2024-12-27T18:22:40.889Z,142204,-0.043151855,-0.10473633,0.054626465
1735323760895,2024-12-27T18:22:40.895Z,142210,-0.0368042,-0.1038208,0.055786133
1735323760900,2024-12-27T18:22:40.900Z,142215,-0.039489746,-0.103637695,0.051208496
1735323760906,2024-12-27T18:22:40.906Z,142221,-0.038635254,-0.107299805,0.052246094
1735323760922,2024-12-27T18:22:40.922Z,142237,-0.034606934,-0.10888672,0.05859375
1735323760928,2024-12-27T18:22:40.928Z,142243,-0.03668213,-0.1083374,0.05908203
1735323760933,2024-12-27T18:22:40.933Z,142248,-0.034973145,-0.10675049,0.05731201
1735323760939,2024-12-27T18:22:40.939Z,142254,-0.04095459,-0.104003906,0.054016113
1735323760945,2024-12-27T18:22:40.945Z,142260,-0.044433594,-0.10284424,0.050048828
1735323760950,2024-12-27T18:22:40.950Z,142265,-0.041259766,-0.10650635,0.04815674
1735323761016,2024-12-27T18:22:41.016Z,142331,-0.041809082,-0.10876465,0.04827881
1735323761020,2024-12-27T18:22:41.020Z,142335,-0.042541504,-0.10809326,0.049194336
1735323761025,2024-12-27T18:22:41.025Z,142340,-0.039611816,-0.111572266,0.04888916
1735323761059,2024-12-27T18:22:41.059Z,142374,-0.04168701,-0.11437988,0.0513916
1735323761106,2024-12-27T18:22:41.106Z,142421,-0.042175293,-0.111694336,0.050720215
1735323761152,2024-12-27T18:22:41.152Z,142467,-0.044189453,-0.109069824,0.049804688
1735323761159,2024-12-27T18:22:41.159Z,142474,-0.047546387,-0.107055664,0.045959473
1735323761165,2024-12-27T18:22:41.165Z,142480,-0.04522705,-0.10443115,0.048095703
1735323761171,2024-12-27T18:22:41.171Z,142486,-0.05053711,-0.103149414,0.04699707
1735323761178,2024-12-27T18:22:41.178Z,142493,-0.051940918,-0.10534668,0.04119873
1735323761192,2024-12-27T18:22:41.192Z,142507,-0.043395996,-0.107543945,0.043273926
1735323761198,2024-12-27T18:22:41.198Z,142513,-0.039245605,-0.111206055,0.04156494
1735323761205,2024-12-27T18:22:41.205Z,142520,-0.04144287,-0.112976074,0.044555664
1735323761211,2024-12-27T18:22:41.211Z,142526,-0.048950195,-0.10852051,0.046569824
1735323761217,2024-12-27T18:22:41.217Z,142532,-0.056030273,-0.10491943,0.0413208
1735323761220,2024-12-27T18:22:41.220Z,142535,-0.050598145,-0.100097656,0.04663086
1735323761223,2024-12-27T18:22:41.223Z,142538,-0.052734375,-0.10559082,0.040100098
1735323761240,2024-12-27T18:22:41.240Z,142555,-0.05834961,-0.100097656,0.039733887
1735323761248,2024-12-27T18:22:41.248Z,142563,-0.06036377,-0.09887695,0.03894043
1735323761255,2024-12-27T18:22:41.255Z,142570,-0.06072998,-0.099975586,0.037231445
1735323761261,2024-12-27T18:22:41.261Z,142576,-0.05871582,-0.10345459,0.036499023
1735323761266,2024-12-27T18:22:41.266Z,142581,-0.05041504,-0.103881836,0.042053223
1735323761271,2024-12-27T18:22:41.271Z,142586,-0.049194336,-0.10119629,0.043518066
1735323761284,2024-12-27T18:22:41.284Z,142599,-0.049987793,-0.09942627,0.036010742
1735323761290,2024-12-27T18:22:41.290Z,142605,-0.051635742,-0.09777832,0.037841797
1735323761296,2024-12-27T18:22:41.296Z,142611,-0.059570312,-0.096069336,0.03643799
1735323761301,2024-12-27T18:22:41.301Z,142616,-0.0670166,-0.09472656,0.030883789
1735323761306,2024-12-27T18:22:41.306Z,142621,-0.060180664,-0.09100342,0.032409668
1735323761328,2024-12-27T18:22:41.328Z,142643,-0.055664062,-0.09069824,0.034729004
1735323761333,2024-12-27T18:22:41.333Z,142648,-0.052124023,-0.09295654,0.033203125
1735323761338,2024-12-27T18:22:41.338Z,142653,-0.045837402,-0.093811035,0.03515625
1735323761344,2024-12-27T18:22:41.344Z,142659,-0.048339844,-0.09185791,0.034484863
1735323761350,2024-12-27T18:22:41.350Z,142665,-0.053771973,-0.090270996,0.031677246
1735323761355,2024-12-27T18:22:41.355Z,142670,-0.05596924,-0.08746338,0.029968262
1735323761375,2024-12-27T18:22:41.375Z,142690,-0.05633545,-0.08673096,0.028320312
1735323761381,2024-12-27T18:22:41.381Z,142696,-0.059448242,-0.08770752,0.027709961
1735323761387,2024-12-27T18:22:41.387Z,142702,-0.056396484,-0.08905029,0.027770996
1735323761417,2024-12-27T18:22:41.417Z,142732,-0.055541992,-0.08905029,0.030395508
1735323761423,2024-12-27T18:22:41.423Z,142738,-0.05456543,-0.08868408,0.02960205
1735323761429,2024-12-27T18:22:41.429Z,142744,-0.052490234,-0.08856201,0.027038574
1735323761435,2024-12-27T18:22:41.435Z,142750,-0.04748535,-0.088378906,0.026367188
1735323761440,2024-12-27T18:22:41.440Z,142755,-0.047424316,-0.090148926,0.02722168
1735323761509,2024-12-27T18:22:41.509Z,142824,-0.05340576,-0.09094238,0.023803711
1735323761518,2024-12-27T18:22:41.518Z,142833,-0.053955078,-0.08843994,0.025634766
1735323761525,2024-12-27T18:22:41.525Z,142840,-0.055847168,-0.08538818,0.02722168
1735323761533,2024-12-27T18:22:41.533Z,142848,-0.0579834,-0.08331299,0.025756836
1735323761542,2024-12-27T18:22:41.542Z,142857,-0.055480957,-0.08099365,0.024780273
1735323761551,2024-12-27T18:22:41.551Z,142866,-0.049194336,-0.079956055,0.02532959
1735323761566,2024-12-27T18:22:41.566Z,142881,-0.047729492,-0.08026123,0.023254395
1735323761574,2024-12-27T18:22:41.574Z,142889,-0.050109863,-0.08026123,0.018676758
1735323761582,2024-12-27T18:22:41.582Z,142897,-0.04650879,-0.0791626,0.020874023
1735323761588,2024-12-27T18:22:41.588Z,142903,-0.043762207,-0.07849121,0.022338867
1735323761595,2024-12-27T18:22:41.595Z,142910,-0.046691895,-0.07965088,0.018310547
1735323761603,2024-12-27T18:22:41.603Z,142918,-0.048217773,-0.07910156,0.020446777
1735323761612,2024-12-27T18:22:41.612Z,142927,-0.046081543,-0.07861328,0.020507812
1735323761617,2024-12-27T18:22:41.617Z,142932,-0.046569824,-0.07910156,0.01928711
1735323761622,2024-12-27T18:22:41.622Z,142937,-0.04876709,-0.079589844,0.019042969
1735323761628,2024-12-27T18:22:41.628Z,142943,-0.048217773,-0.0791626,0.018310547
1735323761634,2024-12-27T18:22:41.634Z,142949,-0.04724121,-0.08001709,0.017150879
1735323761693,2024-12-27T18:22:41.693Z,143008,-0.051696777,-0.08068848,0.017333984
1735323761701,2024-12-27T18:22:41.701Z,143016,-0.05053711,-0.080566406,0.016845703
1735323761709,2024-12-27T18:22:41.709Z,143024,-0.0501709,-0.0803833,0.017700195
1735323761718,2024-12-27T18:22:41.718Z,143033,-0.052978516,-0.079711914,0.017822266
1735323761725,2024-12-27T18:22:41.725Z,143040,-0.05078125,-0.080322266,0.017944336
1735323761871,2024-12-27T18:22:41.871Z,143186,-0.05126953,-0.081970215,0.017700195
1735323761921,2024-12-27T18:22:41.921Z,143236,-0.053771973,-0.08276367,0.017333984
1735323761934,2024-12-27T18:22:41.934Z,143249,-0.057434082,-0.083862305,0.014587402
1735323761945,2024-12-27T18:22:41.945Z,143260,-0.057128906,-0.087890625,0.012451172
1735323761953,2024-12-27T18:22:41.953Z,143268,-0.056274414,-0.09063721,0.01550293
1735323761957,2024-12-27T18:22:41.957Z,143272,-0.056762695,-0.09069824,0.017456055
1735323762004,2024-12-27T18:22:42.004Z,143319,-0.057678223,-0.091918945,0.014587402
1735323762016,2024-12-27T18:22:42.016Z,143331,-0.059509277,-0.093933105,0.016662598
1735323762026,2024-12-27T18:22:42.026Z,143341,-0.06237793,-0.09625244,0.018798828
1735323762032,2024-12-27T18:22:42.032Z,143347,-0.06854248,-0.097229004,0.015319824
1735323762038,2024-12-27T18:22:42.038Z,143353,-0.06866455,-0.09674072,0.014953613
1735323762044,2024-12-27T18:22:42.044Z,143359,-0.0713501,-0.101989746,0.01574707
1735323762047,2024-12-27T18:22:42.047Z,143362,-0.07220459,-0.10321045,0.019592285
1735323762051,2024-12-27T18:22:42.051Z,143366,-0.064941406,-0.10076904,0.026977539
1735323762056,2024-12-27T18:22:42.056Z,143371,-0.06616211,-0.10235596,0.02508545
1735323762061,2024-12-27T18:22:42.061Z,143376,-0.06878662,-0.10235596,0.022644043
1735323762067,2024-12-27T18:22:42.067Z,143382,-0.06768799,-0.101745605,0.023254395
1735323762073,2024-12-27T18:22:42.073Z,143388,-0.06781006,-0.101745605,0.024169922
1735323762094,2024-12-27T18:22:42.094Z,143409,-0.06689453,-0.101989746,0.025939941
1735323762097,2024-12-27T18:22:42.097Z,143412,-0.06976318,-0.1026001,0.026550293
1735323762103,2024-12-27T18:22:42.103Z,143418,-0.068237305,-0.10229492,0.026977539
1735323762109,2024-12-27T18:22:42.109Z,143424,-0.06695557,-0.10321045,0.02911377
1735323762115,2024-12-27T18:22:42.115Z,143430,-0.06591797,-0.103881836,0.028442383
1735323762120,2024-12-27T18:22:42.120Z,143435,-0.067993164,-0.1027832,0.030212402
1735323762140,2024-12-27T18:22:42.140Z,143455,-0.06738281,-0.10296631,0.031433105
1735323762145,2024-12-27T18:22:42.145Z,143460,-0.068359375,-0.10284424,0.029907227
1735323762151,2024-12-27T18:22:42.151Z,143466,-0.06890869,-0.1027832,0.029418945
1735323762156,2024-12-27T18:22:42.156Z,143471,-0.068725586,-0.10308838,0.028930664
1735323762162,2024-12-27T18:22:42.162Z,143477,-0.06933594,-0.103515625,0.028015137
1735323762170,2024-12-27T18:22:42.170Z,143485,-0.067993164,-0.10284424,0.02923584
1735323762184,2024-12-27T18:22:42.184Z,143499,-0.066467285,-0.10241699,0.030151367
1735323762190,2024-12-27T18:22:42.190Z,143505,-0.06549072,-0.101745605,0.030090332
1735323762196,2024-12-27T18:22:42.196Z,143511,-0.06329346,-0.10021973,0.032104492
1735323762201,2024-12-27T18:22:42.201Z,143516,-0.064697266,-0.101501465,0.030273438
1735323762207,2024-12-27T18:22:42.207Z,143522,-0.066589355,-0.10247803,0.028625488
1735323762321,2024-12-27T18:22:42.321Z,143636,-0.064941406,-0.10083008,0.030212402
1735323762328,2024-12-27T18:22:42.328Z,143643,-0.06549072,-0.10095215,0.02960205
1735323762335,2024-12-27T18:22:42.335Z,143650,-0.064819336,-0.1015625,0.030883789
1735323762342,2024-12-27T18:22:42.342Z,143657,-0.064208984,-0.10058594,0.032409668
1735323762348,2024-12-27T18:22:42.348Z,143663,-0.06427002,-0.10015869,0.031677246
1735323762408,2024-12-27T18:22:42.408Z,143723,-0.06518555,-0.10028076,0.031677246
1735323762414,2024-12-27T18:22:42.414Z,143729,-0.06555176,-0.10101318,0.031066895
1735323762419,2024-12-27T18:22:42.419Z,143734,-0.06695557,-0.101623535,0.032714844
1735323762425,2024-12-27T18:22:42.425Z,143740,-0.06738281,-0.10131836,0.03137207
1735323762433,2024-12-27T18:22:42.433Z,143748,-0.06750488,-0.10070801,0.031982422
1735323762438,2024-12-27T18:22:42.438Z,143753,-0.066711426,-0.09979248,0.03161621
1735323762456,2024-12-27T18:22:42.456Z,143771,-0.0657959,-0.10003662,0.030273438
1735323762461,2024-12-27T18:22:42.461Z,143776,-0.06512451,-0.10003662,0.030578613
1735323762467,2024-12-27T18:22:42.467Z,143782,-0.06604004,-0.099975586,0.02935791
1735323762472,2024-12-27T18:22:42.472Z,143787,-0.064697266,-0.0993042,0.030029297
1735323762478,2024-12-27T18:22:42.478Z,143793,-0.064086914,-0.09942627,0.029785156
1735323762498,2024-12-27T18:22:42.498Z,143813,-0.06555176,-0.10021973,0.028747559
1735323762501,2024-12-27T18:22:42.501Z,143816,-0.064575195,-0.099731445,0.030212402
1735323762546,2024-12-27T18:22:42.546Z,143861,-0.06512451,-0.10028076,0.02911377
1735323762551,2024-12-27T18:22:42.551Z,143866,-0.06536865,-0.10089111,0.028930664
1735323762557,2024-12-27T18:22:42.557Z,143872,-0.06500244,-0.10076904,0.028442383
1735323762564,2024-12-27T18:22:42.564Z,143879,-0.06524658,-0.10076904,0.028198242
1735323762570,2024-12-27T18:22:42.570Z,143885,-0.066833496,-0.1005249,0.028015137
1735323762587,2024-12-27T18:22:42.587Z,143902,-0.06561279,-0.099731445,0.029663086
1735323762593,2024-12-27T18:22:42.593Z,143908,-0.064941406,-0.09893799,0.029052734
1735323762599,2024-12-27T18:22:42.599Z,143914,-0.06555176,-0.09967041,0.028076172
1735323762605,2024-12-27T18:22:42.605Z,143920,-0.06677246,-0.099609375,0.027709961
1735323762610,2024-12-27T18:22:42.610Z,143925,-0.06512451,-0.09906006,0.027404785
1735323762635,2024-12-27T18:22:42.635Z,143950,-0.064086914,-0.099243164,0.028320312
1735323762641,2024-12-27T18:22:42.641Z,143956,-0.06536865,-0.099487305,0.027160645
1735323762647,2024-12-27T18:22:42.647Z,143962,-0.0625,-0.09857178,0.030029297
1735323762680,2024-12-27T18:22:42.680Z,143995,-0.06298828,-0.09753418,0.028137207
1735323762685,2024-12-27T18:22:42.685Z,144000,-0.060058594,-0.09741211,0.0289917
1735323762692,2024-12-27T18:22:42.692Z,144007,-0.059265137,-0.097595215,0.029541016
1735323762697,2024-12-27T18:22:42.697Z,144012,-0.062072754,-0.097473145,0.026428223
1735323762725,2024-12-27T18:22:42.725Z,144040,-0.060668945,-0.09686279,0.026733398
1735323762731,2024-12-27T18:22:42.731Z,144046,-0.05859375,-0.097595215,0.026367188
1735323762740,2024-12-27T18:22:42.740Z,144055,-0.058288574,-0.0982666,0.026367188
1735323762746,2024-12-27T18:22:42.746Z,144061,-0.05529785,-0.09899902,0.02935791
1735323762752,2024-12-27T18:22:42.752Z,144067,-0.057922363,-0.0993042,0.029846191
1735323762769,2024-12-27T18:22:42.769Z,144084,-0.059020996,-0.09887695,0.030090332
1735323762775,2024-12-27T18:22:42.775Z,144090,-0.058044434,-0.09918213,0.03137207
1735323762782,2024-12-27T18:22:42.782Z,144097,-0.057922363,-0.10064697,0.028381348
1735323762788,2024-12-27T18:22:42.788Z,144103,-0.060180664,-0.101135254,0.028198242
1735323762794,2024-12-27T18:22:42.794Z,144109,-0.060546875,-0.100097656,0.029663086
1735323762812,2024-12-27T18:22:42.812Z,144127,-0.056152344,-0.099487305,0.030700684
1735323762820,2024-12-27T18:22:42.820Z,144135,-0.055908203,-0.097473145,0.033813477
1735323762827,2024-12-27T18:22:42.827Z,144142,-0.05517578,-0.09643555,0.033813477
1735323762833,2024-12-27T18:22:42.833Z,144148,-0.059814453,-0.09680176,0.030334473
1735323762838,2024-12-27T18:22:42.838Z,144153,-0.05871582,-0.09448242,0.030822754
1735323762844,2024-12-27T18:22:42.844Z,144159,-0.054016113,-0.091552734,0.03112793
1735323762861,2024-12-27T18:22:42.861Z,144176,-0.05407715,-0.09100342,0.02960205
1735323762868,2024-12-27T18:22:42.868Z,144183,-0.051208496,-0.09100342,0.030517578
1735323762906,2024-12-27T18:22:42.906Z,144221,-0.052368164,-0.09069824,0.032592773
1735323762914,2024-12-27T18:22:42.914Z,144229,-0.055603027,-0.091430664,0.03186035
1735323762922,2024-12-27T18:22:42.922Z,144237,-0.055725098,-0.09185791,0.03125
1735323762928,2024-12-27T18:22:42.928Z,144243,-0.054382324,-0.09283447,0.028442383
1735323762934,2024-12-27T18:22:42.934Z,144249,-0.05419922,-0.093566895,0.026977539
1735323762993,2024-12-27T18:22:42.993Z,144308,-0.052856445,-0.09350586,0.028320312
1735323763042,2024-12-27T18:22:43.042Z,144357,-0.050964355,-0.09442139,0.027832031
1735323763049,2024-12-27T18:22:43.049Z,144364,-0.049926758,-0.09442139,0.02947998
1735323763056,2024-12-27T18:22:43.056Z,144371,-0.04925537,-0.09375,0.031677246
1735323763074,2024-12-27T18:22:43.074Z,144389,-0.052368164,-0.0904541,0.030578613
1735323763080,2024-12-27T18:22:43.080Z,144395,-0.05328369,-0.08947754,0.024780273
1735323763085,2024-12-27T18:22:43.085Z,144400,-0.0501709,-0.08831787,0.02520752
1735323763129,2024-12-27T18:22:43.129Z,144444,-0.04498291,-0.08642578,0.027648926
1735323763137,2024-12-27T18:22:43.137Z,144452,-0.04449463,-0.08648682,0.026367188
1735323763145,2024-12-27T18:22:43.145Z,144460,-0.0446167,-0.088378906,0.027404785
1735323763157,2024-12-27T18:22:43.157Z,144472,-0.045166016,-0.08947754,0.029052734
1735323763167,2024-12-27T18:22:43.167Z,144482,-0.046325684,-0.09088135,0.029907227
1735323763172,2024-12-27T18:22:43.172Z,144487,-0.051940918,-0.08959961,0.028808594
1735323763176,2024-12-27T18:22:43.176Z,144491,-0.060180664,-0.095947266,0.029846191
1735323763184,2024-12-27T18:22:43.184Z,144499,-0.059020996,-0.09613037,0.030639648
1735323763190,2024-12-27T18:22:43.190Z,144505,-0.05633545,-0.09539795,0.029663086
1735323763198,2024-12-27T18:22:43.198Z,144513,-0.05657959,-0.09436035,0.029174805
1735323763205,2024-12-27T18:22:43.205Z,144520,-0.060058594,-0.0927124,0.028198242
1735323763211,2024-12-27T18:22:43.211Z,144526,-0.061035156,-0.09094238,0.026000977
1735323763217,2024-12-27T18:22:43.217Z,144532,-0.055419922,-0.09088135,0.028381348
1735323763221,2024-12-27T18:22:43.221Z,144536,-0.05670166,-0.09423828,0.030822754
1735323763227,2024-12-27T18:22:43.227Z,144542,-0.05987549,-0.09613037,0.028442383
1735323763252,2024-12-27T18:22:43.252Z,144567,-0.06085205,-0.09906006,0.028930664
1735323763262,2024-12-27T18:22:43.262Z,144577,-0.0635376,-0.09899902,0.027770996
1735323763280,2024-12-27T18:22:43.280Z,144595,-0.06488037,-0.09552002,0.027160645
1735323763290,2024-12-27T18:22:43.290Z,144605,-0.061645508,-0.09423828,0.02520752
1735323763298,2024-12-27T18:22:43.298Z,144613,-0.057617188,-0.09613037,0.025878906
1735323763308,2024-12-27T18:22:43.308Z,144623,-0.053771973,-0.09857178,0.029663086
1735323763313,2024-12-27T18:22:43.313Z,144628,-0.054016113,-0.10064697,0.02935791
1735323763319,2024-12-27T18:22:43.319Z,144634,-0.056396484,-0.10083008,0.027038574
1735323763323,2024-12-27T18:22:43.323Z,144638,-0.06048584,-0.10015869,0.025268555
1735323763329,2024-12-27T18:22:43.329Z,144644,-0.06561279,-0.09881592,0.022399902
1735323763335,2024-12-27T18:22:43.335Z,144650,-0.062561035,-0.09576416,0.024719238
1735323763340,2024-12-27T18:22:43.340Z,144655,-0.055114746,-0.094055176,0.028076172
1735323763346,2024-12-27T18:22:43.346Z,144661,-0.057128906,-0.0949707,0.023376465
1735323763352,2024-12-27T18:22:43.352Z,144667,-0.055419922,-0.09643555,0.025024414
1735323763357,2024-12-27T18:22:43.357Z,144672,-0.050048828,-0.09753418,0.026550293
1735323763362,2024-12-27T18:22:43.362Z,144677,-0.054138184,-0.09802246,0.023010254
1735323763367,2024-12-27T18:22:43.367Z,144682,-0.05731201,-0.09753418,0.024291992
1735323763372,2024-12-27T18:22:43.372Z,144687,-0.057678223,-0.097229004,0.026916504
1735323763377,2024-12-27T18:22:43.377Z,144692,-0.06390381,-0.09710693,0.023620605
1735323763381,2024-12-27T18:22:43.381Z,144696,-0.06732178,-0.095703125,0.022583008
1735323763398,2024-12-27T18:22:43.398Z,144713,-0.064453125,-0.0925293,0.02545166
1735323763403,2024-12-27T18:22:43.403Z,144718,-0.059143066,-0.093566895,0.023620605
1735323763408,2024-12-27T18:22:43.408Z,144723,-0.05407715,-0.09942627,0.026306152
1735323763414,2024-12-27T18:22:43.414Z,144729,-0.048583984,-0.10101318,0.028320312
1735323763421,2024-12-27T18:22:43.421Z,144736,-0.048461914,-0.09942627,0.026611328
1735323763442,2024-12-27T18:22:43.442Z,144757,-0.05731201,-0.09954834,0.026916504
1735323763448,2024-12-27T18:22:43.448Z,144763,-0.064453125,-0.09991455,0.027404785
1735323763453,2024-12-27T18:22:43.453Z,144768,-0.06591797,-0.10235596,0.023864746
1735323763458,2024-12-27T18:22:43.458Z,144773,-0.060546875,-0.10296631,0.026733398
1735323763464,2024-12-27T18:22:43.464Z,144779,-0.05645752,-0.1026001,0.02734375
1735323763487,2024-12-27T18:22:43.487Z,144802,-0.05279541,-0.10394287,0.028503418
1735323763493,2024-12-27T18:22:43.493Z,144808,-0.05328369,-0.10546875,0.032592773
1735323763498,2024-12-27T18:22:43.498Z,144813,-0.056640625,-0.10723877,0.031433105
1735323763504,2024-12-27T18:22:43.504Z,144819,-0.058776855,-0.10748291,0.030822754
1735323763532,2024-12-27T18:22:43.532Z,144847,-0.05645752,-0.10961914,0.03363037
1735323763538,2024-12-27T18:22:43.538Z,144853,-0.06604004,-0.112976074,0.029663086
1735323763547,2024-12-27T18:22:43.547Z,144862,-0.06903076,-0.11553955,0.026184082
1735323763554,2024-12-27T18:22:43.554Z,144869,-0.059570312,-0.115234375,0.03289795
1735323763560,2024-12-27T18:22:43.560Z,144875,-0.051757812,-0.113342285,0.035095215
1735323763577,2024-12-27T18:22:43.577Z,144892,-0.048706055,-0.108947754,0.041381836
1735323763583,2024-12-27T18:22:43.583Z,144898,-0.04711914,-0.10437012,0.044189453
1735323763589,2024-12-27T18:22:43.589Z,144904,-0.052612305,-0.10534668,0.03717041
1735323763595,2024-12-27T18:22:43.595Z,144910,-0.06732178,-0.111328125,0.029907227
1735323763622,2024-12-27T18:22:43.622Z,144937,-0.071899414,-0.11462402,0.027770996
1735323763628,2024-12-27T18:22:43.628Z,144943,-0.059326172,-0.11541748,0.03265381
1735323763634,2024-12-27T18:22:43.634Z,144949,-0.052246094,-0.115234375,0.036376953
1735323763641,2024-12-27T18:22:43.641Z,144956,-0.047973633,-0.115356445,0.041137695
1735323763666,2024-12-27T18:22:43.666Z,144981,-0.047546387,-0.11151123,0.045776367
1735323763714,2024-12-27T18:22:43.714Z,145029,-0.051696777,-0.11047363,0.03741455
1735323763762,2024-12-27T18:22:43.762Z,145077,-0.06951904,-0.11047363,0.031921387
1735323763773,2024-12-27T18:22:43.773Z,145088,-0.06793213,-0.10888672,0.03540039
1735323763781,2024-12-27T18:22:43.781Z,145096,-0.058044434,-0.10876465,0.033203125
1735323763787,2024-12-27T18:22:43.787Z,145102,-0.051635742,-0.110839844,0.03881836
1735323763793,2024-12-27T18:22:43.793Z,145108,-0.049438477,-0.11651611,0.036132812
1735323763799,2024-12-27T18:22:43.799Z,145114,-0.057495117,-0.117248535,0.03668213
1735323763809,2024-12-27T18:22:43.809Z,145124,-0.05621338,-0.11138916,0.039916992
1735323763816,2024-12-27T18:22:43.816Z,145131,-0.053588867,-0.10925293,0.035827637
1735323763822,2024-12-27T18:22:43.822Z,145137,-0.061035156,-0.11230469,0.03137207
1735323763828,2024-12-27T18:22:43.828Z,145143,-0.069885254,-0.11395264,0.032409668
1735323763833,2024-12-27T18:22:43.833Z,145148,-0.058044434,-0.11230469,0.037109375
1735323763848,2024-12-27T18:22:43.848Z,145163,-0.053527832,-0.11315918,0.03564453
1735323763855,2024-12-27T18:22:43.855Z,145170,-0.059570312,-0.1161499,0.035217285
1735323763862,2024-12-27T18:22:43.862Z,145177,-0.055114746,-0.11627197,0.0357666
1735323763868,2024-12-27T18:22:43.868Z,145183,-0.06060791,-0.11437988,0.0357666
1735323763873,2024-12-27T18:22:43.873Z,145188,-0.06518555,-0.11077881,0.032592773
1735323763879,2024-12-27T18:22:43.879Z,145194,-0.061462402,-0.107177734,0.032165527
1735323763897,2024-12-27T18:22:43.897Z,145212,-0.05718994,-0.10882568,0.035888672
1735323763904,2024-12-27T18:22:43.904Z,145219,-0.059692383,-0.11212158,0.035888672
1735323763909,2024-12-27T18:22:43.909Z,145224,-0.056518555,-0.111816406,0.037902832
1735323763915,2024-12-27T18:22:43.915Z,145230,-0.054382324,-0.111206055,0.03717041
1735323763921,2024-12-27T18:22:43.921Z,145236,-0.057373047,-0.1149292,0.030761719
1735323763937,2024-12-27T18:22:43.937Z,145252,-0.066101074,-0.117370605,0.02758789
1735323763984,2024-12-27T18:22:43.984Z,145299,-0.06536865,-0.11395264,0.026977539
1735323763990,2024-12-27T18:22:43.990Z,145305,-0.06048584,-0.111816406,0.030883789
1735323763996,2024-12-27T18:22:43.996Z,145311,-0.055786133,-0.11401367,0.03375244
1735323764001,2024-12-27T18:22:44.001Z,145316,-0.051635742,-0.11627197,0.032043457
1735323764006,2024-12-27T18:22:44.006Z,145321,-0.056274414,-0.11755371,0.03289795
1735323764077,2024-12-27T18:22:44.077Z,145392,-0.062316895,-0.117492676,0.029541016
1735323764082,2024-12-27T18:22:44.082Z,145397,-0.064331055,-0.119262695,0.028198242
1735323764087,2024-12-27T18:22:44.087Z,145402,-0.06555176,-0.12060547,0.02734375
1735323764092,2024-12-27T18:22:44.092Z,145407,-0.06097412,-0.12097168,0.029663086
1735323764098,2024-12-27T18:22:44.098Z,145413,-0.060058594,-0.12005615,0.030578613
1735323764117,2024-12-27T18:22:44.117Z,145432,-0.058898926,-0.11743164,0.032409668
1735323764124,2024-12-27T18:22:44.124Z,145439,-0.057800293,-0.11621094,0.032836914
1735323764131,2024-12-27T18:22:44.131Z,145446,-0.06085205,-0.114868164,0.028869629
1735323764137,2024-12-27T18:22:44.137Z,145452,-0.062194824,-0.111450195,0.030822754
1735323764142,2024-12-27T18:22:44.142Z,145457,-0.06384277,-0.11224365,0.030090332
1735323764148,2024-12-27T18:22:44.148Z,145463,-0.06298828,-0.11651611,0.02734375
1735323764166,2024-12-27T18:22:44.166Z,145481,-0.06011963,-0.11608887,0.029724121
1735323764169,2024-12-27T18:22:44.169Z,145484,-0.062805176,-0.11663818,0.026672363
1735323764207,2024-12-27T18:22:44.207Z,145522,-0.06732178,-0.11505127,0.030090332
1735323764213,2024-12-27T18:22:44.213Z,145528,-0.06719971,-0.11352539,0.029663086
1735323764221,2024-12-27T18:22:44.221Z,145536,-0.06536865,-0.11383057,0.028930664
1735323764228,2024-12-27T18:22:44.228Z,145543,-0.061279297,-0.114746094,0.03375244
1735323764236,2024-12-27T18:22:44.236Z,145551,-0.061828613,-0.11706543,0.029418945
1735323764242,2024-12-27T18:22:44.242Z,145557,-0.06640625,-0.119628906,0.027832031
1735323764258,2024-12-27T18:22:44.258Z,145573,-0.06939697,-0.117492676,0.026855469
1735323764267,2024-12-27T18:22:44.267Z,145582,-0.068237305,-0.11645508,0.029174805
1735323764277,2024-12-27T18:22:44.277Z,145592,-0.06719971,-0.11895752,0.033569336
1735323764284,2024-12-27T18:22:44.284Z,145599,-0.06726074,-0.11993408,0.030456543
1735323764289,2024-12-27T18:22:44.289Z,145604,-0.06695557,-0.11730957,0.031799316
1735323764296,2024-12-27T18:22:44.296Z,145611,-0.06964111,-0.111572266,0.028259277
1735323764302,2024-12-27T18:22:44.302Z,145617,-0.06414795,-0.10827637,0.030273438
1735323764310,2024-12-27T18:22:44.310Z,145625,-0.06060791,-0.10809326,0.028320312
1735323764317,2024-12-27T18:22:44.317Z,145632,-0.061157227,-0.107910156,0.028503418
1735323764322,2024-12-27T18:22:44.322Z,145637,-0.057250977,-0.107910156,0.030456543
1735323764327,2024-12-27T18:22:44.327Z,145642,-0.05834961,-0.1071167,0.028198242
1735323764392,2024-12-27T18:22:44.392Z,145707,-0.05987549,-0.1060791,0.027893066
1735323764397,2024-12-27T18:22:44.397Z,145712,-0.06329346,-0.10723877,0.024902344
1735323764403,2024-12-27T18:22:44.403Z,145718,-0.06842041,-0.107177734,0.020812988
1735323764409,2024-12-27T18:22:44.409Z,145724,-0.06384277,-0.10681152,0.022399902
1735323764416,2024-12-27T18:22:44.416Z,145731,-0.06317139,-0.10845947,0.022888184
1735323764432,2024-12-27T18:22:44.432Z,145747,-0.05883789,-0.111572266,0.026062012
1735323764439,2024-12-27T18:22:44.439Z,145754,-0.06121826,-0.11053467,0.028137207
1735323764479,2024-12-27T18:22:44.479Z,145794,-0.064819336,-0.109069824,0.025756836
1735323764486,2024-12-27T18:22:44.486Z,145801,-0.06341553,-0.10974121,0.026428223
1735323764526,2024-12-27T18:22:44.526Z,145841,-0.06402588,-0.11248779,0.024169922
1735323764534,2024-12-27T18:22:44.534Z,145849,-0.064086914,-0.11407471,0.024230957
1735323764541,2024-12-27T18:22:44.541Z,145856,-0.061706543,-0.11462402,0.024414062
1735323764545,2024-12-27T18:22:44.545Z,145860,-0.06311035,-0.11437988,0.02520752
1735323764552,2024-12-27T18:22:44.552Z,145867,-0.060302734,-0.11254883,0.030517578
1735323764559,2024-12-27T18:22:44.559Z,145874,-0.057250977,-0.11071777,0.030456543
1735323764571,2024-12-27T18:22:44.571Z,145886,-0.061462402,-0.11035156,0.029907227
1735323764578,2024-12-27T18:22:44.578Z,145893,-0.06213379,-0.110961914,0.03186035
1735323764584,2024-12-27T18:22:44.584Z,145899,-0.061706543,-0.112854004,0.029418945
1735323764590,2024-12-27T18:22:44.590Z,145905,-0.06286621,-0.112854004,0.027648926
1735323764596,2024-12-27T18:22:44.596Z,145911,-0.061035156,-0.11175537,0.03112793
1735323764613,2024-12-27T18:22:44.613Z,145928,-0.060913086,-0.1105957,0.03253174
1735323764615,2024-12-27T18:22:44.615Z,145930,-0.059143066,-0.109191895,0.028381348
1735323764621,2024-12-27T18:22:44.621Z,145936,-0.06201172,-0.11053467,0.028137207
1735323764626,2024-12-27T18:22:44.626Z,145941,-0.06402588,-0.111328125,0.026184082
1735323764633,2024-12-27T18:22:44.633Z,145948,-0.060058594,-0.11212158,0.030639648
1735323764638,2024-12-27T18:22:44.638Z,145953,-0.059692383,-0.11291504,0.03149414
1735323764657,2024-12-27T18:22:44.657Z,145972,-0.059143066,-0.11248779,0.02960205
1735323764662,2024-12-27T18:22:44.662Z,145977,-0.061645508,-0.112976074,0.028320312
1735323764705,2024-12-27T18:22:44.705Z,146020,-0.06317139,-0.114990234,0.028442383
1735323764841,2024-12-27T18:22:44.841Z,146156,-0.06689453,-0.11621094,0.027526855
1735323764850,2024-12-27T18:22:44.850Z,146165,-0.06628418,-0.1171875,0.026916504
1735323764855,2024-12-27T18:22:44.855Z,146170,-0.06329346,-0.117248535,0.027709961
1735323764886,2024-12-27T18:22:44.886Z,146201,-0.061523438,-0.117126465,0.029846191
1735323764899,2024-12-27T18:22:44.899Z,146214,-0.060791016,-0.117370605,0.029418945
1735323764907,2024-12-27T18:22:44.907Z,146222,-0.062927246,-0.11791992,0.030456543
1735323764919,2024-12-27T18:22:44.919Z,146234,-0.06488037,-0.11932373,0.030883789
1735323764929,2024-12-27T18:22:44.929Z,146244,-0.06677246,-0.121276855,0.030395508
1735323764935,2024-12-27T18:22:44.935Z,146250,-0.06555176,-0.12237549,0.03161621
1735323764976,2024-12-27T18:22:44.976Z,146291,-0.0692749,-0.123413086,0.030944824
1735323764984,2024-12-27T18:22:44.984Z,146299,-0.07086182,-0.12463379,0.030639648
1735323764991,2024-12-27T18:22:44.991Z,146306,-0.064819336,-0.14038086,0.050720215
1735323764996,2024-12-27T18:22:44.996Z,146311,-0.06616211,-0.13476562,0.05505371
1735323765002,2024-12-27T18:22:45.002Z,146317,-0.06188965,-0.13128662,0.054748535
1735323765017,2024-12-27T18:22:45.017Z,146332,-0.0713501,-0.13085938,0.048217773
1735323765020,2024-12-27T18:22:45.020Z,146335,-0.07574463,-0.12945557,0.048828125
1735323765024,2024-12-27T18:22:45.024Z,146339,-0.06591797,-0.12866211,0.051818848
1735323765030,2024-12-27T18:22:45.030Z,146345,-0.05633545,-0.12860107,0.049682617
1735323765036,2024-12-27T18:22:45.036Z,146351,-0.055114746,-0.12719727,0.055419922
1735323765042,2024-12-27T18:22:45.042Z,146357,-0.054870605,-0.12506104,0.051818848
1735323765062,2024-12-27T18:22:45.062Z,146377,-0.057800293,-0.12072754,0.049926758
1735323765066,2024-12-27T18:22:45.066Z,146381,-0.043701172,-0.11126709,0.048583984
1735323765071,2024-12-27T18:22:45.071Z,146386,-0.040161133,-0.11206055,0.04638672
1735323765076,2024-12-27T18:22:45.076Z,146391,-0.043884277,-0.109375,0.04748535
1735323765082,2024-12-27T18:22:45.082Z,146397,-0.046325684,-0.10473633,0.04449463
1735323765087,2024-12-27T18:22:45.087Z,146402,-0.045959473,-0.09991455,0.04724121
1735323765152,2024-12-27T18:22:45.152Z,146467,-0.046142578,-0.09729004,0.047546387
1735323765157,2024-12-27T18:22:45.157Z,146472,-0.042419434,-0.097595215,0.04473877
1735323765162,2024-12-27T18:22:45.162Z,146477,-0.047607422,-0.097351074,0.041931152
1735323765168,2024-12-27T18:22:45.168Z,146483,-0.039916992,-0.10211182,0.041992188
1735323765172,2024-12-27T18:22:45.172Z,146487,-0.03894043,-0.105407715,0.046447754
1735323765176,2024-12-27T18:22:45.176Z,146491,-0.04827881,-0.104003906,0.045410156
1735323765199,2024-12-27T18:22:45.199Z,146514,-0.047729492,-0.10144043,0.047851562
1735323765205,2024-12-27T18:22:45.205Z,146520,-0.045715332,-0.10107422,0.05029297
1735323765211,2024-12-27T18:22:45.211Z,146526,-0.046813965,-0.101379395,0.048828125
1735323765217,2024-12-27T18:22:45.217Z,146532,-0.05230713,-0.09967041,0.047424316
1735323765225,2024-12-27T18:22:45.225Z,146540,-0.05267334,-0.09887695,0.040771484
1735323765242,2024-12-27T18:22:45.242Z,146557,-0.045959473,-0.10522461,0.037597656
1735323765245,2024-12-27T18:22:45.245Z,146560,-0.05432129,-0.11224365,0.040771484
1735323765252,2024-12-27T18:22:45.252Z,146567,-0.051635742,-0.11090088,0.04498291
1735323765258,2024-12-27T18:22:45.258Z,146573,-0.04949951,-0.11077881,0.045959473
1735323765263,2024-12-27T18:22:45.263Z,146578,-0.053466797,-0.10900879,0.044677734
1735323765269,2024-12-27T18:22:45.269Z,146584,-0.056518555,-0.10571289,0.041870117
1735323765286,2024-12-27T18:22:45.286Z,146601,-0.05206299,-0.10601807,0.04046631
1735323765292,2024-12-27T18:22:45.292Z,146607,-0.049621582,-0.10784912,0.038635254
1735323765297,2024-12-27T18:22:45.297Z,146612,-0.05053711,-0.11047363,0.036010742
1735323765302,2024-12-27T18:22:45.302Z,146617,-0.050048828,-0.11206055,0.040161133
1735323765307,2024-12-27T18:22:45.307Z,146622,-0.046691895,-0.113098145,0.039916992
1735323765312,2024-12-27T18:22:45.312Z,146627,-0.047424316,-0.11468506,0.040771484
1735323765335,2024-12-27T18:22:45.335Z,146650,-0.05834961,-0.11138916,0.037231445
1735323765340,2024-12-27T18:22:45.340Z,146655,-0.05621338,-0.1071167,0.034301758
1735323765347,2024-12-27T18:22:45.347Z,146662,-0.05041504,-0.105773926,0.03363037
1735323765353,2024-12-27T18:22:45.353Z,146668,-0.05053711,-0.10638428,0.029724121
1735323765358,2024-12-27T18:22:45.358Z,146673,-0.05029297,-0.10803223,0.028625488
1735323765376,2024-12-27T18:22:45.376Z,146691,-0.05230713,-0.11102295,0.032409668
1735323765382,2024-12-27T18:22:45.382Z,146697,-0.061767578,-0.11047363,0.030639648
1735323765388,2024-12-27T18:22:45.388Z,146703,-0.061401367,-0.10888672,0.028564453
1735323765393,2024-12-27T18:22:45.393Z,146708,-0.057678223,-0.10864258,0.033203125
1735323765400,2024-12-27T18:22:45.400Z,146715,-0.05987549,-0.10852051,0.031188965
1735323765405,2024-12-27T18:22:45.405Z,146720,-0.060913086,-0.1048584,0.033325195
1735323765424,2024-12-27T18:22:45.424Z,146739,-0.061828613,-0.10418701,0.030700684
1735323765430,2024-12-27T18:22:45.430Z,146745,-0.064941406,-0.106933594,0.028015137
1735323765435,2024-12-27T18:22:45.435Z,146750,-0.06665039,-0.10668945,0.029418945
1735323765440,2024-12-27T18:22:45.440Z,146755,-0.06896973,-0.105529785,0.028503418
1735323765445,2024-12-27T18:22:45.445Z,146760,-0.070373535,-0.107299805,0.02923584
1735323765467,2024-12-27T18:22:45.467Z,146782,-0.07128906,-0.107910156,0.025756836
1735323765472,2024-12-27T18:22:45.472Z,146787,-0.06695557,-0.10424805,0.028137207
1735323765478,2024-12-27T18:22:45.478Z,146793,-0.062805176,-0.10241699,0.030334473
1735323765484,2024-12-27T18:22:45.484Z,146799,-0.066467285,-0.10180664,0.029663086
1735323765513,2024-12-27T18:22:45.513Z,146828,-0.06616211,-0.10003662,0.030944824
1735323765523,2024-12-27T18:22:45.523Z,146838,-0.06665039,-0.09857178,0.032714844
1735323765529,2024-12-27T18:22:45.529Z,146844,-0.07293701,-0.09765625,0.032226562
1735323765535,2024-12-27T18:22:45.535Z,146850,-0.0748291,-0.095581055,0.02734375
1735323765557,2024-12-27T18:22:45.557Z,146872,-0.06976318,-0.09387207,0.02709961
1735323765606,2024-12-27T18:22:45.606Z,146921,-0.06488037,-0.09283447,0.027893066
1735323765612,2024-12-27T18:22:45.612Z,146927,-0.06707764,-0.09088135,0.02722168
1735323765619,2024-12-27T18:22:45.619Z,146934,-0.067993164,-0.091430664,0.02758789
1735323765626,2024-12-27T18:22:45.626Z,146941,-0.062805176,-0.093933105,0.026000977
1735323765632,2024-12-27T18:22:45.632Z,146947,-0.059753418,-0.097595215,0.024169922
1735323765647,2024-12-27T18:22:45.647Z,146962,-0.064697266,-0.09869385,0.022216797
1735323765655,2024-12-27T18:22:45.655Z,146970,-0.07141113,-0.091918945,0.023376465
1735323765661,2024-12-27T18:22:45.661Z,146976,-0.072021484,-0.083618164,0.023986816
1735323765670,2024-12-27T18:22:45.670Z,146985,-0.06518555,-0.080444336,0.026123047
1735323765677,2024-12-27T18:22:45.677Z,146992,-0.06530762,-0.07952881,0.023925781
1735323765683,2024-12-27T18:22:45.683Z,146998,-0.06768799,-0.07910156,0.02368164
1735323765739,2024-12-27T18:22:45.739Z,147054,-0.06201172,-0.08276367,0.021972656
1735323765749,2024-12-27T18:22:45.749Z,147064,-0.062194824,-0.08679199,0.018920898
1735323765761,2024-12-27T18:22:45.761Z,147076,-0.06201172,-0.08856201,0.017944336
1735323765773,2024-12-27T18:22:45.773Z,147088,-0.06109619,-0.088256836,0.020935059
1735323765786,2024-12-27T18:22:45.786Z,147101,-0.0625,-0.08758545,0.020629883
1735323765795,2024-12-27T18:22:45.795Z,147110,-0.06616211,-0.08538818,0.024047852
1735323765803,2024-12-27T18:22:45.803Z,147118,-0.06744385,-0.08288574,0.024353027
1735323765811,2024-12-27T18:22:45.811Z,147126,-0.06939697,-0.080566406,0.021057129
1735323765818,2024-12-27T18:22:45.818Z,147133,-0.07128906,-0.07940674,0.019104004
1735323765827,2024-12-27T18:22:45.827Z,147142,-0.06573486,-0.080322266,0.020385742
1735323765833,2024-12-27T18:22:45.833Z,147148,-0.058288574,-0.08166504,0.022216797
1735323765838,2024-12-27T18:22:45.838Z,147153,-0.062438965,-0.083618164,0.021240234
1735323765843,2024-12-27T18:22:45.843Z,147158,-0.06201172,-0.085998535,0.020507812
1735323765848,2024-12-27T18:22:45.848Z,147163,-0.06188965,-0.08496094,0.021606445
1735323765854,2024-12-27T18:22:45.854Z,147169,-0.066101074,-0.08337402,0.019104004
1735323765922,2024-12-27T18:22:45.922Z,147237,-0.0690918,-0.0836792,0.017150879
1735323765929,2024-12-27T18:22:45.929Z,147244,-0.06512451,-0.08380127,0.018005371
1735323766011,2024-12-27T18:22:46.011Z,147326,-0.062805176,-0.08282471,0.02130127
1735323766023,2024-12-27T18:22:46.023Z,147338,-0.0635376,-0.07867432,0.022949219
1735323766035,2024-12-27T18:22:46.035Z,147350,-0.06201172,-0.076293945,0.020629883
1735323766044,2024-12-27T18:22:46.044Z,147359,-0.059143066,-0.07891846,0.020019531
1735323766051,2024-12-27T18:22:46.051Z,147366,-0.06011963,-0.08312988,0.018127441
1735323766058,2024-12-27T18:22:46.058Z,147373,-0.060668945,-0.084350586,0.015930176
1735323766105,2024-12-27T18:22:46.105Z,147420,-0.05871582,-0.08331299,0.018676758
1735323766115,2024-12-27T18:22:46.115Z,147430,-0.05731201,-0.08325195,0.020568848
1735323766123,2024-12-27T18:22:46.123Z,147438,-0.05883789,-0.0836792,0.019836426
1735323766130,2024-12-27T18:22:46.130Z,147445,-0.061645508,-0.07867432,0.01763916
1735323766137,2024-12-27T18:22:46.137Z,147452,-0.058776855,-0.07751465,0.016784668
1735323766144,2024-12-27T18:22:46.144Z,147459,-0.057556152,-0.07739258,0.0178833
1735323766188,2024-12-27T18:22:46.188Z,147503,-0.0592041,-0.07849121,0.016601562
1735323766198,2024-12-27T18:22:46.198Z,147513,-0.05908203,-0.07952881,0.016235352
1735323766240,2024-12-27T18:22:46.240Z,147555,-0.06085205,-0.080200195,0.016967773
1735323766332,2024-12-27T18:22:46.332Z,147647,-0.06323242,-0.08135986,0.018188477
1735323766344,2024-12-27T18:22:46.344Z,147659,-0.0637207,-0.08343506,0.01727295
1735323766355,2024-12-27T18:22:46.355Z,147670,-0.06463623,-0.08557129,0.01763916
1735323766359,2024-12-27T18:22:46.359Z,147674,-0.075805664,-0.09106445,0.019348145
1735323766367,2024-12-27T18:22:46.367Z,147682,-0.078125,-0.09124756,0.019836426
1735323766372,2024-12-27T18:22:46.372Z,147687,-0.07696533,-0.092041016,0.020019531
1735323766379,2024-12-27T18:22:46.379Z,147694,-0.078063965,-0.09515381,0.017944336
1735323766386,2024-12-27T18:22:46.386Z,147701,-0.07800293,-0.09832764,0.017333984
1735323766392,2024-12-27T18:22:46.392Z,147707,-0.07623291,-0.10015869,0.018005371
1735323766398,2024-12-27T18:22:46.398Z,147713,-0.083618164,-0.10272217,0.017028809
1735323766404,2024-12-27T18:22:46.404Z,147719,-0.08325195,-0.10235596,0.017578125
1735323766412,2024-12-27T18:22:46.412Z,147727,-0.07763672,-0.09680176,0.01751709
1735323766415,2024-12-27T18:22:46.415Z,147730,-0.07525635,-0.09411621,0.01928711
1735323766418,2024-12-27T18:22:46.418Z,147733,-0.07470703,-0.09509277,0.020263672
1735323766424,2024-12-27T18:22:46.424Z,147739,-0.074401855,-0.095947266,0.020263672
1735323766429,2024-12-27T18:22:46.429Z,147744,-0.07434082,-0.09710693,0.020202637
1735323766435,2024-12-27T18:22:46.435Z,147750,-0.07550049,-0.097473145,0.022033691
1735323766440,2024-12-27T18:22:46.440Z,147755,-0.07696533,-0.09753418,0.02154541
1735323766463,2024-12-27T18:22:46.463Z,147778,-0.076416016,-0.097351074,0.022033691
1735323766471,2024-12-27T18:22:46.471Z,147786,-0.07623291,-0.097717285,0.022521973
1735323766476,2024-12-27T18:22:46.476Z,147791,-0.078308105,-0.09844971,0.021362305
1735323766481,2024-12-27T18:22:46.481Z,147796,-0.07922363,-0.09820557,0.020202637
1735323766487,2024-12-27T18:22:46.487Z,147802,-0.076660156,-0.09777832,0.020324707
1735323766504,2024-12-27T18:22:46.504Z,147819,-0.07574463,-0.09869385,0.019836426
1735323766509,2024-12-27T18:22:46.509Z,147824,-0.07733154,-0.09857178,0.020019531
1735323766514,2024-12-27T18:22:46.514Z,147829,-0.07733154,-0.097473145,0.020690918
1735323766519,2024-12-27T18:22:46.519Z,147834,-0.07678223,-0.09649658,0.018615723
1735323766525,2024-12-27T18:22:46.525Z,147840,-0.07537842,-0.095825195,0.019042969
1735323766530,2024-12-27T18:22:46.530Z,147845,-0.074035645,-0.09674072,0.020141602
1735323766596,2024-12-27T18:22:46.596Z,147911,-0.07562256,-0.097839355,0.018493652
1735323766600,2024-12-27T18:22:46.600Z,147915,-0.074523926,-0.0970459,0.018981934
1735323766606,2024-12-27T18:22:46.606Z,147921,-0.07287598,-0.09667969,0.019836426
1735323766614,2024-12-27T18:22:46.614Z,147929,-0.07385254,-0.0982666,0.018920898
1735323766622,2024-12-27T18:22:46.622Z,147937,-0.07336426,-0.09857178,0.020751953
1735323766636,2024-12-27T18:22:46.636Z,147951,-0.07171631,-0.097229004,0.020324707
1735323766643,2024-12-27T18:22:46.643Z,147958,-0.07171631,-0.09661865,0.01953125
1735323766649,2024-12-27T18:22:46.649Z,147964,-0.07196045,-0.09765625,0.019714355
1735323766654,2024-12-27T18:22:46.654Z,147969,-0.0736084,-0.09741211,0.01928711
1735323766661,2024-12-27T18:22:46.661Z,147976,-0.072143555,-0.09729004,0.020690918
1735323766682,2024-12-27T18:22:46.682Z,147997,-0.07324219,-0.09918213,0.020629883
1735323766735,2024-12-27T18:22:46.735Z,148050,-0.07220459,-0.09875488,0.020568848
1735323766747,2024-12-27T18:22:46.747Z,148062,-0.07183838,-0.09863281,0.020202637
1735323766760,2024-12-27T18:22:46.760Z,148075,-0.07476807,-0.09979248,0.019714355
1735323766771,2024-12-27T18:22:46.771Z,148086,-0.076171875,-0.10021973,0.01727295
1735323766783,2024-12-27T18:22:46.783Z,148098,-0.07476807,-0.099853516,0.018737793
1735323766792,2024-12-27T18:22:46.792Z,148107,-0.074401855,-0.09881592,0.020324707
1735323766824,2024-12-27T18:22:46.824Z,148139,-0.0758667,-0.09863281,0.018920898
1735323766838,2024-12-27T18:22:46.838Z,148153,-0.07501221,-0.09899902,0.01928711
1735323766849,2024-12-27T18:22:46.849Z,148164,-0.074035645,-0.100097656,0.018066406
1735323766861,2024-12-27T18:22:46.861Z,148176,-0.07507324,-0.10028076,0.019226074
1735323766868,2024-12-27T18:22:46.868Z,148183,-0.07507324,-0.099243164,0.01776123
1735323766874,2024-12-27T18:22:46.874Z,148189,-0.07489014,-0.09979248,0.01751709
1735323766911,2024-12-27T18:22:46.911Z,148226,-0.07299805,-0.09967041,0.018127441
1735323766918,2024-12-27T18:22:46.918Z,148233,-0.072143555,-0.09991455,0.017578125
1735323766926,2024-12-27T18:22:46.926Z,148241,-0.0703125,-0.099853516,0.018127441
1735323766933,2024-12-27T18:22:46.933Z,148248,-0.0703125,-0.098083496,0.019592285
1735323766941,2024-12-27T18:22:46.941Z,148256,-0.06933594,-0.09686279,0.019104004
1735323767044,2024-12-27T18:22:47.044Z,148359,-0.06951904,-0.09802246,0.020263672
1735323767145,2024-12-27T18:22:47.145Z,148460,-0.06774902,-0.09893799,0.020019531
1735323767159,2024-12-27T18:22:47.159Z,148474,-0.066589355,-0.099243164,0.02166748
1735323767170,2024-12-27T18:22:47.170Z,148485,-0.06738281,-0.10064697,0.022094727
1735323767175,2024-12-27T18:22:47.175Z,148490,-0.07287598,-0.10180664,0.01965332
1735323767183,2024-12-27T18:22:47.183Z,148498,-0.07763672,-0.10192871,0.018127441
1735323767189,2024-12-27T18:22:47.189Z,148504,-0.0690918,-0.09967041,0.022094727
1735323767194,2024-12-27T18:22:47.194Z,148509,-0.06842041,-0.09802246,0.023132324
1735323767198,2024-12-27T18:22:47.198Z,148513,-0.068237305,-0.09753418,0.022766113
1735323767204,2024-12-27T18:22:47.204Z,148519,-0.07305908,-0.097473145,0.020263672
1735323767209,2024-12-27T18:22:47.209Z,148524,-0.07489014,-0.09661865,0.01965332
1735323767222,2024-12-27T18:22:47.222Z,148537,-0.06958008,-0.095581055,0.020019531
1735323767224,2024-12-27T18:22:47.224Z,148539,-0.06573486,-0.0927124,0.02355957
1735323767228,2024-12-27T18:22:47.228Z,148543,-0.0592041,-0.084472656,0.02911377
1735323767234,2024-12-27T18:22:47.234Z,148549,-0.05834961,-0.08312988,0.029174805
1735323767267,2024-12-27T18:22:47.267Z,148582,-0.056396484,-0.08203125,0.030456543
1735323767272,2024-12-27T18:22:47.272Z,148587,-0.055725098,-0.08190918,0.030151367
1735323767277,2024-12-27T18:22:47.277Z,148592,-0.059020996,-0.083740234,0.027709961
1735323767282,2024-12-27T18:22:47.282Z,148597,-0.06402588,-0.08642578,0.02508545
1735323767289,2024-12-27T18:22:47.289Z,148604,-0.06512451,-0.086120605,0.027709961
1735323767295,2024-12-27T18:22:47.295Z,148610,-0.06677246,-0.08569336,0.027404785
1735323767316,2024-12-27T18:22:47.316Z,148631,-0.06585693,-0.08685303,0.027526855
1735323767322,2024-12-27T18:22:47.322Z,148637,-0.06378174,-0.08703613,0.028564453
1735323767328,2024-12-27T18:22:47.328Z,148643,-0.06628418,-0.08581543,0.02709961
1735323767333,2024-12-27T18:22:47.333Z,148648,-0.06604004,-0.08544922,0.026916504
1735323767339,2024-12-27T18:22:47.339Z,148654,-0.060668945,-0.08520508,0.028198242
1735323767360,2024-12-27T18:22:47.360Z,148675,-0.061645508,-0.08648682,0.024841309
1735323767367,2024-12-27T18:22:47.367Z,148682,-0.06719971,-0.08795166,0.023620605
1735323767374,2024-12-27T18:22:47.374Z,148689,-0.06512451,-0.09039307,0.023132324
1735323767379,2024-12-27T18:22:47.379Z,148694,-0.061401367,-0.0914917,0.024536133
1735323767386,2024-12-27T18:22:47.386Z,148701,-0.06213379,-0.09112549,0.022583008
