Timestamp (ms),ISO DateTime,Elapsed Time (ms),Acceleration X,Acceleration Y,Acceleration Z
1725700492150,2024-09-07T09:14:52.150Z,68936,-0.3842163,-0.8866577,-0.039001465
1725700492184,2024-09-07T09:14:52.184Z,68970,-0.34417725,-0.9039917,-0.058654785
1725700492228,2024-09-07T09:14:52.228Z,69014,-0.37390137,-0.9226074,-0.03643799
1725700492274,2024-09-07T09:14:52.274Z,69060,-0.3866577,-0.93573,-0.064331055
1725700492317,2024-09-07T09:14:52.317Z,69103,-0.3959961,-0.9256592,-0.05206299
1725700492362,2024-09-07T09:14:52.362Z,69148,-0.35876465,-0.9116211,-0.10266113
1725700492407,2024-09-07T09:14:52.407Z,69193,-0.3768921,-0.89660645,-0.05657959
1725700492456,2024-09-07T09:14:52.456Z,69242,-0.3187256,-0.90893555,-0.09680176
1725700492509,2024-09-07T09:14:52.509Z,69295,-0.3499756,-0.90838623,-0.020263672
1725700492546,2024-09-07T09:14:52.546Z,69332,-0.3812256,-0.92388916,-0.04083252
1725700492562,2024-09-07T09:14:52.562Z,69348,-0.37097168,-0.8934326,-0.016967773
1725700492592,2024-09-07T09:14:52.592Z,69378,-0.37286377,-0.8652954,-0.061767578
1725700492638,2024-09-07T09:14:52.638Z,69424,-0.35650635,-0.84851074,-0.085632324
1725700492685,2024-09-07T09:14:52.685Z,69471,-0.30688477,-0.85284424,-0.10571289
1725700492731,2024-09-07T09:14:52.731Z,69517,-0.37670898,-0.87524414,-0.053222656
1725700492774,2024-09-07T09:14:52.774Z,69560,-0.37817383,-0.88256836,-0.032409668
1725700492819,2024-09-07T09:14:52.819Z,69605,-0.36767578,-0.8545532,-0.03503418
1725700492863,2024-09-07T09:14:52.863Z,69649,-0.35638428,-0.8131714,-0.008850098
1725700492910,2024-09-07T09:14:52.910Z,69696,-0.33746338,-0.8032837,-0.0018920898
1725700492955,2024-09-07T09:14:52.955Z,69741,-0.3581543,-0.7961426,0.040161133
1725700492976,2024-09-07T09:14:52.976Z,69762,-0.3357544,-0.7955322,0.04058838
1725700492996,2024-09-07T09:14:52.996Z,69782,-0.35003662,-0.79766846,0.04321289
1725700493040,2024-09-07T09:14:53.040Z,69826,-0.34075928,-0.8171997,-0.012878418
1725700493086,2024-09-07T09:14:53.086Z,69872,-0.37365723,-0.829895,-0.016967773
1725700493135,2024-09-07T09:14:53.135Z,69921,-0.3834839,-0.8484497,-0.06921387
1725700493177,2024-09-07T09:14:53.177Z,69963,-0.43426514,-0.854126,-0.061828613
1725700493225,2024-09-07T09:14:53.225Z,70011,-0.442688,-0.8709717,-0.05493164
1725700493267,2024-09-07T09:14:53.267Z,70053,-0.42645264,-0.8911133,-0.03753662
1725700493361,2024-09-07T09:14:53.361Z,70147,-0.42749023,-0.9069214,-0.035217285
1725700493382,2024-09-07T09:14:53.382Z,70168,-0.40905762,-0.90826416,-0.01550293
1725700493406,2024-09-07T09:14:53.406Z,70192,-0.3710327,-0.90441895,-0.022094727
1725700493416,2024-09-07T09:14:53.416Z,70202,-0.35491943,-0.9190674,0.058532715
1725700493443,2024-09-07T09:14:53.443Z,70229,-0.3493042,-0.9567261,0.061767578
1725700493490,2024-09-07T09:14:53.490Z,70276,-0.35498047,-0.96325684,0.064208984
1725700493536,2024-09-07T09:14:53.536Z,70322,-0.35754395,-0.9470215,0.062561035
1725700493582,2024-09-07T09:14:53.582Z,70368,-0.31695557,-0.94000244,0.019104004
1725700493626,2024-09-07T09:14:53.626Z,70412,-0.34094238,-0.949646,0.05609131
1725700493671,2024-09-07T09:14:53.671Z,70457,-0.2897339,-0.9788208,0.005065918
1725700493720,2024-09-07T09:14:53.720Z,70506,-0.2923584,-0.98516846,0.058288574
1725700493762,2024-09-07T09:14:53.762Z,70548,-0.3522339,-1.0349121,0.030029297
1725700493807,2024-09-07T09:14:53.807Z,70593,-0.43255615,-1.0357056,0.078186035
1725700493825,2024-09-07T09:14:53.825Z,70611,-0.45770264,-0.97735596,0.03753662
1725700493851,2024-09-07T09:14:53.851Z,70637,-0.4389038,-0.91986084,0.07366943
1725700493897,2024-09-07T09:14:53.897Z,70683,-0.39312744,-0.9232178,0.06585693
1725700493945,2024-09-07T09:14:53.945Z,70731,-0.37390137,-0.9335327,0.04888916
1725700493987,2024-09-07T09:14:53.987Z,70773,-0.33917236,-0.9332886,0.040893555
1725700494033,2024-09-07T09:14:54.033Z,70819,-0.33416748,-0.93634033,0.05114746
1725700494078,2024-09-07T09:14:54.078Z,70864,-0.3564453,-0.96118164,0.085632324
1725700494123,2024-09-07T09:14:54.123Z,70909,-0.39331055,-0.9810791,0.10632324
1725700494169,2024-09-07T09:14:54.169Z,70955,-0.38354492,-0.9887085,0.103881836
1725700494215,2024-09-07T09:14:54.215Z,71001,-0.37579346,-0.9666748,0.11651611
1725700494241,2024-09-07T09:14:54.241Z,71027,-0.35827637,-0.9834595,0.074035645
1725700494262,2024-09-07T09:14:54.262Z,71048,-0.33929443,-0.96868896,0.07196045
1725700494301,2024-09-07T09:14:54.301Z,71087,-0.34558105,-0.97998047,0.05444336
1725700494348,2024-09-07T09:14:54.348Z,71134,-0.3600464,-0.97979736,0.074401855
1725700494392,2024-09-07T09:14:54.392Z,71178,-0.33398438,-0.97125244,0.06188965
1725700494439,2024-09-07T09:14:54.439Z,71225,-0.33850098,-0.9603882,0.08300781
1725700494483,2024-09-07T09:14:54.483Z,71269,-0.32537842,-0.9637451,0.06524658
1725700494526,2024-09-07T09:14:54.526Z,71312,-0.31207275,-0.96069336,0.07293701
1725700494575,2024-09-07T09:14:54.575Z,71361,-0.31195068,-0.9801636,0.054382324
1725700494620,2024-09-07T09:14:54.620Z,71406,-0.3151245,-0.98254395,0.066467285
1725700494665,2024-09-07T09:14:54.665Z,71451,-0.2925415,-0.98895264,0.038879395
1725700494690,2024-09-07T09:14:54.690Z,71476,-0.31347656,-0.99920654,0.06542969
1725700494711,2024-09-07T09:14:54.711Z,71497,-0.32647705,-1.0213013,0.09490967
1725700494751,2024-09-07T09:14:54.751Z,71537,-0.3062744,-1.0352783,0.085754395
1725700494796,2024-09-07T09:14:54.796Z,71582,-0.32147217,-1.0582886,0.10455322
1725700494842,2024-09-07T09:14:54.842Z,71628,-0.2994995,-1.0880737,0.078308105
1725700494889,2024-09-07T09:14:54.889Z,71675,-0.35333252,-1.1323853,0.12524414
1725700494937,2024-09-07T09:14:54.937Z,71723,-0.35284424,-1.1824951,0.14776611
1725700494978,2024-09-07T09:14:54.978Z,71764,-0.36419678,-1.1680298,0.16625977
1725700495021,2024-09-07T09:14:55.021Z,71807,-0.33306885,-1.1522217,0.14697266
1725700495067,2024-09-07T09:14:55.067Z,71853,-0.33306885,-1.1538086,0.13140869
1725700495089,2024-09-07T09:14:55.089Z,71875,-0.30786133,-1.1305542,0.123168945
1725700495107,2024-09-07T09:14:55.107Z,71893,-0.28997803,-1.09375,0.14898682
1725700495156,2024-09-07T09:14:55.156Z,71942,-0.24090576,-1.039978,0.13555908
1725700495203,2024-09-07T09:14:55.203Z,71989,-0.24005127,-1.0002441,0.13598633
1725700495253,2024-09-07T09:14:55.253Z,72039,-0.24041748,-0.9882202,0.12713623
1725700495296,2024-09-07T09:14:55.296Z,72082,-0.26208496,-0.9727783,0.11114502
1725700495340,2024-09-07T09:14:55.340Z,72126,-0.26226807,-0.958374,0.080322266
1725700495383,2024-09-07T09:14:55.383Z,72169,-0.26513672,-0.9673462,0.05218506
1725700495426,2024-09-07T09:14:55.426Z,72212,-0.32263184,-0.991333,0.07196045
1725700495476,2024-09-07T09:14:55.476Z,72262,-0.3404541,-0.972229,0.064208984
1725700495500,2024-09-07T09:14:55.500Z,72286,-0.3164673,-0.9381714,0.01171875
1725700495523,2024-09-07T09:14:55.523Z,72309,-0.3581543,-0.91973877,0.044555664
1725700495561,2024-09-07T09:14:55.561Z,72347,-0.36462402,-0.8989868,0.009094238
1725700495607,2024-09-07T09:14:55.607Z,72393,-0.31237793,-0.83477783,0.0028076172
1725700495654,2024-09-07T09:14:55.654Z,72440,-0.3519287,-0.8149414,-0.016174316
1725700495700,2024-09-07T09:14:55.700Z,72486,-0.33312988,-0.78027344,-0.0043945312
1725700495744,2024-09-07T09:14:55.744Z,72530,-0.3046875,-0.7441406,-0.016296387
1725700495789,2024-09-07T09:14:55.789Z,72575,-0.321167,-0.71655273,-0.024475098
1725700495832,2024-09-07T09:14:55.832Z,72618,-0.2947998,-0.6984863,-0.014099121
1725700495878,2024-09-07T09:14:55.878Z,72664,-0.2962036,-0.6703491,0.018310547
1725700495922,2024-09-07T09:14:55.922Z,72708,-0.28686523,-0.6538696,-9.765625E-4
1725700495944,2024-09-07T09:14:55.944Z,72730,-0.29864502,-0.6381836,-0.008666992
1725700495962,2024-09-07T09:14:55.962Z,72748,-0.31018066,-0.675354,-0.032409668
1725700496010,2024-09-07T09:14:56.010Z,72796,-0.3725586,-0.7474365,-0.022460938
1725700496064,2024-09-07T09:14:56.064Z,72850,-0.44470215,-0.8451538,-0.045532227
1725700496103,2024-09-07T09:14:56.103Z,72889,-0.52020264,-0.89886475,-0.01928711
1725700496147,2024-09-07T09:14:56.147Z,72933,-0.5194092,-0.88861084,-0.021606445
1725700496192,2024-09-07T09:14:56.192Z,72978,-0.5201416,-0.8731079,-0.02178955
1725700496238,2024-09-07T09:14:56.238Z,73024,-0.53778076,-0.8763428,-0.06274414
1725700496284,2024-09-07T09:14:56.284Z,73070,-0.51257324,-0.8656006,-0.054138184
1725700496328,2024-09-07T09:14:56.328Z,73114,-0.47088623,-0.85809326,-0.0289917
1725700496351,2024-09-07T09:14:56.351Z,73137,-0.45513916,-0.84716797,-0.0119018555
1725700496373,2024-09-07T09:14:56.373Z,73159,-0.45666504,-0.86187744,-0.034301758
1725700496417,2024-09-07T09:14:56.417Z,73203,-0.4805298,-0.88079834,-0.02557373
1725700496463,2024-09-07T09:14:56.463Z,73249,-0.48944092,-0.90148926,-0.0423584
1725700496508,2024-09-07T09:14:56.508Z,73294,-0.5029297,-0.9161377,-0.030700684
1725700496554,2024-09-07T09:14:56.554Z,73340,-0.49249268,-0.9055176,-0.034057617
1725700496597,2024-09-07T09:14:56.597Z,73383,-0.48742676,-0.8757324,-0.021850586
1725700496642,2024-09-07T09:14:56.642Z,73428,-0.4387207,-0.83636475,-0.0076293945
1725700496689,2024-09-07T09:14:56.689Z,73475,-0.38562012,-0.79815674,0.0015869141
1725700496735,2024-09-07T09:14:56.735Z,73521,-0.38336182,-0.8192749,-0.021118164
1725700496755,2024-09-07T09:14:56.755Z,73541,-0.4107666,-0.85253906,-0.01586914
1725700496777,2024-09-07T09:14:56.777Z,73563,-0.4165039,-0.83428955,-0.002746582
1725700496822,2024-09-07T09:14:56.822Z,73608,-0.3928833,-0.8120117,-0.009399414
1725700496868,2024-09-07T09:14:56.868Z,73654,-0.43151855,-0.8064575,0.0020751953
1725700496913,2024-09-07T09:14:56.913Z,73699,-0.4152832,-0.7956543,0.0022583008
1725700496959,2024-09-07T09:14:56.959Z,73745,-0.4074707,-0.7736206,0.0036010742
1725700497008,2024-09-07T09:14:57.008Z,73794,-0.39746094,-0.7723999,0.01928711
1725700497049,2024-09-07T09:14:57.049Z,73835,-0.3852539,-0.76763916,-0.008544922
1725700497094,2024-09-07T09:14:57.094Z,73880,-0.40509033,-0.7681885,-0.019165039
1725700497141,2024-09-07T09:14:57.141Z,73927,-0.42663574,-0.78723145,-0.029541016
1725700497186,2024-09-07T09:14:57.186Z,73972,-0.40545654,-0.7926636,-0.024414062
1725700497214,2024-09-07T09:14:57.214Z,74000,-0.45056152,-0.8479004,-0.013244629
1725700497239,2024-09-07T09:14:57.239Z,74025,-0.4423828,-0.8699951,-0.003479004
1725700497277,2024-09-07T09:14:57.277Z,74063,-0.3859253,-0.87976074,0.008422852
1725700497317,2024-09-07T09:14:57.317Z,74103,-0.4263916,-0.9038086,0.036071777
1725700497360,2024-09-07T09:14:57.360Z,74146,-0.3743286,-0.9078369,0.025939941
1725700497410,2024-09-07T09:14:57.410Z,74196,-0.37390137,-0.9012451,0.03845215
1725700497456,2024-09-07T09:14:57.456Z,74242,-0.41845703,-0.9030762,6.1035156E-4
1725700497498,2024-09-07T09:14:57.498Z,74284,-0.38513184,-0.8912964,0.014892578
1725700497544,2024-09-07T09:14:57.544Z,74330,-0.41461182,-0.8901367,0.06933594
1725700497588,2024-09-07T09:14:57.588Z,74374,-0.4199829,-0.86242676,0.047302246
1725700497607,2024-09-07T09:14:57.607Z,74393,-0.36010742,-0.84259033,0.0107421875
1725700497631,2024-09-07T09:14:57.631Z,74417,-0.36773682,-0.8345337,-0.0053710938
1725700497676,2024-09-07T09:14:57.676Z,74462,-0.36029053,-0.8640747,-0.04876709
1725700497723,2024-09-07T09:14:57.723Z,74509,-0.37634277,-0.9059448,-0.024291992
1725700497767,2024-09-07T09:14:57.767Z,74553,-0.34423828,-0.9356079,-0.048095703
1725700497862,2024-09-07T09:14:57.862Z,74648,-0.31323242,-0.953125,-0.022033691
1725700497884,2024-09-07T09:14:57.884Z,74670,-0.3363037,-0.99853516,-0.013427734
1725700497907,2024-09-07T09:14:57.907Z,74693,-0.3560791,-1.0412598,0.014831543
1725700497948,2024-09-07T09:14:57.948Z,74734,-0.30548096,-1.0425415,0.081970215
1725700497993,2024-09-07T09:14:57.993Z,74779,-0.25177002,-1.0419922,0.08190918
1725700498014,2024-09-07T09:14:58.014Z,74800,-0.2647705,-1.0783691,0.13690186
1725700498036,2024-09-07T09:14:58.036Z,74822,-0.28930664,-1.1218262,0.11383057
1725700498080,2024-09-07T09:14:58.080Z,74866,-0.30218506,-1.1121216,0.10736084
1725700498128,2024-09-07T09:14:58.128Z,74914,-0.27783203,-1.0964355,0.12988281
1725700498173,2024-09-07T09:14:58.173Z,74959,-0.32733154,-1.0717163,0.13684082
1725700498221,2024-09-07T09:14:58.221Z,75007,-0.31689453,-1.0560913,0.12988281
1725700498265,2024-09-07T09:14:58.265Z,75051,-0.3348999,-1.0335083,0.121154785
1725700498309,2024-09-07T09:14:58.309Z,75095,-0.32159424,-1.0251465,0.12878418
1725700498354,2024-09-07T09:14:58.354Z,75140,-0.30462646,-0.9927368,0.10003662
1725700498400,2024-09-07T09:14:58.400Z,75186,-0.30126953,-0.97802734,0.08679199
1725700498444,2024-09-07T09:14:58.444Z,75230,-0.33666992,-0.9779053,0.101501465
1725700498466,2024-09-07T09:14:58.466Z,75252,-0.37695312,-0.98376465,0.0904541
1725700498486,2024-09-07T09:14:58.486Z,75272,-0.3522339,-0.9684448,0.08001709
1725700498530,2024-09-07T09:14:58.530Z,75316,-0.328125,-0.9663086,0.08331299
1725700498578,2024-09-07T09:14:58.578Z,75364,-0.31939697,-0.9737549,0.09197998
1725700498626,2024-09-07T09:14:58.626Z,75412,-0.3110962,-0.9974365,0.08660889
1725700498668,2024-09-07T09:14:58.668Z,75454,-0.31201172,-1.0319824,0.07739258
1725700498715,2024-09-07T09:14:58.715Z,75501,-0.39770508,-1.0900879,0.09869385
1725700498759,2024-09-07T09:14:58.759Z,75545,-0.3838501,-1.1436768,0.085876465
1725700498802,2024-09-07T09:14:58.802Z,75588,-0.34869385,-1.1466675,0.11114502
1725700498846,2024-09-07T09:14:58.846Z,75632,-0.3008423,-1.1526489,0.12774658
1725700498862,2024-09-07T09:14:58.862Z,75648,-0.3232422,-1.1703491,0.11138916
1725700498890,2024-09-07T09:14:58.890Z,75676,-0.3474121,-1.1949463,0.1628418
1725700498935,2024-09-07T09:14:58.935Z,75721,-0.2999878,-1.1290283,0.14282227
1725700498980,2024-09-07T09:14:58.980Z,75766,-0.24987793,-1.0698853,0.14031982
1725700499027,2024-09-07T09:14:59.027Z,75813,-0.24182129,-1.0303955,0.15698242
1725700499076,2024-09-07T09:14:59.076Z,75862,-0.22839355,-0.99121094,0.17333984
1725700499121,2024-09-07T09:14:59.121Z,75907,-0.22802734,-0.9784546,0.15008545
1725700499162,2024-09-07T09:14:59.162Z,75948,-0.24682617,-0.9802246,0.17059326
1725700499208,2024-09-07T09:14:59.208Z,75994,-0.23077393,-0.9677124,0.13378906
1725700499252,2024-09-07T09:14:59.252Z,76038,-0.22650146,-0.9699707,0.09777832
1725700499276,2024-09-07T09:14:59.276Z,76062,-0.27868652,-0.9888916,0.07269287
1725700499296,2024-09-07T09:14:59.296Z,76082,-0.3083496,-1.008728,0.074645996
1725700499341,2024-09-07T09:14:59.341Z,76127,-0.30969238,-0.9944458,0.06964111
1725700499400,2024-09-07T09:14:59.400Z,76186,-0.3466797,-0.9567261,0.085632324
1725700499437,2024-09-07T09:14:59.437Z,76223,-0.3239746,-0.9060669,0.072387695
1725700499481,2024-09-07T09:14:59.481Z,76267,-0.29229736,-0.8322754,0.05609131
1725700499525,2024-09-07T09:14:59.525Z,76311,-0.34527588,-0.7648926,0.07330322
1725700499569,2024-09-07T09:14:59.569Z,76355,-0.31152344,-0.71899414,0.046020508
1725700499617,2024-09-07T09:14:59.617Z,76403,-0.33666992,-0.6804199,0.024963379
1725700499659,2024-09-07T09:14:59.659Z,76445,-0.31030273,-0.6692505,-0.005554199
1725700499706,2024-09-07T09:14:59.706Z,76492,-0.28497314,-0.6305542,0.0017700195
1725700499730,2024-09-07T09:14:59.730Z,76516,-0.2849121,-0.6138916,-0.019104004
1725700499747,2024-09-07T09:14:59.747Z,76533,-0.27893066,-0.60717773,-0.036010742
1725700499796,2024-09-07T09:14:59.796Z,76582,-0.32720947,-0.6502075,-0.08178711
1725700499837,2024-09-07T09:14:59.837Z,76623,-0.41558838,-0.75476074,-0.058898926
1725700499885,2024-09-07T09:14:59.885Z,76671,-0.47930908,-0.86779785,-0.05230713
1725700499933,2024-09-07T09:14:59.933Z,76719,-0.46051025,-0.89624023,-0.036621094
1725700499973,2024-09-07T09:14:59.973Z,76759,-0.42211914,-0.87945557,-0.051696777
1725700500020,2024-09-07T09:15:00.020Z,76806,-0.4248047,-0.864624,-0.031066895
1725700500065,2024-09-07T09:15:00.065Z,76851,-0.46228027,-0.8965454,-0.040649414
1725700500106,2024-09-07T09:15:00.106Z,76892,-0.48815918,-0.9050293,-0.017578125
1725700500124,2024-09-07T09:15:00.124Z,76910,-0.43389893,-0.9020386,0.008422852
1725700500148,2024-09-07T09:15:00.148Z,76934,-0.41186523,-0.91937256,0.03253174
1725700500201,2024-09-07T09:15:00.201Z,76987,-0.4315796,-0.9394531,0.024353027
1725700500247,2024-09-07T09:15:00.247Z,77033,-0.43121338,-0.93640137,-0.006652832
1725700500291,2024-09-07T09:15:00.291Z,77077,-0.41003418,-0.9147339,-0.005065918
1725700500336,2024-09-07T09:15:00.336Z,77122,-0.42010498,-0.9069214,-0.015197754
1725700500381,2024-09-07T09:15:00.381Z,77167,-0.43151855,-0.9006958,-0.01574707
1725700500424,2024-09-07T09:15:00.424Z,77210,-0.4156494,-0.90008545,-0.018127441
1725700500469,2024-09-07T09:15:00.469Z,77255,-0.41577148,-0.887146,-0.02923584
1725700500516,2024-09-07T09:15:00.516Z,77302,-0.41003418,-0.88031006,-0.03717041
1725700500539,2024-09-07T09:15:00.539Z,77325,-0.41278076,-0.87854004,-0.06274414
1725700500554,2024-09-07T09:15:00.554Z,77340,-0.40576172,-0.85528564,-0.059936523
1725700500603,2024-09-07T09:15:00.603Z,77389,-0.38598633,-0.8308716,-0.03564453
1725700500651,2024-09-07T09:15:00.651Z,77437,-0.40270996,-0.8117676,-0.0390625
1725700500696,2024-09-07T09:15:00.696Z,77482,-0.3805542,-0.7792969,-0.018066406
1725700500739,2024-09-07T09:15:00.739Z,77525,-0.35217285,-0.7553711,-0.024047852
1725700500784,2024-09-07T09:15:00.784Z,77570,-0.38513184,-0.77667236,-0.019104004
1725700500830,2024-09-07T09:15:00.830Z,77616,-0.387146,-0.77978516,-0.016052246
1725700500873,2024-09-07T09:15:00.873Z,77659,-0.33770752,-0.7722168,-0.0021972656
1725700500918,2024-09-07T09:15:00.918Z,77704,-0.41015625,-0.79681396,-0.0025024414
1725700500965,2024-09-07T09:15:00.965Z,77751,-0.3731079,-0.82910156,-0.0073242188
1725700500987,2024-09-07T09:15:00.987Z,77773,-0.4243164,-0.85095215,0.04638672
1725700501008,2024-09-07T09:15:01.008Z,77794,-0.40655518,-0.8548584,0.011413574
1725700501047,2024-09-07T09:15:01.047Z,77833,-0.3460083,-0.8305664,0.0289917
1725700501098,2024-09-07T09:15:01.098Z,77884,-0.3491211,-0.84313965,0.018188477
1725700501143,2024-09-07T09:15:01.143Z,77929,-0.36999512,-0.8682251,0.014709473
1725700501186,2024-09-07T09:15:01.186Z,77972,-0.3955078,-0.8798828,0.07019043
1725700501233,2024-09-07T09:15:01.233Z,78019,-0.3831787,-0.8800049,0.05316162
1725700501277,2024-09-07T09:15:01.277Z,78063,-0.3928833,-0.89056396,0.049804688
1725700501323,2024-09-07T09:15:01.323Z,78109,-0.40338135,-0.8776245,0.061462402
1725700501372,2024-09-07T09:15:01.372Z,78158,-0.35998535,-0.8880615,0.064331055
1725700501394,2024-09-07T09:15:01.394Z,78180,-0.4140625,-0.90515137,0.080444336
1725700501411,2024-09-07T09:15:01.411Z,78197,-0.4229126,-0.8961792,0.03857422
1725700501456,2024-09-07T09:15:01.456Z,78242,-0.4152832,-0.890625,0.036071777
1725700501506,2024-09-07T09:15:01.506Z,78292,-0.39068604,-0.8953247,0.05871582
1725700501551,2024-09-07T09:15:01.551Z,78337,-0.42834473,-0.88323975,0.05316162
1725700501594,2024-09-07T09:15:01.594Z,78380,-0.3779297,-0.8987427,0.072387695
1725700501639,2024-09-07T09:15:01.639Z,78425,-0.34796143,-0.92944336,0.07080078
1725700501685,2024-09-07T09:15:01.685Z,78471,-0.36224365,-0.9432373,0.07940674
1725700501728,2024-09-07T09:15:01.728Z,78514,-0.37384033,-0.96203613,0.078186035
1725700501770,2024-09-07T09:15:01.770Z,78556,-0.46740723,-0.94555664,0.11151123
1725700501789,2024-09-07T09:15:01.789Z,78575,-0.39837646,-0.93756104,0.051452637
1725700501816,2024-09-07T09:15:01.816Z,78602,-0.3597412,-0.9505005,0.062805176
1725700501861,2024-09-07T09:15:01.861Z,78647,-0.39465332,-0.9938965,0.07531738
1725700501907,2024-09-07T09:15:01.907Z,78693,-0.35217285,-1.0584717,0.069885254
1725700501952,2024-09-07T09:15:01.952Z,78738,-0.36743164,-1.0777588,0.10180664
1725700502044,2024-09-07T09:15:02.044Z,78830,-0.3189087,-1.0560303,0.078063965
1725700502065,2024-09-07T09:15:02.065Z,78851,-0.35534668,-1.071106,0.093444824
1725700502087,2024-09-07T09:15:02.087Z,78873,-0.40637207,-1.1122437,0.13012695
1725700502133,2024-09-07T09:15:02.133Z,78919,-0.35577393,-1.0551758,0.07745361
1725700502227,2024-09-07T09:15:02.227Z,79013,-0.31793213,-1.0111694,0.11407471
1725700502248,2024-09-07T09:15:02.248Z,79034,-0.350708,-1.0127563,0.11785889
1725700502268,2024-09-07T09:15:02.268Z,79054,-0.33831787,-0.991333,0.07293701
1725700502312,2024-09-07T09:15:02.312Z,79098,-0.33758545,-0.9735718,0.103027344
1725700502331,2024-09-07T09:15:02.331Z,79117,-0.3574829,-0.94836426,0.06463623
1725700502356,2024-09-07T09:15:02.356Z,79142,-0.36273193,-0.9598999,0.053894043
1725700502404,2024-09-07T09:15:02.404Z,79190,-0.3345337,-0.9376221,0.046142578
1725700502452,2024-09-07T09:15:02.452Z,79238,-0.3001709,-0.92315674,0.020751953
1725700502497,2024-09-07T09:15:02.497Z,79283,-0.35321045,-0.9573364,0.042419434
1725700502538,2024-09-07T09:15:02.538Z,79324,-0.36218262,-0.9812012,0.052612305
1725700502585,2024-09-07T09:15:02.585Z,79371,-0.2949829,-0.97302246,0.041748047
1725700502630,2024-09-07T09:15:02.630Z,79416,-0.29595947,-1.0031738,0.062438965
1725700502651,2024-09-07T09:15:02.651Z,79437,-0.2738037,-1.0377197,0.031066895
1725700502669,2024-09-07T09:15:02.669Z,79455,-0.28033447,-1.0645752,0.039855957
1725700502716,2024-09-07T09:15:02.716Z,79502,-0.31610107,-1.1038818,0.028503418
1725700502762,2024-09-07T09:15:02.762Z,79548,-0.34606934,-1.1305542,0.025817871
1725700502855,2024-09-07T09:15:02.855Z,79641,-0.3447876,-1.1251831,0.055541992
1725700502879,2024-09-07T09:15:02.879Z,79665,-0.31396484,-1.1057739,0.04815674
1725700502901,2024-09-07T09:15:02.901Z,79687,-0.3685913,-1.102417,0.115234375
1725700502943,2024-09-07T09:15:02.943Z,79729,-0.3406372,-1.0935669,0.07446289
1725700502988,2024-09-07T09:15:02.988Z,79774,-0.34802246,-1.0793457,0.11883545
1725700503035,2024-09-07T09:15:03.035Z,79821,-0.27008057,-1.0490112,0.09246826
1725700503054,2024-09-07T09:15:03.054Z,79840,-0.3085327,-1.0487671,0.16015625
1725700503074,2024-09-07T09:15:03.074Z,79860,-0.24127197,-1.0189819,0.12133789
1725700503121,2024-09-07T09:15:03.121Z,79907,-0.26287842,-1.0028687,0.17456055
1725700503170,2024-09-07T09:15:03.170Z,79956,-0.24798584,-0.99438477,0.17181396
1725700503218,2024-09-07T09:15:03.218Z,80004,-0.29968262,-1.0074463,0.18988037
1725700503263,2024-09-07T09:15:03.263Z,80049,-0.23620605,-1.0043335,0.1506958
1725700503302,2024-09-07T09:15:03.302Z,80088,-0.28149414,-1.0178833,0.16497803
1725700503346,2024-09-07T09:15:03.346Z,80132,-0.288208,-1.0172119,0.15808105
1725700503393,2024-09-07T09:15:03.393Z,80179,-0.3100586,-0.9875488,0.15881348
1725700503438,2024-09-07T09:15:03.438Z,80224,-0.35443115,-0.96276855,0.17230225
1725700503481,2024-09-07T09:15:03.481Z,80267,-0.31463623,-0.939209,0.16748047
1725700503496,2024-09-07T09:15:03.496Z,80282,-0.32891846,-0.8903198,0.16534424
1725700503523,2024-09-07T09:15:03.523Z,80309,-0.29193115,-0.82354736,0.10272217
1725700503574,2024-09-07T09:15:03.574Z,80360,-0.31048584,-0.76898193,0.100097656
1725700503621,2024-09-07T09:15:03.621Z,80407,-0.3303833,-0.7200928,0.06225586
1725700503665,2024-09-07T09:15:03.665Z,80451,-0.28582764,-0.66516113,0.041992188
1725700503711,2024-09-07T09:15:03.711Z,80497,-0.29187012,-0.63848877,0.013305664
1725700503755,2024-09-07T09:15:03.755Z,80541,-0.26733398,-0.6210327,0.004272461
1725700503799,2024-09-07T09:15:03.799Z,80585,-0.2826538,-0.602478,3.0517578E-4
1725700503842,2024-09-07T09:15:03.842Z,80628,-0.2489624,-0.59191895,-0.024536133
1725700503890,2024-09-07T09:15:03.890Z,80676,-0.2835083,-0.67059326,-0.049194336
1725700503913,2024-09-07T09:15:03.913Z,80699,-0.44476318,-0.82769775,-0.046142578
1725700503930,2024-09-07T09:15:03.930Z,80716,-0.44104004,-0.913147,-0.03375244
1725700503973,2024-09-07T09:15:03.973Z,80759,-0.4345703,-0.9193115,-0.015319824
1725700504025,2024-09-07T09:15:04.025Z,80811,-0.4187622,-0.8892822,-0.030029297
1725700504070,2024-09-07T09:15:04.070Z,80856,-0.4706421,-0.8691406,-0.012329102
1725700504113,2024-09-07T09:15:04.113Z,80899,-0.5091553,-0.88256836,-0.05999756
1725700504160,2024-09-07T09:15:04.160Z,80946,-0.45544434,-0.8922119,-0.020202637
1725700504205,2024-09-07T09:15:04.205Z,80991,-0.41937256,-0.90460205,0.022216797
1725700504251,2024-09-07T09:15:04.251Z,81037,-0.41467285,-0.90130615,0.008361816
1725700504296,2024-09-07T09:15:04.296Z,81082,-0.43518066,-0.9015503,-0.01586914
1725700504318,2024-09-07T09:15:04.318Z,81104,-0.449646,-0.8880615,-0.03894043
1725700504334,2024-09-07T09:15:04.334Z,81120,-0.4395752,-0.883667,-0.02734375
1725700504381,2024-09-07T09:15:04.381Z,81167,-0.43841553,-0.8953247,-0.029174805
1725700504427,2024-09-07T09:15:04.427Z,81213,-0.4454956,-0.9061279,-0.024047852
1725700504474,2024-09-07T09:15:04.474Z,81260,-0.4725952,-0.90771484,-0.0051879883
1725700504518,2024-09-07T09:15:04.518Z,81304,-0.45013428,-0.8876343,-0.01965332
1725700504566,2024-09-07T09:15:04.566Z,81352,-0.40081787,-0.86846924,-0.02331543
1725700504608,2024-09-07T09:15:04.608Z,81394,-0.42486572,-0.8453369,6.1035156E-4
1725700504654,2024-09-07T09:15:04.654Z,81440,-0.38372803,-0.79919434,-0.010803223
1725700504698,2024-09-07T09:15:04.698Z,81484,-0.35638428,-0.755249,0.0068359375
1725700504717,2024-09-07T09:15:04.717Z,81503,-0.36999512,-0.7536011,0.0099487305
1725700504737,2024-09-07T09:15:04.737Z,81523,-0.35601807,-0.7655029,0.011657715
1725700504784,2024-09-07T09:15:04.784Z,81570,-0.35546875,-0.7895508,0.046447754
1725700504834,2024-09-07T09:15:04.834Z,81620,-0.348938,-0.79260254,0.026977539
1725700504881,2024-09-07T09:15:04.881Z,81667,-0.32714844,-0.80010986,0.010070801
1725700504924,2024-09-07T09:15:04.924Z,81710,-0.39923096,-0.8411255,-0.012145996
1725700504967,2024-09-07T09:15:04.967Z,81753,-0.3630371,-0.836853,-0.0048217773
1725700505011,2024-09-07T09:15:05.011Z,81797,-0.3484497,-0.8302002,0.038635254
1725700505061,2024-09-07T09:15:05.061Z,81847,-0.3805542,-0.8394165,0.020446777
1725700505104,2024-09-07T09:15:05.104Z,81890,-0.31488037,-0.8196411,0.022949219
1725700505150,2024-09-07T09:15:05.150Z,81936,-0.29638672,-0.80029297,0.0211792
1725700505172,2024-09-07T09:15:05.172Z,81958,-0.38549805,-0.84680176,0.018005371
1725700505194,2024-09-07T09:15:05.194Z,81980,-0.40197754,-0.8737793,0.035888672
1725700505238,2024-09-07T09:15:05.238Z,82024,-0.34545898,-0.84814453,0.06500244
1725700505284,2024-09-07T09:15:05.284Z,82070,-0.37390137,-0.87597656,0.046447754
1725700505328,2024-09-07T09:15:05.328Z,82114,-0.40307617,-0.92266846,0.057617188
1725700505418,2024-09-07T09:15:05.418Z,82204,-0.33477783,-0.94329834,0.03552246
1725700505443,2024-09-07T09:15:05.443Z,82229,-0.35302734,-0.95269775,0.03253174
1725700505463,2024-09-07T09:15:05.463Z,82249,-0.29003906,-0.96624756,0.014221191
1725700505507,2024-09-07T09:15:05.507Z,82293,-0.32434082,-0.98168945,0.08068848
1725700505601,2024-09-07T09:15:05.601Z,82387,-0.36346436,-0.98010254,0.084350586
1725700505622,2024-09-07T09:15:05.622Z,82408,-0.3602295,-0.95648193,0.0791626
1725700505637,2024-09-07T09:15:05.637Z,82423,-0.2935791,-0.9328003,0.09020996
1725700505649,2024-09-07T09:15:05.649Z,82435,-0.27001953,-0.9342041,0.0713501
1725700505686,2024-09-07T09:15:05.686Z,82472,-0.27294922,-0.9578247,0.053771973
1725700505731,2024-09-07T09:15:05.731Z,82517,-0.27215576,-1.0203247,0.06451416
1725700505778,2024-09-07T09:15:05.778Z,82564,-0.34539795,-1.0754395,0.13562012
1725700505824,2024-09-07T09:15:05.824Z,82610,-0.33190918,-1.0650635,0.13671875
1725700505872,2024-09-07T09:15:05.872Z,82658,-0.27191162,-1.0437012,0.16107178
1725700505916,2024-09-07T09:15:05.916Z,82702,-0.25842285,-1.0526733,0.14282227
1725700505961,2024-09-07T09:15:05.961Z,82747,-0.2623291,-1.071167,0.14312744
1725700505984,2024-09-07T09:15:05.984Z,82770,-0.31988525,-1.1000977,0.16729736
1725700506008,2024-09-07T09:15:06.008Z,82794,-0.3112793,-1.085022,0.099487305
1725700506047,2024-09-07T09:15:06.047Z,82833,-0.26898193,-1.0427856,0.09124756
1725700506096,2024-09-07T09:15:06.096Z,82882,-0.2652588,-1.0298462,0.12322998
1725700506139,2024-09-07T09:15:06.139Z,82925,-0.2675171,-1.0162964,0.1171875
1725700506183,2024-09-07T09:15:06.183Z,82969,-0.25427246,-1.0162964,0.1071167
1725700506228,2024-09-07T09:15:06.228Z,83014,-0.24407959,-1.0222778,0.0925293
1725700506273,2024-09-07T09:15:06.273Z,83059,-0.24353027,-1.0200195,0.062927246
1725700506317,2024-09-07T09:15:06.317Z,83103,-0.24865723,-1.0186768,0.057800293
1725700506366,2024-09-07T09:15:06.366Z,83152,-0.25335693,-1.0252686,0.05090332
1725700506408,2024-09-07T09:15:06.408Z,83194,-0.27868652,-1.0049438,0.08892822
1725700506430,2024-09-07T09:15:06.430Z,83216,-0.24597168,-0.98669434,0.07348633
1725700506451,2024-09-07T09:15:06.451Z,83237,-0.22930908,-0.97650146,0.0647583
1725700506498,2024-09-07T09:15:06.498Z,83284,-0.2374878,-0.9888916,0.033935547
1725700506543,2024-09-07T09:15:06.543Z,83329,-0.253479,-1.0261841,0.11419678
1725700506587,2024-09-07T09:15:06.587Z,83373,-0.23388672,-1.091919,0.052856445
1725700506634,2024-09-07T09:15:06.634Z,83420,-0.31329346,-1.1704102,0.10998535
1725700506680,2024-09-07T09:15:06.680Z,83466,-0.3095703,-1.1921387,0.093444824
1725700506722,2024-09-07T09:15:06.722Z,83508,-0.28375244,-1.1610718,0.105895996
1725700506769,2024-09-07T09:15:06.769Z,83555,-0.23522949,-1.125,0.11419678
1725700506810,2024-09-07T09:15:06.810Z,83596,-0.2177124,-1.1181641,0.14074707
1725700506829,2024-09-07T09:15:06.829Z,83615,-0.20428467,-1.1177979,0.109802246
1725700506857,2024-09-07T09:15:06.857Z,83643,-0.2133789,-1.1345825,0.15551758
1725700506904,2024-09-07T09:15:06.904Z,83690,-0.14111328,-1.1063232,0.09527588
1725700506949,2024-09-07T09:15:06.949Z,83735,-0.2029419,-1.0714722,0.14227295
1725700506995,2024-09-07T09:15:06.995Z,83781,-0.13195801,-1.0324707,0.12213135
1725700507038,2024-09-07T09:15:07.038Z,83824,-0.14874268,-0.98773193,0.13208008
1725700507082,2024-09-07T09:15:07.082Z,83868,-0.16339111,-0.98168945,0.13543701
1725700507128,2024-09-07T09:15:07.128Z,83914,-0.18225098,-0.99005127,0.14953613
1725700507174,2024-09-07T09:15:07.174Z,83960,-0.18640137,-0.9786377,0.1395874
1725700507218,2024-09-07T09:15:07.218Z,84004,-0.1449585,-0.9734497,0.08111572
1725700507238,2024-09-07T09:15:07.238Z,84024,-0.2468872,-0.99780273,0.11883545
1725700507262,2024-09-07T09:15:07.262Z,84048,-0.28076172,-1.0241089,0.070617676
1725700507306,2024-09-07T09:15:07.306Z,84092,-0.31628418,-1.0338135,0.1081543
1725700507353,2024-09-07T09:15:07.353Z,84139,-0.25836182,-0.98651123,0.08502197
1725700507402,2024-09-07T09:15:07.402Z,84188,-0.25878906,-0.9286499,0.14764404
1725700507444,2024-09-07T09:15:07.444Z,84230,-0.29296875,-0.9069214,0.14508057
1725700507488,2024-09-07T09:15:07.488Z,84274,-0.30767822,-0.8293457,0.13720703
1725700507535,2024-09-07T09:15:07.535Z,84321,-0.28100586,-0.7203369,0.137146
1725700507583,2024-09-07T09:15:07.583Z,84369,-0.22497559,-0.6154175,0.07574463
1725700507621,2024-09-07T09:15:07.621Z,84407,-0.20941162,-0.50335693,0.03717041
1725700507669,2024-09-07T09:15:07.669Z,84455,-0.20690918,-0.43725586,-0.005432129
1725700507692,2024-09-07T09:15:07.692Z,84478,-0.2218628,-0.47375488,-6.713867E-4
1725700507712,2024-09-07T09:15:07.712Z,84498,-0.35266113,-0.6147461,-0.04095459
1725700507758,2024-09-07T09:15:07.758Z,84544,-0.5195923,-0.79248047,-0.016418457
1725700507803,2024-09-07T09:15:07.803Z,84589,-0.5700073,-0.89141846,-0.029663086
1725700507847,2024-09-07T09:15:07.847Z,84633,-0.53582764,-0.8922119,-0.030456543
1725700507893,2024-09-07T09:15:07.893Z,84679,-0.5102539,-0.8632202,-0.07159424
1725700507939,2024-09-07T09:15:07.939Z,84725,-0.5393677,-0.864624,-0.101989746
1725700507985,2024-09-07T09:15:07.985Z,84771,-0.57318115,-0.86291504,-0.07409668
1725700508029,2024-09-07T09:15:08.029Z,84815,-0.5518799,-0.8553467,-0.02545166
1725700508079,2024-09-07T09:15:08.079Z,84865,-0.491333,-0.84521484,-0.0126953125
1725700508102,2024-09-07T09:15:08.102Z,84888,-0.4841919,-0.8377075,-0.004638672
1725700508123,2024-09-07T09:15:08.123Z,84909,-0.4708252,-0.82421875,-0.03692627
1725700508161,2024-09-07T09:15:08.161Z,84947,-0.49053955,-0.8258667,-0.053771973
1725700508207,2024-09-07T09:15:08.207Z,84993,-0.52142334,-0.85565186,-0.07366943
1725700508252,2024-09-07T09:15:08.252Z,85038,-0.52142334,-0.8737793,-0.06713867
1725700508299,2024-09-07T09:15:08.299Z,85085,-0.48693848,-0.8746338,-0.030334473
1725700508344,2024-09-07T09:15:08.344Z,85130,-0.48284912,-0.87597656,-0.014221191
1725700508389,2024-09-07T09:15:08.389Z,85175,-0.43621826,-0.88342285,-0.04675293
1725700508435,2024-09-07T09:15:08.435Z,85221,-0.46728516,-0.8859863,0.0061035156
1725700508479,2024-09-07T09:15:08.479Z,85265,-0.4663086,-0.89611816,-0.004272461
1725700508504,2024-09-07T09:15:08.504Z,85290,-0.4215088,-0.8812866,-6.713867E-4
1725700508520,2024-09-07T09:15:08.520Z,85306,-0.39691162,-0.85723877,-0.016296387
1725700508572,2024-09-07T09:15:08.572Z,85358,-0.44732666,-0.8180542,-0.014282227
1725700508611,2024-09-07T09:15:08.611Z,85397,-0.42358398,-0.7579346,0.013122559
1725700508657,2024-09-07T09:15:08.657Z,85443,-0.44067383,-0.71051025,0.0067749023
1725700508703,2024-09-07T09:15:08.703Z,85489,-0.40264893,-0.6879883,0.015563965
1725700508746,2024-09-07T09:15:08.746Z,85532,-0.3914795,-0.68182373,0.009155273
1725700508792,2024-09-07T09:15:08.792Z,85578,-0.46868896,-0.7081299,0.028259277
1725700508839,2024-09-07T09:15:08.839Z,85625,-0.39398193,-0.7067261,-0.016479492
1725700508884,2024-09-07T09:15:08.884Z,85670,-0.5102539,-0.7210083,-0.014770508
1725700508928,2024-09-07T09:15:08.928Z,85714,-0.5076294,-0.75286865,-0.032958984
1725700508949,2024-09-07T09:15:08.949Z,85735,-0.44573975,-0.736145,0.032958984
1725700508972,2024-09-07T09:15:08.972Z,85758,-0.43951416,-0.74768066,0.10736084
1725700509017,2024-09-07T09:15:09.017Z,85803,-0.46374512,-0.80737305,0.12585449
1725700509063,2024-09-07T09:15:09.063Z,85849,-0.49542236,-0.8440552,0.1461792
1725700509108,2024-09-07T09:15:09.108Z,85894,-0.50097656,-0.852417,0.119262695
1725700509153,2024-09-07T09:15:09.153Z,85939,-0.48986816,-0.86602783,0.09887695
1725700509199,2024-09-07T09:15:09.199Z,85985,-0.46759033,-0.8720703,0.09655762
1725700509247,2024-09-07T09:15:09.247Z,86033,-0.4041748,-0.88916016,0.14880371
1725700509289,2024-09-07T09:15:09.289Z,86075,-0.40179443,-0.9169922,0.18237305
1725700509335,2024-09-07T09:15:09.335Z,86121,-0.4088745,-0.94073486,0.20526123
1725700509366,2024-09-07T09:15:09.366Z,86152,-0.37982178,-0.90496826,0.22875977
1725700509392,2024-09-07T09:15:09.392Z,86178,-0.3416748,-0.87091064,0.16809082
1725700509422,2024-09-07T09:15:09.422Z,86208,-0.36505127,-0.92889404,0.20733643
1725700509471,2024-09-07T09:15:09.471Z,86257,-0.3572998,-0.9533081,0.21447754
1725700509512,2024-09-07T09:15:09.512Z,86298,-0.38153076,-0.9793701,0.24304199
1725700509560,2024-09-07T09:15:09.560Z,86346,-0.36901855,-1.0046997,0.19122314
1725700509607,2024-09-07T09:15:09.607Z,86393,-0.34484863,-1.0303955,0.14733887
1725700509648,2024-09-07T09:15:09.648Z,86434,-0.38446045,-1.0067139,0.16583252
1725700509694,2024-09-07T09:15:09.694Z,86480,-0.27459717,-0.97753906,0.14666748
1725700509743,2024-09-07T09:15:09.743Z,86529,-0.33068848,-0.9758911,0.22143555
1725700509769,2024-09-07T09:15:09.769Z,86555,-0.28668213,-0.9945679,0.17340088
1725700509791,2024-09-07T09:15:09.791Z,86577,-0.26275635,-0.99450684,0.18609619
1725700509826,2024-09-07T09:15:09.826Z,86612,-0.30249023,-1.0137329,0.21813965
1725700509873,2024-09-07T09:15:09.873Z,86659,-0.2444458,-1.0012817,0.15582275
1725700509919,2024-09-07T09:15:09.919Z,86705,-0.24578857,-1.0070801,0.14160156
1725700509963,2024-09-07T09:15:09.963Z,86749,-0.29016113,-1.0532837,0.15704346
1725700510009,2024-09-07T09:15:10.009Z,86795,-0.27960205,-1.0584106,0.13018799
1725700510054,2024-09-07T09:15:10.054Z,86840,-0.2387085,-1.0671997,0.099487305
1725700510097,2024-09-07T09:15:10.097Z,86883,-0.22583008,-1.06073,0.115356445
1725700510145,2024-09-07T09:15:10.145Z,86931,-0.22796631,-1.0811768,0.14355469
1725700510189,2024-09-07T09:15:10.189Z,86975,-0.26245117,-1.0900879,0.16394043
1725700510212,2024-09-07T09:15:10.212Z,86998,-0.22833252,-1.0762329,0.08972168
1725700510233,2024-09-07T09:15:10.233Z,87019,-0.28112793,-1.0283203,0.13000488
1725700510277,2024-09-07T09:15:10.277Z,87063,-0.25341797,-0.9616089,0.10461426
1725700510326,2024-09-07T09:15:10.326Z,87112,-0.25463867,-0.94104004,0.12963867
1725700510366,2024-09-07T09:15:10.366Z,87152,-0.2626953,-0.9266968,0.16662598
1725700510411,2024-09-07T09:15:10.411Z,87197,-0.22161865,-0.9276123,0.15240479
1725700510459,2024-09-07T09:15:10.459Z,87245,-0.25958252,-0.9257202,0.1975708
1725700510502,2024-09-07T09:15:10.502Z,87288,-0.24072266,-0.9365845,0.1951294
1725700510550,2024-09-07T09:15:10.550Z,87336,-0.2722168,-0.9489746,0.20996094
1725700510592,2024-09-07T09:15:10.592Z,87378,-0.26794434,-0.9689331,0.18981934
1725700510612,2024-09-07T09:15:10.612Z,87398,-0.33966064,-1.013977,0.21350098
1725700510636,2024-09-07T09:15:10.636Z,87422,-0.37268066,-1.0496216,0.22906494
1725700510681,2024-09-07T09:15:10.681Z,87467,-0.3279419,-1.0499878,0.21643066
1725700510727,2024-09-07T09:15:10.727Z,87513,-0.29223633,-1.0536499,0.25390625
1725700510773,2024-09-07T09:15:10.773Z,87559,-0.24902344,-1.0639648,0.30566406
1725700510817,2024-09-07T09:15:10.817Z,87603,-0.18792725,-1.0463257,0.2808838
1725700510862,2024-09-07T09:15:10.862Z,87648,-0.18334961,-1.0620117,0.3513794
1725700510909,2024-09-07T09:15:10.909Z,87695,-0.120788574,-1.0670776,0.3218994
1725700510953,2024-09-07T09:15:10.953Z,87739,-0.15618896,-1.0877075,0.35583496
1725700511000,2024-09-07T09:15:11Z,87786,-0.15930176,-1.083313,0.38702393
1725700511023,2024-09-07T09:15:11.023Z,87809,-0.14874268,-1.0494995,0.33813477
1725700511039,2024-09-07T09:15:11.039Z,87825,-0.1237793,-1.019165,0.35247803
1725700511087,2024-09-07T09:15:11.087Z,87873,-0.101623535,-0.9748535,0.31292725
1725700511132,2024-09-07T09:15:11.132Z,87918,-0.072753906,-0.97021484,0.31097412
1725700511179,2024-09-07T09:15:11.179Z,87965,-0.11340332,-0.994751,0.3348999
1725700511221,2024-09-07T09:15:11.221Z,88007,-0.14050293,-1.0250854,0.32855225
1725700511269,2024-09-07T09:15:11.269Z,88055,-0.12921143,-1.0072021,0.31433105
1725700511314,2024-09-07T09:15:11.314Z,88100,-0.11999512,-0.9761963,0.2662964
1725700511360,2024-09-07T09:15:11.360Z,88146,-0.14868164,-0.9849243,0.24884033
1725700511404,2024-09-07T09:15:11.404Z,88190,-0.20776367,-1.0037842,0.2489624
1725700511448,2024-09-07T09:15:11.448Z,88234,-0.22833252,-1.012085,0.2121582
1725700511468,2024-09-07T09:15:11.468Z,88254,-0.26660156,-0.98931885,0.2119751
1725700511492,2024-09-07T09:15:11.492Z,88278,-0.29431152,-0.91760254,0.17785645
1725700511539,2024-09-07T09:15:11.539Z,88325,-0.26068115,-0.8372803,0.16192627
1725700511582,2024-09-07T09:15:11.582Z,88368,-0.2553711,-0.7581177,0.15301514
1725700511630,2024-09-07T09:15:11.630Z,88416,-0.24151611,-0.6433716,0.13616943
1725700511674,2024-09-07T09:15:11.674Z,88460,-0.18865967,-0.53430176,0.103637695
1725700511762,2024-09-07T09:15:11.762Z,88548,-0.20739746,-0.49084473,0.08148193
1725700511783,2024-09-07T09:15:11.783Z,88569,-0.15637207,-0.5154419,0.0715332
1725700511807,2024-09-07T09:15:11.807Z,88593,-0.26452637,-0.631897,0.050720215
1725700511853,2024-09-07T09:15:11.853Z,88639,-0.37976074,-0.78253174,0.017822266
1725700511871,2024-09-07T09:15:11.871Z,88657,-0.41082764,-0.8695679,0.03857422
1725700511897,2024-09-07T09:15:11.897Z,88683,-0.41986084,-0.88171387,0.08319092
1725700511942,2024-09-07T09:15:11.942Z,88728,-0.31970215,-0.87005615,0.06488037
1725700511992,2024-09-07T09:15:11.992Z,88778,-0.3527832,-0.8484497,0.0881958
1725700512032,2024-09-07T09:15:12.032Z,88818,-0.41088867,-0.88690186,0.06890869
1725700512081,2024-09-07T09:15:12.081Z,88867,-0.47973633,-0.91778564,0.08001709
1725700512126,2024-09-07T09:15:12.126Z,88912,-0.4296875,-0.9092407,0.08343506
1725700512166,2024-09-07T09:15:12.166Z,88952,-0.40820312,-0.89782715,0.09106445
1725700512213,2024-09-07T09:15:12.213Z,88999,-0.38745117,-0.907959,0.073791504
1725700512253,2024-09-07T09:15:12.253Z,89039,-0.40942383,-0.9301758,0.09197998
1725700512264,2024-09-07T09:15:12.264Z,89050,-0.42474365,-0.91729736,0.07879639
1725700512297,2024-09-07T09:15:12.297Z,89083,-0.41485596,-0.90911865,0.06298828
1725700512343,2024-09-07T09:15:12.343Z,89129,-0.41271973,-0.8931885,0.0871582
1725700512388,2024-09-07T09:15:12.388Z,89174,-0.414917,-0.89624023,0.09423828
