Timestamp (ms),ISO DateTime,Elapsed Time (ms),Acceleration X,Acceleration Y,Acceleration Z
1725700595010,2024-09-07T09:16:35.010Z,75608,-0.42340088,-0.75860596,-0.05517578
1725700595052,2024-09-07T09:16:35.052Z,75650,-0.4505005,-0.7520752,-0.043640137
1725700595100,2024-09-07T09:16:35.100Z,75698,-0.4467163,-0.75701904,-0.039978027
1725700595142,2024-09-07T09:16:35.142Z,75740,-0.42156982,-0.7538452,-0.06085205
1725700595151,2024-09-07T09:16:35.151Z,75749,-0.43273926,-0.7815552,-0.043701172
1725700595187,2024-09-07T09:16:35.187Z,75785,-0.45129395,-0.82592773,-0.041870117
1725700595232,2024-09-07T09:16:35.232Z,75830,-0.38824463,-0.8156738,-0.04333496
1725700595287,2024-09-07T09:16:35.287Z,75885,-0.40515137,-0.79937744,-0.05682373
1725700595329,2024-09-07T09:16:35.329Z,75927,-0.4263916,-0.8321533,-0.069885254
1725700595372,2024-09-07T09:16:35.372Z,75970,-0.44433594,-0.80926514,-0.053955078
1725700595418,2024-09-07T09:16:35.418Z,76016,-0.41467285,-0.7798462,-0.036071777
1725700595464,2024-09-07T09:16:35.464Z,76062,-0.43774414,-0.8463135,-0.044128418
1725700595513,2024-09-07T09:16:35.513Z,76111,-0.46069336,-0.8838501,0.042663574
1725700595554,2024-09-07T09:16:35.554Z,76152,-0.44177246,-0.8604126,0.07470703
1725700595599,2024-09-07T09:16:35.599Z,76197,-0.4189453,-0.8652344,0.02923584
1725700595624,2024-09-07T09:16:35.624Z,76222,-0.4909668,-0.8878784,1.8310547E-4
1725700595647,2024-09-07T09:16:35.647Z,76245,-0.53515625,-0.9158325,-0.054870605
1725700595686,2024-09-07T09:16:35.686Z,76284,-0.55462646,-0.8829346,-0.028808594
1725700595783,2024-09-07T09:16:35.783Z,76381,-0.55670166,-0.85876465,-0.048706055
1725700595812,2024-09-07T09:16:35.812Z,76410,-0.5155029,-0.86083984,-0.061645508
1725700595838,2024-09-07T09:16:35.838Z,76436,-0.44781494,-0.86779785,-0.037902832
1725700595879,2024-09-07T09:16:35.879Z,76477,-0.4661255,-0.8981323,-0.056762695
1725700595960,2024-09-07T09:16:35.960Z,76558,-0.45837402,-0.90948486,-0.046081543
1725700595981,2024-09-07T09:16:35.981Z,76579,-0.4570923,-0.91064453,-0.06341553
1725700596004,2024-09-07T09:16:36.004Z,76602,-0.4407959,-0.9086914,-0.083740234
1725700596022,2024-09-07T09:16:36.022Z,76620,-0.42181396,-0.92437744,-0.13800049
1725700596046,2024-09-07T09:16:36.046Z,76644,-0.57006836,-0.9439697,-0.08917236
1725700596092,2024-09-07T09:16:36.092Z,76690,-0.52160645,-0.9625244,-0.101379395
1725700596137,2024-09-07T09:16:36.137Z,76735,-0.51538086,-0.93048096,-0.09362793
1725700596185,2024-09-07T09:16:36.185Z,76783,-0.46569824,-0.9254761,-0.06536865
1725700596229,2024-09-07T09:16:36.229Z,76827,-0.48565674,-0.9421387,-0.049194336
1725700596275,2024-09-07T09:16:36.275Z,76873,-0.50372314,-0.94104004,-0.041870117
1725700596320,2024-09-07T09:16:36.320Z,76918,-0.49267578,-0.92071533,-0.033813477
1725700596364,2024-09-07T09:16:36.364Z,76962,-0.53186035,-0.9187012,0.0032958984
1725700596407,2024-09-07T09:16:36.407Z,77005,-0.51397705,-0.9194336,0.014038086
1725700596429,2024-09-07T09:16:36.429Z,77027,-0.5166626,-0.90667725,0.010986328
1725700596450,2024-09-07T09:16:36.450Z,77048,-0.47650146,-0.8931885,0.0076293945
1725700596497,2024-09-07T09:16:36.497Z,77095,-0.48535156,-0.89190674,0.0087890625
1725700596545,2024-09-07T09:16:36.545Z,77143,-0.4564209,-0.9031372,-0.0059814453
1725700596587,2024-09-07T09:16:36.587Z,77185,-0.46014404,-0.89764404,0.022216797
1725700596635,2024-09-07T09:16:36.635Z,77233,-0.44525146,-0.9175415,0.014160156
1725700596678,2024-09-07T09:16:36.678Z,77276,-0.4666748,-0.9450073,0.003479004
1725700596724,2024-09-07T09:16:36.724Z,77322,-0.4520874,-0.95269775,6.1035156E-5
1725700596769,2024-09-07T09:16:36.769Z,77367,-0.41851807,-0.9468994,-0.024658203
1725700596818,2024-09-07T09:16:36.818Z,77416,-0.41259766,-0.9510498,-0.030761719
1725700596859,2024-09-07T09:16:36.859Z,77457,-0.4428711,-0.9647827,-0.029724121
1725700596879,2024-09-07T09:16:36.879Z,77477,-0.44055176,-0.9720459,-0.04156494
1725700596901,2024-09-07T09:16:36.901Z,77499,-0.4494629,-0.9486084,-0.009094238
1725700596949,2024-09-07T09:16:36.949Z,77547,-0.44696045,-0.9359131,-0.025268555
1725700596996,2024-09-07T09:16:36.996Z,77594,-0.4421997,-0.9137573,-0.03112793
1725700597038,2024-09-07T09:16:37.038Z,77636,-0.44024658,-0.9125366,-0.025939941
1725700597083,2024-09-07T09:16:37.083Z,77681,-0.43603516,-0.9104614,-0.03778076
1725700597130,2024-09-07T09:16:37.130Z,77728,-0.4197998,-0.91607666,-0.038757324
1725700597175,2024-09-07T09:16:37.175Z,77773,-0.4482422,-0.93566895,-0.008972168
1725700597219,2024-09-07T09:16:37.219Z,77817,-0.4310913,-0.9633789,-0.03881836
1725700597262,2024-09-07T09:16:37.262Z,77860,-0.465271,-0.9867554,-0.026245117
1725700597281,2024-09-07T09:16:37.281Z,77879,-0.4833374,-1.010498,-0.03149414
1725700597303,2024-09-07T09:16:37.303Z,77901,-0.51135254,-1.0377808,-0.042114258
1725700597350,2024-09-07T09:16:37.350Z,77948,-0.55267334,-1.0662842,-0.026184082
1725700597396,2024-09-07T09:16:37.396Z,77994,-0.5276489,-1.069397,-0.008850098
1725700597442,2024-09-07T09:16:37.442Z,78040,-0.46258545,-1.072937,-0.013061523
1725700597487,2024-09-07T09:16:37.487Z,78085,-0.4147339,-1.104126,-0.013122559
1725700597536,2024-09-07T09:16:37.536Z,78134,-0.3953247,-1.1317139,0.029663086
1725700597626,2024-09-07T09:16:37.626Z,78224,-0.38031006,-1.1331177,0.057495117
1725700597647,2024-09-07T09:16:37.647Z,78245,-0.38000488,-1.1015015,0.072265625
1725700597664,2024-09-07T09:16:37.664Z,78262,-0.37475586,-1.0394287,0.067871094
1725700597680,2024-09-07T09:16:37.680Z,78278,-0.33117676,-0.996521,0.045654297
1725700597709,2024-09-07T09:16:37.709Z,78307,-0.34753418,-0.9725342,0.060058594
1725700597752,2024-09-07T09:16:37.752Z,78350,-0.3579712,-0.97753906,0.05255127
1725700597852,2024-09-07T09:16:37.852Z,78450,-0.36309814,-0.96295166,0.049926758
1725700597874,2024-09-07T09:16:37.874Z,78472,-0.3581543,-0.93603516,0.03753662
1725700597894,2024-09-07T09:16:37.894Z,78492,-0.41656494,-0.9219971,-0.02545166
1725700597983,2024-09-07T09:16:37.983Z,78581,-0.40100098,-0.92248535,-0.043945312
1725700597995,2024-09-07T09:16:37.995Z,78593,-0.45263672,-0.9046631,-0.036865234
1725700598024,2024-09-07T09:16:38.024Z,78622,-0.4584961,-0.88397217,-0.0592041
1725700598071,2024-09-07T09:16:38.071Z,78669,-0.4406128,-0.8619385,-0.070617676
1725700598119,2024-09-07T09:16:38.119Z,78717,-0.49023438,-0.8280029,-0.036376953
1725700598141,2024-09-07T09:16:38.141Z,78739,-0.4550171,-0.7955322,-0.060058594
1725700598207,2024-09-07T09:16:38.207Z,78805,-0.40759277,-0.7262573,-0.040405273
1725700598229,2024-09-07T09:16:38.229Z,78827,-0.37469482,-0.6715088,-0.021118164
1725700598252,2024-09-07T09:16:38.252Z,78850,-0.33184814,-0.61590576,0.0025024414
1725700598295,2024-09-07T09:16:38.295Z,78893,-0.30358887,-0.5783081,-0.024719238
1725700598340,2024-09-07T09:16:38.340Z,78938,-0.2850952,-0.57092285,-0.028808594
1725700598390,2024-09-07T09:16:38.390Z,78988,-0.33190918,-0.60284424,-0.0256958
1725700598435,2024-09-07T09:16:38.435Z,79033,-0.4072876,-0.67181396,-0.07299805
1725700598475,2024-09-07T09:16:38.475Z,79073,-0.4897461,-0.76812744,-0.08508301
1725700598522,2024-09-07T09:16:38.522Z,79120,-0.5383301,-0.81933594,-0.10430908
1725700598544,2024-09-07T09:16:38.544Z,79142,-0.5279541,-0.8005371,-0.11968994
1725700598566,2024-09-07T09:16:38.566Z,79164,-0.49536133,-0.79193115,-0.10284424
1725700598610,2024-09-07T09:16:38.610Z,79208,-0.52996826,-0.81243896,-0.08843994
1725700598657,2024-09-07T09:16:38.657Z,79255,-0.5501709,-0.8466797,-0.0692749
1725700598750,2024-09-07T09:16:38.750Z,79348,-0.5620117,-0.86834717,-0.029907227
1725700598772,2024-09-07T09:16:38.772Z,79370,-0.5109863,-0.8578491,-0.027282715
1725700598796,2024-09-07T09:16:38.796Z,79394,-0.50164795,-0.85736084,-0.074157715
1725700598837,2024-09-07T09:16:38.837Z,79435,-0.54248047,-0.8569336,-0.04724121
1725700598881,2024-09-07T09:16:38.881Z,79479,-0.5554199,-0.8777466,-0.0960083
1725700598926,2024-09-07T09:16:38.926Z,79524,-0.5701294,-0.8547363,-0.0390625
1725700598944,2024-09-07T09:16:38.944Z,79542,-0.5507202,-0.85687256,-0.057495117
1725700598971,2024-09-07T09:16:38.971Z,79569,-0.59124756,-0.8440552,-0.046691895
1725700599016,2024-09-07T09:16:39.016Z,79614,-0.55236816,-0.8302002,-0.066711426
1725700599062,2024-09-07T09:16:39.062Z,79660,-0.54626465,-0.81018066,-0.047668457
1725700599108,2024-09-07T09:16:39.108Z,79706,-0.5437622,-0.8018799,-0.048950195
1725700599152,2024-09-07T09:16:39.152Z,79750,-0.517395,-0.79138184,-0.07232666
1725700599197,2024-09-07T09:16:39.197Z,79795,-0.5348511,-0.7889404,-0.08294678
1725700599243,2024-09-07T09:16:39.243Z,79841,-0.5058594,-0.78289795,-0.10095215
1725700599288,2024-09-07T09:16:39.288Z,79886,-0.47320557,-0.7669678,-0.11004639
1725700599334,2024-09-07T09:16:39.334Z,79932,-0.45037842,-0.7545166,-0.12408447
1725700599378,2024-09-07T09:16:39.378Z,79976,-0.46343994,-0.7710571,-0.12286377
1725700599402,2024-09-07T09:16:39.402Z,80000,-0.47460938,-0.75213623,-0.101135254
1725700599427,2024-09-07T09:16:39.427Z,80025,-0.43237305,-0.737854,-0.12335205
1725700599466,2024-09-07T09:16:39.466Z,80064,-0.4827881,-0.74835205,-0.089416504
1725700599511,2024-09-07T09:16:39.511Z,80109,-0.4524536,-0.7238159,-0.071899414
1725700599558,2024-09-07T09:16:39.558Z,80156,-0.44683838,-0.7446289,-0.08062744
1725700599604,2024-09-07T09:16:39.604Z,80202,-0.49822998,-0.77001953,-0.1105957
1725700599649,2024-09-07T09:16:39.649Z,80247,-0.46203613,-0.741333,-0.1116333
1725700599694,2024-09-07T09:16:39.694Z,80292,-0.46801758,-0.77227783,-0.10089111
1725700599738,2024-09-07T09:16:39.738Z,80336,-0.49316406,-0.7815552,-0.068481445
1725700599784,2024-09-07T09:16:39.784Z,80382,-0.47174072,-0.7971802,-0.047851562
1725700599811,2024-09-07T09:16:39.811Z,80409,-0.5371094,-0.8371582,-0.043029785
1725700599831,2024-09-07T09:16:39.831Z,80429,-0.47583008,-0.86242676,-0.06304932
1725700599872,2024-09-07T09:16:39.872Z,80470,-0.50305176,-0.86450195,-0.09289551
1725700599917,2024-09-07T09:16:39.917Z,80515,-0.52960205,-0.88793945,-0.12219238
1725700599962,2024-09-07T09:16:39.962Z,80560,-0.46759033,-0.8897705,-0.06719971
1725700600008,2024-09-07T09:16:40.008Z,80606,-0.50549316,-0.880188,-0.018249512
1725700600053,2024-09-07T09:16:40.053Z,80651,-0.4473877,-0.8834839,-0.057922363
1725700600097,2024-09-07T09:16:40.097Z,80695,-0.3963623,-0.88323975,-0.024108887
1725700600141,2024-09-07T09:16:40.141Z,80739,-0.41119385,-0.8909912,-0.06097412
1725700600189,2024-09-07T09:16:40.189Z,80787,-0.41888428,-0.92144775,-0.12182617
1725700600207,2024-09-07T09:16:40.207Z,80805,-0.3795166,-0.92474365,-0.13720703
1725700600229,2024-09-07T09:16:40.229Z,80827,-0.4119873,-0.9147339,-0.14868164
1725700600274,2024-09-07T09:16:40.274Z,80872,-0.4257202,-0.93743896,-0.1564331
1725700600323,2024-09-07T09:16:40.323Z,80921,-0.40820312,-0.9864502,-0.12902832
1725700600414,2024-09-07T09:16:40.414Z,81012,-0.45440674,-0.9990845,-0.04168701
1725700600440,2024-09-07T09:16:40.440Z,81038,-0.38726807,-0.9942627,-0.03845215
1725700600464,2024-09-07T09:16:40.464Z,81062,-0.39941406,-1.0018921,-0.051879883
1725700600503,2024-09-07T09:16:40.503Z,81101,-0.4354248,-1.0078125,-0.06744385
1725700600547,2024-09-07T09:16:40.547Z,81145,-0.44476318,-1.0454102,-0.05517578
1725700600594,2024-09-07T09:16:40.594Z,81192,-0.5100708,-1.0149536,-0.0138549805
1725700600639,2024-09-07T09:16:40.639Z,81237,-0.40734863,-1.0020752,-0.013061523
1725700600664,2024-09-07T09:16:40.664Z,81262,-0.46014404,-0.986084,0.03930664
1725700600680,2024-09-07T09:16:40.680Z,81278,-0.43304443,-0.9996338,0.0032348633
1725700600726,2024-09-07T09:16:40.726Z,81324,-0.42022705,-0.9946289,0.014099121
1725700600777,2024-09-07T09:16:40.777Z,81375,-0.4241333,-0.98101807,0.026794434
1725700600820,2024-09-07T09:16:40.820Z,81418,-0.40985107,-0.96520996,0.010925293
1725700600866,2024-09-07T09:16:40.866Z,81464,-0.4257202,-0.94866943,0.013977051
1725700600908,2024-09-07T09:16:40.908Z,81506,-0.41333008,-0.9536133,0.00592041
1725700600954,2024-09-07T09:16:40.954Z,81552,-0.4562378,-0.94104004,0.036499023
1725700600998,2024-09-07T09:16:40.998Z,81596,-0.44561768,-0.954834,9.1552734E-4
1725700601041,2024-09-07T09:16:41.041Z,81639,-0.42956543,-0.9522095,0.0056152344
1725700601061,2024-09-07T09:16:41.061Z,81659,-0.40911865,-0.92907715,0.012939453
1725700601084,2024-09-07T09:16:41.084Z,81682,-0.38201904,-0.918396,-0.019042969
1725700601181,2024-09-07T09:16:41.181Z,81779,-0.41131592,-0.92840576,-0.0010986328
1725700601204,2024-09-07T09:16:41.204Z,81802,-0.41833496,-0.94506836,-6.1035156E-5
1725700601224,2024-09-07T09:16:41.224Z,81822,-0.397583,-0.960083,0.018066406
1725700601268,2024-09-07T09:16:41.268Z,81866,-0.36590576,-0.99053955,-0.0059814453
1725700601313,2024-09-07T09:16:41.313Z,81911,-0.38378906,-1.0522461,-0.02734375
1725700601357,2024-09-07T09:16:41.357Z,81955,-0.453125,-1.1185913,0.015625
1725700601403,2024-09-07T09:16:41.403Z,82001,-0.48394775,-1.1377563,0.042541504
1725700601447,2024-09-07T09:16:41.447Z,82045,-0.40942383,-1.1184692,0.014038086
1725700601464,2024-09-07T09:16:41.464Z,82062,-0.41888428,-1.0939941,0.009155273
1725700601540,2024-09-07T09:16:41.540Z,82138,-0.43048096,-1.1173096,0.032714844
1725700601561,2024-09-07T09:16:41.561Z,82159,-0.41027832,-1.1115112,0.04333496
1725700601583,2024-09-07T09:16:41.583Z,82181,-0.3564453,-1.0922852,0.034362793
1725700601628,2024-09-07T09:16:41.628Z,82226,-0.34246826,-1.0570068,0.020446777
1725700601672,2024-09-07T09:16:41.672Z,82270,-0.3373413,-1.0369873,0.03100586
1725700601716,2024-09-07T09:16:41.716Z,82314,-0.30291748,-1.0122681,0.047546387
1725700601764,2024-09-07T09:16:41.764Z,82362,-0.27838135,-0.99975586,0.07446289
1725700601809,2024-09-07T09:16:41.809Z,82407,-0.32073975,-1.0112305,0.084228516
1725700601851,2024-09-07T09:16:41.851Z,82449,-0.34069824,-1.0202026,0.06542969
1725700601868,2024-09-07T09:16:41.868Z,82466,-0.35528564,-1.0085449,0.050720215
1725700601896,2024-09-07T09:16:41.896Z,82494,-0.37280273,-0.9869995,0.04107666
1725700601944,2024-09-07T09:16:41.944Z,82542,-0.39019775,-0.9608154,0.040527344
1725700602085,2024-09-07T09:16:42.085Z,82683,-0.41412354,-0.9192505,0.018615723
1725700602149,2024-09-07T09:16:42.149Z,82747,-0.41412354,-0.86047363,0.013793945
1725700602177,2024-09-07T09:16:42.177Z,82775,-0.477417,-0.8009033,-0.08166504
1725700602199,2024-09-07T09:16:42.199Z,82797,-0.43579102,-0.7415161,-0.0625
1725700602212,2024-09-07T09:16:42.212Z,82810,-0.4033203,-0.7026367,-0.057861328
1725700602228,2024-09-07T09:16:42.228Z,82826,-0.3678589,-0.69366455,-0.07171631
1725700602252,2024-09-07T09:16:42.252Z,82850,-0.3456421,-0.66967773,-0.07507324
1725700602299,2024-09-07T09:16:42.299Z,82897,-0.315979,-0.65826416,-0.089416504
1725700602310,2024-09-07T09:16:42.310Z,82908,-0.32958984,-0.68530273,-0.07513428
1725700602342,2024-09-07T09:16:42.342Z,82940,-0.36773682,-0.64801025,-0.057006836
1725700602394,2024-09-07T09:16:42.394Z,82992,-0.28179932,-0.6063843,-0.10223389
1725700602440,2024-09-07T09:16:42.440Z,83038,-0.31176758,-0.6235962,-0.078063965
1725700602484,2024-09-07T09:16:42.484Z,83082,-0.3909912,-0.74090576,-0.11029053
1725700602527,2024-09-07T09:16:42.527Z,83125,-0.48016357,-0.8751221,-0.12841797
1725700602575,2024-09-07T09:16:42.575Z,83173,-0.53692627,-0.93237305,-0.14007568
1725700602616,2024-09-07T09:16:42.616Z,83214,-0.5279541,-0.89678955,-0.15966797
1725700602665,2024-09-07T09:16:42.665Z,83263,-0.53686523,-0.8435669,-0.15881348
1725700602710,2024-09-07T09:16:42.710Z,83308,-0.5811157,-0.80926514,-0.11401367
1725700602732,2024-09-07T09:16:42.732Z,83330,-0.5700073,-0.82299805,-0.097595215
1725700602753,2024-09-07T09:16:42.753Z,83351,-0.5516968,-0.82489014,-0.05126953
1725700602798,2024-09-07T09:16:42.798Z,83396,-0.5566406,-0.82922363,-0.051452637
1725700602844,2024-09-07T09:16:42.844Z,83442,-0.55145264,-0.81604004,-0.1005249
1725700602889,2024-09-07T09:16:42.889Z,83487,-0.53466797,-0.80303955,-0.094055176
1725700602933,2024-09-07T09:16:42.933Z,83531,-0.56536865,-0.80859375,-0.09442139
1725700602979,2024-09-07T09:16:42.979Z,83577,-0.5934448,-0.8153076,-0.08355713
1725700603024,2024-09-07T09:16:43.024Z,83622,-0.59814453,-0.83618164,-0.08343506
1725700603070,2024-09-07T09:16:43.070Z,83668,-0.61499023,-0.8484497,-0.054016113
1725700603113,2024-09-07T09:16:43.113Z,83711,-0.626709,-0.83898926,-0.05480957
1725700603136,2024-09-07T09:16:43.136Z,83734,-0.60235596,-0.80444336,-0.08581543
1725700603158,2024-09-07T09:16:43.158Z,83756,-0.57489014,-0.765625,-0.11187744
1725700603201,2024-09-07T09:16:43.201Z,83799,-0.5710449,-0.74523926,-0.120788574
1725700603248,2024-09-07T09:16:43.248Z,83846,-0.56469727,-0.75146484,-0.109191895
1725700603294,2024-09-07T09:16:43.294Z,83892,-0.5375366,-0.76898193,-0.114990234
1725700603340,2024-09-07T09:16:43.340Z,83938,-0.53863525,-0.7885132,-0.10028076
1725700603381,2024-09-07T09:16:43.381Z,83979,-0.543396,-0.8098755,-0.10449219
1725700603430,2024-09-07T09:16:43.430Z,84028,-0.4996338,-0.8066406,-0.12634277
1725700603474,2024-09-07T09:16:43.474Z,84072,-0.48010254,-0.78570557,-0.11340332
1725700603520,2024-09-07T09:16:43.520Z,84118,-0.42419434,-0.7854004,-0.10192871
1725700603566,2024-09-07T09:16:43.566Z,84164,-0.46575928,-0.79681396,-0.07476807
1725700603590,2024-09-07T09:16:43.590Z,84188,-0.44958496,-0.7973633,-0.069885254
1725700603614,2024-09-07T09:16:43.614Z,84212,-0.43603516,-0.7857666,-0.06463623
1725700603651,2024-09-07T09:16:43.651Z,84249,-0.46051025,-0.78570557,-0.061523438
1725700603699,2024-09-07T09:16:43.699Z,84297,-0.44561768,-0.7723999,-0.10229492
1725700603746,2024-09-07T09:16:43.746Z,84344,-0.47906494,-0.7697754,-0.07800293
1725700603789,2024-09-07T09:16:43.789Z,84387,-0.47406006,-0.7628784,-0.078063965
1725700603836,2024-09-07T09:16:43.836Z,84434,-0.44281006,-0.7399292,-0.07165527
1725700603877,2024-09-07T09:16:43.877Z,84475,-0.44580078,-0.7407837,-0.0647583
1725700603923,2024-09-07T09:16:43.923Z,84521,-0.47839355,-0.7531738,-0.039123535
1725700603970,2024-09-07T09:16:43.970Z,84568,-0.44476318,-0.7869873,-0.09082031
1725700603996,2024-09-07T09:16:43.996Z,84594,-0.46276855,-0.8125,-0.04272461
1725700604019,2024-09-07T09:16:44.019Z,84617,-0.45074463,-0.85723877,-0.08013916
1725700604056,2024-09-07T09:16:44.056Z,84654,-0.49328613,-0.8753052,-0.043029785
1725700604103,2024-09-07T09:16:44.103Z,84701,-0.5012207,-0.9029541,-0.06762695
1725700604149,2024-09-07T09:16:44.149Z,84747,-0.51763916,-0.897522,-0.07244873
1725700604197,2024-09-07T09:16:44.197Z,84795,-0.46783447,-0.9133301,-0.06384277
1725700604240,2024-09-07T09:16:44.240Z,84838,-0.50579834,-0.9113159,-0.03552246
1725700604288,2024-09-07T09:16:44.288Z,84886,-0.41949463,-0.9369507,-0.0949707
1725700604328,2024-09-07T09:16:44.328Z,84926,-0.4064331,-0.9454346,-0.049072266
1725700604372,2024-09-07T09:16:44.372Z,84970,-0.3937378,-0.9505005,-0.0993042
1725700604394,2024-09-07T09:16:44.394Z,84992,-0.446167,-0.95391846,-0.04748535
1725700604416,2024-09-07T09:16:44.416Z,85014,-0.44500732,-0.94317627,0.019958496
1725700604461,2024-09-07T09:16:44.461Z,85059,-0.38684082,-0.91864014,0.034301758
1725700604508,2024-09-07T09:16:44.508Z,85106,-0.41705322,-0.9283447,0.002746582
1725700604553,2024-09-07T09:16:44.553Z,85151,-0.46313477,-0.9067993,-0.005126953
1725700604599,2024-09-07T09:16:44.599Z,85197,-0.39660645,-0.9234009,0.018737793
1725700604660,2024-09-07T09:16:44.660Z,85258,-0.41693115,-0.91589355,-3.6621094E-4
1725700604685,2024-09-07T09:16:44.685Z,85283,-0.3439331,-0.93774414,0.06707764
1725700604781,2024-09-07T09:16:44.781Z,85379,-0.35266113,-0.9482422,0.06933594
1725700604801,2024-09-07T09:16:44.801Z,85399,-0.37023926,-0.98913574,0.07623291
1725700604816,2024-09-07T09:16:44.816Z,85414,-0.37963867,-1.0358887,0.062927246
1725700604827,2024-09-07T09:16:44.827Z,85425,-0.37945557,-1.0321655,0.055480957
1725700604864,2024-09-07T09:16:44.864Z,85462,-0.2937622,-1.0279541,0.061950684
1725700604912,2024-09-07T09:16:44.912Z,85510,-0.36328125,-1.0290527,0.09674072
1725700604960,2024-09-07T09:16:44.960Z,85558,-0.3297119,-1.0281982,0.051757812
1725700605004,2024-09-07T09:16:45.004Z,85602,-0.3717041,-1.0001831,0.0758667
1725700605049,2024-09-07T09:16:45.049Z,85647,-0.35699463,-0.99542236,0.07849121
1725700605093,2024-09-07T09:16:45.093Z,85691,-0.37353516,-0.9881592,0.1227417
1725700605186,2024-09-07T09:16:45.186Z,85784,-0.34674072,-0.97143555,0.11413574
1725700605230,2024-09-07T09:16:45.230Z,85828,-0.3330078,-0.9654541,0.1027832
1725700605252,2024-09-07T09:16:45.252Z,85850,-0.3564453,-0.9841919,0.12017822
1725700605266,2024-09-07T09:16:45.266Z,85864,-0.35968018,-0.9857178,0.14215088
1725700605280,2024-09-07T09:16:45.280Z,85878,-0.32891846,-0.9866333,0.10870361
1725700605363,2024-09-07T09:16:45.363Z,85961,-0.3595581,-0.982666,0.115356445
1725700605377,2024-09-07T09:16:45.377Z,85975,-0.3241577,-0.9661255,0.072509766
1725700605409,2024-09-07T09:16:45.409Z,86007,-0.32086182,-0.96746826,0.061706543
1725700605453,2024-09-07T09:16:45.453Z,86051,-0.3272705,-0.98358154,0.07501221
1725700605496,2024-09-07T09:16:45.496Z,86094,-0.3433838,-1.0058594,0.10058594
1725700605545,2024-09-07T09:16:45.545Z,86143,-0.3109131,-1.0015869,0.109558105
1725700605604,2024-09-07T09:16:45.604Z,86202,-0.2803955,-1.0189209,0.08441162
1725700605633,2024-09-07T09:16:45.633Z,86231,-0.3540039,-1.0550537,0.10241699
1725700605656,2024-09-07T09:16:45.656Z,86254,-0.3623047,-1.0965576,0.070007324
1725700605678,2024-09-07T09:16:45.678Z,86276,-0.40057373,-1.1101074,0.10498047
1725700605722,2024-09-07T09:16:45.722Z,86320,-0.33361816,-1.1035156,0.13769531
1725700605765,2024-09-07T09:16:45.765Z,86363,-0.29785156,-1.1040039,0.15161133
1725700605815,2024-09-07T09:16:45.815Z,86413,-0.3133545,-1.1313477,0.17211914
1725700605861,2024-09-07T09:16:45.861Z,86459,-0.30316162,-1.142395,0.21990967
1725700605906,2024-09-07T09:16:45.906Z,86504,-0.28118896,-1.1334839,0.17089844
1725700605950,2024-09-07T09:16:45.950Z,86548,-0.3277588,-1.0944214,0.24902344
1725700605993,2024-09-07T09:16:45.993Z,86591,-0.24938965,-1.03125,0.16656494
1725700606038,2024-09-07T09:16:46.038Z,86636,-0.25061035,-0.987854,0.17645264
1725700606084,2024-09-07T09:16:46.084Z,86682,-0.2770996,-0.9902954,0.2000122
1725700606103,2024-09-07T09:16:46.103Z,86701,-0.28588867,-0.99627686,0.17938232
1725700606124,2024-09-07T09:16:46.124Z,86722,-0.2738037,-0.9815674,0.18109131
1725700606172,2024-09-07T09:16:46.172Z,86770,-0.26989746,-0.9664917,0.16790771
1725700606220,2024-09-07T09:16:46.220Z,86818,-0.2796631,-0.97821045,0.15240479
1725700606266,2024-09-07T09:16:46.266Z,86864,-0.2880249,-0.9891968,0.14465332
1725700606310,2024-09-07T09:16:46.310Z,86908,-0.3067627,-0.9755249,0.16113281
1725700606357,2024-09-07T09:16:46.357Z,86955,-0.31713867,-0.9597168,0.0993042
1725700606399,2024-09-07T09:16:46.399Z,86997,-0.35736084,-0.95043945,0.059448242
1725700606443,2024-09-07T09:16:46.443Z,87041,-0.37860107,-0.91412354,0.054992676
1725700606489,2024-09-07T09:16:46.489Z,87087,-0.34069824,-0.8373413,0.039001465
1725700606510,2024-09-07T09:16:46.510Z,87108,-0.3479004,-0.74053955,0.047180176
1725700606531,2024-09-07T09:16:46.531Z,87129,-0.26055908,-0.6430664,0.019104004
1725700606576,2024-09-07T09:16:46.576Z,87174,-0.24884033,-0.56518555,-0.001953125
1725700606625,2024-09-07T09:16:46.625Z,87223,-0.2598877,-0.5075073,-6.1035156E-5
1725700606671,2024-09-07T09:16:46.671Z,87269,-0.20111084,-0.48901367,-0.059387207
1725700606711,2024-09-07T09:16:46.711Z,87309,-0.2697754,-0.5484619,-0.02746582
1725700606762,2024-09-07T09:16:46.762Z,87360,-0.42822266,-0.69299316,-0.089416504
1725700606804,2024-09-07T09:16:46.804Z,87402,-0.555603,-0.8216553,-0.10235596
1725700606851,2024-09-07T09:16:46.851Z,87449,-0.52178955,-0.85498047,-0.08477783
1725700606895,2024-09-07T09:16:46.895Z,87493,-0.5120239,-0.8245239,-0.11340332
1725700606919,2024-09-07T09:16:46.919Z,87517,-0.512146,-0.8204346,-0.128479
1725700606940,2024-09-07T09:16:46.940Z,87538,-0.5635376,-0.8364258,-0.12390137
1725700606983,2024-09-07T09:16:46.983Z,87581,-0.5562744,-0.8497925,-0.12689209
1725700607026,2024-09-07T09:16:47.026Z,87624,-0.532959,-0.8652954,-0.0914917
1725700607072,2024-09-07T09:16:47.072Z,87670,-0.51708984,-0.88842773,-0.053771973
1725700607119,2024-09-07T09:16:47.119Z,87717,-0.52246094,-0.87994385,-0.069885254
1725700607162,2024-09-07T09:16:47.162Z,87760,-0.5075073,-0.87438965,-0.10180664
1725700607208,2024-09-07T09:16:47.208Z,87806,-0.50476074,-0.8668213,-0.12689209
1725700607254,2024-09-07T09:16:47.254Z,87852,-0.49908447,-0.838562,-0.117126465
1725700607344,2024-09-07T09:16:47.344Z,87942,-0.49554443,-0.8498535,-0.10644531
1725700607366,2024-09-07T09:16:47.366Z,87964,-0.5192261,-0.8740845,-0.07196045
1725700607388,2024-09-07T09:16:47.388Z,87986,-0.49261475,-0.8757324,-0.051330566
1725700607405,2024-09-07T09:16:47.405Z,88003,-0.47143555,-0.8609619,-0.023803711
1725700607431,2024-09-07T09:16:47.431Z,88029,-0.47473145,-0.86187744,-0.06512451
1725700607479,2024-09-07T09:16:47.479Z,88077,-0.517395,-0.87579346,-0.07928467
1725700607523,2024-09-07T09:16:47.523Z,88121,-0.4753418,-0.8987427,-0.123291016
1725700607570,2024-09-07T09:16:47.570Z,88168,-0.489563,-0.8828125,-0.10681152
1725700607613,2024-09-07T09:16:47.613Z,88211,-0.4734497,-0.8932495,-0.09069824
1725700607661,2024-09-07T09:16:47.661Z,88259,-0.506897,-0.87786865,-0.05859375
1725700607702,2024-09-07T09:16:47.702Z,88300,-0.4658203,-0.86535645,-0.06542969
1725700607746,2024-09-07T09:16:47.746Z,88344,-0.45568848,-0.8345947,-0.07751465
1725700607766,2024-09-07T09:16:47.766Z,88364,-0.4312744,-0.8163452,-0.09564209
1725700607793,2024-09-07T09:16:47.793Z,88391,-0.46087646,-0.8232422,-0.13873291
1725700607834,2024-09-07T09:16:47.834Z,88432,-0.47924805,-0.8140869,-0.09454346
1725700607883,2024-09-07T09:16:47.883Z,88481,-0.42938232,-0.77282715,-0.060424805
1725700607927,2024-09-07T09:16:47.927Z,88525,-0.39788818,-0.743042,-0.056396484
1725700607973,2024-09-07T09:16:47.973Z,88571,-0.3928833,-0.7669678,-0.06945801
1725700608018,2024-09-07T09:16:48.018Z,88616,-0.45703125,-0.7792969,-0.038024902
1725700608065,2024-09-07T09:16:48.065Z,88663,-0.4570923,-0.78253174,-0.049621582
1725700608109,2024-09-07T09:16:48.109Z,88707,-0.4227295,-0.72753906,-0.051452637
1725700608158,2024-09-07T09:16:48.158Z,88756,-0.45825195,-0.6987915,-0.051635742
1725700608181,2024-09-07T09:16:48.181Z,88779,-0.4364624,-0.7283325,-0.09350586
1725700608201,2024-09-07T09:16:48.201Z,88799,-0.5108032,-0.75183105,-0.036010742
1725700608242,2024-09-07T09:16:48.242Z,88840,-0.42095947,-0.77368164,-0.053466797
1725700608288,2024-09-07T09:16:48.288Z,88886,-0.41046143,-0.78692627,-0.0357666
1725700608334,2024-09-07T09:16:48.334Z,88932,-0.40490723,-0.86950684,-0.06921387
1725700608381,2024-09-07T09:16:48.381Z,88979,-0.416687,-0.89294434,-0.050964355
1725700608514,2024-09-07T09:16:48.514Z,89112,-0.3947754,-0.87335205,-0.022888184
1725700608544,2024-09-07T09:16:48.544Z,89142,-0.3708496,-0.8960571,-0.11151123
1725700608570,2024-09-07T09:16:48.570Z,89168,-0.41125488,-0.93188477,-0.010070801
1725700608592,2024-09-07T09:16:48.592Z,89190,-0.3746338,-0.93811035,-0.0032958984
1725700608606,2024-09-07T09:16:48.606Z,89204,-0.42755127,-0.9584961,0.013977051
1725700608621,2024-09-07T09:16:48.621Z,89219,-0.3894043,-0.9326172,-6.713867E-4
1725700608645,2024-09-07T09:16:48.645Z,89243,-0.42401123,-0.8845825,-0.013122559
1725700608691,2024-09-07T09:16:48.691Z,89289,-0.35723877,-0.8791504,-0.006591797
1725700608735,2024-09-07T09:16:48.735Z,89333,-0.42944336,-0.92803955,0.07244873
1725700608783,2024-09-07T09:16:48.783Z,89381,-0.40655518,-0.9781494,0.02557373
1725700608830,2024-09-07T09:16:48.830Z,89428,-0.3817749,-0.9611206,0.0026855469
1725700608873,2024-09-07T09:16:48.873Z,89471,-0.34222412,-0.95654297,0.0073242188
1725700608918,2024-09-07T09:16:48.918Z,89516,-0.39422607,-0.96917725,0.04071045
1725700608964,2024-09-07T09:16:48.964Z,89562,-0.40045166,-0.9874878,0.020446777
1725700609011,2024-09-07T09:16:49.011Z,89609,-0.40100098,-0.99017334,0.060668945
1725700609032,2024-09-07T09:16:49.032Z,89630,-0.34692383,-0.99102783,0.028747559
1725700609053,2024-09-07T09:16:49.053Z,89651,-0.35327148,-1.0120239,0.12628174
1725700609096,2024-09-07T09:16:49.096Z,89694,-0.31988525,-1.0163574,0.122680664
1725700609145,2024-09-07T09:16:49.145Z,89743,-0.3110962,-1.0192261,0.14093018
1725700609189,2024-09-07T09:16:49.189Z,89787,-0.25219727,-1.0289307,0.075683594
1725700609235,2024-09-07T09:16:49.235Z,89833,-0.27374268,-1.0723877,0.10455322
1725700609280,2024-09-07T09:16:49.280Z,89878,-0.28308105,-1.0725708,0.09680176
1725700609327,2024-09-07T09:16:49.327Z,89925,-0.18426514,-1.0362549,0.057128906
1725700609371,2024-09-07T09:16:49.371Z,89969,-0.20788574,-1.0154419,0.068115234
1725700609414,2024-09-07T09:16:49.414Z,90012,-0.18908691,-1.0245972,0.04736328
1725700609436,2024-09-07T09:16:49.436Z,90034,-0.26794434,-1.0287476,0.10784912
1725700609460,2024-09-07T09:16:49.460Z,90058,-0.21697998,-1.0362549,0.0056762695
1725700609503,2024-09-07T09:16:49.503Z,90101,-0.2774048,-1.0355225,0.07501221
1725700609548,2024-09-07T09:16:49.548Z,90146,-0.29449463,-1.0454712,0.06530762
1725700609593,2024-09-07T09:16:49.593Z,90191,-0.29083252,-1.0380859,0.087768555
1725700609640,2024-09-07T09:16:49.640Z,90238,-0.23742676,-1.0108643,0.025817871
1725700609684,2024-09-07T09:16:49.684Z,90282,-0.272583,-0.98760986,0.09301758
1725700609729,2024-09-07T09:16:49.729Z,90327,-0.24078369,-0.97076416,0.042053223
1725700609774,2024-09-07T09:16:49.774Z,90372,-0.25842285,-0.9538574,0.07757568
1725700609820,2024-09-07T09:16:49.820Z,90418,-0.25170898,-0.95739746,0.08203125
1725700609870,2024-09-07T09:16:49.870Z,90468,-0.2366333,-0.9954834,0.03869629
1725700609907,2024-09-07T09:16:49.907Z,90505,-0.24176025,-1.0375366,0.06341553
1725700609933,2024-09-07T09:16:49.933Z,90531,-0.2635498,-1.1190186,0.05291748
1725700609953,2024-09-07T09:16:49.953Z,90551,-0.27404785,-1.1677856,0.119140625
1725700609996,2024-09-07T09:16:49.996Z,90594,-0.24182129,-1.1699829,0.13635254
1725700610045,2024-09-07T09:16:50.045Z,90643,-0.19866943,-1.1696777,0.1463623
1725700610104,2024-09-07T09:16:50.104Z,90702,-0.1418457,-1.1820068,0.14074707
1725700610136,2024-09-07T09:16:50.136Z,90734,-0.1350708,-1.1731567,0.222229
1725700610178,2024-09-07T09:16:50.178Z,90776,-0.07244873,-1.1720581,0.16278076
1725700610225,2024-09-07T09:16:50.225Z,90823,-0.14050293,-1.1328125,0.27124023
1725700610272,2024-09-07T09:16:50.272Z,90870,-0.09515381,-1.072998,0.19787598
1725700610300,2024-09-07T09:16:50.300Z,90898,-0.11340332,-1.0224609,0.24743652
1725700610322,2024-09-07T09:16:50.322Z,90920,-0.11413574,-0.9921875,0.23583984
1725700610356,2024-09-07T09:16:50.356Z,90954,-0.115722656,-0.9928589,0.26879883
1725700610404,2024-09-07T09:16:50.404Z,91002,-0.11993408,-0.9755249,0.2432251
1725700610449,2024-09-07T09:16:50.449Z,91047,-0.16638184,-0.97265625,0.29040527
1725700610496,2024-09-07T09:16:50.496Z,91094,-0.17944336,-0.97631836,0.2163086
1725700610540,2024-09-07T09:16:50.540Z,91138,-0.24908447,-0.96276855,0.21356201
1725700610632,2024-09-07T09:16:50.632Z,91230,-0.2345581,-0.975647,0.1437378
1725700610656,2024-09-07T09:16:50.656Z,91254,-0.28692627,-0.9735718,0.12310791
1725700610678,2024-09-07T09:16:50.678Z,91276,-0.2617798,-0.9717407,0.08099365
1725700610692,2024-09-07T09:16:50.692Z,91290,-0.2901001,-0.92803955,0.11932373
1725700610764,2024-09-07T09:16:50.764Z,91362,-0.2816162,-0.8913574,0.08343506
1725700610782,2024-09-07T09:16:50.782Z,91380,-0.2987671,-0.87145996,0.072265625
1725700610806,2024-09-07T09:16:50.806Z,91404,-0.33355713,-0.8284302,0.023864746
1725700610852,2024-09-07T09:16:50.852Z,91450,-0.3069458,-0.7394409,0.047302246
1725700610897,2024-09-07T09:16:50.897Z,91495,-0.24731445,-0.62438965,0.02178955
1725700610944,2024-09-07T09:16:50.944Z,91542,-0.15875244,-0.5133667,-0.026123047
1725700610992,2024-09-07T09:16:50.992Z,91590,-0.1963501,-0.48986816,0.027648926
1725700611037,2024-09-07T09:16:51.037Z,91635,-0.26483154,-0.56884766,8.544922E-4
1725700611079,2024-09-07T09:16:51.079Z,91677,-0.40008545,-0.7040405,0.01751709
1725700611125,2024-09-07T09:16:51.125Z,91723,-0.4675293,-0.7944336,-0.038391113
1725700611147,2024-09-07T09:16:51.147Z,91745,-0.50109863,-0.86309814,-0.05316162
1725700611168,2024-09-07T09:16:51.168Z,91766,-0.49945068,-0.86065674,-0.07318115
1725700611213,2024-09-07T09:16:51.213Z,91811,-0.5195923,-0.8574219,-0.1182251
1725700611258,2024-09-07T09:16:51.258Z,91856,-0.5263672,-0.8463745,-0.06738281
1725700611305,2024-09-07T09:16:51.305Z,91903,-0.55810547,-0.8722534,-0.070129395
1725700611352,2024-09-07T09:16:51.352Z,91950,-0.5251465,-0.8868408,-0.06567383
1725700611395,2024-09-07T09:16:51.395Z,91993,-0.5411377,-0.8858032,-0.016113281
1725700611436,2024-09-07T09:16:51.436Z,92034,-0.5165405,-0.87841797,-0.05303955
1725700611485,2024-09-07T09:16:51.485Z,92083,-0.48565674,-0.8508911,-0.07879639
1725700611530,2024-09-07T09:16:51.530Z,92128,-0.48168945,-0.8389282,-0.07885742
1725700611548,2024-09-07T09:16:51.548Z,92146,-0.4761963,-0.83325195,-0.09649658
1725700611568,2024-09-07T09:16:51.568Z,92166,-0.48382568,-0.8451538,-0.09387207
1725700611618,2024-09-07T09:16:51.618Z,92216,-0.5187988,-0.87231445,-0.048095703
1725700611664,2024-09-07T09:16:51.664Z,92262,-0.49975586,-0.87542725,-0.06060791
1725700611706,2024-09-07T09:16:51.706Z,92304,-0.47595215,-0.8643799,-0.072509766
1725700611750,2024-09-07T09:16:51.750Z,92348,-0.4697876,-0.84246826,-0.06842041
1725700611800,2024-09-07T09:16:51.800Z,92398,-0.45672607,-0.840271,-0.08337402
1725700611844,2024-09-07T09:16:51.844Z,92442,-0.46429443,-0.85943604,-0.061157227
1725700611895,2024-09-07T09:16:51.895Z,92493,-0.4580078,-0.8685913,0.01171875
1725700611932,2024-09-07T09:16:51.932Z,92530,-0.43133545,-0.8852539,0.018554688
1725700611955,2024-09-07T09:16:51.955Z,92553,-0.4625244,-0.89593506,0.056396484
1725700611975,2024-09-07T09:16:51.975Z,92573,-0.43225098,-0.90771484,0.03265381
1725700612021,2024-09-07T09:16:52.021Z,92619,-0.42663574,-0.8954468,0.05480957
1725700612073,2024-09-07T09:16:52.073Z,92671,-0.42486572,-0.8887329,0.04901123
1725700612111,2024-09-07T09:16:52.111Z,92709,-0.4418335,-0.8751221,0.068847656
1725700612157,2024-09-07T09:16:52.157Z,92755,-0.390625,-0.84020996,0.041015625
1725700612207,2024-09-07T09:16:52.207Z,92805,-0.3977661,-0.79992676,0.043884277
1725700612250,2024-09-07T09:16:52.250Z,92848,-0.3770752,-0.7525635,0.02532959
1725700612295,2024-09-07T09:16:52.295Z,92893,-0.36431885,-0.7166748,0.027526855
1725700612339,2024-09-07T09:16:52.339Z,92937,-0.45159912,-0.7612915,0.030395508
1725700612384,2024-09-07T09:16:52.384Z,92982,-0.42962646,-0.7463379,0.05218506
1725700612408,2024-09-07T09:16:52.408Z,93006,-0.3640747,-0.71881104,0.026855469
1725700612432,2024-09-07T09:16:52.432Z,93030,-0.38702393,-0.7584839,0.030517578
1725700612471,2024-09-07T09:16:52.471Z,93069,-0.39916992,-0.7836914,0.010620117
1725700612518,2024-09-07T09:16:52.518Z,93116,-0.3574829,-0.7923584,0.03125
1725700612562,2024-09-07T09:16:52.562Z,93160,-0.37982178,-0.85406494,0.057922363
1725700612608,2024-09-07T09:16:52.608Z,93206,-0.34429932,-0.8981323,0.025939941
1725700612666,2024-09-07T09:16:52.666Z,93264,-0.3408203,-0.9059448,0.115356445
1725700612697,2024-09-07T09:16:52.697Z,93295,-0.29229736,-0.91241455,0.08001709
1725700612741,2024-09-07T09:16:52.741Z,93339,-0.2701416,-0.97003174,0.112976074
1725700612789,2024-09-07T09:16:52.789Z,93387,-0.33953857,-1.0026855,0.16644287
1725700612811,2024-09-07T09:16:52.811Z,93409,-0.3388672,-1.0108643,0.1607666
1725700612834,2024-09-07T09:16:52.834Z,93432,-0.34509277,-0.98083496,0.16644287
1725700612876,2024-09-07T09:16:52.876Z,93474,-0.31903076,-0.9534302,0.1472168
1725700612924,2024-09-07T09:16:52.924Z,93522,-0.3371582,-0.9171753,0.18310547
1725700612972,2024-09-07T09:16:52.972Z,93570,-0.31774902,-0.89453125,0.20025635
1725700613011,2024-09-07T09:16:53.011Z,93609,-0.35290527,-0.8740845,0.18676758
1725700613057,2024-09-07T09:16:53.057Z,93655,-0.30096436,-0.86157227,0.25787354
1725700613105,2024-09-07T09:16:53.105Z,93703,-0.31835938,-0.85076904,0.2166748
1725700613150,2024-09-07T09:16:53.150Z,93748,-0.35876465,-0.87628174,0.20788574
1725700613193,2024-09-07T09:16:53.193Z,93791,-0.30828857,-0.90930176,0.17932129
1725700613213,2024-09-07T09:16:53.213Z,93811,-0.32409668,-0.9219971,0.19488525
1725700613237,2024-09-07T09:16:53.237Z,93835,-0.24829102,-0.9847412,0.23822021
1725700613282,2024-09-07T09:16:53.282Z,93880,-0.28149414,-1.0076294,0.30389404
1725700613329,2024-09-07T09:16:53.329Z,93927,-0.18341064,-1.052002,0.28363037
1725700613375,2024-09-07T09:16:53.375Z,93973,-0.20678711,-1.0360718,0.33203125
1725700613419,2024-09-07T09:16:53.419Z,94017,-0.12634277,-1.050415,0.26086426
1725700613466,2024-09-07T09:16:53.466Z,94064,-0.2166748,-1.0736084,0.3685913
1725700613512,2024-09-07T09:16:53.512Z,94110,-0.18017578,-1.0670166,0.31610107
1725700613557,2024-09-07T09:16:53.557Z,94155,-0.13153076,-1.0394287,0.27868652
1725700613597,2024-09-07T09:16:53.597Z,94195,-0.21795654,-1.0110474,0.35998535
1725700613642,2024-09-07T09:16:53.642Z,94240,-0.20159912,-1.0037842,0.31555176
1725700613661,2024-09-07T09:16:53.661Z,94259,-0.21746826,-0.9771118,0.2828369
1725700613683,2024-09-07T09:16:53.683Z,94281,-0.16339111,-0.9678955,0.2695923
1725700613733,2024-09-07T09:16:53.733Z,94331,-0.20037842,-0.979187,0.22351074
1725700613778,2024-09-07T09:16:53.778Z,94376,-0.20733643,-0.98291016,0.2718506
1725700613824,2024-09-07T09:16:53.824Z,94422,-0.12878418,-0.9674072,0.19750977
1725700613871,2024-09-07T09:16:53.871Z,94469,-0.18408203,-1.0047607,0.26245117
1725700613913,2024-09-07T09:16:53.913Z,94511,-0.190979,-1.0307617,0.27508545
1725700613958,2024-09-07T09:16:53.958Z,94556,-0.20257568,-1.0120239,0.25787354
1725700614003,2024-09-07T09:16:54.003Z,94601,-0.19073486,-0.99523926,0.23699951
1725700614050,2024-09-07T09:16:54.050Z,94648,-0.19024658,-0.99902344,0.22583008
1725700614074,2024-09-07T09:16:54.074Z,94672,-0.21618652,-0.99017334,0.25909424
1725700614094,2024-09-07T09:16:54.094Z,94692,-0.16711426,-0.9743042,0.22668457
1725700614137,2024-09-07T09:16:54.137Z,94735,-0.1984253,-1.0048218,0.22662354
1725700614186,2024-09-07T09:16:54.186Z,94784,-0.27270508,-1.0944214,0.2861328
1725700614230,2024-09-07T09:16:54.230Z,94828,-0.29626465,-1.0943604,0.33465576
1725700614273,2024-09-07T09:16:54.273Z,94871,-0.22131348,-1.0604248,0.31756592
1725700614319,2024-09-07T09:16:54.319Z,94917,-0.21966553,-1.0418091,0.33294678
1725700614365,2024-09-07T09:16:54.365Z,94963,-0.15716553,-1.0715942,0.35064697
1725700614408,2024-09-07T09:16:54.408Z,95006,-0.09173584,-1.0906372,0.30700684
1725700614456,2024-09-07T09:16:54.456Z,95054,-0.07714844,-1.1281738,0.37347412
1725700614475,2024-09-07T09:16:54.475Z,95073,-0.07556152,-1.1256104,0.3633423
1725700614496,2024-09-07T09:16:54.496Z,95094,-0.11029053,-1.0774536,0.42163086
1725700614543,2024-09-07T09:16:54.543Z,95141,-0.08312988,-1.0054932,0.34472656
1725700614588,2024-09-07T09:16:54.588Z,95186,-0.101257324,-0.95532227,0.37701416
1725700614636,2024-09-07T09:16:54.636Z,95234,-0.10546875,-0.91625977,0.38787842
1725700614678,2024-09-07T09:16:54.678Z,95276,-0.06719971,-0.91174316,0.3024292
1725700614726,2024-09-07T09:16:54.726Z,95324,-0.12976074,-0.90270996,0.33013916
1725700614767,2024-09-07T09:16:54.767Z,95365,-0.10595703,-0.9335327,0.2906494
1725700614814,2024-09-07T09:16:54.814Z,95412,-0.13470459,-0.9506836,0.22167969
1725700614861,2024-09-07T09:16:54.861Z,95459,-0.13024902,-0.9916382,0.2296753
1725700614902,2024-09-07T09:16:54.902Z,95500,-0.14404297,-1.0101318,0.253479
1725700614921,2024-09-07T09:16:54.921Z,95519,-0.18151855,-1.0446167,0.26519775
1725700614946,2024-09-07T09:16:54.946Z,95544,-0.17962646,-1.0422363,0.30523682
1725700615042,2024-09-07T09:16:55.042Z,95640,-0.20263672,-1.0165405,0.27941895
1725700615061,2024-09-07T09:16:55.061Z,95659,-0.2029419,-0.9882202,0.2694702
1725700615078,2024-09-07T09:16:55.078Z,95676,-0.26605225,-0.9750366,0.27056885
1725700615127,2024-09-07T09:16:55.127Z,95725,-0.36688232,-0.9307251,0.26153564
1725700615175,2024-09-07T09:16:55.175Z,95773,-0.32196045,-0.7944336,0.23468018
1725700615217,2024-09-07T09:16:55.217Z,95815,-0.27557373,-0.5876465,0.22796631
1725700615263,2024-09-07T09:16:55.263Z,95861,-0.17340088,-0.414917,0.15924072
1725700615310,2024-09-07T09:16:55.310Z,95908,-0.1394043,-0.3572998,0.09649658
1725700615329,2024-09-07T09:16:55.329Z,95927,-0.24621582,-0.39398193,0.036010742
1725700615349,2024-09-07T09:16:55.349Z,95947,-0.38891602,-0.55895996,-0.003540039
1725700615397,2024-09-07T09:16:55.397Z,95995,-0.5046997,-0.66137695,-0.022460938
1725700615443,2024-09-07T09:16:55.443Z,96041,-0.57403564,-0.72198486,0.006225586
1725700615489,2024-09-07T09:16:55.489Z,96087,-0.61224365,-0.75115967,0.008361816
1725700615536,2024-09-07T09:16:55.536Z,96134,-0.5822754,-0.76831055,0.018981934
1725700615579,2024-09-07T09:16:55.579Z,96177,-0.58947754,-0.77978516,-0.0015258789
1725700615623,2024-09-07T09:16:55.623Z,96221,-0.56604004,-0.8222656,-0.031677246
1725700615671,2024-09-07T09:16:55.671Z,96269,-0.6030884,-0.88049316,-0.027648926
1725700615714,2024-09-07T09:16:55.714Z,96312,-0.59259033,-0.9178467,0.014953613
1725700615735,2024-09-07T09:16:55.735Z,96333,-0.5288696,-0.92211914,0.021484375
1725700615758,2024-09-07T09:16:55.758Z,96356,-0.45031738,-0.9248047,0.008972168
1725700615802,2024-09-07T09:16:55.802Z,96400,-0.47662354,-0.9035034,0.08227539
1725700615846,2024-09-07T09:16:55.846Z,96444,-0.4605713,-0.91571045,0.06121826
1725700615891,2024-09-07T09:16:55.891Z,96489,-0.49005127,-0.91119385,0.09283447
1725700615941,2024-09-07T09:16:55.941Z,96539,-0.47320557,-0.8825073,0.11224365
1725700615989,2024-09-07T09:16:55.989Z,96587,-0.41656494,-0.84802246,0.07519531
1725700616029,2024-09-07T09:16:56.029Z,96627,-0.45013428,-0.83721924,0.10644531
1725700616083,2024-09-07T09:16:56.083Z,96681,-0.41363525,-0.8594971,0.09375
1725700616124,2024-09-07T09:16:56.124Z,96722,-0.46813965,-0.87145996,0.09832764
1725700616163,2024-09-07T09:16:56.163Z,96761,-0.46020508,-0.88238525,0.09057617
1725700616181,2024-09-07T09:16:56.181Z,96779,-0.45013428,-0.89086914,0.093811035
1725700616204,2024-09-07T09:16:56.204Z,96802,-0.46203613,-0.88586426,0.11853027
1725700616250,2024-09-07T09:16:56.250Z,96848,-0.41522217,-0.89068604,0.08935547
1725700616296,2024-09-07T09:16:56.296Z,96894,-0.46002197,-0.88079834,0.1303711
1725700616341,2024-09-07T09:16:56.341Z,96939,-0.4169922,-0.9032593,0.09716797
1725700616383,2024-09-07T09:16:56.383Z,96981,-0.43536377,-0.8920288,0.10748291
1725700616473,2024-09-07T09:16:56.473Z,97071,-0.39904785,-0.90185547,0.062194824
1725700616483,2024-09-07T09:16:56.483Z,97081,-0.49163818,-0.9215088,0.13366699
1725700616518,2024-09-07T09:16:56.518Z,97116,-0.440979,-0.9332886,0.07165527
