Timestamp (ms),ISO DateTime,Elapsed Time (ms),Acceleration X,Acceleration Y,Acceleration Z
1734715179699,2024-12-20T17:19:39.699Z,333206,-0.030761719,-0.11566162,0.03668213
1734715179717,2024-12-20T17:19:39.717Z,333224,-0.03326416,-0.11505127,0.036010742
1734715179731,2024-12-20T17:19:39.731Z,333238,-0.032409668,-0.115112305,0.039123535
1734715179746,2024-12-20T17:19:39.746Z,333253,-0.03137207,-0.11462402,0.038330078
1734715179759,2024-12-20T17:19:39.759Z,333266,-0.031311035,-0.11444092,0.038269043
1734715179771,2024-12-20T17:19:39.771Z,333278,-0.032409668,-0.114746094,0.03881836
1734715179786,2024-12-20T17:19:39.786Z,333293,-0.03326416,-0.113586426,0.03967285
1734715179801,2024-12-20T17:19:39.801Z,333308,-0.033081055,-0.11401367,0.036743164
1734715179813,2024-12-20T17:19:39.813Z,333320,-0.032470703,-0.11505127,0.03479004
1734715179825,2024-12-20T17:19:39.825Z,333332,-0.032714844,-0.11383057,0.037231445
1734715179837,2024-12-20T17:19:39.837Z,333344,-0.031921387,-0.11352539,0.038269043
1734715179846,2024-12-20T17:19:39.846Z,333353,-0.032043457,-0.11328125,0.04058838
1734715179854,2024-12-20T17:19:39.854Z,333361,-0.033813477,-0.11328125,0.040039062
1734715179862,2024-12-20T17:19:39.862Z,333369,-0.033203125,-0.11303711,0.040222168
1734715179870,2024-12-20T17:19:39.870Z,333377,-0.031982422,-0.11206055,0.040100098
1734715179880,2024-12-20T17:19:39.880Z,333387,-0.032592773,-0.11273193,0.035461426
1734715179889,2024-12-20T17:19:39.889Z,333396,-0.03112793,-0.11401367,0.033447266
1734715179897,2024-12-20T17:19:39.897Z,333404,-0.030883789,-0.11206055,0.036254883
1734715179906,2024-12-20T17:19:39.906Z,333413,-0.032043457,-0.1126709,0.0390625
1734715179914,2024-12-20T17:19:39.914Z,333421,-0.031311035,-0.113342285,0.03955078
1734715179923,2024-12-20T17:19:39.923Z,333430,-0.031677246,-0.11260986,0.038757324
1734715179932,2024-12-20T17:19:39.932Z,333439,-0.032104492,-0.11218262,0.040039062
1734715179940,2024-12-20T17:19:39.940Z,333447,-0.030639648,-0.1104126,0.039733887
1734715179948,2024-12-20T17:19:39.948Z,333455,-0.030395508,-0.11022949,0.03930664
1734715179958,2024-12-20T17:19:39.958Z,333465,-0.032714844,-0.11126709,0.034851074
1734715179967,2024-12-20T17:19:39.967Z,333474,-0.031433105,-0.11187744,0.035217285
1734715179975,2024-12-20T17:19:39.975Z,333482,-0.032348633,-0.11053467,0.036315918
1734715179990,2024-12-20T17:19:39.990Z,333497,-0.030639648,-0.111694336,0.03564453
1734715179998,2024-12-20T17:19:39.998Z,333505,-0.03149414,-0.11065674,0.038085938
1734715180006,2024-12-20T17:19:40.006Z,333513,-0.031066895,-0.11236572,0.03942871
1734715180013,2024-12-20T17:19:40.013Z,333520,-0.030944824,-0.11212158,0.041625977
1734715180021,2024-12-20T17:19:40.021Z,333528,-0.03161621,-0.113220215,0.041931152
1734715180029,2024-12-20T17:19:40.029Z,333536,-0.031799316,-0.11364746,0.03918457
1734715180040,2024-12-20T17:19:40.040Z,333547,-0.032958984,-0.11419678,0.036071777
1734715180050,2024-12-20T17:19:40.050Z,333557,-0.031921387,-0.11505127,0.03717041
1734715180060,2024-12-20T17:19:40.060Z,333567,-0.03125,-0.11480713,0.039733887
1734715180070,2024-12-20T17:19:40.070Z,333577,-0.029907227,-0.1149292,0.038208008
1734715180080,2024-12-20T17:19:40.080Z,333587,-0.030334473,-0.115234375,0.040161133
1734715180090,2024-12-20T17:19:40.090Z,333597,-0.030822754,-0.114990234,0.04333496
1734715180099,2024-12-20T17:19:40.099Z,333606,-0.031311035,-0.11480713,0.040405273
1734715180108,2024-12-20T17:19:40.108Z,333615,-0.03375244,-0.11663818,0.036010742
1734715180115,2024-12-20T17:19:40.115Z,333622,-0.031555176,-0.11627197,0.038330078
1734715180123,2024-12-20T17:19:40.123Z,333630,-0.029724121,-0.11553955,0.0357666
1734715180131,2024-12-20T17:19:40.131Z,333638,-0.030822754,-0.115356445,0.035705566
1734715180139,2024-12-20T17:19:40.139Z,333646,-0.03302002,-0.11566162,0.03778076
1734715180147,2024-12-20T17:19:40.147Z,333654,-0.030517578,-0.11541748,0.03930664
1734715180155,2024-12-20T17:19:40.155Z,333662,-0.03289795,-0.11456299,0.038757324
1734715180164,2024-12-20T17:19:40.164Z,333671,-0.033813477,-0.11553955,0.03704834
1734715180172,2024-12-20T17:19:40.172Z,333679,-0.03289795,-0.1159668,0.039978027
1734715180185,2024-12-20T17:19:40.185Z,333692,-0.032165527,-0.11529541,0.03765869
1734715180196,2024-12-20T17:19:40.196Z,333703,-0.030883789,-0.11566162,0.032836914
1734715180206,2024-12-20T17:19:40.206Z,333713,-0.031311035,-0.11621094,0.03491211
1734715180215,2024-12-20T17:19:40.215Z,333722,-0.03289795,-0.11584473,0.03845215
1734715180224,2024-12-20T17:19:40.224Z,333731,-0.032104492,-0.11529541,0.039123535
1734715180234,2024-12-20T17:19:40.234Z,333741,-0.03314209,-0.1149292,0.038024902
1734715180243,2024-12-20T17:19:40.243Z,333750,-0.033081055,-0.11505127,0.039001465
1734715180254,2024-12-20T17:19:40.254Z,333761,-0.032958984,-0.1138916,0.03930664
1734715180264,2024-12-20T17:19:40.264Z,333771,-0.033081055,-0.1126709,0.036010742
1734715180276,2024-12-20T17:19:40.276Z,333783,-0.032409668,-0.1138916,0.034057617
1734715180286,2024-12-20T17:19:40.286Z,333793,-0.030151367,-0.113220215,0.036132812
1734715180295,2024-12-20T17:19:40.295Z,333802,-0.028625488,-0.11138916,0.038635254
1734715180308,2024-12-20T17:19:40.308Z,333815,-0.03338623,-0.11114502,0.03967285
1734715180324,2024-12-20T17:19:40.324Z,333831,-0.034606934,-0.11303711,0.03717041
1734715180336,2024-12-20T17:19:40.336Z,333843,-0.035095215,-0.11212158,0.037353516
1734715180345,2024-12-20T17:19:40.345Z,333852,-0.033325195,-0.11230469,0.038024902
1734715180354,2024-12-20T17:19:40.354Z,333861,-0.0335083,-0.11138916,0.03717041
1734715180367,2024-12-20T17:19:40.367Z,333874,-0.03326416,-0.11273193,0.034484863
1734715180378,2024-12-20T17:19:40.378Z,333885,-0.033081055,-0.11193848,0.0368042
1734715180387,2024-12-20T17:19:40.387Z,333894,-0.03326416,-0.11187744,0.040283203
1734715180397,2024-12-20T17:19:40.397Z,333904,-0.0345459,-0.110839844,0.039855957
1734715180406,2024-12-20T17:19:40.406Z,333913,-0.034118652,-0.111572266,0.03704834
1734715180415,2024-12-20T17:19:40.415Z,333922,-0.035888672,-0.11090088,0.036254883
1734715180424,2024-12-20T17:19:40.424Z,333931,-0.036621094,-0.11212158,0.034973145
1734715180433,2024-12-20T17:19:40.433Z,333940,-0.03375244,-0.11236572,0.03363037
1734715180442,2024-12-20T17:19:40.442Z,333949,-0.032470703,-0.11260986,0.033447266
1734715180450,2024-12-20T17:19:40.450Z,333957,-0.033081055,-0.11254883,0.037963867
1734715180458,2024-12-20T17:19:40.458Z,333965,-0.032714844,-0.11065674,0.04071045
1734715180467,2024-12-20T17:19:40.467Z,333974,-0.033996582,-0.11022949,0.037963867
1734715180477,2024-12-20T17:19:40.477Z,333984,-0.037841797,-0.11236572,0.034118652
1734715180485,2024-12-20T17:19:40.485Z,333992,-0.03656006,-0.113342285,0.034179688
1734715180501,2024-12-20T17:19:40.501Z,334008,-0.035217285,-0.11303711,0.03338623
1734715180511,2024-12-20T17:19:40.511Z,334018,-0.03186035,-0.11352539,0.034484863
1734715180519,2024-12-20T17:19:40.519Z,334026,-0.032226562,-0.111328125,0.037597656
1734715180525,2024-12-20T17:19:40.525Z,334032,-0.034484863,-0.11151123,0.0390625
1734715180533,2024-12-20T17:19:40.533Z,334040,-0.034729004,-0.11090088,0.037475586
1734715180545,2024-12-20T17:19:40.545Z,334052,-0.034729004,-0.109191895,0.035217285
1734715180554,2024-12-20T17:19:40.554Z,334061,-0.03643799,-0.10925293,0.033996582
1734715180563,2024-12-20T17:19:40.563Z,334070,-0.034423828,-0.10870361,0.032348633
1734715180571,2024-12-20T17:19:40.571Z,334078,-0.032104492,-0.11053467,0.031433105
1734715180592,2024-12-20T17:19:40.592Z,334099,-0.033996582,-0.10876465,0.035583496
1734715180601,2024-12-20T17:19:40.601Z,334108,-0.03479004,-0.109375,0.03765869
1734715180610,2024-12-20T17:19:40.610Z,334117,-0.033813477,-0.107788086,0.038330078
1734715180618,2024-12-20T17:19:40.618Z,334125,-0.035217285,-0.10797119,0.03845215
1734715180626,2024-12-20T17:19:40.626Z,334133,-0.03540039,-0.107543945,0.03363037
1734715180635,2024-12-20T17:19:40.635Z,334142,-0.034484863,-0.10675049,0.032958984
1734715180643,2024-12-20T17:19:40.643Z,334150,-0.034179688,-0.10559082,0.03302002
1734715180652,2024-12-20T17:19:40.652Z,334159,-0.03387451,-0.107055664,0.03149414
1734715180659,2024-12-20T17:19:40.659Z,334166,-0.033691406,-0.105895996,0.036621094
1734715180683,2024-12-20T17:19:40.683Z,334190,-0.03717041,-0.10601807,0.03741455
1734715180692,2024-12-20T17:19:40.692Z,334199,-0.035583496,-0.107666016,0.036499023
1734715180701,2024-12-20T17:19:40.701Z,334208,-0.03503418,-0.10479736,0.034240723
1734715180710,2024-12-20T17:19:40.710Z,334217,-0.03302002,-0.105651855,0.035461426
1734715180773,2024-12-20T17:19:40.773Z,334280,-0.030212402,-0.10760498,0.036621094
1734715180781,2024-12-20T17:19:40.781Z,334288,-0.031921387,-0.10418701,0.036987305
1734715180790,2024-12-20T17:19:40.790Z,334297,-0.033691406,-0.107543945,0.031799316
1734715180797,2024-12-20T17:19:40.797Z,334304,-0.030639648,-0.10473633,0.03527832
1734715180805,2024-12-20T17:19:40.805Z,334312,-0.027038574,-0.103271484,0.03564453
1734715180814,2024-12-20T17:19:40.814Z,334321,-0.026550293,-0.09979248,0.03149414
1734715180823,2024-12-20T17:19:40.823Z,334330,-0.028869629,-0.101623535,0.034362793
1734715180831,2024-12-20T17:19:40.831Z,334338,-0.026611328,-0.10205078,0.038757324
1734715180838,2024-12-20T17:19:40.838Z,334345,-0.023925781,-0.10107422,0.039611816
1734715180847,2024-12-20T17:19:40.847Z,334354,-0.024230957,-0.09899902,0.037475586
1734715180856,2024-12-20T17:19:40.856Z,334363,-0.02923584,-0.10076904,0.032104492
1734715180866,2024-12-20T17:19:40.866Z,334373,-0.028320312,-0.1027832,0.028564453
1734715180876,2024-12-20T17:19:40.876Z,334383,-0.02331543,-0.10015869,0.034973145
1734715180905,2024-12-20T17:19:40.905Z,334412,-0.024353027,-0.09893799,0.039001465
1734715180915,2024-12-20T17:19:40.915Z,334422,-0.02355957,-0.10168457,0.031066895
1734715180923,2024-12-20T17:19:40.923Z,334430,-0.026367188,-0.10266113,0.03302002
1734715180930,2024-12-20T17:19:40.930Z,334437,-0.02734375,-0.10479736,0.036132812
1734715180940,2024-12-20T17:19:40.940Z,334447,-0.025817871,-0.10675049,0.026733398
1734715180949,2024-12-20T17:19:40.949Z,334456,-0.02319336,-0.10925293,0.028015137
1734715180957,2024-12-20T17:19:40.957Z,334464,-0.01965332,-0.108947754,0.03778076
1734715180965,2024-12-20T17:19:40.965Z,334472,-0.020080566,-0.10925293,0.034179688
1734715180974,2024-12-20T17:19:40.974Z,334481,-0.02545166,-0.10662842,0.036376953
1734715180983,2024-12-20T17:19:40.983Z,334490,-0.028015137,-0.10662842,0.037475586
1734715180991,2024-12-20T17:19:40.991Z,334498,-0.026855469,-0.10675049,0.031066895
1734715181003,2024-12-20T17:19:41.003Z,334510,-0.02508545,-0.10699463,0.030456543
1734715181013,2024-12-20T17:19:41.013Z,334520,-0.024047852,-0.10583496,0.034729004
1734715181021,2024-12-20T17:19:41.021Z,334528,-0.02319336,-0.107055664,0.030395508
1734715181029,2024-12-20T17:19:41.029Z,334536,-0.023498535,-0.10900879,0.028625488
1734715181036,2024-12-20T17:19:41.036Z,334543,-0.026611328,-0.109069824,0.037109375
1734715181049,2024-12-20T17:19:41.049Z,334556,-0.024169922,-0.10797119,0.03717041
1734715181062,2024-12-20T17:19:41.062Z,334569,-0.022888184,-0.10821533,0.039978027
1734715181073,2024-12-20T17:19:41.073Z,334580,-0.026184082,-0.10858154,0.03869629
1734715181079,2024-12-20T17:19:41.079Z,334586,-0.023071289,-0.11260986,0.029846191
1734715181089,2024-12-20T17:19:41.089Z,334596,-0.02319336,-0.111572266,0.030090332
1734715181095,2024-12-20T17:19:41.095Z,334602,-0.022155762,-0.11431885,0.026916504
1734715181103,2024-12-20T17:19:41.103Z,334610,-0.023925781,-0.11566162,0.023742676
1734715181110,2024-12-20T17:19:41.110Z,334617,-0.027526855,-0.11517334,0.033569336
1734715181117,2024-12-20T17:19:41.117Z,334624,-0.030639648,-0.11657715,0.04144287
1734715181125,2024-12-20T17:19:41.125Z,334632,-0.02520752,-0.11590576,0.040222168
1734715181135,2024-12-20T17:19:41.135Z,334642,-0.022827148,-0.115112305,0.03527832
1734715181142,2024-12-20T17:19:41.142Z,334649,-0.026611328,-0.11834717,0.03125
1734715181149,2024-12-20T17:19:41.149Z,334656,-0.029052734,-0.11444092,0.040283203
1734715181157,2024-12-20T17:19:41.157Z,334664,-0.029052734,-0.1159668,0.031433105
1734715181179,2024-12-20T17:19:41.179Z,334686,-0.032165527,-0.118896484,0.022766113
1734715181186,2024-12-20T17:19:41.186Z,334693,-0.03302002,-0.1184082,0.03112793
1734715181193,2024-12-20T17:19:41.193Z,334700,-0.031433105,-0.12042236,0.03277588
1734715181200,2024-12-20T17:19:41.200Z,334707,-0.030822754,-0.11517334,0.04510498
1734715181207,2024-12-20T17:19:41.207Z,334714,-0.021484375,-0.11846924,0.049926758
1734715181219,2024-12-20T17:19:41.219Z,334726,-0.026184082,-0.121032715,0.028442383
1734715181226,2024-12-20T17:19:41.226Z,334733,-0.034973145,-0.11663818,0.033996582
1734715181234,2024-12-20T17:19:41.234Z,334741,-0.030639648,-0.11871338,0.026550293
1734715181240,2024-12-20T17:19:41.240Z,334747,-0.032470703,-0.11816406,0.018615723
1734715181247,2024-12-20T17:19:41.247Z,334754,-0.03302002,-0.11505127,0.030273438
1734715181253,2024-12-20T17:19:41.253Z,334760,-0.032287598,-0.11517334,0.039611816
1734715181268,2024-12-20T17:19:41.268Z,334775,-0.033203125,-0.11395264,0.035095215
1734715181276,2024-12-20T17:19:41.276Z,334783,-0.035888672,-0.11584473,0.033203125
1734715181284,2024-12-20T17:19:41.284Z,334791,-0.033691406,-0.11663818,0.032836914
1734715181292,2024-12-20T17:19:41.292Z,334799,-0.032226562,-0.11505127,0.032409668
1734715181310,2024-12-20T17:19:41.310Z,334817,-0.030578613,-0.115722656,0.03491211
1734715181316,2024-12-20T17:19:41.316Z,334823,-0.030883789,-0.1184082,0.023498535
1734715181323,2024-12-20T17:19:41.323Z,334830,-0.03503418,-0.119384766,0.024414062
1734715181329,2024-12-20T17:19:41.329Z,334836,-0.03552246,-0.11798096,0.038879395
1734715181355,2024-12-20T17:19:41.355Z,334862,-0.031677246,-0.1194458,0.03326416
1734715181362,2024-12-20T17:19:41.362Z,334869,-0.037963867,-0.11669922,0.034362793
1734715181369,2024-12-20T17:19:41.369Z,334876,-0.03753662,-0.12030029,0.037902832
1734715181376,2024-12-20T17:19:41.376Z,334883,-0.037475586,-0.12060547,0.027404785
1734715181382,2024-12-20T17:19:41.382Z,334889,-0.033691406,-0.11968994,0.025939941
1734715181401,2024-12-20T17:19:41.401Z,334908,-0.02935791,-0.117248535,0.032958984
1734715181408,2024-12-20T17:19:41.408Z,334915,-0.029846191,-0.114990234,0.033569336
1734715181415,2024-12-20T17:19:41.415Z,334922,-0.03277588,-0.113464355,0.037963867
1734715181422,2024-12-20T17:19:41.422Z,334929,-0.041748047,-0.115722656,0.044677734
1734715181491,2024-12-20T17:19:41.491Z,334998,-0.041931152,-0.114868164,0.03564453
1734715181498,2024-12-20T17:19:41.498Z,335005,-0.03741455,-0.114990234,0.030334473
1734715181504,2024-12-20T17:19:41.504Z,335011,-0.031982422,-0.115356445,0.02520752
1734715181512,2024-12-20T17:19:41.512Z,335019,-0.026489258,-0.11303711,0.024658203
1734715181520,2024-12-20T17:19:41.520Z,335027,-0.025939941,-0.109313965,0.034240723
1734715181527,2024-12-20T17:19:41.527Z,335034,-0.024414062,-0.11291504,0.04296875
1734715181539,2024-12-20T17:19:41.539Z,335046,-0.027648926,-0.11065674,0.040405273
1734715181547,2024-12-20T17:19:41.547Z,335054,-0.036743164,-0.11328125,0.04437256
1734715181554,2024-12-20T17:19:41.554Z,335061,-0.035827637,-0.11395264,0.028442383
1734715181564,2024-12-20T17:19:41.564Z,335071,-0.031921387,-0.11376953,0.019714355
1734715181572,2024-12-20T17:19:41.572Z,335079,-0.029785156,-0.11639404,0.029846191
1734715181581,2024-12-20T17:19:41.581Z,335088,-0.023254395,-0.118896484,0.029724121
1734715181590,2024-12-20T17:19:41.590Z,335097,-0.031188965,-0.11816406,0.038757324
1734715181599,2024-12-20T17:19:41.599Z,335106,-0.031555176,-0.117614746,0.043029785
1734715181607,2024-12-20T17:19:41.607Z,335114,-0.030761719,-0.1171875,0.040405273
1734715181613,2024-12-20T17:19:41.613Z,335120,-0.034118652,-0.11846924,0.037475586
1734715181620,2024-12-20T17:19:41.620Z,335127,-0.034423828,-0.11846924,0.03704834
1734715181627,2024-12-20T17:19:41.627Z,335134,-0.032836914,-0.118652344,0.032409668
1734715181634,2024-12-20T17:19:41.634Z,335141,-0.031982422,-0.11968994,0.03656006
1734715181643,2024-12-20T17:19:41.643Z,335150,-0.028381348,-0.11932373,0.040771484
1734715181650,2024-12-20T17:19:41.650Z,335157,-0.0289917,-0.11743164,0.039367676
1734715181657,2024-12-20T17:19:41.657Z,335164,-0.031555176,-0.116882324,0.036376953
1734715181670,2024-12-20T17:19:41.670Z,335177,-0.029846191,-0.11517334,0.03253174
1734715181679,2024-12-20T17:19:41.679Z,335186,-0.030639648,-0.11541748,0.030456543
1734715181688,2024-12-20T17:19:41.688Z,335195,-0.029785156,-0.117492676,0.03186035
1734715181699,2024-12-20T17:19:41.699Z,335206,-0.028808594,-0.11639404,0.03930664
1734715181707,2024-12-20T17:19:41.707Z,335214,-0.0335083,-0.11462402,0.041748047
1734715181716,2024-12-20T17:19:41.716Z,335223,-0.026123047,-0.11975098,0.031433105
1734715181724,2024-12-20T17:19:41.724Z,335231,-0.032836914,-0.11279297,0.040100098
1734715181731,2024-12-20T17:19:41.731Z,335238,-0.028869629,-0.117248535,0.038757324
1734715181739,2024-12-20T17:19:41.739Z,335246,-0.030212402,-0.117004395,0.030151367
1734715181760,2024-12-20T17:19:41.760Z,335267,-0.034301758,-0.11968994,0.034057617
1734715181768,2024-12-20T17:19:41.768Z,335275,-0.03338623,-0.12072754,0.038146973
1734715181775,2024-12-20T17:19:41.775Z,335282,-0.033447266,-0.11956787,0.040527344
1734715181784,2024-12-20T17:19:41.784Z,335291,-0.03302002,-0.12109375,0.034301758
1734715181791,2024-12-20T17:19:41.791Z,335298,-0.030029297,-0.122680664,0.028747559
1734715181805,2024-12-20T17:19:41.805Z,335312,-0.029541016,-0.1194458,0.028747559
1734715181813,2024-12-20T17:19:41.813Z,335320,-0.034851074,-0.117614746,0.032104492
1734715181819,2024-12-20T17:19:41.819Z,335326,-0.036071777,-0.11730957,0.033691406
1734715181826,2024-12-20T17:19:41.826Z,335333,-0.04321289,-0.12213135,0.042175293
1734715181849,2024-12-20T17:19:41.849Z,335356,-0.04748535,-0.12451172,0.040649414
1734715181856,2024-12-20T17:19:41.856Z,335363,-0.043823242,-0.12030029,0.032409668
1734715181898,2024-12-20T17:19:41.898Z,335405,-0.040527344,-0.12054443,0.034301758
1734715181906,2024-12-20T17:19:41.906Z,335413,-0.036132812,-0.11993408,0.038208008
1734715181915,2024-12-20T17:19:41.915Z,335422,-0.032165527,-0.115600586,0.03338623
1734715181923,2024-12-20T17:19:41.923Z,335430,-0.04095459,-0.11419678,0.034362793
1734715181932,2024-12-20T17:19:41.932Z,335439,-0.043395996,-0.1171875,0.033325195
1734715181940,2024-12-20T17:19:41.940Z,335447,-0.04071045,-0.11633301,0.032836914
1734715181948,2024-12-20T17:19:41.948Z,335455,-0.04083252,-0.11706543,0.040222168
1734715181955,2024-12-20T17:19:41.955Z,335462,-0.03729248,-0.11895752,0.037719727
1734715181962,2024-12-20T17:19:41.962Z,335469,-0.03845215,-0.11816406,0.03466797
1734715181970,2024-12-20T17:19:41.970Z,335477,-0.035461426,-0.11694336,0.039611816
1734715181978,2024-12-20T17:19:41.978Z,335485,-0.032043457,-0.11328125,0.0390625
1734715181989,2024-12-20T17:19:41.989Z,335496,-0.034057617,-0.11340332,0.03656006
1734715181998,2024-12-20T17:19:41.998Z,335505,-0.035217285,-0.113464355,0.03552246
1734715182004,2024-12-20T17:19:42.004Z,335511,-0.037719727,-0.11663818,0.034179688
1734715182012,2024-12-20T17:19:42.012Z,335519,-0.037353516,-0.11730957,0.038146973
1734715182020,2024-12-20T17:19:42.020Z,335527,-0.033569336,-0.11407471,0.041809082
1734715182029,2024-12-20T17:19:42.029Z,335536,-0.03112793,-0.11431885,0.042663574
1734715182036,2024-12-20T17:19:42.036Z,335543,-0.030395508,-0.11328125,0.041137695
1734715182044,2024-12-20T17:19:42.044Z,335551,-0.033691406,-0.11218262,0.03564453
1734715182052,2024-12-20T17:19:42.052Z,335559,-0.03137207,-0.11340332,0.032043457
1734715182075,2024-12-20T17:19:42.075Z,335582,-0.03125,-0.11236572,0.033813477
1734715182082,2024-12-20T17:19:42.082Z,335589,-0.02947998,-0.11224365,0.03753662
1734715182089,2024-12-20T17:19:42.089Z,335596,-0.030151367,-0.11340332,0.04168701
1734715182096,2024-12-20T17:19:42.096Z,335603,-0.030395508,-0.11425781,0.03930664
1734715182103,2024-12-20T17:19:42.103Z,335610,-0.03253174,-0.113708496,0.035583496
1734715182119,2024-12-20T17:19:42.119Z,335626,-0.03265381,-0.11645508,0.037231445
1734715182168,2024-12-20T17:19:42.168Z,335675,-0.02935791,-0.11413574,0.035949707
1734715182178,2024-12-20T17:19:42.178Z,335685,-0.030761719,-0.11517334,0.03338623
1734715182189,2024-12-20T17:19:42.189Z,335696,-0.03173828,-0.116882324,0.038024902
1734715182198,2024-12-20T17:19:42.198Z,335705,-0.03277588,-0.118652344,0.04058838
1734715182207,2024-12-20T17:19:42.207Z,335714,-0.037109375,-0.119262695,0.040771484
1734715182216,2024-12-20T17:19:42.216Z,335723,-0.037841797,-0.11834717,0.042907715
1734715182225,2024-12-20T17:19:42.225Z,335732,-0.036071777,-0.11791992,0.04296875
1734715182232,2024-12-20T17:19:42.232Z,335739,-0.034240723,-0.11669922,0.038879395
1734715182240,2024-12-20T17:19:42.240Z,335747,-0.03100586,-0.11853027,0.03466797
1734715182248,2024-12-20T17:19:42.248Z,335755,-0.03656006,-0.11907959,0.03643799
1734715182258,2024-12-20T17:19:42.258Z,335765,-0.032165527,-0.118774414,0.033569336
1734715182265,2024-12-20T17:19:42.265Z,335772,-0.030517578,-0.11566162,0.035888672
1734715182272,2024-12-20T17:19:42.272Z,335779,-0.031921387,-0.11730957,0.044128418
1734715182281,2024-12-20T17:19:42.281Z,335788,-0.0357666,-0.1161499,0.04559326
1734715182290,2024-12-20T17:19:42.290Z,335797,-0.035583496,-0.115600586,0.041503906
1734715182299,2024-12-20T17:19:42.299Z,335806,-0.03363037,-0.117492676,0.036071777
1734715182308,2024-12-20T17:19:42.308Z,335815,-0.030212402,-0.1184082,0.034057617
1734715182315,2024-12-20T17:19:42.315Z,335822,-0.028320312,-0.11773682,0.039978027
1734715182323,2024-12-20T17:19:42.323Z,335830,-0.028869629,-0.117248535,0.04260254
1734715182331,2024-12-20T17:19:42.331Z,335838,-0.031311035,-0.11932373,0.042175293
1734715182338,2024-12-20T17:19:42.338Z,335845,-0.034179688,-0.119018555,0.045837402
1734715182345,2024-12-20T17:19:42.345Z,335852,-0.035705566,-0.11804199,0.043945312
1734715182351,2024-12-20T17:19:42.351Z,335858,-0.032043457,-0.118896484,0.03643799
1734715182359,2024-12-20T17:19:42.359Z,335866,-0.030212402,-0.119140625,0.031982422
1734715182370,2024-12-20T17:19:42.370Z,335877,-0.03112793,-0.120666504,0.035461426
1734715182389,2024-12-20T17:19:42.389Z,335896,-0.026367188,-0.11975098,0.036193848
1734715182395,2024-12-20T17:19:42.395Z,335902,-0.03137207,-0.11853027,0.042114258
1734715182402,2024-12-20T17:19:42.402Z,335909,-0.031799316,-0.12005615,0.04156494
1734715182409,2024-12-20T17:19:42.409Z,335916,-0.03503418,-0.121032715,0.03881836
1734715182416,2024-12-20T17:19:42.416Z,335923,-0.03765869,-0.12219238,0.038757324
1734715182434,2024-12-20T17:19:42.434Z,335941,-0.03564453,-0.11999512,0.039733887
1734715182443,2024-12-20T17:19:42.443Z,335950,-0.03173828,-0.12036133,0.036865234
1734715182450,2024-12-20T17:19:42.450Z,335957,-0.031799316,-0.1217041,0.034606934
1734715182458,2024-12-20T17:19:42.458Z,335965,-0.032348633,-0.121276855,0.035583496
1734715182481,2024-12-20T17:19:42.481Z,335988,-0.033935547,-0.119018555,0.04058838
1734715182488,2024-12-20T17:19:42.488Z,335995,-0.036743164,-0.12023926,0.039489746
1734715182496,2024-12-20T17:19:42.496Z,336003,-0.037963867,-0.12097168,0.0368042
1734715182503,2024-12-20T17:19:42.503Z,336010,-0.037109375,-0.11987305,0.03375244
1734715182510,2024-12-20T17:19:42.510Z,336017,-0.036132812,-0.12005615,0.038269043
1734715182524,2024-12-20T17:19:42.524Z,336031,-0.031921387,-0.1182251,0.03967285
1734715182533,2024-12-20T17:19:42.533Z,336040,-0.03326416,-0.117614746,0.039916992
1734715182539,2024-12-20T17:19:42.539Z,336046,-0.035888672,-0.11621094,0.038757324
1734715182547,2024-12-20T17:19:42.547Z,336054,-0.036193848,-0.11584473,0.038146973
1734715182620,2024-12-20T17:19:42.620Z,336127,-0.033447266,-0.11505127,0.035705566
1734715182628,2024-12-20T17:19:42.628Z,336135,-0.03137207,-0.11425781,0.03503418
1734715182636,2024-12-20T17:19:42.636Z,336143,-0.029846191,-0.11437988,0.036987305
1734715182644,2024-12-20T17:19:42.644Z,336151,-0.028747559,-0.1138916,0.03503418
1734715182652,2024-12-20T17:19:42.652Z,336159,-0.026611328,-0.11413574,0.03894043
1734715182660,2024-12-20T17:19:42.660Z,336167,-0.029785156,-0.11315918,0.040893555
1734715182706,2024-12-20T17:19:42.706Z,336213,-0.031921387,-0.11230469,0.038391113
1734715182715,2024-12-20T17:19:42.715Z,336222,-0.032958984,-0.11395264,0.033691406
1734715182723,2024-12-20T17:19:42.723Z,336230,-0.032043457,-0.11621094,0.032043457
1734715182731,2024-12-20T17:19:42.731Z,336238,-0.0289917,-0.11663818,0.03375244
1734715182739,2024-12-20T17:19:42.739Z,336246,-0.025390625,-0.116882324,0.036987305
1734715182746,2024-12-20T17:19:42.746Z,336253,-0.026611328,-0.11828613,0.0390625
1734715182753,2024-12-20T17:19:42.753Z,336260,-0.031677246,-0.11743164,0.0413208
1734715182760,2024-12-20T17:19:42.760Z,336267,-0.03161621,-0.116760254,0.03930664
1734715182768,2024-12-20T17:19:42.768Z,336275,-0.037231445,-0.11846924,0.037109375
1734715182775,2024-12-20T17:19:42.775Z,336282,-0.037231445,-0.119506836,0.03277588
1734715182782,2024-12-20T17:19:42.782Z,336289,-0.032714844,-0.12011719,0.03289795
1734715182794,2024-12-20T17:19:42.794Z,336301,-0.029907227,-0.11981201,0.035888672
1734715182800,2024-12-20T17:19:42.800Z,336307,-0.02923584,-0.1194458,0.038879395
1734715182807,2024-12-20T17:19:42.807Z,336314,-0.032958984,-0.11999512,0.03778076
1734715182815,2024-12-20T17:19:42.815Z,336322,-0.036376953,-0.12017822,0.03918457
1734715182823,2024-12-20T17:19:42.823Z,336330,-0.035949707,-0.11791992,0.036254883
1734715182830,2024-12-20T17:19:42.830Z,336337,-0.03515625,-0.11810303,0.034423828
1734715182842,2024-12-20T17:19:42.842Z,336349,-0.033325195,-0.119384766,0.036132812
1734715182851,2024-12-20T17:19:42.851Z,336358,-0.030944824,-0.120788574,0.03302002
1734715182859,2024-12-20T17:19:42.859Z,336366,-0.027709961,-0.12109375,0.033569336
1734715182867,2024-12-20T17:19:42.867Z,336374,-0.03149414,-0.12097168,0.041931152
1734715182873,2024-12-20T17:19:42.873Z,336380,-0.028930664,-0.12042236,0.041137695
1734715182883,2024-12-20T17:19:42.883Z,336390,-0.030029297,-0.119384766,0.039611816
1734715182890,2024-12-20T17:19:42.890Z,336397,-0.032470703,-0.11987305,0.039978027
1734715182896,2024-12-20T17:19:42.896Z,336403,-0.03277588,-0.121398926,0.036376953
1734715182903,2024-12-20T17:19:42.903Z,336410,-0.030334473,-0.12390137,0.03137207
1734715182910,2024-12-20T17:19:42.910Z,336417,-0.02734375,-0.12640381,0.032470703
1734715182918,2024-12-20T17:19:42.918Z,336425,-0.026672363,-0.12512207,0.039978027
1734715182933,2024-12-20T17:19:42.933Z,336440,-0.030395508,-0.12475586,0.045959473
1734715182940,2024-12-20T17:19:42.940Z,336447,-0.032958984,-0.123291016,0.044433594
1734715182947,2024-12-20T17:19:42.947Z,336454,-0.03753662,-0.12475586,0.040893555
1734715182954,2024-12-20T17:19:42.954Z,336461,-0.04144287,-0.12683105,0.035217285
1734715182961,2024-12-20T17:19:42.961Z,336468,-0.036376953,-0.12512207,0.031982422
1734715182974,2024-12-20T17:19:42.974Z,336481,-0.030212402,-0.12335205,0.035827637
1734715182982,2024-12-20T17:19:42.982Z,336489,-0.030212402,-0.12261963,0.03552246
1734715182989,2024-12-20T17:19:42.989Z,336496,-0.032470703,-0.12298584,0.036315918
1734715183020,2024-12-20T17:19:43.020Z,336527,-0.03656006,-0.12109375,0.041870117
1734715183027,2024-12-20T17:19:43.027Z,336534,-0.037353516,-0.12011719,0.038513184
1734715183034,2024-12-20T17:19:43.034Z,336541,-0.038208008,-0.12030029,0.03503418
1734715183040,2024-12-20T17:19:43.040Z,336547,-0.035095215,-0.119506836,0.039245605
1734715183047,2024-12-20T17:19:43.047Z,336554,-0.03387451,-0.11651611,0.03729248
1734715183054,2024-12-20T17:19:43.054Z,336561,-0.031311035,-0.11639404,0.033569336
1734715183068,2024-12-20T17:19:43.068Z,336575,-0.033203125,-0.11627197,0.0390625
1734715183074,2024-12-20T17:19:43.074Z,336581,-0.034118652,-0.114990234,0.03942871
1734715183083,2024-12-20T17:19:43.083Z,336590,-0.034606934,-0.115478516,0.038513184
1734715183094,2024-12-20T17:19:43.094Z,336601,-0.035583496,-0.11651611,0.036010742
1734715183101,2024-12-20T17:19:43.101Z,336608,-0.034240723,-0.11791992,0.033203125
1734715183111,2024-12-20T17:19:43.111Z,336618,-0.030578613,-0.11791992,0.034240723
1734715183117,2024-12-20T17:19:43.117Z,336624,-0.028930664,-0.11785889,0.03338623
1734715183125,2024-12-20T17:19:43.125Z,336632,-0.03112793,-0.11853027,0.03564453
1734715183132,2024-12-20T17:19:43.132Z,336639,-0.0345459,-0.11804199,0.04058838
1734715183139,2024-12-20T17:19:43.139Z,336646,-0.03765869,-0.11785889,0.038757324
1734715183154,2024-12-20T17:19:43.154Z,336661,-0.03857422,-0.119262695,0.034729004
1734715183161,2024-12-20T17:19:43.161Z,336668,-0.036010742,-0.12054443,0.03479004
1734715183169,2024-12-20T17:19:43.169Z,336676,-0.034851074,-0.11920166,0.03314209
1734715183176,2024-12-20T17:19:43.176Z,336683,-0.02923584,-0.120666504,0.030517578
1734715183246,2024-12-20T17:19:43.246Z,336753,-0.029296875,-0.11999512,0.035461426
1734715183254,2024-12-20T17:19:43.254Z,336761,-0.035339355,-0.12188721,0.040100098
1734715183261,2024-12-20T17:19:43.261Z,336768,-0.038757324,-0.121398926,0.036315918
1734715183269,2024-12-20T17:19:43.269Z,336776,-0.038146973,-0.123291016,0.03741455
1734715183278,2024-12-20T17:19:43.278Z,336785,-0.034362793,-0.12512207,0.03552246
1734715183287,2024-12-20T17:19:43.287Z,336794,-0.034057617,-0.12561035,0.03363037
1734715183297,2024-12-20T17:19:43.297Z,336804,-0.029418945,-0.125,0.0345459
1734715183305,2024-12-20T17:19:43.305Z,336812,-0.028564453,-0.12567139,0.03918457
1734715183312,2024-12-20T17:19:43.312Z,336819,-0.0335083,-0.12658691,0.043273926
1734715183319,2024-12-20T17:19:43.319Z,336826,-0.03753662,-0.12640381,0.041137695
1734715183326,2024-12-20T17:19:43.326Z,336833,-0.039245605,-0.12921143,0.038330078
1734715183337,2024-12-20T17:19:43.337Z,336844,-0.038879395,-0.13146973,0.041137695
1734715183345,2024-12-20T17:19:43.345Z,336852,-0.03289795,-0.1303711,0.041503906
1734715183352,2024-12-20T17:19:43.352Z,336859,-0.030883789,-0.12854004,0.039978027
1734715183360,2024-12-20T17:19:43.360Z,336867,-0.03289795,-0.12988281,0.03668213
1734715183368,2024-12-20T17:19:43.368Z,336875,-0.035583496,-0.12982178,0.040222168
1734715183375,2024-12-20T17:19:43.375Z,336882,-0.036865234,-0.12731934,0.04248047
1734715183383,2024-12-20T17:19:43.383Z,336890,-0.037353516,-0.12719727,0.039733887
1734715183390,2024-12-20T17:19:43.390Z,336897,-0.036865234,-0.12683105,0.03942871
1734715183398,2024-12-20T17:19:43.398Z,336905,-0.034729004,-0.12731934,0.038391113
1734715183405,2024-12-20T17:19:43.405Z,336912,-0.031982422,-0.12597656,0.03552246
1734715183412,2024-12-20T17:19:43.412Z,336919,-0.029052734,-0.124572754,0.03479004
1734715183425,2024-12-20T17:19:43.425Z,336932,-0.031921387,-0.1237793,0.03955078
1734715183434,2024-12-20T17:19:43.434Z,336941,-0.03668213,-0.12414551,0.041137695
1734715183440,2024-12-20T17:19:43.440Z,336947,-0.036376953,-0.12426758,0.039123535
1734715183446,2024-12-20T17:19:43.446Z,336953,-0.03527832,-0.1239624,0.038024902
1734715183453,2024-12-20T17:19:43.453Z,336960,-0.032226562,-0.12384033,0.037963867
1734715183471,2024-12-20T17:19:43.471Z,336978,-0.031066895,-0.12243652,0.038269043
1734715183478,2024-12-20T17:19:43.478Z,336985,-0.03137207,-0.122924805,0.03503418
1734715183485,2024-12-20T17:19:43.485Z,336992,-0.027770996,-0.1251831,0.028869629
1734715183492,2024-12-20T17:19:43.492Z,336999,-0.03503418,-0.12420654,0.03479004
1734715183515,2024-12-20T17:19:43.515Z,337022,-0.038269043,-0.12512207,0.039611816
1734715183521,2024-12-20T17:19:43.521Z,337028,-0.03717041,-0.12536621,0.04046631
1734715183528,2024-12-20T17:19:43.528Z,337035,-0.03741455,-0.12512207,0.038879395
1734715183535,2024-12-20T17:19:43.535Z,337042,-0.033569336,-0.12573242,0.038024902
1734715183559,2024-12-20T17:19:43.559Z,337066,-0.031433105,-0.124816895,0.03918457
1734715183610,2024-12-20T17:19:43.610Z,337117,-0.031921387,-0.12371826,0.0390625
1734715183619,2024-12-20T17:19:43.619Z,337126,-0.033447266,-0.12298584,0.037841797
1734715183628,2024-12-20T17:19:43.628Z,337135,-0.036315918,-0.12347412,0.03918457
1734715183638,2024-12-20T17:19:43.638Z,337145,-0.03564453,-0.12371826,0.03692627
1734715183648,2024-12-20T17:19:43.648Z,337155,-0.032043457,-0.122924805,0.03479004
1734715183657,2024-12-20T17:19:43.657Z,337164,-0.032470703,-0.12249756,0.03918457
1734715183664,2024-12-20T17:19:43.664Z,337171,-0.029724121,-0.120910645,0.039367676
1734715183671,2024-12-20T17:19:43.671Z,337178,-0.030151367,-0.12030029,0.038085938
1734715183678,2024-12-20T17:19:43.678Z,337185,-0.031188965,-0.12133789,0.038146973
1734715183685,2024-12-20T17:19:43.685Z,337192,-0.03161621,-0.12017822,0.03729248
1734715183692,2024-12-20T17:19:43.692Z,337199,-0.03338623,-0.119140625,0.038757324
1734715183741,2024-12-20T17:19:43.741Z,337248,-0.035461426,-0.11956787,0.038146973
1734715183747,2024-12-20T17:19:43.747Z,337254,-0.03491211,-0.11956787,0.034973145
1734715183754,2024-12-20T17:19:43.754Z,337261,-0.03289795,-0.11773682,0.036376953
1734715183761,2024-12-20T17:19:43.761Z,337268,-0.031311035,-0.11773682,0.03717041
1734715183770,2024-12-20T17:19:43.770Z,337277,-0.028869629,-0.11639404,0.036071777
1734715183777,2024-12-20T17:19:43.777Z,337284,-0.029296875,-0.11639404,0.0345459
1734715183788,2024-12-20T17:19:43.788Z,337295,-0.031555176,-0.11437988,0.033569336
1734715183794,2024-12-20T17:19:43.794Z,337301,-0.03253174,-0.115478516,0.028564453
1734715183800,2024-12-20T17:19:43.800Z,337307,-0.03173828,-0.11651611,0.028503418
1734715183808,2024-12-20T17:19:43.808Z,337315,-0.029541016,-0.11608887,0.02557373
1734715183815,2024-12-20T17:19:43.815Z,337322,-0.029418945,-0.11590576,0.031433105
1734715183829,2024-12-20T17:19:43.829Z,337336,-0.028930664,-0.11566162,0.03881836
1734715183841,2024-12-20T17:19:43.841Z,337348,-0.028625488,-0.1159668,0.036315918
1734715183847,2024-12-20T17:19:43.847Z,337354,-0.0289917,-0.11566162,0.036499023
1734715183854,2024-12-20T17:19:43.854Z,337361,-0.03137207,-0.11480713,0.036071777
1734715183862,2024-12-20T17:19:43.862Z,337369,-0.032043457,-0.11419678,0.031677246
1734715183868,2024-12-20T17:19:43.868Z,337375,-0.03149414,-0.11431885,0.028015137
1734715183881,2024-12-20T17:19:43.881Z,337388,-0.03265381,-0.114746094,0.030822754
1734715183887,2024-12-20T17:19:43.887Z,337394,-0.03100586,-0.11212158,0.035339355
1734715183893,2024-12-20T17:19:43.893Z,337400,-0.029907227,-0.112854004,0.036865234
1734715183900,2024-12-20T17:19:43.900Z,337407,-0.030456543,-0.11364746,0.03491211
1734715183906,2024-12-20T17:19:43.906Z,337413,-0.028625488,-0.113342285,0.038024902
1734715183920,2024-12-20T17:19:43.920Z,337427,-0.03149414,-0.11260986,0.038879395
1734715183926,2024-12-20T17:19:43.926Z,337433,-0.03552246,-0.11102295,0.041625977
1734715183933,2024-12-20T17:19:43.933Z,337440,-0.028808594,-0.11590576,0.030151367
1734715183939,2024-12-20T17:19:43.939Z,337446,-0.031433105,-0.11187744,0.035888672
1734715183945,2024-12-20T17:19:43.945Z,337452,-0.032470703,-0.11230469,0.041870117
1734715183955,2024-12-20T17:19:43.955Z,337462,-0.02923584,-0.11462402,0.0335083
1734715183967,2024-12-20T17:19:43.967Z,337474,-0.029663086,-0.115356445,0.032165527
1734715183974,2024-12-20T17:19:43.974Z,337481,-0.031311035,-0.115112305,0.03857422
1734715183980,2024-12-20T17:19:43.980Z,337487,-0.028503418,-0.11627197,0.03552246
1734715183990,2024-12-20T17:19:43.990Z,337497,-0.026672363,-0.11816406,0.03173828
1734715183997,2024-12-20T17:19:43.997Z,337504,-0.030334473,-0.11706543,0.038879395
1734715184008,2024-12-20T17:19:44.008Z,337515,-0.029846191,-0.11627197,0.04095459
1734715184014,2024-12-20T17:19:44.014Z,337521,-0.030944824,-0.115722656,0.038024902
1734715184021,2024-12-20T17:19:44.021Z,337528,-0.032104492,-0.115356445,0.038757324
1734715184027,2024-12-20T17:19:44.027Z,337534,-0.032470703,-0.11450195,0.03717041
1734715184054,2024-12-20T17:19:44.054Z,337561,-0.032409668,-0.11437988,0.037963867
1734715184061,2024-12-20T17:19:44.061Z,337568,-0.030761719,-0.1138916,0.035095215
1734715184069,2024-12-20T17:19:44.069Z,337576,-0.029052734,-0.112976074,0.036132812
1734715184076,2024-12-20T17:19:44.076Z,337583,-0.030334473,-0.11218262,0.038208008
1734715184083,2024-12-20T17:19:44.083Z,337590,-0.03253174,-0.113586426,0.03375244
1734715184100,2024-12-20T17:19:44.100Z,337607,-0.030883789,-0.11248779,0.03302002
1734715184106,2024-12-20T17:19:44.106Z,337613,-0.032348633,-0.11199951,0.034973145
1734715184113,2024-12-20T17:19:44.113Z,337620,-0.034484863,-0.11218262,0.033325195
1734715184145,2024-12-20T17:19:44.145Z,337652,-0.031188965,-0.113708496,0.03326416
1734715184153,2024-12-20T17:19:44.153Z,337660,-0.030944824,-0.113342285,0.036010742
1734715184159,2024-12-20T17:19:44.159Z,337666,-0.030395508,-0.11254883,0.03765869
1734715184166,2024-12-20T17:19:44.166Z,337673,-0.032226562,-0.10961914,0.035095215
1734715184173,2024-12-20T17:19:44.173Z,337680,-0.030822754,-0.11047363,0.032409668
1734715184179,2024-12-20T17:19:44.179Z,337686,-0.031799316,-0.11022949,0.03338623
1734715184193,2024-12-20T17:19:44.193Z,337700,-0.03375244,-0.11053467,0.031311035
1734715184200,2024-12-20T17:19:44.200Z,337707,-0.03265381,-0.109375,0.03125
1734715184207,2024-12-20T17:19:44.207Z,337714,-0.032043457,-0.109313965,0.03527832
1734715184213,2024-12-20T17:19:44.213Z,337720,-0.03277588,-0.10809326,0.03527832
1734715184234,2024-12-20T17:19:44.234Z,337741,-0.034179688,-0.107421875,0.036865234
1734715184241,2024-12-20T17:19:44.241Z,337748,-0.03503418,-0.10748291,0.036254883
1734715184248,2024-12-20T17:19:44.248Z,337755,-0.03668213,-0.10546875,0.030639648
1734715184255,2024-12-20T17:19:44.255Z,337762,-0.035949707,-0.10595703,0.026062012
1734715184280,2024-12-20T17:19:44.280Z,337787,-0.036499023,-0.10614014,0.02734375
1734715184286,2024-12-20T17:19:44.286Z,337793,-0.03479004,-0.10601807,0.02734375
1734715184292,2024-12-20T17:19:44.292Z,337799,-0.035949707,-0.103515625,0.030090332
1734715184299,2024-12-20T17:19:44.299Z,337806,-0.036315918,-0.10571289,0.03277588
1734715184306,2024-12-20T17:19:44.306Z,337813,-0.036254883,-0.10443115,0.03314209
1734715184324,2024-12-20T17:19:44.324Z,337831,-0.038085938,-0.103637695,0.030029297
1734715184331,2024-12-20T17:19:44.331Z,337838,-0.03845215,-0.10443115,0.02532959
1734715184340,2024-12-20T17:19:44.340Z,337847,-0.04296875,-0.10430908,0.028198242
1734715184347,2024-12-20T17:19:44.347Z,337854,-0.040039062,-0.105285645,0.0289917
1734715184369,2024-12-20T17:19:44.369Z,337876,-0.038269043,-0.10412598,0.03173828
1734715184375,2024-12-20T17:19:44.375Z,337882,-0.039489746,-0.10455322,0.03186035
1734715184382,2024-12-20T17:19:44.382Z,337889,-0.037231445,-0.10498047,0.030029297
1734715184390,2024-12-20T17:19:44.390Z,337897,-0.038757324,-0.10449219,0.03265381
1734715184397,2024-12-20T17:19:44.397Z,337904,-0.039794922,-0.1038208,0.033447266
1734715184463,2024-12-20T17:19:44.463Z,337970,-0.038146973,-0.10498047,0.027709961
1734715184473,2024-12-20T17:19:44.473Z,337980,-0.03753662,-0.1071167,0.024719238
1734715184482,2024-12-20T17:19:44.482Z,337989,-0.04107666,-0.105651855,0.03125
1734715184493,2024-12-20T17:19:44.493Z,338000,-0.036376953,-0.10772705,0.029418945
1734715184506,2024-12-20T17:19:44.506Z,338013,-0.035705566,-0.105895996,0.030517578
1734715184519,2024-12-20T17:19:44.519Z,338026,-0.038330078,-0.10668945,0.033081055
1734715184529,2024-12-20T17:19:44.529Z,338036,-0.038879395,-0.10772705,0.032409668
1734715184538,2024-12-20T17:19:44.538Z,338045,-0.038330078,-0.10748291,0.033691406
1734715184547,2024-12-20T17:19:44.547Z,338054,-0.038513184,-0.10656738,0.034179688
1734715184558,2024-12-20T17:19:44.558Z,338065,-0.037963867,-0.107910156,0.02947998
1734715184564,2024-12-20T17:19:44.564Z,338071,-0.03656006,-0.10748291,0.025634766
1734715184572,2024-12-20T17:19:44.572Z,338079,-0.039245605,-0.105529785,0.031921387
1734715184578,2024-12-20T17:19:44.578Z,338085,-0.039978027,-0.10681152,0.03289795
1734715184585,2024-12-20T17:19:44.585Z,338092,-0.041381836,-0.10620117,0.030822754
1734715184590,2024-12-20T17:19:44.590Z,338097,-0.040161133,-0.10638428,0.032836914
1734715184596,2024-12-20T17:19:44.596Z,338103,-0.03942871,-0.10601807,0.03338623
1734715184602,2024-12-20T17:19:44.602Z,338109,-0.03845215,-0.105285645,0.030761719
1734715184607,2024-12-20T17:19:44.607Z,338114,-0.03668213,-0.10498047,0.02746582
1734715184644,2024-12-20T17:19:44.644Z,338151,-0.038513184,-0.10614014,0.025939941
1734715184651,2024-12-20T17:19:44.651Z,338158,-0.04071045,-0.10394287,0.026733398
1734715184659,2024-12-20T17:19:44.659Z,338166,-0.040222168,-0.10437012,0.02758789
1734715184667,2024-12-20T17:19:44.667Z,338174,-0.039123535,-0.10437012,0.03314209
1734715184675,2024-12-20T17:19:44.675Z,338182,-0.040527344,-0.1048584,0.031982422
1734715184685,2024-12-20T17:19:44.685Z,338192,-0.04071045,-0.105895996,0.02758789
1734715184692,2024-12-20T17:19:44.692Z,338199,-0.03845215,-0.10620117,0.026184082
1734715184699,2024-12-20T17:19:44.699Z,338206,-0.03869629,-0.105407715,0.02947998
1734715184707,2024-12-20T17:19:44.707Z,338214,-0.038757324,-0.10601807,0.026916504
1734715184715,2024-12-20T17:19:44.715Z,338222,-0.036865234,-0.10681152,0.026916504
1734715184722,2024-12-20T17:19:44.722Z,338229,-0.037902832,-0.106933594,0.028076172
1734715184733,2024-12-20T17:19:44.733Z,338240,-0.03753662,-0.10571289,0.027160645
1734715184740,2024-12-20T17:19:44.740Z,338247,-0.037353516,-0.10601807,0.031433105
1734715184746,2024-12-20T17:19:44.746Z,338253,-0.037841797,-0.10412598,0.03289795
1734715184752,2024-12-20T17:19:44.752Z,338259,-0.03668213,-0.10522461,0.028076172
1734715184759,2024-12-20T17:19:44.759Z,338266,-0.0368042,-0.10675049,0.025939941
1734715184773,2024-12-20T17:19:44.773Z,338280,-0.03527832,-0.10571289,0.029174805
1734715184779,2024-12-20T17:19:44.779Z,338286,-0.031433105,-0.105773926,0.02935791
1734715184785,2024-12-20T17:19:44.785Z,338292,-0.030273438,-0.107543945,0.028442383
1734715184790,2024-12-20T17:19:44.790Z,338297,-0.03149414,-0.10760498,0.034484863
1734715184796,2024-12-20T17:19:44.796Z,338303,-0.032287598,-0.107666016,0.037719727
1734715184803,2024-12-20T17:19:44.803Z,338310,-0.033691406,-0.10668945,0.033203125
1734715184868,2024-12-20T17:19:44.868Z,338375,-0.035949707,-0.109436035,0.025512695
1734715184875,2024-12-20T17:19:44.875Z,338382,-0.035461426,-0.10998535,0.029296875
1734715184881,2024-12-20T17:19:44.881Z,338388,-0.033813477,-0.109313965,0.032409668
1734715184888,2024-12-20T17:19:44.888Z,338395,-0.03265381,-0.11004639,0.029418945
1734715184894,2024-12-20T17:19:44.894Z,338401,-0.03753662,-0.1104126,0.030944824
1734715184903,2024-12-20T17:19:44.903Z,338410,-0.037353516,-0.11114502,0.034057617
1734715184914,2024-12-20T17:19:44.914Z,338421,-0.03668213,-0.11029053,0.034423828
1734715184921,2024-12-20T17:19:44.921Z,338428,-0.037475586,-0.10986328,0.036621094
1734715184928,2024-12-20T17:19:44.928Z,338435,-0.037841797,-0.11053467,0.031188965
1734715184934,2024-12-20T17:19:44.934Z,338441,-0.035949707,-0.11273193,0.028686523
1734715184940,2024-12-20T17:19:44.940Z,338447,-0.03643799,-0.11151123,0.031555176
1734715184954,2024-12-20T17:19:44.954Z,338461,-0.03643799,-0.1116333,0.032043457
1734715184960,2024-12-20T17:19:44.960Z,338467,-0.035339355,-0.11193848,0.034729004
1734715184967,2024-12-20T17:19:44.967Z,338474,-0.037841797,-0.11242676,0.03363037
1734715184973,2024-12-20T17:19:44.973Z,338480,-0.039489746,-0.113708496,0.032165527
1734715184979,2024-12-20T17:19:44.979Z,338486,-0.037475586,-0.11273193,0.03338623
1734715184985,2024-12-20T17:19:44.985Z,338492,-0.036499023,-0.11199951,0.03314209
1734715185004,2024-12-20T17:19:45.004Z,338511,-0.037902832,-0.11187744,0.033813477
1734715185010,2024-12-20T17:19:45.010Z,338517,-0.037841797,-0.1116333,0.033691406
1734715185017,2024-12-20T17:19:45.017Z,338524,-0.04058838,-0.11218262,0.035583496
1734715185022,2024-12-20T17:19:45.022Z,338529,-0.042663574,-0.11401367,0.032714844
1734715185028,2024-12-20T17:19:45.028Z,338535,-0.040100098,-0.11315918,0.030639648
1734715185046,2024-12-20T17:19:45.046Z,338553,-0.040649414,-0.111572266,0.032104492
1734715185054,2024-12-20T17:19:45.054Z,338561,-0.041015625,-0.1116333,0.03491211
1734715185060,2024-12-20T17:19:45.060Z,338567,-0.039489746,-0.11248779,0.03363037
1734715185067,2024-12-20T17:19:45.067Z,338574,-0.041381836,-0.11199951,0.036193848
1734715185088,2024-12-20T17:19:45.088Z,338595,-0.043518066,-0.11065674,0.036193848
1734715185094,2024-12-20T17:19:45.094Z,338601,-0.04284668,-0.11102295,0.028869629
1734715185101,2024-12-20T17:19:45.101Z,338608,-0.044555664,-0.111083984,0.029785156
1734715185109,2024-12-20T17:19:45.109Z,338616,-0.042663574,-0.110839844,0.029907227
1734715185134,2024-12-20T17:19:45.134Z,338641,-0.041625977,-0.10858154,0.03314209
1734715185140,2024-12-20T17:19:45.140Z,338647,-0.04473877,-0.107666016,0.036193848
1734715185147,2024-12-20T17:19:45.147Z,338654,-0.04534912,-0.109436035,0.034301758
1734715185153,2024-12-20T17:19:45.153Z,338660,-0.047973633,-0.10949707,0.033203125
1734715185159,2024-12-20T17:19:45.159Z,338666,-0.04638672,-0.107666016,0.034973145
1734715185227,2024-12-20T17:19:45.227Z,338734,-0.044189453,-0.10870361,0.030456543
1734715185236,2024-12-20T17:19:45.236Z,338743,-0.04547119,-0.10699463,0.03161621
1734715185246,2024-12-20T17:19:45.246Z,338753,-0.045715332,-0.10644531,0.034729004
1734715185263,2024-12-20T17:19:45.263Z,338770,-0.045837402,-0.107055664,0.034240723
1734715185272,2024-12-20T17:19:45.272Z,338779,-0.04626465,-0.10797119,0.033447266
1734715185280,2024-12-20T17:19:45.280Z,338787,-0.045959473,-0.107299805,0.035949707
1734715185287,2024-12-20T17:19:45.287Z,338794,-0.04663086,-0.10723877,0.034729004
1734715185294,2024-12-20T17:19:45.294Z,338801,-0.045166016,-0.107666016,0.028564453
1734715185300,2024-12-20T17:19:45.300Z,338807,-0.045410156,-0.10882568,0.03125
1734715185307,2024-12-20T17:19:45.307Z,338814,-0.045837402,-0.10772705,0.036315918
1734715185314,2024-12-20T17:19:45.314Z,338821,-0.044006348,-0.10803223,0.03540039
1734715185321,2024-12-20T17:19:45.321Z,338828,-0.044006348,-0.107910156,0.036987305
1734715185327,2024-12-20T17:19:45.327Z,338834,-0.04638672,-0.10900879,0.035949707
1734715185333,2024-12-20T17:19:45.333Z,338840,-0.04534912,-0.108947754,0.034179688
1734715185339,2024-12-20T17:19:45.339Z,338846,-0.043518066,-0.109375,0.035827637
1734715185346,2024-12-20T17:19:45.346Z,338853,-0.043395996,-0.109313965,0.0335083
1734715185354,2024-12-20T17:19:45.354Z,338861,-0.041992188,-0.11065674,0.03375244
1734715185361,2024-12-20T17:19:45.361Z,338868,-0.044067383,-0.10925293,0.03717041
1734715185367,2024-12-20T17:19:45.367Z,338874,-0.043273926,-0.11114502,0.03314209
1734715185375,2024-12-20T17:19:45.375Z,338882,-0.04345703,-0.111572266,0.03375244
1734715185381,2024-12-20T17:19:45.381Z,338888,-0.0435791,-0.111816406,0.036132812
1734715185387,2024-12-20T17:19:45.387Z,338894,-0.042236328,-0.113586426,0.03668213
1734715185404,2024-12-20T17:19:45.404Z,338911,-0.041748047,-0.11340332,0.03491211
1734715185411,2024-12-20T17:19:45.411Z,338918,-0.039733887,-0.11260986,0.035705566
1734715185417,2024-12-20T17:19:45.417Z,338924,-0.038330078,-0.11230469,0.033813477
1734715185423,2024-12-20T17:19:45.423Z,338930,-0.03955078,-0.11242676,0.03338623
1734715185451,2024-12-20T17:19:45.451Z,338958,-0.042785645,-0.11126709,0.03363037
1734715185457,2024-12-20T17:19:45.457Z,338964,-0.040161133,-0.11242676,0.035827637
1734715185462,2024-12-20T17:19:45.462Z,338969,-0.03955078,-0.111083984,0.0368042
1734715185469,2024-12-20T17:19:45.469Z,338976,-0.03955078,-0.111450195,0.036010742
1734715185474,2024-12-20T17:19:45.474Z,338981,-0.038757324,-0.11199951,0.03466797
1734715185495,2024-12-20T17:19:45.495Z,339002,-0.03942871,-0.11193848,0.03643799
1734715185502,2024-12-20T17:19:45.502Z,339009,-0.039611816,-0.111450195,0.037963867
1734715185508,2024-12-20T17:19:45.508Z,339015,-0.041625977,-0.11126709,0.02960205
1734715185515,2024-12-20T17:19:45.515Z,339022,-0.039733887,-0.11437988,0.027038574
1734715185587,2024-12-20T17:19:45.587Z,339094,-0.04058838,-0.113586426,0.03527832
1734715185593,2024-12-20T17:19:45.593Z,339100,-0.039794922,-0.111450195,0.03729248
1734715185599,2024-12-20T17:19:45.599Z,339106,-0.041503906,-0.11199951,0.036193848
1734715185606,2024-12-20T17:19:45.606Z,339113,-0.04272461,-0.11352539,0.03503418
1734715185612,2024-12-20T17:19:45.612Z,339119,-0.040527344,-0.11383057,0.032409668
1734715185619,2024-12-20T17:19:45.619Z,339126,-0.04260254,-0.11236572,0.033691406
1734715185635,2024-12-20T17:19:45.635Z,339142,-0.041137695,-0.11401367,0.031799316
1734715185642,2024-12-20T17:19:45.642Z,339149,-0.039245605,-0.11340332,0.03173828
1734715185650,2024-12-20T17:19:45.650Z,339157,-0.040283203,-0.11230469,0.035095215
1734715185658,2024-12-20T17:19:45.658Z,339165,-0.038146973,-0.11224365,0.036743164
1734715185665,2024-12-20T17:19:45.665Z,339172,-0.039916992,-0.11029053,0.034484863
1734715185675,2024-12-20T17:19:45.675Z,339182,-0.04058838,-0.11187744,0.032348633
1734715185681,2024-12-20T17:19:45.681Z,339188,-0.041137695,-0.11102295,0.032104492
1734715185688,2024-12-20T17:19:45.688Z,339195,-0.041259766,-0.10986328,0.031799316
1734715185694,2024-12-20T17:19:45.694Z,339201,-0.039367676,-0.11114502,0.028503418
1734715185700,2024-12-20T17:19:45.700Z,339207,-0.040649414,-0.11102295,0.029907227
1734715185705,2024-12-20T17:19:45.705Z,339212,-0.040161133,-0.10992432,0.031311035
1734715185724,2024-12-20T17:19:45.724Z,339231,-0.037841797,-0.10809326,0.032348633
1734715185730,2024-12-20T17:19:45.730Z,339237,-0.03857422,-0.106933594,0.032958984
1734715185736,2024-12-20T17:19:45.736Z,339243,-0.039978027,-0.10760498,0.031433105
1734715185742,2024-12-20T17:19:45.742Z,339249,-0.041259766,-0.10662842,0.031188965
1734715185748,2024-12-20T17:19:45.748Z,339255,-0.041809082,-0.10650635,0.031677246
1734715185765,2024-12-20T17:19:45.765Z,339272,-0.039123535,-0.107299805,0.028259277
1734715185772,2024-12-20T17:19:45.772Z,339279,-0.0390625,-0.10614014,0.029174805
1734715185778,2024-12-20T17:19:45.778Z,339285,-0.040527344,-0.10522461,0.031982422
1734715185784,2024-12-20T17:19:45.784Z,339291,-0.039855957,-0.10461426,0.030700684
1734715185790,2024-12-20T17:19:45.790Z,339297,-0.04083252,-0.10418701,0.033813477
1734715185809,2024-12-20T17:19:45.809Z,339316,-0.037963867,-0.10430908,0.035339355
1734715185816,2024-12-20T17:19:45.816Z,339323,-0.040893555,-0.103271484,0.03479004
1734715185823,2024-12-20T17:19:45.823Z,339330,-0.041259766,-0.105407715,0.028198242
1734715185829,2024-12-20T17:19:45.829Z,339336,-0.04156494,-0.10412598,0.029968262
1734715185855,2024-12-20T17:19:45.855Z,339362,-0.038024902,-0.10321045,0.03137207
1734715185861,2024-12-20T17:19:45.861Z,339368,-0.036254883,-0.105285645,0.030029297
1734715185868,2024-12-20T17:19:45.868Z,339375,-0.039367676,-0.105529785,0.032958984
1734715185875,2024-12-20T17:19:45.875Z,339382,-0.035583496,-0.10412598,0.03741455
1734715185881,2024-12-20T17:19:45.881Z,339388,-0.036376953,-0.10241699,0.038513184
1734715185900,2024-12-20T17:19:45.900Z,339407,-0.038391113,-0.10223389,0.031921387
1734715185909,2024-12-20T17:19:45.909Z,339416,-0.03869629,-0.10534668,0.026855469
1734715185915,2024-12-20T17:19:45.915Z,339422,-0.03918457,-0.10443115,0.030151367
1734715185923,2024-12-20T17:19:45.923Z,339430,-0.03540039,-0.10650635,0.028015137
1734715185946,2024-12-20T17:19:45.946Z,339453,-0.0357666,-0.10412598,0.033081055
1734715185953,2024-12-20T17:19:45.953Z,339460,-0.034301758,-0.10491943,0.040527344
1734715185994,2024-12-20T17:19:45.994Z,339501,-0.031921387,-0.10296631,0.043518066
1734715186001,2024-12-20T17:19:46.001Z,339508,-0.03717041,-0.10333252,0.038269043
1734715186007,2024-12-20T17:19:46.007Z,339514,-0.037353516,-0.106933594,0.032043457
1734715186013,2024-12-20T17:19:46.013Z,339520,-0.03540039,-0.105285645,0.033813477
1734715186020,2024-12-20T17:19:46.020Z,339527,-0.030273438,-0.10430908,0.03326416
1734715186035,2024-12-20T17:19:46.035Z,339542,-0.030578613,-0.10406494,0.031921387
1734715186042,2024-12-20T17:19:46.042Z,339549,-0.031982422,-0.10430908,0.038330078
1734715186048,2024-12-20T17:19:46.048Z,339555,-0.031188965,-0.103515625,0.039794922
1734715186054,2024-12-20T17:19:46.054Z,339561,-0.03540039,-0.10449219,0.037109375
1734715186060,2024-12-20T17:19:46.060Z,339567,-0.036743164,-0.10650635,0.03643799
1734715186066,2024-12-20T17:19:46.066Z,339573,-0.03375244,-0.105407715,0.038208008
1734715186083,2024-12-20T17:19:46.083Z,339590,-0.0335083,-0.10406494,0.033325195
1734715186089,2024-12-20T17:19:46.089Z,339596,-0.03277588,-0.10668945,0.025512695
1734715186095,2024-12-20T17:19:46.095Z,339602,-0.032348633,-0.107299805,0.029968262
1734715186101,2024-12-20T17:19:46.101Z,339608,-0.03302002,-0.10546875,0.03845215
1734715186107,2024-12-20T17:19:46.107Z,339614,-0.031311035,-0.105163574,0.038757324
1734715186124,2024-12-20T17:19:46.124Z,339631,-0.035705566,-0.10498047,0.038208008
1734715186130,2024-12-20T17:19:46.130Z,339637,-0.03741455,-0.10723877,0.033203125
1734715186136,2024-12-20T17:19:46.136Z,339643,-0.03515625,-0.10644531,0.02960205
1734715186142,2024-12-20T17:19:46.142Z,339649,-0.03326416,-0.105163574,0.031555176
1734715186170,2024-12-20T17:19:46.170Z,339677,-0.034484863,-0.103637695,0.034057617
1734715186176,2024-12-20T17:19:46.176Z,339683,-0.030151367,-0.10534668,0.028564453
1734715186182,2024-12-20T17:19:46.182Z,339689,-0.032287598,-0.10369873,0.032409668
1734715186189,2024-12-20T17:19:46.189Z,339696,-0.030395508,-0.10333252,0.038391113
1734715186195,2024-12-20T17:19:46.195Z,339702,-0.029724121,-0.10107422,0.036865234
1734715186214,2024-12-20T17:19:46.214Z,339721,-0.032592773,-0.09869385,0.035583496
1734715186221,2024-12-20T17:19:46.221Z,339728,-0.03253174,-0.10076904,0.033996582
1734715186227,2024-12-20T17:19:46.227Z,339734,-0.02960205,-0.1003418,0.034301758
1734715186233,2024-12-20T17:19:46.233Z,339740,-0.031066895,-0.099731445,0.03656006
1734715186259,2024-12-20T17:19:46.259Z,339766,-0.036254883,-0.10046387,0.036010742
1734715186265,2024-12-20T17:19:46.265Z,339772,-0.04083252,-0.09692383,0.03668213
1734715186272,2024-12-20T17:19:46.272Z,339779,-0.020263672,-0.103759766,0.037231445
1734715186279,2024-12-20T17:19:46.279Z,339786,-0.029052734,-0.099731445,0.0368042
1734715186286,2024-12-20T17:19:46.286Z,339793,-0.031188965,-0.10394287,0.038085938
1734715186304,2024-12-20T17:19:46.304Z,339811,-0.03253174,-0.103881836,0.040649414
1734715186310,2024-12-20T17:19:46.310Z,339817,-0.036743164,-0.10772705,0.037231445
1734715186316,2024-12-20T17:19:46.316Z,339823,-0.03527832,-0.10925293,0.033996582
1734715186323,2024-12-20T17:19:46.323Z,339830,-0.029541016,-0.11279297,0.03363037
1734715186350,2024-12-20T17:19:46.350Z,339857,-0.030151367,-0.109436035,0.032592773
1734715186357,2024-12-20T17:19:46.357Z,339864,-0.032409668,-0.111206055,0.034240723
1734715186363,2024-12-20T17:19:46.363Z,339870,-0.028381348,-0.110839844,0.037475586
1734715186370,2024-12-20T17:19:46.370Z,339877,-0.028320312,-0.11193848,0.039978027
1734715186394,2024-12-20T17:19:46.394Z,339901,-0.034240723,-0.11505127,0.03967285
1734715186400,2024-12-20T17:19:46.400Z,339907,-0.038757324,-0.11730957,0.039794922
1734715186407,2024-12-20T17:19:46.407Z,339914,-0.034423828,-0.11505127,0.03869629
1734715186413,2024-12-20T17:19:46.413Z,339920,-0.029174805,-0.11047363,0.04046631
1734715186420,2024-12-20T17:19:46.420Z,339927,-0.027893066,-0.111328125,0.03643799
1734715186439,2024-12-20T17:19:46.439Z,339946,-0.0335083,-0.105651855,0.031433105
1734715186445,2024-12-20T17:19:46.445Z,339952,-0.02734375,-0.10827637,0.035705566
1734715186452,2024-12-20T17:19:46.452Z,339959,-0.023803711,-0.11065674,0.035095215
1734715186460,2024-12-20T17:19:46.460Z,339967,-0.03704834,-0.109313965,0.03729248
1734715186487,2024-12-20T17:19:46.487Z,339994,-0.033447266,-0.11260986,0.041809082
1734715186493,2024-12-20T17:19:46.493Z,340000,-0.032836914,-0.111572266,0.03778076
1734715186500,2024-12-20T17:19:46.500Z,340007,-0.03277588,-0.111816406,0.036193848
1734715186507,2024-12-20T17:19:46.507Z,340014,-0.030944824,-0.11279297,0.041748047
1734715186513,2024-12-20T17:19:46.513Z,340020,-0.0256958,-0.113220215,0.044067383
1734715186528,2024-12-20T17:19:46.528Z,340035,-0.026916504,-0.11279297,0.03967285
1734715186535,2024-12-20T17:19:46.535Z,340042,-0.028869629,-0.11328125,0.038330078
1734715186541,2024-12-20T17:19:46.541Z,340048,-0.030151367,-0.11224365,0.039123535
1734715186547,2024-12-20T17:19:46.547Z,340054,-0.029418945,-0.11279297,0.0357666
1734715186574,2024-12-20T17:19:46.574Z,340081,-0.02368164,-0.1161499,0.028198242
1734715186581,2024-12-20T17:19:46.581Z,340088,-0.028320312,-0.117126465,0.030456543
1734715186587,2024-12-20T17:19:46.587Z,340094,-0.03479004,-0.119628906,0.040100098
1734715186593,2024-12-20T17:19:46.593Z,340100,-0.028015137,-0.12036133,0.039611816
1734715186599,2024-12-20T17:19:46.599Z,340106,-0.027832031,-0.11846924,0.042297363
1734715186620,2024-12-20T17:19:46.620Z,340127,-0.026794434,-0.12097168,0.04711914
1734715186628,2024-12-20T17:19:46.628Z,340135,-0.024230957,-0.12237549,0.0423584
1734715186642,2024-12-20T17:19:46.642Z,340149,-0.03173828,-0.11834717,0.043395996
1734715186650,2024-12-20T17:19:46.650Z,340157,-0.027526855,-0.12084961,0.038391113
1734715186712,2024-12-20T17:19:46.712Z,340219,-0.028503418,-0.12072754,0.03253174
1734715186718,2024-12-20T17:19:46.718Z,340225,-0.03363037,-0.121398926,0.037963867
1734715186725,2024-12-20T17:19:46.725Z,340232,-0.024902344,-0.122558594,0.030029297
1734715186733,2024-12-20T17:19:46.733Z,340240,-0.022155762,-0.12011719,0.03540039
1734715186740,2024-12-20T17:19:46.740Z,340247,-0.021606445,-0.12011719,0.0446167
1734715186747,2024-12-20T17:19:46.747Z,340254,-0.02355957,-0.118896484,0.04626465
1734715186760,2024-12-20T17:19:46.760Z,340267,-0.029724121,-0.11920166,0.043701172
1734715186767,2024-12-20T17:19:46.767Z,340274,-0.03375244,-0.120910645,0.04058838
1734715186774,2024-12-20T17:19:46.774Z,340281,-0.032226562,-0.12322998,0.033691406
1734715186780,2024-12-20T17:19:46.780Z,340287,-0.026550293,-0.12420654,0.029418945
1734715186787,2024-12-20T17:19:46.787Z,340294,-0.028564453,-0.1204834,0.042785645
1734715186799,2024-12-20T17:19:46.799Z,340306,-0.028869629,-0.11987305,0.047973633
1734715186806,2024-12-20T17:19:46.806Z,340313,-0.043518066,-0.110839844,0.050354004
1734715186812,2024-12-20T17:19:46.812Z,340319,-0.025878906,-0.12689209,0.05255127
1734715186818,2024-12-20T17:19:46.818Z,340325,-0.03491211,-0.11968994,0.045898438
1734715186823,2024-12-20T17:19:46.823Z,340330,-0.028686523,-0.11846924,0.035949707
1734715186830,2024-12-20T17:19:46.830Z,340337,-0.024230957,-0.11767578,0.03125
1734715186847,2024-12-20T17:19:46.847Z,340354,-0.028137207,-0.119262695,0.03857422
1734715186852,2024-12-20T17:19:46.852Z,340359,-0.02746582,-0.11779785,0.040771484
1734715186858,2024-12-20T17:19:46.858Z,340365,-0.02758789,-0.117492676,0.04559326
1734715186864,2024-12-20T17:19:46.864Z,340371,-0.032348633,-0.11639404,0.0501709
1734715186869,2024-12-20T17:19:46.869Z,340376,-0.03552246,-0.117614746,0.05114746
1734715186889,2024-12-20T17:19:46.889Z,340396,-0.03277588,-0.11627197,0.049804688
1734715186895,2024-12-20T17:19:46.895Z,340402,-0.032287598,-0.11706543,0.041809082
1734715186901,2024-12-20T17:19:46.901Z,340408,-0.027954102,-0.117126465,0.038085938
1734715186907,2024-12-20T17:19:46.907Z,340414,-0.03125,-0.115722656,0.04083252
1734715186913,2024-12-20T17:19:46.913Z,340420,-0.03100586,-0.11663818,0.04284668
1734715186936,2024-12-20T17:19:46.936Z,340443,-0.030029297,-0.11541748,0.046081543
1734715186943,2024-12-20T17:19:46.943Z,340450,-0.034240723,-0.11755371,0.046813965
1734715186949,2024-12-20T17:19:46.949Z,340456,-0.034240723,-0.11785889,0.04321289
1734715186956,2024-12-20T17:19:46.956Z,340463,-0.029907227,-0.11706543,0.042297363
1734715186980,2024-12-20T17:19:46.980Z,340487,-0.029052734,-0.11883545,0.04034424
1734715186988,2024-12-20T17:19:46.988Z,340495,-0.028076172,-0.119506836,0.03302002
1734715186996,2024-12-20T17:19:46.996Z,340503,-0.026184082,-0.11791992,0.038330078
1734715187003,2024-12-20T17:19:47.003Z,340510,-0.027526855,-0.11779785,0.048706055
1734715187024,2024-12-20T17:19:47.024Z,340531,-0.027282715,-0.11706543,0.049560547
1734715187031,2024-12-20T17:19:47.031Z,340538,-0.03552246,-0.11828613,0.04437256
1734715187038,2024-12-20T17:19:47.038Z,340545,-0.034423828,-0.120666504,0.044067383
1734715187045,2024-12-20T17:19:47.045Z,340552,-0.029296875,-0.11828613,0.047058105
1734715187051,2024-12-20T17:19:47.051Z,340558,-0.023986816,-0.11633301,0.0413208
1734715187070,2024-12-20T17:19:47.070Z,340577,-0.025878906,-0.11785889,0.03857422
1734715187076,2024-12-20T17:19:47.076Z,340583,-0.02520752,-0.11810303,0.044555664
1734715187081,2024-12-20T17:19:47.081Z,340588,-0.025390625,-0.115600586,0.043640137
1734715187118,2024-12-20T17:19:47.118Z,340625,-0.02947998,-0.115234375,0.046203613
1734715187125,2024-12-20T17:19:47.125Z,340632,-0.031555176,-0.11651611,0.048034668
1734715187132,2024-12-20T17:19:47.132Z,340639,-0.03338623,-0.117492676,0.04345703
1734715187139,2024-12-20T17:19:47.139Z,340646,-0.030395508,-0.116760254,0.041931152
1734715187147,2024-12-20T17:19:47.147Z,340654,-0.024597168,-0.117614746,0.035339355
1734715187159,2024-12-20T17:19:47.159Z,340666,-0.023864746,-0.1182251,0.039245605
1734715187166,2024-12-20T17:19:47.166Z,340673,-0.027526855,-0.11883545,0.045654297
1734715187172,2024-12-20T17:19:47.172Z,340679,-0.028930664,-0.12011719,0.04650879
1734715187179,2024-12-20T17:19:47.179Z,340686,-0.031433105,-0.12030029,0.049926758
1734715187185,2024-12-20T17:19:47.185Z,340692,-0.03503418,-0.12042236,0.050842285
1734715187205,2024-12-20T17:19:47.205Z,340712,-0.03564453,-0.119018555,0.047912598
1734715187212,2024-12-20T17:19:47.212Z,340719,-0.030334473,-0.11853027,0.042785645
1734715187218,2024-12-20T17:19:47.218Z,340725,-0.027404785,-0.11767578,0.03955078
1734715187225,2024-12-20T17:19:47.225Z,340732,-0.023254395,-0.118774414,0.03930664
1734715187231,2024-12-20T17:19:47.231Z,340738,-0.023986816,-0.11828613,0.043029785
1734715187250,2024-12-20T17:19:47.250Z,340757,-0.025939941,-0.11767578,0.04547119
1734715187256,2024-12-20T17:19:47.256Z,340763,-0.026794434,-0.11871338,0.04675293
1734715187262,2024-12-20T17:19:47.262Z,340769,-0.02923584,-0.1194458,0.045654297
1734715187268,2024-12-20T17:19:47.268Z,340775,-0.027648926,-0.119140625,0.045837402
1734715187294,2024-12-20T17:19:47.294Z,340801,-0.024963379,-0.11853027,0.045959473
1734715187300,2024-12-20T17:19:47.300Z,340807,-0.022521973,-0.1184082,0.04486084
1734715187308,2024-12-20T17:19:47.308Z,340815,-0.022583008,-0.11834717,0.04815674
1734715187316,2024-12-20T17:19:47.316Z,340823,-0.022277832,-0.11816406,0.046875
1734715187341,2024-12-20T17:19:47.341Z,340848,-0.024291992,-0.115600586,0.049316406
1734715187349,2024-12-20T17:19:47.349Z,340856,-0.026489258,-0.11743164,0.049621582
1734715187355,2024-12-20T17:19:47.355Z,340862,-0.029846191,-0.11779785,0.0446167
1734715187365,2024-12-20T17:19:47.365Z,340872,-0.029541016,-0.12011719,0.044433594
1734715187372,2024-12-20T17:19:47.372Z,340879,-0.025146484,-0.11846924,0.044311523
1734715187431,2024-12-20T17:19:47.431Z,340938,-0.020202637,-0.11785889,0.047912598
1734715187437,2024-12-20T17:19:47.437Z,340944,-0.020141602,-0.11566162,0.0501709
1734715187443,2024-12-20T17:19:47.443Z,340950,-0.024169922,-0.11468506,0.048217773
1734715187449,2024-12-20T17:19:47.449Z,340956,-0.027404785,-0.11431885,0.047607422
1734715187460,2024-12-20T17:19:47.460Z,340967,-0.02935791,-0.11694336,0.046813965
1734715187466,2024-12-20T17:19:47.466Z,340973,-0.029296875,-0.11773682,0.042663574
1734715187477,2024-12-20T17:19:47.477Z,340984,-0.025390625,-0.11694336,0.044921875
1734715187484,2024-12-20T17:19:47.484Z,340991,-0.02319336,-0.11578369,0.0491333
1734715187491,2024-12-20T17:19:47.491Z,340998,-0.022216797,-0.11590576,0.047790527
1734715187497,2024-12-20T17:19:47.497Z,341004,-0.027526855,-0.11639404,0.048950195
1734715187503,2024-12-20T17:19:47.503Z,341010,-0.02947998,-0.117248535,0.051879883
1734715187519,2024-12-20T17:19:47.519Z,341026,-0.029724121,-0.11682129,0.048950195
1734715187526,2024-12-20T17:19:47.526Z,341033,-0.028137207,-0.11920166,0.04260254
1734715187532,2024-12-20T17:19:47.532Z,341039,-0.026306152,-0.12060547,0.043945312
1734715187538,2024-12-20T17:19:47.538Z,341045,-0.024047852,-0.11999512,0.045410156
1734715187544,2024-12-20T17:19:47.544Z,341051,-0.022155762,-0.11895752,0.046325684
1734715187549,2024-12-20T17:19:47.549Z,341056,-0.027282715,-0.11627197,0.049072266
1734715187566,2024-12-20T17:19:47.566Z,341073,-0.027832031,-0.115356445,0.04724121
1734715187572,2024-12-20T17:19:47.572Z,341079,-0.028137207,-0.116882324,0.045043945
1734715187579,2024-12-20T17:19:47.579Z,341086,-0.027648926,-0.1161499,0.042785645
1734715187585,2024-12-20T17:19:47.585Z,341092,-0.023803711,-0.11456299,0.043823242
1734715187591,2024-12-20T17:19:47.591Z,341098,-0.023986816,-0.11553955,0.047729492
1734715187609,2024-12-20T17:19:47.609Z,341116,-0.0256958,-0.11468506,0.05041504
1734715187615,2024-12-20T17:19:47.615Z,341122,-0.026245117,-0.11444092,0.04901123
1734715187621,2024-12-20T17:19:47.621Z,341128,-0.02758789,-0.11419678,0.045410156
1734715187628,2024-12-20T17:19:47.628Z,341135,-0.02532959,-0.11456299,0.043395996
1734715187655,2024-12-20T17:19:47.655Z,341162,-0.024902344,-0.11462402,0.044067383
1734715187661,2024-12-20T17:19:47.661Z,341168,-0.025268555,-0.11419678,0.04699707
1734715187667,2024-12-20T17:19:47.667Z,341174,-0.024780273,-0.11462402,0.047668457
1734715187674,2024-12-20T17:19:47.674Z,341181,-0.02722168,-0.115600586,0.047851562
1734715187681,2024-12-20T17:19:47.681Z,341188,-0.025817871,-0.116760254,0.04486084
1734715187700,2024-12-20T17:19:47.700Z,341207,-0.024963379,-0.115722656,0.04449463
1734715187706,2024-12-20T17:19:47.706Z,341213,-0.028137207,-0.11871338,0.043151855
1734715187712,2024-12-20T17:19:47.712Z,341219,-0.024291992,-0.1184082,0.04046631
1734715187718,2024-12-20T17:19:47.718Z,341225,-0.024902344,-0.11694336,0.04272461
1734715187791,2024-12-20T17:19:47.791Z,341298,-0.026184082,-0.11755371,0.04272461
1734715187841,2024-12-20T17:19:47.841Z,341348,-0.02709961,-0.11791992,0.045837402
1734715187848,2024-12-20T17:19:47.848Z,341355,-0.028808594,-0.117004395,0.04937744
1734715187856,2024-12-20T17:19:47.856Z,341363,-0.031188965,-0.11743164,0.048706055
1734715187863,2024-12-20T17:19:47.863Z,341370,-0.028808594,-0.115722656,0.048095703
1734715187871,2024-12-20T17:19:47.871Z,341378,-0.026916504,-0.114990234,0.044311523
1734715187880,2024-12-20T17:19:47.880Z,341387,-0.026916504,-0.11621094,0.03955078
1734715187888,2024-12-20T17:19:47.888Z,341395,-0.022521973,-0.115478516,0.04034424
1734715187896,2024-12-20T17:19:47.896Z,341403,-0.022827148,-0.113586426,0.04071045
1734715187903,2024-12-20T17:19:47.903Z,341410,-0.020935059,-0.113220215,0.04284668
1734715187910,2024-12-20T17:19:47.910Z,341417,-0.022644043,-0.11248779,0.046325684
1734715187916,2024-12-20T17:19:47.916Z,341423,-0.025268555,-0.11376953,0.046020508
1734715187924,2024-12-20T17:19:47.924Z,341431,-0.022277832,-0.115600586,0.037353516
1734715187930,2024-12-20T17:19:47.930Z,341437,-0.021911621,-0.116882324,0.039733887
1734715187936,2024-12-20T17:19:47.936Z,341443,-0.020141602,-0.11779785,0.040649414
1734715187942,2024-12-20T17:19:47.942Z,341449,-0.020202637,-0.11804199,0.0413208
1734715187947,2024-12-20T17:19:47.947Z,341454,-0.02368164,-0.11791992,0.045654297
1734715187952,2024-12-20T17:19:47.952Z,341459,-0.02545166,-0.11853027,0.049865723
1734715187972,2024-12-20T17:19:47.972Z,341479,-0.028686523,-0.116882324,0.05102539
1734715187979,2024-12-20T17:19:47.979Z,341486,-0.030029297,-0.11694336,0.05041504
1734715187984,2024-12-20T17:19:47.984Z,341491,-0.029785156,-0.117248535,0.043823242
1734715187990,2024-12-20T17:19:47.990Z,341497,-0.026550293,-0.11993408,0.03692627
1734715187996,2024-12-20T17:19:47.996Z,341503,-0.022705078,-0.11968994,0.039855957
1734715188014,2024-12-20T17:19:48.014Z,341521,-0.021118164,-0.11853027,0.042541504
1734715188020,2024-12-20T17:19:48.020Z,341527,-0.020446777,-0.11773682,0.04510498
1734715188027,2024-12-20T17:19:48.027Z,341534,-0.023010254,-0.119384766,0.04663086
1734715188032,2024-12-20T17:19:48.032Z,341539,-0.02734375,-0.12097168,0.046325684
1734715188038,2024-12-20T17:19:48.038Z,341545,-0.029418945,-0.121520996,0.04736328
1734715188044,2024-12-20T17:19:48.044Z,341551,-0.028076172,-0.123291016,0.04925537
1734715188064,2024-12-20T17:19:48.064Z,341571,-0.023864746,-0.12359619,0.04437256
1734715188072,2024-12-20T17:19:48.072Z,341579,-0.024475098,-0.123535156,0.04345703
1734715188080,2024-12-20T17:19:48.080Z,341587,-0.023254395,-0.12646484,0.04248047
1734715188091,2024-12-20T17:19:48.091Z,341598,-0.025817871,-0.12542725,0.047607422
1734715188097,2024-12-20T17:19:48.097Z,341604,-0.026977539,-0.12658691,0.049926758
1734715188103,2024-12-20T17:19:48.103Z,341610,-0.029785156,-0.12817383,0.05029297
1734715188109,2024-12-20T17:19:48.109Z,341616,-0.029846191,-0.1293335,0.05053711
1734715188115,2024-12-20T17:19:48.115Z,341622,-0.029907227,-0.12994385,0.054138184
1734715188120,2024-12-20T17:19:48.120Z,341627,-0.026489258,-0.1296997,0.052612305
1734715188127,2024-12-20T17:19:48.127Z,341634,-0.024719238,-0.12976074,0.044555664
1734715188149,2024-12-20T17:19:48.149Z,341656,-0.029296875,-0.12841797,0.047912598
1734715188155,2024-12-20T17:19:48.155Z,341662,-0.029907227,-0.1295166,0.04827881
1734715188161,2024-12-20T17:19:48.161Z,341668,-0.032348633,-0.13043213,0.04534912
1734715188166,2024-12-20T17:19:48.166Z,341673,-0.032592773,-0.13232422,0.04559326
1734715188172,2024-12-20T17:19:48.172Z,341679,-0.029418945,-0.13244629,0.049865723
1734715188194,2024-12-20T17:19:48.194Z,341701,-0.026794434,-0.13043213,0.052368164
1734715188200,2024-12-20T17:19:48.200Z,341707,-0.02758789,-0.13018799,0.05102539
1734715188208,2024-12-20T17:19:48.208Z,341715,-0.028930664,-0.13195801,0.04827881
1734715188214,2024-12-20T17:19:48.214Z,341721,-0.032043457,-0.13244629,0.046325684
1734715188243,2024-12-20T17:19:48.243Z,341750,-0.035461426,-0.13238525,0.047302246
1734715188249,2024-12-20T17:19:48.249Z,341756,-0.029296875,-0.13183594,0.04675293
1734715188255,2024-12-20T17:19:48.255Z,341762,-0.026245117,-0.13122559,0.048706055
1734715188262,2024-12-20T17:19:48.262Z,341769,-0.026245117,-0.12927246,0.051086426
1734715188283,2024-12-20T17:19:48.283Z,341790,-0.025756836,-0.12866211,0.053710938
1734715188290,2024-12-20T17:19:48.290Z,341797,-0.028137207,-0.12884521,0.05456543
1734715188296,2024-12-20T17:19:48.296Z,341803,-0.029907227,-0.12945557,0.052490234
1734715188302,2024-12-20T17:19:48.302Z,341809,-0.027893066,-0.12976074,0.047546387
1734715188309,2024-12-20T17:19:48.309Z,341816,-0.026184082,-0.12982178,0.043151855
1734715188330,2024-12-20T17:19:48.330Z,341837,-0.024169922,-0.1307373,0.046691895
1734715188336,2024-12-20T17:19:48.336Z,341843,-0.02368164,-0.12774658,0.051757812
1734715188342,2024-12-20T17:19:48.342Z,341849,-0.023986816,-0.1274414,0.050354004
1734715188348,2024-12-20T17:19:48.348Z,341855,-0.028198242,-0.12738037,0.052490234
1734715188374,2024-12-20T17:19:48.374Z,341881,-0.028686523,-0.12750244,0.050842285
1734715188381,2024-12-20T17:19:48.381Z,341888,-0.029541016,-0.12615967,0.048706055
1734715188387,2024-12-20T17:19:48.387Z,341894,-0.027709961,-0.12738037,0.048706055
1734715188393,2024-12-20T17:19:48.393Z,341900,-0.023864746,-0.1274414,0.0435791
1734715188399,2024-12-20T17:19:48.399Z,341906,-0.021240234,-0.12670898,0.04156494
1734715188419,2024-12-20T17:19:48.419Z,341926,-0.022216797,-0.12701416,0.045959473
1734715188426,2024-12-20T17:19:48.426Z,341933,-0.025817871,-0.12585449,0.047180176
1734715188432,2024-12-20T17:19:48.432Z,341939,-0.028747559,-0.12561035,0.04498291
1734715188437,2024-12-20T17:19:48.437Z,341944,-0.028686523,-0.1272583,0.050476074
1734715188464,2024-12-20T17:19:48.464Z,341971,-0.029724121,-0.12585449,0.053222656
1734715188470,2024-12-20T17:19:48.470Z,341977,-0.0289917,-0.1260376,0.045043945
1734715188476,2024-12-20T17:19:48.476Z,341983,-0.026672363,-0.1272583,0.0423584
1734715188482,2024-12-20T17:19:48.482Z,341989,-0.024291992,-0.12591553,0.04345703
1734715188488,2024-12-20T17:19:48.488Z,341995,-0.021240234,-0.12591553,0.039733887
1734715188556,2024-12-20T17:19:48.556Z,342063,-0.02709961,-0.12597656,0.04144287
1734715188563,2024-12-20T17:19:48.563Z,342070,-0.02709961,-0.12536621,0.045898438
1734715188569,2024-12-20T17:19:48.569Z,342076,-0.028381348,-0.12573242,0.047424316
1734715188576,2024-12-20T17:19:48.576Z,342083,-0.029541016,-0.12719727,0.047058105
1734715188581,2024-12-20T17:19:48.581Z,342088,-0.02734375,-0.12664795,0.046081543
1734715188587,2024-12-20T17:19:48.587Z,342094,-0.023864746,-0.12561035,0.040222168
1734715188645,2024-12-20T17:19:48.645Z,342152,-0.02166748,-0.12646484,0.040405273
1734715188653,2024-12-20T17:19:48.653Z,342160,-0.02709961,-0.125,0.049926758
1734715188661,2024-12-20T17:19:48.661Z,342168,-0.022399902,-0.12322998,0.045776367
1734715188668,2024-12-20T17:19:48.668Z,342175,-0.026062012,-0.122680664,0.043945312
1734715188675,2024-12-20T17:19:48.675Z,342182,-0.025939941,-0.12322998,0.048034668
1734715188683,2024-12-20T17:19:48.683Z,342190,-0.024963379,-0.12109375,0.046203613
1734715188697,2024-12-20T17:19:48.697Z,342204,-0.026123047,-0.12060547,0.043518066
1734715188703,2024-12-20T17:19:48.703Z,342210,-0.025512695,-0.11871338,0.042541504
1734715188709,2024-12-20T17:19:48.709Z,342216,-0.023986816,-0.11828613,0.03918457
1734715188715,2024-12-20T17:19:48.715Z,342222,-0.026611328,-0.11859131,0.040405273
1734715188721,2024-12-20T17:19:48.721Z,342228,-0.025939941,-0.11785889,0.042053223
1734715188734,2024-12-20T17:19:48.734Z,342241,-0.025939941,-0.11584473,0.04248047
1734715188740,2024-12-20T17:19:48.740Z,342247,-0.027526855,-0.11517334,0.041809082
1734715188746,2024-12-20T17:19:48.746Z,342253,-0.026550293,-0.11450195,0.04046631
1734715188751,2024-12-20T17:19:48.751Z,342258,-0.02709961,-0.11151123,0.039978027
1734715188758,2024-12-20T17:19:48.758Z,342265,-0.025634766,-0.111206055,0.036865234
1734715188763,2024-12-20T17:19:48.763Z,342270,-0.026672363,-0.11199951,0.032592773
1734715188783,2024-12-20T17:19:48.783Z,342290,-0.030273438,-0.110839844,0.035888672
1734715188789,2024-12-20T17:19:48.789Z,342296,-0.029418945,-0.10998535,0.036376953
1734715188796,2024-12-20T17:19:48.796Z,342303,-0.028076172,-0.10986328,0.036193848
1734715188801,2024-12-20T17:19:48.801Z,342308,-0.02923584,-0.109191895,0.03894043
1734715188807,2024-12-20T17:19:48.807Z,342314,-0.028747559,-0.10949707,0.03955078
1734715188824,2024-12-20T17:19:48.824Z,342331,-0.027893066,-0.10845947,0.039855957
1734715188831,2024-12-20T17:19:48.831Z,342338,-0.028808594,-0.1081543,0.04168701
1734715188838,2024-12-20T17:19:48.838Z,342345,-0.028381348,-0.11047363,0.034729004
1734715188844,2024-12-20T17:19:48.844Z,342351,-0.02923584,-0.11035156,0.03289795
1734715188851,2024-12-20T17:19:48.851Z,342358,-0.029907227,-0.111328125,0.03564453
1734715188860,2024-12-20T17:19:48.860Z,342367,-0.02746582,-0.108947754,0.039001465
1734715188914,2024-12-20T17:19:48.914Z,342421,-0.029052734,-0.107910156,0.04071045
1734715188920,2024-12-20T17:19:48.920Z,342427,-0.02746582,-0.107910156,0.037841797
1734715188927,2024-12-20T17:19:48.927Z,342434,-0.026672363,-0.109069824,0.037902832
1734715188963,2024-12-20T17:19:48.963Z,342470,-0.02746582,-0.10900879,0.038879395
1734715188969,2024-12-20T17:19:48.969Z,342476,-0.026306152,-0.108947754,0.03564453
1734715188976,2024-12-20T17:19:48.976Z,342483,-0.027954102,-0.10913086,0.034301758
1734715188985,2024-12-20T17:19:48.985Z,342492,-0.029785156,-0.11010742,0.03527832
1734715188994,2024-12-20T17:19:48.994Z,342501,-0.029846191,-0.109375,0.03955078
1734715189005,2024-12-20T17:19:49.005Z,342512,-0.032165527,-0.10687256,0.04296875
1734715189012,2024-12-20T17:19:49.012Z,342519,-0.031433105,-0.10632324,0.041259766
1734715189019,2024-12-20T17:19:49.019Z,342526,-0.03112793,-0.10723877,0.035461426
1734715189026,2024-12-20T17:19:49.026Z,342533,-0.03149414,-0.10681152,0.034240723
1734715189032,2024-12-20T17:19:49.032Z,342539,-0.028869629,-0.10687256,0.03375244
1734715189038,2024-12-20T17:19:49.038Z,342545,-0.028625488,-0.105285645,0.03717041
1734715189052,2024-12-20T17:19:49.052Z,342559,-0.030212402,-0.105407715,0.03564453
1734715189058,2024-12-20T17:19:49.058Z,342565,-0.029541016,-0.10595703,0.03552246
1734715189064,2024-12-20T17:19:49.064Z,342571,-0.028686523,-0.10473633,0.0345459
1734715189070,2024-12-20T17:19:49.070Z,342577,-0.031066895,-0.10345459,0.03668213
1734715189076,2024-12-20T17:19:49.076Z,342583,-0.028015137,-0.10345459,0.037109375
1734715189096,2024-12-20T17:19:49.096Z,342603,-0.025512695,-0.10418701,0.034606934
1734715189102,2024-12-20T17:19:49.102Z,342609,-0.023803711,-0.105041504,0.028686523
1734715189109,2024-12-20T17:19:49.109Z,342616,-0.02722168,-0.10284424,0.02923584
1734715189115,2024-12-20T17:19:49.115Z,342622,-0.03289795,-0.10284424,0.030517578
1734715189120,2024-12-20T17:19:49.120Z,342627,-0.025756836,-0.10491943,0.02734375
1734715189126,2024-12-20T17:19:49.126Z,342633,-0.02508545,-0.10394287,0.032836914
1734715189144,2024-12-20T17:19:49.144Z,342651,-0.02557373,-0.10369873,0.034057617
1734715189150,2024-12-20T17:19:49.150Z,342657,-0.026123047,-0.103759766,0.033996582
1734715189155,2024-12-20T17:19:49.155Z,342662,-0.024963379,-0.103637695,0.03338623
1734715189161,2024-12-20T17:19:49.161Z,342668,-0.026611328,-0.10394287,0.031982422
1734715189166,2024-12-20T17:19:49.166Z,342673,-0.031066895,-0.1027832,0.027709961
1734715189184,2024-12-20T17:19:49.184Z,342691,-0.030090332,-0.10461426,0.022949219
1734715189190,2024-12-20T17:19:49.190Z,342697,-0.029846191,-0.10321045,0.028320312
1734715189197,2024-12-20T17:19:49.197Z,342704,-0.030700684,-0.101867676,0.031982422
1734715189202,2024-12-20T17:19:49.202Z,342709,-0.025939941,-0.10357666,0.032226562
1734715189208,2024-12-20T17:19:49.208Z,342715,-0.028808594,-0.10308838,0.030334473
1734715189214,2024-12-20T17:19:49.214Z,342721,-0.03112793,-0.103881836,0.030151367
1734715189231,2024-12-20T17:19:49.231Z,342738,-0.03265381,-0.10479736,0.028320312
1734715189237,2024-12-20T17:19:49.237Z,342744,-0.029663086,-0.1038208,0.02557373
1734715189243,2024-12-20T17:19:49.243Z,342750,-0.029907227,-0.10534668,0.030822754
1734715189249,2024-12-20T17:19:49.249Z,342756,-0.034179688,-0.10406494,0.03729248
1734715189276,2024-12-20T17:19:49.276Z,342783,-0.030822754,-0.10369873,0.03564453
1734715189282,2024-12-20T17:19:49.282Z,342789,-0.03100586,-0.1038208,0.037719727
1734715189288,2024-12-20T17:19:49.288Z,342795,-0.033813477,-0.10321045,0.03643799
1734715189294,2024-12-20T17:19:49.294Z,342801,-0.031433105,-0.10498047,0.030029297
1734715189320,2024-12-20T17:19:49.320Z,342827,-0.026672363,-0.10675049,0.026611328
1734715189327,2024-12-20T17:19:49.327Z,342834,-0.031433105,-0.101135254,0.03375244
1734715189333,2024-12-20T17:19:49.333Z,342840,-0.031066895,-0.10253906,0.035827637
1734715189339,2024-12-20T17:19:49.339Z,342846,-0.028503418,-0.10455322,0.036071777
1734715189346,2024-12-20T17:19:49.346Z,342853,-0.030517578,-0.10272217,0.037719727
1734715189365,2024-12-20T17:19:49.365Z,342872,-0.02758789,-0.10247803,0.03894043
1734715189372,2024-12-20T17:19:49.372Z,342879,-0.030334473,-0.10235596,0.037719727
1734715189379,2024-12-20T17:19:49.379Z,342886,-0.031799316,-0.103027344,0.03503418
1734715189384,2024-12-20T17:19:49.384Z,342891,-0.028259277,-0.105041504,0.029663086
1734715189409,2024-12-20T17:19:49.409Z,342916,-0.028076172,-0.10510254,0.030151367
1734715189415,2024-12-20T17:19:49.415Z,342922,-0.02923584,-0.101989746,0.038879395
1734715189421,2024-12-20T17:19:49.421Z,342928,-0.033691406,-0.097595215,0.04345703
1734715189428,2024-12-20T17:19:49.428Z,342935,-0.021972656,-0.106933594,0.03387451
1734715189434,2024-12-20T17:19:49.434Z,342941,-0.032287598,-0.1048584,0.03265381
1734715189454,2024-12-20T17:19:49.454Z,342961,-0.033691406,-0.1060791,0.034240723
1734715189460,2024-12-20T17:19:49.460Z,342967,-0.028686523,-0.10699463,0.030395508
1734715189466,2024-12-20T17:19:49.466Z,342973,-0.029907227,-0.1083374,0.02935791
1734715189472,2024-12-20T17:19:49.472Z,342979,-0.033813477,-0.10510254,0.033081055
1734715189499,2024-12-20T17:19:49.499Z,343006,-0.02758789,-0.10998535,0.0234375
1734715189504,2024-12-20T17:19:49.504Z,343011,-0.030395508,-0.10900879,0.026489258
1734715189511,2024-12-20T17:19:49.511Z,343018,-0.0390625,-0.10858154,0.034179688
1734715189517,2024-12-20T17:19:49.517Z,343024,-0.035583496,-0.109069824,0.033203125
1734715189547,2024-12-20T17:19:49.547Z,343054,-0.036315918,-0.108947754,0.03253174
1734715189552,2024-12-20T17:19:49.552Z,343059,-0.041015625,-0.10913086,0.03552246
1734715189558,2024-12-20T17:19:49.558Z,343065,-0.0413208,-0.109375,0.03491211
1734715189563,2024-12-20T17:19:49.563Z,343070,-0.04107666,-0.10986328,0.033325195
1734715189593,2024-12-20T17:19:49.593Z,343100,-0.036071777,-0.11077881,0.030456543
1734715189600,2024-12-20T17:19:49.600Z,343107,-0.03845215,-0.107910156,0.03149414
1734715189606,2024-12-20T17:19:49.606Z,343113,-0.040039062,-0.11047363,0.030700684
1734715189612,2024-12-20T17:19:49.612Z,343119,-0.038269043,-0.11035156,0.032226562
1734715189619,2024-12-20T17:19:49.619Z,343126,-0.037597656,-0.10961914,0.03363037
1734715189682,2024-12-20T17:19:49.682Z,343189,-0.03778076,-0.11077881,0.031433105
1734715189689,2024-12-20T17:19:49.689Z,343196,-0.036865234,-0.11230469,0.026611328
1734715189695,2024-12-20T17:19:49.695Z,343202,-0.038330078,-0.11175537,0.030151367
1734715189701,2024-12-20T17:19:49.701Z,343208,-0.041625977,-0.11053467,0.033813477
1734715189707,2024-12-20T17:19:49.707Z,343214,-0.038879395,-0.10986328,0.03161621
1734715189712,2024-12-20T17:19:49.712Z,343219,-0.037597656,-0.11004639,0.032287598
1734715189728,2024-12-20T17:19:49.728Z,343235,-0.037353516,-0.10913086,0.033691406
1734715189735,2024-12-20T17:19:49.735Z,343242,-0.03466797,-0.10888672,0.03302002
1734715189742,2024-12-20T17:19:49.742Z,343249,-0.03112793,-0.107788086,0.030090332
1734715189749,2024-12-20T17:19:49.749Z,343256,-0.03149414,-0.10723877,0.029174805
1734715189755,2024-12-20T17:19:49.755Z,343262,-0.034301758,-0.10736084,0.027709961
1734715189769,2024-12-20T17:19:49.769Z,343276,-0.034179688,-0.10913086,0.025939941
1734715189775,2024-12-20T17:19:49.775Z,343282,-0.03527832,-0.107788086,0.032348633
1734715189782,2024-12-20T17:19:49.782Z,343289,-0.03552246,-0.10656738,0.036743164
1734715189788,2024-12-20T17:19:49.788Z,343295,-0.033996582,-0.10614014,0.035827637
1734715189794,2024-12-20T17:19:49.794Z,343301,-0.032714844,-0.106933594,0.034484863
1734715189800,2024-12-20T17:19:49.800Z,343307,-0.03338623,-0.10687256,0.033447266
1734715189817,2024-12-20T17:19:49.817Z,343324,-0.034118652,-0.10583496,0.034240723
1734715189823,2024-12-20T17:19:49.823Z,343330,-0.036193848,-0.107299805,0.033325195
1734715189829,2024-12-20T17:19:49.829Z,343336,-0.036743164,-0.10882568,0.03173828
1734715189835,2024-12-20T17:19:49.835Z,343342,-0.038146973,-0.10864258,0.033081055
1734715189840,2024-12-20T17:19:49.840Z,343347,-0.038024902,-0.10858154,0.03491211
1734715189861,2024-12-20T17:19:49.861Z,343368,-0.041137695,-0.105285645,0.040649414
1734715189867,2024-12-20T17:19:49.867Z,343374,-0.03503418,-0.109069824,0.03765869
1734715189872,2024-12-20T17:19:49.872Z,343379,-0.038391113,-0.11016846,0.03466797
1734715189879,2024-12-20T17:19:49.879Z,343386,-0.041625977,-0.11230469,0.028442383
1734715189885,2024-12-20T17:19:49.885Z,343392,-0.037231445,-0.113586426,0.025878906
1734715189906,2024-12-20T17:19:49.906Z,343413,-0.038757324,-0.11260986,0.031066895
1734715189912,2024-12-20T17:19:49.912Z,343419,-0.041625977,-0.11254883,0.03387451
1734715189919,2024-12-20T17:19:49.919Z,343426,-0.04309082,-0.11303711,0.034606934
1734715189925,2024-12-20T17:19:49.925Z,343432,-0.043518066,-0.11419678,0.034118652
1734715189949,2024-12-20T17:19:49.949Z,343456,-0.04168701,-0.114746094,0.033325195
1734715189954,2024-12-20T17:19:49.954Z,343461,-0.041015625,-0.115234375,0.032592773
1734715189962,2024-12-20T17:19:49.962Z,343469,-0.039001465,-0.1149292,0.027832031
1734715189968,2024-12-20T17:19:49.968Z,343475,-0.03643799,-0.11608887,0.026306152
1734715189975,2024-12-20T17:19:49.975Z,343482,-0.038208008,-0.11602783,0.030151367
1734715189995,2024-12-20T17:19:49.995Z,343502,-0.0368042,-0.115478516,0.031921387
1734715190001,2024-12-20T17:19:50.001Z,343508,-0.03692627,-0.11450195,0.03515625
1734715190007,2024-12-20T17:19:50.007Z,343514,-0.03753662,-0.11578369,0.0357666
1734715190013,2024-12-20T17:19:50.013Z,343520,-0.035949707,-0.11627197,0.031982422
1734715190040,2024-12-20T17:19:50.040Z,343547,-0.036376953,-0.11456299,0.032836914
1734715190046,2024-12-20T17:19:50.046Z,343553,-0.038085938,-0.11376953,0.0335083
1734715190052,2024-12-20T17:19:50.052Z,343559,-0.038513184,-0.114990234,0.03186035
1734715190085,2024-12-20T17:19:50.085Z,343592,-0.046936035,-0.109375,0.03778076
1734715190091,2024-12-20T17:19:50.091Z,343598,-0.039245605,-0.11419678,0.03717041
1734715190099,2024-12-20T17:19:50.099Z,343606,-0.037963867,-0.1149292,0.032958984
1734715190105,2024-12-20T17:19:50.105Z,343612,-0.0423584,-0.11303711,0.03326416
1734715190112,2024-12-20T17:19:50.112Z,343619,-0.038085938,-0.11376953,0.03289795
1734715190129,2024-12-20T17:19:50.129Z,343636,-0.03753662,-0.112854004,0.03387451
1734715190134,2024-12-20T17:19:50.134Z,343641,-0.038757324,-0.113220215,0.034301758
1734715190139,2024-12-20T17:19:50.139Z,343646,-0.038513184,-0.11291504,0.032226562
1734715190145,2024-12-20T17:19:50.145Z,343652,-0.037109375,-0.11407471,0.029724121
1734715190150,2024-12-20T17:19:50.150Z,343657,-0.038330078,-0.11206055,0.034301758
1734715190155,2024-12-20T17:19:50.155Z,343662,-0.037353516,-0.11035156,0.03692627
1734715190179,2024-12-20T17:19:50.179Z,343686,-0.032287598,-0.111816406,0.035949707
1734715190185,2024-12-20T17:19:50.185Z,343692,-0.033569336,-0.11206055,0.0357666
1734715190190,2024-12-20T17:19:50.190Z,343697,-0.035339355,-0.111328125,0.035095215
1734715190196,2024-12-20T17:19:50.196Z,343703,-0.03881836,-0.11224365,0.034362793
1734715190219,2024-12-20T17:19:50.219Z,343726,-0.038635254,-0.11303711,0.03363037
1734715190224,2024-12-20T17:19:50.224Z,343731,-0.03692627,-0.11175537,0.03173828
1734715190231,2024-12-20T17:19:50.231Z,343738,-0.03729248,-0.11102295,0.034729004
1734715190236,2024-12-20T17:19:50.236Z,343743,-0.03552246,-0.109436035,0.03479004
1734715190264,2024-12-20T17:19:50.264Z,343771,-0.034057617,-0.1104126,0.033813477
1734715190270,2024-12-20T17:19:50.270Z,343777,-0.037231445,-0.11077881,0.036010742
1734715190277,2024-12-20T17:19:50.277Z,343784,-0.038208008,-0.11016846,0.036010742
1734715190285,2024-12-20T17:19:50.285Z,343792,-0.04046631,-0.109375,0.034606934
1734715190293,2024-12-20T17:19:50.293Z,343800,-0.042297363,-0.10925293,0.033203125
1734715190309,2024-12-20T17:19:50.309Z,343816,-0.044311523,-0.109375,0.03289795
1734715190316,2024-12-20T17:19:50.316Z,343823,-0.046081543,-0.109069824,0.0335083
1734715190322,2024-12-20T17:19:50.322Z,343829,-0.04425049,-0.10913086,0.0345459
1734715190327,2024-12-20T17:19:50.327Z,343834,-0.044799805,-0.109375,0.03668213
1734715190356,2024-12-20T17:19:50.356Z,343863,-0.050048828,-0.10900879,0.03668213
1734715190361,2024-12-20T17:19:50.361Z,343868,-0.050109863,-0.11071777,0.03479004
1734715190367,2024-12-20T17:19:50.367Z,343874,-0.047973633,-0.11206055,0.030883789
1734715190372,2024-12-20T17:19:50.372Z,343879,-0.046813965,-0.11047363,0.032592773
1734715190378,2024-12-20T17:19:50.378Z,343885,-0.045532227,-0.11047363,0.03265381
1734715190398,2024-12-20T17:19:50.398Z,343905,-0.044189453,-0.108947754,0.03314209
1734715190404,2024-12-20T17:19:50.404Z,343911,-0.041931152,-0.107910156,0.036987305
1734715190409,2024-12-20T17:19:50.409Z,343916,-0.042907715,-0.107177734,0.03857422
1734715190415,2024-12-20T17:19:50.415Z,343922,-0.042785645,-0.107543945,0.036254883
1734715190444,2024-12-20T17:19:50.444Z,343951,-0.04272461,-0.10668945,0.037475586
1734715190450,2024-12-20T17:19:50.450Z,343957,-0.040649414,-0.10571289,0.035888672
1734715190457,2024-12-20T17:19:50.457Z,343964,-0.036010742,-0.10668945,0.034179688
1734715190463,2024-12-20T17:19:50.463Z,343970,-0.034484863,-0.105529785,0.03881836
1734715190469,2024-12-20T17:19:50.469Z,343976,-0.03503418,-0.10424805,0.038024902
1734715190489,2024-12-20T17:19:50.489Z,343996,-0.034301758,-0.10626221,0.034423828
1734715190497,2024-12-20T17:19:50.497Z,344004,-0.03302002,-0.107055664,0.037231445
1734715190503,2024-12-20T17:19:50.503Z,344010,-0.036376953,-0.10595703,0.039367676
1734715190509,2024-12-20T17:19:50.509Z,344016,-0.038085938,-0.10626221,0.039367676
1734715190534,2024-12-20T17:19:50.534Z,344041,-0.039611816,-0.10821533,0.03643799
1734715190540,2024-12-20T17:19:50.540Z,344047,-0.0368042,-0.11035156,0.036376953
1734715190546,2024-12-20T17:19:50.546Z,344053,-0.03527832,-0.10626221,0.03668213
1734715190552,2024-12-20T17:19:50.552Z,344059,-0.033691406,-0.107788086,0.033325195
1734715190580,2024-12-20T17:19:50.580Z,344087,-0.032165527,-0.1105957,0.031982422
1734715190586,2024-12-20T17:19:50.586Z,344093,-0.033081055,-0.10845947,0.03656006
1734715190593,2024-12-20T17:19:50.593Z,344100,-0.03149414,-0.11047363,0.040100098
1734715190600,2024-12-20T17:19:50.600Z,344107,-0.032409668,-0.10858154,0.040283203
1734715190606,2024-12-20T17:19:50.606Z,344113,-0.03137207,-0.10723877,0.038391113
1734715190624,2024-12-20T17:19:50.624Z,344131,-0.031188965,-0.107299805,0.037109375
1734715190632,2024-12-20T17:19:50.632Z,344139,-0.03265381,-0.10461426,0.036376953
1734715190638,2024-12-20T17:19:50.638Z,344145,-0.031066895,-0.106933594,0.03277588
1734715190644,2024-12-20T17:19:50.644Z,344151,-0.027709961,-0.10656738,0.033447266
1734715190671,2024-12-20T17:19:50.671Z,344178,-0.024841309,-0.10473633,0.037597656
1734715190677,2024-12-20T17:19:50.677Z,344184,-0.026916504,-0.10369873,0.04058838
1734715190684,2024-12-20T17:19:50.684Z,344191,-0.029968262,-0.10491943,0.036743164
1734715190693,2024-12-20T17:19:50.693Z,344200,-0.034179688,-0.10461426,0.03564453
1734715190700,2024-12-20T17:19:50.700Z,344207,-0.030029297,-0.10668945,0.032165527
1734715190715,2024-12-20T17:19:50.715Z,344222,-0.028259277,-0.10748291,0.029541016
1734715190720,2024-12-20T17:19:50.720Z,344227,-0.026733398,-0.10797119,0.028747559
1734715190726,2024-12-20T17:19:50.726Z,344233,-0.022033691,-0.10736084,0.035095215
1734715190732,2024-12-20T17:19:50.732Z,344239,-0.026916504,-0.105407715,0.04156494
1734715190760,2024-12-20T17:19:50.760Z,344267,-0.0289917,-0.10498047,0.03692627
1734715190810,2024-12-20T17:19:50.810Z,344317,-0.031677246,-0.10675049,0.033996582
1734715190856,2024-12-20T17:19:50.856Z,344363,-0.03491211,-0.105773926,0.034118652
1734715190864,2024-12-20T17:19:50.864Z,344371,-0.03112793,-0.1048584,0.0335083
1734715190871,2024-12-20T17:19:50.871Z,344378,-0.03277588,-0.105407715,0.030090332
1734715190878,2024-12-20T17:19:50.878Z,344385,-0.026733398,-0.10620117,0.029541016
1734715190886,2024-12-20T17:19:50.886Z,344393,-0.026550293,-0.104003906,0.036315918
1734715190895,2024-12-20T17:19:50.895Z,344402,-0.026367188,-0.10412598,0.040283203
1734715190904,2024-12-20T17:19:50.904Z,344411,-0.027160645,-0.101745605,0.03930664
1734715190912,2024-12-20T17:19:50.912Z,344419,-0.032409668,-0.10272217,0.034362793
1734715190919,2024-12-20T17:19:50.919Z,344426,-0.033691406,-0.10290527,0.035888672
1734715190926,2024-12-20T17:19:50.926Z,344433,-0.03289795,-0.10168457,0.03967285
1734715190934,2024-12-20T17:19:50.934Z,344441,-0.02923584,-0.099121094,0.038024902
1734715190943,2024-12-20T17:19:50.943Z,344450,-0.028930664,-0.10015869,0.034362793
1734715190950,2024-12-20T17:19:50.950Z,344457,-0.028930664,-0.09790039,0.0368042
1734715190957,2024-12-20T17:19:50.957Z,344464,-0.02935791,-0.09863281,0.036254883
1734715190962,2024-12-20T17:19:50.962Z,344469,-0.028625488,-0.09881592,0.036621094
1734715190968,2024-12-20T17:19:50.968Z,344475,-0.02923584,-0.09954834,0.038635254
1734715190984,2024-12-20T17:19:50.984Z,344491,-0.029724121,-0.09887695,0.037597656
1734715190990,2024-12-20T17:19:50.990Z,344497,-0.028747559,-0.10119629,0.038391113
1734715190996,2024-12-20T17:19:50.996Z,344503,-0.031799316,-0.10021973,0.03918457
1734715191002,2024-12-20T17:19:51.002Z,344509,-0.03289795,-0.1003418,0.034729004
1734715191007,2024-12-20T17:19:51.007Z,344514,-0.0345459,-0.10180664,0.03338623
1734715191013,2024-12-20T17:19:51.013Z,344520,-0.032287598,-0.10491943,0.032287598
1734715191032,2024-12-20T17:19:51.032Z,344539,-0.029907227,-0.10522461,0.030700684
1734715191039,2024-12-20T17:19:51.039Z,344546,-0.030334473,-0.10614014,0.035461426
1734715191046,2024-12-20T17:19:51.046Z,344553,-0.030883789,-0.10675049,0.041015625
1734715191053,2024-12-20T17:19:51.053Z,344560,-0.031311035,-0.107299805,0.037475586
1734715191060,2024-12-20T17:19:51.060Z,344567,-0.033691406,-0.107421875,0.031188965
1734715191074,2024-12-20T17:19:51.074Z,344581,-0.031921387,-0.110839844,0.030212402
1734715191081,2024-12-20T17:19:51.081Z,344588,-0.02947998,-0.112854004,0.031921387
1734715191092,2024-12-20T17:19:51.092Z,344599,-0.027648926,-0.11206055,0.029907227
1734715191098,2024-12-20T17:19:51.098Z,344605,-0.028564453,-0.11364746,0.03265381
1734715191103,2024-12-20T17:19:51.103Z,344610,-0.02557373,-0.11621094,0.035583496
1734715191109,2024-12-20T17:19:51.109Z,344616,-0.027404785,-0.11431885,0.037902832
1734715191121,2024-12-20T17:19:51.121Z,344628,-0.03173828,-0.11639404,0.03967285
1734715191127,2024-12-20T17:19:51.127Z,344634,-0.02758789,-0.11517334,0.033447266
1734715191133,2024-12-20T17:19:51.133Z,344640,-0.02532959,-0.11315918,0.04083252
1734715191166,2024-12-20T17:19:51.166Z,344673,-0.02960205,-0.112976074,0.04309082
1734715191172,2024-12-20T17:19:51.172Z,344679,-0.023620605,-0.11291504,0.03326416
1734715191177,2024-12-20T17:19:51.177Z,344684,-0.022766113,-0.111694336,0.035461426
1734715191183,2024-12-20T17:19:51.183Z,344690,-0.02734375,-0.113342285,0.038879395
1734715191214,2024-12-20T17:19:51.214Z,344721,-0.024841309,-0.11462402,0.036315918
1734715191220,2024-12-20T17:19:51.220Z,344727,-0.024475098,-0.11273193,0.038024902
1734715191226,2024-12-20T17:19:51.226Z,344733,-0.021118164,-0.11462402,0.044128418
1734715191232,2024-12-20T17:19:51.232Z,344739,-0.022644043,-0.11462402,0.042175293
1734715191238,2024-12-20T17:19:51.238Z,344745,-0.01940918,-0.11407471,0.03173828
1734715191255,2024-12-20T17:19:51.255Z,344762,-0.020690918,-0.11376953,0.03527832
1734715191261,2024-12-20T17:19:51.261Z,344768,-0.025939941,-0.10882568,0.04638672
1734715191268,2024-12-20T17:19:51.268Z,344775,-0.025817871,-0.11212158,0.053588867
1734715191277,2024-12-20T17:19:51.277Z,344784,-0.01776123,-0.11883545,0.03302002
1734715191288,2024-12-20T17:19:51.288Z,344795,-0.024169922,-0.11505127,0.040405273
1734715191301,2024-12-20T17:19:51.301Z,344808,-0.017211914,-0.1159668,0.045776367
1734715191312,2024-12-20T17:19:51.312Z,344819,-0.016662598,-0.11694336,0.043762207
1734715191318,2024-12-20T17:19:51.318Z,344825,-0.020324707,-0.114868164,0.03527832
1734715191324,2024-12-20T17:19:51.324Z,344831,-0.020202637,-0.11651611,0.035217285
1734715191330,2024-12-20T17:19:51.330Z,344837,-0.024047852,-0.117370605,0.03778076
1734715191344,2024-12-20T17:19:51.344Z,344851,-0.020202637,-0.119140625,0.03643799
1734715191350,2024-12-20T17:19:51.350Z,344857,-0.018737793,-0.116882324,0.04046631
1734715191355,2024-12-20T17:19:51.355Z,344862,-0.013977051,-0.12097168,0.03942871
1734715191361,2024-12-20T17:19:51.361Z,344868,-0.008422852,-0.11669922,0.041259766
1734715191389,2024-12-20T17:19:51.389Z,344896,-0.011108398,-0.11517334,0.04321289
1734715191395,2024-12-20T17:19:51.395Z,344902,-0.01373291,-0.11663818,0.04046631
1734715191402,2024-12-20T17:19:51.402Z,344909,-0.01940918,-0.11755371,0.038085938
1734715191407,2024-12-20T17:19:51.407Z,344914,-0.019470215,-0.11871338,0.034484863
1734715191412,2024-12-20T17:19:51.412Z,344919,-0.024047852,-0.11920166,0.03668213
1734715191435,2024-12-20T17:19:51.435Z,344942,-0.019714355,-0.117126465,0.035827637
1734715191442,2024-12-20T17:19:51.442Z,344949,-0.008300781,-0.120910645,0.03894043
1734715191447,2024-12-20T17:19:51.447Z,344954,-0.011230469,-0.1182251,0.04144287
1734715191453,2024-12-20T17:19:51.453Z,344960,-0.00982666,-0.11975098,0.03881836
1734715191526,2024-12-20T17:19:51.526Z,345033,-0.014831543,-0.121520996,0.044677734
1734715191533,2024-12-20T17:19:51.533Z,345040,-0.019592285,-0.12213135,0.048339844
1734715191540,2024-12-20T17:19:51.540Z,345047,-0.020385742,-0.11785889,0.043823242
1734715191547,2024-12-20T17:19:51.547Z,345054,-0.022338867,-0.121276855,0.03930664
1734715191555,2024-12-20T17:19:51.555Z,345062,-0.019042969,-0.12347412,0.034606934
1734715191562,2024-12-20T17:19:51.562Z,345069,-0.012939453,-0.122802734,0.032958984
1734715191575,2024-12-20T17:19:51.575Z,345082,-0.008972168,-0.12225342,0.0423584
1734715191582,2024-12-20T17:19:51.582Z,345089,-0.014526367,-0.12200928,0.049194336
1734715191589,2024-12-20T17:19:51.589Z,345096,-0.012207031,-0.12054443,0.050354004
1734715191594,2024-12-20T17:19:51.594Z,345101,-0.016357422,-0.12011719,0.041137695
1734715191601,2024-12-20T17:19:51.601Z,345108,-0.016845703,-0.12286377,0.023376465
1734715191616,2024-12-20T17:19:51.616Z,345123,-0.009399414,-0.12408447,0.023986816
1734715191622,2024-12-20T17:19:51.622Z,345129,-0.008361816,-0.12145996,0.037902832
1734715191628,2024-12-20T17:19:51.628Z,345135,-0.011047363,-0.12506104,0.041931152
1734715191634,2024-12-20T17:19:51.634Z,345141,-0.01171875,-0.12554932,0.046875
1734715191639,2024-12-20T17:19:51.639Z,345146,-0.010620117,-0.12432861,0.05279541
1734715191644,2024-12-20T17:19:51.644Z,345151,-0.013000488,-0.12225342,0.052734375
1734715191663,2024-12-20T17:19:51.663Z,345170,-0.014587402,-0.12213135,0.038269043
1734715191669,2024-12-20T17:19:51.669Z,345176,-0.010437012,-0.12536621,0.027038574
1734715191674,2024-12-20T17:19:51.674Z,345181,-0.01550293,-0.12402344,0.03277588
1734715191680,2024-12-20T17:19:51.680Z,345187,-0.01550293,-0.12451172,0.03704834
1734715191685,2024-12-20T17:19:51.685Z,345192,-0.014953613,-0.12335205,0.041137695
1734715191705,2024-12-20T17:19:51.705Z,345212,-0.016174316,-0.1239624,0.0501709
1734715191711,2024-12-20T17:19:51.711Z,345218,-0.01751709,-0.12158203,0.053222656
1734715191716,2024-12-20T17:19:51.716Z,345223,-0.021911621,-0.122680664,0.041625977
1734715191722,2024-12-20T17:19:51.722Z,345229,-0.022460938,-0.12097168,0.039001465
1734715191728,2024-12-20T17:19:51.728Z,345235,-0.019104004,-0.124572754,0.035888672
1734715191750,2024-12-20T17:19:51.750Z,345257,-0.0115356445,-0.124938965,0.033447266
1734715191757,2024-12-20T17:19:51.757Z,345264,-0.013244629,-0.12335205,0.03540039
1734715191766,2024-12-20T17:19:51.766Z,345273,-0.01171875,-0.12487793,0.03857422
1734715191778,2024-12-20T17:19:51.778Z,345285,-0.026916504,-0.11956787,0.048461914
1734715191798,2024-12-20T17:19:51.798Z,345305,-0.02734375,-0.123413086,0.048706055
1734715191808,2024-12-20T17:19:51.808Z,345315,-0.027648926,-0.120788574,0.04815674
1734715191818,2024-12-20T17:19:51.818Z,345325,-0.024047852,-0.11932373,0.049804688
1734715191827,2024-12-20T17:19:51.827Z,345334,-0.022521973,-0.118652344,0.04864502
1734715191838,2024-12-20T17:19:51.838Z,345345,-0.018920898,-0.11920166,0.047607422
1734715191844,2024-12-20T17:19:51.844Z,345351,-0.018981934,-0.120910645,0.04437256
1734715191849,2024-12-20T17:19:51.849Z,345356,-0.022827148,-0.11932373,0.03540039
1734715191855,2024-12-20T17:19:51.855Z,345362,-0.022521973,-0.11999512,0.038879395
1734715191860,2024-12-20T17:19:51.860Z,345367,-0.027526855,-0.12145996,0.04083252
1734715191884,2024-12-20T17:19:51.884Z,345391,-0.024047852,-0.12554932,0.039611816
1734715191890,2024-12-20T17:19:51.890Z,345397,-0.023742676,-0.12731934,0.04260254
1734715191931,2024-12-20T17:19:51.931Z,345438,-0.02734375,-0.12060547,0.053833008
1734715191937,2024-12-20T17:19:51.937Z,345444,-0.015014648,-0.12548828,0.042053223
1734715191943,2024-12-20T17:19:51.943Z,345450,-0.013366699,-0.12408447,0.037231445
1734715191949,2024-12-20T17:19:51.949Z,345456,-0.031982422,-0.12023926,0.049743652
1734715191956,2024-12-20T17:19:51.956Z,345463,-0.02532959,-0.12390137,0.042907715
1734715191961,2024-12-20T17:19:51.961Z,345468,-0.03253174,-0.1262207,0.038146973
1734715191977,2024-12-20T17:19:51.977Z,345484,-0.025634766,-0.12506104,0.040283203
1734715191983,2024-12-20T17:19:51.983Z,345490,-0.022216797,-0.12200928,0.044189453
1734715191989,2024-12-20T17:19:51.989Z,345496,-0.022338867,-0.119140625,0.048034668
1734715191994,2024-12-20T17:19:51.994Z,345501,-0.01965332,-0.120910645,0.0491333
1734715192000,2024-12-20T17:19:52Z,345507,-0.019714355,-0.11816406,0.044677734
1734715192018,2024-12-20T17:19:52.018Z,345525,-0.019958496,-0.11791992,0.034301758
1734715192024,2024-12-20T17:19:52.024Z,345531,-0.02355957,-0.123046875,0.028930664
1734715192030,2024-12-20T17:19:52.030Z,345537,-0.022155762,-0.1227417,0.034301758
1734715192035,2024-12-20T17:19:52.035Z,345542,-0.01574707,-0.11987305,0.040039062
1734715192040,2024-12-20T17:19:52.040Z,345547,-0.018676758,-0.12109375,0.04510498
1734715192065,2024-12-20T17:19:52.065Z,345572,-0.019897461,-0.12017822,0.04876709
1734715192071,2024-12-20T17:19:52.071Z,345578,-0.020690918,-0.1194458,0.051879883
1734715192076,2024-12-20T17:19:52.076Z,345583,-0.025268555,-0.12036133,0.043518066
1734715192082,2024-12-20T17:19:52.082Z,345589,-0.019958496,-0.12408447,0.03137207
1734715192109,2024-12-20T17:19:52.109Z,345616,-0.019958496,-0.12213135,0.034057617
1734715192115,2024-12-20T17:19:52.115Z,345622,-0.019348145,-0.122924805,0.03857422
1734715192121,2024-12-20T17:19:52.121Z,345628,-0.019104004,-0.12432861,0.044006348
1734715192126,2024-12-20T17:19:52.126Z,345633,-0.020324707,-0.12530518,0.049072266
1734715192154,2024-12-20T17:19:52.154Z,345661,-0.021118164,-0.1260376,0.04748535
1734715192159,2024-12-20T17:19:52.159Z,345666,-0.021240234,-0.123291016,0.045654297
1734715192165,2024-12-20T17:19:52.165Z,345672,-0.02178955,-0.122680664,0.045288086
1734715192172,2024-12-20T17:19:52.172Z,345679,-0.0234375,-0.12249756,0.04449463
1734715192177,2024-12-20T17:19:52.177Z,345684,-0.020507812,-0.12231445,0.035949707
1734715192199,2024-12-20T17:19:52.199Z,345706,-0.01574707,-0.12298584,0.033447266
1734715192205,2024-12-20T17:19:52.205Z,345712,-0.017822266,-0.12097168,0.043395996
1734715192211,2024-12-20T17:19:52.211Z,345718,-0.0178833,-0.12005615,0.047790527
1734715192217,2024-12-20T17:19:52.217Z,345724,-0.020996094,-0.11987305,0.045410156
1734715192245,2024-12-20T17:19:52.245Z,345752,-0.020202637,-0.119262695,0.043395996
1734715192251,2024-12-20T17:19:52.251Z,345758,-0.018432617,-0.117370605,0.04071045
1734715192256,2024-12-20T17:19:52.256Z,345763,-0.018432617,-0.118652344,0.039489746
1734715192262,2024-12-20T17:19:52.262Z,345769,-0.014831543,-0.11785889,0.036193848
1734715192268,2024-12-20T17:19:52.268Z,345775,-0.018432617,-0.11730957,0.037597656
1734715192290,2024-12-20T17:19:52.290Z,345797,-0.018066406,-0.11791992,0.04168701
1734715192296,2024-12-20T17:19:52.296Z,345803,-0.015014648,-0.11767578,0.041137695
1734715192303,2024-12-20T17:19:52.303Z,345810,-0.018676758,-0.119140625,0.039794922
1734715192310,2024-12-20T17:19:52.310Z,345817,-0.017822266,-0.119628906,0.040100098
1734715192333,2024-12-20T17:19:52.333Z,345840,-0.017578125,-0.11968994,0.037475586
1734715192339,2024-12-20T17:19:52.339Z,345846,-0.018615723,-0.1204834,0.03479004
1734715192344,2024-12-20T17:19:52.344Z,345851,-0.015625,-0.123046875,0.036254883
1734715192350,2024-12-20T17:19:52.350Z,345857,-0.01776123,-0.12219238,0.04156494
1734715192356,2024-12-20T17:19:52.356Z,345863,-0.018249512,-0.1251831,0.044189453
1734715192380,2024-12-20T17:19:52.380Z,345887,-0.020080566,-0.12591553,0.03753662
1734715192387,2024-12-20T17:19:52.387Z,345894,-0.018188477,-0.12695312,0.038391113
1734715192393,2024-12-20T17:19:52.393Z,345900,-0.018188477,-0.12628174,0.043273926
1734715192399,2024-12-20T17:19:52.399Z,345906,-0.018554688,-0.12658691,0.04168701
1734715192423,2024-12-20T17:19:52.423Z,345930,-0.020141602,-0.12774658,0.042053223
1734715192428,2024-12-20T17:19:52.428Z,345935,-0.018981934,-0.12860107,0.041381836
1734715192435,2024-12-20T17:19:52.435Z,345942,-0.019042969,-0.13031006,0.040222168
1734715192441,2024-12-20T17:19:52.441Z,345948,-0.023254395,-0.13238525,0.039733887
1734715192470,2024-12-20T17:19:52.470Z,345977,-0.014953613,-0.13183594,0.03942871
1734715192477,2024-12-20T17:19:52.477Z,345984,-0.014221191,-0.13146973,0.042541504
1734715192486,2024-12-20T17:19:52.486Z,345993,-0.017333984,-0.13305664,0.044555664
1734715192494,2024-12-20T17:19:52.494Z,346001,-0.019348145,-0.13238525,0.046081543
1734715192502,2024-12-20T17:19:52.502Z,346009,-0.024536133,-0.13433838,0.044128418
1734715192515,2024-12-20T17:19:52.515Z,346022,-0.025939941,-0.1373291,0.038757324
1734715192523,2024-12-20T17:19:52.523Z,346030,-0.021911621,-0.13677979,0.0413208
1734715192529,2024-12-20T17:19:52.529Z,346036,-0.01776123,-0.13671875,0.0435791
1734715192539,2024-12-20T17:19:52.539Z,346046,-0.0178833,-0.13739014,0.042114258
1734715192559,2024-12-20T17:19:52.559Z,346066,-0.020141602,-0.13873291,0.045288086
1734715192564,2024-12-20T17:19:52.564Z,346071,-0.022460938,-0.13702393,0.048461914
1734715192570,2024-12-20T17:19:52.570Z,346077,-0.026672363,-0.1361084,0.042053223
1734715192575,2024-12-20T17:19:52.575Z,346082,-0.02935791,-0.13861084,0.034973145
1734715192581,2024-12-20T17:19:52.581Z,346088,-0.0256958,-0.14007568,0.033996582
1734715192651,2024-12-20T17:19:52.651Z,346158,-0.02154541,-0.13867188,0.039245605
1734715192657,2024-12-20T17:19:52.657Z,346164,-0.014709473,-0.13690186,0.041381836
1734715192663,2024-12-20T17:19:52.663Z,346170,-0.015991211,-0.13549805,0.049682617
1734715192667,2024-12-20T17:19:52.667Z,346174,-0.023803711,-0.13635254,0.047424316
1734715192672,2024-12-20T17:19:52.672Z,346179,-0.026123047,-0.13671875,0.036987305
1734715192677,2024-12-20T17:19:52.677Z,346184,-0.02960205,-0.14013672,0.036132812
1734715192699,2024-12-20T17:19:52.699Z,346206,-0.025756836,-0.14141846,0.039367676
1734715192707,2024-12-20T17:19:52.707Z,346214,-0.026306152,-0.1352539,0.04498291
1734715192714,2024-12-20T17:19:52.714Z,346221,-0.017333984,-0.13812256,0.043151855
1734715192720,2024-12-20T17:19:52.720Z,346227,-0.009643555,-0.13739014,0.044799805
1734715192727,2024-12-20T17:19:52.727Z,346234,-0.022399902,-0.13787842,0.05078125
1734715192738,2024-12-20T17:19:52.738Z,346245,-0.025817871,-0.1373291,0.047973633
1734715192744,2024-12-20T17:19:52.744Z,346251,-0.030395508,-0.1394043,0.046142578
1734715192749,2024-12-20T17:19:52.749Z,346256,-0.030456543,-0.13952637,0.04449463
1734715192755,2024-12-20T17:19:52.755Z,346262,-0.02331543,-0.14105225,0.04309082
1734715192760,2024-12-20T17:19:52.760Z,346267,-0.017456055,-0.13842773,0.04547119
1734715192765,2024-12-20T17:19:52.765Z,346272,-0.017211914,-0.13696289,0.049743652
1734715192788,2024-12-20T17:19:52.788Z,346295,-0.020324707,-0.13623047,0.049682617
1734715192792,2024-12-20T17:19:52.792Z,346299,-0.022277832,-0.1359253,0.044799805
1734715192797,2024-12-20T17:19:52.797Z,346304,-0.02746582,-0.13519287,0.04559326
1734715192803,2024-12-20T17:19:52.803Z,346310,-0.02758789,-0.13684082,0.04534912
1734715192808,2024-12-20T17:19:52.808Z,346315,-0.021484375,-0.13616943,0.042175293
1734715192830,2024-12-20T17:19:52.830Z,346337,-0.018249512,-0.13470459,0.043029785
1734715192836,2024-12-20T17:19:52.836Z,346343,-0.018249512,-0.1326294,0.044067383
1734715192842,2024-12-20T17:19:52.842Z,346349,-0.021240234,-0.13330078,0.045288086
1734715192847,2024-12-20T17:19:52.847Z,346354,-0.022460938,-0.13189697,0.045532227
1734715192874,2024-12-20T17:19:52.874Z,346381,-0.021850586,-0.1307373,0.045959473
1734715192879,2024-12-20T17:19:52.879Z,346386,-0.023254395,-0.13061523,0.045410156
1734715192885,2024-12-20T17:19:52.885Z,346392,-0.023742676,-0.12976074,0.044921875
1734715192891,2024-12-20T17:19:52.891Z,346398,-0.022277832,-0.12976074,0.038208008
1734715192895,2024-12-20T17:19:52.895Z,346402,-0.020019531,-0.128479,0.034973145
1734715192920,2024-12-20T17:19:52.920Z,346427,-0.01586914,-0.12683105,0.03704834
1734715192926,2024-12-20T17:19:52.926Z,346433,-0.016540527,-0.12615967,0.041015625
1734715192931,2024-12-20T17:19:52.931Z,346438,-0.020568848,-0.12573242,0.042114258
1734715192937,2024-12-20T17:19:52.937Z,346444,-0.020751953,-0.12567139,0.04321289
1734715192965,2024-12-20T17:19:52.965Z,346472,-0.022583008,-0.124572754,0.041503906
1734715192970,2024-12-20T17:19:52.970Z,346477,-0.02331543,-0.1227417,0.040405273
1734715192976,2024-12-20T17:19:52.976Z,346483,-0.022949219,-0.12182617,0.034729004
1734715192982,2024-12-20T17:19:52.982Z,346489,-0.021118164,-0.12310791,0.030822754
1734715192988,2024-12-20T17:19:52.988Z,346495,-0.016784668,-0.122680664,0.032836914
1734715193011,2024-12-20T17:19:53.011Z,346518,-0.01776123,-0.119506836,0.039245605
1734715193018,2024-12-20T17:19:53.018Z,346525,-0.021850586,-0.1204834,0.04119873
1734715193058,2024-12-20T17:19:53.058Z,346565,-0.022644043,-0.11999512,0.04107666
1734715193069,2024-12-20T17:19:53.069Z,346576,-0.026062012,-0.119506836,0.040649414
1734715193080,2024-12-20T17:19:53.080Z,346587,-0.027648926,-0.11846924,0.040161133
1734715193088,2024-12-20T17:19:53.088Z,346595,-0.028137207,-0.11633301,0.03692627
1734715193097,2024-12-20T17:19:53.097Z,346604,-0.023498535,-0.117492676,0.034057617
1734715193105,2024-12-20T17:19:53.105Z,346612,-0.020080566,-0.115356445,0.03527832
1734715193112,2024-12-20T17:19:53.112Z,346619,-0.020568848,-0.11248779,0.037597656
1734715193119,2024-12-20T17:19:53.119Z,346626,-0.021118164,-0.11199951,0.036315918
1734715193126,2024-12-20T17:19:53.126Z,346633,-0.023986816,-0.111450195,0.033569336
1734715193131,2024-12-20T17:19:53.131Z,346638,-0.026550293,-0.111328125,0.03125
1734715193137,2024-12-20T17:19:53.137Z,346644,-0.024963379,-0.11199951,0.033203125
1734715193144,2024-12-20T17:19:53.144Z,346651,-0.022155762,-0.11047363,0.031311035
1734715193149,2024-12-20T17:19:53.149Z,346656,-0.020446777,-0.109436035,0.030639648
1734715193154,2024-12-20T17:19:53.154Z,346661,-0.020324707,-0.10986328,0.029418945
1734715193159,2024-12-20T17:19:53.159Z,346666,-0.015808105,-0.11126709,0.027648926
1734715193192,2024-12-20T17:19:53.192Z,346699,-0.021972656,-0.106933594,0.03540039
1734715193198,2024-12-20T17:19:53.198Z,346705,-0.024780273,-0.107910156,0.03515625
1734715193204,2024-12-20T17:19:53.204Z,346711,-0.024719238,-0.109191895,0.031921387
1734715193209,2024-12-20T17:19:53.209Z,346716,-0.026855469,-0.10839844,0.032714844
1734715193214,2024-12-20T17:19:53.214Z,346721,-0.02508545,-0.10913086,0.03387451
1734715193237,2024-12-20T17:19:53.237Z,346744,-0.022705078,-0.10736084,0.034973145
1734715193243,2024-12-20T17:19:53.243Z,346750,-0.022827148,-0.105407715,0.03161621
1734715193248,2024-12-20T17:19:53.248Z,346755,-0.02557373,-0.10723877,0.03100586
1734715193253,2024-12-20T17:19:53.253Z,346760,-0.026000977,-0.107177734,0.031433105
1734715193278,2024-12-20T17:19:53.278Z,346785,-0.026062012,-0.10809326,0.03149414
1734715193327,2024-12-20T17:19:53.327Z,346834,-0.02935791,-0.109375,0.029724121
1734715193335,2024-12-20T17:19:53.335Z,346842,-0.02947998,-0.10998535,0.029785156
1734715193342,2024-12-20T17:19:53.342Z,346849,-0.028259277,-0.10876465,0.032409668
1734715193349,2024-12-20T17:19:53.349Z,346856,-0.026916504,-0.107421875,0.032226562
1734715193357,2024-12-20T17:19:53.357Z,346864,-0.025268555,-0.107177734,0.033081055
1734715193364,2024-12-20T17:19:53.364Z,346871,-0.027954102,-0.10662842,0.034057617
1734715193374,2024-12-20T17:19:53.374Z,346881,-0.030273438,-0.10638428,0.032958984
1734715193381,2024-12-20T17:19:53.381Z,346888,-0.030578613,-0.10479736,0.034729004
1734715193388,2024-12-20T17:19:53.388Z,346895,-0.029846191,-0.10430908,0.034179688
1734715193394,2024-12-20T17:19:53.394Z,346901,-0.029296875,-0.10479736,0.02746582
1734715193401,2024-12-20T17:19:53.401Z,346908,-0.027832031,-0.10418701,0.026916504
1734715193416,2024-12-20T17:19:53.416Z,346923,-0.027893066,-0.10272217,0.032348633
1734715193422,2024-12-20T17:19:53.422Z,346929,-0.025390625,-0.10076904,0.029968262
1734715193428,2024-12-20T17:19:53.428Z,346935,-0.024841309,-0.101257324,0.026977539
1734715193433,2024-12-20T17:19:53.433Z,346940,-0.028442383,-0.10205078,0.029724121
1734715193439,2024-12-20T17:19:53.439Z,346946,-0.026733398,-0.10131836,0.03112793
1734715193443,2024-12-20T17:19:53.443Z,346950,-0.024597168,-0.101379395,0.028808594
1734715193462,2024-12-20T17:19:53.462Z,346969,-0.02758789,-0.101989746,0.028137207
1734715193467,2024-12-20T17:19:53.467Z,346974,-0.028564453,-0.10076904,0.028686523
1734715193473,2024-12-20T17:19:53.473Z,346980,-0.026062012,-0.10028076,0.029907227
1734715193478,2024-12-20T17:19:53.478Z,346985,-0.026733398,-0.10003662,0.031066895
1734715193504,2024-12-20T17:19:53.504Z,347011,-0.028747559,-0.09875488,0.032287598
1734715193510,2024-12-20T17:19:53.510Z,347017,-0.024780273,-0.101257324,0.028320312
1734715193515,2024-12-20T17:19:53.515Z,347022,-0.022583008,-0.10064697,0.028808594
1734715193521,2024-12-20T17:19:53.521Z,347028,-0.026306152,-0.099487305,0.030395508
1734715193527,2024-12-20T17:19:53.527Z,347034,-0.026306152,-0.10089111,0.028564453
1734715193552,2024-12-20T17:19:53.552Z,347059,-0.02911377,-0.101745605,0.029418945
1734715193558,2024-12-20T17:19:53.558Z,347065,-0.03112793,-0.10168457,0.029968262
1734715193564,2024-12-20T17:19:53.564Z,347071,-0.027832031,-0.10101318,0.030883789
1734715193572,2024-12-20T17:19:53.572Z,347079,-0.028381348,-0.10064697,0.03265381
1734715193594,2024-12-20T17:19:53.594Z,347101,-0.028503418,-0.099975586,0.030700684
1734715193601,2024-12-20T17:19:53.601Z,347108,-0.0289917,-0.10040283,0.0289917
1734715193607,2024-12-20T17:19:53.607Z,347114,-0.032409668,-0.10217285,0.030029297
1734715193613,2024-12-20T17:19:53.613Z,347120,-0.029846191,-0.10168457,0.028442383
1734715193619,2024-12-20T17:19:53.619Z,347126,-0.026184082,-0.1003418,0.025024414
1734715193640,2024-12-20T17:19:53.640Z,347147,-0.028503418,-0.101501465,0.02734375
1734715193646,2024-12-20T17:19:53.646Z,347153,-0.029846191,-0.10296631,0.02758789
1734715193652,2024-12-20T17:19:53.652Z,347159,-0.028381348,-0.104003906,0.027404785
1734715193658,2024-12-20T17:19:53.658Z,347165,-0.0289917,-0.10430908,0.030761719
1734715193685,2024-12-20T17:19:53.685Z,347192,-0.028137207,-0.1048584,0.033691406
1734715193691,2024-12-20T17:19:53.691Z,347198,-0.02746582,-0.10437012,0.03277588
1734715193697,2024-12-20T17:19:53.697Z,347204,-0.028076172,-0.10479736,0.030700684
1734715193704,2024-12-20T17:19:53.704Z,347211,-0.030151367,-0.10534668,0.028503418
1734715193731,2024-12-20T17:19:53.731Z,347238,-0.032470703,-0.106933594,0.023925781
1734715193776,2024-12-20T17:19:53.776Z,347283,-0.03125,-0.10925293,0.02545166
1734715193783,2024-12-20T17:19:53.783Z,347290,-0.030578613,-0.107177734,0.029785156
1734715193790,2024-12-20T17:19:53.790Z,347297,-0.031677246,-0.10687256,0.03137207
1734715193798,2024-12-20T17:19:53.798Z,347305,-0.027832031,-0.10784912,0.03552246
1734715193806,2024-12-20T17:19:53.806Z,347313,-0.029174805,-0.107299805,0.03540039
1734715193813,2024-12-20T17:19:53.813Z,347320,-0.03302002,-0.10809326,0.028930664
1734715193825,2024-12-20T17:19:53.825Z,347332,-0.031921387,-0.10986328,0.026123047
1734715193831,2024-12-20T17:19:53.831Z,347338,-0.033081055,-0.107299805,0.02734375
1734715193864,2024-12-20T17:19:53.864Z,347371,-0.033935547,-0.107055664,0.024902344
1734715193871,2024-12-20T17:19:53.871Z,347378,-0.030578613,-0.107543945,0.02508545
1734715193876,2024-12-20T17:19:53.876Z,347383,-0.030151367,-0.10620117,0.028381348
1734715193883,2024-12-20T17:19:53.883Z,347390,-0.029968262,-0.10583496,0.03112793
1734715193890,2024-12-20T17:19:53.890Z,347397,-0.030151367,-0.105163574,0.03338623
1734715193896,2024-12-20T17:19:53.896Z,347403,-0.033996582,-0.105773926,0.03137207
1734715193911,2024-12-20T17:19:53.911Z,347418,-0.03387451,-0.10699463,0.026000977
1734715193916,2024-12-20T17:19:53.916Z,347423,-0.03173828,-0.1060791,0.024108887
1734715193923,2024-12-20T17:19:53.923Z,347430,-0.03265381,-0.10632324,0.023620605
1734715193928,2024-12-20T17:19:53.928Z,347435,-0.02911377,-0.10614014,0.023864746
1734715193933,2024-12-20T17:19:53.933Z,347440,-0.031555176,-0.10394287,0.026977539
1734715193954,2024-12-20T17:19:53.954Z,347461,-0.034118652,-0.10559082,0.027282715
1734715193960,2024-12-20T17:19:53.960Z,347467,-0.03717041,-0.10620117,0.025512695
1734715193965,2024-12-20T17:19:53.965Z,347472,-0.039367676,-0.1071167,0.026123047
1734715193971,2024-12-20T17:19:53.971Z,347478,-0.03918457,-0.109313965,0.02746582
1734715193976,2024-12-20T17:19:53.976Z,347483,-0.038269043,-0.10961914,0.024475098
1734715193981,2024-12-20T17:19:53.981Z,347488,-0.036132812,-0.10882568,0.026489258
1734715194003,2024-12-20T17:19:54.003Z,347510,-0.037231445,-0.10888672,0.026245117
1734715194011,2024-12-20T17:19:54.011Z,347518,-0.036193848,-0.111206055,0.020874023
1734715194017,2024-12-20T17:19:54.017Z,347524,-0.038879395,-0.11047363,0.02557373
1734715194024,2024-12-20T17:19:54.024Z,347531,-0.04083252,-0.113464355,0.02935791
1734715194030,2024-12-20T17:19:54.030Z,347537,-0.0413208,-0.11437988,0.031066895
1734715194044,2024-12-20T17:19:54.044Z,347551,-0.042175293,-0.11419678,0.033081055
1734715194050,2024-12-20T17:19:54.050Z,347557,-0.04321289,-0.113220215,0.034606934
1734715194056,2024-12-20T17:19:54.056Z,347563,-0.04071045,-0.11444092,0.032165527
1734715194061,2024-12-20T17:19:54.061Z,347568,-0.040649414,-0.11444092,0.029724121
1734715194067,2024-12-20T17:19:54.067Z,347574,-0.041809082,-0.115356445,0.027404785
1734715194089,2024-12-20T17:19:54.089Z,347596,-0.040039062,-0.11328125,0.028747559
1734715194094,2024-12-20T17:19:54.094Z,347601,-0.03845215,-0.1126709,0.03277588
1734715194098,2024-12-20T17:19:54.098Z,347605,-0.040222168,-0.11090088,0.034484863
1734715194104,2024-12-20T17:19:54.104Z,347611,-0.043273926,-0.11187744,0.034179688
1734715194136,2024-12-20T17:19:54.136Z,347643,-0.046020508,-0.111328125,0.03527832
1734715194141,2024-12-20T17:19:54.141Z,347648,-0.041259766,-0.111206055,0.028747559
1734715194146,2024-12-20T17:19:54.146Z,347653,-0.038757324,-0.112854004,0.02722168
1734715194151,2024-12-20T17:19:54.151Z,347658,-0.04046631,-0.1104126,0.03173828
1734715194156,2024-12-20T17:19:54.156Z,347663,-0.039245605,-0.10986328,0.032043457
1734715194182,2024-12-20T17:19:54.182Z,347689,-0.039916992,-0.11035156,0.03149414
1734715194188,2024-12-20T17:19:54.188Z,347695,-0.043395996,-0.11053467,0.031677246
1734715194193,2024-12-20T17:19:54.193Z,347700,-0.044311523,-0.111206055,0.03186035
1734715194198,2024-12-20T17:19:54.198Z,347705,-0.041870117,-0.1105957,0.029907227
1734715194224,2024-12-20T17:19:54.224Z,347731,-0.04119873,-0.11053467,0.025878906
1734715194229,2024-12-20T17:19:54.229Z,347736,-0.039489746,-0.111206055,0.027954102
1734715194235,2024-12-20T17:19:54.235Z,347742,-0.04083252,-0.11004639,0.027954102
1734715194241,2024-12-20T17:19:54.241Z,347748,-0.040405273,-0.111816406,0.029785156
1734715194247,2024-12-20T17:19:54.247Z,347754,-0.04248047,-0.11224365,0.032470703
1734715194269,2024-12-20T17:19:54.269Z,347776,-0.042907715,-0.11315918,0.030456543
1734715194275,2024-12-20T17:19:54.275Z,347782,-0.04321289,-0.11291504,0.027160645
1734715194281,2024-12-20T17:19:54.281Z,347788,-0.04071045,-0.11187744,0.028808594
1734715194287,2024-12-20T17:19:54.287Z,347794,-0.038085938,-0.11151123,0.030395508
1734715194315,2024-12-20T17:19:54.315Z,347822,-0.038879395,-0.11236572,0.030395508
1734715194321,2024-12-20T17:19:54.321Z,347828,-0.044189453,-0.11218262,0.032165527
1734715194327,2024-12-20T17:19:54.327Z,347834,-0.046325684,-0.11431885,0.029846191
1734715194334,2024-12-20T17:19:54.334Z,347841,-0.044799805,-0.1149292,0.029174805
1734715194359,2024-12-20T17:19:54.359Z,347866,-0.04437256,-0.1149292,0.029663086
1734715194406,2024-12-20T17:19:54.406Z,347913,-0.042175293,-0.113708496,0.030639648
1734715194413,2024-12-20T17:19:54.413Z,347920,-0.04284668,-0.113464355,0.031982422
1734715194420,2024-12-20T17:19:54.420Z,347927,-0.044555664,-0.11505127,0.034362793
1734715194427,2024-12-20T17:19:54.427Z,347934,-0.046875,-0.11633301,0.033203125
1734715194434,2024-12-20T17:19:54.434Z,347941,-0.04699707,-0.11602783,0.028747559
1734715194440,2024-12-20T17:19:54.440Z,347947,-0.046875,-0.11566162,0.029663086
1734715194500,2024-12-20T17:19:54.500Z,348007,-0.047851562,-0.11444092,0.027404785
1734715194507,2024-12-20T17:19:54.507Z,348014,-0.04309082,-0.11566162,0.024841309
1734715194513,2024-12-20T17:19:54.513Z,348020,-0.04144287,-0.11437988,0.027038574
1734715194520,2024-12-20T17:19:54.520Z,348027,-0.041137695,-0.11340332,0.03161621
1734715194527,2024-12-20T17:19:54.527Z,348034,-0.041809082,-0.11236572,0.034606934
