Timestamp (ms),ISO DateTime,Elapsed Time (ms),Acceleration X,Acceleration Y,Acceleration Z
1725722277123,2024-09-07T15:17:57.123Z,412603,-0.2364502,-0.8966675,0.14465332
1725722277169,2024-09-07T15:17:57.169Z,412649,-0.24572754,-0.93255615,0.14581299
1725722277206,2024-09-07T15:17:57.206Z,412686,-0.28149414,-0.96643066,0.15148926
1725722277254,2024-09-07T15:17:57.254Z,412734,-0.24786377,-0.9814453,0.15515137
1725722277302,2024-09-07T15:17:57.302Z,412782,-0.24884033,-0.977417,0.16351318
1725722277332,2024-09-07T15:17:57.332Z,412812,-0.23846436,-0.9481201,0.14709473
1725722277353,2024-09-07T15:17:57.353Z,412833,-0.21691895,-0.92626953,0.124938965
1725722277384,2024-09-07T15:17:57.384Z,412864,-0.21972656,-0.9279175,0.09753418
1725722277435,2024-09-07T15:17:57.435Z,412915,-0.24951172,-0.9484863,0.097961426
1725722277485,2024-09-07T15:17:57.485Z,412965,-0.2559204,-0.9699707,0.08404541
1725722277526,2024-09-07T15:17:57.526Z,413006,-0.24163818,-0.97595215,0.05328369
1725722277571,2024-09-07T15:17:57.571Z,413051,-0.24285889,-0.9780884,0.032470703
1725722277617,2024-09-07T15:17:57.617Z,413097,-0.2456665,-0.9814453,0.053527832
1725722277658,2024-09-07T15:17:57.658Z,413138,-0.2518921,-0.97509766,0.051757812
1725722277706,2024-09-07T15:17:57.706Z,413186,-0.25769043,-0.95996094,0.046813965
1725722277735,2024-09-07T15:17:57.735Z,413215,-0.25842285,-0.95739746,0.04498291
1725722277762,2024-09-07T15:17:57.762Z,413242,-0.2593994,-0.95892334,0.057739258
1725722277791,2024-09-07T15:17:57.791Z,413271,-0.2522583,-0.947876,0.047973633
1725722277838,2024-09-07T15:17:57.838Z,413318,-0.24389648,-0.9406128,0.041259766
1725722277884,2024-09-07T15:17:57.884Z,413364,-0.24334717,-0.9359131,0.038024902
1725722277931,2024-09-07T15:17:57.931Z,413411,-0.24987793,-0.93634033,0.0390625
1725722277976,2024-09-07T15:17:57.976Z,413456,-0.24713135,-0.944458,0.025390625
1725722278024,2024-09-07T15:17:58.024Z,413504,-0.24932861,-0.95965576,0.03869629
1725722278068,2024-09-07T15:17:58.068Z,413548,-0.24719238,-0.9770508,0.03326416
1725722278107,2024-09-07T15:17:58.107Z,413587,-0.2376709,-0.98498535,0.013793945
1725722278155,2024-09-07T15:17:58.155Z,413635,-0.23706055,-0.9838867,0.021057129
1725722278184,2024-09-07T15:17:58.184Z,413664,-0.24212646,-0.98321533,0.040771484
1725722278208,2024-09-07T15:17:58.208Z,413688,-0.24621582,-0.9747925,0.046813965
1725722278242,2024-09-07T15:17:58.242Z,413722,-0.24737549,-0.96551514,0.040893555
1725722278291,2024-09-07T15:17:58.291Z,413771,-0.23791504,-0.9519043,0.054504395
1725722278337,2024-09-07T15:17:58.337Z,413817,-0.22772217,-0.93963623,0.045043945
1725722278377,2024-09-07T15:17:58.377Z,413857,-0.2199707,-0.9260864,0.04473877
1725722278426,2024-09-07T15:17:58.426Z,413906,-0.20117188,-0.90545654,0.050842285
1725722278470,2024-09-07T15:17:58.470Z,413950,-0.19122314,-0.8876953,0.04925537
1725722278516,2024-09-07T15:17:58.516Z,413996,-0.18743896,-0.8811035,0.051452637
1725722278558,2024-09-07T15:17:58.558Z,414038,-0.18634033,-0.86065674,0.04888916
1725722278620,2024-09-07T15:17:58.620Z,414100,-0.18151855,-0.84210205,0.038879395
1725722278691,2024-09-07T15:17:58.691Z,414171,-0.18188477,-0.8571167,0.027893066
1725722278723,2024-09-07T15:17:58.723Z,414203,-0.2076416,-0.8810425,0.045959473
1725722278751,2024-09-07T15:17:58.751Z,414231,-0.23553467,-0.8723755,0.033996582
1725722278772,2024-09-07T15:17:58.772Z,414252,-0.23016357,-0.86816406,0.023620605
1725722278800,2024-09-07T15:17:58.800Z,414280,-0.21820068,-0.8833008,0.0234375
1725722278824,2024-09-07T15:17:58.824Z,414304,-0.22070312,-0.9224243,0.035461426
1725722278933,2024-09-07T15:17:58.933Z,414413,-0.18969727,-0.96466064,0.046691895
1725722278978,2024-09-07T15:17:58.978Z,414458,-0.18261719,-0.98895264,0.061157227
1725722279011,2024-09-07T15:17:59.011Z,414491,-0.21356201,-1.0092773,0.09710693
1725722279038,2024-09-07T15:17:59.038Z,414518,-0.19104004,-0.9850464,0.121276855
1725722279062,2024-09-07T15:17:59.062Z,414542,-0.16992188,-0.975708,0.13244629
1725722279083,2024-09-07T15:17:59.083Z,414563,-0.20947266,-0.9741211,0.17327881
1725722279149,2024-09-07T15:17:59.149Z,414629,-0.20965576,-0.9714966,0.13122559
1725722279182,2024-09-07T15:17:59.182Z,414662,-0.23132324,-0.9559326,0.16711426
1725722279207,2024-09-07T15:17:59.207Z,414687,-0.22576904,-0.935791,0.14776611
1725722279231,2024-09-07T15:17:59.231Z,414711,-0.21496582,-0.94537354,0.15478516
1725722279276,2024-09-07T15:17:59.276Z,414756,-0.2189331,-0.96765137,0.17053223
1725722279323,2024-09-07T15:17:59.323Z,414803,-0.20263672,-0.97961426,0.1430664
1725722279368,2024-09-07T15:17:59.368Z,414848,-0.22277832,-0.994751,0.17456055
1725722279414,2024-09-07T15:17:59.414Z,414894,-0.20904541,-1.0130615,0.18908691
1725722279441,2024-09-07T15:17:59.441Z,414921,-0.22406006,-1.0283203,0.19403076
1725722279464,2024-09-07T15:17:59.464Z,414944,-0.20794678,-1.0249634,0.1359253
1725722279550,2024-09-07T15:17:59.550Z,415030,-0.22741699,-0.9937744,0.15924072
1725722279571,2024-09-07T15:17:59.571Z,415051,-0.21020508,-0.96777344,0.12506104
1725722279594,2024-09-07T15:17:59.594Z,415074,-0.22259521,-0.9685669,0.13275146
1725722279641,2024-09-07T15:17:59.641Z,415121,-0.23065186,-0.972229,0.17297363
1725722279687,2024-09-07T15:17:59.687Z,415167,-0.2319336,-0.96881104,0.14233398
1725722279729,2024-09-07T15:17:59.729Z,415209,-0.25238037,-0.9540405,0.15789795
1725722279779,2024-09-07T15:17:59.779Z,415259,-0.23144531,-0.95996094,0.1408081
1725722279818,2024-09-07T15:17:59.818Z,415298,-0.22875977,-0.9990845,0.1506958
1725722279846,2024-09-07T15:17:59.846Z,415326,-0.20910645,-0.9973755,0.16394043
1725722279870,2024-09-07T15:17:59.870Z,415350,-0.22198486,-0.991272,0.16680908
1725722279909,2024-09-07T15:17:59.909Z,415389,-0.20281982,-0.98638916,0.16638184
1725722279956,2024-09-07T15:17:59.956Z,415436,-0.20306396,-0.9911499,0.19378662
1725722279998,2024-09-07T15:17:59.998Z,415478,-0.18389893,-0.99591064,0.16845703
1725722280044,2024-09-07T15:18:00.044Z,415524,-0.20141602,-0.9914551,0.17108154
1725722280089,2024-09-07T15:18:00.089Z,415569,-0.23803711,-1.0012207,0.15466309
1725722280132,2024-09-07T15:18:00.132Z,415612,-0.24102783,-1.0004883,0.15270996
1725722280179,2024-09-07T15:18:00.179Z,415659,-0.2109375,-0.994812,0.19384766
1725722280225,2024-09-07T15:18:00.225Z,415705,-0.19372559,-1.020813,0.16174316
1725722280253,2024-09-07T15:18:00.253Z,415733,-0.19744873,-1.0532227,0.15765381
1725722280277,2024-09-07T15:18:00.277Z,415757,-0.21362305,-1.0872803,0.16229248
1725722280312,2024-09-07T15:18:00.312Z,415792,-0.18878174,-1.0930786,0.18310547
1725722280417,2024-09-07T15:18:00.417Z,415897,-0.19415283,-1.0871582,0.19671631
1725722280456,2024-09-07T15:18:00.456Z,415936,-0.20941162,-1.0759888,0.20135498
1725722280486,2024-09-07T15:18:00.486Z,415966,-0.20544434,-1.052185,0.18621826
1725722280510,2024-09-07T15:18:00.510Z,415990,-0.2020874,-1.0343628,0.16986084
1725722280536,2024-09-07T15:18:00.536Z,416016,-0.19207764,-1.0169067,0.17071533
1725722280584,2024-09-07T15:18:00.584Z,416064,-0.19885254,-0.9882202,0.1730957
1725722280630,2024-09-07T15:18:00.630Z,416110,-0.20916748,-0.9784546,0.16217041
1725722280677,2024-09-07T15:18:00.677Z,416157,-0.20440674,-0.9812622,0.16223145
1725722280703,2024-09-07T15:18:00.703Z,416183,-0.21087646,-0.99713135,0.16015625
1725722280726,2024-09-07T15:18:00.726Z,416206,-0.19696045,-1.0089111,0.13800049
1725722280763,2024-09-07T15:18:00.763Z,416243,-0.20562744,-1.0196533,0.14813232
1725722280808,2024-09-07T15:18:00.808Z,416288,-0.23168945,-1.0211792,0.14471436
1725722280854,2024-09-07T15:18:00.854Z,416334,-0.2241211,-0.99627686,0.13153076
1725722280899,2024-09-07T15:18:00.899Z,416379,-0.21173096,-0.97210693,0.13781738
1725722280943,2024-09-07T15:18:00.943Z,416423,-0.22851562,-0.97216797,0.13806152
1725722280994,2024-09-07T15:18:00.994Z,416474,-0.24694824,-0.97302246,0.115722656
1725722281033,2024-09-07T15:18:01.033Z,416513,-0.23687744,-0.9580078,0.10461426
1725722281078,2024-09-07T15:18:01.078Z,416558,-0.22875977,-0.94903564,0.10559082
1725722281107,2024-09-07T15:18:01.107Z,416587,-0.2434082,-0.95440674,0.101379395
1725722281132,2024-09-07T15:18:01.132Z,416612,-0.25024414,-0.954834,0.09857178
1725722281167,2024-09-07T15:18:01.167Z,416647,-0.25360107,-0.94750977,0.11047363
1725722281218,2024-09-07T15:18:01.218Z,416698,-0.26690674,-0.93811035,0.10168457
1725722281260,2024-09-07T15:18:01.260Z,416740,-0.27514648,-0.9368286,0.091674805
1725722281304,2024-09-07T15:18:01.304Z,416784,-0.2779541,-0.9279785,0.086120605
1725722281416,2024-09-07T15:18:01.416Z,416896,-0.27105713,-0.9143677,0.0836792
1725722281457,2024-09-07T15:18:01.457Z,416937,-0.27178955,-0.9031372,0.08251953
1725722281485,2024-09-07T15:18:01.485Z,416965,-0.28814697,-0.89416504,0.08270264
1725722281512,2024-09-07T15:18:01.512Z,416992,-0.2987671,-0.89416504,0.054382324
1725722281540,2024-09-07T15:18:01.540Z,417020,-0.2835083,-0.89727783,0.06427002
1725722281562,2024-09-07T15:18:01.562Z,417042,-0.26690674,-0.89501953,0.043823242
1725722281586,2024-09-07T15:18:01.586Z,417066,-0.27130127,-0.902771,0.030273438
1725722281616,2024-09-07T15:18:01.616Z,417096,-0.2906494,-0.91223145,0.026489258
1725722281660,2024-09-07T15:18:01.660Z,417140,-0.303833,-0.8983154,0.031921387
1725722281708,2024-09-07T15:18:01.708Z,417188,-0.28302002,-0.8564453,0.015319824
1725722281753,2024-09-07T15:18:01.753Z,417233,-0.25024414,-0.8305054,-7.9345703E-4
1725722281798,2024-09-07T15:18:01.798Z,417278,-0.27783203,-0.8364258,-0.012329102
1725722281852,2024-09-07T15:18:01.852Z,417332,-0.289917,-0.8529053,-0.0154418945
1725722281890,2024-09-07T15:18:01.890Z,417370,-0.29400635,-0.85821533,-0.010803223
1725722281935,2024-09-07T15:18:01.935Z,417415,-0.32177734,-0.85943604,-0.03100586
1725722281962,2024-09-07T15:18:01.962Z,417442,-0.35375977,-0.86499023,-0.046447754
1725722281986,2024-09-07T15:18:01.986Z,417466,-0.3618164,-0.8895874,-0.035888672
1725722282023,2024-09-07T15:18:02.023Z,417503,-0.39831543,-0.942749,-0.049316406
1725722282067,2024-09-07T15:18:02.067Z,417547,-0.3704834,-0.9684448,-0.029724121
1725722282113,2024-09-07T15:18:02.113Z,417593,-0.31970215,-0.9503784,-0.018249512
1725722282159,2024-09-07T15:18:02.159Z,417639,-0.29833984,-0.9324951,-0.037597656
1725722282204,2024-09-07T15:18:02.204Z,417684,-0.338562,-0.93896484,-0.06323242
1725722282342,2024-09-07T15:18:02.342Z,417822,-0.34936523,-0.95166016,-0.0635376
1725722282376,2024-09-07T15:18:02.376Z,417856,-0.3187256,-0.94641113,-0.049072266
1725722282407,2024-09-07T15:18:02.407Z,417887,-0.31695557,-0.9407959,-0.055664062
1725722282436,2024-09-07T15:18:02.436Z,417916,-0.3242798,-0.94433594,-0.08135986
1725722282461,2024-09-07T15:18:02.461Z,417941,-0.32562256,-0.9470215,-0.0871582
1725722282483,2024-09-07T15:18:02.483Z,417963,-0.33496094,-0.9522095,-0.090148926
1725722282504,2024-09-07T15:18:02.504Z,417984,-0.32525635,-0.9510498,-0.08093262
1725722282563,2024-09-07T15:18:02.563Z,418043,-0.31848145,-0.9505615,-0.085876465
1725722282584,2024-09-07T15:18:02.584Z,418064,-0.32641602,-0.94647217,-0.099853516
1725722282606,2024-09-07T15:18:02.606Z,418086,-0.3326416,-0.9338379,-0.09527588
1725722282651,2024-09-07T15:18:02.651Z,418131,-0.32421875,-0.91851807,-0.08831787
1725722282699,2024-09-07T15:18:02.699Z,418179,-0.3206787,-0.90112305,-0.07128906
1725722282788,2024-09-07T15:18:02.788Z,418268,-0.31207275,-0.8768921,-0.06732178
1725722282810,2024-09-07T15:18:02.810Z,418290,-0.29309082,-0.83862305,-0.05529785
1725722282833,2024-09-07T15:18:02.833Z,418313,-0.25567627,-0.81585693,-0.036071777
1725722282861,2024-09-07T15:18:02.861Z,418341,-0.27026367,-0.8380127,-0.010192871
1725722282886,2024-09-07T15:18:02.886Z,418366,-0.3104248,-0.87286377,-0.019104004
1725722282923,2024-09-07T15:18:02.923Z,418403,-0.2838745,-0.8909302,-0.010253906
1725722282966,2024-09-07T15:18:02.966Z,418446,-0.29473877,-0.89141846,-0.007507324
1725722283013,2024-09-07T15:18:03.013Z,418493,-0.35003662,-0.91729736,0.005004883
1725722283060,2024-09-07T15:18:03.060Z,418540,-0.32556152,-0.9086304,-0.014221191
1725722283103,2024-09-07T15:18:03.103Z,418583,-0.29241943,-0.87683105,-0.0037841797
1725722283148,2024-09-07T15:18:03.148Z,418628,-0.29693604,-0.85876465,-0.006164551
1725722283205,2024-09-07T15:18:03.205Z,418685,-0.32983398,-0.8694458,-0.013671875
1725722283242,2024-09-07T15:18:03.242Z,418722,-0.3244629,-0.87646484,-0.0024414062
1725722283270,2024-09-07T15:18:03.270Z,418750,-0.2734375,-0.87109375,0.019226074
1725722283329,2024-09-07T15:18:03.329Z,418809,-0.25585938,-0.87890625,0.048034668
1725722283354,2024-09-07T15:18:03.354Z,418834,-0.29162598,-0.9035034,0.07867432
1725722283379,2024-09-07T15:18:03.379Z,418859,-0.3140869,-0.9416504,0.05645752
1725722283419,2024-09-07T15:18:03.419Z,418899,-0.31054688,-0.9741821,0.07952881
1725722283463,2024-09-07T15:18:03.463Z,418943,-0.2949829,-0.9891968,0.09033203
1725722283510,2024-09-07T15:18:03.510Z,418990,-0.2883911,-0.99365234,0.09124756
1725722283556,2024-09-07T15:18:03.556Z,419036,-0.3131714,-1.0058594,0.119140625
1725722283599,2024-09-07T15:18:03.599Z,419079,-0.31622314,-0.991272,0.111694336
1725722283623,2024-09-07T15:18:03.623Z,419103,-0.30291748,-0.9654541,0.081726074
1725722283646,2024-09-07T15:18:03.646Z,419126,-0.29418945,-0.9713135,0.07702637
1725722283685,2024-09-07T15:18:03.685Z,419165,-0.31140137,-0.9859619,0.06451416
1725722283736,2024-09-07T15:18:03.736Z,419216,-0.3234253,-0.9719238,0.055358887
1725722283780,2024-09-07T15:18:03.780Z,419260,-0.28778076,-0.95129395,0.0871582
1725722283826,2024-09-07T15:18:03.826Z,419306,-0.25610352,-0.9411011,0.097473145
1725722283878,2024-09-07T15:18:03.878Z,419358,-0.25854492,-0.93133545,0.10784912
1725722283914,2024-09-07T15:18:03.914Z,419394,-0.27404785,-0.9602661,0.09564209
1725722283959,2024-09-07T15:18:03.959Z,419439,-0.2434082,-0.9970093,0.08728027
1725722284004,2024-09-07T15:18:04.004Z,419484,-0.23431396,-1.0125122,0.11224365
1725722284033,2024-09-07T15:18:04.033Z,419513,-0.25952148,-1.0231934,0.10473633
1725722284057,2024-09-07T15:18:04.057Z,419537,-0.2644043,-1.0026245,0.08831787
1725722284092,2024-09-07T15:18:04.092Z,419572,-0.25231934,-0.9805908,0.08569336
1725722284188,2024-09-07T15:18:04.188Z,419668,-0.24346924,-0.98986816,0.08734131
1725722284210,2024-09-07T15:18:04.210Z,419690,-0.2243042,-1.0010986,0.12036133
1725722284234,2024-09-07T15:18:04.234Z,419714,-0.22320557,-1.0189819,0.10058594
1725722284276,2024-09-07T15:18:04.276Z,419756,-0.24804688,-1.0335083,0.101501465
1725722284316,2024-09-07T15:18:04.316Z,419796,-0.2678833,-1.0571289,0.12780762
1725722284364,2024-09-07T15:18:04.364Z,419844,-0.25323486,-1.072937,0.13427734
1725722284409,2024-09-07T15:18:04.409Z,419889,-0.2345581,-1.0545044,0.14855957
1725722284454,2024-09-07T15:18:04.454Z,419934,-0.23339844,-1.0341797,0.14562988
1725722284481,2024-09-07T15:18:04.481Z,419961,-0.24725342,-1.0272827,0.1404419
1725722284505,2024-09-07T15:18:04.505Z,419985,-0.262146,-1.0283203,0.12982178
1725722284542,2024-09-07T15:18:04.542Z,420022,-0.27282715,-1.0437622,0.12286377
1725722284587,2024-09-07T15:18:04.587Z,420067,-0.26940918,-1.0458374,0.119140625
1725722284636,2024-09-07T15:18:04.636Z,420116,-0.2477417,-1.0460205,0.11682129
1725722284683,2024-09-07T15:18:04.683Z,420163,-0.22613525,-1.0515137,0.12426758
1725722284722,2024-09-07T15:18:04.722Z,420202,-0.2434082,-1.0563965,0.12921143
1725722284766,2024-09-07T15:18:04.766Z,420246,-0.2593994,-1.0510864,0.13708496
1725722284822,2024-09-07T15:18:04.822Z,420302,-0.25274658,-1.0283813,0.15203857
1725722284860,2024-09-07T15:18:04.860Z,420340,-0.22729492,-0.99346924,0.15216064
1725722284886,2024-09-07T15:18:04.886Z,420366,-0.22729492,-0.97406006,0.14788818
1725722284952,2024-09-07T15:18:04.952Z,420432,-0.25524902,-0.9827881,0.15435791
1725722284983,2024-09-07T15:18:04.983Z,420463,-0.27539062,-0.9934082,0.14404297
1725722285006,2024-09-07T15:18:05.006Z,420486,-0.25775146,-0.9753418,0.13635254
1725722285035,2024-09-07T15:18:05.035Z,420515,-0.23626709,-0.961853,0.12237549
1725722285083,2024-09-07T15:18:05.083Z,420563,-0.26135254,-0.98358154,0.124816895
1725722285128,2024-09-07T15:18:05.128Z,420608,-0.28967285,-1.0003052,0.115234375
1725722285224,2024-09-07T15:18:05.224Z,420704,-0.28961182,-0.9904785,0.0982666
1725722285250,2024-09-07T15:18:05.250Z,420730,-0.25463867,-0.97680664,0.103515625
1725722285278,2024-09-07T15:18:05.278Z,420758,-0.2565918,-0.9751587,0.10449219
1725722285303,2024-09-07T15:18:05.303Z,420783,-0.2869873,-0.9822998,0.09259033
1725722285353,2024-09-07T15:18:05.353Z,420833,-0.3102417,-0.9828491,0.085754395
1725722285402,2024-09-07T15:18:05.402Z,420882,-0.3085327,-0.9803467,0.08166504
1725722285428,2024-09-07T15:18:05.428Z,420908,-0.29730225,-0.9682007,0.07775879
1725722285451,2024-09-07T15:18:05.451Z,420931,-0.3046875,-0.9671631,0.07897949
1725722285485,2024-09-07T15:18:05.485Z,420965,-0.3145752,-0.9696045,0.0680542
1725722285533,2024-09-07T15:18:05.533Z,421013,-0.31396484,-0.93927,0.06427002
1725722285580,2024-09-07T15:18:05.580Z,421060,-0.3125,-0.9066162,0.0647583
1725722285625,2024-09-07T15:18:05.625Z,421105,-0.29455566,-0.8814697,0.06921387
1725722285671,2024-09-07T15:18:05.671Z,421151,-0.3050537,-0.88098145,0.061523438
1725722285701,2024-09-07T15:18:05.701Z,421181,-0.32617188,-0.88360596,0.04901123
1725722285724,2024-09-07T15:18:05.724Z,421204,-0.3156128,-0.8668823,0.043701172
1725722285756,2024-09-07T15:18:05.756Z,421236,-0.33483887,-0.8694458,0.018615723
1725722285804,2024-09-07T15:18:05.804Z,421284,-0.33477783,-0.8727417,-0.018920898
1725722285893,2024-09-07T15:18:05.893Z,421373,-0.3256836,-0.8594971,-0.017333984
1725722285916,2024-09-07T15:18:05.916Z,421396,-0.3272705,-0.8535156,-0.019958496
1725722285943,2024-09-07T15:18:05.943Z,421423,-0.33770752,-0.85375977,-0.0072021484
1725722286077,2024-09-07T15:18:06.077Z,421557,-0.33685303,-0.8449707,-0.017028809
1725722286101,2024-09-07T15:18:06.101Z,421581,-0.30456543,-0.807251,-0.012817383
1725722286124,2024-09-07T15:18:06.124Z,421604,-0.3199463,-0.8186035,-0.014282227
1725722286146,2024-09-07T15:18:06.146Z,421626,-0.34838867,-0.82385254,-0.005554199
1725722286170,2024-09-07T15:18:06.170Z,421650,-0.35809326,-0.82385254,-0.03503418
1725722286206,2024-09-07T15:18:06.206Z,421686,-0.38079834,-0.82928467,-0.028076172
1725722286229,2024-09-07T15:18:06.229Z,421709,-0.38952637,-0.84906006,-0.076416016
1725722286251,2024-09-07T15:18:06.251Z,421731,-0.40985107,-0.9005127,-0.08013916
1725722286296,2024-09-07T15:18:06.296Z,421776,-0.3955078,-0.9699707,-0.059448242
1725722286341,2024-09-07T15:18:06.341Z,421821,-0.33618164,-0.97442627,-0.026489258
1725722286386,2024-09-07T15:18:06.386Z,421866,-0.3395996,-0.9317627,-0.021972656
1725722286441,2024-09-07T15:18:06.441Z,421921,-0.41088867,-0.9315796,-0.08856201
1725722286479,2024-09-07T15:18:06.479Z,421959,-0.43804932,-0.9309082,-0.08679199
1725722286576,2024-09-07T15:18:06.576Z,422056,-0.39788818,-0.9251709,-0.052490234
1725722286611,2024-09-07T15:18:06.611Z,422091,-0.35437012,-0.93078613,-0.041870117
1725722286638,2024-09-07T15:18:06.638Z,422118,-0.34985352,-0.93322754,-0.038879395
1725722286660,2024-09-07T15:18:06.660Z,422140,-0.37347412,-0.91833496,-0.064697266
1725722286682,2024-09-07T15:18:06.682Z,422162,-0.3930664,-0.9099121,-0.092285156
1725722286707,2024-09-07T15:18:06.707Z,422187,-0.36828613,-0.9147339,-0.07092285
1725722286747,2024-09-07T15:18:06.747Z,422227,-0.35809326,-0.9266968,-0.057128906
1725722286791,2024-09-07T15:18:06.791Z,422271,-0.3468628,-0.92755127,-0.051940918
1725722286838,2024-09-07T15:18:06.838Z,422318,-0.317688,-0.91430664,-0.014709473
1725722286887,2024-09-07T15:18:06.887Z,422367,-0.2831421,-0.87579346,0.0064086914
1725722286931,2024-09-07T15:18:06.931Z,422411,-0.30096436,-0.8326416,0.0014038086
1725722286963,2024-09-07T15:18:06.963Z,422443,-0.35687256,-0.8183594,-0.04949951
1725722286988,2024-09-07T15:18:06.988Z,422468,-0.39611816,-0.81762695,-0.078430176
1725722287017,2024-09-07T15:18:07.017Z,422497,-0.3441162,-0.8051758,-0.07904053
1725722287063,2024-09-07T15:18:07.063Z,422543,-0.30340576,-0.819458,-0.05029297
1725722287108,2024-09-07T15:18:07.108Z,422588,-0.32617188,-0.84558105,-0.08666992
1725722287156,2024-09-07T15:18:07.156Z,422636,-0.33203125,-0.85253906,-0.041259766
1725722287246,2024-09-07T15:18:07.246Z,422726,-0.33215332,-0.8607178,-0.024536133
1725722287272,2024-09-07T15:18:07.272Z,422752,-0.32232666,-0.8994751,0.021057129
1725722287302,2024-09-07T15:18:07.302Z,422782,-0.33117676,-0.93865967,0.02709961
1725722287332,2024-09-07T15:18:07.332Z,422812,-0.31237793,-0.94244385,0.03741455
1725722287376,2024-09-07T15:18:07.376Z,422856,-0.3173828,-0.947876,0.05596924
1725722287402,2024-09-07T15:18:07.402Z,422882,-0.33807373,-0.95007324,0.059814453
1725722287424,2024-09-07T15:18:07.424Z,422904,-0.3293457,-0.91955566,0.052246094
1725722287467,2024-09-07T15:18:07.467Z,422947,-0.34155273,-0.890625,0.058166504
1725722287514,2024-09-07T15:18:07.514Z,422994,-0.34881592,-0.8922119,0.0826416
1725722287604,2024-09-07T15:18:07.604Z,423084,-0.3475952,-0.90460205,0.13354492
1725722287631,2024-09-07T15:18:07.631Z,423111,-0.33135986,-0.916626,0.14733887
1725722287659,2024-09-07T15:18:07.659Z,423139,-0.33898926,-0.9397583,0.14544678
1725722287692,2024-09-07T15:18:07.692Z,423172,-0.3555298,-0.9660034,0.152771
1725722287738,2024-09-07T15:18:07.738Z,423218,-0.34552002,-0.9692993,0.15240479
1725722287785,2024-09-07T15:18:07.785Z,423265,-0.34228516,-0.946167,0.1515503
1725722287815,2024-09-07T15:18:07.815Z,423295,-0.31866455,-0.9272461,0.1609497
1725722287842,2024-09-07T15:18:07.842Z,423322,-0.30810547,-0.93603516,0.13842773
1725722287919,2024-09-07T15:18:07.919Z,423399,-0.29406738,-0.94281006,0.13195801
1725722287950,2024-09-07T15:18:07.950Z,423430,-0.31195068,-0.9484863,0.11828613
1725722287975,2024-09-07T15:18:07.975Z,423455,-0.30786133,-0.9738159,0.13891602
1725722288007,2024-09-07T15:18:08.007Z,423487,-0.29333496,-0.9961548,0.14971924
1725722288056,2024-09-07T15:18:08.056Z,423536,-0.28588867,-0.99871826,0.13104248
1725722288100,2024-09-07T15:18:08.100Z,423580,-0.28216553,-0.9821167,0.1375122
1725722288141,2024-09-07T15:18:08.141Z,423621,-0.26678467,-0.9822998,0.1251831
1725722288191,2024-09-07T15:18:08.191Z,423671,-0.27319336,-0.9902954,0.111694336
1725722288219,2024-09-07T15:18:08.219Z,423699,-0.33154297,-0.9879761,0.113586426
1725722288243,2024-09-07T15:18:08.243Z,423723,-0.3206787,-0.9833374,0.12359619
1725722288278,2024-09-07T15:18:08.278Z,423758,-0.2649536,-0.97442627,0.14367676
1725722288322,2024-09-07T15:18:08.322Z,423802,-0.2562256,-0.9819946,0.15686035
1725722288371,2024-09-07T15:18:08.371Z,423851,-0.29943848,-1.0283203,0.113586426
1725722288414,2024-09-07T15:18:08.414Z,423894,-0.2935791,-1.0687866,0.15533447
1725722288460,2024-09-07T15:18:08.460Z,423940,-0.28131104,-1.0706177,0.18060303
1725722288508,2024-09-07T15:18:08.508Z,423988,-0.28631592,-1.055542,0.20196533
1725722288550,2024-09-07T15:18:08.550Z,424030,-0.27087402,-1.0239258,0.17358398
1725722288595,2024-09-07T15:18:08.595Z,424075,-0.26904297,-1.0177002,0.17578125
1725722288640,2024-09-07T15:18:08.640Z,424120,-0.26153564,-1.0258789,0.17474365
1725722288666,2024-09-07T15:18:08.666Z,424146,-0.26861572,-1.0335083,0.17492676
1725722288731,2024-09-07T15:18:08.731Z,424211,-0.27404785,-1.0216064,0.15106201
1725722288752,2024-09-07T15:18:08.752Z,424232,-0.2783203,-1.019043,0.13360596
1725722288775,2024-09-07T15:18:08.775Z,424255,-0.265625,-1.022583,0.15252686
1725722288815,2024-09-07T15:18:08.815Z,424295,-0.27496338,-1.0300293,0.15527344
1725722288862,2024-09-07T15:18:08.862Z,424342,-0.28344727,-1.02771,0.15026855
1725722288910,2024-09-07T15:18:08.910Z,424390,-0.2816162,-1.0175781,0.15899658
1725722288955,2024-09-07T15:18:08.955Z,424435,-0.2833252,-1.0090332,0.14746094
1725722288998,2024-09-07T15:18:08.998Z,424478,-0.28686523,-1.0012207,0.15142822
1725722289044,2024-09-07T15:18:09.044Z,424524,-0.28686523,-1.0009766,0.15264893
1725722289073,2024-09-07T15:18:09.073Z,424553,-0.2923584,-0.9923706,0.15356445
1725722289105,2024-09-07T15:18:09.105Z,424585,-0.29907227,-0.984375,0.13452148
1725722289129,2024-09-07T15:18:09.129Z,424609,-0.2930298,-0.9828491,0.14422607
1725722289179,2024-09-07T15:18:09.179Z,424659,-0.29022217,-0.96746826,0.12261963
1725722289227,2024-09-07T15:18:09.227Z,424707,-0.29309082,-0.9661865,0.09527588
1725722289273,2024-09-07T15:18:09.273Z,424753,-0.2814331,-0.95880127,0.10101318
1725722289312,2024-09-07T15:18:09.312Z,424792,-0.2796631,-0.9470825,0.103515625
1725722289362,2024-09-07T15:18:09.362Z,424842,-0.2886963,-0.9545288,0.10644531
1725722289408,2024-09-07T15:18:09.408Z,424888,-0.28411865,-0.96209717,0.09246826
1725722289448,2024-09-07T15:18:09.448Z,424928,-0.28344727,-0.9616089,0.08721924
1725722289479,2024-09-07T15:18:09.479Z,424959,-0.28668213,-0.95410156,0.06384277
1725722289506,2024-09-07T15:18:09.506Z,424986,-0.28771973,-0.9399414,0.06939697
1725722289537,2024-09-07T15:18:09.537Z,425017,-0.31225586,-0.92303467,0.085998535
1725722289583,2024-09-07T15:18:09.583Z,425063,-0.3192749,-0.9053955,0.06896973
1725722289626,2024-09-07T15:18:09.626Z,425106,-0.3031006,-0.89349365,0.07513428
1725722289683,2024-09-07T15:18:09.683Z,425163,-0.29974365,-0.883667,0.05340576
1725722289736,2024-09-07T15:18:09.736Z,425216,-0.29510498,-0.8758545,0.038391113
1725722289770,2024-09-07T15:18:09.770Z,425250,-0.28448486,-0.89508057,0.05859375
1725722289830,2024-09-07T15:18:09.830Z,425310,-0.28961182,-0.9110718,0.08190918
1725722289856,2024-09-07T15:18:09.856Z,425336,-0.30419922,-0.916687,0.074401855
1725722289903,2024-09-07T15:18:09.903Z,425383,-0.3027954,-0.9232178,0.057250977
1725722289959,2024-09-07T15:18:09.959Z,425439,-0.2861328,-0.91845703,0.05908203
1725722289987,2024-09-07T15:18:09.987Z,425467,-0.25811768,-0.89385986,0.06542969
1725722290012,2024-09-07T15:18:10.012Z,425492,-0.26837158,-0.8805542,0.068725586
1725722290034,2024-09-07T15:18:10.034Z,425514,-0.29492188,-0.8739624,0.06756592
1725722290088,2024-09-07T15:18:10.088Z,425568,-0.27703857,-0.8414917,0.05529785
1725722290123,2024-09-07T15:18:10.123Z,425603,-0.27001953,-0.8079834,0.039794922
1725722290168,2024-09-07T15:18:10.168Z,425648,-0.2616577,-0.7843628,0.020874023
1725722290210,2024-09-07T15:18:10.210Z,425690,-0.26452637,-0.7988281,0.0029907227
1725722290262,2024-09-07T15:18:10.262Z,425742,-0.33081055,-0.8760376,-0.032592773
1725722290304,2024-09-07T15:18:10.304Z,425784,-0.3786621,-0.96746826,-0.040039062
1725722290330,2024-09-07T15:18:10.330Z,425810,-0.34155273,-0.97650146,-0.0024414062
1725722290353,2024-09-07T15:18:10.353Z,425833,-0.29656982,-0.9272461,0.033691406
1725722290396,2024-09-07T15:18:10.396Z,425876,-0.3203125,-0.9349365,-1.8310547E-4
1725722290448,2024-09-07T15:18:10.448Z,425928,-0.3805542,-0.9819336,-0.01586914
1725722290533,2024-09-07T15:18:10.533Z,426013,-0.36175537,-0.99902344,0.011779785
1725722290561,2024-09-07T15:18:10.561Z,426041,-0.30413818,-0.9696045,0.02758789
1725722290587,2024-09-07T15:18:10.587Z,426067,-0.30566406,-0.9193115,-0.0020141602
1725722290615,2024-09-07T15:18:10.615Z,426095,-0.31384277,-0.8970947,-0.025146484
1725722290665,2024-09-07T15:18:10.665Z,426145,-0.3251953,-0.90930176,-0.017944336
1725722290708,2024-09-07T15:18:10.708Z,426188,-0.34570312,-0.9351196,-0.01739502
1725722290734,2024-09-07T15:18:10.734Z,426214,-0.34680176,-0.9519043,-0.015991211
1725722290758,2024-09-07T15:18:10.758Z,426238,-0.32366943,-0.95648193,-0.015625
1725722290799,2024-09-07T15:18:10.799Z,426279,-0.3036499,-0.95617676,-0.01776123
1725722290846,2024-09-07T15:18:10.846Z,426326,-0.30200195,-0.9530029,-0.009277344
1725722290888,2024-09-07T15:18:10.888Z,426368,-0.31573486,-0.94921875,-0.014709473
1725722290934,2024-09-07T15:18:10.934Z,426414,-0.33135986,-0.9338989,-0.015686035
1725722290978,2024-09-07T15:18:10.978Z,426458,-0.28070068,-0.8965454,0.008605957
1725722291030,2024-09-07T15:18:11.030Z,426510,-0.23803711,-0.852417,0.018127441
1725722291117,2024-09-07T15:18:11.117Z,426597,-0.2524414,-0.8308716,0.014892578
1725722291143,2024-09-07T15:18:11.143Z,426623,-0.29614258,-0.8171997,0.0014648438
1725722291169,2024-09-07T15:18:11.169Z,426649,-0.2803955,-0.8046875,-4.272461E-4
1725722291202,2024-09-07T15:18:11.202Z,426682,-0.2630005,-0.80773926,4.272461E-4
1725722291236,2024-09-07T15:18:11.236Z,426716,-0.29052734,-0.8488159,-0.0024414062
1725722291260,2024-09-07T15:18:11.260Z,426740,-0.31988525,-0.89953613,0.01171875
1725722291292,2024-09-07T15:18:11.292Z,426772,-0.30517578,-0.90802,0.03491211
1725722291355,2024-09-07T15:18:11.355Z,426835,-0.33740234,-0.92071533,0.041931152
1725722291383,2024-09-07T15:18:11.383Z,426863,-0.33843994,-0.92370605,0.028747559
1725722291429,2024-09-07T15:18:11.429Z,426909,-0.29034424,-0.8779907,0.03918457
1725722291472,2024-09-07T15:18:11.472Z,426952,-0.286438,-0.85375977,0.049316406
1725722291520,2024-09-07T15:18:11.520Z,427000,-0.31378174,-0.8791504,0.06793213
1725722291563,2024-09-07T15:18:11.563Z,427043,-0.32336426,-0.8986206,0.068115234
1725722291589,2024-09-07T15:18:11.589Z,427069,-0.34399414,-0.909729,0.07745361
1725722291615,2024-09-07T15:18:11.615Z,427095,-0.3116455,-0.93048096,0.07128906
1725722291651,2024-09-07T15:18:11.651Z,427131,-0.22540283,-0.9456177,0.109191895
1725722291713,2024-09-07T15:18:11.713Z,427193,-0.23651123,-0.9807129,0.15362549
1725722291744,2024-09-07T15:18:11.744Z,427224,-0.35791016,-1.0411377,0.11846924
1725722291788,2024-09-07T15:18:11.788Z,427268,-0.37786865,-1.0392456,0.08850098
1725722291836,2024-09-07T15:18:11.836Z,427316,-0.2617798,-0.9772949,0.123046875
1725722291882,2024-09-07T15:18:11.882Z,427362,-0.20776367,-0.9556885,0.15112305
1725722291929,2024-09-07T15:18:11.929Z,427409,-0.262146,-0.97143555,0.14025879
1725722291967,2024-09-07T15:18:11.967Z,427447,-0.3267212,-0.9747925,0.08782959
1725722291995,2024-09-07T15:18:11.995Z,427475,-0.3297119,-0.9593506,0.10473633
1725722292019,2024-09-07T15:18:12.019Z,427499,-0.28479004,-0.954895,0.11468506
1725722292059,2024-09-07T15:18:12.059Z,427539,-0.2770996,-0.9696655,0.1060791
1725722292105,2024-09-07T15:18:12.105Z,427585,-0.27478027,-0.9838257,0.10369873
1725722292150,2024-09-07T15:18:12.150Z,427630,-0.30151367,-0.9951172,0.07861328
1725722292240,2024-09-07T15:18:12.240Z,427720,-0.30059814,-1.0045776,0.09777832
1725722292270,2024-09-07T15:18:12.270Z,427750,-0.27746582,-1.0077515,0.109680176
1725722292299,2024-09-07T15:18:12.299Z,427779,-0.25994873,-1.0031738,0.1071167
1725722292375,2024-09-07T15:18:12.375Z,427855,-0.22564697,-1.003479,0.090270996
1725722292400,2024-09-07T15:18:12.400Z,427880,-0.21435547,-0.99993896,0.09686279
1725722292430,2024-09-07T15:18:12.430Z,427910,-0.26965332,-1.0161133,0.07885742
1725722292454,2024-09-07T15:18:12.454Z,427934,-0.3053589,-1.0302734,0.043029785
1725722292478,2024-09-07T15:18:12.478Z,427958,-0.3123169,-1.045166,0.03942871
1725722292508,2024-09-07T15:18:12.508Z,427988,-0.2581787,-1.0715942,0.06530762
1725722292552,2024-09-07T15:18:12.552Z,428032,-0.23614502,-1.1027222,0.10852051
1725722292600,2024-09-07T15:18:12.600Z,428080,-0.28155518,-1.1415405,0.15563965
1725722292642,2024-09-07T15:18:12.642Z,428122,-0.3085327,-1.1437988,0.17596436
1725722292690,2024-09-07T15:18:12.690Z,428170,-0.2718506,-1.0800171,0.17456055
1725722292739,2024-09-07T15:18:12.739Z,428219,-0.23510742,-1.0230103,0.17626953
1725722292779,2024-09-07T15:18:12.779Z,428259,-0.272583,-1.0028687,0.16064453
1725722292821,2024-09-07T15:18:12.821Z,428301,-0.28234863,-0.9973755,0.13446045
1725722292848,2024-09-07T15:18:12.848Z,428328,-0.27178955,-0.9901123,0.15142822
1725722292871,2024-09-07T15:18:12.871Z,428351,-0.2588501,-0.9973755,0.13641357
1725722292913,2024-09-07T15:18:12.913Z,428393,-0.2553711,-1.0153198,0.12030029
1725722292960,2024-09-07T15:18:12.960Z,428440,-0.28131104,-1.045105,0.12719727
1725722293003,2024-09-07T15:18:13.003Z,428483,-0.26208496,-1.0539551,0.11273193
1725722293051,2024-09-07T15:18:13.051Z,428531,-0.25061035,-1.0363159,0.11669922
1725722293093,2024-09-07T15:18:13.093Z,428573,-0.25164795,-1.0183716,0.09649658
1725722293139,2024-09-07T15:18:13.139Z,428619,-0.2617798,-1.0055542,0.077941895
1725722293184,2024-09-07T15:18:13.184Z,428664,-0.29248047,-0.9918823,0.08691406
1725722293229,2024-09-07T15:18:13.229Z,428709,-0.29858398,-0.9719238,0.07287598
1725722293266,2024-09-07T15:18:13.266Z,428746,-0.28344727,-0.95391846,0.06085205
1725722293317,2024-09-07T15:18:13.317Z,428797,-0.29187012,-0.9550781,0.07775879
1725722293342,2024-09-07T15:18:13.342Z,428822,-0.3125,-0.9746094,0.05987549
1725722293367,2024-09-07T15:18:13.367Z,428847,-0.33081055,-0.97839355,0.053100586
1725722293407,2024-09-07T15:18:13.407Z,428887,-0.3284912,-0.96136475,0.052490234
1725722293451,2024-09-07T15:18:13.451Z,428931,-0.31048584,-0.92523193,0.048583984
1725722293501,2024-09-07T15:18:13.501Z,428981,-0.31500244,-0.8930054,0.044555664
1725722293589,2024-09-07T15:18:13.589Z,429069,-0.31420898,-0.8918457,0.034423828
1725722293617,2024-09-07T15:18:13.617Z,429097,-0.3069458,-0.88812256,0.026733398
1725722293646,2024-09-07T15:18:13.646Z,429126,-0.3034668,-0.86932373,0.026489258
1725722293681,2024-09-07T15:18:13.681Z,429161,-0.29974365,-0.86468506,0.015136719
1725722293707,2024-09-07T15:18:13.707Z,429187,-0.30407715,-0.88604736,0.02508545
1725722293732,2024-09-07T15:18:13.732Z,429212,-0.3287964,-0.895813,0.030212402
1725722293771,2024-09-07T15:18:13.771Z,429251,-0.3347168,-0.8945923,0.0126953125
1725722293812,2024-09-07T15:18:13.812Z,429292,-0.32202148,-0.90075684,0.025268555
1725722293906,2024-09-07T15:18:13.906Z,429386,-0.32629395,-0.8856201,0.023742676
1725722293996,2024-09-07T15:18:13.996Z,429476,-0.31463623,-0.83709717,0.017333984
1725722294029,2024-09-07T15:18:14.029Z,429509,-0.2701416,-0.78686523,0.034240723
1725722294064,2024-09-07T15:18:14.064Z,429544,-0.26019287,-0.7531128,0.02709961
1725722294097,2024-09-07T15:18:14.097Z,429577,-0.27471924,-0.7379761,0.002380371
1725722294119,2024-09-07T15:18:14.119Z,429599,-0.31243896,-0.7628784,-0.01751709
1725722294143,2024-09-07T15:18:14.143Z,429623,-0.36035156,-0.8395386,-0.046081543
1725722294165,2024-09-07T15:18:14.165Z,429645,-0.38757324,-0.928772,-0.07672119
1725722294188,2024-09-07T15:18:14.188Z,429668,-0.36541748,-0.9714966,-0.072631836
1725722294216,2024-09-07T15:18:14.216Z,429696,-0.31506348,-0.9697876,-0.015258789
1725722294261,2024-09-07T15:18:14.261Z,429741,-0.31378174,-0.9640503,0.0289917
1725722294308,2024-09-07T15:18:14.308Z,429788,-0.3577881,-0.9651489,0.022460938
1725722294355,2024-09-07T15:18:14.355Z,429835,-0.3935547,-0.972229,-0.0044555664
1725722294400,2024-09-07T15:18:14.400Z,429880,-0.36688232,-0.97125244,-0.0211792
1725722294492,2024-09-07T15:18:14.492Z,429972,-0.31591797,-0.94696045,-0.0072631836
1725722294522,2024-09-07T15:18:14.522Z,430002,-0.32580566,-0.91833496,-1.2207031E-4
1725722294551,2024-09-07T15:18:14.551Z,430031,-0.35510254,-0.9050293,0.0029907227
1725722294579,2024-09-07T15:18:14.579Z,430059,-0.36987305,-0.9109497,-0.0021972656
1725722294602,2024-09-07T15:18:14.602Z,430082,-0.3703003,-0.9194946,-0.014099121
1725722294625,2024-09-07T15:18:14.625Z,430105,-0.3538208,-0.92529297,-0.019348145
1725722294665,2024-09-07T15:18:14.665Z,430145,-0.33239746,-0.91516113,-0.0256958
1725722294712,2024-09-07T15:18:14.712Z,430192,-0.33062744,-0.8982544,-0.030639648
1725722294756,2024-09-07T15:18:14.756Z,430236,-0.31036377,-0.88079834,-0.02368164
1725722294803,2024-09-07T15:18:14.803Z,430283,-0.25982666,-0.8706665,0.0043945312
1725722294848,2024-09-07T15:18:14.848Z,430328,-0.27850342,-0.8688965,0.021850586
1725722294893,2024-09-07T15:18:14.893Z,430373,-0.3456421,-0.84265137,-0.0115356445
1725722294938,2024-09-07T15:18:14.938Z,430418,-0.37127686,-0.821228,-0.055847168
1725722294966,2024-09-07T15:18:14.966Z,430446,-0.32452393,-0.83984375,-0.020080566
1725722294990,2024-09-07T15:18:14.990Z,430470,-0.27398682,-0.86499023,-0.016357422
1725722295027,2024-09-07T15:18:15.027Z,430507,-0.31451416,-0.88256836,-0.029846191
1725722295073,2024-09-07T15:18:15.073Z,430553,-0.3710327,-0.87768555,-0.041503906
1725722295122,2024-09-07T15:18:15.122Z,430602,-0.35272217,-0.8644409,0.012756348
1725722295162,2024-09-07T15:18:15.162Z,430642,-0.3479004,-0.86376953,0.012756348
1725722295210,2024-09-07T15:18:15.210Z,430690,-0.33929443,-0.8522339,-0.010437012
1725722295255,2024-09-07T15:18:15.255Z,430735,-0.31506348,-0.86053467,0.012329102
1725722295298,2024-09-07T15:18:15.298Z,430778,-0.336792,-0.9017334,0.00592041
1725722295392,2024-09-07T15:18:15.392Z,430872,-0.34796143,-0.89501953,0.0053710938
1725722295420,2024-09-07T15:18:15.420Z,430900,-0.33502197,-0.8701782,0.06530762
1725722295458,2024-09-07T15:18:15.458Z,430938,-0.31384277,-0.8768921,0.10266113
1725722295482,2024-09-07T15:18:15.482Z,430962,-0.35321045,-0.9246216,0.124572754
1725722295503,2024-09-07T15:18:15.503Z,430983,-0.34960938,-0.9725952,0.11871338
1725722295525,2024-09-07T15:18:15.525Z,431005,-0.32507324,-0.99957275,0.12286377
1725722295570,2024-09-07T15:18:15.570Z,431050,-0.31304932,-1.0270996,0.18432617
1725722295660,2024-09-07T15:18:15.660Z,431140,-0.3274536,-1.0060425,0.21496582
1725722295680,2024-09-07T15:18:15.680Z,431160,-0.3468628,-0.9991455,0.20269775
1725722295699,2024-09-07T15:18:15.699Z,431179,-0.33966064,-0.9847412,0.21380615
1725722295795,2024-09-07T15:18:15.795Z,431275,-0.31469727,-0.9803467,0.18255615
1725722295815,2024-09-07T15:18:15.815Z,431295,-0.31018066,-0.99017334,0.16003418
1725722295844,2024-09-07T15:18:15.844Z,431324,-0.32800293,-0.9904175,0.12060547
1725722295872,2024-09-07T15:18:15.872Z,431352,-0.34259033,-0.9819946,0.12322998
1725722295896,2024-09-07T15:18:15.896Z,431376,-0.33947754,-0.9544678,0.107910156
1725722295925,2024-09-07T15:18:15.925Z,431405,-0.33050537,-0.92352295,0.088134766
1725722295973,2024-09-07T15:18:15.973Z,431453,-0.32287598,-0.93395996,0.09637451
1725722296017,2024-09-07T15:18:16.017Z,431497,-0.3348999,-0.9309082,0.089416504
1725722296076,2024-09-07T15:18:16.076Z,431556,-0.32891846,-0.9332886,0.07525635
1725722296158,2024-09-07T15:18:16.158Z,431638,-0.29864502,-0.97314453,0.10638428
1725722296182,2024-09-07T15:18:16.182Z,431662,-0.3046875,-1.0096436,0.08331299
1725722296207,2024-09-07T15:18:16.207Z,431687,-0.37713623,-1.0258789,0.0836792
1725722296230,2024-09-07T15:18:16.230Z,431710,-0.37542725,-1.0120239,0.068359375
1725722296253,2024-09-07T15:18:16.253Z,431733,-0.32995605,-0.9654541,0.07910156
1725722296286,2024-09-07T15:18:16.286Z,431766,-0.2958374,-0.92840576,0.111206055
1725722296331,2024-09-07T15:18:16.331Z,431811,-0.32177734,-0.95843506,0.085632324
1725722296378,2024-09-07T15:18:16.378Z,431858,-0.34942627,-0.9960327,0.08251953
1725722296432,2024-09-07T15:18:16.432Z,431912,-0.3569336,-1.0097656,0.0881958
1725722296470,2024-09-07T15:18:16.470Z,431950,-0.31732178,-1.0423584,0.092041016
1725722296517,2024-09-07T15:18:16.517Z,431997,-0.2929077,-1.0615845,0.10296631
1725722296563,2024-09-07T15:18:16.563Z,432043,-0.30584717,-1.0718994,0.11364746
1725722296605,2024-09-07T15:18:16.605Z,432085,-0.31304932,-1.0669556,0.13470459
1725722296633,2024-09-07T15:18:16.633Z,432113,-0.33294678,-1.0734863,0.12731934
1725722296658,2024-09-07T15:18:16.658Z,432138,-0.3139038,-1.0455933,0.095336914
1725722296691,2024-09-07T15:18:16.691Z,432171,-0.26708984,-1.0166626,0.12030029
1725722296747,2024-09-07T15:18:16.747Z,432227,-0.28497314,-1.0269165,0.109558105
1725722296832,2024-09-07T15:18:16.832Z,432312,-0.32202148,-1.0299683,0.10668945
1725722296859,2024-09-07T15:18:16.859Z,432339,-0.324646,-1.0166626,0.109436035
1725722296920,2024-09-07T15:18:16.920Z,432400,-0.31933594,-0.9953613,0.12579346
1725722296952,2024-09-07T15:18:16.952Z,432432,-0.31384277,-0.97351074,0.10925293
1725722296979,2024-09-07T15:18:16.979Z,432459,-0.31304932,-0.9654541,0.08508301
1725722297009,2024-09-07T15:18:17.009Z,432489,-0.31121826,-0.97631836,0.09661865
1725722297034,2024-09-07T15:18:17.034Z,432514,-0.31188965,-0.9729004,0.101745605
1725722297057,2024-09-07T15:18:17.057Z,432537,-0.33605957,-0.96875,0.0927124
1725722297096,2024-09-07T15:18:17.096Z,432576,-0.32434082,-0.9539795,0.06677246
1725722297141,2024-09-07T15:18:17.141Z,432621,-0.30059814,-0.94311523,0.074157715
1725722297233,2024-09-07T15:18:17.233Z,432713,-0.3057251,-0.96881104,0.06512451
1725722297258,2024-09-07T15:18:17.258Z,432738,-0.31097412,-0.9766846,0.044433594
1725722297279,2024-09-07T15:18:17.279Z,432759,-0.3244629,-0.95910645,0.039978027
1725722297322,2024-09-07T15:18:17.322Z,432802,-0.32788086,-0.9573364,0.014038086
1725722297367,2024-09-07T15:18:17.367Z,432847,-0.30810547,-0.96777344,0.012573242
1725722297412,2024-09-07T15:18:17.412Z,432892,-0.3128662,-0.9795532,0.0115356445
1725722297467,2024-09-07T15:18:17.467Z,432947,-0.29803467,-0.95758057,-0.0015869141
1725722297487,2024-09-07T15:18:17.487Z,432967,-0.29632568,-0.94189453,0.024841309
1725722297510,2024-09-07T15:18:17.510Z,432990,-0.3143921,-0.9406738,0.016174316
1725722297548,2024-09-07T15:18:17.548Z,433028,-0.30975342,-0.9282837,0.010620117
1725722297621,2024-09-07T15:18:17.621Z,433101,-0.29486084,-0.9219971,0.028442383
1725722297655,2024-09-07T15:18:17.655Z,433135,-0.28411865,-0.9254761,0.018554688
1725722297681,2024-09-07T15:18:17.681Z,433161,-0.2816162,-0.9215698,0.033203125
1725722297727,2024-09-07T15:18:17.727Z,433207,-0.26409912,-0.9029541,0.06536865
1725722297776,2024-09-07T15:18:17.776Z,433256,-0.24969482,-0.8777466,0.07086182
1725722297820,2024-09-07T15:18:17.820Z,433300,-0.23394775,-0.83081055,0.07397461
1725722297865,2024-09-07T15:18:17.865Z,433345,-0.21618652,-0.78570557,0.076416016
1725722297894,2024-09-07T15:18:17.894Z,433374,-0.21936035,-0.7675781,0.06750488
1725722297918,2024-09-07T15:18:17.918Z,433398,-0.24285889,-0.7715454,0.034606934
1725722297950,2024-09-07T15:18:17.950Z,433430,-0.27441406,-0.795105,0.0038452148
1725722298044,2024-09-07T15:18:18.044Z,433524,-0.3143921,-0.85913086,-0.024108887
1725722298063,2024-09-07T15:18:18.063Z,433543,-0.3635254,-0.9324341,-0.044128418
1725722298091,2024-09-07T15:18:18.091Z,433571,-0.34753418,-0.92907715,-0.032836914
1725722298178,2024-09-07T15:18:18.178Z,433658,-0.32263184,-0.9146118,-0.029296875
1725722298354,2024-09-07T15:18:18.354Z,433834,-0.32434082,-0.9434204,-0.018432617
1725722298391,2024-09-07T15:18:18.391Z,433871,-0.33795166,-0.9546509,0.0048217773
1725722298417,2024-09-07T15:18:18.417Z,433897,-0.38952637,-0.956604,0.0048828125
1725722298439,2024-09-07T15:18:18.439Z,433919,-0.3922119,-0.9447632,-0.0014648438
1725722298462,2024-09-07T15:18:18.462Z,433942,-0.35443115,-0.91918945,0.0032958984
1725722298484,2024-09-07T15:18:18.484Z,433964,-0.34539795,-0.9064331,0.008666992
1725722298504,2024-09-07T15:18:18.504Z,433984,-0.3567505,-0.9095459,0.022949219
1725722298524,2024-09-07T15:18:18.524Z,434004,-0.38128662,-0.91882324,0.023010254
1725722298547,2024-09-07T15:18:18.547Z,434027,-0.38928223,-0.9177246,0.031677246
1725722298568,2024-09-07T15:18:18.568Z,434048,-0.34490967,-0.88391113,0.035217285
1725722298597,2024-09-07T15:18:18.597Z,434077,-0.31652832,-0.8436279,0.037597656
1725722298626,2024-09-07T15:18:18.626Z,434106,-0.33343506,-0.84973145,0.042419434
1725722298672,2024-09-07T15:18:18.672Z,434152,-0.3241577,-0.9110718,0.039489746
1725722298726,2024-09-07T15:18:18.726Z,434206,-0.30792236,-0.9753418,0.04650879
1725722298764,2024-09-07T15:18:18.764Z,434244,-0.28033447,-0.991333,0.087890625
1725722298795,2024-09-07T15:18:18.795Z,434275,-0.24035645,-0.94659424,0.12792969
1725722298829,2024-09-07T15:18:18.829Z,434309,-0.19104004,-0.895874,0.13763428
1725722298854,2024-09-07T15:18:18.854Z,434334,-0.1630249,-0.8657837,0.1430664
1725722354211,2024-09-07T15:19:14.211Z,489691,-0.3633423,-0.9154663,-0.027770996
1725722354252,2024-09-07T15:19:14.252Z,489732,-0.3572998,-0.932251,-0.033325195
1725722354290,2024-09-07T15:19:14.290Z,489770,-0.3590088,-0.93981934,-0.0060424805
1725722354321,2024-09-07T15:19:14.321Z,489801,-0.36358643,-0.9335327,-0.014160156
1725722354350,2024-09-07T15:19:14.350Z,489830,-0.36035156,-0.9328003,-0.016052246
1725722354381,2024-09-07T15:19:14.381Z,489861,-0.3555298,-0.9258423,-0.026550293
1725722354428,2024-09-07T15:19:14.428Z,489908,-0.34094238,-0.93066406,-0.026306152
1725722354500,2024-09-07T15:19:14.500Z,489980,-0.34368896,-0.9298706,-0.008178711
1725722354538,2024-09-07T15:19:14.538Z,490018,-0.35516357,-0.9310913,-0.016601562
1725722354610,2024-09-07T15:19:14.610Z,490090,-0.35791016,-0.93548584,-0.028381348
1725722354637,2024-09-07T15:19:14.637Z,490117,-0.3517456,-0.94262695,-0.034423828
1725722354662,2024-09-07T15:19:14.662Z,490142,-0.3404541,-0.9439087,-0.030517578
1725722354701,2024-09-07T15:19:14.701Z,490181,-0.33270264,-0.94195557,-0.036010742
1725722354743,2024-09-07T15:19:14.743Z,490223,-0.34301758,-0.94415283,-0.022705078
1725722354772,2024-09-07T15:19:14.772Z,490252,-0.34643555,-0.94433594,-0.022766113
1725722354800,2024-09-07T15:19:14.800Z,490280,-0.33251953,-0.93029785,-0.03527832
1725722354841,2024-09-07T15:19:14.841Z,490321,-0.3256836,-0.9187012,-0.030090332
1725722354889,2024-09-07T15:19:14.889Z,490369,-0.33361816,-0.9265137,-0.015991211
1725722354929,2024-09-07T15:19:14.929Z,490409,-0.3421631,-0.93566895,-0.016174316
1725722354965,2024-09-07T15:19:14.965Z,490445,-0.3408203,-0.9403076,-0.0234375
1725722355059,2024-09-07T15:19:15.059Z,490539,-0.33972168,-0.9406738,-0.023376465
1725722355083,2024-09-07T15:19:15.083Z,490563,-0.3330078,-0.93859863,-0.021972656
1725722355116,2024-09-07T15:19:15.116Z,490596,-0.3267212,-0.94073486,-0.03552246
1725722355149,2024-09-07T15:19:15.149Z,490629,-0.3283081,-0.9456177,-0.028198242
1725722355177,2024-09-07T15:19:15.177Z,490657,-0.33361816,-0.9373779,-0.028625488
1725722355205,2024-09-07T15:19:15.205Z,490685,-0.3295288,-0.9224243,-0.04119873
1725722355237,2024-09-07T15:19:15.237Z,490717,-0.31671143,-0.9147949,-0.031921387
1725722355281,2024-09-07T15:19:15.281Z,490761,-0.30218506,-0.8998413,-0.030761719
1725722355325,2024-09-07T15:19:15.325Z,490805,-0.27520752,-0.8811035,-0.046936035
1725722355374,2024-09-07T15:19:15.374Z,490854,-0.24871826,-0.8500366,-0.02923584
1725722355416,2024-09-07T15:19:15.416Z,490896,-0.24102783,-0.84124756,-0.008911133
1725722355464,2024-09-07T15:19:15.464Z,490944,-0.25073242,-0.87323,-0.016296387
1725722355508,2024-09-07T15:19:15.508Z,490988,-0.2647705,-0.9170532,-0.014221191
1725722355600,2024-09-07T15:19:15.600Z,491080,-0.27600098,-0.9192505,0.011108398
1725722355630,2024-09-07T15:19:15.630Z,491110,-0.27667236,-0.8815918,0.020690918
1725722355659,2024-09-07T15:19:15.659Z,491139,-0.27600098,-0.87023926,-0.016113281
1725722355700,2024-09-07T15:19:15.700Z,491180,-0.2821045,-0.86151123,-0.022216797
1725722355729,2024-09-07T15:19:15.729Z,491209,-0.26635742,-0.87957764,0.020996094
1725722355755,2024-09-07T15:19:15.755Z,491235,-0.27301025,-0.9416504,0.042236328
1725722355866,2024-09-07T15:19:15.866Z,491346,-0.29449463,-0.994751,0.06384277
1725722355890,2024-09-07T15:19:15.890Z,491370,-0.28485107,-0.9591675,0.07293701
1725722355913,2024-09-07T15:19:15.913Z,491393,-0.29107666,-0.9312744,0.10229492
1725722355957,2024-09-07T15:19:15.957Z,491437,-0.3100586,-0.9210205,0.068481445
1725722355985,2024-09-07T15:19:15.985Z,491465,-0.3314209,-0.9180908,0.09844971
1725722356013,2024-09-07T15:19:16.013Z,491493,-0.28997803,-0.91278076,0.06628418
1725722356052,2024-09-07T15:19:16.052Z,491532,-0.30786133,-0.9011841,0.06933594
1725722356080,2024-09-07T15:19:16.080Z,491560,-0.3277588,-0.9175415,0.09375
1725722356108,2024-09-07T15:19:16.108Z,491588,-0.3178711,-0.93707275,0.057739258
1725722356194,2024-09-07T15:19:16.194Z,491674,-0.32122803,-0.9470215,0.096191406
1725722356220,2024-09-07T15:19:16.220Z,491700,-0.34716797,-0.96777344,0.06414795
1725722356273,2024-09-07T15:19:16.273Z,491753,-0.3557129,-0.965271,0.048339844
1725722356300,2024-09-07T15:19:16.300Z,491780,-0.3661499,-0.97088623,0.10296631
1725722356328,2024-09-07T15:19:16.328Z,491808,-0.35113525,-0.9821167,0.06866455
1725722356360,2024-09-07T15:19:16.360Z,491840,-0.359375,-0.9729004,0.10626221
1725722356451,2024-09-07T15:19:16.451Z,491931,-0.34277344,-0.96728516,0.10180664
1725722356474,2024-09-07T15:19:16.474Z,491954,-0.31958008,-0.9644165,0.119384766
1725722356541,2024-09-07T15:19:16.541Z,492021,-0.3334961,-0.9501343,0.16802979
1725722356578,2024-09-07T15:19:16.578Z,492058,-0.36138916,-0.94421387,0.13824463
1725722356607,2024-09-07T15:19:16.607Z,492087,-0.37609863,-0.9404297,0.12591553
1725722356643,2024-09-07T15:19:16.643Z,492123,-0.37176514,-0.93652344,0.093566895
1725722356669,2024-09-07T15:19:16.669Z,492149,-0.35125732,-0.9484253,0.09991455
1725722356697,2024-09-07T15:19:16.697Z,492177,-0.30700684,-0.94055176,0.07775879
1725722356723,2024-09-07T15:19:16.723Z,492203,-0.3164673,-0.9645386,0.098083496
1725722356767,2024-09-07T15:19:16.767Z,492247,-0.35217285,-0.98114014,0.1361084
1725722356814,2024-09-07T15:19:16.814Z,492294,-0.3493042,-1.0010986,0.13031006
1725722356840,2024-09-07T15:19:16.840Z,492320,-0.3031006,-0.9898071,0.15216064
1725722356864,2024-09-07T15:19:16.864Z,492344,-0.30047607,-0.9852295,0.1348877
1725722356901,2024-09-07T15:19:16.901Z,492381,-0.32287598,-1.0248413,0.16040039
1725722356961,2024-09-07T15:19:16.961Z,492441,-0.35162354,-1.0529785,0.19403076
1725722357061,2024-09-07T15:19:17.061Z,492541,-0.35461426,-1.0557251,0.17706299
1725722357098,2024-09-07T15:19:17.098Z,492578,-0.3550415,-1.0428467,0.17010498
1725722357129,2024-09-07T15:19:17.129Z,492609,-0.3336792,-1.0200195,0.1739502
1725722357155,2024-09-07T15:19:17.155Z,492635,-0.33294678,-1.0099487,0.16027832
1725722357184,2024-09-07T15:19:17.184Z,492664,-0.33117676,-1.0081177,0.16546631
1725722357220,2024-09-07T15:19:17.220Z,492700,-0.32696533,-0.9925537,0.1762085
1725722357262,2024-09-07T15:19:17.262Z,492742,-0.324646,-0.97924805,0.16693115
1725722357289,2024-09-07T15:19:17.289Z,492769,-0.32305908,-0.99884033,0.1630249
1725722357313,2024-09-07T15:19:17.313Z,492793,-0.3067627,-1.019043,0.19030762
1725722357350,2024-09-07T15:19:17.350Z,492830,-0.29693604,-1.0289307,0.19604492
1725722357395,2024-09-07T15:19:17.395Z,492875,-0.3088379,-1.0181885,0.19818115
1725722357445,2024-09-07T15:19:17.445Z,492925,-0.3203125,-1.003479,0.19390869
1725722357486,2024-09-07T15:19:17.486Z,492966,-0.3045044,-0.9859009,0.19439697
1725722357535,2024-09-07T15:19:17.535Z,493015,-0.27764893,-0.95874023,0.21020508
1725722357580,2024-09-07T15:19:17.580Z,493060,-0.2828369,-0.94226074,0.20343018
1725722357621,2024-09-07T15:19:17.621Z,493101,-0.27850342,-0.9282837,0.16809082
1725722357716,2024-09-07T15:19:17.716Z,493196,-0.29492188,-0.92803955,0.13928223
1725722357747,2024-09-07T15:19:17.747Z,493227,-0.30285645,-0.9239502,0.12023926
1725722357775,2024-09-07T15:19:17.775Z,493255,-0.29016113,-0.91571045,0.11779785
1725722357810,2024-09-07T15:19:17.810Z,493290,-0.28424072,-0.909729,0.11047363
1725722357848,2024-09-07T15:19:17.848Z,493328,-0.28857422,-0.9133911,0.103759766
1725722357875,2024-09-07T15:19:17.875Z,493355,-0.29211426,-0.923645,0.09088135
1725722357900,2024-09-07T15:19:17.900Z,493380,-0.30047607,-0.9401245,0.08947754
1725722357937,2024-09-07T15:19:17.937Z,493417,-0.32769775,-0.9418335,0.0947876
1725722358121,2024-09-07T15:19:18.121Z,493601,-0.34875488,-0.9401245,0.08282471
1725722358150,2024-09-07T15:19:18.150Z,493630,-0.35791016,-0.9428711,0.079956055
1725722358176,2024-09-07T15:19:18.176Z,493656,-0.34588623,-0.94421387,0.07055664
1725722358203,2024-09-07T15:19:18.203Z,493683,-0.35021973,-0.954895,0.061462402
1725722358224,2024-09-07T15:19:18.224Z,493704,-0.37243652,-0.9603882,0.041992188
1725722358251,2024-09-07T15:19:18.251Z,493731,-0.3694458,-0.9338989,0.04309082
1725722358280,2024-09-07T15:19:18.280Z,493760,-0.3413086,-0.89660645,0.05328369
1725722358307,2024-09-07T15:19:18.307Z,493787,-0.3330078,-0.88842773,0.054260254
1725722358335,2024-09-07T15:19:18.335Z,493815,-0.34643555,-0.9052124,0.048217773
1725722358359,2024-09-07T15:19:18.359Z,493839,-0.33642578,-0.91796875,0.040771484
1725722358396,2024-09-07T15:19:18.396Z,493876,-0.3330078,-0.925354,0.053710938
1725722358481,2024-09-07T15:19:18.481Z,493961,-0.34729004,-0.9243164,0.050964355
1725722358510,2024-09-07T15:19:18.510Z,493990,-0.3411255,-0.91326904,0.047180176
1725722358535,2024-09-07T15:19:18.535Z,494015,-0.31628418,-0.887146,0.05718994
1725722358561,2024-09-07T15:19:18.561Z,494041,-0.29193115,-0.850708,0.057861328
1725722358750,2024-09-07T15:19:18.750Z,494230,-0.2741089,-0.82476807,0.045715332
1725722358776,2024-09-07T15:19:18.776Z,494256,-0.2748413,-0.80474854,0.042297363
1725722358802,2024-09-07T15:19:18.802Z,494282,-0.2611084,-0.7680054,0.02532959
1725722358828,2024-09-07T15:19:18.828Z,494308,-0.23901367,-0.75250244,0.00390625
1725722358850,2024-09-07T15:19:18.850Z,494330,-0.3001709,-0.82196045,-0.010131836
1725722358880,2024-09-07T15:19:18.880Z,494360,-0.4175415,-0.9607544,-0.05316162
1725722358909,2024-09-07T15:19:18.909Z,494389,-0.42773438,-1.0498657,-0.045959473
1725722358936,2024-09-07T15:19:18.936Z,494416,-0.3371582,-0.9834595,-0.0056152344
1725722358960,2024-09-07T15:19:18.960Z,494440,-0.30340576,-0.9076538,-0.013671875
1725722358987,2024-09-07T15:19:18.987Z,494467,-0.35327148,-0.90179443,-0.032226562
1725722359021,2024-09-07T15:19:19.021Z,494501,-0.3826294,-0.91015625,-0.0028076172
1725722359046,2024-09-07T15:19:19.046Z,494526,-0.3735962,-0.9269409,0.03692627
1725722359072,2024-09-07T15:19:19.072Z,494552,-0.35406494,-0.942688,0.023376465
1725722359104,2024-09-07T15:19:19.104Z,494584,-0.3421631,-0.9343262,-0.013916016
1725722359154,2024-09-07T15:19:19.154Z,494634,-0.3560791,-0.9194336,-0.042419434
1725722359195,2024-09-07T15:19:19.195Z,494675,-0.3587036,-0.9108887,-0.048828125
1725722359242,2024-09-07T15:19:19.242Z,494722,-0.37371826,-0.9258423,-0.033813477
1725722359286,2024-09-07T15:19:19.286Z,494766,-0.40014648,-0.9454346,-0.014343262
1725722359331,2024-09-07T15:19:19.331Z,494811,-0.41638184,-0.95129395,-0.0138549805
1725722359361,2024-09-07T15:19:19.361Z,494841,-0.3899536,-0.9407959,-0.026611328
1725722359386,2024-09-07T15:19:19.386Z,494866,-0.35491943,-0.923645,-0.021911621
1725722359420,2024-09-07T15:19:19.420Z,494900,-0.35461426,-0.9125366,-0.010253906
1725722359467,2024-09-07T15:19:19.467Z,494947,-0.3687744,-0.9118042,0.004272461
1725722359512,2024-09-07T15:19:19.512Z,494992,-0.39160156,-0.916626,0.011108398
1725722359561,2024-09-07T15:19:19.561Z,495041,-0.37945557,-0.9194336,-0.0018310547
1725722359601,2024-09-07T15:19:19.601Z,495081,-0.34832764,-0.9211426,0.003479004
1725722359647,2024-09-07T15:19:19.647Z,495127,-0.34588623,-0.92071533,0.006591797
1725722359695,2024-09-07T15:19:19.695Z,495175,-0.35308838,-0.9182739,0.0037231445
1725722359741,2024-09-07T15:19:19.741Z,495221,-0.3590088,-0.9157715,0.024719238
1725722359785,2024-09-07T15:19:19.785Z,495265,-0.34765625,-0.91571045,0.026916504
1725722359818,2024-09-07T15:19:19.818Z,495298,-0.32403564,-0.91778564,0.012451172
1725722359845,2024-09-07T15:19:19.845Z,495325,-0.28411865,-0.9043579,0.03515625
1725722359874,2024-09-07T15:19:19.874Z,495354,-0.25183105,-0.89349365,0.043395996
1725722359916,2024-09-07T15:19:19.916Z,495396,-0.25494385,-0.8897095,0.03881836
1725722359960,2024-09-07T15:19:19.960Z,495440,-0.2611084,-0.88067627,0.01751709
1725722360004,2024-09-07T15:19:20.004Z,495484,-0.25402832,-0.8637085,0.027160645
1725722360055,2024-09-07T15:19:20.055Z,495535,-0.23358154,-0.84002686,0.043640137
1725722360096,2024-09-07T15:19:20.096Z,495576,-0.23364258,-0.83721924,0.04034424
1725722360191,2024-09-07T15:19:20.191Z,495671,-0.26617432,-0.869751,0.025024414
1725722360222,2024-09-07T15:19:20.222Z,495702,-0.31604004,-0.90856934,0.03717041
1725722360255,2024-09-07T15:19:20.255Z,495735,-0.29907227,-0.8907471,0.040161133
1725722360285,2024-09-07T15:19:20.285Z,495765,-0.27453613,-0.87335205,0.021484375
1725722360313,2024-09-07T15:19:20.313Z,495793,-0.3147583,-0.8779907,0.04876709
1725722360338,2024-09-07T15:19:20.338Z,495818,-0.36639404,-0.8968506,0.04724121
1725722360411,2024-09-07T15:19:20.411Z,495891,-0.36401367,-0.8800049,0.04473877
1725722360435,2024-09-07T15:19:20.435Z,495915,-0.37182617,-0.8548584,0.039611816
1725722360464,2024-09-07T15:19:20.464Z,495944,-0.348938,-0.859375,0.053710938
1725722360502,2024-09-07T15:19:20.502Z,495982,-0.31530762,-0.89727783,0.10583496
1725722360546,2024-09-07T15:19:20.546Z,496026,-0.32348633,-0.9678345,0.13287354
1725722360592,2024-09-07T15:19:20.592Z,496072,-0.37261963,-1.0203247,0.09112549
1725722360623,2024-09-07T15:19:20.623Z,496103,-0.4298706,-1.0354004,0.11517334
1725722360649,2024-09-07T15:19:20.649Z,496129,-0.4165039,-1.0046997,0.08605957
1725722360681,2024-09-07T15:19:20.681Z,496161,-0.33184814,-0.9619751,0.1227417
1725722360745,2024-09-07T15:19:20.745Z,496225,-0.324646,-0.9342041,0.15551758
1725722360779,2024-09-07T15:19:20.779Z,496259,-0.3713379,-0.9367676,0.08691406
1725722360831,2024-09-07T15:19:20.831Z,496311,-0.36468506,-0.92333984,0.07159424
1725722360861,2024-09-07T15:19:20.861Z,496341,-0.32739258,-0.8977051,0.09625244
1725722360905,2024-09-07T15:19:20.905Z,496385,-0.3118286,-0.91119385,0.095214844
1725722360952,2024-09-07T15:19:20.952Z,496432,-0.3470459,-0.93865967,0.09509277
1725722360997,2024-09-07T15:19:20.997Z,496477,-0.36364746,-0.9746094,0.10235596
1725722361044,2024-09-07T15:19:21.044Z,496524,-0.3640747,-0.9996948,0.10675049
1725722361073,2024-09-07T15:19:21.073Z,496553,-0.369812,-1.005127,0.095458984
1725722361101,2024-09-07T15:19:21.101Z,496581,-0.35998535,-0.9971924,0.121398926
1725722361133,2024-09-07T15:19:21.133Z,496613,-0.35217285,-0.99505615,0.091430664
1725722361176,2024-09-07T15:19:21.176Z,496656,-0.35009766,-0.9753418,0.08673096
1725722361226,2024-09-07T15:19:21.226Z,496706,-0.36584473,-0.97094727,0.05316162
1725722361270,2024-09-07T15:19:21.270Z,496750,-0.35040283,-0.9733887,0.064086914
1725722361311,2024-09-07T15:19:21.311Z,496791,-0.33459473,-0.95410156,0.09674072
1725722361360,2024-09-07T15:19:21.360Z,496840,-0.36724854,-0.97247314,0.11291504
1725722361402,2024-09-07T15:19:21.402Z,496882,-0.34197998,-0.9822998,0.08758545
1725722361447,2024-09-07T15:19:21.447Z,496927,-0.33422852,-1.0067749,0.13018799
1725722361478,2024-09-07T15:19:21.478Z,496958,-0.33013916,-1.0401001,0.11193848
1725722361506,2024-09-07T15:19:21.506Z,496986,-0.3312378,-1.0626221,0.14245605
1725722361536,2024-09-07T15:19:21.536Z,497016,-0.33428955,-1.078125,0.14984131
1725722361581,2024-09-07T15:19:21.581Z,497061,-0.324646,-1.0683594,0.16577148
1725722361630,2024-09-07T15:19:21.630Z,497110,-0.3328247,-1.0551758,0.15026855
1725722361673,2024-09-07T15:19:21.673Z,497153,-0.3446045,-1.064148,0.13702393
1725722361716,2024-09-07T15:19:21.716Z,497196,-0.3255005,-1.0439453,0.16894531
1725722361762,2024-09-07T15:19:21.762Z,497242,-0.31628418,-1.0119629,0.16394043
1725722361855,2024-09-07T15:19:21.855Z,497335,-0.3225708,-0.9869995,0.15447998
1725722361885,2024-09-07T15:19:21.885Z,497365,-0.36138916,-0.99438477,0.13537598
1725722361915,2024-09-07T15:19:21.915Z,497395,-0.35821533,-0.98883057,0.14678955
1725722361941,2024-09-07T15:19:21.941Z,497421,-0.3343506,-0.9522095,0.15447998
1725722361970,2024-09-07T15:19:21.970Z,497450,-0.34143066,-0.9425659,0.15344238
1725722362010,2024-09-07T15:19:22.010Z,497490,-0.36450195,-0.9616089,0.16363525
1725722362037,2024-09-07T15:19:22.037Z,497517,-0.36016846,-0.9663086,0.15045166
1725722362124,2024-09-07T15:19:22.124Z,497604,-0.34558105,-0.9594116,0.14196777
1725722362146,2024-09-07T15:19:22.146Z,497626,-0.3670044,-0.97106934,0.13684082
1725722362167,2024-09-07T15:19:22.167Z,497647,-0.40863037,-0.98413086,0.107543945
1725722362211,2024-09-07T15:19:22.211Z,497691,-0.3875122,-0.96380615,0.09277344
1725722362260,2024-09-07T15:19:22.260Z,497740,-0.3678589,-0.9378052,0.09942627
1725722362303,2024-09-07T15:19:22.303Z,497783,-0.35821533,-0.91918945,0.09259033
1725722362331,2024-09-07T15:19:22.331Z,497811,-0.36743164,-0.9071045,0.06756592
1725722362356,2024-09-07T15:19:22.356Z,497836,-0.38061523,-0.8968506,0.03564453
1725722362393,2024-09-07T15:19:22.393Z,497873,-0.38208008,-0.91101074,0.017944336
1725722362437,2024-09-07T15:19:22.437Z,497917,-0.3564453,-0.9111328,0.018371582
1725722362481,2024-09-07T15:19:22.481Z,497961,-0.33984375,-0.8909302,0.016174316
1725722362544,2024-09-07T15:19:22.544Z,498024,-0.34222412,-0.89282227,0.022644043
1725722362585,2024-09-07T15:19:22.585Z,498065,-0.35614014,-0.883728,0.050842285
1725722362621,2024-09-07T15:19:22.621Z,498101,-0.36364746,-0.876709,0.042053223
1725722362660,2024-09-07T15:19:22.660Z,498140,-0.3297119,-0.87072754,0.016906738
1725722362754,2024-09-07T15:19:22.754Z,498234,-0.30511475,-0.86553955,0.042785645
1725722362784,2024-09-07T15:19:22.784Z,498264,-0.30725098,-0.88079834,0.03942871
1725722362817,2024-09-07T15:19:22.817Z,498297,-0.3251953,-0.90393066,0.028503418
1725722362845,2024-09-07T15:19:22.845Z,498325,-0.302063,-0.909729,0.052612305
1725722362875,2024-09-07T15:19:22.875Z,498355,-0.28533936,-0.8980713,0.06640625
1725722362898,2024-09-07T15:19:22.898Z,498378,-0.30444336,-0.89086914,0.052978516
1725722362929,2024-09-07T15:19:22.929Z,498409,-0.29888916,-0.87713623,0.022644043
1725722362978,2024-09-07T15:19:22.978Z,498458,-0.27600098,-0.86083984,0.018188477
1725722363029,2024-09-07T15:19:23.029Z,498509,-0.28497314,-0.83966064,0.014343262
1725722363070,2024-09-07T15:19:23.070Z,498550,-0.29644775,-0.79418945,-0.0079956055
1725722363112,2024-09-07T15:19:23.112Z,498592,-0.30371094,-0.77111816,-0.04083252
1725722363145,2024-09-07T15:19:23.145Z,498625,-0.35327148,-0.8449707,-0.048217773
1725722363180,2024-09-07T15:19:23.180Z,498660,-0.42108154,-0.9732666,-0.014831543
1725722363212,2024-09-07T15:19:23.212Z,498692,-0.38830566,-0.99383545,0.031799316
1725722363246,2024-09-07T15:19:23.246Z,498726,-0.34881592,-0.90618896,0.025268555
1725722363294,2024-09-07T15:19:23.294Z,498774,-0.39093018,-0.876709,-0.0345459
1725722363340,2024-09-07T15:19:23.340Z,498820,-0.43286133,-0.9100342,-0.020019531
1725722363382,2024-09-07T15:19:23.382Z,498862,-0.41271973,-0.9286499,0.04626465
1725722363429,2024-09-07T15:19:23.429Z,498909,-0.3831787,-0.9238281,0.07745361
1725722363518,2024-09-07T15:19:23.518Z,498998,-0.39770508,-0.9108887,0.027893066
1725722363544,2024-09-07T15:19:23.544Z,499024,-0.42468262,-0.89404297,-0.023498535
1725722363569,2024-09-07T15:19:23.569Z,499049,-0.43225098,-0.8874512,-0.0345459
1725722363596,2024-09-07T15:19:23.596Z,499076,-0.38513184,-0.8811035,-0.013671875
1725722363620,2024-09-07T15:19:23.620Z,499100,-0.32043457,-0.87194824,0.0053710938
1725722363651,2024-09-07T15:19:23.651Z,499131,-0.3460083,-0.91223145,0.006225586
1725722363696,2024-09-07T15:19:23.696Z,499176,-0.3892212,-0.95196533,-0.005004883
1725722363790,2024-09-07T15:19:23.790Z,499270,-0.38598633,-0.95721436,0.005004883
1725722363826,2024-09-07T15:19:23.826Z,499306,-0.4074707,-0.9603882,0.013122559
1725722363856,2024-09-07T15:19:23.856Z,499336,-0.4389038,-0.9530029,-0.0017700195
1725722363886,2024-09-07T15:19:23.886Z,499366,-0.4411621,-0.9265137,-0.008850098
1725722363920,2024-09-07T15:19:23.920Z,499400,-0.42791748,-0.91070557,-5.493164E-4
1725722363966,2024-09-07T15:19:23.966Z,499446,-0.43029785,-0.9229126,0.0099487305
1725722363995,2024-09-07T15:19:23.995Z,499475,-0.43597412,-0.92248535,0.0045776367
1725722364025,2024-09-07T15:19:24.025Z,499505,-0.42034912,-0.8907471,-0.014221191
1725722364054,2024-09-07T15:19:24.054Z,499534,-0.40997314,-0.8707886,-0.032409668
1725722364101,2024-09-07T15:19:24.101Z,499581,-0.40496826,-0.8718872,-0.035949707
1725722364147,2024-09-07T15:19:24.147Z,499627,-0.3972168,-0.8914795,-0.01574707
1725722364191,2024-09-07T15:19:24.191Z,499671,-0.37677002,-0.90057373,-0.005493164
1725722364236,2024-09-07T15:19:24.236Z,499716,-0.36846924,-0.88494873,0.004272461
1725722364281,2024-09-07T15:19:24.281Z,499761,-0.33483887,-0.8703003,-0.018066406
1725722364331,2024-09-07T15:19:24.331Z,499811,-0.31573486,-0.88934326,-4.272461E-4
1725722364376,2024-09-07T15:19:24.376Z,499856,-0.32873535,-0.9046631,0.0072631836
1725722364410,2024-09-07T15:19:24.410Z,499890,-0.31854248,-0.8897705,-0.01550293
1725722364467,2024-09-07T15:19:24.467Z,499947,-0.2949829,-0.8722534,2.4414062E-4
1725722364498,2024-09-07T15:19:24.498Z,499978,-0.300354,-0.8829346,0.015197754
1725722364527,2024-09-07T15:19:24.527Z,500007,-0.32904053,-0.90838623,0.028259277
1725722364553,2024-09-07T15:19:24.553Z,500033,-0.31939697,-0.87835693,0.035949707
1725722364690,2024-09-07T15:19:24.690Z,500170,-0.31298828,-0.82977295,0.053833008
1725722364719,2024-09-07T15:19:24.719Z,500199,-0.30444336,-0.8377075,0.036865234
1725722364750,2024-09-07T15:19:24.750Z,500230,-0.3213501,-0.8857422,0.048034668
1725722364780,2024-09-07T15:19:24.780Z,500260,-0.3428955,-0.89746094,0.06549072
1725722364806,2024-09-07T15:19:24.806Z,500286,-0.34124756,-0.8764038,0.04107666
1725722364833,2024-09-07T15:19:24.833Z,500313,-0.3222046,-0.82580566,0.03302002
1725722364859,2024-09-07T15:19:24.859Z,500339,-0.29284668,-0.79797363,0.05267334
1725722364884,2024-09-07T15:19:24.884Z,500364,-0.3154297,-0.845459,0.066467285
1725722364924,2024-09-07T15:19:24.924Z,500404,-0.34899902,-0.92456055,0.099243164
1725722364960,2024-09-07T15:19:24.960Z,500440,-0.35601807,-0.9493408,0.11437988
1725722365004,2024-09-07T15:19:25.004Z,500484,-0.35461426,-0.9692383,0.066589355
1725722365049,2024-09-07T15:19:25.049Z,500529,-0.36761475,-1.0018921,0.0725708
1725722365093,2024-09-07T15:19:25.093Z,500573,-0.3772583,-0.99121094,0.044677734
1725722365139,2024-09-07T15:19:25.139Z,500619,-0.38323975,-1.0071411,0.062927246
1725722365181,2024-09-07T15:19:25.181Z,500661,-0.34362793,-0.9793091,0.057678223
1725722365275,2024-09-07T15:19:25.275Z,500755,-0.33380127,-0.9470215,0.053222656
1725722365304,2024-09-07T15:19:25.304Z,500784,-0.33032227,-0.9395752,0.0569458
1725722365334,2024-09-07T15:19:25.334Z,500814,-0.30688477,-0.96191406,0.07849121
1725722365363,2024-09-07T15:19:25.363Z,500843,-0.33825684,-0.9827881,0.101745605
1725722365390,2024-09-07T15:19:25.390Z,500870,-0.38916016,-0.98638916,0.07281494
1725722365417,2024-09-07T15:19:25.417Z,500897,-0.41119385,-0.96710205,0.012878418
1725722365451,2024-09-07T15:19:25.451Z,500931,-0.39263916,-0.953125,0.06573486
1725722365497,2024-09-07T15:19:25.497Z,500977,-0.34899902,-0.9298096,0.08666992
1725722365545,2024-09-07T15:19:25.545Z,501025,-0.3670044,-0.9277344,0.064941406
1725722365693,2024-09-07T15:19:25.693Z,501173,-0.36883545,-0.944458,0.045410156
1725722365721,2024-09-07T15:19:25.721Z,501201,-0.35235596,-0.9661865,0.052978516
1725722365750,2024-09-07T15:19:25.750Z,501230,-0.32873535,-0.99768066,0.05810547
1725722365776,2024-09-07T15:19:25.776Z,501256,-0.3227539,-1.0232544,0.061279297
1725722365802,2024-09-07T15:19:25.802Z,501282,-0.340271,-1.0379028,0.06890869
1725722365826,2024-09-07T15:19:25.826Z,501306,-0.3961792,-1.0313721,0.05218506
1725722365851,2024-09-07T15:19:25.851Z,501331,-0.35205078,-0.9852905,0.08709717
1725722365878,2024-09-07T15:19:25.878Z,501358,-0.2972412,-0.95739746,0.14575195
1725722365904,2024-09-07T15:19:25.904Z,501384,-0.3053589,-0.99017334,0.11212158
1725722365949,2024-09-07T15:19:25.949Z,501429,-0.3614502,-1.0349731,0.113708496
1725722365991,2024-09-07T15:19:25.991Z,501471,-0.3692627,-1.0542603,0.10595703
1725722366037,2024-09-07T15:19:26.037Z,501517,-0.35150146,-1.059021,0.118652344
1725722366082,2024-09-07T15:19:26.082Z,501562,-0.3623047,-1.0532837,0.1430664
1725722366130,2024-09-07T15:19:26.130Z,501610,-0.36297607,-1.0471802,0.14703369
1725722366170,2024-09-07T15:19:26.170Z,501650,-0.368042,-1.026001,0.16900635
1725722366238,2024-09-07T15:19:26.238Z,501718,-0.371521,-1.013794,0.17541504
1725722366269,2024-09-07T15:19:26.269Z,501749,-0.36535645,-0.996521,0.16461182
1725722366296,2024-09-07T15:19:26.296Z,501776,-0.37579346,-0.9840698,0.17687988
1725722366324,2024-09-07T15:19:26.324Z,501804,-0.38427734,-0.9724121,0.17773438
1725722366351,2024-09-07T15:19:26.351Z,501831,-0.37683105,-0.9589844,0.15325928
1725722366396,2024-09-07T15:19:26.396Z,501876,-0.3671875,-0.9592285,0.15307617
1725722366442,2024-09-07T15:19:26.442Z,501922,-0.35473633,-0.9642334,0.13104248
1725722366489,2024-09-07T15:19:26.489Z,501969,-0.36621094,-0.96972656,0.12432861
1725722366517,2024-09-07T15:19:26.517Z,501997,-0.3682251,-0.97180176,0.12554932
1725722366544,2024-09-07T15:19:26.544Z,502024,-0.35864258,-0.9574585,0.12207031
1725722366575,2024-09-07T15:19:26.575Z,502055,-0.36071777,-0.9467163,0.09197998
1725722366626,2024-09-07T15:19:26.626Z,502106,-0.35101318,-0.940979,0.08074951
1725722366667,2024-09-07T15:19:26.667Z,502147,-0.3468628,-0.92523193,0.09161377
1725722366715,2024-09-07T15:19:26.715Z,502195,-0.3673706,-0.909729,0.082336426
1725722366852,2024-09-07T15:19:26.852Z,502332,-0.37023926,-0.8964844,0.07183838
1725722366889,2024-09-07T15:19:26.889Z,502369,-0.3609619,-0.88360596,0.0826416
1725722366924,2024-09-07T15:19:26.924Z,502404,-0.36175537,-0.87939453,0.08959961
1725722366951,2024-09-07T15:19:26.951Z,502431,-0.37176514,-0.8885498,0.07647705
1725722366978,2024-09-07T15:19:26.978Z,502458,-0.36383057,-0.90057373,0.074523926
1725722367002,2024-09-07T15:19:27.002Z,502482,-0.36279297,-0.90496826,0.09674072
1725722367026,2024-09-07T15:19:27.026Z,502506,-0.36889648,-0.90405273,0.09967041
1725722367055,2024-09-07T15:19:27.055Z,502535,-0.36968994,-0.90631104,0.103881836
1725722367083,2024-09-07T15:19:27.083Z,502563,-0.36572266,-0.9047241,0.11151123
1725722367118,2024-09-07T15:19:27.118Z,502598,-0.3555298,-0.9085083,0.11053467
1725722367164,2024-09-07T15:19:27.164Z,502644,-0.35656738,-0.9112549,0.10827637
1725722367207,2024-09-07T15:19:27.207Z,502687,-0.36016846,-0.9032593,0.09967041
1725722367251,2024-09-07T15:19:27.251Z,502731,-0.34313965,-0.88238525,0.0925293
1725722367317,2024-09-07T15:19:27.317Z,502797,-0.32702637,-0.8641968,0.10064697
1725722367348,2024-09-07T15:19:27.348Z,502828,-0.3215332,-0.85217285,0.10003662
1725722367373,2024-09-07T15:19:27.373Z,502853,-0.32000732,-0.84295654,0.08203125
1725722367400,2024-09-07T15:19:27.400Z,502880,-0.30859375,-0.84228516,0.07598877
1725722367483,2024-09-07T15:19:27.483Z,502963,-0.2935791,-0.83514404,0.07281494
1725722367514,2024-09-07T15:19:27.514Z,502994,-0.2894287,-0.8312988,0.056518555
1725722367541,2024-09-07T15:19:27.541Z,503021,-0.2989502,-0.83154297,0.032592773
1725722367566,2024-09-07T15:19:27.566Z,503046,-0.32025146,-0.8366699,0.01928711
1725722367612,2024-09-07T15:19:27.612Z,503092,-0.35107422,-0.8491211,-0.019714355
1725722367656,2024-09-07T15:19:27.656Z,503136,-0.37872314,-0.9133301,-0.03942871
1725722367704,2024-09-07T15:19:27.704Z,503184,-0.37121582,-0.9812012,0.023864746
1725722367746,2024-09-07T15:19:27.746Z,503226,-0.3112793,-0.93640137,0.076660156
1725722367776,2024-09-07T15:19:27.776Z,503256,-0.32543945,-0.88049316,0.03967285
1725722367805,2024-09-07T15:19:27.805Z,503285,-0.4107666,-0.9076538,-0.039855957
1725722367848,2024-09-07T15:19:27.848Z,503328,-0.4368286,-0.95129395,-0.040100098
1725722367883,2024-09-07T15:19:27.883Z,503363,-0.37615967,-0.963501,0.019104004
1725722367929,2024-09-07T15:19:27.929Z,503409,-0.34960938,-0.93865967,0.019348145
1725722367972,2024-09-07T15:19:27.972Z,503452,-0.36437988,-0.9022217,0.0056762695
1725722368018,2024-09-07T15:19:28.018Z,503498,-0.3892212,-0.90057373,0.0014648438
1725722368062,2024-09-07T15:19:28.062Z,503542,-0.3887329,-0.91711426,0.018371582
1725722368107,2024-09-07T15:19:28.107Z,503587,-0.37902832,-0.9193115,0.019897461
1725722368168,2024-09-07T15:19:28.168Z,503648,-0.37646484,-0.9267578,0.009887695
1725722368196,2024-09-07T15:19:28.196Z,503676,-0.36444092,-0.9307251,0.009887695
1725722368219,2024-09-07T15:19:28.219Z,503699,-0.36053467,-0.9227295,0.015686035
1725722368261,2024-09-07T15:19:28.261Z,503741,-0.36767578,-0.92108154,0.024902344
1725722368288,2024-09-07T15:19:28.288Z,503768,-0.3807373,-0.92681885,0.030578613
1725722368331,2024-09-07T15:19:28.331Z,503811,-0.38354492,-0.9328003,0.031677246
1725722368380,2024-09-07T15:19:28.380Z,503860,-0.38049316,-0.93359375,0.031188965
1725722368419,2024-09-07T15:19:28.419Z,503899,-0.37329102,-0.9293213,0.026916504
1725722368469,2024-09-07T15:19:28.469Z,503949,-0.3649292,-0.9178467,0.019165039
1725722368515,2024-09-07T15:19:28.515Z,503995,-0.3638916,-0.91693115,0.02960205
1725722368560,2024-09-07T15:19:28.560Z,504040,-0.36553955,-0.9182739,0.029052734
1725722368603,2024-09-07T15:19:28.603Z,504083,-0.36895752,-0.92022705,0.024475098
1725722368636,2024-09-07T15:19:28.636Z,504116,-0.3499756,-0.91308594,0.024353027
1725722368665,2024-09-07T15:19:28.665Z,504145,-0.33776855,-0.9049072,0.042114258
1725722368692,2024-09-07T15:19:28.692Z,504172,-0.3274536,-0.88934326,0.042785645
1725722368740,2024-09-07T15:19:28.740Z,504220,-0.30584717,-0.8465576,0.038085938
1725722368830,2024-09-07T15:19:28.830Z,504310,-0.2630005,-0.7762451,0.048461914
1725722368859,2024-09-07T15:19:28.859Z,504339,-0.2713623,-0.7302246,0.03881836
1725722368966,2024-09-07T15:19:28.966Z,504446,-0.32305908,-0.78430176,0.0041503906
1725722369001,2024-09-07T15:19:29.001Z,504481,-0.33807373,-0.84265137,0.007385254
1725722369034,2024-09-07T15:19:29.034Z,504514,-0.30584717,-0.84869385,0.04144287
1725722369065,2024-09-07T15:19:29.065Z,504545,-0.3069458,-0.8487549,0.0107421875
1725722369103,2024-09-07T15:19:29.103Z,504583,-0.36920166,-0.8688965,-0.020629883
1725722369131,2024-09-07T15:19:29.131Z,504611,-0.4111328,-0.88201904,0.016601562
1725722369157,2024-09-07T15:19:29.157Z,504637,-0.3776245,-0.8859863,0.059814453
1725722369185,2024-09-07T15:19:29.185Z,504665,-0.36431885,-0.88879395,0.057739258
1725722369211,2024-09-07T15:19:29.211Z,504691,-0.38586426,-0.9063721,0.06048584
1725722369236,2024-09-07T15:19:29.236Z,504716,-0.4019165,-0.9248657,0.070007324
1725722369273,2024-09-07T15:19:29.273Z,504753,-0.38354492,-0.93096924,0.13781738
1725722369322,2024-09-07T15:19:29.322Z,504802,-0.40075684,-0.9384155,0.17486572
1725722369412,2024-09-07T15:19:29.412Z,504892,-0.42938232,-0.9517822,0.14263916
1725722369438,2024-09-07T15:19:29.438Z,504918,-0.3862915,-0.946167,0.1427002
1725722369469,2024-09-07T15:19:29.469Z,504949,-0.34979248,-0.9243164,0.18981934
1725722369497,2024-09-07T15:19:29.497Z,504977,-0.39569092,-0.9360962,0.19110107
1725722369526,2024-09-07T15:19:29.526Z,505006,-0.43719482,-0.92871094,0.13354492
1725722369554,2024-09-07T15:19:29.554Z,505034,-0.41223145,-0.9144287,0.17218018
1725722369638,2024-09-07T15:19:29.638Z,505118,-0.3710327,-0.8989868,0.18981934
1725722369660,2024-09-07T15:19:29.660Z,505140,-0.42590332,-0.9411621,0.13745117
1725722369685,2024-09-07T15:19:29.685Z,505165,-0.4564209,-0.94281006,0.08239746
1725722369730,2024-09-07T15:19:29.730Z,505210,-0.39483643,-0.89575195,0.140625
1725722369771,2024-09-07T15:19:29.771Z,505251,-0.37445068,-0.9065552,0.13757324
1725722369820,2024-09-07T15:19:29.820Z,505300,-0.39172363,-0.9390869,0.16400146
1725722369958,2024-09-07T15:19:29.958Z,505438,-0.416687,-0.9547119,0.08856201
1725722369994,2024-09-07T15:19:29.994Z,505474,-0.42785645,-0.9666748,0.08129883
1725722370032,2024-09-07T15:19:30.032Z,505512,-0.40100098,-0.9657593,0.09838867
1725722370066,2024-09-07T15:19:30.066Z,505546,-0.3550415,-0.9585571,0.10662842
1725722370092,2024-09-07T15:19:30.092Z,505572,-0.35076904,-0.95092773,0.09503174
1725722370118,2024-09-07T15:19:30.118Z,505598,-0.3494873,-0.9711914,0.10858154
1725722370146,2024-09-07T15:19:30.146Z,505626,-0.3217163,-0.98553467,0.11981201
1725722370174,2024-09-07T15:19:30.174Z,505654,-0.32336426,-1.0231934,0.13409424
1725722370199,2024-09-07T15:19:30.199Z,505679,-0.3449707,-1.065979,0.1352539
1725722370241,2024-09-07T15:19:30.241Z,505721,-0.3334961,-1.0700073,0.13012695
1725722370275,2024-09-07T15:19:30.275Z,505755,-0.33428955,-1.0689697,0.15472412
1725722370300,2024-09-07T15:19:30.300Z,505780,-0.32995605,-1.0567627,0.17376709
1725722370324,2024-09-07T15:19:30.324Z,505804,-0.3480835,-1.045227,0.16601562
1725722370357,2024-09-07T15:19:30.357Z,505837,-0.36206055,-1.0266724,0.1630249
1725722370402,2024-09-07T15:19:30.402Z,505882,-0.36810303,-1.0067749,0.140625
1725722370447,2024-09-07T15:19:30.447Z,505927,-0.3564453,-0.99957275,0.15777588
1725722370492,2024-09-07T15:19:30.492Z,505972,-0.36358643,-1.0054321,0.17181396
1725722370537,2024-09-07T15:19:30.537Z,506017,-0.3746338,-1.0048828,0.19256592
1725722370584,2024-09-07T15:19:30.584Z,506064,-0.37799072,-0.98687744,0.20141602
1725722370645,2024-09-07T15:19:30.645Z,506125,-0.38079834,-0.9821167,0.19342041
1725722370673,2024-09-07T15:19:30.673Z,506153,-0.36761475,-0.98516846,0.17504883
1725722370699,2024-09-07T15:19:30.699Z,506179,-0.348938,-0.9753418,0.1798706
1725722370761,2024-09-07T15:19:30.761Z,506241,-0.3399048,-0.96325684,0.16534424
1725722370797,2024-09-07T15:19:30.797Z,506277,-0.3555298,-0.9682617,0.14099121
1725722370823,2024-09-07T15:19:30.823Z,506303,-0.366333,-0.9769287,0.1326294
1725722370854,2024-09-07T15:19:30.854Z,506334,-0.35235596,-0.9558716,0.11193848
1725722370900,2024-09-07T15:19:30.900Z,506380,-0.33520508,-0.95129395,0.10028076
1725722370943,2024-09-07T15:19:30.943Z,506423,-0.32269287,-0.95635986,0.09686279
1725722370993,2024-09-07T15:19:30.993Z,506473,-0.32617188,-0.94525146,0.092285156
1725722371034,2024-09-07T15:19:31.034Z,506514,-0.34454346,-0.94104004,0.08343506
1725722371076,2024-09-07T15:19:31.076Z,506556,-0.32226562,-0.927124,0.06994629
1725722371121,2024-09-07T15:19:31.121Z,506601,-0.31829834,-0.91760254,0.063964844
1725722371190,2024-09-07T15:19:31.190Z,506670,-0.3527832,-0.9290161,0.06298828
1725722371223,2024-09-07T15:19:31.223Z,506703,-0.3482666,-0.9277344,0.06085205
1725722371250,2024-09-07T15:19:31.250Z,506730,-0.3256836,-0.90423584,0.07495117
1725722371278,2024-09-07T15:19:31.278Z,506758,-0.3241577,-0.8970947,0.05908203
1725722371307,2024-09-07T15:19:31.307Z,506787,-0.3363037,-0.9047241,0.05847168
1725722371347,2024-09-07T15:19:31.347Z,506827,-0.3371582,-0.9008179,0.06945801
1725722371396,2024-09-07T15:19:31.396Z,506876,-0.34161377,-0.88427734,0.05456543
1725722371437,2024-09-07T15:19:31.437Z,506917,-0.33691406,-0.8617554,0.0423584
1725722371482,2024-09-07T15:19:31.482Z,506962,-0.3283081,-0.84484863,0.04699707
1725722371526,2024-09-07T15:19:31.526Z,507006,-0.32080078,-0.8515625,0.058288574
1725722371557,2024-09-07T15:19:31.557Z,507037,-0.33709717,-0.8613281,0.07446289
1725722371583,2024-09-07T15:19:31.583Z,507063,-0.35894775,-0.8621216,0.05328369
1725722371616,2024-09-07T15:19:31.616Z,507096,-0.3441162,-0.8497925,0.029785156
1725722371713,2024-09-07T15:19:31.713Z,507193,-0.32000732,-0.8267212,0.04699707
1725722371748,2024-09-07T15:19:31.748Z,507228,-0.3204956,-0.8178711,0.053222656
1725722371782,2024-09-07T15:19:31.782Z,507262,-0.33166504,-0.809021,0.026611328
1725722371816,2024-09-07T15:19:31.816Z,507296,-0.3326416,-0.7832031,0.009277344
1725722371844,2024-09-07T15:19:31.844Z,507324,-0.3383789,-0.78240967,0.013671875
1725722371891,2024-09-07T15:19:31.891Z,507371,-0.36889648,-0.8684082,0.0099487305
1725722371982,2024-09-07T15:19:31.982Z,507462,-0.3959961,-0.98565674,0.024475098
1725722372023,2024-09-07T15:19:32.023Z,507503,-0.35162354,-0.97784424,0.056152344
1725722372058,2024-09-07T15:19:32.058Z,507538,-0.3069458,-0.9050293,0.06896973
1725722372087,2024-09-07T15:19:32.087Z,507567,-0.34136963,-0.90875244,0.021911621
1725722372114,2024-09-07T15:19:32.114Z,507594,-0.39227295,-0.96569824,0.008239746
1725722372141,2024-09-07T15:19:32.141Z,507621,-0.3890381,-1.001831,0.057373047
1725722372166,2024-09-07T15:19:32.166Z,507646,-0.3526001,-0.9683838,0.06921387
1725722372202,2024-09-07T15:19:32.202Z,507682,-0.3334961,-0.91986084,0.034240723
1725722372297,2024-09-07T15:19:32.297Z,507777,-0.33831787,-0.9046631,0.01159668
1725722372323,2024-09-07T15:19:32.323Z,507803,-0.3590088,-0.9232788,0.0012817383
1725722372346,2024-09-07T15:19:32.346Z,507826,-0.36541748,-0.9456787,-0.010131836
1725722372426,2024-09-07T15:19:32.426Z,507906,-0.34991455,-0.9432373,0.01184082
1725722372455,2024-09-07T15:19:32.455Z,507935,-0.34851074,-0.92633057,-0.0017089844
1725722372481,2024-09-07T15:19:32.481Z,507961,-0.3461914,-0.92315674,-0.03363037
1725722372506,2024-09-07T15:19:32.506Z,507986,-0.3395996,-0.9329834,-0.023376465
1725722372540,2024-09-07T15:19:32.540Z,508020,-0.34631348,-0.9367676,-0.016967773
1725722372608,2024-09-07T15:19:32.608Z,508088,-0.35046387,-0.9338379,-0.003540039
1725722372634,2024-09-07T15:19:32.634Z,508114,-0.34387207,-0.9320679,0.0028076172
1725722372698,2024-09-07T15:19:32.698Z,508178,-0.35144043,-0.9307251,3.0517578E-4
1725722372722,2024-09-07T15:19:32.722Z,508202,-0.34985352,-0.93499756,0.0065307617
1725722372787,2024-09-07T15:19:32.787Z,508267,-0.35028076,-0.928772,0.013916016
1725722372820,2024-09-07T15:19:32.820Z,508300,-0.36566162,-0.9364624,-0.002319336
1725722372847,2024-09-07T15:19:32.847Z,508327,-0.36328125,-0.93914795,0.0045776367
1725722372873,2024-09-07T15:19:32.873Z,508353,-0.35003662,-0.9326172,0.019470215
1725722372904,2024-09-07T15:19:32.904Z,508384,-0.34313965,-0.92736816,-9.1552734E-4
1725722372933,2024-09-07T15:19:32.933Z,508413,-0.33514404,-0.9255371,-0.010559082
1725722372965,2024-09-07T15:19:32.965Z,508445,-0.3236084,-0.92718506,-0.02154541
1725722373014,2024-09-07T15:19:33.014Z,508494,-0.29553223,-0.9123535,-0.028320312
1725722373060,2024-09-07T15:19:33.060Z,508540,-0.28009033,-0.8967285,-0.020812988
1725722373105,2024-09-07T15:19:33.105Z,508585,-0.2640381,-0.8908081,0.019836426
1725722373165,2024-09-07T15:19:33.165Z,508645,-0.25286865,-0.9014282,0.02947998
1725722373194,2024-09-07T15:19:33.194Z,508674,-0.2874756,-0.9135742,0.026489258
1725722373222,2024-09-07T15:19:33.222Z,508702,-0.29553223,-0.8782959,0.004211426
1725722373247,2024-09-07T15:19:33.247Z,508727,-0.29608154,-0.8413086,-0.009643555
1725722373281,2024-09-07T15:19:33.281Z,508761,-0.31396484,-0.85736084,0.00390625
1725722373327,2024-09-07T15:19:33.327Z,508807,-0.3222046,-0.89801025,-0.0018920898
1725722373372,2024-09-07T15:19:33.372Z,508852,-0.28308105,-0.869812,-0.016052246
1725722373418,2024-09-07T15:19:33.418Z,508898,-0.24633789,-0.83514404,0.0095825195
1725722373462,2024-09-07T15:19:33.462Z,508942,-0.3139038,-0.8619385,0.02947998
1725722373551,2024-09-07T15:19:33.551Z,509031,-0.39416504,-0.868103,0.0025024414
1725722373575,2024-09-07T15:19:33.575Z,509055,-0.35412598,-0.84246826,0.026306152
1725722373600,2024-09-07T15:19:33.600Z,509080,-0.34118652,-0.8345947,0.0446167
1725722373655,2024-09-07T15:19:33.655Z,509135,-0.34106445,-0.8676758,0.04626465
1725722373683,2024-09-07T15:19:33.683Z,509163,-0.3057251,-0.9154053,0.03363037
1725722373712,2024-09-07T15:19:33.712Z,509192,-0.3201294,-0.9508667,0.053222656
1725722373754,2024-09-07T15:19:33.754Z,509234,-0.36254883,-0.9589844,0.051574707
1725722373778,2024-09-07T15:19:33.778Z,509258,-0.38269043,-0.9772949,0.08929443
1725722373827,2024-09-07T15:19:33.827Z,509307,-0.35217285,-0.9616699,0.06854248
1725722373866,2024-09-07T15:19:33.866Z,509346,-0.32250977,-0.9477539,0.061828613
1725722373914,2024-09-07T15:19:33.914Z,509394,-0.2966919,-0.9590454,0.080566406
1725722373981,2024-09-07T15:19:33.981Z,509461,-0.32946777,-0.98413086,0.08886719
1725722374012,2024-09-07T15:19:34.012Z,509492,-0.36120605,-0.9998169,0.059753418
1725722374046,2024-09-07T15:19:34.046Z,509526,-0.3444214,-1.0014038,0.047058105
1725722374074,2024-09-07T15:19:34.074Z,509554,-0.34875488,-0.9761963,0.11401367
1725722374138,2024-09-07T15:19:34.138Z,509618,-0.33551025,-0.9400635,0.07775879
1725722374165,2024-09-07T15:19:34.165Z,509645,-0.35534668,-0.97143555,0.101257324
1725722374230,2024-09-07T15:19:34.230Z,509710,-0.37670898,-0.98742676,0.103393555
1725722374260,2024-09-07T15:19:34.260Z,509740,-0.3527832,-0.95318604,0.08355713
1725722374285,2024-09-07T15:19:34.285Z,509765,-0.3534546,-0.9185791,0.09362793
1725722374321,2024-09-07T15:19:34.321Z,509801,-0.3479004,-0.9242554,0.068237305
1725722374363,2024-09-07T15:19:34.363Z,509843,-0.35144043,-0.92700195,0.09161377
1725722374408,2024-09-07T15:19:34.408Z,509888,-0.3585205,-0.9359131,0.08972168
1725722374451,2024-09-07T15:19:34.451Z,509931,-0.37615967,-0.9284668,0.07720947
1725722374479,2024-09-07T15:19:34.479Z,509959,-0.3503418,-0.9510498,0.067993164
1725722374504,2024-09-07T15:19:34.504Z,509984,-0.34783936,-0.9835205,0.10308838
1725722374541,2024-09-07T15:19:34.541Z,510021,-0.35772705,-0.98217773,0.12536621
1725722374587,2024-09-07T15:19:34.587Z,510067,-0.3741455,-0.99017334,0.1293335
1725722374633,2024-09-07T15:19:34.633Z,510113,-0.37573242,-1.0064087,0.13397217
1725722374723,2024-09-07T15:19:34.723Z,510203,-0.37908936,-1.0134277,0.16888428
1725722374750,2024-09-07T15:19:34.750Z,510230,-0.37420654,-0.9857788,0.14666748
1725722374779,2024-09-07T15:19:34.779Z,510259,-0.3659668,-0.9641113,0.13006592
1725722374857,2024-09-07T15:19:34.857Z,510337,-0.35943604,-0.94470215,0.12591553
1725722374887,2024-09-07T15:19:34.887Z,510367,-0.38464355,-0.96655273,0.12121582
1725722374918,2024-09-07T15:19:34.918Z,510398,-0.3746338,-1.0044556,0.13671875
1725722374948,2024-09-07T15:19:34.948Z,510428,-0.34588623,-1.0003662,0.14990234
1725722374991,2024-09-07T15:19:34.991Z,510471,-0.33825684,-0.9954834,0.1361084
1725722375019,2024-09-07T15:19:35.019Z,510499,-0.3647461,-1.0287476,0.1428833
1725722375282,2024-09-07T15:19:35.282Z,510762,-0.3668213,-1.0492554,0.15325928
1725722375407,2024-09-07T15:19:35.407Z,510887,-0.331604,-1.0281982,0.17047119
1725722375452,2024-09-07T15:19:35.452Z,510932,-0.3109131,-1.0043335,0.18896484
1725722375481,2024-09-07T15:19:35.481Z,510961,-0.31396484,-0.99121094,0.17755127
1725722375506,2024-09-07T15:19:35.506Z,510986,-0.33148193,-0.9864502,0.15460205
1725722375539,2024-09-07T15:19:35.539Z,511019,-0.32684326,-0.99224854,0.13079834
1725722375565,2024-09-07T15:19:35.565Z,511045,-0.3289795,-0.9855957,0.1126709
1725722375593,2024-09-07T15:19:35.593Z,511073,-0.33306885,-0.980896,0.115234375
1725722375620,2024-09-07T15:19:35.620Z,511100,-0.32714844,-0.9610596,0.10632324
1725722375644,2024-09-07T15:19:35.644Z,511124,-0.3213501,-0.96520996,0.11114502
1725722375671,2024-09-07T15:19:35.671Z,511151,-0.32995605,-0.960022,0.09564209
1725722375704,2024-09-07T15:19:35.704Z,511184,-0.35308838,-0.97802734,0.07623291
1725722375733,2024-09-07T15:19:35.733Z,511213,-0.3550415,-0.98217773,0.066589355
1725722375762,2024-09-07T15:19:35.762Z,511242,-0.34106445,-0.9717407,0.06768799
1725722375785,2024-09-07T15:19:35.785Z,511265,-0.34387207,-0.96276855,0.06689453
1725722375812,2024-09-07T15:19:35.812Z,511292,-0.34918213,-0.9683838,0.052612305
1725722375838,2024-09-07T15:19:35.838Z,511318,-0.33319092,-0.9767456,0.054992676
1725722375866,2024-09-07T15:19:35.866Z,511346,-0.32019043,-0.97302246,0.0670166
1725722375895,2024-09-07T15:19:35.895Z,511375,-0.30993652,-0.97039795,0.07867432
1725722375920,2024-09-07T15:19:35.920Z,511400,-0.3095703,-0.9604492,0.06335449
1725722375984,2024-09-07T15:19:35.984Z,511464,-0.3151245,-0.94921875,0.054016113
1725722376010,2024-09-07T15:19:36.010Z,511490,-0.3114624,-0.9355469,0.05529785
1725722376035,2024-09-07T15:19:36.035Z,511515,-0.30584717,-0.9286499,0.053955078
1725722376062,2024-09-07T15:19:36.062Z,511542,-0.28295898,-0.9038086,0.06341553
1725722376088,2024-09-07T15:19:36.088Z,511568,-0.28112793,-0.8913574,0.07946777
1725722376114,2024-09-07T15:19:36.114Z,511594,-0.30169678,-0.8951416,0.083740234
1725722376141,2024-09-07T15:19:36.141Z,511621,-0.31506348,-0.9075928,0.06616211
1725722376178,2024-09-07T15:19:36.178Z,511658,-0.31378174,-0.9205322,0.073791504
1725722376202,2024-09-07T15:19:36.202Z,511682,-0.29455566,-0.91400146,0.07751465
1725722376232,2024-09-07T15:19:36.232Z,511712,-0.27825928,-0.8835449,0.08795166
1725722376261,2024-09-07T15:19:36.261Z,511741,-0.2689209,-0.8464966,0.0859375
1725722376347,2024-09-07T15:19:36.347Z,511827,-0.2642212,-0.8168335,0.06939697
1725722376382,2024-09-07T15:19:36.382Z,511862,-0.26434326,-0.7972412,0.06573486
1725722376416,2024-09-07T15:19:36.416Z,511896,-0.2662964,-0.7811279,0.04852295
1725722376444,2024-09-07T15:19:36.444Z,511924,-0.24829102,-0.7620239,0.024230957
1725722376522,2024-09-07T15:19:36.522Z,512002,-0.26983643,-0.7841797,-0.008117676
1725722376548,2024-09-07T15:19:36.548Z,512028,-0.35705566,-0.88842773,-0.057373047
1725722376614,2024-09-07T15:19:36.614Z,512094,-0.41918945,-0.9909668,-0.09210205
1725722376644,2024-09-07T15:19:36.644Z,512124,-0.383667,-0.9869995,-0.02355957
1725722376672,2024-09-07T15:19:36.672Z,512152,-0.33911133,-0.913147,0.034484863
1725722376696,2024-09-07T15:19:36.696Z,512176,-0.34265137,-0.8804321,-0.006958008
1725722376768,2024-09-07T15:19:36.768Z,512248,-0.41033936,-0.91503906,-0.06427002
1725722376798,2024-09-07T15:19:36.798Z,512278,-0.4343872,-0.9499512,-0.054870605
1725722376822,2024-09-07T15:19:36.822Z,512302,-0.3998413,-0.9456177,-0.028076172
1725722376852,2024-09-07T15:19:36.852Z,512332,-0.38085938,-0.8961792,-0.057434082
1725722376879,2024-09-07T15:19:36.879Z,512359,-0.36468506,-0.8529053,-0.06011963
1725722376974,2024-09-07T15:19:36.974Z,512454,-0.37609863,-0.868103,-0.049316406
1725722377014,2024-09-07T15:19:37.014Z,512494,-0.3864746,-0.9091797,-0.05682373
1725722377045,2024-09-07T15:19:37.045Z,512525,-0.37860107,-0.9370117,-0.055114746
1725722377077,2024-09-07T15:19:37.077Z,512557,-0.36663818,-0.94122314,-0.064819336
