Timestamp (ms),ISO DateTime,Elapsed Time (ms),Acceleration X,Acceleration Y,Acceleration Z
1725699980403,2024-09-07T09:06:20.403Z,189677,-0.15490723,-0.8503418,0.25250244
1725699980445,2024-09-07T09:06:20.445Z,189719,-0.12915039,-0.82910156,0.25915527
1725699980452,2024-09-07T09:06:20.452Z,189726,-0.12060547,-0.8123169,0.2584839
1725699980489,2024-09-07T09:06:20.489Z,189763,-0.120666504,-0.795166,0.26330566
1725699980533,2024-09-07T09:06:20.533Z,189807,-0.12359619,-0.8039551,0.26293945
1725699980578,2024-09-07T09:06:20.578Z,189852,-0.12860107,-0.8161011,0.26776123
1725699980625,2024-09-07T09:06:20.625Z,189899,-0.11883545,-0.8096924,0.25994873
1725699980674,2024-09-07T09:06:20.674Z,189948,-0.09643555,-0.7965088,0.24627686
1725699980719,2024-09-07T09:06:20.719Z,189993,-0.08831787,-0.78570557,0.25128174
1725699980765,2024-09-07T09:06:20.765Z,190039,-0.08325195,-0.79022217,0.2645874
1725699980815,2024-09-07T09:06:20.815Z,190089,-0.088378906,-0.8015747,0.27111816
1725699980855,2024-09-07T09:06:20.855Z,190129,-0.090148926,-0.8203125,0.25665283
1725699980879,2024-09-07T09:06:20.879Z,190153,-0.08782959,-0.8395996,0.27520752
1725699980899,2024-09-07T09:06:20.899Z,190173,-0.09185791,-0.85791016,0.29968262
1725699980942,2024-09-07T09:06:20.942Z,190216,-0.10864258,-0.8679199,0.31866455
1725699980991,2024-09-07T09:06:20.991Z,190265,-0.107910156,-0.8913574,0.37164307
1725699981034,2024-09-07T09:06:21.034Z,190308,-0.0881958,-0.9038696,0.4066162
1725699981081,2024-09-07T09:06:21.081Z,190355,-0.07965088,-0.92108154,0.41912842
1725699981128,2024-09-07T09:06:21.128Z,190402,-0.0836792,-0.9178467,0.4171753
1725699981171,2024-09-07T09:06:21.171Z,190445,-0.093444824,-0.9109497,0.41479492
1725699981214,2024-09-07T09:06:21.214Z,190488,-0.10803223,-0.91711426,0.39715576
1725699981264,2024-09-07T09:06:21.264Z,190538,-0.13140869,-0.93566895,0.42004395
1725699981290,2024-09-07T09:06:21.290Z,190564,-0.15319824,-0.9574585,0.41711426
1725699981310,2024-09-07T09:06:21.310Z,190584,-0.15270996,-0.9758911,0.45568848
1725699981347,2024-09-07T09:06:21.347Z,190621,-0.15930176,-0.97857666,0.45880127
1725699981393,2024-09-07T09:06:21.393Z,190667,-0.14019775,-0.96710205,0.48638916
1725699981443,2024-09-07T09:06:21.443Z,190717,-0.14904785,-0.9519043,0.48339844
1725699981485,2024-09-07T09:06:21.485Z,190759,-0.15423584,-0.9540405,0.479187
1725699981528,2024-09-07T09:06:21.528Z,190802,-0.15063477,-0.9458618,0.48492432
1725699981576,2024-09-07T09:06:21.576Z,190850,-0.16503906,-0.95062256,0.45892334
1725699981620,2024-09-07T09:06:21.620Z,190894,-0.14447021,-0.9659424,0.44995117
1725699981665,2024-09-07T09:06:21.665Z,190939,-0.14886475,-0.95825195,0.46185303
1725699981710,2024-09-07T09:06:21.710Z,190984,-0.16259766,-0.93756104,0.45092773
1725699981734,2024-09-07T09:06:21.734Z,191008,-0.21429443,-0.9370117,0.42852783
1725699981753,2024-09-07T09:06:21.753Z,191027,-0.20715332,-0.9505005,0.44744873
1725699981798,2024-09-07T09:06:21.798Z,191072,-0.22753906,-0.92749023,0.4423828
1725699981843,2024-09-07T09:06:21.843Z,191117,-0.19628906,-0.9324341,0.4586792
1725699981892,2024-09-07T09:06:21.892Z,191166,-0.19232178,-0.9123535,0.45672607
1725699981934,2024-09-07T09:06:21.934Z,191208,-0.19689941,-0.8991699,0.45043945
1725699981982,2024-09-07T09:06:21.982Z,191256,-0.1807251,-0.90563965,0.4111328
1725699982024,2024-09-07T09:06:22.024Z,191298,-0.19934082,-0.93151855,0.41125488
1725699982068,2024-09-07T09:06:22.068Z,191342,-0.17895508,-0.95080566,0.39489746
1725699982116,2024-09-07T09:06:22.116Z,191390,-0.18151855,-0.93548584,0.44433594
1725699982136,2024-09-07T09:06:22.136Z,191410,-0.15222168,-0.94140625,0.42333984
1725699982155,2024-09-07T09:06:22.155Z,191429,-0.15710449,-0.9119873,0.45819092
1725699982202,2024-09-07T09:06:22.202Z,191476,-0.15545654,-0.88171387,0.40637207
1725699982248,2024-09-07T09:06:22.248Z,191522,-0.15002441,-0.85113525,0.38433838
1725699982295,2024-09-07T09:06:22.295Z,191569,-0.1762085,-0.84558105,0.40234375
1725699982340,2024-09-07T09:06:22.340Z,191614,-0.15814209,-0.8567505,0.39019775
1725699982387,2024-09-07T09:06:22.387Z,191661,-0.15844727,-0.8644409,0.40905762
1725699982435,2024-09-07T09:06:22.435Z,191709,-0.1619873,-0.8751831,0.39263916
1725699982478,2024-09-07T09:06:22.478Z,191752,-0.1673584,-0.8886719,0.4013672
1725699982518,2024-09-07T09:06:22.518Z,191792,-0.1953125,-0.8966675,0.40789795
1725699982536,2024-09-07T09:06:22.536Z,191810,-0.19506836,-0.9139404,0.39276123
1725699982560,2024-09-07T09:06:22.560Z,191834,-0.21820068,-0.9434204,0.4234619
1725699982604,2024-09-07T09:06:22.604Z,191878,-0.2142334,-1.015625,0.47442627
1725699982652,2024-09-07T09:06:22.652Z,191926,-0.2097168,-1.0875244,0.5152588
1725699982700,2024-09-07T09:06:22.700Z,191974,-0.21160889,-1.1013184,0.5830078
1725699982742,2024-09-07T09:06:22.742Z,192016,-0.21105957,-1.0794067,0.5653076
1725699982787,2024-09-07T09:06:22.787Z,192061,-0.2296753,-1.0291748,0.5305176
1725699982832,2024-09-07T09:06:22.832Z,192106,-0.22729492,-0.9642334,0.49627686
1725699982878,2024-09-07T09:06:22.878Z,192152,-0.21099854,-0.9066162,0.46862793
1725699982924,2024-09-07T09:06:22.924Z,192198,-0.19024658,-0.8730469,0.50805664
1725699982970,2024-09-07T09:06:22.970Z,192244,-0.20233154,-0.92333984,0.50665283
1725699982991,2024-09-07T09:06:22.991Z,192265,-0.2055664,-0.9472656,0.5722046
1725699983011,2024-09-07T09:06:23.011Z,192285,-0.17327881,-0.9246216,0.5171509
1725699983056,2024-09-07T09:06:23.056Z,192330,-0.13873291,-0.8865967,0.52246094
1725699983104,2024-09-07T09:06:23.104Z,192378,-0.12530518,-0.91070557,0.45648193
1725699983148,2024-09-07T09:06:23.148Z,192422,-0.13000488,-0.923645,0.45544434
1725699983193,2024-09-07T09:06:23.193Z,192467,-0.11920166,-0.9491577,0.4376831
1725699983245,2024-09-07T09:06:23.245Z,192519,-0.1449585,-0.9790039,0.3977661
1725699983288,2024-09-07T09:06:23.288Z,192562,-0.12841797,-0.96746826,0.3955078
1725699983343,2024-09-07T09:06:23.343Z,192617,-0.13647461,-0.9557495,0.36712646
1725699983374,2024-09-07T09:06:23.374Z,192648,-0.16503906,-0.9304199,0.36608887
1725699983395,2024-09-07T09:06:23.395Z,192669,-0.20074463,-0.9057617,0.33337402
1725699983463,2024-09-07T09:06:23.463Z,192737,-0.2310791,-0.88549805,0.36566162
1725699983480,2024-09-07T09:06:23.480Z,192754,-0.24890137,-0.8633423,0.36260986
1725699983507,2024-09-07T09:06:23.507Z,192781,-0.21087646,-0.83709717,0.32006836
1725699983554,2024-09-07T09:06:23.554Z,192828,-0.21026611,-0.7749634,0.33355713
1725699983600,2024-09-07T09:06:23.600Z,192874,-0.21807861,-0.7319946,0.32995605
1725699983646,2024-09-07T09:06:23.646Z,192920,-0.1895752,-0.7249756,0.31103516
1725699983690,2024-09-07T09:06:23.690Z,192964,-0.20953369,-0.69403076,0.284729
1725699983734,2024-09-07T09:06:23.734Z,193008,-0.19018555,-0.6849365,0.27044678
1725699983778,2024-09-07T09:06:23.778Z,193052,-0.18792725,-0.6882324,0.22406006
1725699983797,2024-09-07T09:06:23.797Z,193071,-0.18121338,-0.6875,0.2263794
1725699983870,2024-09-07T09:06:23.870Z,193144,-0.19799805,-0.70635986,0.21124268
1725699983887,2024-09-07T09:06:23.887Z,193161,-0.21539307,-0.7041626,0.20214844
1725699983960,2024-09-07T09:06:23.960Z,193234,-0.21398926,-0.7250366,0.19573975
1725699983980,2024-09-07T09:06:23.980Z,193254,-0.26226807,-0.791626,0.1953125
1725699984001,2024-09-07T09:06:24.001Z,193275,-0.29614258,-0.8529663,0.1951294
1725699984052,2024-09-07T09:06:24.052Z,193326,-0.31604004,-0.9244385,0.18341064
1725699984091,2024-09-07T09:06:24.091Z,193365,-0.35913086,-0.9400635,0.21832275
1725699984140,2024-09-07T09:06:24.140Z,193414,-0.3723755,-0.93811035,0.19268799
1725699984186,2024-09-07T09:06:24.186Z,193460,-0.36083984,-0.9116211,0.20428467
1725699984231,2024-09-07T09:06:24.231Z,193505,-0.3569336,-0.8960571,0.2163086
1725699984254,2024-09-07T09:06:24.254Z,193528,-0.34405518,-0.8880005,0.230896
1725699984274,2024-09-07T09:06:24.274Z,193548,-0.33728027,-0.89471436,0.2321167
1725699984318,2024-09-07T09:06:24.318Z,193592,-0.33087158,-0.9053345,0.23931885
1725699984363,2024-09-07T09:06:24.363Z,193637,-0.33117676,-0.9100342,0.24041748
1725699984458,2024-09-07T09:06:24.458Z,193732,-0.33544922,-0.9179077,0.22949219
1725699984482,2024-09-07T09:06:24.482Z,193756,-0.3312378,-0.9246216,0.22717285
1725699984502,2024-09-07T09:06:24.502Z,193776,-0.317688,-0.9213257,0.2388916
1725699984543,2024-09-07T09:06:24.543Z,193817,-0.30755615,-0.9215698,0.2175293
1725699984589,2024-09-07T09:06:24.589Z,193863,-0.30456543,-0.9063721,0.2286377
1725699984649,2024-09-07T09:06:24.649Z,193923,-0.32080078,-0.89959717,0.22485352
1725699984673,2024-09-07T09:06:24.673Z,193947,-0.32641602,-0.8911133,0.23547363
1725699984696,2024-09-07T09:06:24.696Z,193970,-0.3352661,-0.8959961,0.2189331
1725699984721,2024-09-07T09:06:24.721Z,193995,-0.33605957,-0.866333,0.23797607
1725699984763,2024-09-07T09:06:24.763Z,194037,-0.32537842,-0.85131836,0.22564697
1725699984811,2024-09-07T09:06:24.811Z,194085,-0.29675293,-0.84124756,0.2366333
1725699984864,2024-09-07T09:06:24.864Z,194138,-0.28875732,-0.8321533,0.22991943
1725699984952,2024-09-07T09:06:24.952Z,194226,-0.2783203,-0.8257446,0.23095703
1725699984976,2024-09-07T09:06:24.976Z,194250,-0.2611084,-0.85253906,0.21960449
1725699984998,2024-09-07T09:06:24.998Z,194272,-0.26501465,-0.8689575,0.24334717
1725699985041,2024-09-07T09:06:25.041Z,194315,-0.2619629,-0.84558105,0.255188
1725699985061,2024-09-07T09:06:25.061Z,194335,-0.2581787,-0.8083496,0.24176025
1725699985078,2024-09-07T09:06:25.078Z,194352,-0.24420166,-0.7727051,0.22265625
1725699985129,2024-09-07T09:06:25.129Z,194403,-0.19012451,-0.75128174,0.21459961
1725699985174,2024-09-07T09:06:25.174Z,194448,-0.17956543,-0.74108887,0.2142334
1725699985221,2024-09-07T09:06:25.221Z,194495,-0.16131592,-0.7550049,0.2218628
1725699985270,2024-09-07T09:06:25.270Z,194544,-0.19818115,-0.7779541,0.22485352
1725699985308,2024-09-07T09:06:25.308Z,194582,-0.2218628,-0.7873535,0.2121582
1725699985354,2024-09-07T09:06:25.354Z,194628,-0.22253418,-0.79089355,0.21258545
1725699985398,2024-09-07T09:06:25.398Z,194672,-0.18920898,-0.81970215,0.21514893
1725699985495,2024-09-07T09:06:25.495Z,194769,-0.17547607,-0.84332275,0.26385498
1725699985519,2024-09-07T09:06:25.519Z,194793,-0.15588379,-0.8821411,0.30767822
1725699985537,2024-09-07T09:06:25.537Z,194811,-0.1282959,-0.9487915,0.34228516
1725699985550,2024-09-07T09:06:25.550Z,194824,-0.13647461,-0.9675293,0.40307617
1725699985575,2024-09-07T09:06:25.575Z,194849,-0.15478516,-0.9593506,0.42388916
1725699985618,2024-09-07T09:06:25.618Z,194892,-0.18585205,-0.95007324,0.4857788
1725699985669,2024-09-07T09:06:25.669Z,194943,-0.19567871,-0.9458618,0.47174072
1725699985714,2024-09-07T09:06:25.714Z,194988,-0.19366455,-0.9074707,0.5169678
1725699985759,2024-09-07T09:06:25.759Z,195033,-0.1809082,-0.9237671,0.5142822
1725699985804,2024-09-07T09:06:25.804Z,195078,-0.17510986,-0.94433594,0.45117188
1725699985849,2024-09-07T09:06:25.849Z,195123,-0.19158936,-0.94226074,0.46258545
1725699985894,2024-09-07T09:06:25.894Z,195168,-0.17297363,-0.9398804,0.487854
1725699985913,2024-09-07T09:06:25.913Z,195187,-0.17889404,-0.96435547,0.44592285
1725699985935,2024-09-07T09:06:25.935Z,195209,-0.17529297,-0.9472656,0.50097656
1725699985979,2024-09-07T09:06:25.979Z,195253,-0.19830322,-0.94525146,0.47235107
1725699986032,2024-09-07T09:06:26.032Z,195306,-0.20605469,-0.934021,0.46087646
1725699986075,2024-09-07T09:06:26.075Z,195349,-0.23376465,-0.9304199,0.44866943
1725699986119,2024-09-07T09:06:26.119Z,195393,-0.25482178,-0.91516113,0.49468994
1725699986164,2024-09-07T09:06:26.164Z,195438,-0.27252197,-0.925354,0.47595215
1725699986210,2024-09-07T09:06:26.210Z,195484,-0.27105713,-0.914917,0.49243164
1725699986253,2024-09-07T09:06:26.253Z,195527,-0.25830078,-0.9003296,0.4487915
1725699986301,2024-09-07T09:06:26.301Z,195575,-0.25183105,-0.9210205,0.4244995
1725699986323,2024-09-07T09:06:26.323Z,195597,-0.26409912,-0.9172363,0.45007324
1725699986344,2024-09-07T09:06:26.344Z,195618,-0.26763916,-0.8790283,0.4290161
1725699986390,2024-09-07T09:06:26.390Z,195664,-0.25836182,-0.8675537,0.38726807
1725699986444,2024-09-07T09:06:26.444Z,195718,-0.2602539,-0.8565674,0.39031982
1725699986479,2024-09-07T09:06:26.479Z,195753,-0.26611328,-0.8711548,0.36572266
1725699986522,2024-09-07T09:06:26.522Z,195796,-0.2592163,-0.89141846,0.3723755
1725699986573,2024-09-07T09:06:26.573Z,195847,-0.27929688,-0.90966797,0.37878418
1725699986613,2024-09-07T09:06:26.613Z,195887,-0.289917,-0.9399414,0.3635254
1725699986662,2024-09-07T09:06:26.662Z,195936,-0.28955078,-0.9435425,0.3828125
1725699986702,2024-09-07T09:06:26.702Z,195976,-0.29406738,-0.9249878,0.38110352
1725699986752,2024-09-07T09:06:26.752Z,196026,-0.2874756,-0.8876953,0.37945557
1725699986774,2024-09-07T09:06:26.774Z,196048,-0.26062012,-0.87072754,0.36669922
1725699986790,2024-09-07T09:06:26.790Z,196064,-0.2607422,-0.87042236,0.3546753
1725699986837,2024-09-07T09:06:26.837Z,196111,-0.24768066,-0.8765869,0.36169434
1725699986884,2024-09-07T09:06:26.884Z,196158,-0.2331543,-0.87719727,0.38891602
1725699986931,2024-09-07T09:06:26.931Z,196205,-0.23828125,-0.8914795,0.3760376
1725699986977,2024-09-07T09:06:26.977Z,196251,-0.24377441,-0.90093994,0.3873291
1725699987022,2024-09-07T09:06:27.022Z,196296,-0.26690674,-0.90338135,0.3762207
1725699987066,2024-09-07T09:06:27.066Z,196340,-0.26452637,-0.9014282,0.36950684
1725699987110,2024-09-07T09:06:27.110Z,196384,-0.28552246,-0.89282227,0.36340332
1725699987154,2024-09-07T09:06:27.154Z,196428,-0.27947998,-0.89178467,0.3626709
1725699987177,2024-09-07T09:06:27.177Z,196451,-0.27252197,-0.9022217,0.37042236
1725699987198,2024-09-07T09:06:27.198Z,196472,-0.26483154,-0.91192627,0.37841797
1725699987246,2024-09-07T09:06:27.246Z,196520,-0.2695923,-0.92144775,0.37701416
1725699987289,2024-09-07T09:06:27.289Z,196563,-0.27459717,-0.92303467,0.38720703
1725699987336,2024-09-07T09:06:27.336Z,196610,-0.2854004,-0.9491577,0.38458252
1725699987379,2024-09-07T09:06:27.379Z,196653,-0.3015747,-0.9769287,0.4310913
1725699987424,2024-09-07T09:06:27.424Z,196698,-0.30737305,-1.0202637,0.4277954
1725699987468,2024-09-07T09:06:27.468Z,196742,-0.3057251,-1.0361328,0.43896484
1725699987516,2024-09-07T09:06:27.516Z,196790,-0.29901123,-1.0342407,0.44439697
1725699987561,2024-09-07T09:06:27.561Z,196835,-0.29693604,-1.0244141,0.44067383
1725699987584,2024-09-07T09:06:27.584Z,196858,-0.2998047,-1.0088501,0.43426514
1725699987608,2024-09-07T09:06:27.608Z,196882,-0.27886963,-0.9942627,0.4567871
1725699987650,2024-09-07T09:06:27.650Z,196924,-0.2675171,-0.9621582,0.4852295
1725699987697,2024-09-07T09:06:27.697Z,196971,-0.23492432,-0.9359131,0.45996094
1725699987755,2024-09-07T09:06:27.755Z,197029,-0.22705078,-0.91052246,0.46600342
1725699987782,2024-09-07T09:06:27.782Z,197056,-0.23480225,-0.88513184,0.42614746
1725699987827,2024-09-07T09:06:27.827Z,197101,-0.18536377,-0.8869629,0.42242432
1725699987921,2024-09-07T09:06:27.921Z,197195,-0.15557861,-0.8817749,0.46887207
1725699987940,2024-09-07T09:06:27.940Z,197214,-0.1973877,-0.951355,0.42486572
1725699987962,2024-09-07T09:06:27.962Z,197236,-0.21954346,-0.99505615,0.4550171
1725699988007,2024-09-07T09:06:28.007Z,197281,-0.23022461,-0.99731445,0.44555664
1725699988024,2024-09-07T09:06:28.024Z,197298,-0.23693848,-0.982666,0.42456055
1725699988049,2024-09-07T09:06:28.049Z,197323,-0.22888184,-0.954895,0.4265747
1725699988100,2024-09-07T09:06:28.100Z,197374,-0.24121094,-0.90411377,0.4364624
1725699988147,2024-09-07T09:06:28.147Z,197421,-0.2354126,-0.8371582,0.4048462
1725699988190,2024-09-07T09:06:28.190Z,197464,-0.22418213,-0.8018799,0.3701172
1725699988239,2024-09-07T09:06:28.239Z,197513,-0.22772217,-0.7942505,0.34002686
1725699988279,2024-09-07T09:06:28.279Z,197553,-0.24487305,-0.7746582,0.3336792
1725699988321,2024-09-07T09:06:28.321Z,197595,-0.2453003,-0.7409668,0.33703613
1725699988370,2024-09-07T09:06:28.370Z,197644,-0.23303223,-0.72869873,0.2954712
1725699988415,2024-09-07T09:06:28.415Z,197689,-0.23168945,-0.6959839,0.30285645
1725699988436,2024-09-07T09:06:28.436Z,197710,-0.22729492,-0.6643677,0.28833008
1725699988454,2024-09-07T09:06:28.454Z,197728,-0.22180176,-0.6636963,0.2536621
1725699988505,2024-09-07T09:06:28.505Z,197779,-0.20404053,-0.6616821,0.23742676
1725699988549,2024-09-07T09:06:28.549Z,197823,-0.2074585,-0.67419434,0.22290039
1725699988594,2024-09-07T09:06:28.594Z,197868,-0.215271,-0.7050781,0.23260498
1725699988636,2024-09-07T09:06:28.636Z,197910,-0.22540283,-0.75579834,0.24578857
1725699988687,2024-09-07T09:06:28.687Z,197961,-0.23864746,-0.80981445,0.25195312
1725699988732,2024-09-07T09:06:28.732Z,198006,-0.26391602,-0.8560791,0.27349854
1725699988774,2024-09-07T09:06:28.774Z,198048,-0.28363037,-0.9058838,0.26843262
1725699988821,2024-09-07T09:06:28.821Z,198095,-0.3143921,-0.9279785,0.2796631
1725699988878,2024-09-07T09:06:28.878Z,198152,-0.33544922,-0.93414307,0.25354004
1725699988895,2024-09-07T09:06:28.895Z,198169,-0.32495117,-0.9244385,0.24401855
1725699988912,2024-09-07T09:06:28.912Z,198186,-0.33758545,-0.9071045,0.2564087
1725699988954,2024-09-07T09:06:28.954Z,198228,-0.3284912,-0.9005127,0.26239014
1725699988997,2024-09-07T09:06:28.997Z,198271,-0.3388672,-0.8883667,0.28302002
1725699989106,2024-09-07T09:06:29.106Z,198380,-0.3418579,-0.8919678,0.27844238
1725699989130,2024-09-07T09:06:29.130Z,198404,-0.34161377,-0.8915405,0.26953125
1725699989149,2024-09-07T09:06:29.149Z,198423,-0.3302002,-0.8894043,0.27996826
1725699989176,2024-09-07T09:06:29.176Z,198450,-0.31811523,-0.8803711,0.2991333
1725699989223,2024-09-07T09:06:29.223Z,198497,-0.3411255,-0.8859253,0.2866211
1725699989271,2024-09-07T09:06:29.271Z,198545,-0.35351562,-0.9036255,0.27703857
1725699989295,2024-09-07T09:06:29.295Z,198569,-0.3517456,-0.8946533,0.27233887
1725699989359,2024-09-07T09:06:29.359Z,198633,-0.34417725,-0.88171387,0.24749756
1725699989376,2024-09-07T09:06:29.376Z,198650,-0.34423828,-0.86157227,0.25299072
1725699989403,2024-09-07T09:06:29.403Z,198677,-0.3554077,-0.8720093,0.23461914
1725699989495,2024-09-07T09:06:29.495Z,198769,-0.36083984,-0.864563,0.22650146
1725699989519,2024-09-07T09:06:29.519Z,198793,-0.36444092,-0.8649292,0.215271
1725699989537,2024-09-07T09:06:29.537Z,198811,-0.366333,-0.8531494,0.23156738
1725699989586,2024-09-07T09:06:29.586Z,198860,-0.36462402,-0.8463745,0.22253418
1725699989630,2024-09-07T09:06:29.630Z,198904,-0.32873535,-0.8439331,0.23522949
1725699989677,2024-09-07T09:06:29.677Z,198951,-0.29077148,-0.833374,0.25946045
1725699989702,2024-09-07T09:06:29.702Z,198976,-0.26416016,-0.80914307,0.28125
1725699989719,2024-09-07T09:06:29.719Z,198993,-0.24603271,-0.7984009,0.27435303
1725699989759,2024-09-07T09:06:29.759Z,199033,-0.23052979,-0.7766113,0.27471924
1725699989806,2024-09-07T09:06:29.806Z,199080,-0.23309326,-0.73895264,0.22619629
1725699989857,2024-09-07T09:06:29.857Z,199131,-0.21258545,-0.71813965,0.19360352
1725699989901,2024-09-07T09:06:29.901Z,199175,-0.22851562,-0.73565674,0.2043457
1725699989943,2024-09-07T09:06:29.943Z,199217,-0.25073242,-0.7615967,0.22460938
1725699989988,2024-09-07T09:06:29.988Z,199262,-0.24749756,-0.7998047,0.21368408
1725699990034,2024-09-07T09:06:30.034Z,199308,-0.27667236,-0.8265991,0.26983643
1725699990078,2024-09-07T09:06:30.078Z,199352,-0.269104,-0.8900757,0.2765503
1725699990102,2024-09-07T09:06:30.102Z,199376,-0.22875977,-0.91607666,0.2434082
1725699990124,2024-09-07T09:06:30.124Z,199398,-0.2670288,-0.86383057,0.3258667
1725699990213,2024-09-07T09:06:30.213Z,199487,-0.22436523,-0.8397827,0.30706787
1725699990234,2024-09-07T09:06:30.234Z,199508,-0.16070557,-0.838562,0.34301758
1725699990255,2024-09-07T09:06:30.255Z,199529,-0.14160156,-0.8410034,0.37042236
1725699990304,2024-09-07T09:06:30.304Z,199578,-0.15429688,-0.8590698,0.385437
1725699990349,2024-09-07T09:06:30.349Z,199623,-0.15942383,-0.88671875,0.37542725
1725699990400,2024-09-07T09:06:30.400Z,199674,-0.19750977,-0.9230957,0.3572998
1725699990440,2024-09-07T09:06:30.440Z,199714,-0.21704102,-0.95874023,0.3737793
1725699990485,2024-09-07T09:06:30.485Z,199759,-0.22460938,-0.9736328,0.4161377
1725699990530,2024-09-07T09:06:30.530Z,199804,-0.21685791,-0.9647217,0.41174316
1725699990553,2024-09-07T09:06:30.553Z,199827,-0.22918701,-0.96154785,0.44439697
1725699990573,2024-09-07T09:06:30.573Z,199847,-0.24383545,-0.9850464,0.44622803
1725699990617,2024-09-07T09:06:30.617Z,199891,-0.25946045,-0.9656372,0.45483398
1725699990662,2024-09-07T09:06:30.662Z,199936,-0.28778076,-0.92529297,0.44006348
1725699990708,2024-09-07T09:06:30.708Z,199982,-0.26098633,-0.89501953,0.44610596
1725699990756,2024-09-07T09:06:30.756Z,200030,-0.24475098,-0.9017334,0.45965576
1725699990799,2024-09-07T09:06:30.799Z,200073,-0.2387085,-0.93170166,0.45898438
1725699990848,2024-09-07T09:06:30.848Z,200122,-0.2310791,-0.9442749,0.48828125
1725699990891,2024-09-07T09:06:30.891Z,200165,-0.23498535,-0.9631958,0.4753418
1725699990935,2024-09-07T09:06:30.935Z,200209,-0.25256348,-0.9477539,0.48754883
1725699990954,2024-09-07T09:06:30.954Z,200228,-0.2592163,-0.92303467,0.46539307
1725699990976,2024-09-07T09:06:30.976Z,200250,-0.25299072,-0.8942261,0.4543457
1725699991024,2024-09-07T09:06:31.024Z,200298,-0.25213623,-0.87054443,0.434021
1725699991070,2024-09-07T09:06:31.070Z,200344,-0.2376709,-0.8701782,0.4124756
1725699991113,2024-09-07T09:06:31.113Z,200387,-0.22076416,-0.8894043,0.42193604
1725699991161,2024-09-07T09:06:31.161Z,200435,-0.21905518,-0.9000244,0.42181396
1725699991203,2024-09-07T09:06:31.203Z,200477,-0.21777344,-0.9055786,0.46374512
1725699991249,2024-09-07T09:06:31.249Z,200523,-0.25177002,-0.91571045,0.44769287
1725699991295,2024-09-07T09:06:31.295Z,200569,-0.2468872,-0.89678955,0.44482422
1725699991342,2024-09-07T09:06:31.342Z,200616,-0.26055908,-0.909729,0.39941406
1725699991366,2024-09-07T09:06:31.366Z,200640,-0.25854492,-0.89520264,0.42834473
1725699991389,2024-09-07T09:06:31.389Z,200663,-0.26446533,-0.8788452,0.41467285
1725699991428,2024-09-07T09:06:31.428Z,200702,-0.24737549,-0.8808594,0.42523193
1725699991475,2024-09-07T09:06:31.475Z,200749,-0.24987793,-0.8911743,0.42053223
1725699991521,2024-09-07T09:06:31.521Z,200795,-0.24884033,-0.88739014,0.4220581
1725699991565,2024-09-07T09:06:31.565Z,200839,-0.2567749,-0.86328125,0.42944336
1725699991613,2024-09-07T09:06:31.613Z,200887,-0.25250244,-0.8510132,0.3949585
1725699991655,2024-09-07T09:06:31.655Z,200929,-0.23553467,-0.8464966,0.39752197
1725699991698,2024-09-07T09:06:31.698Z,200972,-0.23797607,-0.86608887,0.41357422
1725699991746,2024-09-07T09:06:31.746Z,201020,-0.23760986,-0.87683105,0.44708252
1725699991790,2024-09-07T09:06:31.790Z,201064,-0.24554443,-0.89160156,0.43823242
1725699991814,2024-09-07T09:06:31.814Z,201088,-0.22589111,-0.90075684,0.41577148
1725699991840,2024-09-07T09:06:31.840Z,201114,-0.23138428,-0.8947754,0.4171753
1725699991879,2024-09-07T09:06:31.879Z,201153,-0.21679688,-0.8861084,0.41027832
1725699991924,2024-09-07T09:06:31.924Z,201198,-0.20935059,-0.8670044,0.416687
1725699991972,2024-09-07T09:06:31.972Z,201246,-0.20629883,-0.8555298,0.43304443
1725699992014,2024-09-07T09:06:32.014Z,201288,-0.21191406,-0.8600464,0.43048096
1725699992062,2024-09-07T09:06:32.062Z,201336,-0.21490479,-0.8604126,0.41241455
1725699992104,2024-09-07T09:06:32.104Z,201378,-0.21264648,-0.85736084,0.42907715
1725699992148,2024-09-07T09:06:32.148Z,201422,-0.22851562,-0.8621826,0.4255371
1725699992196,2024-09-07T09:06:32.196Z,201470,-0.24334717,-0.87457275,0.416687
1725699992218,2024-09-07T09:06:32.218Z,201492,-0.25756836,-0.90478516,0.40582275
1725699992240,2024-09-07T09:06:32.240Z,201514,-0.2635498,-0.9319458,0.4290161
1725699992283,2024-09-07T09:06:32.283Z,201557,-0.26263428,-0.9534302,0.45385742
1725699992328,2024-09-07T09:06:32.328Z,201602,-0.26489258,-0.9812012,0.47094727
1725699992374,2024-09-07T09:06:32.374Z,201648,-0.26068115,-1.0039062,0.4800415
1725699992421,2024-09-07T09:06:32.421Z,201695,-0.2529297,-1.0101318,0.4827881
1725699992465,2024-09-07T09:06:32.465Z,201739,-0.25427246,-1.0130615,0.47369385
1725699992509,2024-09-07T09:06:32.509Z,201783,-0.25079346,-1.0105591,0.49713135
1725699992556,2024-09-07T09:06:32.556Z,201830,-0.26391602,-0.99676514,0.5130005
1725699992598,2024-09-07T09:06:32.598Z,201872,-0.23956299,-0.9908447,0.5159302
1725699992625,2024-09-07T09:06:32.625Z,201899,-0.23217773,-0.9633789,0.54315186
1725699992647,2024-09-07T09:06:32.647Z,201921,-0.22125244,-0.9316406,0.5531616
1725699992688,2024-09-07T09:06:32.688Z,201962,-0.20855713,-0.89263916,0.55426025
1725699992735,2024-09-07T09:06:32.735Z,202009,-0.19384766,-0.86291504,0.53704834
1725699992781,2024-09-07T09:06:32.781Z,202055,-0.18780518,-0.8583374,0.5543823
1725699992824,2024-09-07T09:06:32.824Z,202098,-0.16418457,-0.89904785,0.5232544
1725699992869,2024-09-07T09:06:32.869Z,202143,-0.14099121,-0.9593506,0.4883423
1725699992912,2024-09-07T09:06:32.912Z,202186,-0.16296387,-0.97631836,0.52056885
1725699992959,2024-09-07T09:06:32.959Z,202233,-0.18170166,-0.97436523,0.4876709
1725699993004,2024-09-07T09:06:33.004Z,202278,-0.18353271,-0.9706421,0.45776367
1725699993048,2024-09-07T09:06:33.048Z,202322,-0.2119751,-0.9365845,0.43078613
1725699993068,2024-09-07T09:06:33.068Z,202342,-0.21496582,-0.89764404,0.40124512
1725699993091,2024-09-07T09:06:33.091Z,202365,-0.2290039,-0.8770752,0.3916626
1725699993134,2024-09-07T09:06:33.134Z,202408,-0.21466064,-0.82580566,0.38110352
1725699993186,2024-09-07T09:06:33.186Z,202460,-0.21179199,-0.7836304,0.35931396
1725699993231,2024-09-07T09:06:33.231Z,202505,-0.20532227,-0.7460327,0.36260986
1725699993275,2024-09-07T09:06:33.275Z,202549,-0.22058105,-0.7077637,0.35839844
1725699993317,2024-09-07T09:06:33.317Z,202591,-0.19696045,-0.6838379,0.3034668
1725699993364,2024-09-07T09:06:33.364Z,202638,-0.1774292,-0.6415405,0.26293945
1725699993412,2024-09-07T09:06:33.412Z,202686,-0.15844727,-0.6575928,0.20788574
1725699993452,2024-09-07T09:06:33.452Z,202726,-0.2121582,-0.6812744,0.33666992
1725699993475,2024-09-07T09:06:33.475Z,202749,-0.20349121,-0.68927,0.2942505
1725699993499,2024-09-07T09:06:33.499Z,202773,-0.2029419,-0.7029419,0.22351074
1725699993544,2024-09-07T09:06:33.544Z,202818,-0.19543457,-0.71954346,0.23248291
1725699993585,2024-09-07T09:06:33.585Z,202859,-0.21466064,-0.74957275,0.25610352
1725699993634,2024-09-07T09:06:33.634Z,202908,-0.2401123,-0.7883301,0.260437
1725699993682,2024-09-07T09:06:33.682Z,202956,-0.2680664,-0.8591919,0.24517822
1725699993723,2024-09-07T09:06:33.723Z,202997,-0.30413818,-0.9003296,0.24707031
1725699993768,2024-09-07T09:06:33.768Z,203042,-0.32177734,-0.90960693,0.2685547
1725699993816,2024-09-07T09:06:33.816Z,203090,-0.33569336,-0.9241333,0.25256348
1725699993861,2024-09-07T09:06:33.861Z,203135,-0.34375,-0.911499,0.27752686
1725699993887,2024-09-07T09:06:33.887Z,203161,-0.3425293,-0.894104,0.27716064
1725699993908,2024-09-07T09:06:33.908Z,203182,-0.32647705,-0.87506104,0.27996826
1725699993948,2024-09-07T09:06:33.948Z,203222,-0.33776855,-0.86602783,0.28375244
1725699993995,2024-09-07T09:06:33.995Z,203269,-0.33917236,-0.87493896,0.28912354
1725699994042,2024-09-07T09:06:34.042Z,203316,-0.3392334,-0.8944092,0.30023193
1725699994084,2024-09-07T09:06:34.084Z,203358,-0.3324585,-0.8989868,0.29992676
1725699994131,2024-09-07T09:06:34.131Z,203405,-0.3156128,-0.8897095,0.29699707
1725699994176,2024-09-07T09:06:34.176Z,203450,-0.3013916,-0.8965454,0.27581787
1725699994222,2024-09-07T09:06:34.222Z,203496,-0.30212402,-0.8930664,0.27685547
1725699994266,2024-09-07T09:06:34.266Z,203540,-0.30926514,-0.885376,0.27349854
1725699994291,2024-09-07T09:06:34.291Z,203565,-0.31811523,-0.89331055,0.26934814
1725699994314,2024-09-07T09:06:34.314Z,203588,-0.32312012,-0.9008179,0.26019287
1725699994352,2024-09-07T09:06:34.352Z,203626,-0.31835938,-0.90826416,0.24700928
1725699994397,2024-09-07T09:06:34.397Z,203671,-0.32537842,-0.8967285,0.2659912
1725699994443,2024-09-07T09:06:34.443Z,203717,-0.3258667,-0.88897705,0.27600098
1725699994489,2024-09-07T09:06:34.489Z,203763,-0.32305908,-0.87719727,0.26904297
1725699994534,2024-09-07T09:06:34.534Z,203808,-0.32312012,-0.8701782,0.25860596
1725699994579,2024-09-07T09:06:34.579Z,203853,-0.3244629,-0.866333,0.25726318
1725699994628,2024-09-07T09:06:34.628Z,203902,-0.31048584,-0.85943604,0.2718506
1725699994672,2024-09-07T09:06:34.672Z,203946,-0.29351807,-0.8360596,0.28112793
1725699994715,2024-09-07T09:06:34.715Z,203989,-0.29284668,-0.8239746,0.2803955
1725699994735,2024-09-07T09:06:34.735Z,204009,-0.2897339,-0.7909546,0.28356934
1725699994759,2024-09-07T09:06:34.759Z,204033,-0.27868652,-0.78393555,0.24041748
1725699994803,2024-09-07T09:06:34.803Z,204077,-0.24261475,-0.7647095,0.2607422
1725699994850,2024-09-07T09:06:34.850Z,204124,-0.23742676,-0.744812,0.2680664
1725699994894,2024-09-07T09:06:34.894Z,204168,-0.19952393,-0.73779297,0.2904663
1725699994940,2024-09-07T09:06:34.940Z,204214,-0.20843506,-0.7387085,0.30566406
1725699994984,2024-09-07T09:06:34.984Z,204258,-0.21490479,-0.75305176,0.30133057
1725699995029,2024-09-07T09:06:35.029Z,204303,-0.26397705,-0.7749634,0.29534912
1725699995072,2024-09-07T09:06:35.072Z,204346,-0.29608154,-0.78619385,0.28857422
1725699995119,2024-09-07T09:06:35.119Z,204393,-0.28741455,-0.78930664,0.2734375
1725699995138,2024-09-07T09:06:35.138Z,204412,-0.26879883,-0.7835083,0.31079102
1725699995164,2024-09-07T09:06:35.164Z,204438,-0.2265625,-0.7911377,0.32574463
1725699995209,2024-09-07T09:06:35.209Z,204483,-0.2088623,-0.79504395,0.3574829
1725699995259,2024-09-07T09:06:35.259Z,204533,-0.20422363,-0.8358154,0.36505127
1725699995302,2024-09-07T09:06:35.302Z,204576,-0.22436523,-0.8737793,0.37579346
1725699995344,2024-09-07T09:06:35.344Z,204618,-0.26049805,-0.91119385,0.3795166
1725699995387,2024-09-07T09:06:35.387Z,204661,-0.27209473,-0.9321289,0.39123535
1725699995436,2024-09-07T09:06:35.436Z,204710,-0.27270508,-0.93066406,0.41326904
1725699995480,2024-09-07T09:06:35.480Z,204754,-0.24853516,-0.92388916,0.42016602
1725699995527,2024-09-07T09:06:35.527Z,204801,-0.21868896,-0.9100342,0.44836426
1725699995551,2024-09-07T09:06:35.551Z,204825,-0.18969727,-0.9098511,0.44848633
1725699995572,2024-09-07T09:06:35.572Z,204846,-0.19793701,-0.92541504,0.39898682
1725699995613,2024-09-07T09:06:35.613Z,204887,-0.20263672,-0.9326782,0.36566162
1725699995660,2024-09-07T09:06:35.660Z,204934,-0.23028564,-0.93865967,0.3914795
1725699995705,2024-09-07T09:06:35.705Z,204979,-0.26068115,-0.9456177,0.42541504
1725699995749,2024-09-07T09:06:35.749Z,205023,-0.27069092,-0.9640503,0.4512329
1725699995796,2024-09-07T09:06:35.796Z,205070,-0.22790527,-0.9994507,0.45166016
1725699995841,2024-09-07T09:06:35.841Z,205115,-0.20269775,-0.98895264,0.4694214
1725699995890,2024-09-07T09:06:35.890Z,205164,-0.18737793,-0.9525757,0.46917725
1725699995932,2024-09-07T09:06:35.932Z,205206,-0.16522217,-0.9213867,0.4718628
1725699995978,2024-09-07T09:06:35.978Z,205252,-0.16339111,-0.9250488,0.4724121
1725699996002,2024-09-07T09:06:36.002Z,205276,-0.1809082,-0.9093628,0.51623535
1725699996023,2024-09-07T09:06:36.023Z,205297,-0.1618042,-0.9199829,0.49365234
1725699996062,2024-09-07T09:06:36.062Z,205336,-0.14440918,-0.9187622,0.49768066
1725699996108,2024-09-07T09:06:36.108Z,205382,-0.1609497,-0.8997803,0.46728516
1725699996158,2024-09-07T09:06:36.158Z,205432,-0.15344238,-0.8905029,0.4567871
1725699996200,2024-09-07T09:06:36.200Z,205474,-0.18481445,-0.89471436,0.48724365
1725699996244,2024-09-07T09:06:36.244Z,205518,-0.19476318,-0.8867798,0.4940796
1725699996290,2024-09-07T09:06:36.290Z,205564,-0.19396973,-0.87420654,0.4989624
1725699996338,2024-09-07T09:06:36.338Z,205612,-0.17883301,-0.8814087,0.4885254
1725699996378,2024-09-07T09:06:36.378Z,205652,-0.18286133,-0.8936157,0.46972656
1725699996398,2024-09-07T09:06:36.398Z,205672,-0.1854248,-0.8878174,0.50494385
1725699996421,2024-09-07T09:06:36.421Z,205695,-0.1817627,-0.88342285,0.5105591
1725699996470,2024-09-07T09:06:36.470Z,205744,-0.1730957,-0.8782959,0.5124512
1725699996515,2024-09-07T09:06:36.515Z,205789,-0.17602539,-0.86517334,0.5198364
1725699996558,2024-09-07T09:06:36.558Z,205832,-0.1687622,-0.85876465,0.49560547
1725699996605,2024-09-07T09:06:36.605Z,205879,-0.15734863,-0.8427124,0.48583984
1725699996649,2024-09-07T09:06:36.649Z,205923,-0.14660645,-0.8369751,0.46875
1725699996693,2024-09-07T09:06:36.693Z,205967,-0.13787842,-0.8320923,0.48565674
1725699996740,2024-09-07T09:06:36.740Z,206014,-0.14068604,-0.8491211,0.49780273
1725699996785,2024-09-07T09:06:36.785Z,206059,-0.1303711,-0.8574829,0.49414062
1725699996811,2024-09-07T09:06:36.811Z,206085,-0.13165283,-0.85601807,0.48760986
1725699996835,2024-09-07T09:06:36.835Z,206109,-0.14691162,-0.86328125,0.4985962
1725699996873,2024-09-07T09:06:36.873Z,206147,-0.15655518,-0.8688965,0.49621582
1725699996919,2024-09-07T09:06:36.919Z,206193,-0.14904785,-0.86376953,0.5050049
1725699996966,2024-09-07T09:06:36.966Z,206240,-0.15130615,-0.87353516,0.51641846
1725699997010,2024-09-07T09:06:37.010Z,206284,-0.13537598,-0.9152832,0.53393555
1725699997057,2024-09-07T09:06:37.057Z,206331,-0.1572876,-0.9494629,0.55718994
1725699997101,2024-09-07T09:06:37.101Z,206375,-0.1965332,-0.99176025,0.5328369
1725699997144,2024-09-07T09:06:37.144Z,206418,-0.21704102,-1.0151978,0.545166
1725699997190,2024-09-07T09:06:37.190Z,206464,-0.2444458,-1.0198975,0.5557251
1725699997236,2024-09-07T09:06:37.236Z,206510,-0.2300415,-1.0179443,0.5762329
1725699997261,2024-09-07T09:06:37.261Z,206535,-0.22753906,-1.0006104,0.57128906
1725699997283,2024-09-07T09:06:37.283Z,206557,-0.19812012,-0.97631836,0.5751953
1725699997323,2024-09-07T09:06:37.323Z,206597,-0.1795044,-0.9421387,0.55371094
1725699997370,2024-09-07T09:06:37.370Z,206644,-0.18011475,-0.9139404,0.5452881
1725699997416,2024-09-07T09:06:37.416Z,206690,-0.17236328,-0.9139404,0.52783203
1725699997461,2024-09-07T09:06:37.461Z,206735,-0.17150879,-0.8977661,0.50439453
1725699997503,2024-09-07T09:06:37.503Z,206777,-0.14428711,-0.87713623,0.4946289
1725699997550,2024-09-07T09:06:37.550Z,206824,-0.12384033,-0.8847046,0.5093994
1725699997594,2024-09-07T09:06:37.594Z,206868,-0.115600586,-0.88549805,0.5144043
1725699997638,2024-09-07T09:06:37.638Z,206912,-0.13885498,-0.86016846,0.5031738
1725699997658,2024-09-07T09:06:37.658Z,206932,-0.1338501,-0.85498047,0.47998047
1725699997682,2024-09-07T09:06:37.682Z,206956,-0.1472168,-0.87701416,0.444458
1725699997726,2024-09-07T09:06:37.726Z,207000,-0.12597656,-0.9081421,0.47106934
1725699997774,2024-09-07T09:06:37.774Z,207048,-0.15740967,-0.9359741,0.46600342
1725699997820,2024-09-07T09:06:37.820Z,207094,-0.17681885,-0.9221802,0.44836426
1725699997864,2024-09-07T09:06:37.864Z,207138,-0.16827393,-0.8968506,0.4015503
1725699997909,2024-09-07T09:06:37.909Z,207183,-0.18206787,-0.86346436,0.36450195
1725699997954,2024-09-07T09:06:37.954Z,207228,-0.17590332,-0.79071045,0.39746094
1725699998000,2024-09-07T09:06:38Z,207274,-0.15783691,-0.73931885,0.38293457
1725699998044,2024-09-07T09:06:38.044Z,207318,-0.12219238,-0.69750977,0.3751831
1725699998064,2024-09-07T09:06:38.064Z,207338,-0.10345459,-0.69610596,0.34423828
1725699998088,2024-09-07T09:06:38.088Z,207362,-0.103393555,-0.6980591,0.38824463
1725699998133,2024-09-07T09:06:38.133Z,207407,-0.1585083,-0.7227173,0.36621094
1725699998179,2024-09-07T09:06:38.179Z,207453,-0.17053223,-0.7819824,0.3163452
1725699998223,2024-09-07T09:06:38.223Z,207497,-0.20776367,-0.805542,0.30651855
1725699998268,2024-09-07T09:06:38.268Z,207542,-0.20678711,-0.7935791,0.2952881
1725699998315,2024-09-07T09:06:38.315Z,207589,-0.19171143,-0.7585449,0.30895996
1725699998360,2024-09-07T09:06:38.360Z,207634,-0.17608643,-0.72680664,0.31536865
1725699998407,2024-09-07T09:06:38.407Z,207681,-0.21166992,-0.74365234,0.30090332
1725699998460,2024-09-07T09:06:38.460Z,207734,-0.21636963,-0.7648926,0.29626465
1725699998493,2024-09-07T09:06:38.493Z,207767,-0.23388672,-0.79974365,0.2859497
1725699998514,2024-09-07T09:06:38.514Z,207788,-0.24902344,-0.82244873,0.3118286
1725699998538,2024-09-07T09:06:38.538Z,207812,-0.26159668,-0.8544922,0.3227539
1725699998583,2024-09-07T09:06:38.583Z,207857,-0.2808838,-0.8911743,0.3239746
1725699998637,2024-09-07T09:06:38.637Z,207911,-0.30682373,-0.9102173,0.2994995
1725699998676,2024-09-07T09:06:38.676Z,207950,-0.31781006,-0.91589355,0.30291748
1725699998720,2024-09-07T09:06:38.720Z,207994,-0.32580566,-0.9000244,0.32086182
1725699998763,2024-09-07T09:06:38.763Z,208037,-0.32263184,-0.88897705,0.32543945
1725699998808,2024-09-07T09:06:38.808Z,208082,-0.309021,-0.864624,0.3322754
1725699998855,2024-09-07T09:06:38.855Z,208129,-0.30371094,-0.8479614,0.34301758
1725699998961,2024-09-07T09:06:38.961Z,208235,-0.32037354,-0.85614014,0.30419922
1725699998982,2024-09-07T09:06:38.982Z,208256,-0.31860352,-0.87280273,0.30249023
1725699998999,2024-09-07T09:06:38.999Z,208273,-0.32873535,-0.8833618,0.29370117
1725699999010,2024-09-07T09:06:39.010Z,208284,-0.32611084,-0.8811035,0.2930298
1725699999037,2024-09-07T09:06:39.037Z,208311,-0.3283081,-0.87646484,0.30145264
1725699999127,2024-09-07T09:06:39.127Z,208401,-0.32562256,-0.86987305,0.2935791
1725699999145,2024-09-07T09:06:39.145Z,208419,-0.33013916,-0.87713623,0.28344727
1725699999213,2024-09-07T09:06:39.213Z,208487,-0.3270874,-0.878479,0.2972412
1725699999271,2024-09-07T09:06:39.271Z,208545,-0.34051514,-0.88061523,0.3024292
1725699999290,2024-09-07T09:06:39.290Z,208564,-0.3272705,-0.8932495,0.31365967
1725699999302,2024-09-07T09:06:39.302Z,208576,-0.3277588,-0.88616943,0.31658936
1725699999313,2024-09-07T09:06:39.313Z,208587,-0.31915283,-0.8644409,0.2975464
1725699999343,2024-09-07T09:06:39.343Z,208617,-0.30267334,-0.8427124,0.29406738
1725699999396,2024-09-07T09:06:39.396Z,208670,-0.2843628,-0.833374,0.28027344
1725699999439,2024-09-07T09:06:39.439Z,208713,-0.26812744,-0.81121826,0.284729
1725699999484,2024-09-07T09:06:39.484Z,208758,-0.25561523,-0.7886963,0.28930664
1725699999529,2024-09-07T09:06:39.529Z,208803,-0.23095703,-0.77734375,0.286438
1725699999576,2024-09-07T09:06:39.576Z,208850,-0.23687744,-0.7393799,0.27612305
1725699999620,2024-09-07T09:06:39.620Z,208894,-0.2322998,-0.72052,0.22436523
1725699999665,2024-09-07T09:06:39.665Z,208939,-0.22998047,-0.70513916,0.2576294
1725699999710,2024-09-07T09:06:39.710Z,208984,-0.24914551,-0.70355225,0.27844238
1725699999755,2024-09-07T09:06:39.755Z,209029,-0.25769043,-0.71643066,0.31018066
1725699999775,2024-09-07T09:06:39.775Z,209049,-0.25012207,-0.748291,0.33740234
1725699999797,2024-09-07T09:06:39.797Z,209071,-0.26055908,-0.77575684,0.3567505
1725699999841,2024-09-07T09:06:39.841Z,209115,-0.25506592,-0.82055664,0.33703613
1725699999890,2024-09-07T09:06:39.890Z,209164,-0.2545166,-0.85876465,0.31640625
1725699999935,2024-09-07T09:06:39.935Z,209209,-0.28375244,-0.86413574,0.3251953
1725699999982,2024-09-07T09:06:39.982Z,209256,-0.28063965,-0.8580322,0.3414917
1725700000026,2024-09-07T09:06:40.026Z,209300,-0.2602539,-0.84106445,0.3812256
1725700000072,2024-09-07T09:06:40.072Z,209346,-0.20019531,-0.8500366,0.3670044
1725700000115,2024-09-07T09:06:40.115Z,209389,-0.1671753,-0.8557739,0.40704346
1725700000160,2024-09-07T09:06:40.160Z,209434,-0.17346191,-0.8937378,0.4428711
1725700000180,2024-09-07T09:06:40.180Z,209454,-0.15435791,-0.9199829,0.5130615
1725700000202,2024-09-07T09:06:40.202Z,209476,-0.171875,-0.921875,0.53826904
1725700000248,2024-09-07T09:06:40.248Z,209522,-0.18292236,-0.9222412,0.54138184
1725700000295,2024-09-07T09:06:40.295Z,209569,-0.17559814,-0.909729,0.5255127
1725700000340,2024-09-07T09:06:40.340Z,209614,-0.18603516,-0.9124756,0.5234375
1725700000384,2024-09-07T09:06:40.384Z,209658,-0.19732666,-0.9036255,0.57470703
1725700000432,2024-09-07T09:06:40.432Z,209706,-0.23571777,-0.90393066,0.54919434
1725700000479,2024-09-07T09:06:40.479Z,209753,-0.24707031,-0.8911743,0.53186035
1725700000521,2024-09-07T09:06:40.521Z,209795,-0.23590088,-0.8903198,0.5249634
1725700000610,2024-09-07T09:06:40.610Z,209884,-0.23638916,-0.8894043,0.5493164
1725700000626,2024-09-07T09:06:40.626Z,209900,-0.21600342,-0.89227295,0.5610962
1725700000643,2024-09-07T09:06:40.643Z,209917,-0.21600342,-0.89556885,0.5583496
1725700000653,2024-09-07T09:06:40.653Z,209927,-0.18896484,-0.9058838,0.5237427
1725700000697,2024-09-07T09:06:40.697Z,209971,-0.18811035,-0.9042969,0.50213623
1725700000744,2024-09-07T09:06:40.744Z,210018,-0.18945312,-0.90130615,0.49456787
1725700000789,2024-09-07T09:06:40.789Z,210063,-0.20507812,-0.9110718,0.506897
1725700000833,2024-09-07T09:06:40.833Z,210107,-0.2185669,-0.88049316,0.49847412
1725700000878,2024-09-07T09:06:40.878Z,210152,-0.20233154,-0.86083984,0.48931885
1725700000925,2024-09-07T09:06:40.925Z,210199,-0.18890381,-0.8600464,0.4673462
1725700000969,2024-09-07T09:06:40.969Z,210243,-0.21160889,-0.85705566,0.46002197
1725700001015,2024-09-07T09:06:41.015Z,210289,-0.2300415,-0.85113525,0.46368408
1725700001035,2024-09-07T09:06:41.035Z,210309,-0.25463867,-0.8544922,0.47418213
1725700001059,2024-09-07T09:06:41.059Z,210333,-0.2723999,-0.85980225,0.4631958
1725700001103,2024-09-07T09:06:41.103Z,210377,-0.26306152,-0.8562622,0.44152832
1725700001148,2024-09-07T09:06:41.148Z,210422,-0.2666626,-0.8656006,0.4472046
1725700001194,2024-09-07T09:06:41.194Z,210468,-0.27929688,-0.8652344,0.45239258
1725700001240,2024-09-07T09:06:41.240Z,210514,-0.2878418,-0.85754395,0.4439087
1725700001286,2024-09-07T09:06:41.286Z,210560,-0.28778076,-0.84088135,0.4335327
1725700001329,2024-09-07T09:06:41.329Z,210603,-0.2929077,-0.8242798,0.4609375
1725700001374,2024-09-07T09:06:41.374Z,210648,-0.28186035,-0.8432007,0.44818115
1725700001420,2024-09-07T09:06:41.420Z,210694,-0.28552246,-0.85198975,0.4788208
1725700001442,2024-09-07T09:06:41.442Z,210716,-0.2732544,-0.84783936,0.47106934
1725700001464,2024-09-07T09:06:41.464Z,210738,-0.27838135,-0.8288574,0.48291016
1725700001509,2024-09-07T09:06:41.509Z,210783,-0.2788086,-0.8196411,0.47369385
1725700001554,2024-09-07T09:06:41.554Z,210828,-0.26617432,-0.8305664,0.44854736
1725700001599,2024-09-07T09:06:41.599Z,210873,-0.26885986,-0.83514404,0.4613037
1725700001647,2024-09-07T09:06:41.647Z,210921,-0.25543213,-0.8369751,0.479187
1725700001689,2024-09-07T09:06:41.689Z,210963,-0.26519775,-0.83984375,0.47210693
1725700001735,2024-09-07T09:06:41.735Z,211009,-0.25201416,-0.8422241,0.4781494
1725700001782,2024-09-07T09:06:41.782Z,211056,-0.25946045,-0.84552,0.4630127
1725700001822,2024-09-07T09:06:41.822Z,211096,-0.23583984,-0.83392334,0.47253418
1725700001843,2024-09-07T09:06:41.843Z,211117,-0.22961426,-0.8231201,0.48199463
1725700001866,2024-09-07T09:06:41.866Z,211140,-0.21044922,-0.8288574,0.4951172
1725700001912,2024-09-07T09:06:41.912Z,211186,-0.21258545,-0.83374023,0.51501465
1725700001960,2024-09-07T09:06:41.960Z,211234,-0.2109375,-0.8408203,0.5118408
1725700002006,2024-09-07T09:06:42.006Z,211280,-0.2175293,-0.8498535,0.49768066
1725700002054,2024-09-07T09:06:42.054Z,211328,-0.21185303,-0.8602905,0.49908447
1725700002097,2024-09-07T09:06:42.097Z,211371,-0.2244873,-0.8997803,0.50787354
1725700002138,2024-09-07T09:06:42.138Z,211412,-0.22821045,-0.94226074,0.5339966
1725700002183,2024-09-07T09:06:42.183Z,211457,-0.24835205,-0.98968506,0.5584717
1725700002229,2024-09-07T09:06:42.229Z,211503,-0.26037598,-1.0142212,0.58380127
1725700002274,2024-09-07T09:06:42.274Z,211548,-0.28851318,-1.0108643,0.56781006
1725700002294,2024-09-07T09:06:42.294Z,211568,-0.30267334,-0.9852905,0.5673218
1725700002316,2024-09-07T09:06:42.316Z,211590,-0.31555176,-0.93548584,0.55010986
1725700002362,2024-09-07T09:06:42.362Z,211636,-0.32336426,-0.8977661,0.56695557
1725700002410,2024-09-07T09:06:42.410Z,211684,-0.32141113,-0.87323,0.58599854
1725700002456,2024-09-07T09:06:42.456Z,211730,-0.2947998,-0.883667,0.5515747
1725700002499,2024-09-07T09:06:42.499Z,211773,-0.27178955,-0.8809204,0.5628052
1725700002543,2024-09-07T09:06:42.543Z,211817,-0.24285889,-0.8535156,0.5404053
1725700002595,2024-09-07T09:06:42.595Z,211869,-0.21026611,-0.8284912,0.53289795
1725700002632,2024-09-07T09:06:42.632Z,211906,-0.1921997,-0.81481934,0.51312256
1725700002681,2024-09-07T09:06:42.681Z,211955,-0.15985107,-0.8479614,0.48858643
1725700002700,2024-09-07T09:06:42.700Z,211974,-0.21044922,-0.89349365,0.49121094
1725700002721,2024-09-07T09:06:42.721Z,211995,-0.2253418,-0.9336548,0.48095703
1725700002767,2024-09-07T09:06:42.767Z,212041,-0.23883057,-0.92303467,0.46923828
1725700002817,2024-09-07T09:06:42.817Z,212091,-0.246521,-0.89501953,0.44885254
1725700002860,2024-09-07T09:06:42.860Z,212134,-0.21594238,-0.8961792,0.46929932
1725700002906,2024-09-07T09:06:42.906Z,212180,-0.21734619,-0.8656616,0.5091553
1725700002952,2024-09-07T09:06:42.952Z,212226,-0.24206543,-0.8413086,0.49505615
1725700002993,2024-09-07T09:06:42.993Z,212267,-0.21972656,-0.8378296,0.4598999
1725700003039,2024-09-07T09:06:43.039Z,212313,-0.22302246,-0.82244873,0.44403076
1725700003085,2024-09-07T09:06:43.085Z,212359,-0.20379639,-0.77856445,0.4650879
1725700003113,2024-09-07T09:06:43.113Z,212387,-0.21917725,-0.7416382,0.45941162
1725700003137,2024-09-07T09:06:43.137Z,212411,-0.18579102,-0.7243042,0.4208374
1725700003170,2024-09-07T09:06:43.170Z,212444,-0.18701172,-0.6758423,0.38806152
1725700003221,2024-09-07T09:06:43.221Z,212495,-0.125,-0.6395874,0.32080078
1725700003260,2024-09-07T09:06:43.260Z,212534,-0.10101318,-0.6511841,0.39300537
1725700003306,2024-09-07T09:06:43.306Z,212580,-0.16381836,-0.68048096,0.3824463
1725700003356,2024-09-07T09:06:43.356Z,212630,-0.16741943,-0.68859863,0.38079834
1725700003398,2024-09-07T09:06:43.398Z,212672,-0.17608643,-0.72576904,0.31921387
1725700003444,2024-09-07T09:06:43.444Z,212718,-0.18200684,-0.7318115,0.29241943
1725700003490,2024-09-07T09:06:43.490Z,212764,-0.18408203,-0.7491455,0.32000732
1725700003535,2024-09-07T09:06:43.535Z,212809,-0.19689941,-0.7896118,0.3456421
1725700003556,2024-09-07T09:06:43.556Z,212830,-0.20062256,-0.8187256,0.35681152
1725700003579,2024-09-07T09:06:43.579Z,212853,-0.22216797,-0.8574219,0.33068848
1725700003623,2024-09-07T09:06:43.623Z,212897,-0.23065186,-0.868042,0.35791016
1725700003668,2024-09-07T09:06:43.668Z,212942,-0.25457764,-0.8717041,0.39019775
1725700003715,2024-09-07T09:06:43.715Z,212989,-0.27825928,-0.88623047,0.3908081
1725700003757,2024-09-07T09:06:43.757Z,213031,-0.26171875,-0.8796387,0.39154053
1725700003805,2024-09-07T09:06:43.805Z,213079,-0.25335693,-0.8600464,0.4052124
1725700003844,2024-09-07T09:06:43.844Z,213118,-0.24243164,-0.8475342,0.4179077
1725700003889,2024-09-07T09:06:43.889Z,213163,-0.24493408,-0.845459,0.4230957
1725700003935,2024-09-07T09:06:43.935Z,213209,-0.25109863,-0.848938,0.4100952
1725700003978,2024-09-07T09:06:43.978Z,213252,-0.24938965,-0.84246826,0.41882324
1725700003986,2024-09-07T09:06:43.986Z,213260,-0.24438477,-0.83026123,0.42297363
