Timestamp (ms),ISO DateTime,Elapsed Time (ms),Acceleration X,Acceleration Y,Acceleration Z
1725700085343,2024-09-07T09:08:05.343Z,32959,-0.15527344,-0.9078369,0.19848633
1725700085355,2024-09-07T09:08:05.355Z,32971,-0.14904785,-0.878479,0.20056152
1725700085383,2024-09-07T09:08:05.383Z,32999,-0.1519165,-0.8150635,0.20874023
1725700085428,2024-09-07T09:08:05.428Z,33044,-0.101257324,-0.76190186,0.20458984
1725700085472,2024-09-07T09:08:05.472Z,33088,-0.10046387,-0.7288208,0.20996094
1725700085518,2024-09-07T09:08:05.518Z,33134,-0.12347412,-0.7015991,0.19671631
1725700085563,2024-09-07T09:08:05.563Z,33179,-0.14459229,-0.73114014,0.15014648
1725700085613,2024-09-07T09:08:05.613Z,33229,-0.17004395,-0.7719116,0.17315674
1725700085658,2024-09-07T09:08:05.658Z,33274,-0.2263794,-0.8097534,0.15722656
1725700085705,2024-09-07T09:08:05.705Z,33321,-0.2230835,-0.81329346,0.13885498
1725700085750,2024-09-07T09:08:05.750Z,33366,-0.20599365,-0.85491943,0.10864258
1725700085772,2024-09-07T09:08:05.772Z,33388,-0.20025635,-0.8969116,0.19110107
1725700085792,2024-09-07T09:08:05.792Z,33408,-0.12908936,-0.940979,0.2020874
1725700085839,2024-09-07T09:08:05.839Z,33455,-0.101623535,-0.9343872,0.22235107
1725700085884,2024-09-07T09:08:05.884Z,33500,-0.097595215,-0.9136963,0.2467041
1725700085933,2024-09-07T09:08:05.933Z,33549,-0.11468506,-0.9067993,0.25958252
1725700085974,2024-09-07T09:08:05.974Z,33590,-0.14355469,-0.935791,0.27685547
1725700086020,2024-09-07T09:08:06.020Z,33636,-0.20318604,-0.97540283,0.28710938
1725700086065,2024-09-07T09:08:06.065Z,33681,-0.2053833,-0.9794922,0.31573486
1725700086108,2024-09-07T09:08:06.108Z,33724,-0.21038818,-0.9880371,0.27508545
1725700086153,2024-09-07T09:08:06.153Z,33769,-0.23132324,-1.0058594,0.28167725
1725700086198,2024-09-07T09:08:06.198Z,33814,-0.23461914,-1.0500488,0.31671143
1725700086218,2024-09-07T09:08:06.218Z,33834,-0.26428223,-1.0640259,0.36547852
1725700086241,2024-09-07T09:08:06.241Z,33857,-0.31097412,-1.0790405,0.2939453
1725700086287,2024-09-07T09:08:06.287Z,33903,-0.29907227,-1.0129395,0.3708496
1725700086335,2024-09-07T09:08:06.335Z,33951,-0.2581787,-0.9451904,0.36340332
1725700086378,2024-09-07T09:08:06.378Z,33994,-0.2121582,-0.880249,0.33825684
1725700086428,2024-09-07T09:08:06.428Z,34044,-0.2409668,-0.9029541,0.33746338
1725700086473,2024-09-07T09:08:06.473Z,34089,-0.2744751,-0.93865967,0.3614502
1725700086514,2024-09-07T09:08:06.514Z,34130,-0.30596924,-0.94744873,0.38104248
1725700086561,2024-09-07T09:08:06.561Z,34177,-0.2906494,-0.9450073,0.33709717
1725700086604,2024-09-07T09:08:06.604Z,34220,-0.3164673,-0.95233154,0.30871582
1725700086623,2024-09-07T09:08:06.623Z,34239,-0.32885742,-0.9537964,0.33465576
1725700086646,2024-09-07T09:08:06.646Z,34262,-0.32556152,-0.94836426,0.28356934
1725700086696,2024-09-07T09:08:06.696Z,34312,-0.3071289,-0.9309082,0.28515625
1725700086740,2024-09-07T09:08:06.740Z,34356,-0.33441162,-0.9393921,0.28466797
1725700086789,2024-09-07T09:08:06.789Z,34405,-0.3131714,-0.9359741,0.28375244
1725700086848,2024-09-07T09:08:06.848Z,34464,-0.3116455,-0.9534302,0.27386475
1725700086871,2024-09-07T09:08:06.871Z,34487,-0.3022461,-0.97058105,0.2868042
1725700086917,2024-09-07T09:08:06.917Z,34533,-0.28460693,-0.9716797,0.30029297
1725700086963,2024-09-07T09:08:06.963Z,34579,-0.26385498,-0.95648193,0.28546143
1725700087007,2024-09-07T09:08:07.007Z,34623,-0.23736572,-0.9355469,0.28533936
1725700087024,2024-09-07T09:08:07.024Z,34640,-0.2713623,-0.94433594,0.28710938
1725700087052,2024-09-07T09:08:07.052Z,34668,-0.2442627,-0.9345093,0.29718018
1725700087097,2024-09-07T09:08:07.097Z,34713,-0.27044678,-0.94415283,0.3242798
1725700087145,2024-09-07T09:08:07.145Z,34761,-0.2623291,-0.9317627,0.34448242
1725700087192,2024-09-07T09:08:07.192Z,34808,-0.29003906,-0.9248657,0.35766602
1725700087233,2024-09-07T09:08:07.233Z,34849,-0.29473877,-0.9078369,0.31762695
1725700087279,2024-09-07T09:08:07.279Z,34895,-0.31555176,-0.88952637,0.3293457
1725700087324,2024-09-07T09:08:07.324Z,34940,-0.32824707,-0.8829346,0.31219482
1725700087371,2024-09-07T09:08:07.371Z,34987,-0.30377197,-0.8736572,0.30914307
1725700087415,2024-09-07T09:08:07.415Z,35031,-0.28900146,-0.8710327,0.31274414
1725700087460,2024-09-07T09:08:07.460Z,35076,-0.2658081,-0.87109375,0.33392334
1725700087482,2024-09-07T09:08:07.482Z,35098,-0.24914551,-0.8734131,0.33007812
1725700087502,2024-09-07T09:08:07.502Z,35118,-0.24133301,-0.8765259,0.3366089
1725700087546,2024-09-07T09:08:07.546Z,35162,-0.26660156,-0.88067627,0.36212158
1725700087593,2024-09-07T09:08:07.593Z,35209,-0.24511719,-0.87927246,0.33294678
1725700087638,2024-09-07T09:08:07.638Z,35254,-0.2662964,-0.8989258,0.3428955
1725700087683,2024-09-07T09:08:07.683Z,35299,-0.2756958,-0.9456177,0.35534668
1725700087728,2024-09-07T09:08:07.728Z,35344,-0.31347656,-1.0,0.39764404
1725700087775,2024-09-07T09:08:07.775Z,35391,-0.29205322,-1.0584106,0.39959717
1725700087817,2024-09-07T09:08:07.817Z,35433,-0.29296875,-1.0708618,0.40423584
1725700087865,2024-09-07T09:08:07.865Z,35481,-0.284729,-1.0800171,0.3548584
1725700087885,2024-09-07T09:08:07.885Z,35501,-0.34490967,-1.0881958,0.4171753
1725700087907,2024-09-07T09:08:07.907Z,35523,-0.35083008,-1.0778198,0.38580322
1725700087953,2024-09-07T09:08:07.953Z,35569,-0.32391357,-1.0118408,0.39935303
1725700087998,2024-09-07T09:08:07.998Z,35614,-0.28320312,-0.97247314,0.3890381
1725700088042,2024-09-07T09:08:08.042Z,35658,-0.27972412,-0.94384766,0.39709473
1725700088089,2024-09-07T09:08:08.089Z,35705,-0.24090576,-0.92108154,0.36871338
1725700088133,2024-09-07T09:08:08.133Z,35749,-0.222229,-0.90167236,0.34417725
1725700088179,2024-09-07T09:08:08.179Z,35795,-0.18670654,-0.8983154,0.29174805
1725700088224,2024-09-07T09:08:08.224Z,35840,-0.20214844,-0.9194336,0.36889648
1725700088269,2024-09-07T09:08:08.269Z,35885,-0.19494629,-0.9657593,0.30517578
1725700088290,2024-09-07T09:08:08.290Z,35906,-0.20440674,-0.97491455,0.32403564
1725700088313,2024-09-07T09:08:08.313Z,35929,-0.2154541,-0.9810791,0.300354
1725700088356,2024-09-07T09:08:08.356Z,35972,-0.21887207,-0.9595947,0.34240723
1725700088401,2024-09-07T09:08:08.401Z,36017,-0.22058105,-0.95770264,0.32092285
1725700088448,2024-09-07T09:08:08.448Z,36064,-0.23144531,-0.9034424,0.2805786
1725700088495,2024-09-07T09:08:08.495Z,36111,-0.21221924,-0.8727417,0.24975586
1725700088539,2024-09-07T09:08:08.539Z,36155,-0.23413086,-0.8469238,0.27697754
1725700088582,2024-09-07T09:08:08.582Z,36198,-0.2662964,-0.8762207,0.2783203
1725700088632,2024-09-07T09:08:08.632Z,36248,-0.31036377,-0.8886719,0.2921753
1725700088673,2024-09-07T09:08:08.673Z,36289,-0.3125,-0.91485596,0.2388916
1725700088765,2024-09-07T09:08:08.765Z,36381,-0.3272705,-0.90875244,0.2611084
1725700088787,2024-09-07T09:08:08.787Z,36403,-0.3076172,-0.8989868,0.25628662
1725700088804,2024-09-07T09:08:08.804Z,36420,-0.277771,-0.8779297,0.27581787
1725700088818,2024-09-07T09:08:08.818Z,36434,-0.2697754,-0.85913086,0.25280762
1725700088850,2024-09-07T09:08:08.850Z,36466,-0.2475586,-0.82543945,0.25708008
1725700088898,2024-09-07T09:08:08.898Z,36514,-0.25079346,-0.82733154,0.24987793
1725700088946,2024-09-07T09:08:08.946Z,36562,-0.2331543,-0.81903076,0.29162598
1725700088988,2024-09-07T09:08:08.988Z,36604,-0.22961426,-0.7809448,0.28649902
1725700089033,2024-09-07T09:08:09.033Z,36649,-0.17053223,-0.74676514,0.23327637
1725700089080,2024-09-07T09:08:09.080Z,36696,-0.1640625,-0.7397461,0.25549316
1725700089122,2024-09-07T09:08:09.122Z,36738,-0.19482422,-0.7103882,0.274292
1725700089143,2024-09-07T09:08:09.143Z,36759,-0.1932373,-0.6721802,0.21606445
1725700089165,2024-09-07T09:08:09.165Z,36781,-0.18218994,-0.6989136,0.17614746
1725700089212,2024-09-07T09:08:09.212Z,36828,-0.26141357,-0.7902832,0.16564941
1725700089259,2024-09-07T09:08:09.259Z,36875,-0.32183838,-0.868103,0.20178223
1725700089304,2024-09-07T09:08:09.304Z,36920,-0.32757568,-0.91192627,0.18914795
1725700089351,2024-09-07T09:08:09.351Z,36967,-0.3725586,-0.9257202,0.19091797
1725700089393,2024-09-07T09:08:09.393Z,37009,-0.35791016,-0.9428711,0.1973877
1725700089440,2024-09-07T09:08:09.440Z,37056,-0.36694336,-0.9194946,0.22790527
1725700089484,2024-09-07T09:08:09.484Z,37100,-0.3675537,-0.9209595,0.2109375
1725700089527,2024-09-07T09:08:09.527Z,37143,-0.3605957,-0.9133301,0.2109375
1725700089545,2024-09-07T09:08:09.545Z,37161,-0.36846924,-0.916626,0.21173096
1725700089569,2024-09-07T09:08:09.569Z,37185,-0.38012695,-0.9041748,0.20202637
1725700089613,2024-09-07T09:08:09.613Z,37229,-0.35632324,-0.90948486,0.19677734
1725700089664,2024-09-07T09:08:09.664Z,37280,-0.3805542,-0.91619873,0.19677734
1725700089712,2024-09-07T09:08:09.712Z,37328,-0.38000488,-0.9025879,0.18243408
1725700089754,2024-09-07T09:08:09.754Z,37370,-0.38391113,-0.90093994,0.15826416
1725700089845,2024-09-07T09:08:09.845Z,37461,-0.3793335,-0.897522,0.14520264
1725700089866,2024-09-07T09:08:09.866Z,37482,-0.3546753,-0.89715576,0.15252686
1725700089886,2024-09-07T09:08:09.886Z,37502,-0.3428955,-0.87908936,0.20404053
1725700089931,2024-09-07T09:08:09.931Z,37547,-0.36187744,-0.91363525,0.16711426
1725700089981,2024-09-07T09:08:09.981Z,37597,-0.35699463,-0.9022217,0.17053223
1725700089998,2024-09-07T09:08:09.998Z,37614,-0.38220215,-0.8980713,0.15991211
1725700090019,2024-09-07T09:08:10.019Z,37635,-0.37017822,-0.8670044,0.16168213
1725700090072,2024-09-07T09:08:10.072Z,37688,-0.35253906,-0.8052368,0.16448975
1725700090114,2024-09-07T09:08:10.114Z,37730,-0.2774048,-0.76123047,0.14111328
1725700090157,2024-09-07T09:08:10.157Z,37773,-0.27124023,-0.7665405,0.16741943
1725700090203,2024-09-07T09:08:10.203Z,37819,-0.30871582,-0.7858887,0.17614746
1725700090251,2024-09-07T09:08:10.251Z,37867,-0.32250977,-0.78796387,0.17266846
1725700090299,2024-09-07T09:08:10.299Z,37915,-0.3118286,-0.75079346,0.16418457
1725700090344,2024-09-07T09:08:10.344Z,37960,-0.2709961,-0.7313843,0.1461792
1725700090388,2024-09-07T09:08:10.388Z,38004,-0.28399658,-0.72875977,0.16253662
1725700090411,2024-09-07T09:08:10.411Z,38027,-0.26379395,-0.7819824,0.18310547
1725700090432,2024-09-07T09:08:10.432Z,38048,-0.317688,-0.86553955,0.22662354
1725700090473,2024-09-07T09:08:10.473Z,38089,-0.36602783,-0.9191284,0.16467285
1725700090572,2024-09-07T09:08:10.572Z,38188,-0.35028076,-0.9014282,0.20965576
1725700090594,2024-09-07T09:08:10.594Z,38210,-0.36590576,-0.8310547,0.2477417
1725700090654,2024-09-07T09:08:10.654Z,38270,-0.30340576,-0.7716675,0.18164062
1725700090674,2024-09-07T09:08:10.674Z,38290,-0.2697754,-0.7705078,0.18408203
1725700090698,2024-09-07T09:08:10.698Z,38314,-0.26385498,-0.8161621,0.25634766
1725700090742,2024-09-07T09:08:10.742Z,38358,-0.3026123,-0.88983154,0.24139404
1725700090790,2024-09-07T09:08:10.790Z,38406,-0.34960938,-0.9616699,0.19390869
1725700090810,2024-09-07T09:08:10.810Z,38426,-0.37097168,-1.0062256,0.22003174
1725700090830,2024-09-07T09:08:10.830Z,38446,-0.3470459,-1.0211182,0.26879883
1725700090877,2024-09-07T09:08:10.877Z,38493,-0.26898193,-0.9971924,0.3397827
1725700090972,2024-09-07T09:08:10.972Z,38588,-0.2614746,-0.9674072,0.32965088
1725700090992,2024-09-07T09:08:10.992Z,38608,-0.27233887,-0.9533081,0.3171997
1725700091011,2024-09-07T09:08:11.011Z,38627,-0.2543335,-0.987854,0.31939697
1725700091060,2024-09-07T09:08:11.060Z,38676,-0.29156494,-0.9996338,0.3036499
1725700091104,2024-09-07T09:08:11.104Z,38720,-0.3201294,-0.98583984,0.35614014
1725700091150,2024-09-07T09:08:11.150Z,38766,-0.33581543,-0.9932251,0.29663086
1725700091196,2024-09-07T09:08:11.196Z,38812,-0.33129883,-0.9694214,0.29016113
1725700091243,2024-09-07T09:08:11.243Z,38859,-0.34820557,-0.9611206,0.27416992
1725700091269,2024-09-07T09:08:11.269Z,38885,-0.33459473,-0.9735718,0.3065796
1725700091292,2024-09-07T09:08:11.292Z,38908,-0.3121338,-0.97540283,0.24291992
1725700091324,2024-09-07T09:08:11.324Z,38940,-0.2939453,-0.9649658,0.23297119
1725700091374,2024-09-07T09:08:11.374Z,38990,-0.3203125,-0.9532471,0.24438477
1725700091418,2024-09-07T09:08:11.418Z,39034,-0.30413818,-0.9581909,0.2699585
1725700091466,2024-09-07T09:08:11.466Z,39082,-0.3163452,-0.9368286,0.28027344
1725700091508,2024-09-07T09:08:11.508Z,39124,-0.2977295,-0.92126465,0.29022217
1725700091554,2024-09-07T09:08:11.554Z,39170,-0.30584717,-0.93304443,0.3001709
1725700091599,2024-09-07T09:08:11.599Z,39215,-0.3036499,-0.91326904,0.37530518
1725700091644,2024-09-07T09:08:11.644Z,39260,-0.30108643,-0.91967773,0.29382324
1725700091661,2024-09-07T09:08:11.661Z,39277,-0.37493896,-0.95703125,0.28979492
1725700091687,2024-09-07T09:08:11.687Z,39303,-0.35858154,-0.94140625,0.32574463
1725700091735,2024-09-07T09:08:11.735Z,39351,-0.35565186,-0.9100952,0.32885742
1725700091778,2024-09-07T09:08:11.778Z,39394,-0.3338623,-0.89819336,0.2783203
1725700091826,2024-09-07T09:08:11.826Z,39442,-0.3421631,-0.9116211,0.26794434
1725700091872,2024-09-07T09:08:11.872Z,39488,-0.36029053,-0.92303467,0.317688
1725700091918,2024-09-07T09:08:11.918Z,39534,-0.35882568,-0.9324951,0.34765625
1725700091961,2024-09-07T09:08:11.961Z,39577,-0.32452393,-0.9156494,0.3161621
1725700092004,2024-09-07T09:08:12.004Z,39620,-0.28808594,-0.9020386,0.2883911
1725700092049,2024-09-07T09:08:12.049Z,39665,-0.3340454,-0.88897705,0.3338623
1725700092067,2024-09-07T09:08:12.067Z,39683,-0.35113525,-0.883728,0.3157959
1725700092090,2024-09-07T09:08:12.090Z,39706,-0.34747314,-0.8840332,0.27398682
1725700092136,2024-09-07T09:08:12.136Z,39752,-0.37493896,-0.89819336,0.32995605
1725700092184,2024-09-07T09:08:12.184Z,39800,-0.32403564,-0.88952637,0.355896
1725700092230,2024-09-07T09:08:12.230Z,39846,-0.26208496,-0.87579346,0.33502197
1725700092273,2024-09-07T09:08:12.273Z,39889,-0.25445557,-0.8668213,0.36212158
1725700092319,2024-09-07T09:08:12.319Z,39935,-0.26409912,-0.88464355,0.36431885
1725700092365,2024-09-07T09:08:12.365Z,39981,-0.26922607,-0.907959,0.3345337
1725700092410,2024-09-07T09:08:12.410Z,40026,-0.29742432,-0.939209,0.34887695
1725700092456,2024-09-07T09:08:12.456Z,40072,-0.31072998,-0.9711304,0.3511963
1725700092504,2024-09-07T09:08:12.504Z,40120,-0.31878662,-0.98742676,0.350708
1725700092529,2024-09-07T09:08:12.529Z,40145,-0.31817627,-1.0142212,0.33624268
1725700092550,2024-09-07T09:08:12.550Z,40166,-0.34197998,-1.0487671,0.39074707
1725700092588,2024-09-07T09:08:12.588Z,40204,-0.34838867,-1.053772,0.36206055
1725700092632,2024-09-07T09:08:12.632Z,40248,-0.3618164,-1.041748,0.3135376
1725700092681,2024-09-07T09:08:12.681Z,40297,-0.38775635,-1.0233765,0.37329102
1725700092726,2024-09-07T09:08:12.726Z,40342,-0.40344238,-1.0205078,0.34594727
1725700092767,2024-09-07T09:08:12.767Z,40383,-0.36102295,-1.0046387,0.36535645
1725700092813,2024-09-07T09:08:12.813Z,40429,-0.34448242,-0.9770508,0.36584473
1725700092860,2024-09-07T09:08:12.860Z,40476,-0.2970581,-0.9260254,0.3538208
1725700092904,2024-09-07T09:08:12.904Z,40520,-0.2409668,-0.87805176,0.34405518
1725700092924,2024-09-07T09:08:12.924Z,40540,-0.25616455,-0.9086914,0.36914062
1725700092949,2024-09-07T09:08:12.949Z,40565,-0.24993896,-0.94470215,0.37823486
1725700092993,2024-09-07T09:08:12.993Z,40609,-0.28179932,-0.97491455,0.27978516
1725700093040,2024-09-07T09:08:13.040Z,40656,-0.28997803,-0.93426514,0.31884766
1725700093082,2024-09-07T09:08:13.082Z,40698,-0.2508545,-0.94122314,0.286438
1725700093132,2024-09-07T09:08:13.132Z,40748,-0.28741455,-0.94421387,0.26312256
1725700093184,2024-09-07T09:08:13.184Z,40800,-0.2915039,-0.9517212,0.25830078
1725700093231,2024-09-07T09:08:13.231Z,40847,-0.322937,-0.94940186,0.28790283
1725700093262,2024-09-07T09:08:13.262Z,40878,-0.25732422,-0.92681885,0.24163818
1725700093308,2024-09-07T09:08:13.308Z,40924,-0.28637695,-0.87158203,0.34539795
1725700093328,2024-09-07T09:08:13.328Z,40944,-0.29351807,-0.8755493,0.29016113
1725700093401,2024-09-07T09:08:13.401Z,41017,-0.31555176,-0.8845215,0.2921753
1725700093422,2024-09-07T09:08:13.422Z,41038,-0.3890381,-0.8852539,0.30041504
1725700093443,2024-09-07T09:08:13.443Z,41059,-0.34674072,-0.86328125,0.26934814
1725700093487,2024-09-07T09:08:13.487Z,41103,-0.36889648,-0.80773926,0.30371094
1725700093533,2024-09-07T09:08:13.533Z,41149,-0.3206787,-0.79174805,0.26257324
1725700093582,2024-09-07T09:08:13.582Z,41198,-0.27044678,-0.8065796,0.2723999
1725700093625,2024-09-07T09:08:13.625Z,41241,-0.2949829,-0.7792969,0.29675293
1725700093670,2024-09-07T09:08:13.670Z,41286,-0.24884033,-0.75042725,0.22717285
1725700093713,2024-09-07T09:08:13.713Z,41329,-0.24279785,-0.7025757,0.24377441
1725700093759,2024-09-07T09:08:13.759Z,41375,-0.21917725,-0.6342163,0.24304199
1725700093781,2024-09-07T09:08:13.781Z,41397,-0.24542236,-0.6352539,0.1585083
1725700093799,2024-09-07T09:08:13.799Z,41415,-0.26904297,-0.66192627,0.17773438
1725700093845,2024-09-07T09:08:13.845Z,41461,-0.33233643,-0.7379761,0.15307617
1725700093896,2024-09-07T09:08:13.896Z,41512,-0.4025879,-0.788147,0.14483643
1725700093941,2024-09-07T09:08:13.941Z,41557,-0.44421387,-0.8612671,0.12841797
1725700093986,2024-09-07T09:08:13.986Z,41602,-0.41052246,-0.87945557,0.15301514
1725700094029,2024-09-07T09:08:14.029Z,41645,-0.40216064,-0.87420654,0.18005371
1725700094074,2024-09-07T09:08:14.074Z,41690,-0.37597656,-0.9048462,0.15386963
1725700094117,2024-09-07T09:08:14.117Z,41733,-0.3920288,-0.92822266,0.18725586
1725700094165,2024-09-07T09:08:14.165Z,41781,-0.43450928,-0.9445801,0.2088623
1725700094186,2024-09-07T09:08:14.186Z,41802,-0.42913818,-0.93536377,0.1628418
1725700094208,2024-09-07T09:08:14.208Z,41824,-0.42687988,-0.8994751,0.18817139
1725700094253,2024-09-07T09:08:14.253Z,41869,-0.41778564,-0.8743286,0.1895752
1725700094298,2024-09-07T09:08:14.298Z,41914,-0.39801025,-0.8484497,0.19573975
1725700094344,2024-09-07T09:08:14.344Z,41960,-0.3875122,-0.8428955,0.19256592
1725700094389,2024-09-07T09:08:14.389Z,42005,-0.38555908,-0.862854,0.19897461
1725700094438,2024-09-07T09:08:14.438Z,42054,-0.42077637,-0.8841553,0.19012451
1725700094480,2024-09-07T09:08:14.480Z,42096,-0.40344238,-0.8921509,0.20098877
1725700094524,2024-09-07T09:08:14.524Z,42140,-0.41430664,-0.87786865,0.2140503
1725700094571,2024-09-07T09:08:14.571Z,42187,-0.39050293,-0.8800049,0.20996094
1725700094597,2024-09-07T09:08:14.597Z,42213,-0.3873291,-0.87060547,0.1998291
1725700094620,2024-09-07T09:08:14.620Z,42236,-0.38781738,-0.87957764,0.20147705
1725700094655,2024-09-07T09:08:14.655Z,42271,-0.37994385,-0.86486816,0.22192383
1725700094703,2024-09-07T09:08:14.703Z,42319,-0.37219238,-0.83795166,0.20843506
1725700094750,2024-09-07T09:08:14.750Z,42366,-0.3123169,-0.7953491,0.18548584
1725700094797,2024-09-07T09:08:14.797Z,42413,-0.29510498,-0.7770386,0.20574951
1725700094849,2024-09-07T09:08:14.849Z,42465,-0.3098755,-0.7815552,0.22479248
1725700094884,2024-09-07T09:08:14.884Z,42500,-0.27868652,-0.79089355,0.24725342
1725700094928,2024-09-07T09:08:14.928Z,42544,-0.3312378,-0.78045654,0.21661377
1725700094973,2024-09-07T09:08:14.973Z,42589,-0.2866211,-0.7802124,0.22393799
1725700095019,2024-09-07T09:08:15.019Z,42635,-0.31939697,-0.75390625,0.20733643
1725700095042,2024-09-07T09:08:15.042Z,42658,-0.27148438,-0.7369995,0.1973877
1725700095064,2024-09-07T09:08:15.064Z,42680,-0.25457764,-0.7532959,0.24328613
1725700095108,2024-09-07T09:08:15.108Z,42724,-0.2925415,-0.7711792,0.23828125
1725700095153,2024-09-07T09:08:15.153Z,42769,-0.28686523,-0.8274536,0.20196533
1725700095201,2024-09-07T09:08:15.201Z,42817,-0.37634277,-0.9077759,0.2564087
1725700095244,2024-09-07T09:08:15.244Z,42860,-0.43017578,-0.9194946,0.27893066
1725700095290,2024-09-07T09:08:15.290Z,42906,-0.37677002,-0.8399658,0.24505615
1725700095334,2024-09-07T09:08:15.334Z,42950,-0.26696777,-0.8083496,0.26361084
1725700095378,2024-09-07T09:08:15.378Z,42994,-0.24310303,-0.8321533,0.3057251
1725700095423,2024-09-07T09:08:15.423Z,43039,-0.25634766,-0.85858154,0.3236084
1725700095446,2024-09-07T09:08:15.446Z,43062,-0.30133057,-0.8981323,0.32836914
1725700095468,2024-09-07T09:08:15.468Z,43084,-0.33441162,-0.8920288,0.34020996
1725700095513,2024-09-07T09:08:15.513Z,43129,-0.32269287,-0.86517334,0.29962158
1725700095561,2024-09-07T09:08:15.561Z,43177,-0.28741455,-0.8779297,0.3383789
1725700095602,2024-09-07T09:08:15.602Z,43218,-0.3140869,-0.92352295,0.3661499
1725700095651,2024-09-07T09:08:15.651Z,43267,-0.2722168,-0.98773193,0.33618164
1725700095694,2024-09-07T09:08:15.694Z,43310,-0.24456787,-0.9887085,0.36663818
1725700095737,2024-09-07T09:08:15.737Z,43353,-0.25671387,-0.98187256,0.4119873
1725700095784,2024-09-07T09:08:15.784Z,43400,-0.28033447,-0.9847412,0.3772583
1725700095833,2024-09-07T09:08:15.833Z,43449,-0.2802124,-0.9654541,0.39074707
1725700095854,2024-09-07T09:08:15.854Z,43470,-0.29333496,-0.8850708,0.37261963
1725700095873,2024-09-07T09:08:15.873Z,43489,-0.28875732,-0.864563,0.3805542
1725700095918,2024-09-07T09:08:15.918Z,43534,-0.24932861,-0.9059448,0.3883667
1725700095963,2024-09-07T09:08:15.963Z,43579,-0.2711792,-0.9614868,0.45684814
1725700096012,2024-09-07T09:08:16.012Z,43628,-0.26489258,-1.0206909,0.4411621
1725700096053,2024-09-07T09:08:16.053Z,43669,-0.3250122,-1.03125,0.44232178
1725700096102,2024-09-07T09:08:16.102Z,43718,-0.28179932,-0.979126,0.40942383
1725700096142,2024-09-07T09:08:16.142Z,43758,-0.32232666,-0.8892212,0.4477539
1725700096189,2024-09-07T09:08:16.189Z,43805,-0.2711792,-0.83483887,0.4072876
1725700096235,2024-09-07T09:08:16.235Z,43851,-0.2892456,-0.81451416,0.40325928
1725700096279,2024-09-07T09:08:16.279Z,43895,-0.27319336,-0.8422241,0.39196777
1725700096300,2024-09-07T09:08:16.300Z,43916,-0.29986572,-0.8757324,0.37756348
1725700096322,2024-09-07T09:08:16.322Z,43938,-0.29034424,-0.91522217,0.35491943
1725700096368,2024-09-07T09:08:16.368Z,43984,-0.32940674,-0.9326782,0.34173584
1725700096414,2024-09-07T09:08:16.414Z,44030,-0.34796143,-0.94714355,0.37286377
1725700096459,2024-09-07T09:08:16.459Z,44075,-0.33587646,-0.93927,0.37908936
1725700096506,2024-09-07T09:08:16.506Z,44122,-0.31530762,-0.9113159,0.40356445
1725700096554,2024-09-07T09:08:16.554Z,44170,-0.27520752,-0.90216064,0.3821411
1725700096597,2024-09-07T09:08:16.597Z,44213,-0.29125977,-0.9067383,0.385437
1725700096639,2024-09-07T09:08:16.639Z,44255,-0.2793579,-0.93237305,0.34899902
1725700096686,2024-09-07T09:08:16.686Z,44302,-0.29174805,-0.9375,0.34332275
1725700096710,2024-09-07T09:08:16.710Z,44326,-0.29083252,-0.91308594,0.33850098
1725700096731,2024-09-07T09:08:16.731Z,44347,-0.27642822,-0.87957764,0.3737793
1725700096773,2024-09-07T09:08:16.773Z,44389,-0.26397705,-0.8668823,0.35327148
1725700096819,2024-09-07T09:08:16.819Z,44435,-0.26416016,-0.86761475,0.36132812
1725700096865,2024-09-07T09:08:16.865Z,44481,-0.284729,-0.8856201,0.36120605
1725700096912,2024-09-07T09:08:16.912Z,44528,-0.28271484,-0.885437,0.38311768
1725700096958,2024-09-07T09:08:16.958Z,44574,-0.27679443,-0.8711548,0.35998535
1725700097000,2024-09-07T09:08:17Z,44616,-0.2611084,-0.87475586,0.36114502
1725700097045,2024-09-07T09:08:17.045Z,44661,-0.28930664,-0.87323,0.40576172
1725700097089,2024-09-07T09:08:17.089Z,44705,-0.27038574,-0.8751221,0.3756714
1725700097112,2024-09-07T09:08:17.112Z,44728,-0.2810669,-0.866333,0.40655518
1725700097129,2024-09-07T09:08:17.129Z,44745,-0.25830078,-0.8730469,0.40673828
1725700097174,2024-09-07T09:08:17.174Z,44790,-0.28173828,-0.87677,0.42443848
1725700097225,2024-09-07T09:08:17.225Z,44841,-0.26348877,-0.88604736,0.38153076
1725700097267,2024-09-07T09:08:17.267Z,44883,-0.26397705,-0.8795166,0.39630127
1725700097313,2024-09-07T09:08:17.313Z,44929,-0.25775146,-0.883728,0.35009766
1725700097361,2024-09-07T09:08:17.361Z,44977,-0.25915527,-0.90545654,0.3703003
1725700097404,2024-09-07T09:08:17.404Z,45020,-0.2852173,-0.9828491,0.40881348
1725700097450,2024-09-07T09:08:17.450Z,45066,-0.29516602,-1.0757446,0.41522217
1725700097495,2024-09-07T09:08:17.495Z,45111,-0.30462646,-1.1404419,0.42858887
1725700097542,2024-09-07T09:08:17.542Z,45158,-0.3357544,-1.1500244,0.45770264
1725700097560,2024-09-07T09:08:17.560Z,45176,-0.3991089,-1.1027832,0.5133667
1725700097580,2024-09-07T09:08:17.580Z,45196,-0.34991455,-1.0285645,0.46276855
1725700097623,2024-09-07T09:08:17.623Z,45239,-0.30944824,-0.90649414,0.5062866
1725700097677,2024-09-07T09:08:17.677Z,45293,-0.18408203,-0.81811523,0.506958
1725700097719,2024-09-07T09:08:17.719Z,45335,-0.24151611,-0.7570801,0.5001831
1725700097764,2024-09-07T09:08:17.764Z,45380,-0.21813965,-0.7966919,0.48254395
1725700097854,2024-09-07T09:08:17.854Z,45470,-0.33184814,-0.868042,0.5048218
1725700097876,2024-09-07T09:08:17.876Z,45492,-0.30004883,-0.9024048,0.42486572
1725700097898,2024-09-07T09:08:17.898Z,45514,-0.28356934,-0.87823486,0.38183594
1725700097941,2024-09-07T09:08:17.941Z,45557,-0.24029541,-0.91192627,0.42034912
1725700097958,2024-09-07T09:08:17.958Z,45574,-0.22088623,-0.92126465,0.41931152
1725700097985,2024-09-07T09:08:17.985Z,45601,-0.2043457,-0.94189453,0.40979004
1725700098033,2024-09-07T09:08:18.033Z,45649,-0.18585205,-0.93829346,0.39453125
1725700098081,2024-09-07T09:08:18.081Z,45697,-0.22052002,-0.9232788,0.4312744
1725700098125,2024-09-07T09:08:18.125Z,45741,-0.2722168,-0.92388916,0.41357422
1725700098170,2024-09-07T09:08:18.170Z,45786,-0.32226562,-0.90509033,0.3930664
1725700098216,2024-09-07T09:08:18.216Z,45832,-0.3189087,-0.88031006,0.36309814
1725700098258,2024-09-07T09:08:18.258Z,45874,-0.29553223,-0.85095215,0.37347412
1725700098305,2024-09-07T09:08:18.305Z,45921,-0.2538452,-0.80548096,0.39837646
1725700098349,2024-09-07T09:08:18.349Z,45965,-0.25805664,-0.7800293,0.38909912
1725700098369,2024-09-07T09:08:18.369Z,45985,-0.22857666,-0.782959,0.31274414
1725700098439,2024-09-07T09:08:18.439Z,46055,-0.23077393,-0.7843628,0.3491211
1725700098458,2024-09-07T09:08:18.458Z,46074,-0.20031738,-0.7393799,0.33892822
1725700098481,2024-09-07T09:08:18.481Z,46097,-0.18151855,-0.7079468,0.31799316
1725700098530,2024-09-07T09:08:18.530Z,46146,-0.18200684,-0.7069702,0.2775879
1725700098576,2024-09-07T09:08:18.576Z,46192,-0.16534424,-0.68084717,0.25891113
1725700098620,2024-09-07T09:08:18.620Z,46236,-0.18780518,-0.6934204,0.22851562
1725700098665,2024-09-07T09:08:18.665Z,46281,-0.20306396,-0.7401123,0.23864746
1725700098711,2024-09-07T09:08:18.711Z,46327,-0.2649536,-0.79907227,0.21575928
1725700098757,2024-09-07T09:08:18.757Z,46373,-0.30810547,-0.8461914,0.19244385
1725700098802,2024-09-07T09:08:18.802Z,46418,-0.3552246,-0.87506104,0.19494629
1725700098826,2024-09-07T09:08:18.826Z,46442,-0.35620117,-0.8623657,0.20770264
1725700098851,2024-09-07T09:08:18.851Z,46467,-0.30596924,-0.84588623,0.17999268
1725700098889,2024-09-07T09:08:18.889Z,46505,-0.30340576,-0.831604,0.237854
1725700098938,2024-09-07T09:08:18.938Z,46554,-0.34313965,-0.86364746,0.24102783
1725700098979,2024-09-07T09:08:18.979Z,46595,-0.36956787,-0.8912964,0.24804688
1725700099026,2024-09-07T09:08:19.026Z,46642,-0.38690186,-0.9015503,0.253479
1725700099073,2024-09-07T09:08:19.073Z,46689,-0.41278076,-0.89001465,0.32183838
1725700099115,2024-09-07T09:08:19.115Z,46731,-0.37384033,-0.8843384,0.2652588
1725700099160,2024-09-07T09:08:19.160Z,46776,-0.36187744,-0.8552246,0.27166748
1725700099205,2024-09-07T09:08:19.205Z,46821,-0.3774414,-0.8835449,0.26678467
1725700099226,2024-09-07T09:08:19.226Z,46842,-0.39849854,-0.8855591,0.28375244
1725700099296,2024-09-07T09:08:19.296Z,46912,-0.3527832,-0.866333,0.2623291
1725700099316,2024-09-07T09:08:19.316Z,46932,-0.34283447,-0.8557129,0.26141357
1725700099342,2024-09-07T09:08:19.342Z,46958,-0.3875122,-0.88238525,0.26385498
1725700099384,2024-09-07T09:08:19.384Z,47000,-0.38476562,-0.89282227,0.2692871
1725700099427,2024-09-07T09:08:19.427Z,47043,-0.3612671,-0.87249756,0.2501831
1725700099487,2024-09-07T09:08:19.487Z,47103,-0.34625244,-0.86639404,0.2510376
1725700099517,2024-09-07T09:08:19.517Z,47133,-0.36853027,-0.88360596,0.26861572
1725700099566,2024-09-07T09:08:19.566Z,47182,-0.3652954,-0.8737793,0.25500488
1725700099609,2024-09-07T09:08:19.609Z,47225,-0.29541016,-0.8374634,0.22595215
1725700099631,2024-09-07T09:08:19.631Z,47247,-0.28167725,-0.81329346,0.24133301
1725700099654,2024-09-07T09:08:19.654Z,47270,-0.29559326,-0.8341675,0.26904297
1725700099698,2024-09-07T09:08:19.698Z,47314,-0.34204102,-0.8584595,0.25726318
1725700099744,2024-09-07T09:08:19.744Z,47360,-0.33319092,-0.8572998,0.22442627
1725700099787,2024-09-07T09:08:19.787Z,47403,-0.2694702,-0.8092041,0.24493408
1725700099833,2024-09-07T09:08:19.833Z,47449,-0.2718506,-0.74346924,0.26916504
1725700099881,2024-09-07T09:08:19.881Z,47497,-0.25213623,-0.7001953,0.23480225
1725700099925,2024-09-07T09:08:19.925Z,47541,-0.23498535,-0.7043457,0.2109375
1725700100017,2024-09-07T09:08:20.017Z,47633,-0.25408936,-0.73846436,0.206604
1725700100035,2024-09-07T09:08:20.035Z,47651,-0.32452393,-0.78656006,0.24743652
1725700100050,2024-09-07T09:08:20.050Z,47666,-0.27124023,-0.77996826,0.2756958
1725700100063,2024-09-07T09:08:20.063Z,47679,-0.25512695,-0.77697754,0.26922607
1725700100099,2024-09-07T09:08:20.099Z,47715,-0.21575928,-0.8076172,0.3267212
1725700100151,2024-09-07T09:08:20.151Z,47767,-0.2442627,-0.8439331,0.3633423
1725700100196,2024-09-07T09:08:20.196Z,47812,-0.25006104,-0.88275146,0.28900146
1725700100240,2024-09-07T09:08:20.240Z,47856,-0.2244873,-0.89727783,0.2791748
1725700100286,2024-09-07T09:08:20.286Z,47902,-0.25823975,-0.9066162,0.34729004
1725700100329,2024-09-07T09:08:20.329Z,47945,-0.22607422,-0.85827637,0.3685913
1725700100376,2024-09-07T09:08:20.376Z,47992,-0.21447754,-0.8288574,0.3690796
1725700100419,2024-09-07T09:08:20.419Z,48035,-0.17419434,-0.8461304,0.39624023
1725700100465,2024-09-07T09:08:20.465Z,48081,-0.21136475,-0.8933716,0.3895874
1725700100485,2024-09-07T09:08:20.485Z,48101,-0.19830322,-0.921875,0.43249512
1725700100509,2024-09-07T09:08:20.509Z,48125,-0.23046875,-0.9451904,0.42163086
1725700100554,2024-09-07T09:08:20.554Z,48170,-0.25897217,-0.9626465,0.41333008
1725700100600,2024-09-07T09:08:20.600Z,48216,-0.27062988,-0.9649658,0.3795166
1725700100646,2024-09-07T09:08:20.646Z,48262,-0.2652588,-0.96990967,0.34936523
1725700100690,2024-09-07T09:08:20.690Z,48306,-0.27075195,-0.9767456,0.40631104
1725700100735,2024-09-07T09:08:20.735Z,48351,-0.27075195,-0.9968872,0.37451172
1725700100784,2024-09-07T09:08:20.784Z,48400,-0.23358154,-1.0100098,0.34899902
1725700100826,2024-09-07T09:08:20.826Z,48442,-0.255188,-0.99212646,0.355896
1725700100873,2024-09-07T09:08:20.873Z,48489,-0.2131958,-0.9608154,0.35290527
1725700100896,2024-09-07T09:08:20.896Z,48512,-0.21606445,-0.94299316,0.36846924
1725700100918,2024-09-07T09:08:20.918Z,48534,-0.21759033,-0.93536377,0.4151001
1725700100957,2024-09-07T09:08:20.957Z,48573,-0.19018555,-0.9425049,0.43945312
1725700101009,2024-09-07T09:08:21.009Z,48625,-0.19451904,-0.9470825,0.4350586
1725700101051,2024-09-07T09:08:21.051Z,48667,-0.19299316,-0.95544434,0.51257324
1725700101093,2024-09-07T09:08:21.093Z,48709,-0.2617798,-0.92785645,0.553772
1725700101140,2024-09-07T09:08:21.140Z,48756,-0.20953369,-0.8989258,0.5054321
1725700101184,2024-09-07T09:08:21.184Z,48800,-0.2345581,-0.8356323,0.48638916
1725700101232,2024-09-07T09:08:21.232Z,48848,-0.21166992,-0.8255615,0.4397583
1725700101280,2024-09-07T09:08:21.280Z,48896,-0.23223877,-0.8180542,0.47528076
1725700101309,2024-09-07T09:08:21.309Z,48925,-0.22155762,-0.85668945,0.4116211
1725700101329,2024-09-07T09:08:21.329Z,48945,-0.22686768,-0.8741455,0.43048096
1725700101365,2024-09-07T09:08:21.365Z,48981,-0.23065186,-0.90966797,0.46136475
1725700101408,2024-09-07T09:08:21.408Z,49024,-0.24023438,-0.923645,0.45532227
1725700101457,2024-09-07T09:08:21.457Z,49073,-0.24615479,-0.9454346,0.4570923
1725700101499,2024-09-07T09:08:21.499Z,49115,-0.2732544,-0.9216919,0.49102783
1725700101547,2024-09-07T09:08:21.547Z,49163,-0.18450928,-0.87841797,0.41992188
1725700101587,2024-09-07T09:08:21.587Z,49203,-0.19464111,-0.86865234,0.4189453
1725700101635,2024-09-07T09:08:21.635Z,49251,-0.20117188,-0.8852539,0.43011475
1725700101681,2024-09-07T09:08:21.681Z,49297,-0.21466064,-0.8718262,0.40844727
1725700101729,2024-09-07T09:08:21.729Z,49345,-0.22045898,-0.8730469,0.40264893
1725700101755,2024-09-07T09:08:21.755Z,49371,-0.22753906,-0.859375,0.3988037
1725700101780,2024-09-07T09:08:21.780Z,49396,-0.2520752,-0.86273193,0.42523193
1725700101813,2024-09-07T09:08:21.813Z,49429,-0.23046875,-0.8560791,0.4352417
1725700101857,2024-09-07T09:08:21.857Z,49473,-0.24371338,-0.85717773,0.4356079
1725700101909,2024-09-07T09:08:21.909Z,49525,-0.24853516,-0.86920166,0.45446777
1725700101949,2024-09-07T09:08:21.949Z,49565,-0.24304199,-0.8969116,0.42407227
1725700101997,2024-09-07T09:08:21.997Z,49613,-0.24310303,-0.9145508,0.45043945
1725700102041,2024-09-07T09:08:22.041Z,49657,-0.25317383,-0.9248047,0.45355225
1725700102089,2024-09-07T09:08:22.089Z,49705,-0.23138428,-0.9658203,0.45062256
1725700102130,2024-09-07T09:08:22.130Z,49746,-0.23547363,-1.00177,0.46936035
1725700102152,2024-09-07T09:08:22.152Z,49768,-0.23553467,-1.0212402,0.5003662
1725700102172,2024-09-07T09:08:22.172Z,49788,-0.25610352,-1.0164185,0.52130127
1725700102216,2024-09-07T09:08:22.216Z,49832,-0.28063965,-1.0390015,0.5281372
1725700102264,2024-09-07T09:08:22.264Z,49880,-0.3046875,-1.0587158,0.54577637
1725700102312,2024-09-07T09:08:22.312Z,49928,-0.26361084,-0.9992676,0.49597168
1725700102357,2024-09-07T09:08:22.357Z,49973,-0.23205566,-0.9203491,0.4189453
1725700102403,2024-09-07T09:08:22.403Z,50019,-0.21685791,-0.9686279,0.5095215
1725700102442,2024-09-07T09:08:22.442Z,50058,-0.19091797,-0.98876953,0.49298096
1725700102487,2024-09-07T09:08:22.487Z,50103,-0.24584961,-0.9109497,0.43304443
1725700102534,2024-09-07T09:08:22.534Z,50150,-0.18695068,-0.88623047,0.3513794
1725700102556,2024-09-07T09:08:22.556Z,50172,-0.21466064,-0.88842773,0.47332764
1725700102577,2024-09-07T09:08:22.577Z,50193,-0.22302246,-0.8878784,0.43029785
1725700102620,2024-09-07T09:08:22.620Z,50236,-0.15844727,-0.8282471,0.38909912
1725700102673,2024-09-07T09:08:22.673Z,50289,-0.19805908,-0.85687256,0.3441162
1725700102715,2024-09-07T09:08:22.715Z,50331,-0.19647217,-0.925354,0.38580322
1725700102760,2024-09-07T09:08:22.760Z,50376,-0.28753662,-0.94366455,0.35577393
1725700102802,2024-09-07T09:08:22.802Z,50418,-0.18933105,-0.95806885,0.22540283
1725700102847,2024-09-07T09:08:22.847Z,50463,-0.27868652,-0.95758057,0.32629395
1725700102895,2024-09-07T09:08:22.895Z,50511,-0.29711914,-0.99609375,0.33117676
1725700102937,2024-09-07T09:08:22.937Z,50553,-0.30584717,-0.97540283,0.35290527
1725700102982,2024-09-07T09:08:22.982Z,50598,-0.32452393,-0.9310303,0.31140137
1725700102999,2024-09-07T09:08:22.999Z,50615,-0.31365967,-0.878479,0.302063
1725700103028,2024-09-07T09:08:23.028Z,50644,-0.34472656,-0.82385254,0.30090332
1725700103072,2024-09-07T09:08:23.072Z,50688,-0.33422852,-0.77612305,0.2453003
1725700103117,2024-09-07T09:08:23.117Z,50733,-0.31054688,-0.73724365,0.20593262
1725700103165,2024-09-07T09:08:23.165Z,50781,-0.29907227,-0.7301636,0.17468262
1725700103212,2024-09-07T09:08:23.212Z,50828,-0.34490967,-0.701416,0.21087646
1725700103257,2024-09-07T09:08:23.257Z,50873,-0.3287964,-0.6838989,0.16149902
1725700103302,2024-09-07T09:08:23.302Z,50918,-0.30932617,-0.63653564,0.14300537
1725700103345,2024-09-07T09:08:23.345Z,50961,-0.29156494,-0.609375,0.12017822
1725700103392,2024-09-07T09:08:23.392Z,51008,-0.28930664,-0.607666,0.10424805
1725700103420,2024-09-07T09:08:23.420Z,51036,-0.32147217,-0.6845703,0.079956055
1725700103443,2024-09-07T09:08:23.443Z,51059,-0.37670898,-0.7720947,0.09729004
1725700103477,2024-09-07T09:08:23.477Z,51093,-0.44439697,-0.8640137,0.08654785
1725700103524,2024-09-07T09:08:23.524Z,51140,-0.48321533,-0.8989868,0.105285645
1725700103573,2024-09-07T09:08:23.573Z,51189,-0.45043945,-0.88531494,0.14880371
1725700103610,2024-09-07T09:08:23.610Z,51226,-0.4595337,-0.8499756,0.19482422
1725700103659,2024-09-07T09:08:23.659Z,51275,-0.44085693,-0.8469238,0.19598389
1725700103702,2024-09-07T09:08:23.702Z,51318,-0.47705078,-0.86346436,0.1809082
1725700103748,2024-09-07T09:08:23.748Z,51364,-0.4859619,-0.88012695,0.22161865
1725700103797,2024-09-07T09:08:23.797Z,51413,-0.50494385,-0.89141846,0.206604
1725700103817,2024-09-07T09:08:23.817Z,51433,-0.47509766,-0.8786011,0.18560791
1725700103837,2024-09-07T09:08:23.837Z,51453,-0.44085693,-0.8690796,0.18243408
1725700103882,2024-09-07T09:08:23.882Z,51498,-0.44482422,-0.8798218,0.17437744
1725700103929,2024-09-07T09:08:23.929Z,51545,-0.42645264,-0.8845215,0.20245361
1725700104019,2024-09-07T09:08:24.019Z,51635,-0.39050293,-0.8921509,0.18939209
1725700104042,2024-09-07T09:08:24.042Z,51658,-0.36535645,-0.9015503,0.2121582
1725700104059,2024-09-07T09:08:24.059Z,51675,-0.33947754,-0.90667725,0.20428467
1725700104108,2024-09-07T09:08:24.108Z,51724,-0.3157959,-0.8947754,0.222229
1725700104154,2024-09-07T09:08:24.154Z,51770,-0.3425293,-0.8810425,0.2185669
1725700104201,2024-09-07T09:08:24.201Z,51817,-0.35461426,-0.89886475,0.19628906
1725700104243,2024-09-07T09:08:24.243Z,51859,-0.3597412,-0.91741943,0.2053833
1725700104260,2024-09-07T09:08:24.260Z,51876,-0.3727417,-0.90496826,0.2163086
1725700104334,2024-09-07T09:08:24.334Z,51950,-0.3729248,-0.90948486,0.17791748
1725700104353,2024-09-07T09:08:24.353Z,51969,-0.37347412,-0.8835449,0.20471191
1725700104378,2024-09-07T09:08:24.378Z,51994,-0.34899902,-0.8488159,0.20928955
1725700104468,2024-09-07T09:08:24.468Z,52084,-0.33532715,-0.7958374,0.2133789
1725700104485,2024-09-07T09:08:24.485Z,52101,-0.35095215,-0.8129883,0.20770264
1725700104512,2024-09-07T09:08:24.512Z,52128,-0.3421631,-0.8447876,0.23919678
1725700104561,2024-09-07T09:08:24.561Z,52177,-0.31103516,-0.802063,0.26672363
1725700104602,2024-09-07T09:08:24.602Z,52218,-0.2765503,-0.75268555,0.26306152
1725700104652,2024-09-07T09:08:24.652Z,52268,-0.25177002,-0.73217773,0.2625122
1725700104670,2024-09-07T09:08:24.670Z,52286,-0.2644043,-0.75372314,0.24664307
1725700104690,2024-09-07T09:08:24.690Z,52306,-0.28625488,-0.7338867,0.2659912
1725700104740,2024-09-07T09:08:24.740Z,52356,-0.28430176,-0.72839355,0.24017334
1725700104785,2024-09-07T09:08:24.785Z,52401,-0.2810669,-0.78466797,0.23120117
1725700104829,2024-09-07T09:08:24.829Z,52445,-0.2991333,-0.82281494,0.2617798
1725700104879,2024-09-07T09:08:24.879Z,52495,-0.2565918,-0.8223877,0.3098755
1725700104920,2024-09-07T09:08:24.920Z,52536,-0.23535156,-0.84588623,0.30615234
1725700104964,2024-09-07T09:08:24.964Z,52580,-0.28466797,-0.8395996,0.29852295
1725700105011,2024-09-07T09:08:25.011Z,52627,-0.2962036,-0.8339844,0.29888916
1725700105054,2024-09-07T09:08:25.054Z,52670,-0.3173828,-0.83483887,0.29833984
1725700105078,2024-09-07T09:08:25.078Z,52694,-0.28729248,-0.8279419,0.28607178
1725700105100,2024-09-07T09:08:25.100Z,52716,-0.26385498,-0.85406494,0.2849121
1725700105144,2024-09-07T09:08:25.144Z,52760,-0.2888794,-0.8777466,0.31121826
1725700105193,2024-09-07T09:08:25.193Z,52809,-0.29431152,-0.90838623,0.3300171
1725700105235,2024-09-07T09:08:25.235Z,52851,-0.33239746,-0.9259033,0.33551025
1725700105277,2024-09-07T09:08:25.277Z,52893,-0.34075928,-0.9421997,0.33538818
1725700105323,2024-09-07T09:08:25.323Z,52939,-0.29901123,-0.92907715,0.40545654
1725700105370,2024-09-07T09:08:25.370Z,52986,-0.28216553,-0.91711426,0.41229248
1725700105416,2024-09-07T09:08:25.416Z,53032,-0.26556396,-0.9499512,0.34979248
1725700105458,2024-09-07T09:08:25.458Z,53074,-0.26171875,-0.96209717,0.3796997
1725700105507,2024-09-07T09:08:25.507Z,53123,-0.262146,-0.94921875,0.40142822
1725700105532,2024-09-07T09:08:25.532Z,53148,-0.28753662,-0.91864014,0.43530273
1725700105553,2024-09-07T09:08:25.553Z,53169,-0.3031006,-0.9472046,0.37316895
1725700105592,2024-09-07T09:08:25.592Z,53208,-0.35516357,-0.9428711,0.4262085
1725700105639,2024-09-07T09:08:25.639Z,53255,-0.36120605,-0.90966797,0.4336548
1725700105682,2024-09-07T09:08:25.682Z,53298,-0.31048584,-0.8925781,0.42034912
1725700105731,2024-09-07T09:08:25.731Z,53347,-0.29956055,-0.93847656,0.41229248
1725700105770,2024-09-07T09:08:25.770Z,53386,-0.3383789,-0.96643066,0.39782715
1725700105818,2024-09-07T09:08:25.818Z,53434,-0.33892822,-0.9569092,0.39117432
1725700105866,2024-09-07T09:08:25.866Z,53482,-0.34381104,-0.88848877,0.42138672
1725700105908,2024-09-07T09:08:25.908Z,53524,-0.3215332,-0.8951416,0.3949585
1725700105925,2024-09-07T09:08:25.925Z,53541,-0.29333496,-0.8781128,0.41766357
1725700105955,2024-09-07T09:08:25.955Z,53571,-0.25708008,-0.8876953,0.37646484
1725700105997,2024-09-07T09:08:25.997Z,53613,-0.2715454,-0.9035034,0.38208008
1725700106044,2024-09-07T09:08:26.044Z,53660,-0.33618164,-0.9161377,0.39379883
1725700106089,2024-09-07T09:08:26.089Z,53705,-0.3248291,-0.93377686,0.3474121
1725700106138,2024-09-07T09:08:26.138Z,53754,-0.33673096,-0.9299927,0.39282227
1725700106179,2024-09-07T09:08:26.179Z,53795,-0.31628418,-0.92333984,0.4389038
1725700106224,2024-09-07T09:08:26.224Z,53840,-0.31188965,-0.88830566,0.4046631
1725700106269,2024-09-07T09:08:26.269Z,53885,-0.33599854,-0.86328125,0.39941406
1725700106315,2024-09-07T09:08:26.315Z,53931,-0.34173584,-0.8722534,0.39630127
1725700106335,2024-09-07T09:08:26.335Z,53951,-0.35351562,-0.8475952,0.4432373
1725700106357,2024-09-07T09:08:26.357Z,53973,-0.32574463,-0.83514404,0.44610596
1725700106402,2024-09-07T09:08:26.402Z,54018,-0.29882812,-0.8265991,0.43554688
1725700106449,2024-09-07T09:08:26.449Z,54065,-0.29577637,-0.8526001,0.4229126
1725700106492,2024-09-07T09:08:26.492Z,54108,-0.3390503,-0.8814697,0.4319458
1725700106542,2024-09-07T09:08:26.542Z,54158,-0.30822754,-0.8742676,0.36401367
1725700106583,2024-09-07T09:08:26.583Z,54199,-0.2715454,-0.8465576,0.3786621
1725700106628,2024-09-07T09:08:26.628Z,54244,-0.24554443,-0.8554077,0.3717041
1725700106676,2024-09-07T09:08:26.676Z,54292,-0.26696777,-0.8510742,0.4442749
1725700106720,2024-09-07T09:08:26.720Z,54336,-0.2699585,-0.8720093,0.39453125
1725700106766,2024-09-07T09:08:26.766Z,54382,-0.2526245,-0.8867798,0.36505127
1725700106788,2024-09-07T09:08:26.788Z,54404,-0.2666626,-0.90130615,0.3765869
1725700106807,2024-09-07T09:08:26.807Z,54423,-0.25476074,-0.89141846,0.41033936
1725700106854,2024-09-07T09:08:26.854Z,54470,-0.24810791,-0.88708496,0.40405273
1725700106901,2024-09-07T09:08:26.901Z,54517,-0.22338867,-0.90093994,0.3776245
1725700106945,2024-09-07T09:08:26.945Z,54561,-0.24841309,-0.94317627,0.37036133
1725700106989,2024-09-07T09:08:26.989Z,54605,-0.30358887,-0.96624756,0.42547607
1725700107037,2024-09-07T09:08:27.037Z,54653,-0.31445312,-0.9387207,0.47113037
1725700107077,2024-09-07T09:08:27.077Z,54693,-0.2843628,-0.9456177,0.4611206
1725700107125,2024-09-07T09:08:27.125Z,54741,-0.34106445,-1.0275879,0.5031128
1725700107168,2024-09-07T09:08:27.168Z,54784,-0.41375732,-1.0389404,0.5408325
1725700107188,2024-09-07T09:08:27.188Z,54804,-0.39996338,-1.0227661,0.4887085
1725700107213,2024-09-07T09:08:27.213Z,54829,-0.31756592,-1.008606,0.51623535
1725700107257,2024-09-07T09:08:27.257Z,54873,-0.24407959,-0.9610596,0.5126953
1725700107301,2024-09-07T09:08:27.301Z,54917,-0.25341797,-0.9649658,0.50842285
1725700107348,2024-09-07T09:08:27.348Z,54964,-0.28399658,-0.90289307,0.59088135
1725700107396,2024-09-07T09:08:27.396Z,55012,-0.2833252,-0.8138428,0.49017334
1725700107437,2024-09-07T09:08:27.437Z,55053,-0.24121094,-0.77111816,0.39154053
1725700107482,2024-09-07T09:08:27.482Z,55098,-0.27905273,-0.75286865,0.4375
1725700107528,2024-09-07T09:08:27.528Z,55144,-0.30963135,-0.8145752,0.42462158
1725700107577,2024-09-07T09:08:27.577Z,55193,-0.26257324,-0.84332275,0.35058594
1725700107597,2024-09-07T09:08:27.597Z,55213,-0.24798584,-0.8614502,0.3591919
1725700107617,2024-09-07T09:08:27.617Z,55233,-0.33618164,-0.8555298,0.40026855
1725700107663,2024-09-07T09:08:27.663Z,55279,-0.2824707,-0.90667725,0.3149414
1725700107710,2024-09-07T09:08:27.710Z,55326,-0.27825928,-0.895813,0.33428955
1725700107753,2024-09-07T09:08:27.753Z,55369,-0.22955322,-0.9298096,0.31982422
1725700107799,2024-09-07T09:08:27.799Z,55415,-0.29083252,-0.9401245,0.40759277
1725700107850,2024-09-07T09:08:27.850Z,55466,-0.3126831,-0.9415283,0.3885498
1725700107890,2024-09-07T09:08:27.890Z,55506,-0.25250244,-0.93182373,0.3394165
1725700107932,2024-09-07T09:08:27.932Z,55548,-0.2901001,-0.90722656,0.3937378
1725700107977,2024-09-07T09:08:27.977Z,55593,-0.30065918,-0.91174316,0.4404297
1725700108023,2024-09-07T09:08:28.023Z,55639,-0.25109863,-0.89501953,0.3980713
1725700108041,2024-09-07T09:08:28.041Z,55657,-0.19464111,-0.8564453,0.39520264
1725700108068,2024-09-07T09:08:28.068Z,55684,-0.22052002,-0.82214355,0.42193604
1725700108114,2024-09-07T09:08:28.114Z,55730,-0.22210693,-0.8180542,0.4169922
1725700108159,2024-09-07T09:08:28.159Z,55775,-0.26885986,-0.7918091,0.36999512
1725700108204,2024-09-07T09:08:28.204Z,55820,-0.24353027,-0.7727661,0.2871704
1725700108249,2024-09-07T09:08:28.249Z,55865,-0.25268555,-0.7208252,0.32592773
1725700108295,2024-09-07T09:08:28.295Z,55911,-0.20263672,-0.6694946,0.2772827
1725700108337,2024-09-07T09:08:28.337Z,55953,-0.15368652,-0.61187744,0.27191162
1725700108384,2024-09-07T09:08:28.384Z,56000,-0.19885254,-0.6107178,0.18432617
1725700108431,2024-09-07T09:08:28.431Z,56047,-0.1697998,-0.6290283,0.1463623
1725700108456,2024-09-07T09:08:28.456Z,56072,-0.22729492,-0.7385864,0.17907715
1725700108476,2024-09-07T09:08:28.476Z,56092,-0.30499268,-0.864624,0.23730469
1725700108519,2024-09-07T09:08:28.519Z,56135,-0.38964844,-0.9494629,0.24700928
1725700108563,2024-09-07T09:08:28.563Z,56179,-0.42059326,-0.9456787,0.26190186
1725700108610,2024-09-07T09:08:28.610Z,56226,-0.36175537,-0.88671875,0.26306152
1725700108654,2024-09-07T09:08:28.654Z,56270,-0.30871582,-0.857666,0.29693604
1725700108700,2024-09-07T09:08:28.700Z,56316,-0.3258667,-0.82214355,0.38464355
1725700108745,2024-09-07T09:08:28.745Z,56361,-0.32385254,-0.835083,0.37408447
1725700108788,2024-09-07T09:08:28.788Z,56404,-0.32800293,-0.86328125,0.35339355
1725700108833,2024-09-07T09:08:28.833Z,56449,-0.34625244,-0.86499023,0.35906982
1725700108850,2024-09-07T09:08:28.850Z,56466,-0.3536377,-0.8635864,0.390625
1725700108875,2024-09-07T09:08:28.875Z,56491,-0.359375,-0.866333,0.36035156
1725700108918,2024-09-07T09:08:28.918Z,56534,-0.34039307,-0.85998535,0.33709717
1725700108963,2024-09-07T09:08:28.963Z,56579,-0.33013916,-0.8811035,0.3307495
1725700109010,2024-09-07T09:08:29.010Z,56626,-0.34246826,-0.8651123,0.3602295
1725700109053,2024-09-07T09:08:29.053Z,56669,-0.3106079,-0.8688965,0.3302002
