Timestamp (ms),ISO DateTime,Elapsed Time (ms),Acceleration X,Acceleration Y,Acceleration Z
1725950887933,2024-09-10T06:48:07.933Z,40124,0.28405762,-0.91033936,0.08947754
1725950887976,2024-09-10T06:48:07.976Z,40167,0.29382324,-0.93218994,0.08239746
1725950888017,2024-09-10T06:48:08.017Z,40208,0.30029297,-0.94195557,0.08074951
1725950888063,2024-09-10T06:48:08.063Z,40254,0.3053589,-0.94433594,0.08453369
1725950888107,2024-09-10T06:48:08.107Z,40298,0.3104248,-0.94677734,0.09906006
1725950888153,2024-09-10T06:48:08.153Z,40344,0.3131714,-0.9347534,0.107543945
1725950888197,2024-09-10T06:48:08.197Z,40388,0.3034668,-0.9164429,0.123535156
1725950888248,2024-09-10T06:48:08.248Z,40439,0.29138184,-0.90509033,0.12854004
1725950888265,2024-09-10T06:48:08.265Z,40456,0.28405762,-0.90789795,0.13421631
1725950888289,2024-09-10T06:48:08.289Z,40480,0.2841797,-0.90411377,0.14093018
1725950888339,2024-09-10T06:48:08.339Z,40530,0.2958374,-0.89593506,0.14697266
1725950888382,2024-09-10T06:48:08.382Z,40573,0.29742432,-0.8875122,0.14764404
1725950888430,2024-09-10T06:48:08.430Z,40621,0.3034668,-0.8870239,0.15570068
1725950888475,2024-09-10T06:48:08.475Z,40666,0.31219482,-0.8841553,0.16400146
1725950888516,2024-09-10T06:48:08.516Z,40707,0.32043457,-0.866272,0.16711426
1725950888563,2024-09-10T06:48:08.563Z,40754,0.33093262,-0.84198,0.16705322
1725950888605,2024-09-10T06:48:08.605Z,40796,0.3458252,-0.82299805,0.17211914
1725950888652,2024-09-10T06:48:08.652Z,40843,0.36047363,-0.80126953,0.18170166
1725950888698,2024-09-10T06:48:08.698Z,40889,0.3735962,-0.77978516,0.17767334
1725950888722,2024-09-10T06:48:08.722Z,40913,0.37945557,-0.77215576,0.19360352
1725950888741,2024-09-10T06:48:08.741Z,40932,0.39074707,-0.7701416,0.19989014
1725950888787,2024-09-10T06:48:08.787Z,40978,0.39605713,-0.7709961,0.19250488
1725950888833,2024-09-10T06:48:08.833Z,41024,0.41607666,-0.7765503,0.19610596
1725950888880,2024-09-10T06:48:08.880Z,41071,0.41174316,-0.7739258,0.17028809
1725950888923,2024-09-10T06:48:08.923Z,41114,0.4121704,-0.7635498,0.16357422
1725950888967,2024-09-10T06:48:08.967Z,41158,0.41168213,-0.76013184,0.15032959
1725950889014,2024-09-10T06:48:09.014Z,41205,0.4206543,-0.76831055,0.14984131
1725950889057,2024-09-10T06:48:09.057Z,41248,0.43920898,-0.77667236,0.15588379
1725950889103,2024-09-10T06:48:09.103Z,41294,0.4749756,-0.7805786,0.16223145
1725950889125,2024-09-10T06:48:09.125Z,41316,0.4907837,-0.789917,0.16278076
1725950889147,2024-09-10T06:48:09.147Z,41338,0.50213623,-0.8060303,0.16729736
1725950889192,2024-09-10T06:48:09.192Z,41383,0.5189209,-0.8265991,0.17919922
1725950889238,2024-09-10T06:48:09.238Z,41429,0.52783203,-0.8411865,0.19171143
1725950889284,2024-09-10T06:48:09.284Z,41475,0.54937744,-0.8450928,0.20031738
1725950889330,2024-09-10T06:48:09.330Z,41521,0.56591797,-0.84375,0.19708252
1725950889375,2024-09-10T06:48:09.375Z,41566,0.5668335,-0.8400879,0.18792725
1725950889421,2024-09-10T06:48:09.421Z,41612,0.5612793,-0.84313965,0.17419434
1725950889461,2024-09-10T06:48:09.461Z,41652,0.5718384,-0.8550415,0.1762085
1725950889508,2024-09-10T06:48:09.508Z,41699,0.5853882,-0.8529053,0.17980957
1725950889526,2024-09-10T06:48:09.526Z,41717,0.57403564,-0.84039307,0.17321777
1725950889556,2024-09-10T06:48:09.556Z,41747,0.55566406,-0.8218994,0.17553711
1725950889597,2024-09-10T06:48:09.597Z,41788,0.55908203,-0.8166504,0.17822266
1725950889647,2024-09-10T06:48:09.647Z,41838,0.56585693,-0.81933594,0.17993164
1725950889690,2024-09-10T06:48:09.690Z,41881,0.56427,-0.8234863,0.17700195
1725950889734,2024-09-10T06:48:09.734Z,41925,0.5552368,-0.8405762,0.18395996
1725950889779,2024-09-10T06:48:09.779Z,41970,0.5509033,-0.85302734,0.19158936
1725950889823,2024-09-10T06:48:09.823Z,42014,0.5623779,-0.86657715,0.20275879
1725950889871,2024-09-10T06:48:09.871Z,42062,0.57366943,-0.8613281,0.22723389
1725950889914,2024-09-10T06:48:09.914Z,42105,0.55926514,-0.84039307,0.24304199
1725950890005,2024-09-10T06:48:10.005Z,42196,0.54125977,-0.8208008,0.25543213
1725950890026,2024-09-10T06:48:10.026Z,42217,0.5354004,-0.8206787,0.25378418
1725950890040,2024-09-10T06:48:10.040Z,42231,0.53985596,-0.83013916,0.23309326
1725950890053,2024-09-10T06:48:10.053Z,42244,0.55810547,-0.84588623,0.23327637
1725950890089,2024-09-10T06:48:10.089Z,42280,0.57696533,-0.85198975,0.23425293
1725950890138,2024-09-10T06:48:10.138Z,42329,0.5887451,-0.869751,0.23577881
1725950890183,2024-09-10T06:48:10.183Z,42374,0.579834,-0.90338135,0.25299072
1725950890229,2024-09-10T06:48:10.229Z,42420,0.5743408,-0.9135132,0.2524414
1725950890276,2024-09-10T06:48:10.276Z,42467,0.5852661,-0.8944092,0.26037598
1725950890319,2024-09-10T06:48:10.319Z,42510,0.58062744,-0.86151123,0.24810791
1725950890364,2024-09-10T06:48:10.364Z,42555,0.55584717,-0.8463135,0.24633789
1725950890384,2024-09-10T06:48:10.384Z,42575,0.52038574,-0.83306885,0.24890137
1725950890454,2024-09-10T06:48:10.454Z,42645,0.5125122,-0.82159424,0.25268555
1725950890475,2024-09-10T06:48:10.475Z,42666,0.5248413,-0.82507324,0.2609253
1725950890496,2024-09-10T06:48:10.496Z,42687,0.5401001,-0.8534546,0.27490234
1725950890543,2024-09-10T06:48:10.543Z,42734,0.54907227,-0.8800659,0.29144287
1725950890634,2024-09-10T06:48:10.634Z,42825,0.5453491,-0.87579346,0.2932129
1725950890653,2024-09-10T06:48:10.653Z,42844,0.54467773,-0.8543701,0.28656006
1725950890675,2024-09-10T06:48:10.675Z,42866,0.5418091,-0.8407593,0.26843262
1725950890769,2024-09-10T06:48:10.769Z,42960,0.53271484,-0.8334961,0.2692871
1725950890787,2024-09-10T06:48:10.787Z,42978,0.5054321,-0.8265991,0.27703857
1725950890802,2024-09-10T06:48:10.802Z,42993,0.501709,-0.83380127,0.28381348
1725950890814,2024-09-10T06:48:10.814Z,43005,0.49224854,-0.85028076,0.27990723
1725950890856,2024-09-10T06:48:10.856Z,43047,0.50109863,-0.86779785,0.28338623
1725950890902,2024-09-10T06:48:10.902Z,43093,0.4996338,-0.8788452,0.27716064
1725950890947,2024-09-10T06:48:10.947Z,43138,0.47631836,-0.88238525,0.27178955
1725950890995,2024-09-10T06:48:10.995Z,43186,0.4675293,-0.8782959,0.2939453
1725950891038,2024-09-10T06:48:11.038Z,43229,0.4553833,-0.88049316,0.28894043
1725950891083,2024-09-10T06:48:11.083Z,43274,0.4472046,-0.8858032,0.28918457
1725950891173,2024-09-10T06:48:11.173Z,43364,0.43621826,-0.8745117,0.2824707
1725950891194,2024-09-10T06:48:11.194Z,43385,0.41931152,-0.8493042,0.27233887
1725950891213,2024-09-10T06:48:11.213Z,43404,0.38378906,-0.8326416,0.27789307
1725950891231,2024-09-10T06:48:11.231Z,43422,0.3279419,-0.8245239,0.24597168
1725950891263,2024-09-10T06:48:11.263Z,43454,0.29431152,-0.82110596,0.26184082
1725950891305,2024-09-10T06:48:11.305Z,43496,0.25201416,-0.8140869,0.22277832
1725950891351,2024-09-10T06:48:11.351Z,43542,0.23828125,-0.80908203,0.21386719
1725950891397,2024-09-10T06:48:11.397Z,43588,0.23937988,-0.8106079,0.21081543
1725950891444,2024-09-10T06:48:11.444Z,43635,0.23791504,-0.8119507,0.17346191
1725950891487,2024-09-10T06:48:11.487Z,43678,0.24707031,-0.800354,0.16741943
1725950891580,2024-09-10T06:48:11.580Z,43771,0.23071289,-0.79034424,0.14428711
1725950891601,2024-09-10T06:48:11.601Z,43792,0.22576904,-0.7890625,0.14569092
1725950891621,2024-09-10T06:48:11.621Z,43812,0.21331787,-0.79577637,0.1439209
1725950891634,2024-09-10T06:48:11.634Z,43825,0.19909668,-0.80773926,0.12976074
1725950891662,2024-09-10T06:48:11.662Z,43853,0.20697021,-0.8118286,0.13317871
1725950891709,2024-09-10T06:48:11.709Z,43900,0.21826172,-0.83081055,0.124694824
1725950891756,2024-09-10T06:48:11.756Z,43947,0.2119751,-0.86413574,0.13446045
1725950891803,2024-09-10T06:48:11.803Z,43994,0.19262695,-0.89575195,0.14526367
1725950891851,2024-09-10T06:48:11.851Z,44042,0.17132568,-0.9212036,0.15344238
1725950891896,2024-09-10T06:48:11.896Z,44087,0.16040039,-0.9503784,0.15588379
1725950891937,2024-09-10T06:48:11.937Z,44128,0.17175293,-0.9702759,0.1484375
1725950891987,2024-09-10T06:48:11.987Z,44178,0.190979,-0.9789429,0.13806152
1725950892025,2024-09-10T06:48:12.025Z,44216,0.22277832,-0.9725952,0.12768555
1725950892041,2024-09-10T06:48:12.041Z,44232,0.24621582,-0.96661377,0.1281128
1725950892068,2024-09-10T06:48:12.068Z,44259,0.2510376,-0.9585571,0.14123535
1725950892116,2024-09-10T06:48:12.116Z,44307,0.24304199,-0.95788574,0.14361572
1725950892161,2024-09-10T06:48:12.161Z,44352,0.23223877,-0.956604,0.1505127
1725950892208,2024-09-10T06:48:12.208Z,44399,0.21624756,-0.95043945,0.13928223
1725950892255,2024-09-10T06:48:12.255Z,44446,0.22045898,-0.9435425,0.14154053
1725950892298,2024-09-10T06:48:12.298Z,44489,0.21923828,-0.9289551,0.13977051
1725950892343,2024-09-10T06:48:12.343Z,44534,0.22991943,-0.9144287,0.15258789
1725950892389,2024-09-10T06:48:12.389Z,44580,0.22912598,-0.91711426,0.17077637
1725950892434,2024-09-10T06:48:12.434Z,44625,0.22961426,-0.91918945,0.17504883
1725950892479,2024-09-10T06:48:12.479Z,44670,0.234375,-0.9156494,0.18493652
1725950892497,2024-09-10T06:48:12.497Z,44688,0.24267578,-0.90338135,0.19451904
1725950892523,2024-09-10T06:48:12.523Z,44714,0.25390625,-0.87945557,0.19482422
1725950892569,2024-09-10T06:48:12.569Z,44760,0.2617798,-0.85791016,0.20776367
1725950892615,2024-09-10T06:48:12.615Z,44806,0.26519775,-0.8288574,0.21557617
1725950892658,2024-09-10T06:48:12.658Z,44849,0.2616577,-0.79278564,0.21923828
1725950892703,2024-09-10T06:48:12.703Z,44894,0.26275635,-0.7545166,0.21368408
1725950892749,2024-09-10T06:48:12.749Z,44940,0.2685547,-0.7237549,0.20062256
1725950892793,2024-09-10T06:48:12.793Z,44984,0.27911377,-0.71673584,0.1875
1725950892839,2024-09-10T06:48:12.839Z,45030,0.2861328,-0.7369995,0.18237305
1725950892884,2024-09-10T06:48:12.884Z,45075,0.3010254,-0.7772827,0.18981934
1725950892902,2024-09-10T06:48:12.902Z,45093,0.29742432,-0.81427,0.20275879
1725950892927,2024-09-10T06:48:12.927Z,45118,0.31018066,-0.8345337,0.2131958
1725950892972,2024-09-10T06:48:12.972Z,45163,0.35437012,-0.82684326,0.22290039
1725950893017,2024-09-10T06:48:13.017Z,45208,0.40844727,-0.8128662,0.1776123
1725950893061,2024-09-10T06:48:13.061Z,45252,0.45391846,-0.81799316,0.16625977
1725950893107,2024-09-10T06:48:13.107Z,45298,0.47180176,-0.82263184,0.15686035
1725950893153,2024-09-10T06:48:13.153Z,45344,0.4711914,-0.83795166,0.18481445
1725950893198,2024-09-10T06:48:13.198Z,45389,0.4769287,-0.855896,0.22363281
1725950893245,2024-09-10T06:48:13.245Z,45436,0.48614502,-0.86138916,0.26586914
1725950893288,2024-09-10T06:48:13.288Z,45479,0.47442627,-0.857666,0.27685547
1725950893307,2024-09-10T06:48:13.307Z,45498,0.48669434,-0.8656616,0.29284668
1725950893331,2024-09-10T06:48:13.331Z,45522,0.49938965,-0.8687744,0.30065918
1725950893377,2024-09-10T06:48:13.377Z,45568,0.5007324,-0.8643799,0.2929077
1725950893424,2024-09-10T06:48:13.424Z,45615,0.50878906,-0.85998535,0.2902832
1725950893468,2024-09-10T06:48:13.468Z,45659,0.51123047,-0.8555908,0.28625488
1725950893512,2024-09-10T06:48:13.512Z,45703,0.5159912,-0.8371582,0.2869873
1725950893559,2024-09-10T06:48:13.559Z,45750,0.5409546,-0.8232422,0.29016113
1725950893602,2024-09-10T06:48:13.602Z,45793,0.56744385,-0.8338623,0.29400635
1725950893647,2024-09-10T06:48:13.647Z,45838,0.57232666,-0.8554077,0.30029297
1725950893692,2024-09-10T06:48:13.692Z,45883,0.55718994,-0.8703613,0.30065918
1725950893783,2024-09-10T06:48:13.783Z,45974,0.5578613,-0.88391113,0.30999756
1725950893804,2024-09-10T06:48:13.804Z,45995,0.564209,-0.88623047,0.31958008
1725950893824,2024-09-10T06:48:13.824Z,46015,0.5722656,-0.8845215,0.31793213
1725950893835,2024-09-10T06:48:13.835Z,46026,0.56518555,-0.8753052,0.33520508
1725950893868,2024-09-10T06:48:13.868Z,46059,0.5411377,-0.8670654,0.3399048
1725950893917,2024-09-10T06:48:13.917Z,46108,0.5350952,-0.86224365,0.33789062
1725950893963,2024-09-10T06:48:13.963Z,46154,0.5500488,-0.8688965,0.3359375
1725950894054,2024-09-10T06:48:14.054Z,46245,0.5933838,-0.87402344,0.32531738
1725950894071,2024-09-10T06:48:14.071Z,46262,0.63171387,-0.8942871,0.3189087
1725950894097,2024-09-10T06:48:14.097Z,46288,0.6444092,-0.90911865,0.3295288
1725950894142,2024-09-10T06:48:14.142Z,46333,0.6157837,-0.92596436,0.33587646
1725950894160,2024-09-10T06:48:14.160Z,46351,0.5894165,-0.92871094,0.3534546
1725950894186,2024-09-10T06:48:14.186Z,46377,0.5656738,-0.9138794,0.33215332
1725950894231,2024-09-10T06:48:14.231Z,46422,0.5529785,-0.9100342,0.32037354
1725950894278,2024-09-10T06:48:14.278Z,46469,0.5444336,-0.8986206,0.30151367
1725950894325,2024-09-10T06:48:14.325Z,46516,0.52319336,-0.8866577,0.29241943
1725950894368,2024-09-10T06:48:14.368Z,46559,0.503479,-0.8831787,0.30999756
1725950894415,2024-09-10T06:48:14.415Z,46606,0.47070312,-0.86761475,0.30688477
1725950894459,2024-09-10T06:48:14.459Z,46650,0.43914795,-0.8475952,0.30145264
1725950894505,2024-09-10T06:48:14.505Z,46696,0.4295044,-0.84210205,0.28375244
1725950894549,2024-09-10T06:48:14.549Z,46740,0.4142456,-0.8503418,0.26171875
1725950894572,2024-09-10T06:48:14.572Z,46763,0.40307617,-0.8526001,0.24291992
1725950894638,2024-09-10T06:48:14.638Z,46829,0.38623047,-0.8519287,0.23339844
1725950894656,2024-09-10T06:48:14.656Z,46847,0.3616333,-0.8474121,0.22619629
1725950894679,2024-09-10T06:48:14.679Z,46870,0.34228516,-0.84088135,0.2423706
1725950894728,2024-09-10T06:48:14.728Z,46919,0.32983398,-0.8354492,0.2390747
1725950894774,2024-09-10T06:48:14.774Z,46965,0.32250977,-0.8210449,0.2345581
1725950894816,2024-09-10T06:48:14.816Z,47007,0.32208252,-0.8317261,0.24169922
1725950894864,2024-09-10T06:48:14.864Z,47055,0.3085327,-0.84472656,0.22271729
1725950894908,2024-09-10T06:48:14.908Z,47099,0.2808838,-0.861084,0.21929932
1725950894954,2024-09-10T06:48:14.954Z,47145,0.24761963,-0.8560791,0.19274902
1725950894998,2024-09-10T06:48:14.998Z,47189,0.23303223,-0.8475952,0.17376709
1725950895018,2024-09-10T06:48:15.018Z,47209,0.2244873,-0.83203125,0.16558838
1725950895044,2024-09-10T06:48:15.044Z,47235,0.22851562,-0.81433105,0.15167236
1725950895088,2024-09-10T06:48:15.088Z,47279,0.23834229,-0.8071289,0.13085938
1725950895132,2024-09-10T06:48:15.132Z,47323,0.24151611,-0.8245239,0.13378906
1725950895179,2024-09-10T06:48:15.179Z,47370,0.25012207,-0.8581543,0.13372803
1725950895224,2024-09-10T06:48:15.224Z,47415,0.2453003,-0.8867798,0.13702393
1725950895268,2024-09-10T06:48:15.268Z,47459,0.24273682,-0.8972168,0.14801025
1725950895315,2024-09-10T06:48:15.315Z,47506,0.22894287,-0.89276123,0.13812256
1725950895360,2024-09-10T06:48:15.360Z,47551,0.21795654,-0.87457275,0.12713623
1725950895403,2024-09-10T06:48:15.403Z,47594,0.19921875,-0.8691406,0.13397217
1725950895423,2024-09-10T06:48:15.423Z,47614,0.18927002,-0.87384033,0.1326294
1725950895448,2024-09-10T06:48:15.448Z,47639,0.18469238,-0.885376,0.14227295
1725950895492,2024-09-10T06:48:15.492Z,47683,0.18426514,-0.9019165,0.15472412
1725950895538,2024-09-10T06:48:15.538Z,47729,0.19171143,-0.9281006,0.14227295
1725950895585,2024-09-10T06:48:15.585Z,47776,0.2006836,-0.9606323,0.14971924
1725950895629,2024-09-10T06:48:15.629Z,47820,0.20935059,-0.9807739,0.14019775
1725950895681,2024-09-10T06:48:15.681Z,47872,0.2043457,-0.97662354,0.13153076
1725950895718,2024-09-10T06:48:15.718Z,47909,0.20245361,-0.9537964,0.13311768
1725950895762,2024-09-10T06:48:15.762Z,47953,0.19207764,-0.94573975,0.12219238
1725950895809,2024-09-10T06:48:15.809Z,48000,0.19818115,-0.94488525,0.11730957
1725950895826,2024-09-10T06:48:15.826Z,48017,0.20629883,-0.94281006,0.12347412
1725950895851,2024-09-10T06:48:15.851Z,48042,0.20874023,-0.93499756,0.13012695
1725950895897,2024-09-10T06:48:15.897Z,48088,0.20806885,-0.9338989,0.14074707
1725950895942,2024-09-10T06:48:15.942Z,48133,0.20141602,-0.94329834,0.1618042
1725950895986,2024-09-10T06:48:15.986Z,48177,0.18756104,-0.9562378,0.16186523
1725950896031,2024-09-10T06:48:16.031Z,48222,0.19793701,-0.9537964,0.15454102
1725950896080,2024-09-10T06:48:16.080Z,48271,0.2052002,-0.95129395,0.15020752
1725950896121,2024-09-10T06:48:16.121Z,48312,0.21636963,-0.9411621,0.13415527
1725950896167,2024-09-10T06:48:16.167Z,48358,0.22241211,-0.9342041,0.1381836
1725950896215,2024-09-10T06:48:16.215Z,48406,0.21936035,-0.9389038,0.13946533
1725950896258,2024-09-10T06:48:16.258Z,48449,0.21295166,-0.95007324,0.14691162
1725950896280,2024-09-10T06:48:16.280Z,48471,0.20495605,-0.96447754,0.15338135
1725950896302,2024-09-10T06:48:16.302Z,48493,0.1973877,-0.980896,0.15258789
1725950896348,2024-09-10T06:48:16.348Z,48539,0.19293213,-0.9827881,0.14245605
1725950896392,2024-09-10T06:48:16.392Z,48583,0.19543457,-0.9708252,0.1408081
1725950896439,2024-09-10T06:48:16.439Z,48630,0.19195557,-0.9506836,0.14709473
1725950896484,2024-09-10T06:48:16.484Z,48675,0.18560791,-0.92852783,0.1439209
1725950896529,2024-09-10T06:48:16.529Z,48720,0.17712402,-0.9168701,0.15338135
1725950896573,2024-09-10T06:48:16.573Z,48764,0.16461182,-0.9171753,0.15350342
1725950896620,2024-09-10T06:48:16.620Z,48811,0.17059326,-0.9259033,0.159729
1725950896663,2024-09-10T06:48:16.663Z,48854,0.17181396,-0.92962646,0.15490723
1725950896682,2024-09-10T06:48:16.682Z,48873,0.18127441,-0.9268799,0.14849854
1725950896706,2024-09-10T06:48:16.706Z,48897,0.19403076,-0.9355469,0.15991211
1725950896752,2024-09-10T06:48:16.752Z,48943,0.20550537,-0.9437256,0.15228271
1725950896800,2024-09-10T06:48:16.800Z,48991,0.23150635,-0.93292236,0.15270996
1725950896842,2024-09-10T06:48:16.842Z,49033,0.25567627,-0.9133911,0.15246582
1725950896887,2024-09-10T06:48:16.887Z,49078,0.27856445,-0.8875122,0.14361572
1725950896931,2024-09-10T06:48:16.931Z,49122,0.29681396,-0.8656616,0.15557861
1725950896978,2024-09-10T06:48:16.978Z,49169,0.31207275,-0.8463135,0.1505127
1725950897023,2024-09-10T06:48:17.023Z,49214,0.31506348,-0.8363037,0.16223145
1725950897069,2024-09-10T06:48:17.069Z,49260,0.31762695,-0.824646,0.17321777
1725950897088,2024-09-10T06:48:17.088Z,49279,0.30706787,-0.82055664,0.17889404
1725950897110,2024-09-10T06:48:17.110Z,49301,0.31170654,-0.8118286,0.17773438
1725950897157,2024-09-10T06:48:17.157Z,49348,0.32543945,-0.8081665,0.18334961
1725950897203,2024-09-10T06:48:17.203Z,49394,0.33935547,-0.8009033,0.1842041
1725950897247,2024-09-10T06:48:17.247Z,49438,0.35339355,-0.7891846,0.17401123
1725950897294,2024-09-10T06:48:17.294Z,49485,0.35827637,-0.79364014,0.17712402
1725950897339,2024-09-10T06:48:17.339Z,49530,0.35754395,-0.79956055,0.18182373
1725950897385,2024-09-10T06:48:17.385Z,49576,0.35620117,-0.8057251,0.20037842
1725950897430,2024-09-10T06:48:17.430Z,49621,0.36071777,-0.80200195,0.21282959
1725950897517,2024-09-10T06:48:17.517Z,49708,0.37390137,-0.80700684,0.21588135
1725950897538,2024-09-10T06:48:17.538Z,49729,0.40551758,-0.82037354,0.22106934
1725950897557,2024-09-10T06:48:17.557Z,49748,0.42510986,-0.8243408,0.21350098
1725950897578,2024-09-10T06:48:17.578Z,49769,0.4506836,-0.8341675,0.2084961
1725950897606,2024-09-10T06:48:17.606Z,49797,0.47052002,-0.84814453,0.20788574
1725950897651,2024-09-10T06:48:17.651Z,49842,0.4718628,-0.86260986,0.2265625
1725950897698,2024-09-10T06:48:17.698Z,49889,0.47088623,-0.85821533,0.23931885
1725950897743,2024-09-10T06:48:17.743Z,49934,0.4794922,-0.8475952,0.2397461
1725950897788,2024-09-10T06:48:17.788Z,49979,0.5067749,-0.84710693,0.2529297
1725950897845,2024-09-10T06:48:17.845Z,50036,0.54693604,-0.84350586,0.24560547
1725950897877,2024-09-10T06:48:17.877Z,50068,0.5628052,-0.8392334,0.24938965
1725950897931,2024-09-10T06:48:17.931Z,50122,0.5780029,-0.8341675,0.24743652
1725950897949,2024-09-10T06:48:17.949Z,50140,0.5774536,-0.83447266,0.25726318
1725950897967,2024-09-10T06:48:17.967Z,50158,0.57336426,-0.8338623,0.2607422
1725950898012,2024-09-10T06:48:18.012Z,50203,0.57489014,-0.83465576,0.274292
1725950898058,2024-09-10T06:48:18.058Z,50249,0.5704956,-0.8375244,0.27752686
1725950898102,2024-09-10T06:48:18.102Z,50293,0.5734863,-0.8364258,0.2855835
1725950898145,2024-09-10T06:48:18.145Z,50336,0.5745239,-0.8335571,0.286438
1725950898201,2024-09-10T06:48:18.201Z,50392,0.576416,-0.8262329,0.28094482
1725950898249,2024-09-10T06:48:18.249Z,50440,0.58380127,-0.8226929,0.28710938
1725950898283,2024-09-10T06:48:18.283Z,50474,0.5964966,-0.828125,0.2935791
1725950898328,2024-09-10T06:48:18.328Z,50519,0.595459,-0.836792,0.30767822
1725950898345,2024-09-10T06:48:18.345Z,50536,0.5775757,-0.83721924,0.3190918
1725950898381,2024-09-10T06:48:18.381Z,50572,0.5567627,-0.828125,0.3180542
1725950898417,2024-09-10T06:48:18.417Z,50608,0.5473633,-0.8175659,0.3081665
1725950898462,2024-09-10T06:48:18.462Z,50653,0.5504761,-0.8132324,0.30267334
1725950898507,2024-09-10T06:48:18.507Z,50698,0.5494385,-0.8097534,0.28607178
1725950898554,2024-09-10T06:48:18.554Z,50745,0.55755615,-0.8161621,0.29766846
1725950898643,2024-09-10T06:48:18.643Z,50834,0.54400635,-0.81689453,0.29577637
1725950898663,2024-09-10T06:48:18.663Z,50854,0.5366211,-0.82373047,0.28967285
1725950898687,2024-09-10T06:48:18.687Z,50878,0.5487671,-0.8421631,0.29370117
1725950898739,2024-09-10T06:48:18.739Z,50930,0.5557251,-0.85284424,0.28936768
1725950898754,2024-09-10T06:48:18.754Z,50945,0.55755615,-0.85375977,0.30004883
1725950898781,2024-09-10T06:48:18.781Z,50972,0.5488281,-0.84436035,0.30462646
1725950898870,2024-09-10T06:48:18.870Z,51061,0.5430298,-0.84698486,0.31036377
1725950898888,2024-09-10T06:48:18.888Z,51079,0.54608154,-0.8588257,0.31640625
1725950898911,2024-09-10T06:48:18.911Z,51102,0.52441406,-0.8629761,0.31988525
1725950898957,2024-09-10T06:48:18.957Z,51148,0.49890137,-0.8513794,0.32080078
1725950899048,2024-09-10T06:48:19.048Z,51239,0.48443604,-0.84588623,0.30847168
1725950899066,2024-09-10T06:48:19.066Z,51257,0.47747803,-0.8511963,0.2921753
1725950899091,2024-09-10T06:48:19.091Z,51282,0.49780273,-0.8539429,0.28234863
1725950899136,2024-09-10T06:48:19.136Z,51327,0.5075073,-0.86083984,0.27227783
1725950899183,2024-09-10T06:48:19.183Z,51374,0.5095215,-0.8695679,0.28411865
1725950899200,2024-09-10T06:48:19.200Z,51391,0.4991455,-0.87316895,0.3078003
1725950899226,2024-09-10T06:48:19.226Z,51417,0.46722412,-0.86883545,0.32720947
1725950899273,2024-09-10T06:48:19.273Z,51464,0.46343994,-0.8600464,0.32403564
1725950899317,2024-09-10T06:48:19.317Z,51508,0.4537964,-0.854187,0.3168335
1725950899362,2024-09-10T06:48:19.362Z,51553,0.45373535,-0.8369751,0.28863525
1725950899407,2024-09-10T06:48:19.407Z,51598,0.45465088,-0.8251343,0.2802124
1725950899453,2024-09-10T06:48:19.453Z,51644,0.4310913,-0.82006836,0.25665283
1725950899498,2024-09-10T06:48:19.498Z,51689,0.41583252,-0.8166504,0.24700928
1725950899542,2024-09-10T06:48:19.542Z,51733,0.39135742,-0.83032227,0.25952148
1725950899587,2024-09-10T06:48:19.587Z,51778,0.37097168,-0.84942627,0.2489624
1725950899605,2024-09-10T06:48:19.605Z,51796,0.35095215,-0.86206055,0.24554443
1725950899680,2024-09-10T06:48:19.680Z,51871,0.33398438,-0.8629761,0.22912598
1725950899698,2024-09-10T06:48:19.698Z,51889,0.31030273,-0.8597412,0.20959473
1725950899719,2024-09-10T06:48:19.719Z,51910,0.30151367,-0.8553467,0.18078613
1725950899766,2024-09-10T06:48:19.766Z,51957,0.29559326,-0.8626709,0.17736816
1725950899814,2024-09-10T06:48:19.814Z,52005,0.28564453,-0.86834717,0.15960693
1725950899857,2024-09-10T06:48:19.857Z,52048,0.29223633,-0.8560791,0.17553711
1725950899903,2024-09-10T06:48:19.903Z,52094,0.27679443,-0.838501,0.15795898
1725950899948,2024-09-10T06:48:19.948Z,52139,0.2600708,-0.83270264,0.15106201
1725950899993,2024-09-10T06:48:19.993Z,52184,0.24627686,-0.83258057,0.14202881
1725950900010,2024-09-10T06:48:20.010Z,52201,0.22491455,-0.8374634,0.12628174
1725950900037,2024-09-10T06:48:20.037Z,52228,0.2255249,-0.8417969,0.1348877
1725950900083,2024-09-10T06:48:20.083Z,52274,0.2020874,-0.84802246,0.13238525
1725950900129,2024-09-10T06:48:20.129Z,52320,0.19165039,-0.8493042,0.12463379
1725950900175,2024-09-10T06:48:20.175Z,52366,0.18432617,-0.86413574,0.1328125
1725950900219,2024-09-10T06:48:20.219Z,52410,0.18096924,-0.88256836,0.11291504
1725950900263,2024-09-10T06:48:20.263Z,52454,0.19073486,-0.89068604,0.12145996
1725950900308,2024-09-10T06:48:20.308Z,52499,0.18359375,-0.9172363,0.12579346
1725950900353,2024-09-10T06:48:20.353Z,52544,0.19006348,-0.9241333,0.12768555
1725950900399,2024-09-10T06:48:20.399Z,52590,0.19024658,-0.930603,0.13092041
1725950900489,2024-09-10T06:48:20.489Z,52680,0.19720459,-0.93811035,0.11608887
1725950900507,2024-09-10T06:48:20.507Z,52698,0.21539307,-0.94970703,0.10845947
1725950900525,2024-09-10T06:48:20.525Z,52716,0.23297119,-0.961853,0.08868408
1725950900541,2024-09-10T06:48:20.541Z,52732,0.24822998,-0.96014404,0.076416016
1725950900578,2024-09-10T06:48:20.578Z,52769,0.24316406,-0.9604492,0.08795166
1725950900622,2024-09-10T06:48:20.622Z,52813,0.23468018,-0.95581055,0.09350586
1725950900667,2024-09-10T06:48:20.667Z,52858,0.22003174,-0.9530029,0.097351074
1725950900711,2024-09-10T06:48:20.711Z,52902,0.21655273,-0.95373535,0.09625244
1725950900761,2024-09-10T06:48:20.761Z,52952,0.2109375,-0.9606323,0.09173584
1725950900804,2024-09-10T06:48:20.804Z,52995,0.2041626,-0.9644165,0.091796875
1725950900848,2024-09-10T06:48:20.848Z,53039,0.1954956,-0.9675293,0.09387207
1725950900865,2024-09-10T06:48:20.865Z,53056,0.18371582,-0.9639282,0.09326172
1725950900894,2024-09-10T06:48:20.894Z,53085,0.18109131,-0.9578247,0.09588623
1725950900936,2024-09-10T06:48:20.936Z,53127,0.18188477,-0.9571533,0.09564209
1725950900982,2024-09-10T06:48:20.982Z,53173,0.17675781,-0.95910645,0.097473145
1725950901026,2024-09-10T06:48:21.026Z,53217,0.18023682,-0.9595947,0.09863281
1725950901073,2024-09-10T06:48:21.073Z,53264,0.17572021,-0.95880127,0.10992432
1725950901116,2024-09-10T06:48:21.116Z,53307,0.16394043,-0.9503174,0.11315918
1725950901162,2024-09-10T06:48:21.162Z,53353,0.15930176,-0.940979,0.118896484
1725950901208,2024-09-10T06:48:21.208Z,53399,0.15289307,-0.93273926,0.117370605
1725950901253,2024-09-10T06:48:21.253Z,53444,0.15118408,-0.9295044,0.11853027
1725950901272,2024-09-10T06:48:21.272Z,53463,0.15264893,-0.932251,0.12298584
1725950901293,2024-09-10T06:48:21.293Z,53484,0.16864014,-0.9254761,0.11303711
1725950901342,2024-09-10T06:48:21.342Z,53533,0.20025635,-0.91381836,0.118896484
1725950901389,2024-09-10T06:48:21.389Z,53580,0.22174072,-0.895874,0.13122559
1725950901431,2024-09-10T06:48:21.431Z,53622,0.23431396,-0.87353516,0.1293335
1725950901477,2024-09-10T06:48:21.477Z,53668,0.2508545,-0.8647461,0.13427734
1725950901523,2024-09-10T06:48:21.523Z,53714,0.27209473,-0.8591919,0.14251709
1725950901566,2024-09-10T06:48:21.566Z,53757,0.2897339,-0.8480835,0.14208984
1725950901611,2024-09-10T06:48:21.611Z,53802,0.3100586,-0.83239746,0.1539917
1725950901658,2024-09-10T06:48:21.658Z,53849,0.3302002,-0.8210449,0.14892578
1725950901704,2024-09-10T06:48:21.704Z,53895,0.3428955,-0.81414795,0.15411377
1725950901724,2024-09-10T06:48:21.724Z,53915,0.36254883,-0.8150635,0.15466309
1725950901747,2024-09-10T06:48:21.747Z,53938,0.37371826,-0.8175049,0.16107178
1725950901792,2024-09-10T06:48:21.792Z,53983,0.37945557,-0.8111572,0.16290283
1725950901838,2024-09-10T06:48:21.838Z,54029,0.38165283,-0.8071289,0.16864014
1725950901883,2024-09-10T06:48:21.883Z,54074,0.37109375,-0.8031006,0.17089844
1725950901939,2024-09-10T06:48:21.939Z,54130,0.35742188,-0.8048096,0.17907715
1725950902020,2024-09-10T06:48:22.020Z,54211,0.36224365,-0.8096924,0.18164062
1725950902039,2024-09-10T06:48:22.039Z,54230,0.34985352,-0.8117676,0.17755127
1725950902060,2024-09-10T06:48:22.060Z,54251,0.36749268,-0.79681396,0.19091797
1725950902108,2024-09-10T06:48:22.108Z,54299,0.38378906,-0.7914429,0.19567871
1725950902125,2024-09-10T06:48:22.125Z,54316,0.41638184,-0.79748535,0.22918701
1725950902155,2024-09-10T06:48:22.155Z,54346,0.44708252,-0.8121948,0.24621582
1725950902196,2024-09-10T06:48:22.196Z,54387,0.47998047,-0.83306885,0.2506714
1725950902243,2024-09-10T06:48:22.243Z,54434,0.52008057,-0.8562622,0.2579956
1725950902288,2024-09-10T06:48:22.288Z,54479,0.55407715,-0.8735962,0.26586914
1725950902331,2024-09-10T06:48:22.331Z,54522,0.5881958,-0.87976074,0.276062
1725950902377,2024-09-10T06:48:22.377Z,54568,0.5950928,-0.8828125,0.28198242
1725950902421,2024-09-10T06:48:22.421Z,54612,0.5838623,-0.8741455,0.27789307
1725950902467,2024-09-10T06:48:22.467Z,54658,0.5675659,-0.85321045,0.2642212
1725950902513,2024-09-10T06:48:22.513Z,54704,0.5667114,-0.8154297,0.2617798
1725950902530,2024-09-10T06:48:22.530Z,54721,0.5840454,-0.7828369,0.24700928
1725950902557,2024-09-10T06:48:22.557Z,54748,0.5841675,-0.78863525,0.25054932
1725950902646,2024-09-10T06:48:22.646Z,54837,0.58374023,-0.7973633,0.26489258
1725950902664,2024-09-10T06:48:22.664Z,54855,0.59228516,-0.7955322,0.27270508
1725950902691,2024-09-10T06:48:22.691Z,54882,0.6194458,-0.78186035,0.2982788
1725950902739,2024-09-10T06:48:22.739Z,54930,0.6334839,-0.7683716,0.3081665
1725950902782,2024-09-10T06:48:22.782Z,54973,0.6400757,-0.7636719,0.31469727
1725950902829,2024-09-10T06:48:22.829Z,55020,0.6416626,-0.7779541,0.3250122
1725950902873,2024-09-10T06:48:22.873Z,55064,0.6451416,-0.7918091,0.33374023
1725950902917,2024-09-10T06:48:22.917Z,55108,0.6526489,-0.7982178,0.35650635
1725950902962,2024-09-10T06:48:22.962Z,55153,0.6637573,-0.78845215,0.37091064
1725950902982,2024-09-10T06:48:22.982Z,55173,0.67736816,-0.77246094,0.38024902
1725950903009,2024-09-10T06:48:23.009Z,55200,0.67822266,-0.74957275,0.38116455
1725950903051,2024-09-10T06:48:23.051Z,55242,0.68200684,-0.734375,0.38183594
1725950903097,2024-09-10T06:48:23.097Z,55288,0.68878174,-0.7344971,0.39068604
1725950903141,2024-09-10T06:48:23.141Z,55332,0.6848755,-0.7451782,0.3892212
1725950903187,2024-09-10T06:48:23.187Z,55378,0.66937256,-0.77545166,0.390625
1725950903233,2024-09-10T06:48:23.233Z,55424,0.6697998,-0.80126953,0.37225342
1725950903281,2024-09-10T06:48:23.281Z,55472,0.6755371,-0.7949829,0.3322754
1725950903322,2024-09-10T06:48:23.322Z,55513,0.6850586,-0.7741089,0.31072998
1725950903369,2024-09-10T06:48:23.369Z,55560,0.67840576,-0.7468872,0.29400635
1725950903398,2024-09-10T06:48:23.398Z,55589,0.66259766,-0.72387695,0.2779541
1725950903417,2024-09-10T06:48:23.417Z,55608,0.63720703,-0.720459,0.28588867
1725950903455,2024-09-10T06:48:23.455Z,55646,0.62768555,-0.7297363,0.28302002
1725950903500,2024-09-10T06:48:23.500Z,55691,0.6295166,-0.74823,0.29187012
1725950903548,2024-09-10T06:48:23.548Z,55739,0.6203003,-0.77752686,0.289917
1725950903594,2024-09-10T06:48:23.594Z,55785,0.6078491,-0.8033447,0.28814697
1725950903636,2024-09-10T06:48:23.636Z,55827,0.585022,-0.7973633,0.28204346
1725950903682,2024-09-10T06:48:23.682Z,55873,0.5563965,-0.7779541,0.27618408
1725950903791,2024-09-10T06:48:23.791Z,55982,0.5267334,-0.7559204,0.2925415
1725950903810,2024-09-10T06:48:23.810Z,56001,0.4946289,-0.737854,0.25445557
1725950903825,2024-09-10T06:48:23.825Z,56016,0.48980713,-0.7223511,0.28826904
1725950903835,2024-09-10T06:48:23.835Z,56026,0.49035645,-0.7327881,0.2345581
1725950903860,2024-09-10T06:48:23.860Z,56051,0.52819824,-0.763916,0.25439453
1725950903910,2024-09-10T06:48:23.910Z,56101,0.5222168,-0.8133545,0.24108887
1725950903952,2024-09-10T06:48:23.952Z,56143,0.5073242,-0.861084,0.24243164
1725950903998,2024-09-10T06:48:23.998Z,56189,0.46313477,-0.8937988,0.24499512
1725950904042,2024-09-10T06:48:24.042Z,56233,0.42999268,-0.8876953,0.21209717
1725950904087,2024-09-10T06:48:24.087Z,56278,0.4194336,-0.8635864,0.19946289
1725950904132,2024-09-10T06:48:24.132Z,56323,0.40234375,-0.81799316,0.14129639
1725950904177,2024-09-10T06:48:24.177Z,56368,0.38513184,-0.7838135,0.14416504
1725950904224,2024-09-10T06:48:24.224Z,56415,0.34381104,-0.7764282,0.15240479
1725950904242,2024-09-10T06:48:24.242Z,56433,0.2956543,-0.7910156,0.14538574
1725950904266,2024-09-10T06:48:24.266Z,56457,0.27807617,-0.8059082,0.12963867
1725950904312,2024-09-10T06:48:24.312Z,56503,0.2468872,-0.815979,0.12817383
1725950904358,2024-09-10T06:48:24.358Z,56549,0.22790527,-0.82092285,0.1194458
1725950904404,2024-09-10T06:48:24.404Z,56595,0.20263672,-0.83032227,0.105895996
1725950904449,2024-09-10T06:48:24.449Z,56640,0.19866943,-0.84472656,0.09301758
1725950904493,2024-09-10T06:48:24.493Z,56684,0.20727539,-0.8640747,0.08099365
1725950904538,2024-09-10T06:48:24.538Z,56729,0.23101807,-0.8911133,0.068115234
1725950904582,2024-09-10T06:48:24.582Z,56773,0.24450684,-0.91729736,0.057495117
1725950904629,2024-09-10T06:48:24.629Z,56820,0.24066162,-0.94311523,0.06573486
1725950904646,2024-09-10T06:48:24.646Z,56837,0.23657227,-0.9642334,0.074157715
1725950904670,2024-09-10T06:48:24.670Z,56861,0.20550537,-0.9763794,0.08880615
1725950904716,2024-09-10T06:48:24.716Z,56907,0.17926025,-0.96917725,0.095825195
1725950904762,2024-09-10T06:48:24.762Z,56953,0.15661621,-0.9468994,0.10070801
1725950904805,2024-09-10T06:48:24.805Z,56996,0.12597656,-0.9302368,0.10015869
1725950904853,2024-09-10T06:48:24.853Z,57044,0.114990234,-0.9213257,0.10192871
1725950904898,2024-09-10T06:48:24.898Z,57089,0.09338379,-0.9276123,0.08703613
1725950904940,2024-09-10T06:48:24.940Z,57131,0.08123779,-0.9388428,0.07458496
1725950904986,2024-09-10T06:48:24.986Z,57177,0.068115234,-0.9440918,0.083984375
1725950905033,2024-09-10T06:48:25.033Z,57224,0.07861328,-0.9595947,0.074645996
1725950905051,2024-09-10T06:48:25.051Z,57242,0.09069824,-0.9789429,0.08477783
1725950905077,2024-09-10T06:48:25.077Z,57268,0.09527588,-0.99591064,0.09075928
1725950905122,2024-09-10T06:48:25.122Z,57313,0.10272217,-1.0050659,0.0960083
1725950905167,2024-09-10T06:48:25.167Z,57358,0.10571289,-0.98883057,0.097473145
1725950905214,2024-09-10T06:48:25.214Z,57405,0.097473145,-0.9659424,0.083740234
1725950905256,2024-09-10T06:48:25.256Z,57447,0.09515381,-0.9550171,0.073791504
1725950905301,2024-09-10T06:48:25.301Z,57492,0.08807373,-0.9655762,0.06323242
1725950905347,2024-09-10T06:48:25.347Z,57538,0.083984375,-0.98205566,0.066467285
1725950905438,2024-09-10T06:48:25.438Z,57629,0.074035645,-0.99108887,0.064208984
1725950905459,2024-09-10T06:48:25.459Z,57650,0.07525635,-0.9961548,0.072753906
1725950905480,2024-09-10T06:48:25.480Z,57671,0.066345215,-0.9991455,0.0826416
1725950905497,2024-09-10T06:48:25.497Z,57688,0.06011963,-0.9968262,0.08795166
1725950905526,2024-09-10T06:48:25.526Z,57717,0.05267334,-0.9844971,0.093811035
1725950905572,2024-09-10T06:48:25.572Z,57763,0.0413208,-0.96990967,0.09118652
1725950905621,2024-09-10T06:48:25.621Z,57812,0.037109375,-0.9534302,0.09118652
1725950905662,2024-09-10T06:48:25.662Z,57853,0.041625977,-0.9473877,0.086120605
1725950905708,2024-09-10T06:48:25.708Z,57899,0.050109863,-0.9480591,0.085632324
1725950905754,2024-09-10T06:48:25.754Z,57945,0.06378174,-0.94989014,0.08868408
1725950905796,2024-09-10T06:48:25.796Z,57987,0.06756592,-0.9550171,0.07373047
1725950905841,2024-09-10T06:48:25.841Z,58032,0.09942627,-0.96295166,0.09124756
1725950905885,2024-09-10T06:48:25.885Z,58076,0.11566162,-0.95532227,0.09320068
1725950905902,2024-09-10T06:48:25.902Z,58093,0.14056396,-0.9437256,0.09906006
1725950905932,2024-09-10T06:48:25.932Z,58123,0.18341064,-0.93536377,0.1071167
1725950905978,2024-09-10T06:48:25.978Z,58169,0.2006836,-0.9255371,0.12451172
1725950906020,2024-09-10T06:48:26.020Z,58211,0.19818115,-0.9139404,0.13739014
1725950906075,2024-09-10T06:48:26.075Z,58266,0.2107544,-0.9005127,0.14471436
1725950906111,2024-09-10T06:48:26.111Z,58302,0.21990967,-0.88983154,0.1628418
1725950906157,2024-09-10T06:48:26.157Z,58348,0.22052002,-0.87005615,0.15820312
1725950906248,2024-09-10T06:48:26.248Z,58439,0.27148438,-0.8451538,0.15386963
1725950906265,2024-09-10T06:48:26.265Z,58456,0.28735352,-0.82647705,0.17382812
1725950906292,2024-09-10T06:48:26.292Z,58483,0.29345703,-0.7932129,0.17938232
1725950906308,2024-09-10T06:48:26.308Z,58499,0.3050537,-0.7824707,0.1906128
1725950906336,2024-09-10T06:48:26.336Z,58527,0.33764648,-0.788147,0.21624756
1725950906381,2024-09-10T06:48:26.381Z,58572,0.3475952,-0.7923584,0.23712158
1725950906429,2024-09-10T06:48:26.429Z,58620,0.35375977,-0.8034668,0.2526245
1725950906475,2024-09-10T06:48:26.475Z,58666,0.36035156,-0.8185425,0.25372314
1725950906517,2024-09-10T06:48:26.517Z,58708,0.37530518,-0.82440186,0.2645874
1725950906563,2024-09-10T06:48:26.563Z,58754,0.36975098,-0.8397827,0.27661133
1725950906606,2024-09-10T06:48:26.606Z,58797,0.3414917,-0.8411255,0.27252197
1725950906654,2024-09-10T06:48:26.654Z,58845,0.31878662,-0.85162354,0.2859497
1725950906696,2024-09-10T06:48:26.696Z,58887,0.30047607,-0.8548584,0.2906494
1725950906741,2024-09-10T06:48:26.741Z,58932,0.3239746,-0.8352661,0.28771973
1725950906759,2024-09-10T06:48:26.759Z,58950,0.35736084,-0.8121338,0.29510498
1725950906786,2024-09-10T06:48:26.786Z,58977,0.38787842,-0.8015137,0.30688477
1725950906833,2024-09-10T06:48:26.833Z,59024,0.3998413,-0.8109741,0.30926514
1725950906878,2024-09-10T06:48:26.878Z,59069,0.4072876,-0.8401489,0.31311035
1725950906922,2024-09-10T06:48:26.922Z,59113,0.4230957,-0.8798218,0.33380127
1725950906968,2024-09-10T06:48:26.968Z,59159,0.45440674,-0.9298096,0.31628418
1725950907010,2024-09-10T06:48:27.010Z,59201,0.4423828,-0.97143555,0.3232422
1725950907057,2024-09-10T06:48:27.057Z,59248,0.41455078,-0.9631958,0.33538818
1725950907101,2024-09-10T06:48:27.101Z,59292,0.41125488,-0.91137695,0.32183838
1725950907145,2024-09-10T06:48:27.145Z,59336,0.42926025,-0.8456421,0.3149414
1725950907160,2024-09-10T06:48:27.160Z,59351,0.44622803,-0.80462646,0.3034668
1725950907191,2024-09-10T06:48:27.191Z,59382,0.46002197,-0.81274414,0.31274414
1725950907237,2024-09-10T06:48:27.237Z,59428,0.4734497,-0.8300171,0.3314209
1725950907327,2024-09-10T06:48:27.327Z,59518,0.48901367,-0.84454346,0.3486328
1725950907347,2024-09-10T06:48:27.347Z,59538,0.5061035,-0.852478,0.34735107
1725950907371,2024-09-10T06:48:27.371Z,59562,0.5083618,-0.8685303,0.34594727
1725950907417,2024-09-10T06:48:27.417Z,59608,0.51782227,-0.8685303,0.3324585
1725950907464,2024-09-10T06:48:27.464Z,59655,0.5459595,-0.8701172,0.3395996
1725950907508,2024-09-10T06:48:27.508Z,59699,0.5765991,-0.8649292,0.35321045
1725950907553,2024-09-10T06:48:27.553Z,59744,0.5863037,-0.8675537,0.38226318
1725950907574,2024-09-10T06:48:27.574Z,59765,0.5571289,-0.8685303,0.38763428
1725950907601,2024-09-10T06:48:27.601Z,59792,0.5325928,-0.87646484,0.39971924
1725950907642,2024-09-10T06:48:27.642Z,59833,0.5095825,-0.88409424,0.38500977
1725950907690,2024-09-10T06:48:27.690Z,59881,0.5028076,-0.87493896,0.37017822
1725950907735,2024-09-10T06:48:27.735Z,59926,0.51416016,-0.85980225,0.35736084
1725950907780,2024-09-10T06:48:27.780Z,59971,0.5133667,-0.86151123,0.34918213
1725950907823,2024-09-10T06:48:27.823Z,60014,0.5189209,-0.85943604,0.35308838
1725950907868,2024-09-10T06:48:27.868Z,60059,0.5130615,-0.866272,0.33416748
1725950907913,2024-09-10T06:48:27.913Z,60104,0.520874,-0.87945557,0.3348999
1725950907960,2024-09-10T06:48:27.960Z,60151,0.5244751,-0.90008545,0.34436035
1725950908002,2024-09-10T06:48:28.002Z,60193,0.51153564,-0.9190674,0.33544922
1725950908019,2024-09-10T06:48:28.019Z,60210,0.48742676,-0.9310303,0.34429932
1725950908052,2024-09-10T06:48:28.052Z,60243,0.45629883,-0.92645264,0.3324585
1725950908092,2024-09-10T06:48:28.092Z,60283,0.44378662,-0.90545654,0.33514404
1725950908138,2024-09-10T06:48:28.138Z,60329,0.4274292,-0.8869629,0.34240723
1725950908180,2024-09-10T06:48:28.180Z,60371,0.42681885,-0.87316895,0.31811523
1725950908225,2024-09-10T06:48:28.225Z,60416,0.4024048,-0.88812256,0.32452393
1725950908270,2024-09-10T06:48:28.270Z,60461,0.35327148,-0.89208984,0.30029297
1725950908317,2024-09-10T06:48:28.317Z,60508,0.33251953,-0.8789673,0.27874756
1725950908362,2024-09-10T06:48:28.362Z,60553,0.3297119,-0.8731079,0.28137207
1725950908408,2024-09-10T06:48:28.408Z,60599,0.30792236,-0.8685303,0.24346924
1725950908426,2024-09-10T06:48:28.426Z,60617,0.31829834,-0.8685913,0.25268555
1725950908452,2024-09-10T06:48:28.452Z,60643,0.30596924,-0.87713623,0.23669434
1725950908495,2024-09-10T06:48:28.495Z,60686,0.3060913,-0.89923096,0.2531128
1725950908543,2024-09-10T06:48:28.543Z,60734,0.28753662,-0.9135742,0.2506714
1725950908587,2024-09-10T06:48:28.587Z,60778,0.26812744,-0.9168701,0.2432251
1725950908630,2024-09-10T06:48:28.630Z,60821,0.24865723,-0.9083252,0.23956299
1725950908677,2024-09-10T06:48:28.677Z,60868,0.22302246,-0.88653564,0.21362305
1725950908723,2024-09-10T06:48:28.723Z,60914,0.22094727,-0.8621216,0.20410156
1725950908766,2024-09-10T06:48:28.766Z,60957,0.1906128,-0.86169434,0.18347168
1725950908810,2024-09-10T06:48:28.810Z,61001,0.17785645,-0.8588867,0.17700195
1725950908826,2024-09-10T06:48:28.826Z,61017,0.15460205,-0.8578491,0.17590332
1725950908856,2024-09-10T06:48:28.856Z,61047,0.13366699,-0.8377075,0.15350342
1725950908902,2024-09-10T06:48:28.902Z,61093,0.13580322,-0.81848145,0.16583252
1725950908948,2024-09-10T06:48:28.948Z,61139,0.12860107,-0.81622314,0.1459961
1725950908993,2024-09-10T06:48:28.993Z,61184,0.11016846,-0.8129883,0.14685059
1725950909035,2024-09-10T06:48:29.035Z,61226,0.081604004,-0.81225586,0.12414551
1725950909082,2024-09-10T06:48:29.082Z,61273,0.073791504,-0.8330078,0.121276855
1725950909128,2024-09-10T06:48:29.128Z,61319,0.06628418,-0.87054443,0.128479
1725950909174,2024-09-10T06:48:29.174Z,61365,0.06390381,-0.90063477,0.11779785
1725950909217,2024-09-10T06:48:29.217Z,61408,0.06506348,-0.923645,0.1352539
1725950909260,2024-09-10T06:48:29.260Z,61451,0.053955078,-0.94488525,0.12506104
1725950909270,2024-09-10T06:48:29.270Z,61461,0.06817627,-0.9680176,0.12866211
1725950909302,2024-09-10T06:48:29.302Z,61493,0.06048584,-1.0011597,0.1307373
1725950909347,2024-09-10T06:48:29.347Z,61538,0.064575195,-1.0142822,0.12854004
1725950909392,2024-09-10T06:48:29.392Z,61583,0.05230713,-1.0007935,0.12866211
1725951014872,2024-09-10T06:50:14.872Z,167063,0.30200195,-0.89178467,0.18371582
1725951014917,2024-09-10T06:50:14.917Z,167108,0.29803467,-0.8903198,0.18389893
1725951014962,2024-09-10T06:50:14.962Z,167153,0.296875,-0.87664795,0.18237305
1725951015007,2024-09-10T06:50:15.007Z,167198,0.30169678,-0.87042236,0.18170166
1725951015052,2024-09-10T06:50:15.052Z,167243,0.321167,-0.87579346,0.18530273
1725951015097,2024-09-10T06:50:15.097Z,167288,0.3395996,-0.8944092,0.19348145
1725951015123,2024-09-10T06:50:15.123Z,167314,0.36016846,-0.8965454,0.20550537
1725951015145,2024-09-10T06:50:15.145Z,167336,0.3624878,-0.88653564,0.20996094
1725951015191,2024-09-10T06:50:15.191Z,167382,0.3682251,-0.86273193,0.20458984
1725951015235,2024-09-10T06:50:15.235Z,167426,0.36346436,-0.8428345,0.20178223
1725951015281,2024-09-10T06:50:15.281Z,167472,0.34991455,-0.8217163,0.19439697
1725951015328,2024-09-10T06:50:15.328Z,167519,0.34631348,-0.7982788,0.18701172
1725951015370,2024-09-10T06:50:15.370Z,167561,0.35766602,-0.7814331,0.1918335
1725951015417,2024-09-10T06:50:15.417Z,167608,0.37176514,-0.7593384,0.1998291
1725951015460,2024-09-10T06:50:15.460Z,167651,0.39508057,-0.7472534,0.20684814
1725951015507,2024-09-10T06:50:15.507Z,167698,0.43011475,-0.7492676,0.230896
1725951015535,2024-09-10T06:50:15.535Z,167726,0.45611572,-0.7585449,0.26470947
1725951015558,2024-09-10T06:50:15.558Z,167749,0.46484375,-0.7625122,0.29473877
1725951015591,2024-09-10T06:50:15.591Z,167782,0.4555664,-0.7612915,0.30285645
1725951015637,2024-09-10T06:50:15.637Z,167828,0.47149658,-0.75616455,0.3059082
1725951015687,2024-09-10T06:50:15.687Z,167878,0.4708252,-0.75115967,0.2999878
1725951015731,2024-09-10T06:50:15.731Z,167922,0.46899414,-0.7428589,0.2841797
1725951015775,2024-09-10T06:50:15.775Z,167966,0.4869995,-0.7416382,0.28588867
1725951015821,2024-09-10T06:50:15.821Z,168012,0.4935913,-0.74749756,0.28735352
1725951015866,2024-09-10T06:50:15.866Z,168057,0.49273682,-0.75512695,0.29418945
1725951015910,2024-09-10T06:50:15.910Z,168101,0.49926758,-0.770813,0.30767822
1725951015938,2024-09-10T06:50:15.938Z,168129,0.49786377,-0.78637695,0.3098755
1725951015960,2024-09-10T06:50:15.960Z,168151,0.5117798,-0.79400635,0.31628418
1725951015998,2024-09-10T06:50:15.998Z,168189,0.5249634,-0.79907227,0.29821777
1725951016048,2024-09-10T06:50:16.048Z,168239,0.56152344,-0.7918091,0.28131104
1725951016089,2024-09-10T06:50:16.089Z,168280,0.58496094,-0.7807617,0.2765503
1725951016183,2024-09-10T06:50:16.183Z,168374,0.58935547,-0.77819824,0.27215576
1725951016217,2024-09-10T06:50:16.217Z,168408,0.58135986,-0.77685547,0.2819214
1725951016247,2024-09-10T06:50:16.247Z,168438,0.5790405,-0.7661133,0.2750244
1725951016268,2024-09-10T06:50:16.268Z,168459,0.5979614,-0.76898193,0.2765503
1725951016314,2024-09-10T06:50:16.314Z,168505,0.6218262,-0.77142334,0.2713623
1725951016362,2024-09-10T06:50:16.362Z,168553,0.64227295,-0.7617798,0.27752686
1725951016388,2024-09-10T06:50:16.388Z,168579,0.6419678,-0.75061035,0.28833008
1725951016409,2024-09-10T06:50:16.409Z,168600,0.6243286,-0.75671387,0.2946167
1725951016449,2024-09-10T06:50:16.449Z,168640,0.6101074,-0.7562866,0.2892456
1725951016497,2024-09-10T06:50:16.497Z,168688,0.6102295,-0.75305176,0.29656982
1725951016540,2024-09-10T06:50:16.540Z,168731,0.6282959,-0.75427246,0.30133057
1725951016586,2024-09-10T06:50:16.586Z,168777,0.6359863,-0.7557373,0.3043213
1725951016631,2024-09-10T06:50:16.631Z,168822,0.62402344,-0.74645996,0.29919434
1725951016719,2024-09-10T06:50:16.719Z,168910,0.6085205,-0.7349243,0.29870605
1725951016750,2024-09-10T06:50:16.750Z,168941,0.60095215,-0.72442627,0.28741455
1725951016778,2024-09-10T06:50:16.778Z,168969,0.59594727,-0.7216797,0.28649902
1725951016797,2024-09-10T06:50:16.797Z,168988,0.598999,-0.7246704,0.2909546
1725951016816,2024-09-10T06:50:16.816Z,169007,0.6069946,-0.7319946,0.2886963
1725951016852,2024-09-10T06:50:16.852Z,169043,0.62286377,-0.74523926,0.30096436
1725951016900,2024-09-10T06:50:16.900Z,169091,0.63604736,-0.7526245,0.31030273
1725951016947,2024-09-10T06:50:16.947Z,169138,0.63861084,-0.75,0.32629395
1725951016990,2024-09-10T06:50:16.990Z,169181,0.6341553,-0.7492676,0.33355713
1725951017037,2024-09-10T06:50:17.037Z,169228,0.62268066,-0.75006104,0.3383789
1725951017080,2024-09-10T06:50:17.080Z,169271,0.60150146,-0.74542236,0.32867432
1725951017124,2024-09-10T06:50:17.124Z,169315,0.5869751,-0.7399292,0.31500244
1725951017170,2024-09-10T06:50:17.170Z,169361,0.58465576,-0.7375488,0.30584717
1725951017196,2024-09-10T06:50:17.196Z,169387,0.58807373,-0.7272339,0.30493164
1725951017215,2024-09-10T06:50:17.215Z,169406,0.59313965,-0.7111206,0.31866455
1725951017257,2024-09-10T06:50:17.257Z,169448,0.5918579,-0.70251465,0.33496094
1725951017301,2024-09-10T06:50:17.301Z,169492,0.58062744,-0.70544434,0.32531738
1725951017352,2024-09-10T06:50:17.352Z,169543,0.58740234,-0.7316284,0.32495117
1725951017396,2024-09-10T06:50:17.396Z,169587,0.6062622,-0.76763916,0.33392334
1725951017440,2024-09-10T06:50:17.440Z,169631,0.62542725,-0.78900146,0.3449707
1725951017532,2024-09-10T06:50:17.532Z,169723,0.6322632,-0.8062744,0.36914062
1725951017564,2024-09-10T06:50:17.564Z,169755,0.62127686,-0.8180542,0.3831787
1725951017587,2024-09-10T06:50:17.587Z,169778,0.6017456,-0.7999878,0.3564453
1725951017619,2024-09-10T06:50:17.619Z,169810,0.6000366,-0.7833252,0.3320923
1725951017637,2024-09-10T06:50:17.637Z,169828,0.6154785,-0.7703247,0.31292725
1725951017663,2024-09-10T06:50:17.663Z,169854,0.6325073,-0.7692261,0.30523682
1725951017710,2024-09-10T06:50:17.710Z,169901,0.63653564,-0.77978516,0.32666016
1725951017756,2024-09-10T06:50:17.756Z,169947,0.6276245,-0.7962036,0.34979248
1725951017800,2024-09-10T06:50:17.800Z,169991,0.59594727,-0.81988525,0.35809326
1725951017844,2024-09-10T06:50:17.844Z,170035,0.5673218,-0.8287964,0.34466553
1725951017889,2024-09-10T06:50:17.889Z,170080,0.55303955,-0.81121826,0.31756592
1725951017935,2024-09-10T06:50:17.935Z,170126,0.5549927,-0.78186035,0.29266357
1725951017980,2024-09-10T06:50:17.980Z,170171,0.5600586,-0.76397705,0.27667236
1725951018021,2024-09-10T06:50:18.021Z,170212,0.55596924,-0.7590332,0.2763672
1725951018039,2024-09-10T06:50:18.039Z,170230,0.5418701,-0.76275635,0.2803955
1725951018069,2024-09-10T06:50:18.069Z,170260,0.51104736,-0.7774658,0.27905273
1725951018117,2024-09-10T06:50:18.117Z,170308,0.49041748,-0.7805176,0.28302002
1725951018160,2024-09-10T06:50:18.160Z,170351,0.47576904,-0.78637695,0.2703247
1725951018206,2024-09-10T06:50:18.206Z,170397,0.47460938,-0.79852295,0.27020264
1725951018252,2024-09-10T06:50:18.252Z,170443,0.46118164,-0.8041992,0.2734375
1725951018295,2024-09-10T06:50:18.295Z,170486,0.4453125,-0.80529785,0.27612305
1725951018341,2024-09-10T06:50:18.341Z,170532,0.4161377,-0.8189697,0.28863525
1725951018389,2024-09-10T06:50:18.389Z,170580,0.387146,-0.83380127,0.28668213
1725951018431,2024-09-10T06:50:18.431Z,170622,0.35894775,-0.8446045,0.2763672
1725951018460,2024-09-10T06:50:18.460Z,170651,0.35162354,-0.84210205,0.26971436
1725951018486,2024-09-10T06:50:18.486Z,170677,0.3414917,-0.83343506,0.25128174
1725951018517,2024-09-10T06:50:18.517Z,170708,0.33502197,-0.8300781,0.25183105
1725951018565,2024-09-10T06:50:18.565Z,170756,0.31237793,-0.83599854,0.24053955
1725951018610,2024-09-10T06:50:18.610Z,170801,0.29260254,-0.83306885,0.23583984
1725951018655,2024-09-10T06:50:18.655Z,170846,0.27642822,-0.83447266,0.23352051
1725951018699,2024-09-10T06:50:18.699Z,170890,0.27386475,-0.8375244,0.2163086
1725951018745,2024-09-10T06:50:18.745Z,170936,0.27270508,-0.8475952,0.215271
1725951018793,2024-09-10T06:50:18.793Z,170984,0.26507568,-0.8572998,0.20599365
1725951018836,2024-09-10T06:50:18.836Z,171027,0.26275635,-0.8721924,0.20593262
1725951018929,2024-09-10T06:50:18.929Z,171120,0.25616455,-0.87561035,0.21368408
1725951018964,2024-09-10T06:50:18.964Z,171155,0.26849365,-0.8633423,0.22631836
1725951018990,2024-09-10T06:50:18.990Z,171181,0.26379395,-0.8577881,0.22052002
1725951019007,2024-09-10T06:50:19.007Z,171198,0.2531128,-0.8545532,0.2144165
1725951019025,2024-09-10T06:50:19.025Z,171216,0.24859619,-0.8563843,0.22460938
1725951019058,2024-09-10T06:50:19.058Z,171249,0.2144165,-0.8726196,0.20770264
1725951019104,2024-09-10T06:50:19.104Z,171295,0.19213867,-0.8831787,0.21533203
1725951019149,2024-09-10T06:50:19.149Z,171340,0.17974854,-0.8904419,0.21588135
1725951019196,2024-09-10T06:50:19.196Z,171387,0.17480469,-0.8965454,0.21862793
1725951019240,2024-09-10T06:50:19.240Z,171431,0.17755127,-0.9041748,0.22814941
1725951019288,2024-09-10T06:50:19.288Z,171479,0.18908691,-0.9188843,0.21807861
1725951019315,2024-09-10T06:50:19.315Z,171506,0.18389893,-0.9361572,0.22113037
1725951019334,2024-09-10T06:50:19.334Z,171525,0.1762085,-0.94885254,0.21508789
1725951019371,2024-09-10T06:50:19.371Z,171562,0.16259766,-0.95703125,0.21105957
1725951019420,2024-09-10T06:50:19.420Z,171611,0.16375732,-0.9489136,0.2098999
1725951019465,2024-09-10T06:50:19.465Z,171656,0.16461182,-0.9395752,0.19750977
1725951019511,2024-09-10T06:50:19.511Z,171702,0.18554688,-0.9332886,0.1932373
1725951019555,2024-09-10T06:50:19.555Z,171746,0.19622803,-0.92785645,0.18878174
1725951019600,2024-09-10T06:50:19.600Z,171791,0.20440674,-0.92974854,0.18341064
1725951019645,2024-09-10T06:50:19.645Z,171836,0.20251465,-0.9390869,0.18408203
1725951019689,2024-09-10T06:50:19.689Z,171880,0.20239258,-0.9404907,0.18725586
1725951019716,2024-09-10T06:50:19.716Z,171907,0.20031738,-0.9417114,0.19049072
1725951019743,2024-09-10T06:50:19.743Z,171934,0.20562744,-0.9380493,0.18920898
1725951019777,2024-09-10T06:50:19.777Z,171968,0.2088623,-0.92907715,0.18670654
1725951019827,2024-09-10T06:50:19.827Z,172018,0.20635986,-0.9138794,0.17584229
1725951019870,2024-09-10T06:50:19.870Z,172061,0.20678711,-0.9071655,0.1741333
1725951019914,2024-09-10T06:50:19.914Z,172105,0.19793701,-0.9055786,0.1850586
1725951019959,2024-09-10T06:50:19.959Z,172150,0.1831665,-0.9067383,0.19177246
1725951020005,2024-09-10T06:50:20.005Z,172196,0.18682861,-0.90771484,0.20562744
1725951020049,2024-09-10T06:50:20.049Z,172240,0.18261719,-0.9064331,0.20318604
1725951020094,2024-09-10T06:50:20.094Z,172285,0.18798828,-0.8949585,0.20471191
1725951020139,2024-09-10T06:50:20.139Z,172330,0.18963623,-0.8773804,0.1965332
1725951020164,2024-09-10T06:50:20.164Z,172355,0.19818115,-0.8520508,0.17907715
1725951020183,2024-09-10T06:50:20.183Z,172374,0.20831299,-0.82666016,0.19494629
1725951020276,2024-09-10T06:50:20.276Z,172467,0.1965332,-0.8017578,0.18450928
1725951020303,2024-09-10T06:50:20.303Z,172494,0.21594238,-0.7998657,0.19781494
1725951020325,2024-09-10T06:50:20.325Z,172516,0.22363281,-0.82299805,0.21911621
1725951020364,2024-09-10T06:50:20.364Z,172555,0.23602295,-0.838562,0.23065186
1725951020410,2024-09-10T06:50:20.410Z,172601,0.25811768,-0.8516846,0.24932861
1725951020455,2024-09-10T06:50:20.455Z,172646,0.29180908,-0.8534546,0.25012207
1725951020501,2024-09-10T06:50:20.501Z,172692,0.30114746,-0.8546753,0.23443604
1725951020544,2024-09-10T06:50:20.544Z,172735,0.31304932,-0.85754395,0.2220459
1725951020569,2024-09-10T06:50:20.569Z,172760,0.32495117,-0.864624,0.20806885
1725951020590,2024-09-10T06:50:20.590Z,172781,0.33691406,-0.86224365,0.20568848
1725951020634,2024-09-10T06:50:20.634Z,172825,0.35656738,-0.8534546,0.21258545
1725951020682,2024-09-10T06:50:20.682Z,172873,0.3842163,-0.85162354,0.2199707
1725951020728,2024-09-10T06:50:20.728Z,172919,0.39404297,-0.8591919,0.22650146
1725951020770,2024-09-10T06:50:20.770Z,172961,0.41601562,-0.8644409,0.23510742
1725951020814,2024-09-10T06:50:20.814Z,173005,0.44573975,-0.87231445,0.24072266
1725951020861,2024-09-10T06:50:20.861Z,173052,0.49694824,-0.8676758,0.2432251
1725951020907,2024-09-10T06:50:20.907Z,173098,0.53808594,-0.8717041,0.2539673
1725951020949,2024-09-10T06:50:20.949Z,173140,0.5529175,-0.87402344,0.2397461
1725951020973,2024-09-10T06:50:20.973Z,173164,0.54022217,-0.87597656,0.24810791
1725951020993,2024-09-10T06:50:20.993Z,173184,0.5073242,-0.87194824,0.24438477
1725951021041,2024-09-10T06:50:21.041Z,173232,0.5048218,-0.8604126,0.2442627
1725951021084,2024-09-10T06:50:21.084Z,173275,0.5003662,-0.8480835,0.23168945
1725951021130,2024-09-10T06:50:21.130Z,173321,0.49926758,-0.84851074,0.23602295
1725951021175,2024-09-10T06:50:21.175Z,173366,0.49328613,-0.85443115,0.23931885
1725951021221,2024-09-10T06:50:21.221Z,173412,0.49121094,-0.8538208,0.24871826
1725951021264,2024-09-10T06:50:21.264Z,173455,0.49829102,-0.8479004,0.2510376
1725951021311,2024-09-10T06:50:21.311Z,173502,0.51068115,-0.83477783,0.2546997
1725951021354,2024-09-10T06:50:21.354Z,173545,0.508667,-0.8236084,0.24658203
1725951021398,2024-09-10T06:50:21.398Z,173589,0.5204468,-0.82037354,0.24133301
1725951021423,2024-09-10T06:50:21.423Z,173614,0.5396118,-0.8217163,0.24310303
1725951021443,2024-09-10T06:50:21.443Z,173634,0.5506592,-0.8305054,0.26434326
1725951021490,2024-09-10T06:50:21.490Z,173681,0.5582886,-0.829834,0.28814697
1725951021535,2024-09-10T06:50:21.535Z,173726,0.5611572,-0.82263184,0.30926514
1725951021580,2024-09-10T06:50:21.580Z,173771,0.55078125,-0.8239746,0.32159424
1725951021625,2024-09-10T06:50:21.625Z,173816,0.5548096,-0.8218384,0.3189087
1725951021670,2024-09-10T06:50:21.670Z,173861,0.555603,-0.8041382,0.3088379
1725951021715,2024-09-10T06:50:21.715Z,173906,0.55163574,-0.78448486,0.30975342
1725951021761,2024-09-10T06:50:21.761Z,173952,0.54034424,-0.78015137,0.3242798
1725951021805,2024-09-10T06:50:21.805Z,173996,0.5246582,-0.7792969,0.33807373
1725951021829,2024-09-10T06:50:21.829Z,174020,0.51660156,-0.7748413,0.348938
1725951021852,2024-09-10T06:50:21.852Z,174043,0.5272827,-0.77111816,0.3477173
1725951021894,2024-09-10T06:50:21.894Z,174085,0.54589844,-0.77471924,0.33929443
1725951021952,2024-09-10T06:50:21.952Z,174143,0.56121826,-0.77783203,0.33148193
1725951021983,2024-09-10T06:50:21.983Z,174174,0.5578003,-0.7782593,0.33874512
1725951022030,2024-09-10T06:50:22.030Z,174221,0.5506592,-0.7752075,0.34649658
1725951022076,2024-09-10T06:50:22.076Z,174267,0.54901123,-0.7779541,0.3527832
1725951022120,2024-09-10T06:50:22.120Z,174311,0.55999756,-0.78845215,0.3519287
1725951022164,2024-09-10T06:50:22.164Z,174355,0.57281494,-0.8045044,0.350708
1725951022209,2024-09-10T06:50:22.209Z,174400,0.58917236,-0.81866455,0.355896
1725951022234,2024-09-10T06:50:22.234Z,174425,0.5964966,-0.8353882,0.37164307
1725951022255,2024-09-10T06:50:22.255Z,174446,0.5941162,-0.84710693,0.38659668
1725951022297,2024-09-10T06:50:22.297Z,174488,0.5787964,-0.84942627,0.3963623
1725951022347,2024-09-10T06:50:22.347Z,174538,0.5644531,-0.83740234,0.3912964
1725951022388,2024-09-10T06:50:22.388Z,174579,0.5605469,-0.8132324,0.3805542
1725951022435,2024-09-10T06:50:22.435Z,174626,0.5487671,-0.79260254,0.36499023
1725951022480,2024-09-10T06:50:22.480Z,174671,0.5420532,-0.78912354,0.35028076
1725951022524,2024-09-10T06:50:22.524Z,174715,0.5209961,-0.78845215,0.32336426
1725951022570,2024-09-10T06:50:22.570Z,174761,0.5182495,-0.79138184,0.31427002
1725951022615,2024-09-10T06:50:22.615Z,174806,0.52215576,-0.7854614,0.3062744
1725951022668,2024-09-10T06:50:22.668Z,174859,0.51123047,-0.78466797,0.3024292
1725951022695,2024-09-10T06:50:22.695Z,174886,0.49835205,-0.7919922,0.29364014
1725951022720,2024-09-10T06:50:22.720Z,174911,0.48205566,-0.7998657,0.28179932
1725951022749,2024-09-10T06:50:22.749Z,174940,0.47296143,-0.8048706,0.2788086
1725951022795,2024-09-10T06:50:22.795Z,174986,0.47106934,-0.8088379,0.28125
1725951022840,2024-09-10T06:50:22.840Z,175031,0.4703369,-0.81658936,0.27453613
1725951022885,2024-09-10T06:50:22.885Z,175076,0.4578247,-0.82873535,0.2808838
1725951022930,2024-09-10T06:50:22.930Z,175121,0.4206543,-0.84265137,0.27038574
1725951022975,2024-09-10T06:50:22.975Z,175166,0.39318848,-0.8515625,0.28979492
1725951023021,2024-09-10T06:50:23.021Z,175212,0.35864258,-0.8630371,0.27893066
1725951023065,2024-09-10T06:50:23.065Z,175256,0.340271,-0.8623047,0.27563477
1725951023095,2024-09-10T06:50:23.095Z,175286,0.34417725,-0.850647,0.26123047
1725951023124,2024-09-10T06:50:23.124Z,175315,0.34020996,-0.84143066,0.23272705
1725951023152,2024-09-10T06:50:23.152Z,175343,0.33532715,-0.840271,0.22875977
1725951023199,2024-09-10T06:50:23.199Z,175390,0.31622314,-0.84576416,0.21099854
1725951023244,2024-09-10T06:50:23.244Z,175435,0.30743408,-0.8510132,0.21966553
1725951023289,2024-09-10T06:50:23.289Z,175480,0.30029297,-0.8502197,0.2267456
1725951023335,2024-09-10T06:50:23.335Z,175526,0.29382324,-0.8461304,0.2197876
1725951023380,2024-09-10T06:50:23.380Z,175571,0.29986572,-0.8514404,0.2210083
1725951023426,2024-09-10T06:50:23.426Z,175617,0.2962036,-0.86395264,0.21533203
1725951023470,2024-09-10T06:50:23.470Z,175661,0.2803955,-0.8670654,0.20013428
1725951023497,2024-09-10T06:50:23.497Z,175688,0.26757812,-0.8591919,0.19403076
1725951023518,2024-09-10T06:50:23.518Z,175709,0.24230957,-0.8539429,0.19152832
1725951023558,2024-09-10T06:50:23.558Z,175749,0.2286377,-0.8468628,0.18859863
1725951023604,2024-09-10T06:50:23.604Z,175795,0.2131958,-0.8457031,0.1907959
1725951023649,2024-09-10T06:50:23.649Z,175840,0.20367432,-0.8423462,0.18762207
1725951023695,2024-09-10T06:50:23.695Z,175886,0.19464111,-0.848999,0.18127441
1725951023783,2024-09-10T06:50:23.783Z,175974,0.18164062,-0.8671875,0.18664551
1725951023808,2024-09-10T06:50:23.808Z,175999,0.1697998,-0.90112305,0.17840576
1725951023837,2024-09-10T06:50:23.837Z,176028,0.15185547,-0.92962646,0.18841553
1725951023873,2024-09-10T06:50:23.873Z,176064,0.12927246,-0.9498291,0.19085693
1725951023918,2024-09-10T06:50:23.918Z,176109,0.12841797,-0.9592285,0.19030762
1725951023943,2024-09-10T06:50:23.943Z,176134,0.13543701,-0.96466064,0.18518066
1725951023963,2024-09-10T06:50:23.963Z,176154,0.1352539,-0.96643066,0.1616211
1725951024007,2024-09-10T06:50:24.007Z,176198,0.14447021,-0.96203613,0.17016602
1725951024053,2024-09-10T06:50:24.053Z,176244,0.13006592,-0.9508667,0.15594482
1725951024101,2024-09-10T06:50:24.101Z,176292,0.13317871,-0.93670654,0.15338135
1725951024146,2024-09-10T06:50:24.146Z,176337,0.12884521,-0.9371948,0.1508789
1725951024190,2024-09-10T06:50:24.190Z,176381,0.1293335,-0.9430542,0.14801025
1725951024235,2024-09-10T06:50:24.235Z,176426,0.13757324,-0.9507446,0.15112305
1725951024279,2024-09-10T06:50:24.279Z,176470,0.1437378,-0.9659424,0.15887451
1725951024324,2024-09-10T06:50:24.324Z,176515,0.14910889,-0.972229,0.1762085
1725951024350,2024-09-10T06:50:24.350Z,176541,0.14782715,-0.9781494,0.18023682
1725951024371,2024-09-10T06:50:24.371Z,176562,0.15209961,-0.96868896,0.18737793
1725951024415,2024-09-10T06:50:24.415Z,176606,0.14831543,-0.95202637,0.18615723
1725951024459,2024-09-10T06:50:24.459Z,176650,0.1486206,-0.940979,0.18408203
1725951024505,2024-09-10T06:50:24.505Z,176696,0.15838623,-0.9343872,0.19158936
1725951024551,2024-09-10T06:50:24.551Z,176742,0.16900635,-0.927124,0.19335938
1725951024596,2024-09-10T06:50:24.596Z,176787,0.17602539,-0.9249878,0.20098877
1725951024640,2024-09-10T06:50:24.640Z,176831,0.18188477,-0.9268799,0.20935059
1725951024686,2024-09-10T06:50:24.686Z,176877,0.17706299,-0.93304443,0.20837402
1725951024729,2024-09-10T06:50:24.729Z,176920,0.1796875,-0.92767334,0.2098999
1725951024754,2024-09-10T06:50:24.754Z,176945,0.17944336,-0.9248657,0.20379639
1725951024780,2024-09-10T06:50:24.780Z,176971,0.18585205,-0.9281006,0.20172119
1725951024820,2024-09-10T06:50:24.820Z,177011,0.1897583,-0.9260254,0.2062378
1725951024864,2024-09-10T06:50:24.864Z,177055,0.19915771,-0.91619873,0.20812988
1725951024910,2024-09-10T06:50:24.910Z,177101,0.21411133,-0.9064331,0.22229004
1725951024956,2024-09-10T06:50:24.956Z,177147,0.2234497,-0.8931885,0.22229004
1725951024998,2024-09-10T06:50:24.998Z,177189,0.23791504,-0.8812866,0.22644043
1725951025044,2024-09-10T06:50:25.044Z,177235,0.24420166,-0.873291,0.22607422
1725951025090,2024-09-10T06:50:25.090Z,177281,0.25683594,-0.8679199,0.2286377
1725951025134,2024-09-10T06:50:25.134Z,177325,0.2774048,-0.8657837,0.24053955
1725951025180,2024-09-10T06:50:25.180Z,177371,0.29718018,-0.85961914,0.24212646
1725951025208,2024-09-10T06:50:25.208Z,177399,0.32995605,-0.85040283,0.2543335
1725951025236,2024-09-10T06:50:25.236Z,177427,0.3538208,-0.8442993,0.25390625
1725951025269,2024-09-10T06:50:25.269Z,177460,0.3710327,-0.83825684,0.2593994
1725951025321,2024-09-10T06:50:25.321Z,177512,0.3902588,-0.8348999,0.2609253
1725951025359,2024-09-10T06:50:25.359Z,177550,0.41186523,-0.8439331,0.25927734
1725951025405,2024-09-10T06:50:25.405Z,177596,0.42419434,-0.8545532,0.269104
1725951025451,2024-09-10T06:50:25.451Z,177642,0.42852783,-0.85150146,0.2753296
1725951025496,2024-09-10T06:50:25.496Z,177687,0.4248047,-0.8466797,0.28155518
1725951025540,2024-09-10T06:50:25.540Z,177731,0.4202881,-0.83166504,0.27886963
1725951025586,2024-09-10T06:50:25.586Z,177777,0.40789795,-0.8111572,0.2687378
1725951025613,2024-09-10T06:50:25.613Z,177804,0.4076538,-0.79992676,0.256958
1725951025634,2024-09-10T06:50:25.634Z,177825,0.41314697,-0.79437256,0.25616455
1725951025674,2024-09-10T06:50:25.674Z,177865,0.41845703,-0.79248047,0.26123047
1725951025720,2024-09-10T06:50:25.720Z,177911,0.42260742,-0.7959595,0.27252197
1725951025765,2024-09-10T06:50:25.765Z,177956,0.42999268,-0.80145264,0.2876587
1725951025810,2024-09-10T06:50:25.810Z,178001,0.43322754,-0.8095093,0.2927246
1725951025855,2024-09-10T06:50:25.855Z,178046,0.43371582,-0.81018066,0.2984619
1725951025907,2024-09-10T06:50:25.907Z,178098,0.43096924,-0.8050537,0.29760742
1725951025947,2024-09-10T06:50:25.947Z,178138,0.4389038,-0.79870605,0.29278564
1725951025989,2024-09-10T06:50:25.989Z,178180,0.45025635,-0.7992554,0.3017578
1725951026015,2024-09-10T06:50:26.015Z,178206,0.4609375,-0.7885132,0.3143921
1725951026034,2024-09-10T06:50:26.034Z,178225,0.46258545,-0.7793579,0.31695557
1725951026078,2024-09-10T06:50:26.078Z,178269,0.45806885,-0.7839966,0.3297119
1725951026125,2024-09-10T06:50:26.125Z,178316,0.45391846,-0.79522705,0.33953857
1725951026171,2024-09-10T06:50:26.171Z,178362,0.45458984,-0.8017578,0.33947754
1725951026215,2024-09-10T06:50:26.215Z,178406,0.46972656,-0.7958374,0.34344482
1725951026259,2024-09-10T06:50:26.259Z,178450,0.48376465,-0.7891846,0.34399414
1725951026304,2024-09-10T06:50:26.304Z,178495,0.48260498,-0.7840576,0.34362793
1725951026349,2024-09-10T06:50:26.349Z,178540,0.48492432,-0.77648926,0.34124756
1725951026395,2024-09-10T06:50:26.395Z,178586,0.5009155,-0.7681885,0.34918213
1725951026440,2024-09-10T06:50:26.440Z,178631,0.51434326,-0.76605225,0.35650635
1725951026467,2024-09-10T06:50:26.467Z,178658,0.529541,-0.7692871,0.3711548
1725951026486,2024-09-10T06:50:26.486Z,178677,0.5360718,-0.76239014,0.37408447
1725951026530,2024-09-10T06:50:26.530Z,178721,0.5324707,-0.7520752,0.36999512
1725951026574,2024-09-10T06:50:26.574Z,178765,0.5322876,-0.7496948,0.37060547
1725951026621,2024-09-10T06:50:26.621Z,178812,0.5213623,-0.75457764,0.37780762
1725951026664,2024-09-10T06:50:26.664Z,178855,0.5145874,-0.7513428,0.39312744
1725951026756,2024-09-10T06:50:26.756Z,178947,0.5206909,-0.7461548,0.401062
1725951026784,2024-09-10T06:50:26.784Z,178975,0.53863525,-0.7438965,0.40826416
1725951026806,2024-09-10T06:50:26.806Z,178997,0.5553589,-0.73999023,0.40637207
1725951026846,2024-09-10T06:50:26.846Z,179037,0.5583496,-0.73651123,0.40356445
1725951026864,2024-09-10T06:50:26.864Z,179055,0.55651855,-0.74542236,0.4126587
1725951026887,2024-09-10T06:50:26.887Z,179078,0.5484009,-0.7520752,0.4227295
1725951026934,2024-09-10T06:50:26.934Z,179125,0.56152344,-0.75561523,0.43029785
1725951026980,2024-09-10T06:50:26.980Z,179171,0.58929443,-0.76116943,0.44299316
1725951027025,2024-09-10T06:50:27.025Z,179216,0.60876465,-0.7519531,0.43371582
1725951027075,2024-09-10T06:50:27.075Z,179266,0.61828613,-0.7401123,0.4331665
1725951027114,2024-09-10T06:50:27.114Z,179305,0.6210327,-0.74157715,0.4300537
1725951027159,2024-09-10T06:50:27.159Z,179350,0.62005615,-0.7425537,0.42260742
1725951027204,2024-09-10T06:50:27.204Z,179395,0.61834717,-0.73651123,0.42608643
1725951027249,2024-09-10T06:50:27.249Z,179440,0.63031006,-0.73254395,0.42468262
1725951027273,2024-09-10T06:50:27.273Z,179464,0.6468506,-0.74420166,0.44018555
1725951027296,2024-09-10T06:50:27.296Z,179487,0.6659546,-0.7541504,0.44934082
1725951027339,2024-09-10T06:50:27.339Z,179530,0.66503906,-0.7644043,0.46032715
1725951027383,2024-09-10T06:50:27.383Z,179574,0.6555176,-0.7788086,0.4758911
1725951027429,2024-09-10T06:50:27.429Z,179620,0.63427734,-0.793396,0.48199463
1725951027475,2024-09-10T06:50:27.475Z,179666,0.6130371,-0.7938843,0.47094727
1725951027521,2024-09-10T06:50:27.521Z,179712,0.5939331,-0.78759766,0.46136475
1725951027577,2024-09-10T06:50:27.577Z,179768,0.57684326,-0.7658081,0.45257568
1725951027606,2024-09-10T06:50:27.606Z,179797,0.56066895,-0.7425537,0.44213867
1725951027654,2024-09-10T06:50:27.654Z,179845,0.5341797,-0.7310791,0.42858887
1725951027677,2024-09-10T06:50:27.677Z,179868,0.5175781,-0.72766113,0.4118042
1725951027704,2024-09-10T06:50:27.704Z,179895,0.5042114,-0.73223877,0.39941406
1725951027746,2024-09-10T06:50:27.746Z,179937,0.48486328,-0.7407837,0.38806152
1725951027791,2024-09-10T06:50:27.791Z,179982,0.4605713,-0.7541504,0.3743286
1725951027836,2024-09-10T06:50:27.836Z,180027,0.45544434,-0.7675781,0.36053467
1725951027880,2024-09-10T06:50:27.880Z,180071,0.43676758,-0.78460693,0.36505127
1725951027925,2024-09-10T06:50:27.925Z,180116,0.43188477,-0.79907227,0.36791992
1725951027971,2024-09-10T06:50:27.971Z,180162,0.432312,-0.8043823,0.37078857
1725951028015,2024-09-10T06:50:28.015Z,180206,0.4229126,-0.81188965,0.36273193
1725951028059,2024-09-10T06:50:28.059Z,180250,0.41864014,-0.81591797,0.35443115
1725951028105,2024-09-10T06:50:28.105Z,180296,0.38671875,-0.8267212,0.33538818
1725951028131,2024-09-10T06:50:28.131Z,180322,0.3585205,-0.82318115,0.31713867
1725951028155,2024-09-10T06:50:28.155Z,180346,0.3486328,-0.81555176,0.32061768
1725951028191,2024-09-10T06:50:28.191Z,180382,0.31884766,-0.8223877,0.29638672
1725951028241,2024-09-10T06:50:28.241Z,180432,0.3206787,-0.8310547,0.30090332
1725951028283,2024-09-10T06:50:28.283Z,180474,0.31237793,-0.84259033,0.2890625
1725951028330,2024-09-10T06:50:28.330Z,180521,0.3083496,-0.85198975,0.27355957
1725951028375,2024-09-10T06:50:28.375Z,180566,0.29742432,-0.85528564,0.2741089
1725951028420,2024-09-10T06:50:28.420Z,180611,0.27105713,-0.84747314,0.25720215
1725951028465,2024-09-10T06:50:28.465Z,180656,0.2567749,-0.8355713,0.2553711
1725951028510,2024-09-10T06:50:28.510Z,180701,0.23706055,-0.83618164,0.24853516
1725951028533,2024-09-10T06:50:28.533Z,180724,0.23046875,-0.8355713,0.2364502
1725951028554,2024-09-10T06:50:28.554Z,180745,0.22827148,-0.8461914,0.24206543
1725951028598,2024-09-10T06:50:28.598Z,180789,0.2131958,-0.8536377,0.23382568
1725951028644,2024-09-10T06:50:28.644Z,180835,0.19500732,-0.852478,0.2420044
1725951028689,2024-09-10T06:50:28.689Z,180880,0.17248535,-0.8526001,0.23596191
1725951028735,2024-09-10T06:50:28.735Z,180926,0.16363525,-0.8535156,0.24090576
1725951028780,2024-09-10T06:50:28.780Z,180971,0.15368652,-0.8605957,0.24371338
1725951028826,2024-09-10T06:50:28.826Z,181017,0.14746094,-0.87316895,0.25317383
1725951028869,2024-09-10T06:50:28.869Z,181060,0.1439209,-0.88183594,0.26605225
1725951028915,2024-09-10T06:50:28.915Z,181106,0.14984131,-0.8942871,0.27355957
1725951028943,2024-09-10T06:50:28.943Z,181134,0.15405273,-0.90405273,0.2833252
1725951028967,2024-09-10T06:50:28.967Z,181158,0.15472412,-0.90979004,0.28503418
1725951029003,2024-09-10T06:50:29.003Z,181194,0.16052246,-0.9147339,0.27929688
1725951029049,2024-09-10T06:50:29.049Z,181240,0.1638794,-0.92767334,0.27368164
1725951029094,2024-09-10T06:50:29.094Z,181285,0.1687622,-0.93725586,0.26861572
1725951029138,2024-09-10T06:50:29.138Z,181329,0.17089844,-0.93963623,0.2574463
1725951029185,2024-09-10T06:50:29.185Z,181376,0.17437744,-0.93536377,0.25671387
1725951029231,2024-09-10T06:50:29.231Z,181422,0.17700195,-0.93218994,0.2543335
1725951029276,2024-09-10T06:50:29.276Z,181467,0.171875,-0.93048096,0.2467041
1725951029321,2024-09-10T06:50:29.321Z,181512,0.171875,-0.93066406,0.25323486
1725951029363,2024-09-10T06:50:29.363Z,181554,0.16802979,-0.93566895,0.24822998
1725951029386,2024-09-10T06:50:29.386Z,181577,0.16790771,-0.9315796,0.2442627
1725951029413,2024-09-10T06:50:29.413Z,181604,0.17041016,-0.9205322,0.23803711
1725951029451,2024-09-10T06:50:29.451Z,181642,0.16925049,-0.9136963,0.22998047
1725951029500,2024-09-10T06:50:29.500Z,181691,0.18597412,-0.91241455,0.23199463
1725951029545,2024-09-10T06:50:29.545Z,181736,0.19104004,-0.9216919,0.2298584
1725951029590,2024-09-10T06:50:29.590Z,181781,0.19085693,-0.93218994,0.2432251
1725951029635,2024-09-10T06:50:29.635Z,181826,0.18597412,-0.94281006,0.24853516
1725951029681,2024-09-10T06:50:29.681Z,181872,0.18023682,-0.9487915,0.2508545
1725951029724,2024-09-10T06:50:29.724Z,181915,0.1729126,-0.9495239,0.24658203
1725951029769,2024-09-10T06:50:29.769Z,181960,0.16918945,-0.9407959,0.23626709
1725951029793,2024-09-10T06:50:29.793Z,181984,0.16381836,-0.92266846,0.22625732
1725951029815,2024-09-10T06:50:29.815Z,182006,0.1652832,-0.90283203,0.2175293
1725951029861,2024-09-10T06:50:29.861Z,182052,0.17327881,-0.89038086,0.21502686
1725951029905,2024-09-10T06:50:29.905Z,182096,0.1786499,-0.88031006,0.20141602
1725951029949,2024-09-10T06:50:29.949Z,182140,0.20336914,-0.8632202,0.21099854
1725951029997,2024-09-10T06:50:29.997Z,182188,0.23547363,-0.868042,0.22003174
1725951030040,2024-09-10T06:50:30.040Z,182231,0.26257324,-0.88916016,0.22515869
1725951030085,2024-09-10T06:50:30.085Z,182276,0.28546143,-0.91070557,0.24163818
1725951030130,2024-09-10T06:50:30.130Z,182321,0.31134033,-0.9192505,0.25299072
1725951030176,2024-09-10T06:50:30.176Z,182367,0.3206787,-0.9053955,0.2514038
1725951030201,2024-09-10T06:50:30.201Z,182392,0.32751465,-0.8737793,0.24169922
1725951030227,2024-09-10T06:50:30.227Z,182418,0.32910156,-0.84051514,0.23297119
1725951030264,2024-09-10T06:50:30.264Z,182455,0.34814453,-0.8171387,0.21899414
1725951030309,2024-09-10T06:50:30.309Z,182500,0.37530518,-0.8118286,0.22564697
1725951030356,2024-09-10T06:50:30.356Z,182547,0.3972168,-0.8163452,0.22802734
1725951030399,2024-09-10T06:50:30.399Z,182590,0.4140625,-0.8232422,0.24609375
1725951030445,2024-09-10T06:50:30.445Z,182636,0.42749023,-0.8201904,0.2715454
1725951030491,2024-09-10T06:50:30.491Z,182682,0.43078613,-0.80493164,0.28631592
1725951030534,2024-09-10T06:50:30.534Z,182725,0.42956543,-0.77770996,0.28863525
1725951030580,2024-09-10T06:50:30.580Z,182771,0.4413452,-0.7564697,0.28131104
1725951030623,2024-09-10T06:50:30.623Z,182814,0.44415283,-0.7487793,0.28588867
1725951030648,2024-09-10T06:50:30.648Z,182839,0.4336548,-0.7485962,0.2852173
1725951030670,2024-09-10T06:50:30.670Z,182861,0.42041016,-0.75457764,0.3010254
1725951030716,2024-09-10T06:50:30.716Z,182907,0.41186523,-0.76257324,0.3100586
1725951030760,2024-09-10T06:50:30.760Z,182951,0.42797852,-0.76538086,0.317688
1725951030805,2024-09-10T06:50:30.805Z,182996,0.45916748,-0.7684326,0.32165527
1725951030851,2024-09-10T06:50:30.851Z,183042,0.49798584,-0.76867676,0.3222046
1725951030897,2024-09-10T06:50:30.897Z,183088,0.52770996,-0.75891113,0.3255005
1725951030940,2024-09-10T06:50:30.940Z,183131,0.548645,-0.7468262,0.34387207
1725951030984,2024-09-10T06:50:30.984Z,183175,0.53723145,-0.74542236,0.33813477
1725951031030,2024-09-10T06:50:31.030Z,183221,0.51239014,-0.7510376,0.31671143
1725951031051,2024-09-10T06:50:31.051Z,183242,0.5093384,-0.75,0.32885742
1725951031076,2024-09-10T06:50:31.076Z,183267,0.5282593,-0.74053955,0.3359375
1725951031120,2024-09-10T06:50:31.120Z,183311,0.557251,-0.73669434,0.34417725
1725951031164,2024-09-10T06:50:31.164Z,183355,0.58935547,-0.74468994,0.34765625
1725951031210,2024-09-10T06:50:31.210Z,183401,0.59716797,-0.7477417,0.35638428
1725951031255,2024-09-10T06:50:31.255Z,183446,0.58258057,-0.7470703,0.3564453
1725951031301,2024-09-10T06:50:31.301Z,183492,0.55859375,-0.75219727,0.35998535
1725951031344,2024-09-10T06:50:31.344Z,183535,0.55096436,-0.7559204,0.3548584
1725951031390,2024-09-10T06:50:31.390Z,183581,0.56036377,-0.75775146,0.35144043
1725951031435,2024-09-10T06:50:31.435Z,183626,0.57385254,-0.7504883,0.33966064
1725951031458,2024-09-10T06:50:31.458Z,183649,0.5854492,-0.73687744,0.32666016
1725951031482,2024-09-10T06:50:31.482Z,183673,0.59039307,-0.73272705,0.3347168
1725951031523,2024-09-10T06:50:31.523Z,183714,0.5936279,-0.7236328,0.3600464
1725951031571,2024-09-10T06:50:31.571Z,183762,0.5944824,-0.710022,0.37805176
1725951031617,2024-09-10T06:50:31.617Z,183808,0.6008911,-0.71673584,0.4003296
1725951031661,2024-09-10T06:50:31.661Z,183852,0.60894775,-0.72991943,0.41760254
1725951031704,2024-09-10T06:50:31.704Z,183895,0.602417,-0.7366333,0.42785645
1725951031749,2024-09-10T06:50:31.749Z,183940,0.58654785,-0.7284546,0.43139648
1725951031793,2024-09-10T06:50:31.793Z,183984,0.57666016,-0.7290039,0.43096924
1725951031839,2024-09-10T06:50:31.839Z,184030,0.5772095,-0.7399292,0.44262695
1725951031884,2024-09-10T06:50:31.884Z,184075,0.583374,-0.7352905,0.44641113
1725951031905,2024-09-10T06:50:31.905Z,184096,0.5848999,-0.7238159,0.463562
1725951031927,2024-09-10T06:50:31.927Z,184118,0.57110596,-0.7092285,0.45739746
1725951031975,2024-09-10T06:50:31.975Z,184166,0.5652466,-0.69714355,0.43585205
1725951032019,2024-09-10T06:50:32.019Z,184210,0.5673828,-0.690979,0.427063
1725951032066,2024-09-10T06:50:32.066Z,184257,0.5824585,-0.67474365,0.43041992
1725951032113,2024-09-10T06:50:32.113Z,184304,0.5788574,-0.6682129,0.44476318
1725951032155,2024-09-10T06:50:32.155Z,184346,0.5654297,-0.6812134,0.45318604
1725951032200,2024-09-10T06:50:32.200Z,184391,0.5583496,-0.70788574,0.4498291
1725951032246,2024-09-10T06:50:32.246Z,184437,0.56311035,-0.73773193,0.45074463
1725951032302,2024-09-10T06:50:32.302Z,184493,0.5734253,-0.75909424,0.45703125
1725951032327,2024-09-10T06:50:32.327Z,184518,0.57440186,-0.7597656,0.4611206
1725951032347,2024-09-10T06:50:32.347Z,184538,0.56469727,-0.7592163,0.46105957
1725951032377,2024-09-10T06:50:32.377Z,184568,0.5692749,-0.76361084,0.4631958
1725951032425,2024-09-10T06:50:32.425Z,184616,0.5751343,-0.76519775,0.46209717
1725951032470,2024-09-10T06:50:32.470Z,184661,0.58203125,-0.7657471,0.4751587
1725951032514,2024-09-10T06:50:32.514Z,184705,0.5821533,-0.76831055,0.4822998
1725951032604,2024-09-10T06:50:32.604Z,184795,0.5592041,-0.77770996,0.49353027
1725951032629,2024-09-10T06:50:32.629Z,184820,0.53430176,-0.7869873,0.48675537
1725951032653,2024-09-10T06:50:32.653Z,184844,0.5158081,-0.7963257,0.47418213
1725951032696,2024-09-10T06:50:32.696Z,184887,0.5097656,-0.80371094,0.4602661
1725951032717,2024-09-10T06:50:32.717Z,184908,0.5022583,-0.8045044,0.44952393
1725951032737,2024-09-10T06:50:32.737Z,184928,0.5055542,-0.79785156,0.43719482
1725951032782,2024-09-10T06:50:32.782Z,184973,0.5114136,-0.80096436,0.43798828
1725951032829,2024-09-10T06:50:32.829Z,185020,0.5091553,-0.7984009,0.42279053
1725951032874,2024-09-10T06:50:32.874Z,185065,0.4868164,-0.78930664,0.40911865
1725951032920,2024-09-10T06:50:32.920Z,185111,0.4574585,-0.7711792,0.3986206
1725951032964,2024-09-10T06:50:32.964Z,185155,0.44769287,-0.7496948,0.38061523
1725951033009,2024-09-10T06:50:33.009Z,185200,0.43475342,-0.7463989,0.36340332
1725951033055,2024-09-10T06:50:33.055Z,185246,0.43634033,-0.7484131,0.3555298
1725951033101,2024-09-10T06:50:33.101Z,185292,0.43408203,-0.7695923,0.3494873
1725951033190,2024-09-10T06:50:33.190Z,185381,0.44128418,-0.79919434,0.34851074
1725951033217,2024-09-10T06:50:33.217Z,185408,0.4260254,-0.8366089,0.34887695
1725951033243,2024-09-10T06:50:33.243Z,185434,0.4013672,-0.86035156,0.3359375
1725951033262,2024-09-10T06:50:33.262Z,185453,0.36975098,-0.8640137,0.32202148
1725951033277,2024-09-10T06:50:33.277Z,185468,0.348938,-0.84588623,0.30688477
1725951033368,2024-09-10T06:50:33.368Z,185559,0.3274536,-0.82751465,0.2861328
1725951033394,2024-09-10T06:50:33.394Z,185585,0.32598877,-0.81970215,0.2939453
1725951033417,2024-09-10T06:50:33.417Z,185608,0.30975342,-0.82598877,0.30584717
1725951033505,2024-09-10T06:50:33.505Z,185696,0.30639648,-0.83898926,0.32391357
1725951033530,2024-09-10T06:50:33.530Z,185721,0.29193115,-0.85809326,0.33441162
1725951033549,2024-09-10T06:50:33.549Z,185740,0.26708984,-0.8651123,0.3260498
1725951033563,2024-09-10T06:50:33.563Z,185754,0.24694824,-0.8682251,0.32763672
1725951033592,2024-09-10T06:50:33.592Z,185783,0.22247314,-0.8687134,0.3131714
1725951033642,2024-09-10T06:50:33.642Z,185833,0.21789551,-0.8511963,0.31201172
1725951033684,2024-09-10T06:50:33.684Z,185875,0.21697998,-0.8322754,0.3083496
1725951033730,2024-09-10T06:50:33.730Z,185921,0.20947266,-0.8282471,0.29974365
1725951033775,2024-09-10T06:50:33.775Z,185966,0.19207764,-0.8378296,0.3092041
1725951033818,2024-09-10T06:50:33.818Z,186009,0.1652832,-0.850708,0.30267334
1725951033864,2024-09-10T06:50:33.864Z,186055,0.14813232,-0.8624878,0.29632568
1725951033910,2024-09-10T06:50:33.910Z,186101,0.1586914,-0.8574829,0.2975464
1725951033955,2024-09-10T06:50:33.955Z,186146,0.1694336,-0.8413086,0.2883911
1725951033981,2024-09-10T06:50:33.981Z,186172,0.18237305,-0.8317871,0.289917
1725951034001,2024-09-10T06:50:34.001Z,186192,0.19250488,-0.83447266,0.28100586
1725951034044,2024-09-10T06:50:34.044Z,186235,0.2020874,-0.84368896,0.27746582
1725951034089,2024-09-10T06:50:34.089Z,186280,0.19622803,-0.8605957,0.28363037
1725951034135,2024-09-10T06:50:34.135Z,186326,0.18658447,-0.8817749,0.28936768
1725951034180,2024-09-10T06:50:34.180Z,186371,0.184021,-0.89733887,0.2746582
1725951034225,2024-09-10T06:50:34.225Z,186416,0.18756104,-0.9093628,0.27368164
1725951034270,2024-09-10T06:50:34.270Z,186461,0.18804932,-0.9209595,0.27026367
1725951034314,2024-09-10T06:50:34.314Z,186505,0.18914795,-0.9319458,0.27398682
1725951034361,2024-09-10T06:50:34.361Z,186552,0.18835449,-0.93530273,0.28240967
1725951034406,2024-09-10T06:50:34.406Z,186597,0.18457031,-0.9352417,0.28125
1725951034435,2024-09-10T06:50:34.435Z,186626,0.1842041,-0.93518066,0.27294922
1725951034458,2024-09-10T06:50:34.458Z,186649,0.18115234,-0.93548584,0.25958252
1725951034495,2024-09-10T06:50:34.495Z,186686,0.1739502,-0.9310913,0.24450684
1725951034539,2024-09-10T06:50:34.539Z,186730,0.16546631,-0.9281616,0.22930908
1725951034584,2024-09-10T06:50:34.584Z,186775,0.16339111,-0.9265747,0.22583008
1725951034631,2024-09-10T06:50:34.631Z,186822,0.15795898,-0.92736816,0.22161865
1725951034675,2024-09-10T06:50:34.675Z,186866,0.15527344,-0.9277344,0.22503662
1725951034720,2024-09-10T06:50:34.720Z,186911,0.15386963,-0.9313965,0.23461914
1725951034765,2024-09-10T06:50:34.765Z,186956,0.15142822,-0.9436035,0.24737549
1725951034811,2024-09-10T06:50:34.811Z,187002,0.15429688,-0.9423218,0.26293945
1725951034835,2024-09-10T06:50:34.835Z,187026,0.15344238,-0.9277954,0.2647705
1725951034857,2024-09-10T06:50:34.857Z,187048,0.15911865,-0.9160156,0.26275635
1725951034899,2024-09-10T06:50:34.899Z,187090,0.15820312,-0.91174316,0.2579956
1725951034943,2024-09-10T06:50:34.943Z,187134,0.15167236,-0.9138794,0.25836182
1725951034989,2024-09-10T06:50:34.989Z,187180,0.14672852,-0.9110718,0.27435303
1725951035034,2024-09-10T06:50:35.034Z,187225,0.15344238,-0.90216064,0.29119873
1725951035079,2024-09-10T06:50:35.079Z,187270,0.16064453,-0.8865967,0.31304932
1725951035124,2024-09-10T06:50:35.124Z,187315,0.17913818,-0.86798096,0.31549072
1725951035170,2024-09-10T06:50:35.170Z,187361,0.20501709,-0.85461426,0.3203125
1725951035215,2024-09-10T06:50:35.215Z,187406,0.21911621,-0.8391113,0.3133545
1725951035241,2024-09-10T06:50:35.241Z,187432,0.25073242,-0.8251343,0.31878662
1725951035266,2024-09-10T06:50:35.266Z,187457,0.2649536,-0.8255615,0.3190918
1725951035304,2024-09-10T06:50:35.304Z,187495,0.26965332,-0.8270874,0.33966064
1725951035351,2024-09-10T06:50:35.351Z,187542,0.2962036,-0.8147583,0.34100342
1725951035394,2024-09-10T06:50:35.394Z,187585,0.32556152,-0.8040161,0.3456421
1725951035439,2024-09-10T06:50:35.439Z,187630,0.35894775,-0.79901123,0.34881592
1725951035484,2024-09-10T06:50:35.484Z,187675,0.39440918,-0.7929077,0.355896
1725951035529,2024-09-10T06:50:35.529Z,187720,0.42138672,-0.78234863,0.3605957
1725951035576,2024-09-10T06:50:35.576Z,187767,0.42974854,-0.7678833,0.3572998
1725951035619,2024-09-10T06:50:35.619Z,187810,0.42266846,-0.75756836,0.3587036
1725951035665,2024-09-10T06:50:35.665Z,187856,0.39471436,-0.7359009,0.3595581
1725951035691,2024-09-10T06:50:35.691Z,187882,0.35516357,-0.70562744,0.3406372
1725951035714,2024-09-10T06:50:35.714Z,187905,0.3609619,-0.6950073,0.34625244
1725951035754,2024-09-10T06:50:35.754Z,187945,0.38250732,-0.6975708,0.34588623
1725951035800,2024-09-10T06:50:35.800Z,187991,0.42077637,-0.7136841,0.37158203
1725951035845,2024-09-10T06:50:35.845Z,188036,0.43658447,-0.7384033,0.3895874
1725951035890,2024-09-10T06:50:35.890Z,188081,0.43859863,-0.77056885,0.41461182
1725951035935,2024-09-10T06:50:35.935Z,188126,0.42236328,-0.7836914,0.43377686
1725951035980,2024-09-10T06:50:35.980Z,188171,0.41680908,-0.7803955,0.4300537
1725951036025,2024-09-10T06:50:36.025Z,188216,0.44378662,-0.7803955,0.41418457
1725951036071,2024-09-10T06:50:36.071Z,188262,0.45812988,-0.78985596,0.41436768
1725951036096,2024-09-10T06:50:36.096Z,188287,0.45031738,-0.80218506,0.4208374
1725951036119,2024-09-10T06:50:36.119Z,188310,0.4529419,-0.7996826,0.41131592
1725951036159,2024-09-10T06:50:36.159Z,188350,0.47320557,-0.7854004,0.41418457
1725951036205,2024-09-10T06:50:36.205Z,188396,0.50354004,-0.75994873,0.41003418
1725951036249,2024-09-10T06:50:36.249Z,188440,0.5202637,-0.7504883,0.4192505
1725951036298,2024-09-10T06:50:36.298Z,188489,0.5166626,-0.76153564,0.42663574
1725951036339,2024-09-10T06:50:36.339Z,188530,0.5064697,-0.7713623,0.43585205
1725951036385,2024-09-10T06:50:36.385Z,188576,0.50079346,-0.7807617,0.44085693
1725951036431,2024-09-10T06:50:36.431Z,188622,0.51953125,-0.79174805,0.44525146
1725951036477,2024-09-10T06:50:36.477Z,188668,0.5280762,-0.8008423,0.44989014
1725951036501,2024-09-10T06:50:36.501Z,188692,0.53552246,-0.7807007,0.45465088
1725951036528,2024-09-10T06:50:36.528Z,188719,0.532959,-0.7661133,0.4631958
1725951036563,2024-09-10T06:50:36.563Z,188754,0.53692627,-0.75738525,0.4699707
1725951036609,2024-09-10T06:50:36.609Z,188800,0.5411377,-0.76361084,0.47875977
1725951036654,2024-09-10T06:50:36.654Z,188845,0.5469971,-0.76898193,0.49047852
1725951036699,2024-09-10T06:50:36.699Z,188890,0.55566406,-0.7744751,0.48815918
1725951036745,2024-09-10T06:50:36.745Z,188936,0.5440674,-0.77960205,0.48638916
1725951036796,2024-09-10T06:50:36.796Z,188987,0.5339966,-0.76934814,0.46569824
1725951036834,2024-09-10T06:50:36.834Z,189025,0.5362549,-0.75006104,0.45843506
1725951036880,2024-09-10T06:50:36.880Z,189071,0.52563477,-0.72216797,0.4395752
1725951036926,2024-09-10T06:50:36.926Z,189117,0.53759766,-0.7040405,0.45056152
1725951036951,2024-09-10T06:50:36.951Z,189142,0.5339966,-0.69207764,0.40112305
1725951036976,2024-09-10T06:50:36.976Z,189167,0.536499,-0.71643066,0.4000244
1725951037013,2024-09-10T06:50:37.013Z,189204,0.54003906,-0.729126,0.39318848
1725951037061,2024-09-10T06:50:37.061Z,189252,0.55877686,-0.74798584,0.38372803
1725951037106,2024-09-10T06:50:37.106Z,189297,0.58428955,-0.79437256,0.39697266
1725951037151,2024-09-10T06:50:37.151Z,189342,0.5997925,-0.8217163,0.39215088
1725951037194,2024-09-10T06:50:37.194Z,189385,0.607666,-0.8198242,0.39941406
1725951037240,2024-09-10T06:50:37.240Z,189431,0.59454346,-0.81048584,0.39086914
1725951037284,2024-09-10T06:50:37.284Z,189475,0.57476807,-0.8076782,0.38323975
1725951037329,2024-09-10T06:50:37.329Z,189520,0.5513916,-0.81134033,0.38909912
1725951037355,2024-09-10T06:50:37.355Z,189546,0.5611572,-0.8088989,0.40667725
1725951037375,2024-09-10T06:50:37.375Z,189566,0.57110596,-0.8121948,0.4272461
1725951037418,2024-09-10T06:50:37.418Z,189609,0.57092285,-0.8140869,0.4432373
1725951037465,2024-09-10T06:50:37.465Z,189656,0.5519409,-0.80688477,0.43823242
1725951037509,2024-09-10T06:50:37.509Z,189700,0.5394287,-0.7885132,0.44500732
1725951037554,2024-09-10T06:50:37.554Z,189745,0.52801514,-0.7672119,0.43548584
1725951037600,2024-09-10T06:50:37.600Z,189791,0.5274048,-0.7513428,0.42993164
1725951037643,2024-09-10T06:50:37.643Z,189834,0.52160645,-0.7550659,0.4229126
1725951037689,2024-09-10T06:50:37.689Z,189880,0.5227051,-0.7744751,0.42138672
1725951037736,2024-09-10T06:50:37.736Z,189927,0.51397705,-0.7866821,0.4093628
1725951037759,2024-09-10T06:50:37.759Z,189950,0.48742676,-0.7833252,0.38323975
1725951037780,2024-09-10T06:50:37.780Z,189971,0.46368408,-0.76763916,0.35321045
1725951037824,2024-09-10T06:50:37.824Z,190015,0.45861816,-0.74676514,0.333313
1725951037870,2024-09-10T06:50:37.870Z,190061,0.46575928,-0.7340698,0.321167
1725951037914,2024-09-10T06:50:37.914Z,190105,0.47576904,-0.73950195,0.32855225
1725951037960,2024-09-10T06:50:37.960Z,190151,0.4824829,-0.755188,0.3411255
1725951038004,2024-09-10T06:50:38.004Z,190195,0.46466064,-0.77404785,0.3538208
1725951038050,2024-09-10T06:50:38.050Z,190241,0.4456787,-0.7955322,0.35961914
1725951038095,2024-09-10T06:50:38.095Z,190286,0.42071533,-0.8114624,0.35040283
1725951038144,2024-09-10T06:50:38.144Z,190335,0.40222168,-0.81781006,0.32562256
1725951038184,2024-09-10T06:50:38.184Z,190375,0.3939209,-0.8312378,0.32226562
1725951038206,2024-09-10T06:50:38.206Z,190397,0.37976074,-0.85009766,0.32202148
1725951038227,2024-09-10T06:50:38.227Z,190418,0.37329102,-0.8788452,0.3190918
1725951038275,2024-09-10T06:50:38.275Z,190466,0.35339355,-0.8920288,0.32366943
1725951038319,2024-09-10T06:50:38.319Z,190510,0.31591797,-0.88671875,0.29760742
1725951038371,2024-09-10T06:50:38.371Z,190562,0.27661133,-0.8805542,0.2814331
1725951038410,2024-09-10T06:50:38.410Z,190601,0.24023438,-0.8682251,0.24829102
1725951038456,2024-09-10T06:50:38.456Z,190647,0.21606445,-0.8469238,0.22192383
1725951038499,2024-09-10T06:50:38.499Z,190690,0.21234131,-0.8353882,0.21447754
1725951038545,2024-09-10T06:50:38.545Z,190736,0.19702148,-0.83026123,0.2019043
1725951038592,2024-09-10T06:50:38.592Z,190783,0.19122314,-0.8409424,0.21508789
1725951038619,2024-09-10T06:50:38.619Z,190810,0.18157959,-0.86260986,0.22589111
1725951038647,2024-09-10T06:50:38.647Z,190838,0.16687012,-0.8689575,0.22772217
1725951038681,2024-09-10T06:50:38.681Z,190872,0.15734863,-0.8707886,0.23736572
1725951038725,2024-09-10T06:50:38.725Z,190916,0.14910889,-0.868042,0.23303223
1725951038771,2024-09-10T06:50:38.771Z,190962,0.14477539,-0.8709717,0.22479248
1725951038815,2024-09-10T06:50:38.815Z,191006,0.14984131,-0.89141846,0.23052979
1725951038859,2024-09-10T06:50:38.859Z,191050,0.14581299,-0.92315674,0.24249268
1725951038907,2024-09-10T06:50:38.907Z,191098,0.14050293,-0.94732666,0.25421143
1725951038954,2024-09-10T06:50:38.954Z,191145,0.13317871,-0.9622803,0.26708984
1725951039001,2024-09-10T06:50:39.001Z,191192,0.122924805,-0.9552002,0.2659912
1725951039023,2024-09-10T06:50:39.023Z,191214,0.11242676,-0.93310547,0.25256348
1725951039045,2024-09-10T06:50:39.045Z,191236,0.10168457,-0.9078369,0.2420044
1725951039083,2024-09-10T06:50:39.083Z,191274,0.09161377,-0.8810425,0.22686768
1725951039132,2024-09-10T06:50:39.132Z,191323,0.08929443,-0.8687134,0.23016357
1725951039173,2024-09-10T06:50:39.173Z,191364,0.07598877,-0.8793335,0.24224854
1725951039220,2024-09-10T06:50:39.220Z,191411,0.08026123,-0.8912964,0.24603271
1725951039265,2024-09-10T06:50:39.265Z,191456,0.07531738,-0.9155884,0.24121094
1725951039313,2024-09-10T06:50:39.313Z,191504,0.06500244,-0.94506836,0.22271729
1725951039351,2024-09-10T06:50:39.351Z,191542,0.051879883,-0.9750366,0.2133789
1725951039396,2024-09-10T06:50:39.396Z,191587,0.037231445,-0.99798584,0.2052002
1725951039441,2024-09-10T06:50:39.441Z,191632,0.0368042,-0.99890137,0.19555664
1725951039457,2024-09-10T06:50:39.457Z,191648,0.024536133,-0.9904175,0.18060303
1725951039487,2024-09-10T06:50:39.487Z,191678,0.016235352,-0.9750366,0.16485596
1725951183306,2024-09-10T06:53:03.306Z,335497,0.12310791,-0.96954346,-0.057006836
1725951183350,2024-09-10T06:53:03.350Z,335541,0.13775635,-0.95648193,-0.08105469
1725951183396,2024-09-10T06:53:03.396Z,335587,0.13348389,-0.94055176,-0.07550049
1725951183441,2024-09-10T06:53:03.441Z,335632,0.11828613,-0.9387207,-0.061401367
1725951183484,2024-09-10T06:53:03.484Z,335675,0.111083984,-0.9540405,-0.021972656
1725951183530,2024-09-10T06:53:03.530Z,335721,0.117004395,-0.97662354,-0.0030517578
1725951183576,2024-09-10T06:53:03.576Z,335767,0.1505127,-0.99212646,0.015014648
1725951183625,2024-09-10T06:53:03.625Z,335816,0.17547607,-0.998291,0.015625
1725951183657,2024-09-10T06:53:03.657Z,335848,0.17468262,-1.0089722,0.048461914
1725951183691,2024-09-10T06:53:03.691Z,335882,0.1774292,-0.9994507,0.052490234
1725951183712,2024-09-10T06:53:03.712Z,335903,0.17327881,-0.98150635,0.060180664
1725951183756,2024-09-10T06:53:03.756Z,335947,0.15594482,-0.96484375,0.07019043
1725951183803,2024-09-10T06:53:03.803Z,335994,0.1494751,-0.9536743,0.07678223
1725951183848,2024-09-10T06:53:03.848Z,336039,0.14813232,-0.9522705,0.08911133
1725951183893,2024-09-10T06:53:03.893Z,336084,0.1519165,-0.958374,0.09460449
1725951183937,2024-09-10T06:53:03.937Z,336128,0.14837646,-0.9663086,0.120788574
1725951183984,2024-09-10T06:53:03.984Z,336175,0.16101074,-0.9671631,0.112854004
1725951184029,2024-09-10T06:53:04.029Z,336220,0.16815186,-0.9633789,0.12359619
1725951184073,2024-09-10T06:53:04.073Z,336264,0.18450928,-0.95532227,0.12145996
1725951184101,2024-09-10T06:53:04.101Z,336292,0.17559814,-0.93951416,0.11608887
1725951184129,2024-09-10T06:53:04.129Z,336320,0.16894531,-0.9173584,0.11151123
1725951184159,2024-09-10T06:53:04.159Z,336350,0.18017578,-0.90063477,0.105041504
1725951184207,2024-09-10T06:53:04.207Z,336398,0.19281006,-0.8961792,0.11584473
1725951184253,2024-09-10T06:53:04.253Z,336444,0.20532227,-0.8899536,0.12176514
1725951184298,2024-09-10T06:53:04.298Z,336489,0.21459961,-0.8905029,0.14233398
1725951184344,2024-09-10T06:53:04.344Z,336535,0.21325684,-0.88134766,0.14691162
1725951184388,2024-09-10T06:53:04.388Z,336579,0.22271729,-0.8687134,0.15649414
1725951184432,2024-09-10T06:53:04.432Z,336623,0.23223877,-0.8583374,0.18164062
1725951184480,2024-09-10T06:53:04.480Z,336671,0.23669434,-0.84124756,0.1842041
1725951184506,2024-09-10T06:53:04.506Z,336697,0.24041748,-0.833374,0.19335938
1725951184528,2024-09-10T06:53:04.528Z,336719,0.2390747,-0.8269043,0.1907959
1725951184565,2024-09-10T06:53:04.565Z,336756,0.2376709,-0.82647705,0.19134521
1725951184613,2024-09-10T06:53:04.613Z,336804,0.24633789,-0.8251953,0.19085693
1725951184656,2024-09-10T06:53:04.656Z,336847,0.26715088,-0.8189697,0.1887207
1725951184703,2024-09-10T06:53:04.703Z,336894,0.2939453,-0.8045654,0.19091797
1725951184750,2024-09-10T06:53:04.750Z,336941,0.32025146,-0.80126953,0.1887207
1725951184791,2024-09-10T06:53:04.791Z,336982,0.34985352,-0.81799316,0.18847656
1725951184838,2024-09-10T06:53:04.838Z,337029,0.36938477,-0.8508301,0.20587158
1725951184883,2024-09-10T06:53:04.883Z,337074,0.3859253,-0.8729248,0.21911621
1725951184915,2024-09-10T06:53:04.915Z,337106,0.40533447,-0.89611816,0.23529053
1725951184942,2024-09-10T06:53:04.942Z,337133,0.42596436,-0.9022827,0.24261475
1725951184972,2024-09-10T06:53:04.972Z,337163,0.4454956,-0.8913574,0.23132324
1725951185015,2024-09-10T06:53:05.015Z,337206,0.47503662,-0.88916016,0.2298584
1725951185063,2024-09-10T06:53:05.063Z,337254,0.5012207,-0.8892822,0.23956299
1725951185109,2024-09-10T06:53:05.109Z,337300,0.53204346,-0.88256836,0.23547363
1725951185154,2024-09-10T06:53:05.154Z,337345,0.5518799,-0.87493896,0.2421875
1725951185202,2024-09-10T06:53:05.202Z,337393,0.56884766,-0.8665161,0.24737549
1725951185241,2024-09-10T06:53:05.241Z,337432,0.57244873,-0.8548584,0.25915527
1725951185289,2024-09-10T06:53:05.289Z,337480,0.579834,-0.84381104,0.2730713
1725951185332,2024-09-10T06:53:05.332Z,337523,0.57769775,-0.8430176,0.2753296
1725951185396,2024-09-10T06:53:05.396Z,337587,0.5749512,-0.8377075,0.2828369
1725951185422,2024-09-10T06:53:05.422Z,337613,0.5773926,-0.8242798,0.2932129
1725951185466,2024-09-10T06:53:05.466Z,337657,0.58288574,-0.8100586,0.29315186
1725951185485,2024-09-10T06:53:05.485Z,337676,0.57366943,-0.8050537,0.30548096
1725951185512,2024-09-10T06:53:05.512Z,337703,0.5667114,-0.7942505,0.30871582
1725951185557,2024-09-10T06:53:05.557Z,337748,0.5588989,-0.779541,0.31420898
1725951185602,2024-09-10T06:53:05.602Z,337793,0.55444336,-0.7689209,0.3024292
1725951185648,2024-09-10T06:53:05.648Z,337839,0.5505371,-0.76745605,0.2937622
1725951185695,2024-09-10T06:53:05.695Z,337886,0.5560913,-0.7615967,0.28485107
1725951185757,2024-09-10T06:53:05.757Z,337948,0.5631714,-0.7546997,0.28948975
1725951185782,2024-09-10T06:53:05.782Z,337973,0.57836914,-0.75756836,0.29589844
1725951185802,2024-09-10T06:53:05.802Z,337993,0.59155273,-0.7744751,0.3046875
1725951185836,2024-09-10T06:53:05.836Z,338027,0.59606934,-0.7880249,0.31298828
1725951185872,2024-09-10T06:53:05.872Z,338063,0.59191895,-0.7872925,0.3143921
1725951185919,2024-09-10T06:53:05.919Z,338110,0.57507324,-0.7782593,0.3081665
1725951185964,2024-09-10T06:53:05.964Z,338155,0.5570679,-0.7781372,0.30303955
1725951186005,2024-09-10T06:53:06.005Z,338196,0.55249023,-0.77911377,0.30010986
1725951186054,2024-09-10T06:53:06.054Z,338245,0.5643921,-0.7741089,0.30389404
1725951186099,2024-09-10T06:53:06.099Z,338290,0.57696533,-0.75946045,0.3067627
1725951186144,2024-09-10T06:53:06.144Z,338335,0.5824585,-0.744812,0.3157959
1725951186170,2024-09-10T06:53:06.170Z,338361,0.5664673,-0.7319946,0.32061768
1725951186191,2024-09-10T06:53:06.191Z,338382,0.5550537,-0.7180176,0.32757568
1725951186231,2024-09-10T06:53:06.231Z,338422,0.5366821,-0.7154541,0.32128906
1725951186277,2024-09-10T06:53:06.277Z,338468,0.5305176,-0.72991943,0.31500244
1725951186321,2024-09-10T06:53:06.321Z,338512,0.5248413,-0.74816895,0.31134033
1725951186368,2024-09-10T06:53:06.368Z,338559,0.532959,-0.75891113,0.31848145
1725951186414,2024-09-10T06:53:06.414Z,338605,0.53912354,-0.753479,0.3201294
1725951186458,2024-09-10T06:53:06.458Z,338649,0.5507202,-0.7481079,0.3262329
1725951186503,2024-09-10T06:53:06.503Z,338694,0.5477295,-0.74176025,0.31903076
1725951186550,2024-09-10T06:53:06.550Z,338741,0.5283203,-0.7282715,0.31549072
1725951186581,2024-09-10T06:53:06.581Z,338772,0.4987793,-0.71954346,0.3048706
1725951186605,2024-09-10T06:53:06.605Z,338796,0.48553467,-0.72265625,0.3005371
1725951186644,2024-09-10T06:53:06.644Z,338835,0.4810791,-0.7327881,0.29864502
1725951186688,2024-09-10T06:53:06.688Z,338879,0.49884033,-0.74017334,0.30126953
1725951186775,2024-09-10T06:53:06.775Z,338966,0.5274048,-0.755249,0.30773926
1725951186810,2024-09-10T06:53:06.810Z,339001,0.5410156,-0.77227783,0.31536865
1725951186864,2024-09-10T06:53:06.864Z,339055,0.53515625,-0.7944336,0.32104492
1725951186892,2024-09-10T06:53:06.892Z,339083,0.5302124,-0.8140869,0.33563232
1725951186913,2024-09-10T06:53:06.913Z,339104,0.53411865,-0.8300171,0.3458252
1725951186951,2024-09-10T06:53:06.951Z,339142,0.54473877,-0.835083,0.3577881
1725951186998,2024-09-10T06:53:06.998Z,339189,0.5578003,-0.8234863,0.362854
1725951187019,2024-09-10T06:53:07.019Z,339210,0.5595703,-0.8065796,0.36547852
1725951187042,2024-09-10T06:53:07.042Z,339233,0.55615234,-0.7937622,0.36175537
1725951187085,2024-09-10T06:53:07.085Z,339276,0.5563965,-0.79504395,0.3557129
1725951187133,2024-09-10T06:53:07.133Z,339324,0.5540161,-0.81066895,0.34851074
1725951187179,2024-09-10T06:53:07.179Z,339370,0.54815674,-0.8356323,0.35046387
1725951187221,2024-09-10T06:53:07.221Z,339412,0.5345459,-0.8498535,0.34362793
1725951187270,2024-09-10T06:53:07.270Z,339461,0.5229492,-0.84710693,0.33270264
1725951187311,2024-09-10T06:53:07.311Z,339502,0.5178833,-0.84576416,0.32543945
1725951187359,2024-09-10T06:53:07.359Z,339550,0.51885986,-0.8406372,0.3182373
1725951187405,2024-09-10T06:53:07.405Z,339596,0.52404785,-0.83898926,0.33502197
1725951187436,2024-09-10T06:53:07.436Z,339627,0.5274048,-0.8334961,0.33502197
1725951187457,2024-09-10T06:53:07.457Z,339648,0.52038574,-0.8453369,0.32269287
1725951187491,2024-09-10T06:53:07.491Z,339682,0.4920044,-0.8675537,0.3168335
1725951187539,2024-09-10T06:53:07.539Z,339730,0.46228027,-0.8720703,0.28875732
1725951187584,2024-09-10T06:53:07.584Z,339775,0.42034912,-0.8668823,0.27844238
1725951187630,2024-09-10T06:53:07.630Z,339821,0.37921143,-0.8477783,0.27783203
1725951187671,2024-09-10T06:53:07.671Z,339862,0.34747314,-0.83203125,0.24584961
1725951187721,2024-09-10T06:53:07.721Z,339912,0.3251953,-0.83392334,0.25073242
1725951187761,2024-09-10T06:53:07.761Z,339952,0.2946167,-0.83935547,0.2399292
1725951187808,2024-09-10T06:53:07.808Z,339999,0.2841797,-0.8319092,0.22241211
1725951187837,2024-09-10T06:53:07.837Z,340028,0.26867676,-0.84161377,0.22924805
1725951187860,2024-09-10T06:53:07.860Z,340051,0.25006104,-0.8496094,0.2211914
1725951187895,2024-09-10T06:53:07.895Z,340086,0.24591064,-0.8590088,0.21868896
1725951187944,2024-09-10T06:53:07.944Z,340135,0.23138428,-0.87890625,0.2076416
1725951188034,2024-09-10T06:53:08.034Z,340225,0.23571777,-0.8956909,0.19250488
1725951188065,2024-09-10T06:53:08.065Z,340256,0.2276001,-0.91448975,0.19067383
1725951188091,2024-09-10T06:53:08.091Z,340282,0.21844482,-0.9061279,0.16455078
1725951188121,2024-09-10T06:53:08.121Z,340312,0.2020874,-0.8764038,0.15203857
1725951188169,2024-09-10T06:53:08.169Z,340360,0.17883301,-0.854126,0.13482666
1725951188213,2024-09-10T06:53:08.213Z,340404,0.15966797,-0.84783936,0.12854004
1725951188256,2024-09-10T06:53:08.256Z,340447,0.1484375,-0.8488159,0.11578369
1725951188279,2024-09-10T06:53:08.279Z,340470,0.14172363,-0.8640747,0.12097168
1725951188302,2024-09-10T06:53:08.302Z,340493,0.13494873,-0.8864136,0.1159668
1725951188347,2024-09-10T06:53:08.347Z,340538,0.12615967,-0.9128418,0.12554932
1725951188394,2024-09-10T06:53:08.394Z,340585,0.11444092,-0.9388428,0.13018799
1725951188439,2024-09-10T06:53:08.439Z,340630,0.11090088,-0.9555664,0.12860107
1725951188483,2024-09-10T06:53:08.483Z,340674,0.10534668,-0.9621582,0.12878418
1725951188529,2024-09-10T06:53:08.529Z,340720,0.10870361,-0.96154785,0.11425781
1725951188573,2024-09-10T06:53:08.573Z,340764,0.11114502,-0.9598999,0.1105957
1725951188620,2024-09-10T06:53:08.620Z,340811,0.113586426,-0.95495605,0.10437012
1725951188663,2024-09-10T06:53:08.663Z,340854,0.12164307,-0.95288086,0.09661865
1725951188691,2024-09-10T06:53:08.691Z,340882,0.11584473,-0.96728516,0.10076904
1725951188714,2024-09-10T06:53:08.714Z,340905,0.11090088,-0.97613525,0.10180664
1725951188750,2024-09-10T06:53:08.750Z,340941,0.09539795,-0.98223877,0.10583496
1725951188797,2024-09-10T06:53:08.797Z,340988,0.073913574,-0.98657227,0.10461426
1725951188843,2024-09-10T06:53:08.843Z,341034,0.06317139,-0.97998047,0.09643555
1725951188889,2024-09-10T06:53:08.889Z,341080,0.06036377,-0.9819336,0.10003662
1725951188933,2024-09-10T06:53:08.933Z,341124,0.059814453,-0.99176025,0.09307861
1725951188979,2024-09-10T06:53:08.979Z,341170,0.06640625,-0.99279785,0.103881836
1725951189021,2024-09-10T06:53:09.021Z,341212,0.068359375,-0.9790039,0.11151123
1725951189071,2024-09-10T06:53:09.071Z,341262,0.074401855,-0.9564209,0.11645508
1725951189103,2024-09-10T06:53:09.103Z,341294,0.076293945,-0.93811035,0.12872314
1725951189117,2024-09-10T06:53:09.117Z,341308,0.089538574,-0.91693115,0.13293457
1725951189156,2024-09-10T06:53:09.156Z,341347,0.112976074,-0.8984375,0.14556885
1725951189201,2024-09-10T06:53:09.201Z,341392,0.14337158,-0.90234375,0.15814209
1725951189249,2024-09-10T06:53:09.249Z,341440,0.15692139,-0.9147949,0.16967773
1725951189296,2024-09-10T06:53:09.296Z,341487,0.1716919,-0.92889404,0.1831665
1725951189336,2024-09-10T06:53:09.336Z,341527,0.17993164,-0.9520874,0.18426514
1725951189384,2024-09-10T06:53:09.384Z,341575,0.18035889,-0.9647217,0.20214844
1725951189430,2024-09-10T06:53:09.430Z,341621,0.18695068,-0.9429321,0.19616699
1725951189471,2024-09-10T06:53:09.471Z,341662,0.19689941,-0.9140625,0.20483398
1725951189520,2024-09-10T06:53:09.520Z,341711,0.21264648,-0.8825073,0.1975708
1725951189549,2024-09-10T06:53:09.549Z,341740,0.23083496,-0.86016846,0.18945312
1725951189571,2024-09-10T06:53:09.571Z,341762,0.23815918,-0.85614014,0.20196533
1725951189606,2024-09-10T06:53:09.606Z,341797,0.24121094,-0.8605957,0.215271
1725951189653,2024-09-10T06:53:09.653Z,341844,0.25726318,-0.875,0.22711182
1725951189700,2024-09-10T06:53:09.700Z,341891,0.28753662,-0.8967285,0.24359131
1725951189744,2024-09-10T06:53:09.744Z,341935,0.31817627,-0.90289307,0.23950195
1725951189788,2024-09-10T06:53:09.788Z,341979,0.3458252,-0.89837646,0.24438477
1725951189830,2024-09-10T06:53:09.830Z,342021,0.36938477,-0.88464355,0.23712158
1725951189879,2024-09-10T06:53:09.879Z,342070,0.3538208,-0.8588257,0.2564087
1725951189920,2024-09-10T06:53:09.920Z,342111,0.33587646,-0.8377075,0.25421143
1725951189935,2024-09-10T06:53:09.935Z,342126,0.32348633,-0.82092285,0.25585938
1725951189965,2024-09-10T06:53:09.965Z,342156,0.3338623,-0.8106079,0.26464844
1725951190011,2024-09-10T06:53:10.011Z,342202,0.35961914,-0.817749,0.26989746
1725951190057,2024-09-10T06:53:10.057Z,342248,0.38293457,-0.84381104,0.2789917
1725951190102,2024-09-10T06:53:10.102Z,342293,0.40594482,-0.87164307,0.28570557
1725951190149,2024-09-10T06:53:10.149Z,342340,0.42211914,-0.871521,0.30023193
1725951190194,2024-09-10T06:53:10.194Z,342385,0.4401245,-0.8323364,0.3062744
1725951190241,2024-09-10T06:53:10.241Z,342432,0.4572754,-0.78240967,0.31384277
1725951190283,2024-09-10T06:53:10.283Z,342474,0.460083,-0.758667,0.32592773
1725951190329,2024-09-10T06:53:10.329Z,342520,0.4716797,-0.7487793,0.3430786
1725951190356,2024-09-10T06:53:10.356Z,342547,0.4829712,-0.7609863,0.34655762
1725951190379,2024-09-10T06:53:10.379Z,342570,0.4857788,-0.7828369,0.35638428
1725951190417,2024-09-10T06:53:10.417Z,342608,0.48675537,-0.7938843,0.34631348
1725951190464,2024-09-10T06:53:10.464Z,342655,0.48162842,-0.79522705,0.32843018
1725951190505,2024-09-10T06:53:10.505Z,342696,0.4829712,-0.7910156,0.30462646
1725951190553,2024-09-10T06:53:10.553Z,342744,0.5006714,-0.7803345,0.3017578
1725951190600,2024-09-10T06:53:10.600Z,342791,0.5131836,-0.776062,0.29742432
1725951190645,2024-09-10T06:53:10.645Z,342836,0.5241699,-0.786438,0.3114624
1725951190694,2024-09-10T06:53:10.694Z,342885,0.53430176,-0.79711914,0.32110596
1725951190731,2024-09-10T06:53:10.731Z,342922,0.541626,-0.7959595,0.33392334
1725951190779,2024-09-10T06:53:10.779Z,342970,0.5449829,-0.7833252,0.34301758
1725951190806,2024-09-10T06:53:10.806Z,342997,0.5473633,-0.7662964,0.34631348
1725951190828,2024-09-10T06:53:10.828Z,343019,0.54608154,-0.75653076,0.35357666
1725951190866,2024-09-10T06:53:10.866Z,343057,0.54241943,-0.75476074,0.35528564
1725951190911,2024-09-10T06:53:10.911Z,343102,0.5443115,-0.7593994,0.36773682
1725951190957,2024-09-10T06:53:10.957Z,343148,0.54992676,-0.76379395,0.37506104
1725951191020,2024-09-10T06:53:11.020Z,343211,0.55133057,-0.7584839,0.38397217
1725951191047,2024-09-10T06:53:11.047Z,343238,0.55474854,-0.7468872,0.38238525
1725951191093,2024-09-10T06:53:11.093Z,343284,0.5620117,-0.73999023,0.3776245
1725951191135,2024-09-10T06:53:11.135Z,343326,0.57769775,-0.7293701,0.37597656
1725951191182,2024-09-10T06:53:11.182Z,343373,0.5930786,-0.7271118,0.38342285
1725951191201,2024-09-10T06:53:11.201Z,343392,0.59625244,-0.73046875,0.38531494
1725951191226,2024-09-10T06:53:11.226Z,343417,0.5910034,-0.7357178,0.3864746
1725951191272,2024-09-10T06:53:11.272Z,343463,0.56866455,-0.7367554,0.38671875
1725951191316,2024-09-10T06:53:11.316Z,343507,0.5512085,-0.7315674,0.38220215
1725951191362,2024-09-10T06:53:11.362Z,343553,0.5518799,-0.7197876,0.380188
1725951191409,2024-09-10T06:53:11.409Z,343600,0.54888916,-0.7092285,0.37731934
1725951191452,2024-09-10T06:53:11.452Z,343643,0.5543823,-0.71014404,0.3718872
1725951191501,2024-09-10T06:53:11.501Z,343692,0.55285645,-0.7194824,0.36444092
1725951191542,2024-09-10T06:53:11.542Z,343733,0.55548096,-0.722229,0.36499023
1725951191591,2024-09-10T06:53:11.591Z,343782,0.55267334,-0.7236328,0.38653564
1725951191618,2024-09-10T06:53:11.618Z,343809,0.55078125,-0.7264404,0.4116211
1725951191640,2024-09-10T06:53:11.640Z,343831,0.5513916,-0.71655273,0.41796875
1725951191675,2024-09-10T06:53:11.675Z,343866,0.5366821,-0.6948242,0.39404297
1725951191721,2024-09-10T06:53:11.721Z,343912,0.5253906,-0.7074585,0.3848877
1725951191769,2024-09-10T06:53:11.769Z,343960,0.52563477,-0.72369385,0.3687744
1725951191816,2024-09-10T06:53:11.816Z,344007,0.5391846,-0.7416992,0.36602783
1725951191857,2024-09-10T06:53:11.857Z,344048,0.5566406,-0.763855,0.37908936
1725951191906,2024-09-10T06:53:11.906Z,344097,0.5862427,-0.7850342,0.38671875
1725951191946,2024-09-10T06:53:11.946Z,344137,0.6074219,-0.7973633,0.3986206
1725951192011,2024-09-10T06:53:12.011Z,344202,0.6258545,-0.8060913,0.40405273
1725951192039,2024-09-10T06:53:12.039Z,344230,0.6367798,-0.80877686,0.40856934
1725951192059,2024-09-10T06:53:12.059Z,344250,0.6520996,-0.80371094,0.41326904
1725951192081,2024-09-10T06:53:12.081Z,344272,0.6566162,-0.8032837,0.42651367
1725951192127,2024-09-10T06:53:12.127Z,344318,0.64678955,-0.7956543,0.42993164
1725951192173,2024-09-10T06:53:12.173Z,344364,0.6390991,-0.79119873,0.447937
1725951192218,2024-09-10T06:53:12.218Z,344409,0.6125488,-0.7816162,0.44024658
1725951192267,2024-09-10T06:53:12.267Z,344458,0.5991211,-0.77734375,0.44030762
1725951192306,2024-09-10T06:53:12.306Z,344497,0.5844116,-0.7703247,0.42193604
1725951192355,2024-09-10T06:53:12.355Z,344546,0.58148193,-0.7647095,0.3984375
1725951192399,2024-09-10T06:53:12.399Z,344590,0.5774536,-0.75250244,0.3746338
1725951192441,2024-09-10T06:53:12.441Z,344632,0.54345703,-0.72558594,0.35064697
1725951192463,2024-09-10T06:53:12.463Z,344654,0.5163574,-0.70184326,0.33203125
1725951192486,2024-09-10T06:53:12.486Z,344677,0.5209961,-0.68133545,0.3199463
1725951192532,2024-09-10T06:53:12.532Z,344723,0.54589844,-0.685791,0.32025146
1725951192580,2024-09-10T06:53:12.580Z,344771,0.5680542,-0.7164917,0.3334961
1725951192623,2024-09-10T06:53:12.623Z,344814,0.5595703,-0.75177,0.33514404
1725951192667,2024-09-10T06:53:12.667Z,344858,0.53082275,-0.7767334,0.3399048
1725951192716,2024-09-10T06:53:12.716Z,344907,0.48962402,-0.7861328,0.33325195
1725951192756,2024-09-10T06:53:12.756Z,344947,0.47265625,-0.77160645,0.317688
1725951192803,2024-09-10T06:53:12.803Z,344994,0.46081543,-0.76068115,0.31072998
1725951192850,2024-09-10T06:53:12.850Z,345041,0.4505005,-0.75427246,0.29504395
1725951192877,2024-09-10T06:53:12.877Z,345068,0.43395996,-0.76123047,0.28399658
1725951192899,2024-09-10T06:53:12.899Z,345090,0.40942383,-0.77856445,0.2685547
1725951192937,2024-09-10T06:53:12.937Z,345128,0.38433838,-0.8009033,0.25524902
1725951192987,2024-09-10T06:53:12.987Z,345178,0.37451172,-0.8180542,0.25280762
1725951193027,2024-09-10T06:53:13.027Z,345218,0.37817383,-0.8265991,0.24401855
1725951193075,2024-09-10T06:53:13.075Z,345266,0.3852539,-0.84503174,0.24798584
1725951193116,2024-09-10T06:53:13.116Z,345307,0.38537598,-0.8496094,0.2341919
1725951193161,2024-09-10T06:53:13.161Z,345352,0.38378906,-0.8417969,0.23522949
1725951193209,2024-09-10T06:53:13.209Z,345400,0.3581543,-0.82562256,0.2387085
1725951193253,2024-09-10T06:53:13.253Z,345444,0.32666016,-0.8163452,0.23590088
1725951193296,2024-09-10T06:53:13.296Z,345487,0.30847168,-0.83288574,0.23815918
1725951193318,2024-09-10T06:53:13.318Z,345509,0.2994995,-0.8585205,0.24890137
1725951193341,2024-09-10T06:53:13.341Z,345532,0.29821777,-0.88079834,0.26501465
1725951193386,2024-09-10T06:53:13.386Z,345577,0.29718018,-0.8885498,0.27825928
1725951193434,2024-09-10T06:53:13.434Z,345625,0.2932129,-0.8864136,0.28961182
1725951193476,2024-09-10T06:53:13.476Z,345667,0.27416992,-0.8815918,0.2923584
1725951193525,2024-09-10T06:53:13.525Z,345716,0.26397705,-0.87561035,0.30029297
1725951193568,2024-09-10T06:53:13.568Z,345759,0.25500488,-0.864624,0.29626465
1725951193614,2024-09-10T06:53:13.614Z,345805,0.2503662,-0.86083984,0.29345703
1725951193656,2024-09-10T06:53:13.656Z,345847,0.23846436,-0.8631592,0.2921753
1725951193704,2024-09-10T06:53:13.704Z,345895,0.22363281,-0.87176514,0.2935791
1725951193724,2024-09-10T06:53:13.724Z,345915,0.21118164,-0.88427734,0.29077148
1725951193744,2024-09-10T06:53:13.744Z,345935,0.19818115,-0.8925171,0.29522705
1725951193791,2024-09-10T06:53:13.791Z,345982,0.18652344,-0.8991089,0.2880249
1725951193836,2024-09-10T06:53:13.836Z,346027,0.17932129,-0.9015503,0.2741089
1725951193884,2024-09-10T06:53:13.884Z,346075,0.16937256,-0.90356445,0.2631836
1725951193974,2024-09-10T06:53:13.974Z,346165,0.15942383,-0.90960693,0.24871826
1725951194007,2024-09-10T06:53:14.007Z,346198,0.13665771,-0.91516113,0.23510742
1725951194029,2024-09-10T06:53:14.029Z,346220,0.10827637,-0.91534424,0.21765137
1725951194060,2024-09-10T06:53:14.060Z,346251,0.08068848,-0.9113159,0.2133789
1725951194105,2024-09-10T06:53:14.105Z,346296,0.07635498,-0.90045166,0.19372559
1725951194122,2024-09-10T06:53:14.122Z,346313,0.09320068,-0.90844727,0.17340088
1725951194150,2024-09-10T06:53:14.150Z,346341,0.10748291,-0.9400635,0.16394043
1725951194197,2024-09-10T06:53:14.197Z,346388,0.11437988,-0.9625244,0.16552734
1725951194242,2024-09-10T06:53:14.242Z,346433,0.117004395,-0.9831543,0.18408203
1725951194289,2024-09-10T06:53:14.289Z,346480,0.13018799,-0.9835205,0.1796875
1725951194333,2024-09-10T06:53:14.333Z,346524,0.14074707,-0.9594116,0.17791748
1725951194377,2024-09-10T06:53:14.377Z,346568,0.14294434,-0.9337158,0.1619873
1725951194424,2024-09-10T06:53:14.424Z,346615,0.15185547,-0.9140625,0.16192627
1725951194471,2024-09-10T06:53:14.471Z,346662,0.15515137,-0.90893555,0.17022705
1725951194512,2024-09-10T06:53:14.512Z,346703,0.16192627,-0.92510986,0.18377686
1725951194560,2024-09-10T06:53:14.560Z,346751,0.18078613,-0.94989014,0.17901611
1725951194591,2024-09-10T06:53:14.591Z,346782,0.19616699,-0.9753418,0.1907959
1725951194611,2024-09-10T06:53:14.611Z,346802,0.19470215,-1.0003052,0.20245361
1725951194647,2024-09-10T06:53:14.647Z,346838,0.19006348,-1.007019,0.20141602
1725951194695,2024-09-10T06:53:14.695Z,346886,0.18896484,-0.9932251,0.19317627
1725951194736,2024-09-10T06:53:14.736Z,346927,0.1953125,-0.9706421,0.1920166
1725951194784,2024-09-10T06:53:14.784Z,346975,0.19732666,-0.9433594,0.18493652
1725951194827,2024-09-10T06:53:14.827Z,347018,0.2109375,-0.9155884,0.18609619
1725951194875,2024-09-10T06:53:14.875Z,347066,0.21795654,-0.90740967,0.18200684
1725951194916,2024-09-10T06:53:14.916Z,347107,0.22888184,-0.9122925,0.1897583
1725951194965,2024-09-10T06:53:14.965Z,347156,0.22692871,-0.91674805,0.19348145
1725951194993,2024-09-10T06:53:14.993Z,347184,0.22174072,-0.91607666,0.1975708
1725951195014,2024-09-10T06:53:15.014Z,347205,0.21862793,-0.9105835,0.19940186
1725951195052,2024-09-10T06:53:15.052Z,347243,0.21209717,-0.9013672,0.20391846
1725951195103,2024-09-10T06:53:15.103Z,347294,0.2121582,-0.89642334,0.20690918
1725951195142,2024-09-10T06:53:15.142Z,347333,0.2107544,-0.902771,0.21118164
1725951195188,2024-09-10T06:53:15.188Z,347379,0.20758057,-0.9057617,0.21624756
1725951195233,2024-09-10T06:53:15.233Z,347424,0.19714355,-0.8918457,0.20477295
1725951195276,2024-09-10T06:53:15.276Z,347467,0.20397949,-0.88201904,0.20117188
1725951195324,2024-09-10T06:53:15.324Z,347515,0.2166748,-0.8892212,0.20513916
1725951195369,2024-09-10T06:53:15.369Z,347560,0.234375,-0.8782959,0.20874023
1725951195400,2024-09-10T06:53:15.400Z,347591,0.26348877,-0.86676025,0.22149658
1725951195425,2024-09-10T06:53:15.425Z,347616,0.2730713,-0.87109375,0.23187256
1725951195455,2024-09-10T06:53:15.455Z,347646,0.28045654,-0.88061523,0.2374878
1725951195502,2024-09-10T06:53:15.502Z,347693,0.2854004,-0.89471436,0.24737549
1725951195547,2024-09-10T06:53:15.547Z,347738,0.29919434,-0.8998413,0.2518921
1725951195592,2024-09-10T06:53:15.592Z,347783,0.31628418,-0.8890991,0.2678833
1725951195639,2024-09-10T06:53:15.639Z,347830,0.34039307,-0.85705566,0.2838745
1725951195681,2024-09-10T06:53:15.681Z,347872,0.35717773,-0.8149414,0.2909546
1725951195729,2024-09-10T06:53:15.729Z,347920,0.37756348,-0.79333496,0.29595947
1725951195771,2024-09-10T06:53:15.771Z,347962,0.39001465,-0.78778076,0.3062744
1725951195820,2024-09-10T06:53:15.820Z,348011,0.39257812,-0.79071045,0.32000732
1725951195849,2024-09-10T06:53:15.849Z,348040,0.40026855,-0.79455566,0.3394165
1725951195871,2024-09-10T06:53:15.871Z,348062,0.4194336,-0.7956543,0.34643555
1725951195905,2024-09-10T06:53:15.905Z,348096,0.4378662,-0.7960205,0.35333252
1725951195952,2024-09-10T06:53:15.952Z,348143,0.4590454,-0.7880249,0.35125732
1725951195998,2024-09-10T06:53:15.998Z,348189,0.4668579,-0.767334,0.34332275
1725951196043,2024-09-10T06:53:16.043Z,348234,0.46392822,-0.760437,0.3446045
1725951196088,2024-09-10T06:53:16.088Z,348279,0.4680786,-0.7536011,0.3373413
1725951196131,2024-09-10T06:53:16.131Z,348322,0.47991943,-0.76293945,0.3548584
1725951196179,2024-09-10T06:53:16.179Z,348370,0.48242188,-0.7664795,0.3626709
1725951196221,2024-09-10T06:53:16.221Z,348412,0.4741211,-0.7537842,0.35986328
1725951196240,2024-09-10T06:53:16.240Z,348431,0.4647827,-0.74835205,0.35601807
1725951196267,2024-09-10T06:53:16.267Z,348458,0.47039795,-0.7470093,0.354187
1725951196311,2024-09-10T06:53:16.311Z,348502,0.4781494,-0.751709,0.36187744
1725951196356,2024-09-10T06:53:16.356Z,348547,0.49047852,-0.7619629,0.36975098
1725951196402,2024-09-10T06:53:16.402Z,348593,0.48840332,-0.7722168,0.37054443
1725951196447,2024-09-10T06:53:16.447Z,348638,0.47686768,-0.7741699,0.36999512
1725951196498,2024-09-10T06:53:16.498Z,348689,0.4821167,-0.7783203,0.37573242
1725951196536,2024-09-10T06:53:16.536Z,348727,0.52178955,-0.78479004,0.4072876
1725951196583,2024-09-10T06:53:16.583Z,348774,0.58135986,-0.7557373,0.4290161
1725951196645,2024-09-10T06:53:16.645Z,348836,0.62438965,-0.7149048,0.43548584
1725951196670,2024-09-10T06:53:16.670Z,348861,0.63775635,-0.6880493,0.43389893
1725951196716,2024-09-10T06:53:16.716Z,348907,0.6272583,-0.6800537,0.41687012
1725951196737,2024-09-10T06:53:16.737Z,348928,0.62268066,-0.6876831,0.40386963
1725951196762,2024-09-10T06:53:16.762Z,348953,0.6333618,-0.6991577,0.39208984
1725951196807,2024-09-10T06:53:16.807Z,348998,0.6428833,-0.7133179,0.39422607
1725951196853,2024-09-10T06:53:16.853Z,349044,0.6549072,-0.71655273,0.39624023
1725951196899,2024-09-10T06:53:16.899Z,349090,0.6469116,-0.7094116,0.40582275
1725951196942,2024-09-10T06:53:16.942Z,349133,0.6325073,-0.6850586,0.39575195
1725951196990,2024-09-10T06:53:16.990Z,349181,0.63616943,-0.6549072,0.39422607
1725951197032,2024-09-10T06:53:17.032Z,349223,0.6298218,-0.6376343,0.39526367
1725951197078,2024-09-10T06:53:17.078Z,349269,0.60723877,-0.6248169,0.4003296
1725951197109,2024-09-10T06:53:17.109Z,349300,0.5807495,-0.6264038,0.40551758
1725951197137,2024-09-10T06:53:17.137Z,349328,0.58917236,-0.63098145,0.42370605
1725951197169,2024-09-10T06:53:17.169Z,349360,0.65338135,-0.6258545,0.46221924
1725951197210,2024-09-10T06:53:17.210Z,349401,0.7140503,-0.6005249,0.5101929
1725951197259,2024-09-10T06:53:17.259Z,349450,0.7312012,-0.5598755,0.52819824
1725951197304,2024-09-10T06:53:17.304Z,349495,0.71990967,-0.53881836,0.5234375
1725951197349,2024-09-10T06:53:17.349Z,349540,0.7138672,-0.55462646,0.5004883
1725951197391,2024-09-10T06:53:17.391Z,349582,0.7514038,-0.6014404,0.51226807
1725951197439,2024-09-10T06:53:17.439Z,349630,0.80859375,-0.6561279,0.50897217
1725951197481,2024-09-10T06:53:17.481Z,349672,0.8661499,-0.6911621,0.5338135
1725951197503,2024-09-10T06:53:17.503Z,349694,0.8781738,-0.66638184,0.56188965
1725951197526,2024-09-10T06:53:17.526Z,349717,0.8450928,-0.6189575,0.57647705
1725951197571,2024-09-10T06:53:17.571Z,349762,0.7838135,-0.5664673,0.5350952
1725951197619,2024-09-10T06:53:17.619Z,349810,0.7312012,-0.5609131,0.5027466
1725951197661,2024-09-10T06:53:17.661Z,349852,0.6991577,-0.5667114,0.4953003
1725951197709,2024-09-10T06:53:17.709Z,349900,0.69470215,-0.5588989,0.4901123
1725951197751,2024-09-10T06:53:17.751Z,349942,0.6642456,-0.5529785,0.47198486
1725951197799,2024-09-10T06:53:17.799Z,349990,0.6355591,-0.55255127,0.44799805
1725951197841,2024-09-10T06:53:17.841Z,350032,0.6234131,-0.5596924,0.43499756
1725951197889,2024-09-10T06:53:17.889Z,350080,0.6213379,-0.54974365,0.4173584
1725951197919,2024-09-10T06:53:17.919Z,350110,0.64575195,-0.5460205,0.4076538
1725951197941,2024-09-10T06:53:17.941Z,350132,0.65686035,-0.5571289,0.40026855
1725951197975,2024-09-10T06:53:17.975Z,350166,0.6571655,-0.58477783,0.40966797
1725951198026,2024-09-10T06:53:18.026Z,350217,0.6497803,-0.61883545,0.4095459
1725951198066,2024-09-10T06:53:18.066Z,350257,0.635437,-0.6586304,0.42443848
1725951198116,2024-09-10T06:53:18.116Z,350307,0.6220703,-0.6869507,0.4232788
1725951198156,2024-09-10T06:53:18.156Z,350347,0.5977173,-0.69714355,0.42297363
1725951198201,2024-09-10T06:53:18.201Z,350392,0.5696411,-0.68792725,0.41229248
1725951198249,2024-09-10T06:53:18.249Z,350440,0.54138184,-0.68444824,0.3991089
1725951198295,2024-09-10T06:53:18.295Z,350486,0.50024414,-0.6893921,0.39093018
1725951198339,2024-09-10T06:53:18.339Z,350530,0.4644165,-0.6991577,0.37475586
1725951198366,2024-09-10T06:53:18.366Z,350557,0.41912842,-0.7175293,0.362854
1725951198387,2024-09-10T06:53:18.387Z,350578,0.387146,-0.7355957,0.34417725
1725951198426,2024-09-10T06:53:18.426Z,350617,0.37078857,-0.7523804,0.32226562
1725951198475,2024-09-10T06:53:18.475Z,350666,0.35443115,-0.7591553,0.3081665
1725951198517,2024-09-10T06:53:18.517Z,350708,0.35455322,-0.7541504,0.30438232
1725951198562,2024-09-10T06:53:18.562Z,350753,0.35168457,-0.7513428,0.30255127
1725951198608,2024-09-10T06:53:18.608Z,350799,0.35961914,-0.7564087,0.30932617
1725951198653,2024-09-10T06:53:18.653Z,350844,0.35394287,-0.7770996,0.31219482
1725951198699,2024-09-10T06:53:18.699Z,350890,0.34417725,-0.8095703,0.30664062
1725951198743,2024-09-10T06:53:18.743Z,350934,0.31799316,-0.8607178,0.3015747
1725951198776,2024-09-10T06:53:18.776Z,350967,0.28930664,-0.897522,0.30133057
1725951198800,2024-09-10T06:53:18.800Z,350991,0.25891113,-0.90148926,0.29644775
1725951198831,2024-09-10T06:53:18.831Z,351022,0.23443604,-0.8883667,0.28704834
1725951198876,2024-09-10T06:53:18.876Z,351067,0.21166992,-0.8815918,0.28631592
1725951198922,2024-09-10T06:53:18.922Z,351113,0.18640137,-0.883667,0.27679443
1725951198969,2024-09-10T06:53:18.969Z,351160,0.16851807,-0.9016113,0.2705078
1725951199013,2024-09-10T06:53:19.013Z,351204,0.14868164,-0.9182129,0.25524902
1725951199056,2024-09-10T06:53:19.056Z,351247,0.13275146,-0.92559814,0.24591064
1725951199103,2024-09-10T06:53:19.103Z,351294,0.12475586,-0.91638184,0.23516846
1725951199147,2024-09-10T06:53:19.147Z,351338,0.1439209,-0.8925781,0.22155762
1725951199173,2024-09-10T06:53:19.173Z,351364,0.12854004,-0.8842163,0.21502686
1725951199195,2024-09-10T06:53:19.195Z,351386,0.13360596,-0.90460205,0.21783447
1725951199236,2024-09-10T06:53:19.236Z,351427,0.12786865,-0.93981934,0.22540283
