Timestamp (ms),ISO DateTime,Elapsed Time (ms),Acceleration X,Acceleration Y,Acceleration Z
1734431928170,2024-12-17T10:38:48.170Z,19758,-0.037795555,-0.39329493,-0.9612149
1734431928177,2024-12-17T10:38:48.177Z,19765,-0.037795555,-0.39329493,-0.9612149
1734431928196,2024-12-17T10:38:48.196Z,19784,-0.0432781,-0.38962647,-0.94908285
1734431928201,2024-12-17T10:38:48.201Z,19789,-0.0432781,-0.38962647,-0.94908285
1734431928219,2024-12-17T10:38:48.219Z,19807,-0.06790001,-0.37242788,-0.94236517
1734431928224,2024-12-17T10:38:48.224Z,19812,-0.06790001,-0.37242788,-0.94236517
1734431928239,2024-12-17T10:38:48.239Z,19827,-0.07072119,-0.3773107,-0.93811566
1734431928244,2024-12-17T10:38:48.244Z,19832,-0.07072119,-0.3773107,-0.93811566
1734431928260,2024-12-17T10:38:48.260Z,19848,-0.058815006,-0.3888906,-0.9365595
1734431928264,2024-12-17T10:38:48.264Z,19852,-0.058815006,-0.3888906,-0.9365595
1734431928275,2024-12-17T10:38:48.275Z,19863,-0.042324077,-0.36261874,-0.9430253
1734431928279,2024-12-17T10:38:48.279Z,19867,-0.042324077,-0.36261874,-0.9430253
1734431928290,2024-12-17T10:38:48.290Z,19878,-0.04232787,-0.32676044,-0.94229907
1734431928293,2024-12-17T10:38:48.293Z,19881,-0.04232787,-0.32676044,-0.94229907
1734431928304,2024-12-17T10:38:48.304Z,19892,-0.025495434,-0.31683868,-0.9260681
1734431928307,2024-12-17T10:38:48.307Z,19895,-0.025495434,-0.31683868,-0.9260681
1734431928317,2024-12-17T10:38:48.317Z,19905,-0.01673497,-0.32269758,-0.9279626
1734431928321,2024-12-17T10:38:48.321Z,19909,-0.01673497,-0.32269758,-0.9279626
1734431928334,2024-12-17T10:38:48.334Z,19922,0.0036750762,-0.3261441,-0.9386786
1734431928337,2024-12-17T10:38:48.337Z,19925,0.0036750762,-0.3261441,-0.9386786
1734431928349,2024-12-17T10:38:48.349Z,19937,-1.8319038E-4,-0.3359522,-0.9176294
1734431928352,2024-12-17T10:38:48.352Z,19940,-1.8319038E-4,-0.3359522,-0.9176294
1734431928365,2024-12-17T10:38:48.365Z,19953,-0.02439403,-0.32976803,-0.8839516
1734431928369,2024-12-17T10:38:48.369Z,19957,-0.02439403,-0.32976803,-0.8839516
1734431928381,2024-12-17T10:38:48.381Z,19969,-0.037882812,-0.3320388,-0.8850751
1734431928386,2024-12-17T10:38:48.386Z,19974,-0.037882812,-0.3320388,-0.8850751
1734431928398,2024-12-17T10:38:48.398Z,19986,-0.026377082,-0.3242427,-0.87461716
1734431928402,2024-12-17T10:38:48.402Z,19990,-0.026377082,-0.3242427,-0.87461716
1734431928416,2024-12-17T10:38:48.416Z,20004,-0.008442086,-0.34279314,-0.8963367
1734431928421,2024-12-17T10:38:48.421Z,20009,-0.008442086,-0.34279314,-0.8963367
1734431928433,2024-12-17T10:38:48.433Z,20021,-0.0031211898,-0.3828509,-0.9029092
1734431928437,2024-12-17T10:38:48.437Z,20025,-0.0031211898,-0.3828509,-0.9029092
1734431928450,2024-12-17T10:38:48.450Z,20038,-0.01984815,-0.38302398,-0.866656
1734431928454,2024-12-17T10:38:48.454Z,20042,-0.01984815,-0.38302398,-0.866656
1734431928467,2024-12-17T10:38:48.467Z,20055,-0.010871529,-0.3845508,-0.8801384
1734431928471,2024-12-17T10:38:48.471Z,20059,-0.010871529,-0.3845508,-0.8801384
1734431928483,2024-12-17T10:38:48.483Z,20071,-0.014876554,-0.41317466,-0.8928516
1734431928488,2024-12-17T10:38:48.488Z,20076,-0.014876554,-0.41317466,-0.8928516
1734431928499,2024-12-17T10:38:48.499Z,20087,-0.029625556,-0.43215305,-0.8689712
1734431928503,2024-12-17T10:38:48.503Z,20091,-0.029625556,-0.43215305,-0.8689712
1734431928515,2024-12-17T10:38:48.515Z,20103,-0.02860037,-0.4610002,-0.84554535
1734431928518,2024-12-17T10:38:48.518Z,20106,-0.02860037,-0.4610002,-0.84554535
1734431928530,2024-12-17T10:38:48.530Z,20118,-0.067969054,-0.49841765,-0.82436
1734431928533,2024-12-17T10:38:48.533Z,20121,-0.067969054,-0.49841765,-0.82436
1734431928545,2024-12-17T10:38:48.545Z,20133,-0.10324885,-0.53010464,-0.80531996
1734431928550,2024-12-17T10:38:48.550Z,20138,-0.10324885,-0.53010464,-0.80531996
1734431928561,2024-12-17T10:38:48.561Z,20149,-0.04649936,-0.56587106,-0.8080867
1734431928565,2024-12-17T10:38:48.565Z,20153,-0.04649936,-0.56587106,-0.8080867
1734431928577,2024-12-17T10:38:48.577Z,20165,-0.05619841,-0.5850753,-0.8256171
1734431928582,2024-12-17T10:38:48.582Z,20170,-0.05619841,-0.5850753,-0.8256171
1734431928595,2024-12-17T10:38:48.595Z,20183,-0.05428382,-0.5934486,-0.8118816
1734431928601,2024-12-17T10:38:48.601Z,20189,-0.05428382,-0.5934486,-0.8118816
1734431928613,2024-12-17T10:38:48.613Z,20201,-0.02919262,-0.6611807,-0.8092648
1734431928618,2024-12-17T10:38:48.618Z,20206,-0.02919262,-0.6611807,-0.8092648
1734431928631,2024-12-17T10:38:48.631Z,20219,-0.07247748,-0.6784272,-0.79423076
1734431928636,2024-12-17T10:38:48.636Z,20224,-0.07247748,-0.6784272,-0.79423076
1734431928649,2024-12-17T10:38:48.649Z,20237,-0.14060839,-0.6742156,-0.7353326
1734431928653,2024-12-17T10:38:48.653Z,20241,-0.14060839,-0.6742156,-0.7353326
1734431928666,2024-12-17T10:38:48.666Z,20254,-0.08844121,-0.69656366,-0.7202187
1734431928670,2024-12-17T10:38:48.670Z,20258,-0.08844121,-0.69656366,-0.7202187
1734431928681,2024-12-17T10:38:48.681Z,20269,-0.06614007,-0.70689195,-0.7505416
1734431928684,2024-12-17T10:38:48.684Z,20272,-0.06614007,-0.70689195,-0.7505416
1734431928695,2024-12-17T10:38:48.695Z,20283,-0.041766215,-0.72843355,-0.80196613
1734431928699,2024-12-17T10:38:48.699Z,20287,-0.041766215,-0.72843355,-0.80196613
1734431928713,2024-12-17T10:38:48.713Z,20301,0.026976516,-0.7349326,-0.81954503
1734431928717,2024-12-17T10:38:48.717Z,20305,0.026976516,-0.7349326,-0.81954503
1734431928731,2024-12-17T10:38:48.731Z,20319,-0.009707535,-0.7413302,-0.824824
1734431928735,2024-12-17T10:38:48.735Z,20323,-0.009707535,-0.7413302,-0.824824
1734431928749,2024-12-17T10:38:48.749Z,20337,0.018085254,-0.7387658,-0.79841655
1734431928753,2024-12-17T10:38:48.753Z,20341,0.018085254,-0.7387658,-0.79841655
1734431928765,2024-12-17T10:38:48.765Z,20353,0.051274296,-0.7415681,-0.7978451
1734431928769,2024-12-17T10:38:48.769Z,20357,0.051274296,-0.7415681,-0.7978451
1734431928785,2024-12-17T10:38:48.785Z,20373,0.0676991,-0.7511536,-0.80359876
1734431928795,2024-12-17T10:38:48.795Z,20383,0.0676991,-0.7511536,-0.80359876
1734431928808,2024-12-17T10:38:48.808Z,20396,0.12722114,-0.7430141,-0.7727102
1734431928811,2024-12-17T10:38:48.811Z,20399,0.12722114,-0.7430141,-0.7727102
1734431928825,2024-12-17T10:38:48.825Z,20413,0.10077263,-0.7208722,-0.7803011
1734431928829,2024-12-17T10:38:48.829Z,20417,0.10077263,-0.7208722,-0.7803011
1734431928841,2024-12-17T10:38:48.841Z,20429,0.139212,-0.71851975,-0.7876805
1734431928845,2024-12-17T10:38:48.845Z,20433,0.139212,-0.71851975,-0.7876805
1734431928858,2024-12-17T10:38:48.858Z,20446,0.23687056,-0.70818347,-0.78826845
1734431928862,2024-12-17T10:38:48.862Z,20450,0.23687056,-0.70818347,-0.78826845
1734431928876,2024-12-17T10:38:48.876Z,20464,0.21534038,-0.6959411,-0.8329777
1734431928879,2024-12-17T10:38:48.879Z,20467,0.21534038,-0.6959411,-0.8329777
1734431928892,2024-12-17T10:38:48.892Z,20480,0.22494349,-0.67060065,-0.83242923
1734431928896,2024-12-17T10:38:48.896Z,20484,0.22494349,-0.67060065,-0.83242923
1734431928910,2024-12-17T10:38:48.910Z,20498,0.28307346,-0.65260875,-0.8149821
1734431928913,2024-12-17T10:38:48.913Z,20501,0.28307346,-0.65260875,-0.8149821
1734431928924,2024-12-17T10:38:48.924Z,20512,0.3393099,-0.6340617,-0.81333864
1734431928928,2024-12-17T10:38:48.928Z,20516,0.3393099,-0.6340617,-0.81333864
1734431928940,2024-12-17T10:38:48.940Z,20528,0.3339664,-0.6010651,-0.86155415
1734431928945,2024-12-17T10:38:48.945Z,20533,0.3339664,-0.6010651,-0.86155415
1734431928958,2024-12-17T10:38:48.958Z,20546,0.37242106,-0.6045789,-0.834336
1734431928962,2024-12-17T10:38:48.962Z,20550,0.37242106,-0.6045789,-0.834336
1734431928975,2024-12-17T10:38:48.975Z,20563,0.37318683,-0.5994894,-0.83295316
1734431928978,2024-12-17T10:38:48.978Z,20566,0.37318683,-0.5994894,-0.83295316
1734431928990,2024-12-17T10:38:48.990Z,20578,0.28362527,-0.5605437,-0.8116349
1734431928994,2024-12-17T10:38:48.994Z,20582,0.28362527,-0.5605437,-0.8116349
1734431929007,2024-12-17T10:38:49.007Z,20595,0.37403396,-0.52919364,-0.7445848
1734431929012,2024-12-17T10:38:49.012Z,20600,0.37403396,-0.52919364,-0.7445848
1734431929025,2024-12-17T10:38:49.025Z,20613,0.44111273,-0.5594219,-0.7360437
1734431929030,2024-12-17T10:38:49.030Z,20618,0.44111273,-0.5594219,-0.7360437
1734431929043,2024-12-17T10:38:49.043Z,20631,0.46370468,-0.54380137,-0.7148476
1734431929048,2024-12-17T10:38:49.048Z,20636,0.46370468,-0.54380137,-0.7148476
1734431929061,2024-12-17T10:38:49.061Z,20649,0.47193548,-0.50759876,-0.7459644
1734431929065,2024-12-17T10:38:49.065Z,20653,0.47193548,-0.50759876,-0.7459644
1734431929075,2024-12-17T10:38:49.075Z,20663,0.4436531,-0.48911226,-0.8117488
1734431929079,2024-12-17T10:38:49.079Z,20667,0.4436531,-0.48911226,-0.8117488
1734431929091,2024-12-17T10:38:49.091Z,20679,0.5066417,-0.47050005,-0.8125067
1734431929095,2024-12-17T10:38:49.095Z,20683,0.5066417,-0.47050005,-0.8125067
1734431929107,2024-12-17T10:38:49.107Z,20695,0.54559654,-0.4707432,-0.7599123
1734431929111,2024-12-17T10:38:49.111Z,20699,0.54559654,-0.4707432,-0.7599123
1734431929123,2024-12-17T10:38:49.123Z,20711,0.5350441,-0.43563133,-0.7731468
1734431929127,2024-12-17T10:38:49.127Z,20715,0.5350441,-0.43563133,-0.7731468
1734431929137,2024-12-17T10:38:49.137Z,20725,0.52874243,-0.4130136,-0.8043574
1734431929140,2024-12-17T10:38:49.140Z,20728,0.52874243,-0.4130136,-0.8043574
1734431929154,2024-12-17T10:38:49.154Z,20742,0.5611577,-0.41878852,-0.74305815
1734431929158,2024-12-17T10:38:49.158Z,20746,0.5611577,-0.41878852,-0.74305815
1734431929169,2024-12-17T10:38:49.169Z,20757,0.50357914,-0.41372353,-0.6683637
1734431929173,2024-12-17T10:38:49.173Z,20761,0.50357914,-0.41372353,-0.6683637
1734431929184,2024-12-17T10:38:49.184Z,20772,0.5816235,-0.33599484,-0.60752624
1734431929187,2024-12-17T10:38:49.187Z,20775,0.5816235,-0.33599484,-0.60752624
1734431929198,2024-12-17T10:38:49.198Z,20786,0.6358273,-0.34290224,-0.6917398
1734431929202,2024-12-17T10:38:49.202Z,20790,0.6358273,-0.34290224,-0.6917398
1734431929218,2024-12-17T10:38:49.218Z,20806,0.5893625,-0.33071965,-0.7262617
1734431929222,2024-12-17T10:38:49.222Z,20810,0.5893625,-0.33071965,-0.7262617
1734431929233,2024-12-17T10:38:49.233Z,20821,0.6548588,-0.26664323,-0.67145437
1734431929236,2024-12-17T10:38:49.236Z,20824,0.6548588,-0.26664323,-0.67145437
1734431929247,2024-12-17T10:38:49.247Z,20835,0.66820335,-0.30691087,-0.6767839
1734431929254,2024-12-17T10:38:49.254Z,20842,0.66820335,-0.30691087,-0.6767839
1734431929270,2024-12-17T10:38:49.270Z,20858,0.58146,-0.3057262,-0.6954064
1734431929275,2024-12-17T10:38:49.275Z,20863,0.58146,-0.3057262,-0.6954064
1734431929288,2024-12-17T10:38:49.288Z,20876,0.62336075,-0.22155859,-0.61243963
1734431929292,2024-12-17T10:38:49.292Z,20880,0.62336075,-0.22155859,-0.61243963
1734431929307,2024-12-17T10:38:49.307Z,20895,0.6611076,-0.26121888,-0.54437226
1734431929311,2024-12-17T10:38:49.311Z,20899,0.6611076,-0.26121888,-0.54437226
1734431929324,2024-12-17T10:38:49.324Z,20912,0.6504389,-0.28944868,-0.56457734
1734431929328,2024-12-17T10:38:49.328Z,20916,0.6504389,-0.28944868,-0.56457734
1734431929341,2024-12-17T10:38:49.341Z,20929,0.7068455,-0.19645585,-0.53585565
1734431929345,2024-12-17T10:38:49.345Z,20933,0.7068455,-0.19645585,-0.53585565
1734431929358,2024-12-17T10:38:49.358Z,20946,0.7022894,-0.23462217,-0.5325795
1734431929362,2024-12-17T10:38:49.362Z,20950,0.7022894,-0.23462217,-0.5325795
1734431929376,2024-12-17T10:38:49.376Z,20964,0.62382483,-0.25643837,-0.5606269
1734431929378,2024-12-17T10:38:49.378Z,20966,0.62382483,-0.25643837,-0.5606269
1734431929389,2024-12-17T10:38:49.389Z,20977,0.6993432,-0.21831965,-0.557721
1734431929392,2024-12-17T10:38:49.392Z,20980,0.6993432,-0.21831965,-0.557721
1734431929402,2024-12-17T10:38:49.402Z,20990,0.7511048,-0.20859493,-0.5225709
1734431929406,2024-12-17T10:38:49.406Z,20994,0.7511048,-0.20859493,-0.5225709
1734431929419,2024-12-17T10:38:49.419Z,21007,0.77905256,-0.21894681,-0.51180404
1734431929423,2024-12-17T10:38:49.423Z,21011,0.77905256,-0.21894681,-0.51180404
1734431929441,2024-12-17T10:38:49.441Z,21029,0.80733544,-0.23023444,-0.44924825
1734431929445,2024-12-17T10:38:49.445Z,21033,0.80733544,-0.23023444,-0.44924825
1734431929458,2024-12-17T10:38:49.458Z,21046,0.72674286,-0.18176751,-0.36281484
1734431929461,2024-12-17T10:38:49.461Z,21049,0.72674286,-0.18176751,-0.36281484
1734431929473,2024-12-17T10:38:49.473Z,21061,0.6589884,-0.074002445,-0.35236076
1734431929476,2024-12-17T10:38:49.476Z,21064,0.6589884,-0.074002445,-0.35236076
1734431929487,2024-12-17T10:38:49.487Z,21075,0.71358746,-0.021512944,-0.33620432
1734431929490,2024-12-17T10:38:49.490Z,21078,0.71358746,-0.021512944,-0.33620432
1734431929501,2024-12-17T10:38:49.501Z,21089,0.75746894,-0.040334996,-0.37038368
1734431929505,2024-12-17T10:38:49.505Z,21093,0.75746894,-0.040334996,-0.37038368
1734431929517,2024-12-17T10:38:49.517Z,21105,0.7899941,-0.05333556,-0.37414768
1734431929521,2024-12-17T10:38:49.521Z,21109,0.7899941,-0.05333556,-0.37414768
1734431929534,2024-12-17T10:38:49.534Z,21122,0.84204626,0.0043995352,-0.2767318
1734431929538,2024-12-17T10:38:49.538Z,21126,0.84204626,0.0043995352,-0.2767318
1734431929551,2024-12-17T10:38:49.551Z,21139,0.7127276,0.014652507,-0.3569242
1734431929555,2024-12-17T10:38:49.555Z,21143,0.7127276,0.014652507,-0.3569242
1734431929569,2024-12-17T10:38:49.569Z,21157,0.7980207,0.007520409,-0.50223756
1734431929573,2024-12-17T10:38:49.573Z,21161,0.7980207,0.007520409,-0.50223756
1734431929585,2024-12-17T10:38:49.585Z,21173,0.966392,-0.038197152,-0.5323434
1734431929590,2024-12-17T10:38:49.590Z,21178,0.966392,-0.038197152,-0.5323434
1734431929603,2024-12-17T10:38:49.603Z,21191,0.99076205,-0.09111235,-0.45812556
1734431929606,2024-12-17T10:38:49.606Z,21194,0.99076205,-0.09111235,-0.45812556
1734431929617,2024-12-17T10:38:49.617Z,21205,0.9102804,-0.08411368,-0.35063365
1734431929620,2024-12-17T10:38:49.620Z,21208,0.9102804,-0.08411368,-0.35063365
1734431929630,2024-12-17T10:38:49.630Z,21218,0.76485544,-0.09498602,-0.326642
1734431929635,2024-12-17T10:38:49.635Z,21223,0.76485544,-0.09498602,-0.326642
1734431929647,2024-12-17T10:38:49.647Z,21235,0.71930903,-0.06489685,-0.34554052
1734431929650,2024-12-17T10:38:49.650Z,21238,0.71930903,-0.06489685,-0.34554052
1734431929661,2024-12-17T10:38:49.661Z,21249,0.74551225,-0.08488539,-0.31103253
1734431929664,2024-12-17T10:38:49.664Z,21252,0.74551225,-0.08488539,-0.31103253
1734431929675,2024-12-17T10:38:49.675Z,21263,0.71638095,-0.1747683,-0.30204862
1734431929678,2024-12-17T10:38:49.678Z,21266,0.71638095,-0.1747683,-0.30204862
1734431929689,2024-12-17T10:38:49.689Z,21277,0.81328845,-0.19669129,-0.23339684
1734431929693,2024-12-17T10:38:49.693Z,21281,0.81328845,-0.19669129,-0.23339684
1734431929702,2024-12-17T10:38:49.702Z,21290,0.8182251,-0.2257665,-0.22626062
1734431929705,2024-12-17T10:38:49.705Z,21293,0.8182251,-0.2257665,-0.22626062
1734431929715,2024-12-17T10:38:49.715Z,21303,0.80259526,-0.2556977,-0.21691889
1734431929718,2024-12-17T10:38:49.718Z,21306,0.80259526,-0.2556977,-0.21691889
1734431929727,2024-12-17T10:38:49.727Z,21315,0.7865654,-0.26279047,-0.1930036
1734431929730,2024-12-17T10:38:49.730Z,21318,0.7865654,-0.26279047,-0.1930036
1734431929741,2024-12-17T10:38:49.741Z,21329,0.731772,-0.24667437,-0.18595383
1734431929743,2024-12-17T10:38:49.743Z,21331,0.731772,-0.24667437,-0.18595383
1734431929752,2024-12-17T10:38:49.752Z,21340,0.72907805,-0.2399675,-0.24226691
1734431929755,2024-12-17T10:38:49.755Z,21343,0.72907805,-0.2399675,-0.24226691
1734431929764,2024-12-17T10:38:49.764Z,21352,0.7531629,-0.26680917,-0.24445562
1734431929767,2024-12-17T10:38:49.767Z,21355,0.7531629,-0.26680917,-0.24445562
1734431929776,2024-12-17T10:38:49.776Z,21364,0.73329103,-0.29109243,-0.196976
1734431929779,2024-12-17T10:38:49.779Z,21367,0.73329103,-0.29109243,-0.196976
1734431929789,2024-12-17T10:38:49.789Z,21377,0.69268954,-0.27938718,-0.15617757
1734431929792,2024-12-17T10:38:49.792Z,21380,0.69268954,-0.27938718,-0.15617757
1734431929801,2024-12-17T10:38:49.801Z,21389,0.7505684,-0.28141335,-0.12499082
1734431929804,2024-12-17T10:38:49.804Z,21392,0.7505684,-0.28141335,-0.12499082
1734431929813,2024-12-17T10:38:49.813Z,21401,0.64585024,-0.30460927,-0.17681101
1734431929816,2024-12-17T10:38:49.816Z,21404,0.64585024,-0.30460927,-0.17681101
1734431929826,2024-12-17T10:38:49.826Z,21414,0.7226957,-0.29447302,-0.13270707
1734431929829,2024-12-17T10:38:49.829Z,21417,0.7226957,-0.29447302,-0.13270707
1734431929838,2024-12-17T10:38:49.838Z,21426,0.7808036,-0.31569034,-0.13969058
1734431929841,2024-12-17T10:38:49.841Z,21429,0.7808036,-0.31569034,-0.13969058
1734431929854,2024-12-17T10:38:49.854Z,21442,0.71373016,-0.33978397,-0.23547138
1734431929861,2024-12-17T10:38:49.861Z,21449,0.71373016,-0.33978397,-0.23547138
1734431929873,2024-12-17T10:38:49.873Z,21461,0.7648577,-0.36327466,-0.14679064
1734431929875,2024-12-17T10:38:49.875Z,21463,0.7648577,-0.36327466,-0.14679064
1734431929885,2024-12-17T10:38:49.885Z,21473,0.66674966,-0.376933,-0.1474799
1734431929889,2024-12-17T10:38:49.889Z,21477,0.66674966,-0.376933,-0.1474799
1734431929901,2024-12-17T10:38:49.901Z,21489,0.6193905,-0.29603803,-0.120223366
1734431929904,2024-12-17T10:38:49.904Z,21492,0.6193905,-0.29603803,-0.120223366
1734431929914,2024-12-17T10:38:49.914Z,21502,0.70672065,-0.31900042,-0.04928164
1734431929918,2024-12-17T10:38:49.918Z,21506,0.70672065,-0.31900042,-0.04928164
1734431929928,2024-12-17T10:38:49.928Z,21516,0.6451705,-0.35382158,-0.11307592
1734431929930,2024-12-17T10:38:49.930Z,21518,0.6451705,-0.35382158,-0.11307592
1734431929939,2024-12-17T10:38:49.939Z,21527,0.6590916,-0.35149315,-0.14608583
1734431929942,2024-12-17T10:38:49.942Z,21530,0.6590916,-0.35149315,-0.14608583
1734431929952,2024-12-17T10:38:49.952Z,21540,0.73673195,-0.36184624,-0.124698654
1734431929956,2024-12-17T10:38:49.956Z,21544,0.73673195,-0.36184624,-0.124698654
1734431929966,2024-12-17T10:38:49.966Z,21554,0.69151926,-0.33984166,-0.1783605
1734431929970,2024-12-17T10:38:49.970Z,21558,0.69151926,-0.33984166,-0.1783605
1734431929984,2024-12-17T10:38:49.984Z,21572,0.69052607,-0.3156897,-0.14480515
1734431929988,2024-12-17T10:38:49.988Z,21576,0.69052607,-0.3156897,-0.14480515
1734431929999,2024-12-17T10:38:49.999Z,21587,0.6967614,-0.32639012,-0.12759712
1734431930002,2024-12-17T10:38:50.002Z,21590,0.6967614,-0.32639012,-0.12759712
1734431930013,2024-12-17T10:38:50.013Z,21601,0.69599646,-0.32133543,-0.1345426
1734431930017,2024-12-17T10:38:50.017Z,21605,0.69599646,-0.32133543,-0.1345426
1734431930028,2024-12-17T10:38:50.028Z,21616,0.7286638,-0.32016534,-0.07389134
1734431930031,2024-12-17T10:38:50.031Z,21619,0.7286638,-0.32016534,-0.07389134
1734431930041,2024-12-17T10:38:50.041Z,21629,0.65742016,-0.32970905,-0.12984374
1734431930045,2024-12-17T10:38:50.045Z,21633,0.65742016,-0.32970905,-0.12984374
1734431930064,2024-12-17T10:38:50.064Z,21652,0.67961806,-0.31496584,-0.062160034
1734431930070,2024-12-17T10:38:50.070Z,21658,0.67961806,-0.31496584,-0.062160034
1734431930093,2024-12-17T10:38:50.093Z,21681,0.6842897,-0.31591377,0.0063013844
1734431930100,2024-12-17T10:38:50.100Z,21688,0.6842897,-0.31591377,0.0063013844
1734431930121,2024-12-17T10:38:50.121Z,21709,0.62731904,-0.2876734,-0.0759385
1734431930126,2024-12-17T10:38:50.126Z,21714,0.62731904,-0.2876734,-0.0759385
1734431930139,2024-12-17T10:38:50.139Z,21727,0.7364506,-0.26073173,-0.050960746
1734431930143,2024-12-17T10:38:50.143Z,21731,0.7364506,-0.26073173,-0.050960746
1734431930157,2024-12-17T10:38:50.157Z,21745,0.6771631,-0.24990368,-0.058139596
1734431930160,2024-12-17T10:38:50.160Z,21748,0.6771631,-0.24990368,-0.058139596
1734431930172,2024-12-17T10:38:50.172Z,21760,0.87268174,-0.3002709,-0.26583454
1734431930175,2024-12-17T10:38:50.175Z,21763,0.87268174,-0.3002709,-0.26583454
1734431930190,2024-12-17T10:38:50.190Z,21778,0.9607617,-0.36009875,0.08468817
1734431930193,2024-12-17T10:38:50.193Z,21781,0.9607617,-0.36009875,0.08468817
1734431930203,2024-12-17T10:38:50.203Z,21791,0.7085884,-0.30104363,-0.010228101
1734431930206,2024-12-17T10:38:50.206Z,21794,0.7085884,-0.30104363,-0.010228101
1734431930217,2024-12-17T10:38:50.217Z,21805,0.7226849,-0.24644151,0.045412034
1734431930220,2024-12-17T10:38:50.220Z,21808,0.7226849,-0.24644151,0.045412034
1734431930229,2024-12-17T10:38:50.229Z,21817,0.7241037,-0.2312923,0.12885901
1734431930232,2024-12-17T10:38:50.232Z,21820,0.7241037,-0.2312923,0.12885901
1734431930243,2024-12-17T10:38:50.243Z,21831,0.4963235,-0.19517514,-0.34313333
1734431930246,2024-12-17T10:38:50.246Z,21834,0.4963235,-0.19517514,-0.34313333
1734431930262,2024-12-17T10:38:50.262Z,21850,0.6775261,-0.28337303,-0.5655833
1734431930265,2024-12-17T10:38:50.265Z,21853,0.6775261,-0.28337303,-0.5655833
1734431930277,2024-12-17T10:38:50.277Z,21865,1.0377091,-0.311065,-0.016001346
1734431930280,2024-12-17T10:38:50.280Z,21868,1.0377091,-0.311065,-0.016001346
1734431930289,2024-12-17T10:38:50.289Z,21877,0.7184948,-0.27305344,0.029504118
1734431930292,2024-12-17T10:38:50.292Z,21880,0.7184948,-0.27305344,0.029504118
1734431930301,2024-12-17T10:38:50.301Z,21889,0.67398226,-0.18950342,-0.1499279
1734431930304,2024-12-17T10:38:50.304Z,21892,0.67398226,-0.18950342,-0.1499279
1734431930313,2024-12-17T10:38:50.313Z,21901,0.8389331,-0.17936261,-0.13114917
1734431930315,2024-12-17T10:38:50.315Z,21903,0.8389331,-0.17936261,-0.13114917
1734431930325,2024-12-17T10:38:50.325Z,21913,0.7510299,-0.19099505,-0.22574207
1734431930328,2024-12-17T10:38:50.328Z,21916,0.7510299,-0.19099505,-0.22574207
1734431930337,2024-12-17T10:38:50.337Z,21925,0.73864526,-0.19809029,-0.35796255
1734431930341,2024-12-17T10:38:50.341Z,21929,0.73864526,-0.19809029,-0.35796255
1734431930350,2024-12-17T10:38:50.350Z,21938,0.9261737,-0.17335597,-0.24636829
1734431930354,2024-12-17T10:38:50.354Z,21942,0.9261737,-0.17335597,-0.24636829
1734431930364,2024-12-17T10:38:50.364Z,21952,0.7996724,-0.18787982,-0.32102093
1734431930368,2024-12-17T10:38:50.368Z,21956,0.7996724,-0.18787982,-0.32102093
1734431930379,2024-12-17T10:38:50.379Z,21967,0.7422112,-0.24636906,-0.47726557
1734431930382,2024-12-17T10:38:50.382Z,21970,0.7422112,-0.24636906,-0.47726557
1734431930395,2024-12-17T10:38:50.395Z,21983,0.93469757,-0.16352442,-0.28230596
1734431930398,2024-12-17T10:38:50.398Z,21986,0.93469757,-0.16352442,-0.28230596
1734431930408,2024-12-17T10:38:50.408Z,21996,0.81473345,-0.21918608,-0.3547021
1734431930411,2024-12-17T10:38:50.411Z,21999,0.81473345,-0.21918608,-0.3547021
1734431930422,2024-12-17T10:38:50.422Z,22010,0.8357306,-0.36067194,-0.49846956
1734431930427,2024-12-17T10:38:50.427Z,22015,0.8357306,-0.36067194,-0.49846956
1734431930437,2024-12-17T10:38:50.437Z,22025,0.9054108,-0.27918142,-0.2047501
1734431930440,2024-12-17T10:38:50.440Z,22028,0.9054108,-0.27918142,-0.2047501
1734431930450,2024-12-17T10:38:50.450Z,22038,0.6140509,-0.30431435,-0.027907189
1734431930453,2024-12-17T10:38:50.453Z,22041,0.6140509,-0.30431435,-0.027907189
1734431930462,2024-12-17T10:38:50.462Z,22050,0.54683226,-0.32091853,-0.2975124
1734431930466,2024-12-17T10:38:50.466Z,22054,0.54683226,-0.32091853,-0.2975124
1734431930478,2024-12-17T10:38:50.478Z,22066,0.67323744,-0.2583563,-0.4911699
1734431930481,2024-12-17T10:38:50.481Z,22069,0.67323744,-0.2583563,-0.4911699
1734431930493,2024-12-17T10:38:50.493Z,22081,0.8278522,-0.24814184,-0.38501036
1734431930496,2024-12-17T10:38:50.496Z,22084,0.8278522,-0.24814184,-0.38501036
1734431930507,2024-12-17T10:38:50.507Z,22095,0.7217318,-0.29338294,-0.40370274
1734431930511,2024-12-17T10:38:50.511Z,22099,0.7217318,-0.29338294,-0.40370274
1734431930522,2024-12-17T10:38:50.522Z,22110,0.714536,-0.31562418,-0.67539585
1734431930525,2024-12-17T10:38:50.525Z,22113,0.714536,-0.31562418,-0.67539585
1734431930534,2024-12-17T10:38:50.534Z,22122,0.9508175,-0.27234247,-0.6128327
1734431930537,2024-12-17T10:38:50.537Z,22125,0.9508175,-0.27234247,-0.6128327
1734431930548,2024-12-17T10:38:50.548Z,22136,0.735735,-0.35394138,-0.47509506
1734431930551,2024-12-17T10:38:50.551Z,22139,0.735735,-0.35394138,-0.47509506
1734431930563,2024-12-17T10:38:50.563Z,22151,0.5440658,-0.3741335,-0.44902003
1734431930566,2024-12-17T10:38:50.566Z,22154,0.5440658,-0.3741335,-0.44902003
1734431930578,2024-12-17T10:38:50.578Z,22166,0.6534533,-0.3339417,-0.2800376
1734431930582,2024-12-17T10:38:50.582Z,22170,0.6534533,-0.3339417,-0.2800376
1734431930597,2024-12-17T10:38:50.597Z,22185,0.6284834,-0.35534224,-0.24602237
1734431930600,2024-12-17T10:38:50.600Z,22188,0.6284834,-0.35534224,-0.24602237
1734431930610,2024-12-17T10:38:50.610Z,22198,0.54541105,-0.31336555,-0.5446829
1734431930613,2024-12-17T10:38:50.613Z,22201,0.54541105,-0.31336555,-0.5446829
1734431930621,2024-12-17T10:38:50.621Z,22209,0.615162,-0.28787744,-0.89720315
1734431930624,2024-12-17T10:38:50.624Z,22212,0.615162,-0.28787744,-0.89720315
1734431930635,2024-12-17T10:38:50.635Z,22223,0.9560334,-0.36874232,-0.8825216
1734431930638,2024-12-17T10:38:50.638Z,22226,0.9560334,-0.36874232,-0.8825216
1734431930649,2024-12-17T10:38:50.649Z,22237,0.8446593,-0.5006937,-0.6779846
1734431930652,2024-12-17T10:38:50.652Z,22240,0.8446593,-0.5006937,-0.6779846
1734431930664,2024-12-17T10:38:50.664Z,22252,0.5804728,-0.46954843,-0.56160015
1734431930667,2024-12-17T10:38:50.667Z,22255,0.5804728,-0.46954843,-0.56160015
1734431930677,2024-12-17T10:38:50.677Z,22265,0.62458295,-0.4882231,-0.43816936
1734431930680,2024-12-17T10:38:50.680Z,22268,0.62458295,-0.4882231,-0.43816936
1734431930692,2024-12-17T10:38:50.692Z,22280,0.5528195,-0.51860803,-0.34948498
1734431930696,2024-12-17T10:38:50.696Z,22284,0.5528195,-0.51860803,-0.34948498
1734431930706,2024-12-17T10:38:50.706Z,22294,0.5273058,-0.45167103,-0.48022282
1734431930708,2024-12-17T10:38:50.708Z,22296,0.5273058,-0.45167103,-0.48022282
1734431930719,2024-12-17T10:38:50.719Z,22307,0.6317514,-0.42302635,-0.72421414
1734431930723,2024-12-17T10:38:50.723Z,22311,0.6317514,-0.42302635,-0.72421414
1734431930734,2024-12-17T10:38:50.734Z,22322,0.640672,-0.45683873,-0.8066939
1734431930737,2024-12-17T10:38:50.737Z,22325,0.640672,-0.45683873,-0.8066939
1734431930749,2024-12-17T10:38:50.749Z,22337,0.71735597,-0.47638586,-0.6837578
1734431930757,2024-12-17T10:38:50.757Z,22345,0.71735597,-0.47638586,-0.6837578
1734431930766,2024-12-17T10:38:50.766Z,22354,0.6300289,-0.5383321,-0.6521267
1734431930768,2024-12-17T10:38:50.768Z,22356,0.6300289,-0.5383321,-0.6521267
1734431930778,2024-12-17T10:38:50.778Z,22366,0.4766888,-0.49059644,-0.6525105
1734431930781,2024-12-17T10:38:50.781Z,22369,0.4766888,-0.49059644,-0.6525105
1734431930790,2024-12-17T10:38:50.790Z,22378,0.5599769,-0.4446733,-0.54267913
1734431930793,2024-12-17T10:38:50.793Z,22381,0.5599769,-0.4446733,-0.54267913
1734431930802,2024-12-17T10:38:50.802Z,22390,0.6751,-0.506519,-0.53361577
1734431930805,2024-12-17T10:38:50.805Z,22393,0.6751,-0.506519,-0.53361577
1734431930816,2024-12-17T10:38:50.816Z,22404,0.6689844,-0.47959408,-0.58630645
1734431930819,2024-12-17T10:38:50.819Z,22407,0.6689844,-0.47959408,-0.58630645
1734431930832,2024-12-17T10:38:50.832Z,22420,0.54028875,-0.37129882,-0.7274749
1734431930835,2024-12-17T10:38:50.835Z,22423,0.54028875,-0.37129882,-0.7274749
1734431930847,2024-12-17T10:38:50.847Z,22435,0.5394354,-0.38559335,-0.8452677
1734431930852,2024-12-17T10:38:50.852Z,22440,0.5394354,-0.38559335,-0.8452677
1734431930871,2024-12-17T10:38:50.871Z,22459,0.5775001,-0.44844407,-0.90891874
1734431930874,2024-12-17T10:38:50.874Z,22462,0.5775001,-0.44844407,-0.90891874
1734431930885,2024-12-17T10:38:50.885Z,22473,0.70006025,-0.48427567,-0.70484674
1734431930888,2024-12-17T10:38:50.888Z,22476,0.70006025,-0.48427567,-0.70484674
1734431930900,2024-12-17T10:38:50.900Z,22488,0.5985981,-0.54556,-0.64607567
1734431930903,2024-12-17T10:38:50.903Z,22491,0.5985981,-0.54556,-0.64607567
1734431930916,2024-12-17T10:38:50.916Z,22504,0.48132503,-0.5455198,-0.64808345
1734431930919,2024-12-17T10:38:50.919Z,22507,0.48132503,-0.5455198,-0.64808345
1734431930928,2024-12-17T10:38:50.928Z,22516,0.42798623,-0.48652872,-0.6568649
1734431930932,2024-12-17T10:38:50.932Z,22520,0.42798623,-0.48652872,-0.6568649
1734431930942,2024-12-17T10:38:50.942Z,22530,0.5738529,-0.5025867,-0.64829457
1734431930945,2024-12-17T10:38:50.945Z,22533,0.5738529,-0.5025867,-0.64829457
1734431930954,2024-12-17T10:38:50.954Z,22542,0.5442016,-0.5070073,-0.6956235
1734431930957,2024-12-17T10:38:50.957Z,22545,0.5442016,-0.5070073,-0.6956235
1734431930966,2024-12-17T10:38:50.966Z,22554,0.49867353,-0.44043654,-0.7555721
1734431930969,2024-12-17T10:38:50.969Z,22557,0.49867353,-0.44043654,-0.7555721
1734431930979,2024-12-17T10:38:50.979Z,22567,0.6389286,-0.50457525,-0.878049
1734431930982,2024-12-17T10:38:50.982Z,22570,0.6389286,-0.50457525,-0.878049
1734431930992,2024-12-17T10:38:50.992Z,22580,0.6145644,-0.5642415,-0.826988
1734431930995,2024-12-17T10:38:50.995Z,22583,0.6145644,-0.5642415,-0.826988
1734431931007,2024-12-17T10:38:51.007Z,22595,0.36699802,-0.5255273,-0.72518927
1734431931010,2024-12-17T10:38:51.010Z,22598,0.36699802,-0.5255273,-0.72518927
1734431931020,2024-12-17T10:38:51.020Z,22608,0.43829924,-0.53695375,-0.64884174
1734431931026,2024-12-17T10:38:51.026Z,22614,0.43829924,-0.53695375,-0.64884174
1734431931037,2024-12-17T10:38:51.037Z,22625,0.5140336,-0.57592905,-0.61591345
1734431931041,2024-12-17T10:38:51.041Z,22629,0.5140336,-0.57592905,-0.61591345
1734431931052,2024-12-17T10:38:51.052Z,22640,0.4197772,-0.49860886,-0.5603284
1734431931055,2024-12-17T10:38:51.055Z,22643,0.4197772,-0.49860886,-0.5603284
1734431931064,2024-12-17T10:38:51.064Z,22652,0.4906966,-0.44929242,-0.65543425
1734431931067,2024-12-17T10:38:51.067Z,22655,0.4906966,-0.44929242,-0.65543425
1734431931078,2024-12-17T10:38:51.078Z,22666,0.6418654,-0.46203688,-0.78387266
1734431931082,2024-12-17T10:38:51.082Z,22670,0.6418654,-0.46203688,-0.78387266
1734431931094,2024-12-17T10:38:51.094Z,22682,0.5756669,-0.4842701,-0.744914
1734431931097,2024-12-17T10:38:51.097Z,22685,0.5756669,-0.4842701,-0.744914
1734431931107,2024-12-17T10:38:51.107Z,22695,0.4646596,-0.49186152,-0.6426255
1734431931110,2024-12-17T10:38:51.110Z,22698,0.4646596,-0.49186152,-0.6426255
1734431931120,2024-12-17T10:38:51.120Z,22708,0.38840464,-0.45135683,-0.6565117
1734431931124,2024-12-17T10:38:51.124Z,22712,0.38840464,-0.45135683,-0.6565117
1734431931134,2024-12-17T10:38:51.134Z,22722,0.43326044,-0.44401458,-0.6638247
1734431931138,2024-12-17T10:38:51.138Z,22726,0.43326044,-0.44401458,-0.6638247
1734431931152,2024-12-17T10:38:51.152Z,22740,0.4928731,-0.4702636,-0.6024571
1734431931155,2024-12-17T10:38:51.155Z,22743,0.4928731,-0.4702636,-0.6024571
1734431931169,2024-12-17T10:38:51.169Z,22757,0.46334827,-0.4371978,-0.6225294
1734431931174,2024-12-17T10:38:51.174Z,22762,0.46334827,-0.4371978,-0.6225294
1734431931185,2024-12-17T10:38:51.185Z,22773,0.5583586,-0.4559637,-0.6477634
1734431931188,2024-12-17T10:38:51.188Z,22776,0.5583586,-0.4559637,-0.6477634
1734431931198,2024-12-17T10:38:51.198Z,22786,0.48963583,-0.47445658,-0.6818472
1734431931201,2024-12-17T10:38:51.201Z,22789,0.48963583,-0.47445658,-0.6818472
1734431931213,2024-12-17T10:38:51.213Z,22801,0.45530865,-0.4232555,-0.7058243
1734431931217,2024-12-17T10:38:51.217Z,22805,0.45530865,-0.4232555,-0.7058243
1734431931228,2024-12-17T10:38:51.228Z,22816,0.47607005,-0.46880648,-0.6634677
1734431931231,2024-12-17T10:38:51.231Z,22819,0.47607005,-0.46880648,-0.6634677
1734431931242,2024-12-17T10:38:51.242Z,22830,0.460898,-0.48275432,-0.68342537
1734431931246,2024-12-17T10:38:51.246Z,22834,0.460898,-0.48275432,-0.68342537
1734431931255,2024-12-17T10:38:51.255Z,22843,0.48186204,-0.46893835,-0.6834136
1734431931258,2024-12-17T10:38:51.258Z,22846,0.48186204,-0.46893835,-0.6834136
1734431931268,2024-12-17T10:38:51.268Z,22856,0.50231147,-0.4989342,-0.7072377
1734431931270,2024-12-17T10:38:51.270Z,22858,0.50231147,-0.4989342,-0.7072377
1734431931280,2024-12-17T10:38:51.280Z,22868,0.49618143,-0.5119983,-0.70652646
1734431931285,2024-12-17T10:38:51.285Z,22873,0.49618143,-0.5119983,-0.70652646
1734431931297,2024-12-17T10:38:51.297Z,22885,0.44333905,-0.49836802,-0.6935773
1734431931300,2024-12-17T10:38:51.300Z,22888,0.44333905,-0.49836802,-0.6935773
1734431931312,2024-12-17T10:38:51.312Z,22900,0.41535607,-0.5177561,-0.6803819
1734431931315,2024-12-17T10:38:51.315Z,22903,0.41535607,-0.5177561,-0.6803819
1734431931326,2024-12-17T10:38:51.326Z,22914,0.39934048,-0.51428115,-0.6824503
1734431931329,2024-12-17T10:38:51.329Z,22917,0.39934048,-0.51428115,-0.6824503
1734431931340,2024-12-17T10:38:51.340Z,22928,0.4368862,-0.52345306,-0.70184475
1734431931343,2024-12-17T10:38:51.343Z,22931,0.4368862,-0.52345306,-0.70184475
1734431931353,2024-12-17T10:38:51.353Z,22941,0.47622487,-0.52710724,-0.7452888
1734431931357,2024-12-17T10:38:51.357Z,22945,0.47622487,-0.52710724,-0.7452888
1734431931366,2024-12-17T10:38:51.366Z,22954,0.4253052,-0.4890764,-0.7141606
1734431931369,2024-12-17T10:38:51.369Z,22957,0.4253052,-0.4890764,-0.7141606
1734431931379,2024-12-17T10:38:51.379Z,22967,0.36704317,-0.4729367,-0.7363242
1734431931382,2024-12-17T10:38:51.382Z,22970,0.36704317,-0.4729367,-0.7363242
1734431931395,2024-12-17T10:38:51.395Z,22983,0.4419593,-0.47249636,-0.80072856
1734431931398,2024-12-17T10:38:51.398Z,22986,0.4419593,-0.47249636,-0.80072856
1734431931408,2024-12-17T10:38:51.408Z,22996,0.45259282,-0.4724878,-0.81426686
1734431931412,2024-12-17T10:38:51.412Z,23000,0.45259282,-0.4724878,-0.81426686
1734431931424,2024-12-17T10:38:51.424Z,23012,0.43937957,-0.48633766,-0.8073148
1734431931427,2024-12-17T10:38:51.427Z,23015,0.43937957,-0.48633766,-0.8073148
1734431931439,2024-12-17T10:38:51.439Z,23027,0.41339883,-0.48050806,-0.76691014
1734431931443,2024-12-17T10:38:51.443Z,23031,0.41339883,-0.48050806,-0.76691014
1734431931454,2024-12-17T10:38:51.454Z,23042,0.3709748,-0.47721866,-0.68901205
1734431931458,2024-12-17T10:38:51.458Z,23046,0.3709748,-0.47721866,-0.68901205
1734431931468,2024-12-17T10:38:51.468Z,23056,0.36354887,-0.50127363,-0.6520189
1734431931471,2024-12-17T10:38:51.471Z,23059,0.36354887,-0.50127363,-0.6520189
1734431931480,2024-12-17T10:38:51.480Z,23068,0.33740878,-0.49007568,-0.6170106
1734431931484,2024-12-17T10:38:51.484Z,23072,0.33740878,-0.49007568,-0.6170106
1734431931495,2024-12-17T10:38:51.495Z,23083,0.28325102,-0.46911672,-0.6651631
1734431931498,2024-12-17T10:38:51.498Z,23086,0.28325102,-0.46911672,-0.6651631
1734431931508,2024-12-17T10:38:51.508Z,23096,0.2927735,-0.46749023,-0.75699145
1734431931512,2024-12-17T10:38:51.512Z,23100,0.2927735,-0.46749023,-0.75699145
1734431931522,2024-12-17T10:38:51.522Z,23110,0.37215394,-0.47690845,-0.79102707
1734431931526,2024-12-17T10:38:51.526Z,23114,0.37215394,-0.47690845,-0.79102707
1734431931536,2024-12-17T10:38:51.536Z,23124,0.3706232,-0.50067896,-0.8247582
1734431931540,2024-12-17T10:38:51.540Z,23128,0.3706232,-0.50067896,-0.8247582
1734431931551,2024-12-17T10:38:51.551Z,23139,0.35999614,-0.51755023,-0.83888346
1734431931554,2024-12-17T10:38:51.554Z,23142,0.35999614,-0.51755023,-0.83888346
1734431931564,2024-12-17T10:38:51.564Z,23152,0.3512563,-0.5266045,-0.8112174
1734431931567,2024-12-17T10:38:51.567Z,23155,0.3512563,-0.5266045,-0.8112174
1734431931578,2024-12-17T10:38:51.578Z,23166,0.26853463,-0.5471177,-0.7329384
1734431931581,2024-12-17T10:38:51.581Z,23169,0.26853463,-0.5471177,-0.7329384
1734431931591,2024-12-17T10:38:51.591Z,23179,0.21522437,-0.5617687,-0.6844093
1734431931596,2024-12-17T10:38:51.596Z,23184,0.21522437,-0.5617687,-0.6844093
1734431931605,2024-12-17T10:38:51.605Z,23193,0.226429,-0.5538728,-0.71097606
1734431931608,2024-12-17T10:38:51.608Z,23196,0.226429,-0.5538728,-0.71097606
1734431931617,2024-12-17T10:38:51.617Z,23205,0.24377032,-0.5632911,-0.7422758
1734431931619,2024-12-17T10:38:51.619Z,23207,0.24377032,-0.5632911,-0.7422758
1734431931628,2024-12-17T10:38:51.628Z,23216,0.21114582,-0.5794492,-0.77132946
1734431931631,2024-12-17T10:38:51.631Z,23219,0.21114582,-0.5794492,-0.77132946
1734431931641,2024-12-17T10:38:51.641Z,23229,0.19114354,-0.57132745,-0.8107217
1734431931644,2024-12-17T10:38:51.644Z,23232,0.19114354,-0.57132745,-0.8107217
1734431931655,2024-12-17T10:38:51.655Z,23243,0.21353646,-0.58317876,-0.80644244
1734431931658,2024-12-17T10:38:51.658Z,23246,0.21353646,-0.58317876,-0.80644244
1734431931669,2024-12-17T10:38:51.669Z,23257,0.19693926,-0.6008947,-0.7691127
1734431931673,2024-12-17T10:38:51.673Z,23261,0.19693926,-0.6008947,-0.7691127
1734431931683,2024-12-17T10:38:51.683Z,23271,0.18507746,-0.60453796,-0.77554727
1734431931686,2024-12-17T10:38:51.686Z,23274,0.18507746,-0.60453796,-0.77554727
1734431931700,2024-12-17T10:38:51.700Z,23288,0.19115235,-0.6077679,-0.78130937
1734431931704,2024-12-17T10:38:51.704Z,23292,0.19115235,-0.6077679,-0.78130937
1734431931715,2024-12-17T10:38:51.715Z,23303,0.17002173,-0.6011797,-0.77610195
1734431931719,2024-12-17T10:38:51.719Z,23307,0.17002173,-0.6011797,-0.77610195
1734431931735,2024-12-17T10:38:51.735Z,23323,0.2024911,-0.5978502,-0.79847777
1734431931739,2024-12-17T10:38:51.739Z,23327,0.2024911,-0.5978502,-0.79847777
1734431931748,2024-12-17T10:38:51.748Z,23336,0.2057863,-0.5672801,-0.7978972
1734431931751,2024-12-17T10:38:51.751Z,23339,0.2057863,-0.5672801,-0.7978972
1734431931761,2024-12-17T10:38:51.761Z,23349,0.19206607,-0.53571177,-0.79103273
1734431931764,2024-12-17T10:38:51.764Z,23352,0.19206607,-0.53571177,-0.79103273
1734431931774,2024-12-17T10:38:51.774Z,23362,0.20357838,-0.52395505,-0.7710498
1734431931777,2024-12-17T10:38:51.777Z,23365,0.20357838,-0.52395505,-0.7710498
1734431931786,2024-12-17T10:38:51.786Z,23374,0.21070573,-0.5048987,-0.7896795
1734431931790,2024-12-17T10:38:51.790Z,23378,0.21070573,-0.5048987,-0.7896795
1734431931800,2024-12-17T10:38:51.800Z,23388,0.24912667,-0.49221575,-0.81419593
1734431931803,2024-12-17T10:38:51.803Z,23391,0.24912667,-0.49221575,-0.81419593
1734431931812,2024-12-17T10:38:51.812Z,23400,0.23215441,-0.48984465,-0.8006211
1734431931815,2024-12-17T10:38:51.815Z,23403,0.23215441,-0.48984465,-0.8006211
1734431931823,2024-12-17T10:38:51.823Z,23411,0.18262765,-0.4696627,-0.79555595
1734431931826,2024-12-17T10:38:51.826Z,23414,0.18262765,-0.4696627,-0.79555595
1734431931837,2024-12-17T10:38:51.837Z,23425,0.23040177,-0.45521796,-0.829385
1734431931841,2024-12-17T10:38:51.841Z,23429,0.23040177,-0.45521796,-0.829385
1734431931851,2024-12-17T10:38:51.851Z,23439,0.25477266,-0.45469448,-0.84134054
1734431931854,2024-12-17T10:38:51.854Z,23442,0.25477266,-0.45469448,-0.84134054
1734431931865,2024-12-17T10:38:51.865Z,23453,0.20562778,-0.45392078,-0.83148384
1734431931868,2024-12-17T10:38:51.868Z,23456,0.20562778,-0.45392078,-0.83148384
1734431931876,2024-12-17T10:38:51.876Z,23464,0.24800442,-0.44193432,-0.8474407
1734431931879,2024-12-17T10:38:51.879Z,23467,0.24800442,-0.44193432,-0.8474407
1734431931889,2024-12-17T10:38:51.889Z,23477,0.2256421,-0.45792204,-0.7788534
1734431931892,2024-12-17T10:38:51.892Z,23480,0.2256421,-0.45792204,-0.7788534
1734431931901,2024-12-17T10:38:51.901Z,23489,0.21019447,-0.4524785,-0.76838607
1734431931904,2024-12-17T10:38:51.904Z,23492,0.21019447,-0.4524785,-0.76838607
1734431931915,2024-12-17T10:38:51.915Z,23503,0.23846017,-0.42668077,-0.7819221
1734431931918,2024-12-17T10:38:51.918Z,23506,0.23846017,-0.42668077,-0.7819221
1734431931926,2024-12-17T10:38:51.926Z,23514,0.17416772,-0.43045422,-0.8299818
1734431931929,2024-12-17T10:38:51.929Z,23517,0.17416772,-0.43045422,-0.8299818
1734431931939,2024-12-17T10:38:51.939Z,23527,0.24133515,-0.4095177,-0.858806
1734431931942,2024-12-17T10:38:51.942Z,23530,0.24133515,-0.4095177,-0.858806
1734431931951,2024-12-17T10:38:51.951Z,23539,0.29259503,-0.43453893,-0.8479292
1734431931954,2024-12-17T10:38:51.954Z,23542,0.29259503,-0.43453893,-0.8479292
1734431931964,2024-12-17T10:38:51.964Z,23552,0.24712735,-0.45525777,-0.81586146
1734431931967,2024-12-17T10:38:51.967Z,23555,0.24712735,-0.45525777,-0.81586146
1734431931976,2024-12-17T10:38:51.976Z,23564,0.24477737,-0.4675067,-0.8008513
1734431931980,2024-12-17T10:38:51.980Z,23568,0.24477737,-0.4675067,-0.8008513
1734431931990,2024-12-17T10:38:51.990Z,23578,0.23896793,-0.50357956,-0.7634568
1734431931993,2024-12-17T10:38:51.993Z,23581,0.23896793,-0.50357956,-0.7634568
1734431932002,2024-12-17T10:38:52.002Z,23590,0.2540523,-0.5223672,-0.77014256
1734431932004,2024-12-17T10:38:52.004Z,23592,0.2540523,-0.5223672,-0.77014256
1734431932015,2024-12-17T10:38:52.015Z,23603,0.30585772,-0.5405011,-0.7641953
1734431932018,2024-12-17T10:38:52.018Z,23606,0.30585772,-0.5405011,-0.7641953
1734431932029,2024-12-17T10:38:52.029Z,23617,0.32142776,-0.569539,-0.7311341
1734431932032,2024-12-17T10:38:52.032Z,23620,0.32142776,-0.569539,-0.7311341
1734431932039,2024-12-17T10:38:52.039Z,23627,0.25736156,-0.55344516,-0.74345547
1734431932042,2024-12-17T10:38:52.042Z,23630,0.25736156,-0.55344516,-0.74345547
1734431932052,2024-12-17T10:38:52.052Z,23640,0.28510782,-0.5792411,-0.69987565
1734431932056,2024-12-17T10:38:52.056Z,23644,0.28510782,-0.5792411,-0.69987565
1734431932067,2024-12-17T10:38:52.067Z,23655,0.23891753,-0.5925527,-0.63735175
1734431932070,2024-12-17T10:38:52.070Z,23658,0.23891753,-0.5925527,-0.63735175
1734431932079,2024-12-17T10:38:52.079Z,23667,0.2713079,-0.575506,-0.66867036
1734431932082,2024-12-17T10:38:52.082Z,23670,0.2713079,-0.575506,-0.66867036
1734431932092,2024-12-17T10:38:52.092Z,23680,0.33269945,-0.5707536,-0.7457262
1734431932095,2024-12-17T10:38:52.095Z,23683,0.33269945,-0.5707536,-0.7457262
1734431932103,2024-12-17T10:38:52.103Z,23691,0.40390846,-0.5671776,-0.7336525
1734431932106,2024-12-17T10:38:52.106Z,23694,0.40390846,-0.5671776,-0.7336525
1734431932115,2024-12-17T10:38:52.115Z,23703,0.42641684,-0.5973662,-0.7281541
1734431932117,2024-12-17T10:38:52.117Z,23705,0.42641684,-0.5973662,-0.7281541
1734431932126,2024-12-17T10:38:52.126Z,23714,0.30821982,-0.55220795,-0.72936356
1734431932129,2024-12-17T10:38:52.129Z,23717,0.30821982,-0.55220795,-0.72936356
1734431932138,2024-12-17T10:38:52.138Z,23726,0.3121684,-0.5734802,-0.639301
1734431932141,2024-12-17T10:38:52.141Z,23729,0.3121684,-0.5734802,-0.639301
1734431932151,2024-12-17T10:38:52.151Z,23739,0.38511258,-0.5836449,-0.59655136
1734431932154,2024-12-17T10:38:52.154Z,23742,0.38511258,-0.5836449,-0.59655136
1734431932164,2024-12-17T10:38:52.164Z,23752,0.44005257,-0.5465531,-0.6773358
1734431932167,2024-12-17T10:38:52.167Z,23755,0.44005257,-0.5465531,-0.6773358
1734431932177,2024-12-17T10:38:52.177Z,23765,0.50658053,-0.5636771,-0.6723115
1734431932180,2024-12-17T10:38:52.180Z,23768,0.50658053,-0.5636771,-0.6723115
1734431932188,2024-12-17T10:38:52.188Z,23776,0.4145003,-0.51977503,-0.676431
1734431932191,2024-12-17T10:38:52.191Z,23779,0.4145003,-0.51977503,-0.676431
1734431932200,2024-12-17T10:38:52.200Z,23788,0.2472315,-0.49626943,-0.7412923
1734431932203,2024-12-17T10:38:52.203Z,23791,0.2472315,-0.49626943,-0.7412923
1734431932212,2024-12-17T10:38:52.212Z,23800,0.40969115,-0.49161574,-0.74947643
1734431932215,2024-12-17T10:38:52.215Z,23803,0.40969115,-0.49161574,-0.74947643
1734431932231,2024-12-17T10:38:52.231Z,23819,0.47028163,-0.5377498,-0.7251209
1734431932236,2024-12-17T10:38:52.236Z,23824,0.47028163,-0.5377498,-0.7251209
1734431932245,2024-12-17T10:38:52.245Z,23833,0.589405,-0.50092363,-0.73242277
1734431932250,2024-12-17T10:38:52.250Z,23838,0.589405,-0.50092363,-0.73242277
1734431932262,2024-12-17T10:38:52.262Z,23850,0.5142714,-0.45747218,-0.69986147
1734431932266,2024-12-17T10:38:52.266Z,23854,0.5142714,-0.45747218,-0.69986147
1734431932278,2024-12-17T10:38:52.278Z,23866,0.5638725,-0.46531612,-0.6811972
1734431932281,2024-12-17T10:38:52.281Z,23869,0.5638725,-0.46531612,-0.6811972
1734431932290,2024-12-17T10:38:52.290Z,23878,0.56761634,-0.452504,-0.6708186
1734431932293,2024-12-17T10:38:52.293Z,23881,0.56761634,-0.452504,-0.6708186
1734431932301,2024-12-17T10:38:52.301Z,23889,0.5343654,-0.4479574,-0.6577371
1734431932304,2024-12-17T10:38:52.304Z,23892,0.5343654,-0.4479574,-0.6577371
1734431932315,2024-12-17T10:38:52.315Z,23903,0.52679044,-0.41967624,-0.65507174
1734431932318,2024-12-17T10:38:52.318Z,23906,0.52679044,-0.41967624,-0.65507174
1734431932329,2024-12-17T10:38:52.329Z,23917,0.4859667,-0.42236385,-0.69896656
1734431932332,2024-12-17T10:38:52.332Z,23920,0.4859667,-0.42236385,-0.69896656
1734431932341,2024-12-17T10:38:52.341Z,23929,0.5083029,-0.40984958,-0.7337225
1734431932345,2024-12-17T10:38:52.345Z,23933,0.5083029,-0.40984958,-0.7337225
1734431932353,2024-12-17T10:38:52.353Z,23941,0.5733403,-0.4113735,-0.7182779
1734431932356,2024-12-17T10:38:52.356Z,23944,0.5733403,-0.4113735,-0.7182779
1734431932366,2024-12-17T10:38:52.366Z,23954,0.5967746,-0.4037039,-0.7112778
1734431932369,2024-12-17T10:38:52.369Z,23957,0.5967746,-0.4037039,-0.7112778
1734431932377,2024-12-17T10:38:52.377Z,23965,0.565925,-0.38124722,-0.7149326
1734431932381,2024-12-17T10:38:52.381Z,23969,0.565925,-0.38124722,-0.7149326
1734431932389,2024-12-17T10:38:52.389Z,23977,0.63231707,-0.3825925,-0.71693105
1734431932392,2024-12-17T10:38:52.392Z,23980,0.63231707,-0.3825925,-0.71693105
1734431932402,2024-12-17T10:38:52.402Z,23990,0.626358,-0.3793135,-0.6602289
1734431932404,2024-12-17T10:38:52.404Z,23992,0.626358,-0.3793135,-0.6602289
1734431932412,2024-12-17T10:38:52.412Z,24000,0.6018157,-0.37553796,-0.68314636
1734431932415,2024-12-17T10:38:52.415Z,24003,0.6018157,-0.37553796,-0.68314636
1734431932423,2024-12-17T10:38:52.423Z,24011,0.57969946,-0.35550335,-0.7356213
1734431932426,2024-12-17T10:38:52.426Z,24014,0.57969946,-0.35550335,-0.7356213
1734431932436,2024-12-17T10:38:52.436Z,24024,0.59353983,-0.36358002,-0.64286697
1734431932438,2024-12-17T10:38:52.438Z,24026,0.59353983,-0.36358002,-0.64286697
1734431932447,2024-12-17T10:38:52.447Z,24035,0.64272505,-0.37240258,-0.57399887
1734431932451,2024-12-17T10:38:52.451Z,24039,0.64272505,-0.37240258,-0.57399887
1734431932460,2024-12-17T10:38:52.460Z,24048,0.51251996,-0.35917062,-0.56226
1734431932463,2024-12-17T10:38:52.463Z,24051,0.51251996,-0.35917062,-0.56226
1734431932470,2024-12-17T10:38:52.470Z,24058,0.5029353,-0.32285473,-0.49969697
1734431932473,2024-12-17T10:38:52.473Z,24061,0.5029353,-0.32285473,-0.49969697
1734431932481,2024-12-17T10:38:52.481Z,24069,0.58636224,-0.33669814,-0.49417472
1734431932484,2024-12-17T10:38:52.484Z,24072,0.58636224,-0.33669814,-0.49417472
1734431932492,2024-12-17T10:38:52.492Z,24080,0.61109245,-0.3218118,-0.54277295
1734431932495,2024-12-17T10:38:52.495Z,24083,0.61109245,-0.3218118,-0.54277295
1734431932504,2024-12-17T10:38:52.504Z,24092,0.6141547,-0.2826751,-0.6231749
1734431932507,2024-12-17T10:38:52.507Z,24095,0.6141547,-0.2826751,-0.6231749
1734431932516,2024-12-17T10:38:52.516Z,24104,0.64761907,-0.26891434,-0.6233718
1734431932519,2024-12-17T10:38:52.519Z,24107,0.64761907,-0.26891434,-0.6233718
1734431932528,2024-12-17T10:38:52.528Z,24116,0.6014457,-0.27855912,-0.62094
1734431932531,2024-12-17T10:38:52.531Z,24119,0.6014457,-0.27855912,-0.62094
1734431932541,2024-12-17T10:38:52.541Z,24129,0.5787129,-0.2823986,-0.61827374
1734431932544,2024-12-17T10:38:52.544Z,24132,0.5787129,-0.2823986,-0.61827374
1734431932553,2024-12-17T10:38:52.553Z,24141,0.6167753,-0.26251146,-0.51200294
1734431932555,2024-12-17T10:38:52.555Z,24143,0.6167753,-0.26251146,-0.51200294
1734431932564,2024-12-17T10:38:52.564Z,24152,0.63529426,-0.26659074,-0.41720203
1734431932567,2024-12-17T10:38:52.567Z,24155,0.63529426,-0.26659074,-0.41720203
1734431932574,2024-12-17T10:38:52.574Z,24162,0.5599703,-0.24995905,-0.44687226
1734431932577,2024-12-17T10:38:52.577Z,24165,0.5599703,-0.24995905,-0.44687226
1734431932585,2024-12-17T10:38:52.585Z,24173,0.63165915,-0.2315615,-0.43467823
1734431932587,2024-12-17T10:38:52.587Z,24175,0.63165915,-0.2315615,-0.43467823
1734431932595,2024-12-17T10:38:52.595Z,24183,0.6405366,-0.27494535,-0.46554747
1734431932598,2024-12-17T10:38:52.598Z,24186,0.6405366,-0.27494535,-0.46554747
1734431932606,2024-12-17T10:38:52.606Z,24194,0.6345544,-0.22938387,-0.44162595
1734431932608,2024-12-17T10:38:52.608Z,24196,0.6345544,-0.22938387,-0.44162595
1734431932616,2024-12-17T10:38:52.616Z,24204,0.6817207,-0.18973944,-0.39215836
1734431932618,2024-12-17T10:38:52.618Z,24206,0.6817207,-0.18973944,-0.39215836
1734431932626,2024-12-17T10:38:52.626Z,24214,0.6907099,-0.19614743,-0.36182868
1734431932629,2024-12-17T10:38:52.629Z,24217,0.6907099,-0.19614743,-0.36182868
1734431932641,2024-12-17T10:38:52.641Z,24229,0.57457626,-0.16036737,-0.34568503
1734431932645,2024-12-17T10:38:52.645Z,24233,0.57457626,-0.16036737,-0.34568503
1734431932653,2024-12-17T10:38:52.653Z,24241,0.65743405,-0.14602643,-0.40061563
1734431932655,2024-12-17T10:38:52.655Z,24243,0.65743405,-0.14602643,-0.40061563
1734431932664,2024-12-17T10:38:52.664Z,24252,0.7305112,-0.19001493,-0.5125236
1734431932667,2024-12-17T10:38:52.667Z,24255,0.7305112,-0.19001493,-0.5125236
1734431932676,2024-12-17T10:38:52.676Z,24264,0.7218336,-0.19052121,-0.47098365
1734431932679,2024-12-17T10:38:52.679Z,24267,0.7218336,-0.19052121,-0.47098365
1734431932686,2024-12-17T10:38:52.686Z,24274,0.68065584,-0.178372,-0.4021736
1734431932689,2024-12-17T10:38:52.689Z,24277,0.68065584,-0.178372,-0.4021736
1734431932698,2024-12-17T10:38:52.698Z,24286,0.69640857,-0.16749427,-0.35513985
1734431932700,2024-12-17T10:38:52.700Z,24288,0.69640857,-0.16749427,-0.35513985
1734431932707,2024-12-17T10:38:52.707Z,24295,0.6324937,-0.19884625,-0.28162256
1734431932710,2024-12-17T10:38:52.710Z,24298,0.6324937,-0.19884625,-0.28162256
1734431932720,2024-12-17T10:38:52.720Z,24308,0.5826724,-0.17792636,-0.23300329
1734431932725,2024-12-17T10:38:52.725Z,24313,0.5826724,-0.17792636,-0.23300329
1734431932737,2024-12-17T10:38:52.737Z,24325,0.67122734,-0.12490949,-0.33001634
1734431932741,2024-12-17T10:38:52.741Z,24329,0.67122734,-0.12490949,-0.33001634
1734431932751,2024-12-17T10:38:52.751Z,24339,0.71414375,-0.22528006,-0.34229156
1734431932758,2024-12-17T10:38:52.758Z,24346,0.71414375,-0.22528006,-0.34229156
1734431932768,2024-12-17T10:38:52.768Z,24356,0.7771727,-0.19070783,-0.2235249
1734431932772,2024-12-17T10:38:52.772Z,24360,0.7771727,-0.19070783,-0.2235249
1734431932780,2024-12-17T10:38:52.780Z,24368,0.7715995,-0.15452851,-0.1912866
1734431932783,2024-12-17T10:38:52.783Z,24371,0.7715995,-0.15452851,-0.1912866
1734431932790,2024-12-17T10:38:52.790Z,24378,0.70512325,-0.13623315,-0.16619578
1734431932793,2024-12-17T10:38:52.793Z,24381,0.70512325,-0.13623315,-0.16619578
1734431932801,2024-12-17T10:38:52.801Z,24389,0.7081888,-0.14095293,-0.23254846
1734431932803,2024-12-17T10:38:52.803Z,24391,0.7081888,-0.14095293,-0.23254846
1734431932812,2024-12-17T10:38:52.812Z,24400,0.73810667,-0.15324329,-0.26884013
1734431932815,2024-12-17T10:38:52.815Z,24403,0.73810667,-0.15324329,-0.26884013
1734431932823,2024-12-17T10:38:52.823Z,24411,0.67730784,-0.101379186,-0.26571634
1734431932827,2024-12-17T10:38:52.827Z,24415,0.67730784,-0.101379186,-0.26571634
1734431932836,2024-12-17T10:38:52.836Z,24424,0.6986795,-0.078604355,-0.21440135
1734431932839,2024-12-17T10:38:52.839Z,24427,0.6986795,-0.078604355,-0.21440135
1734431932849,2024-12-17T10:38:52.849Z,24437,0.76005286,-0.09024544,-0.1682652
1734431932851,2024-12-17T10:38:52.851Z,24439,0.76005286,-0.09024544,-0.1682652
1734431932859,2024-12-17T10:38:52.859Z,24447,0.6965447,-0.09340361,-0.2673368
1734431932862,2024-12-17T10:38:52.862Z,24450,0.6965447,-0.09340361,-0.2673368
1734431932870,2024-12-17T10:38:52.870Z,24458,0.8645284,-0.06634064,-0.21000914
1734431932872,2024-12-17T10:38:52.872Z,24460,0.8645284,-0.06634064,-0.21000914
1734431932882,2024-12-17T10:38:52.882Z,24470,0.851185,-0.11291991,-0.19390559
1734431932885,2024-12-17T10:38:52.885Z,24473,0.851185,-0.11291991,-0.19390559
1734431932893,2024-12-17T10:38:52.893Z,24481,0.74614614,-0.12748095,-0.22380322
1734431932896,2024-12-17T10:38:52.896Z,24484,0.74614614,-0.12748095,-0.22380322
1734431932904,2024-12-17T10:38:52.904Z,24492,0.69615895,-0.11484517,-0.1663851
1734431932907,2024-12-17T10:38:52.907Z,24495,0.69615895,-0.11484517,-0.1663851
1734431932916,2024-12-17T10:38:52.916Z,24504,0.7782446,-0.10362415,-0.18386067
1734431932920,2024-12-17T10:38:52.920Z,24508,0.7782446,-0.10362415,-0.18386067
1734431932929,2024-12-17T10:38:52.929Z,24517,0.7439602,-0.17942251,-0.20831515
1734431932931,2024-12-17T10:38:52.931Z,24519,0.7439602,-0.17942251,-0.20831515
1734431932941,2024-12-17T10:38:52.941Z,24529,0.7393233,-0.21538483,-0.2075011
1734431932944,2024-12-17T10:38:52.944Z,24532,0.7393233,-0.21538483,-0.2075011
1734431932952,2024-12-17T10:38:52.952Z,24540,0.7841266,-0.22393835,-0.1687044
1734431932955,2024-12-17T10:38:52.955Z,24543,0.7841266,-0.22393835,-0.1687044
1734431932964,2024-12-17T10:38:52.964Z,24552,0.7654519,-0.26164842,-0.14289871
1734431932967,2024-12-17T10:38:52.967Z,24555,0.7654519,-0.26164842,-0.14289871
1734431932984,2024-12-17T10:38:52.984Z,24572,0.7614129,-0.27542853,-0.051671352
1734431932988,2024-12-17T10:38:52.988Z,24576,0.7614129,-0.27542853,-0.051671352
1734431933014,2024-12-17T10:38:53.014Z,24602,0.7300587,-0.29395646,-0.012589458
1734431933020,2024-12-17T10:38:53.020Z,24608,0.7300587,-0.29395646,-0.012589458
1734431933032,2024-12-17T10:38:53.032Z,24620,0.6725384,-0.33161068,-0.061162565
1734431933036,2024-12-17T10:38:53.036Z,24624,0.6725384,-0.33161068,-0.061162565
1734431933047,2024-12-17T10:38:53.047Z,24635,0.674836,-0.33975348,-0.0538521
1734431933050,2024-12-17T10:38:53.050Z,24638,0.674836,-0.33975348,-0.0538521
1734431933061,2024-12-17T10:38:53.061Z,24649,0.6668456,-0.34028342,-0.05384414
1734431933064,2024-12-17T10:38:53.064Z,24652,0.6668456,-0.34028342,-0.05384414
1734431933073,2024-12-17T10:38:53.073Z,24661,0.68364084,-0.34773263,-0.112273656
1734431933077,2024-12-17T10:38:53.077Z,24665,0.68364084,-0.34773263,-0.112273656
1734431933086,2024-12-17T10:38:53.086Z,24674,0.69875765,-0.34906456,-0.0757908
1734431933089,2024-12-17T10:38:53.089Z,24677,0.69875765,-0.34906456,-0.0757908
1734431933098,2024-12-17T10:38:53.098Z,24686,0.73992467,-0.31626046,-0.07454937
1734431933100,2024-12-17T10:38:53.100Z,24688,0.73992467,-0.31626046,-0.07454937
1734431933109,2024-12-17T10:38:53.109Z,24697,0.761987,-0.32364827,-0.12146642
1734431933112,2024-12-17T10:38:53.112Z,24700,0.761987,-0.32364827,-0.12146642
1734431933121,2024-12-17T10:38:53.121Z,24709,0.72096306,-0.3724124,-0.051244
1734431933124,2024-12-17T10:38:53.124Z,24712,0.72096306,-0.3724124,-0.051244
1734431933132,2024-12-17T10:38:53.132Z,24720,0.7523265,-0.33885592,-0.030399514
1734431933135,2024-12-17T10:38:53.135Z,24723,0.7523265,-0.33885592,-0.030399514
1734431933142,2024-12-17T10:38:53.142Z,24730,0.634333,-0.31849846,-0.06794941
1734431933145,2024-12-17T10:38:53.145Z,24733,0.634333,-0.31849846,-0.06794941
1734431933154,2024-12-17T10:38:53.154Z,24742,0.6469142,-0.34055007,-0.050688062
1734431933157,2024-12-17T10:38:53.157Z,24745,0.6469142,-0.34055007,-0.050688062
1734431933166,2024-12-17T10:38:53.166Z,24754,0.67013437,-0.3431135,-0.050540827
1734431933168,2024-12-17T10:38:53.168Z,24756,0.67013437,-0.3431135,-0.050540827
1734431933177,2024-12-17T10:38:53.177Z,24765,0.6935249,-0.34754568,0.0023471708
1734431933179,2024-12-17T10:38:53.179Z,24767,0.6935249,-0.34754568,0.0023471708
1734431933188,2024-12-17T10:38:53.188Z,24776,0.7075727,-0.35758802,-0.01948798
1734431933190,2024-12-17T10:38:53.190Z,24778,0.7075727,-0.35758802,-0.01948798
1734431933200,2024-12-17T10:38:53.200Z,24788,0.6956446,-0.34794337,-0.08846131
1734431933202,2024-12-17T10:38:53.202Z,24790,0.6956446,-0.34794337,-0.08846131
1734431933210,2024-12-17T10:38:53.210Z,24798,0.6938718,-0.34023964,-0.029530995
1734431933213,2024-12-17T10:38:53.213Z,24801,0.6938718,-0.34023964,-0.029530995
1734431933221,2024-12-17T10:38:53.221Z,24809,0.7234264,-0.33863658,0.05775549
1734431933223,2024-12-17T10:38:53.223Z,24811,0.7234264,-0.33863658,0.05775549
1734431933232,2024-12-17T10:38:53.232Z,24820,0.68579304,-0.30017215,0.06087223
1734431933235,2024-12-17T10:38:53.235Z,24823,0.68579304,-0.30017215,0.06087223
1734431933242,2024-12-17T10:38:53.242Z,24830,0.6509779,-0.29407272,0.057354853
1734431933246,2024-12-17T10:38:53.246Z,24834,0.6509779,-0.29407272,0.057354853
1734431933255,2024-12-17T10:38:53.255Z,24843,0.6459276,-0.31698108,0.021290101
1734431933261,2024-12-17T10:38:53.261Z,24849,0.6459276,-0.31698108,0.021290101
1734431933270,2024-12-17T10:38:53.270Z,24858,0.6446003,-0.3086595,-0.035552572
1734431933272,2024-12-17T10:38:53.272Z,24860,0.6446003,-0.3086595,-0.035552572
1734431933282,2024-12-17T10:38:53.282Z,24870,0.6588024,-0.33065084,-0.04595329
1734431933285,2024-12-17T10:38:53.285Z,24873,0.6588024,-0.33065084,-0.04595329
1734431933294,2024-12-17T10:38:53.294Z,24882,0.7129287,-0.32569626,-0.051107273
1734431933297,2024-12-17T10:38:53.297Z,24885,0.7129287,-0.32569626,-0.051107273
1734431933305,2024-12-17T10:38:53.305Z,24893,0.7443456,-0.32211152,-0.062674545
1734431933308,2024-12-17T10:38:53.308Z,24896,0.7443456,-0.32211152,-0.062674545
1734431933316,2024-12-17T10:38:53.316Z,24904,0.7549592,-0.31410316,0.06996769
1734431933319,2024-12-17T10:38:53.319Z,24907,0.7549592,-0.31410316,0.06996769
1734431933328,2024-12-17T10:38:53.328Z,24916,0.71758527,-0.32238638,0.081736945
1734431933332,2024-12-17T10:38:53.332Z,24920,0.71758527,-0.32238638,0.081736945
1734431933340,2024-12-17T10:38:53.340Z,24928,0.6851459,-0.3422961,0.08976669
1734431933342,2024-12-17T10:38:53.342Z,24930,0.6851459,-0.3422961,0.08976669
1734431933351,2024-12-17T10:38:53.351Z,24939,0.6400461,-0.3479953,0.14670238
1734431933354,2024-12-17T10:38:53.354Z,24942,0.6400461,-0.3479953,0.14670238
1734431933364,2024-12-17T10:38:53.364Z,24952,0.6220587,-0.31361955,0.05767869
1734431933367,2024-12-17T10:38:53.367Z,24955,0.6220587,-0.31361955,0.05767869
1734431933376,2024-12-17T10:38:53.376Z,24964,0.63036454,-0.32278976,0.024880463
1734431933379,2024-12-17T10:38:53.379Z,24967,0.63036454,-0.32278976,0.024880463
1734431933389,2024-12-17T10:38:53.389Z,24977,0.7271721,-0.37184986,0.10638201
1734431933392,2024-12-17T10:38:53.392Z,24980,0.7271721,-0.37184986,0.10638201
1734431933401,2024-12-17T10:38:53.401Z,24989,0.729736,-0.3526421,0.054840367
1734431933404,2024-12-17T10:38:53.404Z,24992,0.729736,-0.3526421,0.054840367
1734431933413,2024-12-17T10:38:53.413Z,25001,0.7013676,-0.33568957,0.092728294
1734431933415,2024-12-17T10:38:53.415Z,25003,0.7013676,-0.33568957,0.092728294
1734431933423,2024-12-17T10:38:53.423Z,25011,0.67338586,-0.30683658,0.11680569
1734431933425,2024-12-17T10:38:53.425Z,25013,0.67338586,-0.30683658,0.11680569
1734431933433,2024-12-17T10:38:53.433Z,25021,0.6535901,-0.24969664,0.07284628
1734431933435,2024-12-17T10:38:53.435Z,25023,0.6535901,-0.24969664,0.07284628
1734431933443,2024-12-17T10:38:53.443Z,25031,0.7135695,-0.24956988,0.0713919
1734431933447,2024-12-17T10:38:53.447Z,25035,0.7135695,-0.24956988,0.0713919
1734431933455,2024-12-17T10:38:53.455Z,25043,0.73783135,-0.26280788,0.017562743
1734431933457,2024-12-17T10:38:53.457Z,25045,0.73783135,-0.26280788,0.017562743
1734431933464,2024-12-17T10:38:53.464Z,25052,0.7849398,-0.27417496,0.06895958
1734431933467,2024-12-17T10:38:53.467Z,25055,0.7849398,-0.27417496,0.06895958
1734431933477,2024-12-17T10:38:53.477Z,25065,0.7809995,-0.2732987,0.11877331
1734431933480,2024-12-17T10:38:53.480Z,25068,0.7809995,-0.2732987,0.11877331
1734431933489,2024-12-17T10:38:53.489Z,25077,0.70976967,-0.21574123,0.10685723
1734431933492,2024-12-17T10:38:53.492Z,25080,0.70976967,-0.21574123,0.10685723
1734431933500,2024-12-17T10:38:53.500Z,25088,0.6762789,-0.17633155,0.13182247
1734431933503,2024-12-17T10:38:53.503Z,25091,0.6762789,-0.17633155,0.13182247
1734431933510,2024-12-17T10:38:53.510Z,25098,0.59100187,-0.14961089,-0.0063690566
1734431933512,2024-12-17T10:38:53.512Z,25100,0.59100187,-0.14961089,-0.0063690566
1734431933521,2024-12-17T10:38:53.521Z,25109,0.666046,-0.17125857,-0.2167643
1734431933524,2024-12-17T10:38:53.524Z,25112,0.666046,-0.17125857,-0.2167643
1734431933532,2024-12-17T10:38:53.532Z,25120,0.9756198,-0.25814468,0.0066364757
1734431933535,2024-12-17T10:38:53.535Z,25123,0.9756198,-0.25814468,0.0066364757
1734431933543,2024-12-17T10:38:53.543Z,25131,0.9413715,-0.28896195,0.15202494
1734431933545,2024-12-17T10:38:53.545Z,25133,0.9413715,-0.28896195,0.15202494
1734431933553,2024-12-17T10:38:53.553Z,25141,0.7232996,-0.2233553,0.038362328
1734431933556,2024-12-17T10:38:53.556Z,25144,0.7232996,-0.2233553,0.038362328
1734431933565,2024-12-17T10:38:53.565Z,25153,0.68466055,-0.18818487,0.13933581
1734431933567,2024-12-17T10:38:53.567Z,25155,0.68466055,-0.18818487,0.13933581
1734431933575,2024-12-17T10:38:53.575Z,25163,0.6991238,-0.15226614,0.19000912
1734431933578,2024-12-17T10:38:53.578Z,25166,0.6991238,-0.15226614,0.19000912
1734431933585,2024-12-17T10:38:53.585Z,25173,0.61683905,-0.113953315,0.08983046
1734431933587,2024-12-17T10:38:53.587Z,25175,0.61683905,-0.113953315,0.08983046
1734431933594,2024-12-17T10:38:53.594Z,25182,0.59478956,-0.107766904,-0.15982951
1734431933597,2024-12-17T10:38:53.597Z,25185,0.59478956,-0.107766904,-0.15982951
1734431933606,2024-12-17T10:38:53.606Z,25194,0.7524538,-0.16304776,-0.31803444
1734431933610,2024-12-17T10:38:53.610Z,25198,0.7524538,-0.16304776,-0.31803444
1734431933618,2024-12-17T10:38:53.618Z,25206,0.99010825,-0.2206467,-0.12865053
1734431933621,2024-12-17T10:38:53.621Z,25209,0.99010825,-0.2206467,-0.12865053
1734431933632,2024-12-17T10:38:53.632Z,25220,0.9308897,-0.22619663,0.0375258
1734431933636,2024-12-17T10:38:53.636Z,25224,0.9308897,-0.22619663,0.0375258
1734431933646,2024-12-17T10:38:53.646Z,25234,0.78355515,-0.15974382,0.07048767
1734431933649,2024-12-17T10:38:53.649Z,25237,0.78355515,-0.15974382,0.07048767
1734431933661,2024-12-17T10:38:53.661Z,25249,0.6422128,-0.081302635,0.15362002
1734431933664,2024-12-17T10:38:53.664Z,25252,0.6422128,-0.081302635,0.15362002
1734431933674,2024-12-17T10:38:53.674Z,25262,0.64615273,-0.020435683,0.10816453
1734431933676,2024-12-17T10:38:53.676Z,25264,0.64615273,-0.020435683,0.10816453
1734431933684,2024-12-17T10:38:53.684Z,25272,0.6847454,0.021500546,-0.11011077
1734431933687,2024-12-17T10:38:53.687Z,25275,0.6847454,0.021500546,-0.11011077
1734431933694,2024-12-17T10:38:53.694Z,25282,0.7068819,-0.037761725,-0.41567495
1734431933697,2024-12-17T10:38:53.697Z,25285,0.7068819,-0.037761725,-0.41567495
1734431933708,2024-12-17T10:38:53.708Z,25296,0.97449213,-0.15182455,-0.50518185
1734431933711,2024-12-17T10:38:53.711Z,25299,0.97449213,-0.15182455,-0.50518185
1734431933722,2024-12-17T10:38:53.722Z,25310,1.0772954,-0.14317966,-0.17241164
1734431933726,2024-12-17T10:38:53.726Z,25314,1.0772954,-0.14317966,-0.17241164
1734431933736,2024-12-17T10:38:53.736Z,25324,0.75041574,-0.069513395,0.045896407
1734431933738,2024-12-17T10:38:53.738Z,25326,0.75041574,-0.069513395,0.045896407
1734431933747,2024-12-17T10:38:53.747Z,25335,0.68883806,-0.019169956,-0.03638568
1734431933750,2024-12-17T10:38:53.750Z,25338,0.68883806,-0.019169956,-0.03638568
1734431933758,2024-12-17T10:38:53.758Z,25346,0.850362,-0.0815603,-0.07528295
1734431933761,2024-12-17T10:38:53.761Z,25349,0.850362,-0.0815603,-0.07528295
1734431933771,2024-12-17T10:38:53.771Z,25359,0.84325856,-0.08507517,-0.10025307
1734431933775,2024-12-17T10:38:53.775Z,25363,0.84325856,-0.08507517,-0.10025307
1734431933787,2024-12-17T10:38:53.787Z,25375,0.80903536,-0.03816297,-0.3121887
1734431933789,2024-12-17T10:38:53.789Z,25377,0.80903536,-0.03816297,-0.3121887
1734431933798,2024-12-17T10:38:53.798Z,25386,0.88294363,-0.10545659,-0.5604343
1734431933801,2024-12-17T10:38:53.801Z,25389,0.88294363,-0.10545659,-0.5604343
1734431933807,2024-12-17T10:38:53.807Z,25395,0.9327566,-0.19763103,-0.42022935
1734431933810,2024-12-17T10:38:53.810Z,25398,0.9327566,-0.19763103,-0.42022935
1734431933818,2024-12-17T10:38:53.818Z,25406,0.8430811,-0.21984655,-0.24378833
1734431933820,2024-12-17T10:38:53.820Z,25408,0.8430811,-0.21984655,-0.24378833
1734431933829,2024-12-17T10:38:53.829Z,25417,0.7513086,-0.19900563,-0.23270904
1734431933831,2024-12-17T10:38:53.831Z,25419,0.7513086,-0.19900563,-0.23270904
1734431933839,2024-12-17T10:38:53.839Z,25427,0.75657,-0.20229976,-0.18839069
1734431933842,2024-12-17T10:38:53.842Z,25430,0.75657,-0.20229976,-0.18839069
1734431933852,2024-12-17T10:38:53.852Z,25440,0.6562001,-0.21773943,-0.18139757
1734431933854,2024-12-17T10:38:53.854Z,25442,0.6562001,-0.21773943,-0.18139757
1734431933862,2024-12-17T10:38:53.862Z,25450,0.7349504,-0.22832096,-0.47901905
1734431933865,2024-12-17T10:38:53.865Z,25453,0.7349504,-0.22832096,-0.47901905
1734431933873,2024-12-17T10:38:53.873Z,25461,0.9879371,-0.27742726,-0.65626746
1734431933876,2024-12-17T10:38:53.876Z,25464,0.9879371,-0.27742726,-0.65626746
1734431933885,2024-12-17T10:38:53.885Z,25473,0.8180633,-0.38767943,-0.4912308
1734431933887,2024-12-17T10:38:53.887Z,25475,0.8180633,-0.38767943,-0.4912308
1734431933894,2024-12-17T10:38:53.894Z,25482,0.51394,-0.35418877,-0.41777238
1734431933897,2024-12-17T10:38:53.897Z,25485,0.51394,-0.35418877,-0.41777238
1734431933904,2024-12-17T10:38:53.904Z,25492,0.6010105,-0.33499426,-0.4679109
1734431933906,2024-12-17T10:38:53.906Z,25494,0.6010105,-0.33499426,-0.4679109
1734431933914,2024-12-17T10:38:53.914Z,25502,0.6945779,-0.38334563,-0.3850961
1734431933917,2024-12-17T10:38:53.917Z,25505,0.6945779,-0.38334563,-0.3850961
1734431933924,2024-12-17T10:38:53.924Z,25512,0.7007883,-0.37659615,-0.36907786
1734431933927,2024-12-17T10:38:53.927Z,25515,0.7007883,-0.37659615,-0.36907786
1734431933935,2024-12-17T10:38:53.935Z,25523,0.7382326,-0.34308788,-0.42820793
1734431933938,2024-12-17T10:38:53.938Z,25526,0.7382326,-0.34308788,-0.42820793
1734431933947,2024-12-17T10:38:53.947Z,25535,0.6841702,-0.305922,-0.45037302
1734431933951,2024-12-17T10:38:53.951Z,25539,0.6841702,-0.305922,-0.45037302
1734431933958,2024-12-17T10:38:53.958Z,25546,0.6082144,-0.32556853,-0.78253424
1734431933960,2024-12-17T10:38:53.960Z,25548,0.6082144,-0.32556853,-0.78253424
1734431933968,2024-12-17T10:38:53.968Z,25556,0.84706163,-0.3837574,-0.64876676
1734431933970,2024-12-17T10:38:53.970Z,25558,0.84706163,-0.3837574,-0.64876676
1734431933977,2024-12-17T10:38:53.977Z,25565,0.7300587,-0.45429882,-0.40246138
1734431933980,2024-12-17T10:38:53.980Z,25568,0.7300587,-0.45429882,-0.40246138
1734431933989,2024-12-17T10:38:53.989Z,25577,0.578744,-0.42572793,-0.39009443
1734431933992,2024-12-17T10:38:53.992Z,25580,0.578744,-0.42572793,-0.39009443
1734431934000,2024-12-17T10:38:54Z,25588,0.60085607,-0.36705747,-0.43430704
1734431934003,2024-12-17T10:38:54.003Z,25591,0.60085607,-0.36705747,-0.43430704
1734431934012,2024-12-17T10:38:54.012Z,25600,0.67248994,-0.37530106,-0.4879323
1734431934015,2024-12-17T10:38:54.015Z,25603,0.67248994,-0.37530106,-0.4879323
1734431934022,2024-12-17T10:38:54.022Z,25610,0.91701096,-0.44713128,-0.6079543
1734431934024,2024-12-17T10:38:54.024Z,25612,0.91701096,-0.44713128,-0.6079543
1734431934031,2024-12-17T10:38:54.031Z,25619,0.87545085,-0.45725024,-0.68738645
1734431934034,2024-12-17T10:38:54.034Z,25622,0.87545085,-0.45725024,-0.68738645
1734431934041,2024-12-17T10:38:54.041Z,25629,0.5704796,-0.39530438,-0.55267733
1734431934044,2024-12-17T10:38:54.044Z,25632,0.5704796,-0.39530438,-0.55267733
1734431934053,2024-12-17T10:38:54.053Z,25641,0.4905023,-0.40440613,-0.51197857
1734431934056,2024-12-17T10:38:54.056Z,25644,0.4905023,-0.40440613,-0.51197857
1734431934063,2024-12-17T10:38:54.063Z,25651,0.61640716,-0.43494686,-0.51060456
1734431934065,2024-12-17T10:38:54.065Z,25653,0.61640716,-0.43494686,-0.51060456
1734431934074,2024-12-17T10:38:54.074Z,25662,0.6865461,-0.4323805,-0.44780135
1734431934076,2024-12-17T10:38:54.076Z,25664,0.6865461,-0.4323805,-0.44780135
1734431934084,2024-12-17T10:38:54.084Z,25672,0.7361907,-0.4653901,-0.6021384
1734431934087,2024-12-17T10:38:54.087Z,25675,0.7361907,-0.4653901,-0.6021384
1734431934096,2024-12-17T10:38:54.096Z,25684,0.78912437,-0.46902326,-0.6157586
1734431934099,2024-12-17T10:38:54.099Z,25687,0.78912437,-0.46902326,-0.6157586
1734431934107,2024-12-17T10:38:54.107Z,25695,0.65054584,-0.4206444,-0.6158354
1734431934110,2024-12-17T10:38:54.110Z,25698,0.65054584,-0.4206444,-0.6158354
1734431934117,2024-12-17T10:38:54.117Z,25705,0.684703,-0.4858557,-0.64173007
1734431934120,2024-12-17T10:38:54.120Z,25708,0.684703,-0.4858557,-0.64173007
1734431934127,2024-12-17T10:38:54.127Z,25715,0.5520153,-0.53509575,-0.7208932
1734431934130,2024-12-17T10:38:54.130Z,25718,0.5520153,-0.53509575,-0.7208932
1734431934140,2024-12-17T10:38:54.140Z,25728,0.41489142,-0.4814204,-0.6226907
1734431934142,2024-12-17T10:38:54.142Z,25730,0.41489142,-0.4814204,-0.6226907
1734431934150,2024-12-17T10:38:54.150Z,25738,0.5755701,-0.54168797,-0.4022985
1734431934152,2024-12-17T10:38:54.152Z,25740,0.5755701,-0.54168797,-0.4022985
1734431934160,2024-12-17T10:38:54.160Z,25748,0.49469435,-0.5582779,-0.46069282
1734431934163,2024-12-17T10:38:54.163Z,25751,0.49469435,-0.5582779,-0.46069282
1734431934171,2024-12-17T10:38:54.171Z,25759,0.4474767,-0.4657287,-0.6321675
1734431934174,2024-12-17T10:38:54.174Z,25762,0.4474767,-0.4657287,-0.6321675
1734431934183,2024-12-17T10:38:54.183Z,25771,0.5995672,-0.47881472,-0.84173226
1734431934186,2024-12-17T10:38:54.186Z,25774,0.5995672,-0.47881472,-0.84173226
1734431934193,2024-12-17T10:38:54.193Z,25781,0.72827584,-0.54253536,-0.8186637
1734431934195,2024-12-17T10:38:54.195Z,25783,0.72827584,-0.54253536,-0.8186637
1734431934203,2024-12-17T10:38:54.203Z,25791,0.56802386,-0.56577384,-0.69062996
1734431934206,2024-12-17T10:38:54.206Z,25794,0.56802386,-0.56577384,-0.69062996
1734431934218,2024-12-17T10:38:54.218Z,25806,0.42462903,-0.57297635,-0.6725491
1734431934221,2024-12-17T10:38:54.221Z,25809,0.42462903,-0.57297635,-0.6725491
1734431934233,2024-12-17T10:38:54.233Z,25821,0.41869205,-0.5361255,-0.60749906
1734431934235,2024-12-17T10:38:54.235Z,25823,0.41869205,-0.5361255,-0.60749906
1734431934254,2024-12-17T10:38:54.254Z,25842,0.43994787,-0.602118,-0.48465967
1734431934257,2024-12-17T10:38:54.257Z,25845,0.43994787,-0.602118,-0.48465967
1734431934266,2024-12-17T10:38:54.266Z,25854,0.42684403,-0.5449125,-0.4625054
1734431934270,2024-12-17T10:38:54.270Z,25858,0.42684403,-0.5449125,-0.4625054
1734431934278,2024-12-17T10:38:54.278Z,25866,0.43550295,-0.4514137,-0.5987275
1734431934280,2024-12-17T10:38:54.280Z,25868,0.43550295,-0.4514137,-0.5987275
1734431934288,2024-12-17T10:38:54.288Z,25876,0.55270386,-0.50796133,-0.7637634
1734431934290,2024-12-17T10:38:54.290Z,25878,0.55270386,-0.50796133,-0.7637634
1734431934297,2024-12-17T10:38:54.297Z,25885,0.6490923,-0.5177523,-0.7835449
1734431934300,2024-12-17T10:38:54.300Z,25888,0.6490923,-0.5177523,-0.7835449
1734431934307,2024-12-17T10:38:54.307Z,25895,0.5737284,-0.51292545,-0.6854202
1734431934309,2024-12-17T10:38:54.309Z,25897,0.5737284,-0.51292545,-0.6854202
1734431934318,2024-12-17T10:38:54.318Z,25906,0.43081388,-0.5251095,-0.6722162
1734431934320,2024-12-17T10:38:54.320Z,25908,0.43081388,-0.5251095,-0.6722162
1734431934326,2024-12-17T10:38:54.326Z,25914,0.43927643,-0.52761275,-0.62910247
1734431934329,2024-12-17T10:38:54.329Z,25917,0.43927643,-0.52761275,-0.62910247
1734431934337,2024-12-17T10:38:54.337Z,25925,0.46620306,-0.57554495,-0.48237157
1734431934340,2024-12-17T10:38:54.340Z,25928,0.46620306,-0.57554495,-0.48237157
1734431934347,2024-12-17T10:38:54.347Z,25935,0.3870308,-0.53624177,-0.45697713
1734431934350,2024-12-17T10:38:54.350Z,25938,0.3870308,-0.53624177,-0.45697713
1734431934359,2024-12-17T10:38:54.359Z,25947,0.4205424,-0.48498932,-0.55159587
1734431934362,2024-12-17T10:38:54.362Z,25950,0.4205424,-0.48498932,-0.55159587
1734431934370,2024-12-17T10:38:54.370Z,25958,0.5593178,-0.5031768,-0.6416041
1734431934374,2024-12-17T10:38:54.374Z,25962,0.5593178,-0.5031768,-0.6416041
1734431934381,2024-12-17T10:38:54.381Z,25969,0.5575795,-0.4999311,-0.6523821
1734431934385,2024-12-17T10:38:54.385Z,25973,0.5575795,-0.4999311,-0.6523821
1734431934392,2024-12-17T10:38:54.392Z,25980,0.6383932,-0.500755,-0.6227034
1734431934394,2024-12-17T10:38:54.394Z,25982,0.6383932,-0.500755,-0.6227034
1734431934402,2024-12-17T10:38:54.402Z,25990,0.25287518,-0.52936167,-0.7086458
1734431934404,2024-12-17T10:38:54.404Z,25992,0.25287518,-0.52936167,-0.7086458
1734431934413,2024-12-17T10:38:54.413Z,26001,0.45248836,-0.5432505,-0.6400807
1734431934416,2024-12-17T10:38:54.416Z,26004,0.45248836,-0.5432505,-0.6400807
1734431934423,2024-12-17T10:38:54.423Z,26011,0.42102474,-0.50770485,-0.5684394
1734431934425,2024-12-17T10:38:54.425Z,26013,0.42102474,-0.50770485,-0.5684394
1734431934432,2024-12-17T10:38:54.432Z,26020,0.3706379,-0.5726223,-0.51160693
1734431934435,2024-12-17T10:38:54.435Z,26023,0.3706379,-0.5726223,-0.51160693
1734431934442,2024-12-17T10:38:54.442Z,26030,0.36701787,-0.5096347,-0.50221664
1734431934446,2024-12-17T10:38:54.446Z,26034,0.36701787,-0.5096347,-0.50221664
1734431934454,2024-12-17T10:38:54.454Z,26042,0.3937403,-0.5059985,-0.5603894
1734431934456,2024-12-17T10:38:54.456Z,26044,0.3937403,-0.5059985,-0.5603894
1734431934463,2024-12-17T10:38:54.463Z,26051,0.51725775,-0.5212545,-0.5889583
1734431934466,2024-12-17T10:38:54.466Z,26054,0.51725775,-0.5212545,-0.5889583
1734431934475,2024-12-17T10:38:54.475Z,26063,0.47122008,-0.5362892,-0.5973608
1734431934478,2024-12-17T10:38:54.478Z,26066,0.47122008,-0.5362892,-0.5973608
1734431934485,2024-12-17T10:38:54.485Z,26073,0.3663202,-0.513043,-0.6170234
1734431934487,2024-12-17T10:38:54.487Z,26075,0.3663202,-0.513043,-0.6170234
1734431934494,2024-12-17T10:38:54.494Z,26082,0.35566318,-0.5166716,-0.6507955
1734431934496,2024-12-17T10:38:54.496Z,26084,0.35566318,-0.5166716,-0.6507955
1734431934503,2024-12-17T10:38:54.503Z,26091,0.38349473,-0.5312264,-0.633026
1734431934506,2024-12-17T10:38:54.506Z,26094,0.38349473,-0.5312264,-0.633026
1734431934515,2024-12-17T10:38:54.515Z,26103,0.34569997,-0.5331574,-0.6359936
1734431934518,2024-12-17T10:38:54.518Z,26106,0.34569997,-0.5331574,-0.6359936
1734431934526,2024-12-17T10:38:54.526Z,26114,0.40958214,-0.5016753,-0.6434841
1734431934528,2024-12-17T10:38:54.528Z,26116,0.40958214,-0.5016753,-0.6434841
1734431934537,2024-12-17T10:38:54.537Z,26125,0.3429904,-0.5258575,-0.6100377
1734431934540,2024-12-17T10:38:54.540Z,26128,0.3429904,-0.5258575,-0.6100377
1734431934548,2024-12-17T10:38:54.548Z,26136,0.36697555,-0.52677226,-0.5701019
1734431934550,2024-12-17T10:38:54.550Z,26138,0.36697555,-0.52677226,-0.5701019
1734431934557,2024-12-17T10:38:54.557Z,26145,0.3696343,-0.5159703,-0.5944171
1734431934559,2024-12-17T10:38:54.559Z,26147,0.3696343,-0.5159703,-0.5944171
1734431934566,2024-12-17T10:38:54.566Z,26154,0.3789435,-0.5369318,-0.5925448
1734431934569,2024-12-17T10:38:54.569Z,26157,0.3789435,-0.5369318,-0.5925448
1734431934575,2024-12-17T10:38:54.575Z,26163,0.32446545,-0.5442873,-0.59247905
1734431934577,2024-12-17T10:38:54.577Z,26165,0.32446545,-0.5442873,-0.59247905
1734431934585,2024-12-17T10:38:54.585Z,26173,0.3112316,-0.5483627,-0.63087237
1734431934587,2024-12-17T10:38:54.587Z,26175,0.3112316,-0.5483627,-0.63087237
1734431934594,2024-12-17T10:38:54.594Z,26182,0.24832124,-0.55590624,-0.65695
1734431934597,2024-12-17T10:38:54.597Z,26185,0.24832124,-0.55590624,-0.65695
1734431934604,2024-12-17T10:38:54.604Z,26192,0.25985104,-0.5489469,-0.6306419
1734431934607,2024-12-17T10:38:54.607Z,26195,0.25985104,-0.5489469,-0.6306419
1734431934615,2024-12-17T10:38:54.615Z,26203,0.3211037,-0.5692631,-0.6072964
1734431934618,2024-12-17T10:38:54.618Z,26206,0.3211037,-0.5692631,-0.6072964
1734431934625,2024-12-17T10:38:54.625Z,26213,0.25998324,-0.5847415,-0.6180599
1734431934627,2024-12-17T10:38:54.627Z,26215,0.25998324,-0.5847415,-0.6180599
1734431934635,2024-12-17T10:38:54.635Z,26223,0.2685544,-0.5789169,-0.6247991
1734431934638,2024-12-17T10:38:54.638Z,26226,0.2685544,-0.5789169,-0.6247991
1734431934647,2024-12-17T10:38:54.647Z,26235,0.30652702,-0.5976704,-0.6209495
1734431934650,2024-12-17T10:38:54.650Z,26238,0.30652702,-0.5976704,-0.6209495
1734431934657,2024-12-17T10:38:54.657Z,26245,0.27470288,-0.6008544,-0.59823
1734431934660,2024-12-17T10:38:54.660Z,26248,0.27470288,-0.6008544,-0.59823
1734431934667,2024-12-17T10:38:54.667Z,26255,0.23417553,-0.60118634,-0.5931815
1734431934671,2024-12-17T10:38:54.671Z,26259,0.23417553,-0.60118634,-0.5931815
1734431934682,2024-12-17T10:38:54.682Z,26270,0.17357042,-0.58034474,-0.6549201
1734431934685,2024-12-17T10:38:54.685Z,26273,0.17357042,-0.58034474,-0.6549201
1734431934694,2024-12-17T10:38:54.694Z,26282,0.18129675,-0.56266344,-0.70765024
1734431934697,2024-12-17T10:38:54.697Z,26285,0.18129675,-0.56266344,-0.70765024
1734431934709,2024-12-17T10:38:54.709Z,26297,0.28423274,-0.568459,-0.684312
1734431934712,2024-12-17T10:38:54.712Z,26300,0.28423274,-0.568459,-0.684312
1734431934721,2024-12-17T10:38:54.721Z,26309,0.24137692,-0.5745345,-0.676686
1734431934724,2024-12-17T10:38:54.724Z,26312,0.24137692,-0.5745345,-0.676686
1734431934732,2024-12-17T10:38:54.732Z,26320,0.28135502,-0.5501496,-0.6988002
1734431934734,2024-12-17T10:38:54.734Z,26322,0.28135502,-0.5501496,-0.6988002
1734431934742,2024-12-17T10:38:54.742Z,26330,0.2803682,-0.535754,-0.70306545
1734431934745,2024-12-17T10:38:54.745Z,26333,0.2803682,-0.535754,-0.70306545
1734431934753,2024-12-17T10:38:54.753Z,26341,0.29232734,-0.52453,-0.6678313
1734431934755,2024-12-17T10:38:54.755Z,26343,0.29232734,-0.52453,-0.6678313
1734431934762,2024-12-17T10:38:54.762Z,26350,0.28115162,-0.51350766,-0.6490948
1734431934765,2024-12-17T10:38:54.765Z,26353,0.28115162,-0.51350766,-0.6490948
1734431934773,2024-12-17T10:38:54.773Z,26361,0.2868043,-0.49113163,-0.6490426
1734431934775,2024-12-17T10:38:54.775Z,26363,0.2868043,-0.49113163,-0.6490426
1734431934783,2024-12-17T10:38:54.783Z,26371,0.30243737,-0.46865857,-0.6691699
1734431934786,2024-12-17T10:38:54.786Z,26374,0.30243737,-0.46865857,-0.6691699
1734431934794,2024-12-17T10:38:54.794Z,26382,0.30891287,-0.44943103,-0.6855478
1734431934798,2024-12-17T10:38:54.798Z,26386,0.30891287,-0.44943103,-0.6855478
1734431934807,2024-12-17T10:38:54.807Z,26395,0.31977165,-0.435421,-0.67243236
1734431934809,2024-12-17T10:38:54.809Z,26397,0.31977165,-0.435421,-0.67243236
1734431934817,2024-12-17T10:38:54.817Z,26405,0.3040574,-0.41305014,-0.66965866
1734431934819,2024-12-17T10:38:54.819Z,26407,0.3040574,-0.41305014,-0.66965866
1734431934826,2024-12-17T10:38:54.826Z,26414,0.3077335,-0.39312628,-0.69823843
1734431934828,2024-12-17T10:38:54.828Z,26416,0.3077335,-0.39312628,-0.69823843
1734431934836,2024-12-17T10:38:54.836Z,26424,0.37025243,-0.39761668,-0.6923606
1734431934838,2024-12-17T10:38:54.838Z,26426,0.37025243,-0.39761668,-0.6923606
1734431934845,2024-12-17T10:38:54.845Z,26433,0.3763431,-0.3996161,-0.6598074
1734431934847,2024-12-17T10:38:54.847Z,26435,0.3763431,-0.3996161,-0.6598074
1734431934855,2024-12-17T10:38:54.855Z,26443,0.32938823,-0.38259453,-0.64951456
1734431934857,2024-12-17T10:38:54.857Z,26445,0.32938823,-0.38259453,-0.64951456
1734431934865,2024-12-17T10:38:54.865Z,26453,0.33081907,-0.38093448,-0.64914924
1734431934869,2024-12-17T10:38:54.869Z,26457,0.33081907,-0.38093448,-0.64914924
1734431934877,2024-12-17T10:38:54.877Z,26465,0.32715708,-0.3760096,-0.69307333
1734431934879,2024-12-17T10:38:54.879Z,26467,0.32715708,-0.3760096,-0.69307333
1734431934887,2024-12-17T10:38:54.887Z,26475,0.39503476,-0.38880607,-0.7085436
1734431934890,2024-12-17T10:38:54.890Z,26478,0.39503476,-0.38880607,-0.7085436
1734431934898,2024-12-17T10:38:54.898Z,26486,0.39876726,-0.40116638,-0.71100867
1734431934902,2024-12-17T10:38:54.902Z,26490,0.39876726,-0.40116638,-0.71100867
1734431934911,2024-12-17T10:38:54.911Z,26499,0.3704924,-0.395888,-0.71262085
1734431934914,2024-12-17T10:38:54.914Z,26502,0.3704924,-0.395888,-0.71262085
1734431934924,2024-12-17T10:38:54.924Z,26512,0.3455302,-0.41608554,-0.7011597
1734431934926,2024-12-17T10:38:54.926Z,26514,0.3455302,-0.41608554,-0.7011597
1734431934934,2024-12-17T10:38:54.934Z,26522,0.34061816,-0.4381002,-0.69192344
1734431934936,2024-12-17T10:38:54.936Z,26524,0.34061816,-0.4381002,-0.69192344
1734431934944,2024-12-17T10:38:54.944Z,26532,0.35553372,-0.46848556,-0.66147625
1734431934946,2024-12-17T10:38:54.946Z,26534,0.35553372,-0.46848556,-0.66147625
1734431934956,2024-12-17T10:38:54.956Z,26544,0.33452424,-0.5185122,-0.6753994
1734431934959,2024-12-17T10:38:54.959Z,26547,0.33452424,-0.5185122,-0.6753994
1734431934968,2024-12-17T10:38:54.968Z,26556,0.353176,-0.56188595,-0.6733561
1734431934971,2024-12-17T10:38:54.971Z,26559,0.353176,-0.56188595,-0.6733561
1734431934979,2024-12-17T10:38:54.979Z,26567,0.31553513,-0.60782456,-0.68828595
1734431934981,2024-12-17T10:38:54.981Z,26569,0.31553513,-0.60782456,-0.68828595
1734431934990,2024-12-17T10:38:54.990Z,26578,0.2536995,-0.6205565,-0.692756
1734431934992,2024-12-17T10:38:54.992Z,26580,0.2536995,-0.6205565,-0.692756
1734431934999,2024-12-17T10:38:54.999Z,26587,0.262017,-0.6442923,-0.65853584
1734431935002,2024-12-17T10:38:55.002Z,26590,0.262017,-0.6442923,-0.65853584
1734431935008,2024-12-17T10:38:55.008Z,26596,0.30707744,-0.68640596,-0.6713485
1734431935010,2024-12-17T10:38:55.010Z,26598,0.30707744,-0.68640596,-0.6713485
1734431935019,2024-12-17T10:38:55.019Z,26607,0.31451625,-0.7090391,-0.7012198
1734431935021,2024-12-17T10:38:55.021Z,26609,0.31451625,-0.7090391,-0.7012198
1734431935028,2024-12-17T10:38:55.028Z,26616,0.35685593,-0.7213696,-0.65683615
1734431935031,2024-12-17T10:38:55.031Z,26619,0.35685593,-0.7213696,-0.65683615
1734431935039,2024-12-17T10:38:55.039Z,26627,0.42358208,-0.7064198,-0.61807895
1734431935042,2024-12-17T10:38:55.042Z,26630,0.42358208,-0.7064198,-0.61807895
1734431935049,2024-12-17T10:38:55.049Z,26637,0.31852958,-0.6925058,-0.5821867
1734431935051,2024-12-17T10:38:55.051Z,26639,0.31852958,-0.6925058,-0.5821867
1734431935060,2024-12-17T10:38:55.060Z,26648,0.2218853,-0.7452084,-0.5923442
1734431935062,2024-12-17T10:38:55.062Z,26650,0.2218853,-0.7452084,-0.5923442
1734431935070,2024-12-17T10:38:55.070Z,26658,0.4305975,-0.69830924,-0.59849286
1734431935072,2024-12-17T10:38:55.072Z,26660,0.4305975,-0.69830924,-0.59849286
1734431935079,2024-12-17T10:38:55.079Z,26667,0.32725883,-0.7007969,-0.5839917
1734431935082,2024-12-17T10:38:55.082Z,26670,0.32725883,-0.7007969,-0.5839917
1734431935089,2024-12-17T10:38:55.089Z,26677,0.45294663,-0.7018086,-0.55450684
1734431935092,2024-12-17T10:38:55.092Z,26680,0.45294663,-0.7018086,-0.55450684
1734431935105,2024-12-17T10:38:55.105Z,26693,0.47526655,-0.6796387,-0.58434486
1734431935108,2024-12-17T10:38:55.108Z,26696,0.47526655,-0.6796387,-0.58434486
1734431935117,2024-12-17T10:38:55.117Z,26705,0.49157038,-0.68573767,-0.61039805
1734431935121,2024-12-17T10:38:55.121Z,26709,0.49157038,-0.68573767,-0.61039805
1734431935131,2024-12-17T10:38:55.131Z,26719,0.49914256,-0.6534919,-0.56571853
1734431935133,2024-12-17T10:38:55.133Z,26721,0.49914256,-0.6534919,-0.56571853
1734431935142,2024-12-17T10:38:55.142Z,26730,0.4314371,-0.64271027,-0.5695033
1734431935162,2024-12-17T10:38:55.162Z,26750,0.4314371,-0.64271027,-0.5695033
1734431935174,2024-12-17T10:38:55.174Z,26762,0.43533668,-0.6256006,-0.6041286
1734431935177,2024-12-17T10:38:55.177Z,26765,0.43533668,-0.6256006,-0.6041286
1734431935186,2024-12-17T10:38:55.186Z,26774,0.57041126,-0.61167574,-0.58319783
1734431935189,2024-12-17T10:38:55.189Z,26777,0.57041126,-0.61167574,-0.58319783
1734431935199,2024-12-17T10:38:55.199Z,26787,0.6705333,-0.64078194,-0.5769336
1734431935202,2024-12-17T10:38:55.202Z,26790,0.6705333,-0.64078194,-0.5769336
1734431935208,2024-12-17T10:38:55.208Z,26796,0.57104784,-0.59899265,-0.56818885
1734431935210,2024-12-17T10:38:55.210Z,26798,0.57104784,-0.59899265,-0.56818885
1734431935217,2024-12-17T10:38:55.217Z,26805,0.51112294,-0.5671606,-0.5432877
1734431935220,2024-12-17T10:38:55.220Z,26808,0.51112294,-0.5671606,-0.5432877
1734431935227,2024-12-17T10:38:55.227Z,26815,0.51267105,-0.56785995,-0.6147655
1734431935230,2024-12-17T10:38:55.230Z,26818,0.51267105,-0.56785995,-0.6147655
1734431935237,2024-12-17T10:38:55.237Z,26825,0.5555714,-0.5558267,-0.59023976
1734431935240,2024-12-17T10:38:55.240Z,26828,0.5555714,-0.5558267,-0.59023976
1734431935253,2024-12-17T10:38:55.253Z,26841,0.63237345,-0.53875893,-0.48171923
1734431935255,2024-12-17T10:38:55.255Z,26843,0.63237345,-0.53875893,-0.48171923
1734431935262,2024-12-17T10:38:55.262Z,26850,0.66725224,-0.5296083,-0.53213775
1734431935264,2024-12-17T10:38:55.264Z,26852,0.66725224,-0.5296083,-0.53213775
1734431935274,2024-12-17T10:38:55.274Z,26862,0.66969913,-0.52853674,-0.5447649
1734431935276,2024-12-17T10:38:55.276Z,26864,0.66969913,-0.52853674,-0.5447649
1734431935283,2024-12-17T10:38:55.283Z,26871,0.5757806,-0.49606124,-0.55823535
1734431935285,2024-12-17T10:38:55.285Z,26873,0.5757806,-0.49606124,-0.55823535
1734431935292,2024-12-17T10:38:55.292Z,26880,0.5859888,-0.47448197,-0.57181776
1734431935294,2024-12-17T10:38:55.294Z,26882,0.5859888,-0.47448197,-0.57181776
1734431935301,2024-12-17T10:38:55.301Z,26889,0.6093643,-0.4916112,-0.60575545
1734431935303,2024-12-17T10:38:55.303Z,26891,0.6093643,-0.4916112,-0.60575545
1734431935310,2024-12-17T10:38:55.310Z,26898,0.6138441,-0.49272722,-0.5712471
1734431935313,2024-12-17T10:38:55.313Z,26901,0.6138441,-0.49272722,-0.5712471
1734431935322,2024-12-17T10:38:55.322Z,26910,0.64783376,-0.4708925,-0.53299135
1734431935324,2024-12-17T10:38:55.324Z,26912,0.64783376,-0.4708925,-0.53299135
1734431935332,2024-12-17T10:38:55.332Z,26920,0.59642565,-0.45805773,-0.5773813
1734431935335,2024-12-17T10:38:55.335Z,26923,0.59642565,-0.45805773,-0.5773813
1734431935342,2024-12-17T10:38:55.342Z,26930,0.6138988,-0.43878222,-0.54589903
1734431935345,2024-12-17T10:38:55.345Z,26933,0.6138988,-0.43878222,-0.54589903
1734431935353,2024-12-17T10:38:55.353Z,26941,0.65991783,-0.4493724,-0.41532958
1734431935355,2024-12-17T10:38:55.355Z,26943,0.65991783,-0.4493724,-0.41532958
1734431935361,2024-12-17T10:38:55.361Z,26949,0.56865317,-0.43969125,-0.38926676
1734431935364,2024-12-17T10:38:55.364Z,26952,0.56865317,-0.43969125,-0.38926676
1734431935371,2024-12-17T10:38:55.371Z,26959,0.6357263,-0.37125584,-0.40810907
1734431935374,2024-12-17T10:38:55.374Z,26962,0.6357263,-0.37125584,-0.40810907
1734431935382,2024-12-17T10:38:55.382Z,26970,0.722553,-0.35604602,-0.43205434
1734431935385,2024-12-17T10:38:55.385Z,26973,0.722553,-0.35604602,-0.43205434
1734431935392,2024-12-17T10:38:55.392Z,26980,0.6645405,-0.36150116,-0.4401087
1734431935394,2024-12-17T10:38:55.394Z,26982,0.6645405,-0.36150116,-0.4401087
1734431935401,2024-12-17T10:38:55.401Z,26989,0.663504,-0.32709867,-0.38455757
1734431935404,2024-12-17T10:38:55.404Z,26992,0.663504,-0.32709867,-0.38455757
1734431935411,2024-12-17T10:38:55.411Z,26999,0.71640396,-0.29107228,-0.35589862
1734431935414,2024-12-17T10:38:55.414Z,27002,0.71640396,-0.29107228,-0.35589862
1734431935422,2024-12-17T10:38:55.422Z,27010,0.6744852,-0.28173277,-0.47365054
1734431935425,2024-12-17T10:38:55.425Z,27013,0.6744852,-0.28173277,-0.47365054
1734431935433,2024-12-17T10:38:55.433Z,27021,0.7119797,-0.27683648,-0.48498553
1734431935435,2024-12-17T10:38:55.435Z,27023,0.7119797,-0.27683648,-0.48498553
1734431935442,2024-12-17T10:38:55.442Z,27030,0.7475075,-0.28521252,-0.4526901
1734431935444,2024-12-17T10:38:55.444Z,27032,0.7475075,-0.28521252,-0.4526901
1734431935452,2024-12-17T10:38:55.452Z,27040,0.7576758,-0.28321782,-0.41801006
1734431935455,2024-12-17T10:38:55.455Z,27043,0.7576758,-0.28321782,-0.41801006
1734431935462,2024-12-17T10:38:55.462Z,27050,0.6690203,-0.31252897,-0.3766952
1734431935465,2024-12-17T10:38:55.465Z,27053,0.6690203,-0.31252897,-0.3766952
1734431935473,2024-12-17T10:38:55.473Z,27061,0.74434376,-0.29500526,-0.31243867
1734431935475,2024-12-17T10:38:55.475Z,27063,0.74434376,-0.29500526,-0.31243867
1734431935483,2024-12-17T10:38:55.483Z,27071,0.6621312,-0.27806982,-0.18952441
1734431935485,2024-12-17T10:38:55.485Z,27073,0.6621312,-0.27806982,-0.18952441
1734431935493,2024-12-17T10:38:55.493Z,27081,0.6387366,-0.24478859,-0.1885254
1734431935495,2024-12-17T10:38:55.495Z,27083,0.6387366,-0.24478859,-0.1885254
1734431935504,2024-12-17T10:38:55.504Z,27092,0.72339326,-0.25988615,-0.31462514
1734431935506,2024-12-17T10:38:55.506Z,27094,0.72339326,-0.25988615,-0.31462514
1734431935512,2024-12-17T10:38:55.512Z,27100,0.73841715,-0.26313475,-0.3364197
1734431935515,2024-12-17T10:38:55.515Z,27103,0.73841715,-0.26313475,-0.3364197
1734431935522,2024-12-17T10:38:55.522Z,27110,0.7579806,-0.21584402,-0.29818434
1734431935525,2024-12-17T10:38:55.525Z,27113,0.7579806,-0.21584402,-0.29818434
1734431935534,2024-12-17T10:38:55.534Z,27122,0.76284665,-0.22331065,-0.32968324
1734431935537,2024-12-17T10:38:55.537Z,27125,0.76284665,-0.22331065,-0.32968324
1734431935544,2024-12-17T10:38:55.544Z,27132,0.7989893,-0.22253034,-0.3546115
1734431935547,2024-12-17T10:38:55.547Z,27135,0.7989893,-0.22253034,-0.3546115
1734431935554,2024-12-17T10:38:55.554Z,27142,0.7132961,-0.22691543,-0.3609415
1734431935556,2024-12-17T10:38:55.556Z,27144,0.7132961,-0.22691543,-0.3609415
1734431935563,2024-12-17T10:38:55.563Z,27151,0.716444,-0.2504718,-0.29868287
1734431935565,2024-12-17T10:38:55.565Z,27153,0.716444,-0.2504718,-0.29868287
1734431935575,2024-12-17T10:38:55.575Z,27163,0.77814186,-0.21807848,-0.17689547
1734431935577,2024-12-17T10:38:55.577Z,27165,0.77814186,-0.21807848,-0.17689547
1734431935585,2024-12-17T10:38:55.585Z,27173,0.75271356,-0.22722755,-0.15986025
1734431935587,2024-12-17T10:38:55.587Z,27175,0.75271356,-0.22722755,-0.15986025
1734431935593,2024-12-17T10:38:55.593Z,27181,0.76373625,-0.21942343,-0.18275784
1734431935595,2024-12-17T10:38:55.595Z,27183,0.76373625,-0.21942343,-0.18275784
1734431935602,2024-12-17T10:38:55.602Z,27190,0.7373703,-0.21152662,-0.22655019
1734431935606,2024-12-17T10:38:55.606Z,27194,0.7373703,-0.21152662,-0.22655019
1734431935614,2024-12-17T10:38:55.614Z,27202,0.7573982,-0.1812479,-0.22341819
1734431935617,2024-12-17T10:38:55.617Z,27205,0.7573982,-0.1812479,-0.22341819
1734431935625,2024-12-17T10:38:55.625Z,27213,0.83360976,-0.19058232,-0.1489084
1734431935627,2024-12-17T10:38:55.627Z,27215,0.83360976,-0.19058232,-0.1489084
1734431935636,2024-12-17T10:38:55.636Z,27224,0.816888,-0.21055914,-0.18191938
1734431935639,2024-12-17T10:38:55.639Z,27227,0.816888,-0.21055914,-0.18191938
1734431935648,2024-12-17T10:38:55.648Z,27236,0.76872444,-0.16308846,-0.14071146
1734431935650,2024-12-17T10:38:55.650Z,27238,0.76872444,-0.16308846,-0.14071146
1734431935665,2024-12-17T10:38:55.665Z,27253,0.80600387,-0.11336292,-0.051777747
1734431935668,2024-12-17T10:38:55.668Z,27256,0.80600387,-0.11336292,-0.051777747
1734431935676,2024-12-17T10:38:55.676Z,27264,0.77922153,-0.12998222,-0.08916145
1734431935679,2024-12-17T10:38:55.679Z,27267,0.77922153,-0.12998222,-0.08916145
1734431935686,2024-12-17T10:38:55.686Z,27274,0.8087211,-0.0735658,-0.08545714
1734431935689,2024-12-17T10:38:55.689Z,27277,0.8087211,-0.0735658,-0.08545714
1734431935695,2024-12-17T10:38:55.695Z,27283,0.7626721,-0.08762029,-0.2228604
1734431935697,2024-12-17T10:38:55.697Z,27285,0.7626721,-0.08762029,-0.2228604
1734431935705,2024-12-17T10:38:55.705Z,27293,0.82537186,-0.13390373,-0.25197297
1734431935707,2024-12-17T10:38:55.707Z,27295,0.82537186,-0.13390373,-0.25197297
1734431935715,2024-12-17T10:38:55.715Z,27303,0.86563313,-0.07999835,-0.12368317
1734431935718,2024-12-17T10:38:55.718Z,27306,0.86563313,-0.07999835,-0.12368317
1734431935725,2024-12-17T10:38:55.725Z,27313,0.7199793,-0.09365869,-0.2652509
1734431935728,2024-12-17T10:38:55.728Z,27316,0.7199793,-0.09365869,-0.2652509
1734431935738,2024-12-17T10:38:55.738Z,27326,0.89153576,-0.12889227,-0.16007943
1734431935740,2024-12-17T10:38:55.740Z,27328,0.89153576,-0.12889227,-0.16007943
1734431935747,2024-12-17T10:38:55.747Z,27335,0.85680777,-0.14176393,-0.022309538
1734431935749,2024-12-17T10:38:55.749Z,27337,0.85680777,-0.14176393,-0.022309538
1734431935757,2024-12-17T10:38:55.757Z,27345,0.7333224,-0.1079806,-0.043193787
1734431935759,2024-12-17T10:38:55.759Z,27347,0.7333224,-0.1079806,-0.043193787
1734431935766,2024-12-17T10:38:55.766Z,27354,0.7922987,-0.13570963,0.03882755
1734431935768,2024-12-17T10:38:55.768Z,27356,0.7922987,-0.13570963,0.03882755
1734431935776,2024-12-17T10:38:55.776Z,27364,0.756307,-0.16614354,-0.008490698
1734431935778,2024-12-17T10:38:55.778Z,27366,0.756307,-0.16614354,-0.008490698
1734431935785,2024-12-17T10:38:55.785Z,27373,0.75360864,-0.14052255,-0.06573746
1734431935788,2024-12-17T10:38:55.788Z,27376,0.75360864,-0.14052255,-0.06573746
1734431935795,2024-12-17T10:38:55.795Z,27383,0.69413036,-0.13625932,-0.08173527
1734431935798,2024-12-17T10:38:55.798Z,27386,0.69413036,-0.13625932,-0.08173527
1734431935807,2024-12-17T10:38:55.807Z,27395,0.70970756,-0.14899434,-0.15977643
1734431935809,2024-12-17T10:38:55.809Z,27397,0.70970756,-0.14899434,-0.15977643
1734431935816,2024-12-17T10:38:55.816Z,27404,0.8352221,-0.15585366,-0.099352546
1734431935818,2024-12-17T10:38:55.818Z,27406,0.8352221,-0.15585366,-0.099352546
1734431935833,2024-12-17T10:38:55.833Z,27421,0.76685786,-0.19709821,-0.06644564
1734431935836,2024-12-17T10:38:55.836Z,27424,0.76685786,-0.19709821,-0.06644564
1734431935844,2024-12-17T10:38:55.844Z,27432,0.7264791,-0.18449564,-0.05397647
1734431935849,2024-12-17T10:38:55.849Z,27437,0.7264791,-0.18449564,-0.05397647
1734431935858,2024-12-17T10:38:55.858Z,27446,0.7450413,-0.1828026,0.049756162
1734431935860,2024-12-17T10:38:55.860Z,27448,0.7450413,-0.1828026,0.049756162
1734431935869,2024-12-17T10:38:55.869Z,27457,0.6457597,-0.17135246,0.014072887
1734431935872,2024-12-17T10:38:55.872Z,27460,0.6457597,-0.17135246,0.014072887
1734431935878,2024-12-17T10:38:55.878Z,27466,0.7272537,-0.17529674,0.058096405
1734431935881,2024-12-17T10:38:55.881Z,27469,0.7272537,-0.17529674,0.058096405
1734431935888,2024-12-17T10:38:55.888Z,27476,0.7085467,-0.22665758,0.030687658
1734431935890,2024-12-17T10:38:55.890Z,27478,0.7085467,-0.22665758,0.030687658
1734431935899,2024-12-17T10:38:55.899Z,27487,0.74639016,-0.2064849,0.021684976
1734431935901,2024-12-17T10:38:55.901Z,27489,0.74639016,-0.2064849,0.021684976
1734431935909,2024-12-17T10:38:55.909Z,27497,0.7253827,-0.23775588,-0.006164241
1734431935912,2024-12-17T10:38:55.912Z,27500,0.7253827,-0.23775588,-0.006164241
1734431935920,2024-12-17T10:38:55.920Z,27508,0.65940744,-0.24933556,-0.030136678
1734431935922,2024-12-17T10:38:55.922Z,27510,0.65940744,-0.24933556,-0.030136678
1734431935928,2024-12-17T10:38:55.928Z,27516,0.7202258,-0.24705884,0.019383634
1734431935932,2024-12-17T10:38:55.932Z,27520,0.7202258,-0.24705884,0.019383634
1734431935941,2024-12-17T10:38:55.941Z,27529,0.6795667,-0.2741486,0.06783231
1734431935943,2024-12-17T10:38:55.943Z,27531,0.6795667,-0.2741486,0.06783231
1734431935952,2024-12-17T10:38:55.952Z,27540,0.6718745,-0.25015065,0.091567345
1734431935955,2024-12-17T10:38:55.955Z,27543,0.6718745,-0.25015065,0.091567345
1734431935964,2024-12-17T10:38:55.964Z,27552,0.6740272,-0.24652316,0.12940176
1734431935967,2024-12-17T10:38:55.967Z,27555,0.6740272,-0.24652316,0.12940176
1734431935975,2024-12-17T10:38:55.975Z,27563,0.67919993,-0.2852755,0.12182563
1734431935978,2024-12-17T10:38:55.978Z,27566,0.67919993,-0.2852755,0.12182563
1734431935986,2024-12-17T10:38:55.986Z,27574,0.68896914,-0.29072356,0.08855487
1734431935989,2024-12-17T10:38:55.989Z,27577,0.68896914,-0.29072356,0.08855487
1734431935996,2024-12-17T10:38:55.996Z,27584,0.68356687,-0.28722787,0.09701713
1734431935999,2024-12-17T10:38:55.999Z,27587,0.68356687,-0.28722787,0.09701713
1734431936008,2024-12-17T10:38:56.008Z,27596,0.67773163,-0.27070686,0.098360896
1734431936011,2024-12-17T10:38:56.011Z,27599,0.67773163,-0.27070686,0.098360896
1734431936024,2024-12-17T10:38:56.024Z,27612,0.61400974,-0.27893004,0.059321497
1734431936026,2024-12-17T10:38:56.026Z,27614,0.61400974,-0.27893004,0.059321497
1734431936034,2024-12-17T10:38:56.034Z,27622,0.5717845,-0.30272853,0.07945427
1734431936037,2024-12-17T10:38:56.037Z,27625,0.5717845,-0.30272853,0.07945427
1734431936044,2024-12-17T10:38:56.044Z,27632,0.6310295,-0.29978445,0.12557788
1734431936047,2024-12-17T10:38:56.047Z,27635,0.6310295,-0.29978445,0.12557788
1734431936055,2024-12-17T10:38:56.055Z,27643,0.634457,-0.3033393,0.16619459
1734431936057,2024-12-17T10:38:56.057Z,27645,0.634457,-0.3033393,0.16619459
1734431936064,2024-12-17T10:38:56.064Z,27652,0.62868685,-0.30003056,0.1371453
1734431936066,2024-12-17T10:38:56.066Z,27654,0.62868685,-0.30003056,0.1371453
1734431936073,2024-12-17T10:38:56.073Z,27661,0.6652237,-0.34182236,0.11466992
1734431936076,2024-12-17T10:38:56.076Z,27664,0.6652237,-0.34182236,0.11466992
1734431936082,2024-12-17T10:38:56.082Z,27670,0.6961486,-0.35649607,0.111774854
1734431936085,2024-12-17T10:38:56.085Z,27673,0.6961486,-0.35649607,0.111774854
1734431936093,2024-12-17T10:38:56.093Z,27681,0.64676327,-0.35276482,0.13119051
1734431936096,2024-12-17T10:38:56.096Z,27684,0.64676327,-0.35276482,0.13119051
1734431936109,2024-12-17T10:38:56.109Z,27697,0.6183901,-0.34899622,0.109418035
1734431936112,2024-12-17T10:38:56.112Z,27700,0.6183901,-0.34899622,0.109418035
1734431936121,2024-12-17T10:38:56.121Z,27709,0.5871181,-0.3394502,0.10528839
1734431936124,2024-12-17T10:38:56.124Z,27712,0.5871181,-0.3394502,0.10528839
1734431936133,2024-12-17T10:38:56.133Z,27721,0.6088002,-0.3340146,0.141466
1734431936135,2024-12-17T10:38:56.135Z,27723,0.6088002,-0.3340146,0.141466
1734431936142,2024-12-17T10:38:56.142Z,27730,0.6271975,-0.30132583,0.1441973
1734431936144,2024-12-17T10:38:56.144Z,27732,0.6271975,-0.30132583,0.1441973
1734431936152,2024-12-17T10:38:56.152Z,27740,0.6188784,-0.27161244,0.10601365
1734431936154,2024-12-17T10:38:56.154Z,27742,0.6188784,-0.27161244,0.10601365
1734431936161,2024-12-17T10:38:56.161Z,27749,0.6764557,-0.2642907,0.112087086
1734431936164,2024-12-17T10:38:56.164Z,27752,0.6764557,-0.2642907,0.112087086
1734431936171,2024-12-17T10:38:56.171Z,27759,0.6480086,-0.28131357,0.10354125
1734431936173,2024-12-17T10:38:56.173Z,27761,0.6480086,-0.28131357,0.10354125
1734431936179,2024-12-17T10:38:56.179Z,27767,0.7151453,-0.26202205,0.12072703
1734431936181,2024-12-17T10:38:56.181Z,27769,0.7151453,-0.26202205,0.12072703
1734431936188,2024-12-17T10:38:56.188Z,27776,0.67547244,-0.25879994,0.22225034
1734431936190,2024-12-17T10:38:56.190Z,27778,0.67547244,-0.25879994,0.22225034
1734431936196,2024-12-17T10:38:56.196Z,27784,0.52204376,-0.23483573,0.124829344
1734431936199,2024-12-17T10:38:56.199Z,27787,0.52204376,-0.23483573,0.124829344
1734431936206,2024-12-17T10:38:56.206Z,27794,0.5829774,-0.18138434,0.023809643
1734431936208,2024-12-17T10:38:56.208Z,27796,0.5829774,-0.18138434,0.023809643
1734431936217,2024-12-17T10:38:56.217Z,27805,0.67544645,-0.20247173,0.093744464
1734431936219,2024-12-17T10:38:56.219Z,27807,0.67544645,-0.20247173,0.093744464
1734431936226,2024-12-17T10:38:56.226Z,27814,0.6445968,-0.21299273,0.07805762
1734431936228,2024-12-17T10:38:56.228Z,27816,0.6445968,-0.21299273,0.07805762
1734431936234,2024-12-17T10:38:56.234Z,27822,0.7023434,-0.1627247,0.088683076
1734431936237,2024-12-17T10:38:56.237Z,27825,0.7023434,-0.1627247,0.088683076
1734431936245,2024-12-17T10:38:56.245Z,27833,0.64481866,-0.17067751,0.006587949
1734431936249,2024-12-17T10:38:56.249Z,27837,0.64481866,-0.17067751,0.006587949
1734431936257,2024-12-17T10:38:56.257Z,27845,0.755778,-0.14873683,0.021346444
1734431936258,2024-12-17T10:38:56.258Z,27846,0.755778,-0.14873683,0.021346444
1734431936265,2024-12-17T10:38:56.265Z,27853,0.69221485,-0.16989765,-0.0034342667
1734431936267,2024-12-17T10:38:56.267Z,27855,0.69221485,-0.16989765,-0.0034342667
1734431936274,2024-12-17T10:38:56.274Z,27862,0.7113823,-0.17256369,-0.0943823
1734431936276,2024-12-17T10:38:56.276Z,27864,0.7113823,-0.17256369,-0.0943823
1734431936286,2024-12-17T10:38:56.286Z,27874,0.7351018,-0.21518551,-0.09633711
1734431936289,2024-12-17T10:38:56.289Z,27877,0.7351018,-0.21518551,-0.09633711
1734431936296,2024-12-17T10:38:56.296Z,27884,0.7263524,-0.23687817,0.037790924
1734431936298,2024-12-17T10:38:56.298Z,27886,0.7263524,-0.23687817,0.037790924
1734431936306,2024-12-17T10:38:56.306Z,27894,0.5958416,-0.2356726,0.19860387
1734431936308,2024-12-17T10:38:56.308Z,27896,0.5958416,-0.2356726,0.19860387
1734431936314,2024-12-17T10:38:56.314Z,27902,0.49841735,-0.18259037,0.11253043
1734431936317,2024-12-17T10:38:56.317Z,27905,0.49841735,-0.18259037,0.11253043
1734431936325,2024-12-17T10:38:56.325Z,27913,0.6528881,-0.12641808,0.10064366
1734431936328,2024-12-17T10:38:56.328Z,27916,0.6528881,-0.12641808,0.10064366
1734431936336,2024-12-17T10:38:56.336Z,27924,0.6140912,-0.13406083,0.070598684
1734431936338,2024-12-17T10:38:56.338Z,27926,0.6140912,-0.13406083,0.070598684
1734431936345,2024-12-17T10:38:56.345Z,27933,0.62746274,-0.15495962,-0.26426357
1734431936348,2024-12-17T10:38:56.348Z,27936,0.62746274,-0.15495962,-0.26426357
1734431936355,2024-12-17T10:38:56.355Z,27943,0.9346871,-0.16299577,-0.31427258
1734431936357,2024-12-17T10:38:56.357Z,27945,0.9346871,-0.16299577,-0.31427258
1734431936363,2024-12-17T10:38:56.363Z,27951,0.9512322,-0.197871,-0.08808883
1734431936365,2024-12-17T10:38:56.365Z,27953,0.9512322,-0.197871,-0.08808883
1734431936372,2024-12-17T10:38:56.372Z,27960,0.72303015,-0.2494381,-0.17571637
1734431936374,2024-12-17T10:38:56.374Z,27962,0.72303015,-0.2494381,-0.17571637
1734431936381,2024-12-17T10:38:56.381Z,27969,0.8285477,-0.1919856,-0.108704954
1734431936384,2024-12-17T10:38:56.384Z,27972,0.8285477,-0.1919856,-0.108704954
1734431936391,2024-12-17T10:38:56.391Z,27979,0.6954053,-0.1905321,0.087842844
1734431936393,2024-12-17T10:38:56.393Z,27981,0.6954053,-0.1905321,0.087842844
1734431936399,2024-12-17T10:38:56.399Z,27987,0.5216566,-0.22906466,0.10944188
1734431936402,2024-12-17T10:38:56.402Z,27990,0.5216566,-0.22906466,0.10944188
1734431936410,2024-12-17T10:38:56.410Z,27998,0.5773226,-0.17119507,0.013332455
1734431936412,2024-12-17T10:38:56.412Z,28000,0.5773226,-0.17119507,0.013332455
1734431936418,2024-12-17T10:38:56.418Z,28006,0.6623312,-0.10911753,-0.19355533
1734431936421,2024-12-17T10:38:56.421Z,28009,0.6623312,-0.10911753,-0.19355533
1734431936428,2024-12-17T10:38:56.428Z,28016,0.7996686,-0.18163641,-0.31191087
1734431936431,2024-12-17T10:38:56.431Z,28019,0.7996686,-0.18163641,-0.31191087
1734431936440,2024-12-17T10:38:56.440Z,28028,0.8900175,-0.27467766,-0.47593313
1734431936442,2024-12-17T10:38:56.442Z,28030,0.8900175,-0.27467766,-0.47593313
1734431936449,2024-12-17T10:38:56.449Z,28037,0.93408376,-0.31486258,-0.5178675
1734431936451,2024-12-17T10:38:56.451Z,28039,0.93408376,-0.31486258,-0.5178675
1734431936458,2024-12-17T10:38:56.458Z,28046,0.91515845,-0.29720744,-0.20362177
1734431936460,2024-12-17T10:38:56.460Z,28048,0.91515845,-0.29720744,-0.20362177
1734431936466,2024-12-17T10:38:56.466Z,28054,0.65334827,-0.33686784,0.017572343
1734431936468,2024-12-17T10:38:56.468Z,28056,0.65334827,-0.33686784,0.017572343
1734431936477,2024-12-17T10:38:56.477Z,28065,0.5425478,-0.30270928,0.046897322
1734431936479,2024-12-17T10:38:56.479Z,28067,0.5425478,-0.30270928,0.046897322
1734431936487,2024-12-17T10:38:56.487Z,28075,0.60911405,-0.24477288,-0.010915518
1734431936489,2024-12-17T10:38:56.489Z,28077,0.60911405,-0.24477288,-0.010915518
1734431936495,2024-12-17T10:38:56.495Z,28083,0.73091775,-0.20142812,-0.23380315
1734431936497,2024-12-17T10:38:56.497Z,28085,0.73091775,-0.20142812,-0.23380315
1734431936503,2024-12-17T10:38:56.503Z,28091,0.7209441,-0.25370094,-0.6378895
1734431936505,2024-12-17T10:38:56.505Z,28093,0.7209441,-0.25370094,-0.6378895
1734431936512,2024-12-17T10:38:56.512Z,28100,1.0169638,-0.28106156,-0.5819013
1734431936514,2024-12-17T10:38:56.514Z,28102,1.0169638,-0.28106156,-0.5819013
1734431936523,2024-12-17T10:38:56.523Z,28111,0.925334,-0.34197104,-0.2927106
1734431936525,2024-12-17T10:38:56.525Z,28113,0.925334,-0.34197104,-0.2927106
1734431936536,2024-12-17T10:38:56.536Z,28124,0.5356027,-0.34031686,-0.3047466
1734431936540,2024-12-17T10:38:56.540Z,28128,0.5356027,-0.34031686,-0.3047466
1734431936549,2024-12-17T10:38:56.549Z,28137,0.63947666,-0.26671615,-0.29785547
1734431936551,2024-12-17T10:38:56.551Z,28139,0.63947666,-0.26671615,-0.29785547
1734431936562,2024-12-17T10:38:56.562Z,28150,0.7820498,-0.36001915,-0.20688687
1734431936564,2024-12-17T10:38:56.564Z,28152,0.7820498,-0.36001915,-0.20688687
1734431936572,2024-12-17T10:38:56.572Z,28160,0.6282429,-0.4161386,-0.3985476
1734431936574,2024-12-17T10:38:56.574Z,28162,0.6282429,-0.4161386,-0.3985476
1734431936582,2024-12-17T10:38:56.582Z,28170,0.7375773,-0.30557358,-0.40294328
1734431936585,2024-12-17T10:38:56.585Z,28173,0.7375773,-0.30557358,-0.40294328
1734431936593,2024-12-17T10:38:56.593Z,28181,0.8170291,-0.37657285,-0.34955108
1734431936595,2024-12-17T10:38:56.595Z,28183,0.8170291,-0.37657285,-0.34955108
1734431936603,2024-12-17T10:38:56.603Z,28191,0.7601745,-0.4962668,-0.36678615
1734431936605,2024-12-17T10:38:56.605Z,28193,0.7601745,-0.4962668,-0.36678615
1734431936612,2024-12-17T10:38:56.612Z,28200,0.5423848,-0.34432113,-0.4437634
1734431936615,2024-12-17T10:38:56.615Z,28203,0.5423848,-0.34432113,-0.4437634
1734431936624,2024-12-17T10:38:56.624Z,28212,0.59564406,-0.32747206,-0.47125334
1734431936626,2024-12-17T10:38:56.626Z,28214,0.59564406,-0.32747206,-0.47125334
1734431936633,2024-12-17T10:38:56.633Z,28221,0.7916863,-0.44139254,-0.45515564
1734431936635,2024-12-17T10:38:56.635Z,28223,0.7916863,-0.44139254,-0.45515564
1734431936642,2024-12-17T10:38:56.642Z,28230,0.6638025,-0.4461791,-0.5400205
1734431936645,2024-12-17T10:38:56.645Z,28233,0.6638025,-0.4461791,-0.5400205
1734431936653,2024-12-17T10:38:56.653Z,28241,0.7615904,-0.35507417,-0.5126176
1734431936656,2024-12-17T10:38:56.656Z,28244,0.7615904,-0.35507417,-0.5126176
1734431936662,2024-12-17T10:38:56.662Z,28250,0.87494195,-0.5297898,-0.44504985
1734431936665,2024-12-17T10:38:56.665Z,28253,0.87494195,-0.5297898,-0.44504985
1734431936672,2024-12-17T10:38:56.672Z,28260,0.61536217,-0.50918674,-0.41489094
1734431936674,2024-12-17T10:38:56.674Z,28262,0.61536217,-0.50918674,-0.41489094
1734431936680,2024-12-17T10:38:56.680Z,28268,0.49483022,-0.378039,-0.33890268
1734431936682,2024-12-17T10:38:56.682Z,28270,0.49483022,-0.378039,-0.33890268
1734431936689,2024-12-17T10:38:56.689Z,28277,0.5753377,-0.4691791,-0.50533634
1734431936691,2024-12-17T10:38:56.691Z,28279,0.5753377,-0.4691791,-0.50533634
1734431936697,2024-12-17T10:38:56.697Z,28285,0.71461856,-0.38575542,-0.39385477
1734431936699,2024-12-17T10:38:56.699Z,28287,0.71461856,-0.38575542,-0.39385477
1734431936706,2024-12-17T10:38:56.706Z,28294,0.7165525,-0.50345474,-0.5519023
1734431936708,2024-12-17T10:38:56.708Z,28296,0.7165525,-0.50345474,-0.5519023
1734431936716,2024-12-17T10:38:56.716Z,28304,0.81917566,-0.47070277,-0.70917034
1734431936718,2024-12-17T10:38:56.718Z,28306,0.81917566,-0.47070277,-0.70917034
1734431936727,2024-12-17T10:38:56.727Z,28315,0.68786913,-0.45658547,-0.5373616
1734431936729,2024-12-17T10:38:56.729Z,28317,0.68786913,-0.45658547,-0.5373616
1734431936736,2024-12-17T10:38:56.736Z,28324,0.48237997,-0.51407313,-0.46245277
1734431936739,2024-12-17T10:38:56.739Z,28327,0.48237997,-0.51407313,-0.46245277
1734431936746,2024-12-17T10:38:56.746Z,28334,0.5246912,-0.44839433,-0.5081557
1734431936748,2024-12-17T10:38:56.748Z,28336,0.5246912,-0.44839433,-0.5081557
1734431936755,2024-12-17T10:38:56.755Z,28343,0.60147506,-0.47440583,-0.43723676
1734431936758,2024-12-17T10:38:56.758Z,28346,0.60147506,-0.47440583,-0.43723676
1734431936765,2024-12-17T10:38:56.765Z,28353,0.55388844,-0.50324297,-0.47229967
1734431936767,2024-12-17T10:38:56.767Z,28355,0.55388844,-0.50324297,-0.47229967
1734431936775,2024-12-17T10:38:56.775Z,28363,0.6559721,-0.43715146,-0.55012214
1734431936778,2024-12-17T10:38:56.778Z,28366,0.6559721,-0.43715146,-0.55012214
1734431936785,2024-12-17T10:38:56.785Z,28373,0.7483573,-0.50022554,-0.5335005
1734431936787,2024-12-17T10:38:56.787Z,28375,0.7483573,-0.50022554,-0.5335005
1734431936794,2024-12-17T10:38:56.794Z,28382,0.6649739,-0.47827122,-0.5498909
1734431936796,2024-12-17T10:38:56.796Z,28384,0.6649739,-0.47827122,-0.5498909
1734431936802,2024-12-17T10:38:56.802Z,28390,0.60805905,-0.4335452,-0.5223167
1734431936805,2024-12-17T10:38:56.805Z,28393,0.60805905,-0.4335452,-0.5223167
1734431936811,2024-12-17T10:38:56.811Z,28399,0.5849373,-0.45440507,-0.49588442
1734431936813,2024-12-17T10:38:56.813Z,28401,0.5849373,-0.45440507,-0.49588442
1734431936820,2024-12-17T10:38:56.820Z,28408,0.60770786,-0.4578132,-0.5684541
1734431936822,2024-12-17T10:38:56.822Z,28410,0.60770786,-0.4578132,-0.5684541
1734431936828,2024-12-17T10:38:56.828Z,28416,0.5774898,-0.45456257,-0.5926658
1734431936830,2024-12-17T10:38:56.830Z,28418,0.5774898,-0.45456257,-0.5926658
1734431936838,2024-12-17T10:38:56.838Z,28426,0.5584285,-0.45601198,-0.5371661
1734431936841,2024-12-17T10:38:56.841Z,28429,0.5584285,-0.45601198,-0.5371661
1734431936848,2024-12-17T10:38:56.848Z,28436,0.6587726,-0.46002418,-0.5279409
1734431936850,2024-12-17T10:38:56.850Z,28438,0.6587726,-0.46002418,-0.5279409
1734431936857,2024-12-17T10:38:56.857Z,28445,0.6439047,-0.5307242,-0.59029156
1734431936860,2024-12-17T10:38:56.860Z,28448,0.6439047,-0.5307242,-0.59029156
1734431936869,2024-12-17T10:38:56.869Z,28457,0.54421276,-0.4806695,-0.6029618
1734431936871,2024-12-17T10:38:56.871Z,28459,0.54421276,-0.4806695,-0.6029618
1734431936879,2024-12-17T10:38:56.879Z,28467,0.5909354,-0.4907522,-0.54282594
1734431936882,2024-12-17T10:38:56.882Z,28470,0.5909354,-0.4907522,-0.54282594
1734431936890,2024-12-17T10:38:56.890Z,28478,0.5840968,-0.5152141,-0.49956676
1734431936893,2024-12-17T10:38:56.893Z,28481,0.5840968,-0.5152141,-0.49956676
1734431936901,2024-12-17T10:38:56.901Z,28489,0.5276441,-0.4731425,-0.4870282
1734431936904,2024-12-17T10:38:56.904Z,28492,0.5276441,-0.4731425,-0.4870282
1734431936911,2024-12-17T10:38:56.911Z,28499,0.5348753,-0.47000355,-0.52717334
1734431936913,2024-12-17T10:38:56.913Z,28501,0.5348753,-0.47000355,-0.52717334
1734431936920,2024-12-17T10:38:56.920Z,28508,0.6011006,-0.47346222,-0.591523
1734431936922,2024-12-17T10:38:56.922Z,28510,0.6011006,-0.47346222,-0.591523
1734431936928,2024-12-17T10:38:56.928Z,28516,0.5688474,-0.4801562,-0.63684326
1734431936930,2024-12-17T10:38:56.930Z,28518,0.5688474,-0.4801562,-0.63684326
1734431936937,2024-12-17T10:38:56.937Z,28525,0.61185515,-0.45874324,-0.6228239
1734431936940,2024-12-17T10:38:56.940Z,28528,0.61185515,-0.45874324,-0.6228239
1734431936947,2024-12-17T10:38:56.947Z,28535,0.6373591,-0.5113012,-0.61641085
1734431936951,2024-12-17T10:38:56.951Z,28539,0.6373591,-0.5113012,-0.61641085
1734431936962,2024-12-17T10:38:56.962Z,28550,0.56885654,-0.5012432,-0.59512496
1734431936965,2024-12-17T10:38:56.965Z,28553,0.56885654,-0.5012432,-0.59512496
1734431936973,2024-12-17T10:38:56.973Z,28561,0.53346944,-0.49431315,-0.5769918
1734431936975,2024-12-17T10:38:56.975Z,28563,0.53346944,-0.49431315,-0.5769918
1734431936982,2024-12-17T10:38:56.982Z,28570,0.5255344,-0.50942475,-0.5314889
1734431936984,2024-12-17T10:38:56.984Z,28572,0.5255344,-0.50942475,-0.5314889
1734431936991,2024-12-17T10:38:56.991Z,28579,0.5186434,-0.48331887,-0.5344937
1734431936993,2024-12-17T10:38:56.993Z,28581,0.5186434,-0.48331887,-0.5344937
1734431936999,2024-12-17T10:38:56.999Z,28587,0.6086285,-0.49492434,-0.5677168
1734431937001,2024-12-17T10:38:57.001Z,28589,0.6086285,-0.49492434,-0.5677168
1734431937009,2024-12-17T10:38:57.009Z,28597,0.6570214,-0.4934561,-0.5873817
1734431937011,2024-12-17T10:38:57.011Z,28599,0.6570214,-0.4934561,-0.5873817
1734431937020,2024-12-17T10:38:57.020Z,28608,0.52742636,-0.4619756,-0.6664654
1734431937023,2024-12-17T10:38:57.023Z,28611,0.52742636,-0.4619756,-0.6664654
1734431937030,2024-12-17T10:38:57.030Z,28618,0.5016017,-0.48154485,-0.6682267
1734431937032,2024-12-17T10:38:57.032Z,28620,0.5016017,-0.48154485,-0.6682267
1734431937039,2024-12-17T10:38:57.039Z,28627,0.50422424,-0.48214462,-0.6111774
1734431937041,2024-12-17T10:38:57.041Z,28629,0.50422424,-0.48214462,-0.6111774
1734431937048,2024-12-17T10:38:57.048Z,28636,0.5144074,-0.49621725,-0.5828959
1734431937050,2024-12-17T10:38:57.050Z,28638,0.5144074,-0.49621725,-0.5828959
1734431937057,2024-12-17T10:38:57.057Z,28645,0.50139743,-0.4916119,-0.61815745
1734431937059,2024-12-17T10:38:57.059Z,28647,0.50139743,-0.4916119,-0.61815745
1734431937067,2024-12-17T10:38:57.067Z,28655,0.5055593,-0.4715201,-0.6685146
1734431937069,2024-12-17T10:38:57.069Z,28657,0.5055593,-0.4715201,-0.6685146
1734431937078,2024-12-17T10:38:57.078Z,28666,0.55972624,-0.4736879,-0.686514
1734431937080,2024-12-17T10:38:57.080Z,28668,0.55972624,-0.4736879,-0.686514
1734431937086,2024-12-17T10:38:57.086Z,28674,0.52147555,-0.4523443,-0.6769452
1734431937089,2024-12-17T10:38:57.089Z,28677,0.52147555,-0.4523443,-0.6769452
1734431937095,2024-12-17T10:38:57.095Z,28683,0.50041795,-0.452338,-0.6844211
1734431937097,2024-12-17T10:38:57.097Z,28685,0.50041795,-0.452338,-0.6844211
1734431937105,2024-12-17T10:38:57.105Z,28693,0.52831554,-0.45964924,-0.6910201
1734431937107,2024-12-17T10:38:57.107Z,28695,0.52831554,-0.45964924,-0.6910201
1734431937113,2024-12-17T10:38:57.113Z,28701,0.48739707,-0.45158726,-0.65905935
1734431937116,2024-12-17T10:38:57.116Z,28704,0.48739707,-0.45158726,-0.65905935
1734431937123,2024-12-17T10:38:57.123Z,28711,0.46150124,-0.4569536,-0.59127104
1734431937126,2024-12-17T10:38:57.126Z,28714,0.46150124,-0.4569536,-0.59127104
1734431937133,2024-12-17T10:38:57.133Z,28721,0.41066226,-0.45273265,-0.5824007
1734431937135,2024-12-17T10:38:57.135Z,28723,0.41066226,-0.45273265,-0.5824007
1734431937142,2024-12-17T10:38:57.142Z,28730,0.41994792,-0.42868164,-0.6299332
1734431937144,2024-12-17T10:38:57.144Z,28732,0.41994792,-0.42868164,-0.6299332
1734431937150,2024-12-17T10:38:57.150Z,28738,0.4438283,-0.4266278,-0.69226134
1734431937152,2024-12-17T10:38:57.152Z,28740,0.4438283,-0.4266278,-0.69226134
1734431937159,2024-12-17T10:38:57.159Z,28747,0.47474498,-0.42223376,-0.6977699
1734431937161,2024-12-17T10:38:57.161Z,28749,0.47474498,-0.42223376,-0.6977699
1734431937169,2024-12-17T10:38:57.169Z,28757,0.47140124,-0.4080215,-0.6865767
1734431937172,2024-12-17T10:38:57.172Z,28760,0.47140124,-0.4080215,-0.6865767
1734431937179,2024-12-17T10:38:57.179Z,28767,0.47945604,-0.42509836,-0.6844502
1734431937181,2024-12-17T10:38:57.181Z,28769,0.47945604,-0.42509836,-0.6844502
1734431937188,2024-12-17T10:38:57.188Z,28776,0.4300648,-0.4184645,-0.6945549
1734431937190,2024-12-17T10:38:57.190Z,28778,0.4300648,-0.4184645,-0.6945549
1734431937196,2024-12-17T10:38:57.196Z,28784,0.42766213,-0.41202354,-0.67883337
1734431937198,2024-12-17T10:38:57.198Z,28786,0.42766213,-0.41202354,-0.67883337
1734431937205,2024-12-17T10:38:57.205Z,28793,0.43225408,-0.4254763,-0.6560865
1734431937208,2024-12-17T10:38:57.208Z,28796,0.43225408,-0.4254763,-0.6560865
1734431937215,2024-12-17T10:38:57.215Z,28803,0.36468208,-0.40712604,-0.6694326
1734431937217,2024-12-17T10:38:57.217Z,28805,0.36468208,-0.40712604,-0.6694326
1734431937224,2024-12-17T10:38:57.224Z,28812,0.34055406,-0.40193,-0.6531111
1734431937226,2024-12-17T10:38:57.226Z,28814,0.34055406,-0.40193,-0.6531111
1734431937233,2024-12-17T10:38:57.233Z,28821,0.35630134,-0.40591934,-0.6940043
1734431937235,2024-12-17T10:38:57.235Z,28823,0.35630134,-0.40591934,-0.6940043
1734431937243,2024-12-17T10:38:57.243Z,28831,0.39385197,-0.41112843,-0.741618
1734431937246,2024-12-17T10:38:57.246Z,28834,0.39385197,-0.41112843,-0.741618
1734431937254,2024-12-17T10:38:57.254Z,28842,0.41617334,-0.42908132,-0.7395845
1734431937257,2024-12-17T10:38:57.257Z,28845,0.41617334,-0.42908132,-0.7395845
1734431937263,2024-12-17T10:38:57.263Z,28851,0.36255935,-0.4391118,-0.72056824
1734431937264,2024-12-17T10:38:57.264Z,28852,0.36255935,-0.4391118,-0.72056824
1734431937271,2024-12-17T10:38:57.271Z,28859,0.3413487,-0.43894225,-0.70777404
1734431937274,2024-12-17T10:38:57.274Z,28862,0.3413487,-0.43894225,-0.70777404
1734431937281,2024-12-17T10:38:57.281Z,28869,0.33552787,-0.44633377,-0.6790229
1734431937283,2024-12-17T10:38:57.283Z,28871,0.33552787,-0.44633377,-0.6790229
1734431937290,2024-12-17T10:38:57.290Z,28878,0.3130255,-0.45457667,-0.65340745
1734431937292,2024-12-17T10:38:57.292Z,28880,0.3130255,-0.45457667,-0.65340745
1734431937299,2024-12-17T10:38:57.299Z,28887,0.32813203,-0.4495964,-0.63621825
1734431937301,2024-12-17T10:38:57.301Z,28889,0.32813203,-0.4495964,-0.63621825
1734431937309,2024-12-17T10:38:57.309Z,28897,0.3149509,-0.46159035,-0.674713
1734431937312,2024-12-17T10:38:57.312Z,28900,0.3149509,-0.46159035,-0.674713
1734431937319,2024-12-17T10:38:57.319Z,28907,0.33220258,-0.46789104,-0.6898152
1734431937322,2024-12-17T10:38:57.322Z,28910,0.33220258,-0.46789104,-0.6898152
1734431937330,2024-12-17T10:38:57.330Z,28918,0.32762966,-0.46247426,-0.6789018
1734431937332,2024-12-17T10:38:57.332Z,28920,0.32762966,-0.46247426,-0.6789018
1734431937340,2024-12-17T10:38:57.340Z,28928,0.31458566,-0.44772395,-0.6662002
1734431937342,2024-12-17T10:38:57.342Z,28930,0.31458566,-0.44772395,-0.6662002
1734431937348,2024-12-17T10:38:57.348Z,28936,0.30779603,-0.4163644,-0.6564307
1734431937350,2024-12-17T10:38:57.350Z,28938,0.30779603,-0.4163644,-0.6564307
1734431937357,2024-12-17T10:38:57.357Z,28945,0.33001643,-0.40363944,-0.66730535
1734431937359,2024-12-17T10:38:57.359Z,28947,0.33001643,-0.40363944,-0.66730535
1734431937366,2024-12-17T10:38:57.366Z,28954,0.33282116,-0.39500204,-0.67869955
1734431937369,2024-12-17T10:38:57.369Z,28957,0.33282116,-0.39500204,-0.67869955
1734431937376,2024-12-17T10:38:57.376Z,28964,0.33527303,-0.38461933,-0.6711056
1734431937378,2024-12-17T10:38:57.378Z,28966,0.33527303,-0.38461933,-0.6711056
1734431937386,2024-12-17T10:38:57.386Z,28974,0.3353006,-0.38273686,-0.649486
1734431937389,2024-12-17T10:38:57.389Z,28977,0.3353006,-0.38273686,-0.649486
1734431937397,2024-12-17T10:38:57.397Z,28985,0.32356843,-0.37735546,-0.63902926
1734431937401,2024-12-17T10:38:57.401Z,28989,0.32356843,-0.37735546,-0.63902926
1734431937413,2024-12-17T10:38:57.413Z,29001,0.32789582,-0.36792088,-0.6504122
1734431937416,2024-12-17T10:38:57.416Z,29004,0.32789582,-0.36792088,-0.6504122
1734431937424,2024-12-17T10:38:57.424Z,29012,0.33476114,-0.3579181,-0.6347748
1734431937427,2024-12-17T10:38:57.427Z,29015,0.33476114,-0.3579181,-0.6347748
1734431937433,2024-12-17T10:38:57.433Z,29021,0.3188661,-0.3473045,-0.62081015
1734431937435,2024-12-17T10:38:57.435Z,29023,0.3188661,-0.3473045,-0.62081015
1734431937442,2024-12-17T10:38:57.442Z,29030,0.30742785,-0.3464343,-0.6482765
1734431937444,2024-12-17T10:38:57.444Z,29032,0.30742785,-0.3464343,-0.6482765
1734431937452,2024-12-17T10:38:57.452Z,29040,0.3411291,-0.3372943,-0.66389894
1734431937454,2024-12-17T10:38:57.454Z,29042,0.3411291,-0.3372943,-0.66389894
1734431937460,2024-12-17T10:38:57.460Z,29048,0.3484257,-0.34185213,-0.652362
1734431937462,2024-12-17T10:38:57.462Z,29050,0.3484257,-0.34185213,-0.652362
1734431937469,2024-12-17T10:38:57.469Z,29057,0.35501403,-0.34548894,-0.646546
1734431937471,2024-12-17T10:38:57.471Z,29059,0.35501403,-0.34548894,-0.646546
1734431937477,2024-12-17T10:38:57.477Z,29065,0.34966487,-0.34476435,-0.63763183
1734431937479,2024-12-17T10:38:57.479Z,29067,0.34966487,-0.34476435,-0.63763183
1734431937486,2024-12-17T10:38:57.486Z,29074,0.30730388,-0.32732093,-0.6443174
1734431937488,2024-12-17T10:38:57.488Z,29076,0.30730388,-0.32732093,-0.6443174
1734431937496,2024-12-17T10:38:57.496Z,29084,0.29385993,-0.3099485,-0.6484779
1734431937498,2024-12-17T10:38:57.498Z,29086,0.29385993,-0.3099485,-0.6484779
1734431937507,2024-12-17T10:38:57.507Z,29095,0.32008335,-0.32268664,-0.65773517
1734431937509,2024-12-17T10:38:57.509Z,29097,0.32008335,-0.32268664,-0.65773517
1734431937515,2024-12-17T10:38:57.515Z,29103,0.31501478,-0.34508818,-0.6572166
1734431937517,2024-12-17T10:38:57.517Z,29105,0.31501478,-0.34508818,-0.6572166
1734431937525,2024-12-17T10:38:57.525Z,29113,0.28035858,-0.3454175,-0.6690827
1734431937527,2024-12-17T10:38:57.527Z,29115,0.28035858,-0.3454175,-0.6690827
1734431937534,2024-12-17T10:38:57.534Z,29122,0.32379234,-0.367303,-0.6596488
