Timestamp (ms),ISO DateTime,Elapsed Time (ms),Acceleration X,Acceleration Y,Acceleration Z
1732439907877,2024-11-24T09:18:27.877Z,43975,-0.024571119,-0.0028622919,-0.17144737
1732439907884,2024-11-24T09:18:27.884Z,43982,-0.024571119,-0.0028622919,-0.17144737
1732439907906,2024-11-24T09:18:27.906Z,44004,-0.018856186,-0.0015556717,-0.17251746
1732439907912,2024-11-24T09:18:27.912Z,44010,-0.018856186,-0.0015556717,-0.17251746
1732439907930,2024-11-24T09:18:27.930Z,44028,0.013294297,3.6973582E-4,-0.16777651
1732439907934,2024-11-24T09:18:27.934Z,44032,0.013294297,3.6973582E-4,-0.16777651
1732439907949,2024-11-24T09:18:27.949Z,44047,0.024509804,-0.0053797434,-0.1655005
1732439907954,2024-11-24T09:18:27.954Z,44052,0.024509804,-0.0053797434,-0.1655005
1732439907968,2024-11-24T09:18:27.968Z,44066,0.012094917,-0.00576076,-0.14251548
1732439907972,2024-11-24T09:18:27.972Z,44070,0.012094917,-0.00576076,-0.14251548
1732439907985,2024-11-24T09:18:27.985Z,44083,-0.0071448623,-0.004264993,-0.13104223
1732439907991,2024-11-24T09:18:27.991Z,44089,-0.0071448623,-0.004264993,-0.13104223
1732439908003,2024-11-24T09:18:28.003Z,44101,-5.180872E-5,-0.00817581,-0.13340452
1732439908007,2024-11-24T09:18:28.007Z,44105,-5.180872E-5,-0.00817581,-0.13340452
1732439908019,2024-11-24T09:18:28.019Z,44117,0.002622455,-0.0013684698,-0.13146114
1732439908023,2024-11-24T09:18:28.023Z,44121,0.002622455,-0.0013684698,-0.13146114
1732439908038,2024-11-24T09:18:28.038Z,44136,-0.019720135,0.002307202,-0.12780586
1732439908043,2024-11-24T09:18:28.043Z,44141,-0.019720135,0.002307202,-0.12780586
1732439908056,2024-11-24T09:18:28.056Z,44154,-0.0065069175,5.881542E-4,-0.13028163
1732439908059,2024-11-24T09:18:28.059Z,44157,-0.0065069175,5.881542E-4,-0.13028163
1732439908073,2024-11-24T09:18:28.073Z,44171,0.0016615258,3.487303E-4,-0.124185964
1732439908078,2024-11-24T09:18:28.078Z,44176,0.0016615258,3.487303E-4,-0.124185964
1732439908092,2024-11-24T09:18:28.092Z,44190,0.024623947,-0.007117463,-0.12604907
1732439908096,2024-11-24T09:18:28.096Z,44194,0.024623947,-0.007117463,-0.12604907
1732439908107,2024-11-24T09:18:28.107Z,44205,0.01570677,-0.0057652337,-0.12360697
1732439908110,2024-11-24T09:18:28.110Z,44208,0.01570677,-0.0057652337,-0.12360697
1732439908121,2024-11-24T09:18:28.121Z,44219,-0.013920257,0.0013041891,-0.119359344
1732439908126,2024-11-24T09:18:28.126Z,44224,-0.013920257,0.0013041891,-0.119359344
1732439908141,2024-11-24T09:18:28.141Z,44239,0.004235284,-0.008741791,-0.106619805
1732439908144,2024-11-24T09:18:28.144Z,44242,0.004235284,-0.008741791,-0.106619805
1732439908156,2024-11-24T09:18:28.156Z,44254,-0.008701726,-0.0067332373,-0.08520476
1732439908160,2024-11-24T09:18:28.160Z,44258,-0.008701726,-0.0067332373,-0.08520476
1732439908172,2024-11-24T09:18:28.172Z,44270,-0.008151814,-0.021251542,-0.07549569
1732439908176,2024-11-24T09:18:28.176Z,44274,-0.008151814,-0.021251542,-0.07549569
1732439908189,2024-11-24T09:18:28.189Z,44287,0.005597749,-0.031475972,-0.10479042
1732439908193,2024-11-24T09:18:28.193Z,44291,0.005597749,-0.031475972,-0.10479042
1732439908207,2024-11-24T09:18:28.207Z,44305,-0.05433298,-0.048692707,-0.088507384
1732439908211,2024-11-24T09:18:28.211Z,44309,-0.05433298,-0.048692707,-0.088507384
1732439908224,2024-11-24T09:18:28.224Z,44322,-0.08753206,-0.06750421,-0.077524535
1732439908228,2024-11-24T09:18:28.228Z,44326,-0.08753206,-0.06750421,-0.077524535
1732439908240,2024-11-24T09:18:28.240Z,44338,-0.0516796,-0.0913757,-0.05039159
1732439908243,2024-11-24T09:18:28.243Z,44341,-0.0516796,-0.0913757,-0.05039159
1732439908254,2024-11-24T09:18:28.254Z,44352,-0.08190122,-0.10662901,-0.013704986
1732439908257,2024-11-24T09:18:28.257Z,44355,-0.08190122,-0.10662901,-0.013704986
1732439908270,2024-11-24T09:18:28.270Z,44368,-0.13034593,-0.11418331,0.011852588
1732439908274,2024-11-24T09:18:28.274Z,44372,-0.13034593,-0.11418331,0.011852588
1732439908288,2024-11-24T09:18:28.288Z,44386,-0.10672492,-0.14605829,-0.009736137
1732439908291,2024-11-24T09:18:28.291Z,44389,-0.10672492,-0.14605829,-0.009736137
1732439908303,2024-11-24T09:18:28.303Z,44401,-0.10149396,-0.16032822,-0.011193224
1732439908306,2024-11-24T09:18:28.306Z,44404,-0.10149396,-0.16032822,-0.011193224
1732439908322,2024-11-24T09:18:28.322Z,44420,-0.098234,-0.16577817,-0.028063137
1732439908326,2024-11-24T09:18:28.326Z,44424,-0.098234,-0.16577817,-0.028063137
1732439908341,2024-11-24T09:18:28.341Z,44439,-0.03214786,-0.17345074,-0.056919098
1732439908346,2024-11-24T09:18:28.346Z,44444,-0.03214786,-0.17345074,-0.056919098
1732439908364,2024-11-24T09:18:28.364Z,44462,-0.03912091,-0.14837308,-0.044755585
1732439908368,2024-11-24T09:18:28.368Z,44466,-0.03912091,-0.14837308,-0.044755585
1732439908380,2024-11-24T09:18:28.380Z,44478,-0.046123132,-0.13939331,-0.021853799
1732439908383,2024-11-24T09:18:28.383Z,44481,-0.046123132,-0.13939331,-0.021853799
1732439908394,2024-11-24T09:18:28.394Z,44492,-0.07591696,-0.12707631,-0.046527676
1732439908397,2024-11-24T09:18:28.397Z,44495,-0.07591696,-0.12707631,-0.046527676
1732439908406,2024-11-24T09:18:28.406Z,44504,-0.096292354,-0.13549611,-0.042626146
1732439908409,2024-11-24T09:18:28.409Z,44507,-0.096292354,-0.13549611,-0.042626146
1732439908420,2024-11-24T09:18:28.420Z,44518,-0.025895657,-0.11807283,-0.09617885
1732439908424,2024-11-24T09:18:28.424Z,44522,-0.025895657,-0.11807283,-0.09617885
1732439908438,2024-11-24T09:18:28.438Z,44536,0.0032804084,-0.13470101,0.0024281174
1732439908442,2024-11-24T09:18:28.442Z,44540,0.0032804084,-0.13470101,0.0024281174
1732439908458,2024-11-24T09:18:28.458Z,44556,-0.0020734186,-0.14456204,-0.0053043645
1732439908467,2024-11-24T09:18:28.467Z,44565,-0.0020734186,-0.14456204,-0.0053043645
1732439908480,2024-11-24T09:18:28.480Z,44578,0.006243595,-0.13304752,-0.03940553
1732439908483,2024-11-24T09:18:28.483Z,44581,0.006243595,-0.13304752,-0.03940553
1732439908497,2024-11-24T09:18:28.497Z,44595,0.031259015,-0.14564478,-0.124806285
1732439908501,2024-11-24T09:18:28.501Z,44599,0.031259015,-0.14564478,-0.124806285
1732439908513,2024-11-24T09:18:28.513Z,44611,0.04997385,-0.15115076,-0.0297457
1732439908517,2024-11-24T09:18:28.517Z,44615,0.04997385,-0.15115076,-0.0297457
1732439908531,2024-11-24T09:18:28.531Z,44629,0.03630938,-0.13856234,-0.027401142
1732439908535,2024-11-24T09:18:28.535Z,44633,0.03630938,-0.13856234,-0.027401142
1732439908548,2024-11-24T09:18:28.548Z,44646,0.055309054,-0.1253453,-0.1469182
1732439908552,2024-11-24T09:18:28.552Z,44650,0.055309054,-0.1253453,-0.1469182
1732439908563,2024-11-24T09:18:28.563Z,44661,0.060133126,-0.123202935,-0.15333939
1732439908567,2024-11-24T09:18:28.567Z,44665,0.060133126,-0.123202935,-0.15333939
1732439908583,2024-11-24T09:18:28.583Z,44681,0.07778665,-0.1419096,-0.13127857
1732439908586,2024-11-24T09:18:28.586Z,44684,0.07778665,-0.1419096,-0.13127857
1732439908635,2024-11-24T09:18:28.635Z,44733,0.10545309,-0.12216783,-0.08358735
1732439908639,2024-11-24T09:18:28.639Z,44737,0.10545309,-0.12216783,-0.08358735
1732439908650,2024-11-24T09:18:28.650Z,44748,0.09414522,-0.122901514,-0.0621612
1732439908654,2024-11-24T09:18:28.654Z,44752,0.09414522,-0.122901514,-0.0621612
1732439908666,2024-11-24T09:18:28.666Z,44764,0.029434063,-0.10605695,-0.09963884
1732439908669,2024-11-24T09:18:28.669Z,44767,0.029434063,-0.10605695,-0.09963884
1732439908683,2024-11-24T09:18:28.683Z,44781,0.20103996,-0.13082905,-0.22701359
1732439908688,2024-11-24T09:18:28.688Z,44786,0.20103996,-0.13082905,-0.22701359
1732439908701,2024-11-24T09:18:28.701Z,44799,0.15184778,-0.11813818,-0.09148833
1732439908705,2024-11-24T09:18:28.705Z,44803,0.15184778,-0.11813818,-0.09148833
1732439908717,2024-11-24T09:18:28.717Z,44815,0.09681754,-0.11307643,-0.10142922
1732439908721,2024-11-24T09:18:28.721Z,44819,0.09681754,-0.11307643,-0.10142922
1732439908731,2024-11-24T09:18:28.731Z,44829,0.08446124,-0.12164999,-0.065740496
1732439908735,2024-11-24T09:18:28.735Z,44833,0.08446124,-0.12164999,-0.065740496
1732439908745,2024-11-24T09:18:28.745Z,44843,0.13931698,-0.0918936,-0.07072711
1732439908748,2024-11-24T09:18:28.748Z,44846,0.13931698,-0.0918936,-0.07072711
1732439908759,2024-11-24T09:18:28.759Z,44857,0.14734137,-0.100937344,-0.09630293
1732439908763,2024-11-24T09:18:28.763Z,44861,0.14734137,-0.100937344,-0.09630293
1732439908777,2024-11-24T09:18:28.777Z,44875,0.11945836,-0.08111227,-0.11622249
1732439908781,2024-11-24T09:18:28.781Z,44879,0.11945836,-0.08111227,-0.11622249
1732439908791,2024-11-24T09:18:28.791Z,44889,0.19487557,-0.118312836,0.004110989
1732439908795,2024-11-24T09:18:28.795Z,44893,0.19487557,-0.118312836,0.004110989
1732439908805,2024-11-24T09:18:28.805Z,44903,0.095932245,-0.08019572,0.038697723
1732439908808,2024-11-24T09:18:28.808Z,44906,0.095932245,-0.08019572,0.038697723
1732439908820,2024-11-24T09:18:28.820Z,44918,0.06945952,-0.057174265,0.028986128
1732439908824,2024-11-24T09:18:28.824Z,44922,0.06945952,-0.057174265,0.028986128
1732439908837,2024-11-24T09:18:28.837Z,44935,0.1659593,-0.08232666,-0.09575355
1732439908841,2024-11-24T09:18:28.841Z,44939,0.1659593,-0.08232666,-0.09575355
1732439908853,2024-11-24T09:18:28.853Z,44951,0.25466847,-0.10807027,-0.11836571
1732439908857,2024-11-24T09:18:28.857Z,44955,0.25466847,-0.10807027,-0.11836571
1732439908869,2024-11-24T09:18:28.869Z,44967,0.22201172,-0.115281284,-0.06932648
1732439908873,2024-11-24T09:18:28.873Z,44971,0.22201172,-0.115281284,-0.06932648
1732439908905,2024-11-24T09:18:28.905Z,45003,0.059176743,-0.068789676,0.018083066
1732439908908,2024-11-24T09:18:28.908Z,45006,0.059176743,-0.068789676,0.018083066
1732439908920,2024-11-24T09:18:28.920Z,45018,0.14412208,-0.062883385,-0.038673494
1732439908923,2024-11-24T09:18:28.923Z,45021,0.14412208,-0.062883385,-0.038673494
1732439908937,2024-11-24T09:18:28.937Z,45035,0.14305119,-0.087999016,-0.08819988
1732439908942,2024-11-24T09:18:28.942Z,45040,0.14305119,-0.087999016,-0.08819988
1732439908957,2024-11-24T09:18:28.957Z,45055,0.12729546,-0.09580227,-0.09637346
1732439908960,2024-11-24T09:18:28.960Z,45058,0.12729546,-0.09580227,-0.09637346
1732439908974,2024-11-24T09:18:28.974Z,45072,0.082312316,-0.07616723,-0.08241734
1732439908979,2024-11-24T09:18:28.979Z,45077,0.082312316,-0.07616723,-0.08241734
1732439908993,2024-11-24T09:18:28.993Z,45091,0.11626659,-0.074485235,-0.11354631
1732439908997,2024-11-24T09:18:28.997Z,45095,0.11626659,-0.074485235,-0.11354631
1732439909009,2024-11-24T09:18:29.009Z,45107,0.26616815,-0.03101463,-0.0739511
1732439909013,2024-11-24T09:18:29.013Z,45111,0.26616815,-0.03101463,-0.0739511
1732439909026,2024-11-24T09:18:29.026Z,45124,0.0769263,-0.018756265,-0.057492826
1732439909031,2024-11-24T09:18:29.031Z,45129,0.0769263,-0.018756265,-0.057492826
1732439909047,2024-11-24T09:18:29.047Z,45145,0.2532995,-0.034435026,-0.1519203
1732439909052,2024-11-24T09:18:29.052Z,45150,0.2532995,-0.034435026,-0.1519203
1732439909063,2024-11-24T09:18:29.063Z,45161,0.25881112,-0.049278773,-0.18439426
1732439909067,2024-11-24T09:18:29.067Z,45165,0.25881112,-0.049278773,-0.18439426
1732439909077,2024-11-24T09:18:29.077Z,45175,0.19386594,-0.029654864,-0.12988202
1732439909080,2024-11-24T09:18:29.080Z,45178,0.19386594,-0.029654864,-0.12988202
1732439909092,2024-11-24T09:18:29.092Z,45190,0.22659895,-0.002349213,-0.10163971
1732439909096,2024-11-24T09:18:29.096Z,45194,0.22659895,-0.002349213,-0.10163971
1732439909108,2024-11-24T09:18:29.108Z,45206,0.19477889,0.022216726,-0.05269985
1732439909117,2024-11-24T09:18:29.117Z,45215,0.19477889,0.022216726,-0.05269985
1732439909135,2024-11-24T09:18:29.135Z,45233,0.10080654,0.02079939,-0.106654435
1732439909139,2024-11-24T09:18:29.139Z,45237,0.10080654,0.02079939,-0.106654435
1732439909150,2024-11-24T09:18:29.150Z,45248,0.25491223,0.0034828782,-0.19279046
1732439909153,2024-11-24T09:18:29.153Z,45251,0.25491223,0.0034828782,-0.19279046
1732439909164,2024-11-24T09:18:29.164Z,45262,0.122023076,0.04084905,-0.25060013
1732439909167,2024-11-24T09:18:29.167Z,45265,0.122023076,0.04084905,-0.25060013
1732439909178,2024-11-24T09:18:29.178Z,45276,0.18450828,0.017958103,-0.17823595
1732439909182,2024-11-24T09:18:29.182Z,45280,0.18450828,0.017958103,-0.17823595
1732439909193,2024-11-24T09:18:29.193Z,45291,0.021773083,0.040003624,-0.15788531
1732439909197,2024-11-24T09:18:29.197Z,45295,0.021773083,0.040003624,-0.15788531
1732439909209,2024-11-24T09:18:29.209Z,45307,0.1422554,0.07775266,-0.14712182
1732439909212,2024-11-24T09:18:29.212Z,45310,0.1422554,0.07775266,-0.14712182
1732439909224,2024-11-24T09:18:29.224Z,45322,0.14290982,0.03671203,-0.1577125
1732439909227,2024-11-24T09:18:29.227Z,45325,0.14290982,0.03671203,-0.1577125
1732439909237,2024-11-24T09:18:29.237Z,45335,0.183117,0.060890343,-0.027683167
1732439909241,2024-11-24T09:18:29.241Z,45339,0.183117,0.060890343,-0.027683167
1732439909253,2024-11-24T09:18:29.253Z,45351,0.0041751848,0.12218485,-0.049053375
1732439909257,2024-11-24T09:18:29.257Z,45355,0.0041751848,0.12218485,-0.049053375
1732439909267,2024-11-24T09:18:29.267Z,45365,0.17275283,0.09428676,-0.0987729
1732439909270,2024-11-24T09:18:29.270Z,45368,0.17275283,0.09428676,-0.0987729
1732439909280,2024-11-24T09:18:29.280Z,45378,0.046546306,0.10956642,-0.12493073
1732439909283,2024-11-24T09:18:29.283Z,45381,0.046546306,0.10956642,-0.12493073
1732439909293,2024-11-24T09:18:29.293Z,45391,0.11316967,0.14173883,-0.058715872
1732439909296,2024-11-24T09:18:29.296Z,45394,0.11316967,0.14173883,-0.058715872
1732439909316,2024-11-24T09:18:29.316Z,45414,0.15622799,0.13110222,-0.06834409
1732439909322,2024-11-24T09:18:29.322Z,45420,0.15622799,0.13110222,-0.06834409
1732439909344,2024-11-24T09:18:29.344Z,45442,0.101481974,0.15706877,0.026804473
1732439909354,2024-11-24T09:18:29.354Z,45452,0.101481974,0.15706877,0.026804473
1732439909376,2024-11-24T09:18:29.376Z,45474,0.005530648,0.20195414,-0.020824881
1732439909383,2024-11-24T09:18:29.383Z,45481,0.005530648,0.20195414,-0.020824881
1732439909405,2024-11-24T09:18:29.405Z,45503,0.021872422,0.18937805,-0.12502155
1732439909410,2024-11-24T09:18:29.410Z,45508,0.021872422,0.18937805,-0.12502155
1732439909423,2024-11-24T09:18:29.423Z,45521,0.19874623,0.1779955,-0.06546261
1732439909427,2024-11-24T09:18:29.427Z,45525,0.19874623,0.1779955,-0.06546261
1732439909439,2024-11-24T09:18:29.439Z,45537,0.118714154,0.22686705,0.073606476
1732439909443,2024-11-24T09:18:29.443Z,45541,0.118714154,0.22686705,0.073606476
1732439909454,2024-11-24T09:18:29.454Z,45552,-0.016397424,0.24821629,0.043485854
1732439909457,2024-11-24T09:18:29.457Z,45555,-0.016397424,0.24821629,0.043485854
1732439909468,2024-11-24T09:18:29.468Z,45566,0.009017051,0.22936505,-0.08407658
1732439909471,2024-11-24T09:18:29.471Z,45569,0.009017051,0.22936505,-0.08407658
1732439909481,2024-11-24T09:18:29.481Z,45579,0.13627471,0.24966902,0.052202713
1732439909485,2024-11-24T09:18:29.485Z,45583,0.13627471,0.24966902,0.052202713
1732439909494,2024-11-24T09:18:29.494Z,45592,-0.021138614,0.24911655,-0.09666388
1732439909498,2024-11-24T09:18:29.498Z,45596,-0.021138614,0.24911655,-0.09666388
1732439909507,2024-11-24T09:18:29.507Z,45605,0.086666726,0.18320891,-0.03808996
1732439909510,2024-11-24T09:18:29.510Z,45608,0.086666726,0.18320891,-0.03808996
1732439909521,2024-11-24T09:18:29.521Z,45619,0.081123434,0.22458552,-0.088880606
1732439909527,2024-11-24T09:18:29.527Z,45625,0.081123434,0.22458552,-0.088880606
1732439909545,2024-11-24T09:18:29.545Z,45643,-0.0019072708,0.1538702,-0.055170104
1732439909549,2024-11-24T09:18:29.549Z,45647,-0.0019072708,0.1538702,-0.055170104
1732439909560,2024-11-24T09:18:29.560Z,45658,-0.03898345,0.1384042,-0.0264917
1732439909563,2024-11-24T09:18:29.563Z,45661,-0.03898345,0.1384042,-0.0264917
1732439909573,2024-11-24T09:18:29.573Z,45671,-0.01101644,0.11943517,-0.14482833
1732439909577,2024-11-24T09:18:29.577Z,45675,-0.01101644,0.11943517,-0.14482833
1732439909592,2024-11-24T09:18:29.592Z,45690,-0.037507277,0.06505853,-0.19385396
1732439909595,2024-11-24T09:18:29.595Z,45693,-0.037507277,0.06505853,-0.19385396
1732439909606,2024-11-24T09:18:29.606Z,45704,0.0101172635,0.045387454,0.004858174
1732439909612,2024-11-24T09:18:29.612Z,45710,0.0101172635,0.045387454,0.004858174
1732439909622,2024-11-24T09:18:29.622Z,45720,0.0112557905,0.052857537,0.018169776
1732439909625,2024-11-24T09:18:29.625Z,45723,0.0112557905,0.052857537,0.018169776
1732439909634,2024-11-24T09:18:29.634Z,45732,-0.043522995,0.05769007,-0.09716637
1732439909638,2024-11-24T09:18:29.638Z,45736,-0.043522995,0.05769007,-0.09716637
1732439909647,2024-11-24T09:18:29.647Z,45745,0.11743446,-0.034499016,-0.12685873
1732439909650,2024-11-24T09:18:29.650Z,45748,0.11743446,-0.034499016,-0.12685873
1732439909659,2024-11-24T09:18:29.659Z,45757,0.050222293,-0.0073466757,-0.15222421
1732439909662,2024-11-24T09:18:29.662Z,45760,0.050222293,-0.0073466757,-0.15222421
1732439909672,2024-11-24T09:18:29.672Z,45770,0.1398567,-0.049915113,-0.030044286
1732439909675,2024-11-24T09:18:29.675Z,45773,0.1398567,-0.049915113,-0.030044286
1732439909684,2024-11-24T09:18:29.684Z,45782,0.010377036,-0.034520216,-0.0071983486
1732439909687,2024-11-24T09:18:29.687Z,45785,0.010377036,-0.034520216,-0.0071983486
1732439909700,2024-11-24T09:18:29.700Z,45798,0.045896787,-0.06450489,0.0035978372
1732439909704,2024-11-24T09:18:29.704Z,45802,0.045896787,-0.06450489,0.0035978372
1732439909716,2024-11-24T09:18:29.716Z,45814,0.05670833,-0.061820276,-0.06254411
1732439909720,2024-11-24T09:18:29.720Z,45818,0.05670833,-0.061820276,-0.06254411
1732439909735,2024-11-24T09:18:29.735Z,45833,0.10931365,-0.05311388,-0.06512019
1732439909744,2024-11-24T09:18:29.744Z,45842,0.10931365,-0.05311388,-0.06512019
1732439909763,2024-11-24T09:18:29.763Z,45861,0.1908576,-0.033855624,0.04241707
1732439909768,2024-11-24T09:18:29.768Z,45866,0.1908576,-0.033855624,0.04241707
1732439909777,2024-11-24T09:18:29.777Z,45875,0.095889166,0.023505356,0.027139302
1732439909780,2024-11-24T09:18:29.780Z,45878,0.095889166,0.023505356,0.027139302
1732439909790,2024-11-24T09:18:29.790Z,45888,0.10495005,-0.012001146,0.06663427
1732439909794,2024-11-24T09:18:29.794Z,45892,0.10495005,-0.012001146,0.06663427
1732439909804,2024-11-24T09:18:29.804Z,45902,0.063964054,-5.0481287E-4,0.026739653
1732439909807,2024-11-24T09:18:29.807Z,45905,0.063964054,-5.0481287E-4,0.026739653
1732439909816,2024-11-24T09:18:29.816Z,45914,0.042880066,-0.010613032,-0.043551173
1732439909820,2024-11-24T09:18:29.820Z,45918,0.042880066,-0.010613032,-0.043551173
1732439909830,2024-11-24T09:18:29.830Z,45928,0.16409107,-0.011817737,0.07108605
1732439909833,2024-11-24T09:18:29.833Z,45931,0.16409107,-0.011817737,0.07108605
1732439909845,2024-11-24T09:18:29.845Z,45943,0.1518562,-0.0069147986,0.099106364
1732439909848,2024-11-24T09:18:29.848Z,45946,0.1518562,-0.0069147986,0.099106364
1732439909858,2024-11-24T09:18:29.858Z,45956,0.12526497,-0.015110544,0.062434316
1732439909862,2024-11-24T09:18:29.862Z,45960,0.12526497,-0.015110544,0.062434316
1732439909872,2024-11-24T09:18:29.872Z,45970,0.0123470565,-0.014529975,-0.051471118
1732439909876,2024-11-24T09:18:29.876Z,45974,0.0123470565,-0.014529975,-0.051471118
1732439909886,2024-11-24T09:18:29.886Z,45984,0.032384995,-0.007903225,-0.0558686
1732439909888,2024-11-24T09:18:29.888Z,45986,0.032384995,-0.007903225,-0.0558686
1732439909901,2024-11-24T09:18:29.901Z,45999,0.08603666,-0.027837353,-0.06958889
1732439909904,2024-11-24T09:18:29.904Z,46002,0.08603666,-0.027837353,-0.06958889
1732439909915,2024-11-24T09:18:29.915Z,46013,0.016404254,0.032187536,0.038183805
1732439909918,2024-11-24T09:18:29.918Z,46016,0.016404254,0.032187536,0.038183805
1732439909928,2024-11-24T09:18:29.928Z,46026,0.2999474,-0.095480725,0.036776513
1732439909932,2024-11-24T09:18:29.932Z,46030,0.2999474,-0.095480725,0.036776513
1732439909943,2024-11-24T09:18:29.943Z,46041,-0.13754107,0.10400944,-0.0856967
1732439909946,2024-11-24T09:18:29.946Z,46044,-0.13754107,0.10400944,-0.0856967
1732439909955,2024-11-24T09:18:29.955Z,46053,0.034278408,0.014964187,-0.070339344
1732439909958,2024-11-24T09:18:29.958Z,46056,0.034278408,0.014964187,-0.070339344
1732439909969,2024-11-24T09:18:29.969Z,46067,0.0923413,-0.03955648,-0.0766761
1732439909973,2024-11-24T09:18:29.973Z,46071,0.0923413,-0.03955648,-0.0766761
1732439909986,2024-11-24T09:18:29.986Z,46084,0.15521285,-0.038361985,-0.059814006
1732439909989,2024-11-24T09:18:29.989Z,46087,0.15521285,-0.038361985,-0.059814006
1732439909999,2024-11-24T09:18:29.999Z,46097,0.011652026,-0.0037029013,-0.05761689
1732439910002,2024-11-24T09:18:30.002Z,46100,0.011652026,-0.0037029013,-0.05761689
1732439910012,2024-11-24T09:18:30.012Z,46110,0.012940413,0.025584998,-0.063340925
1732439910015,2024-11-24T09:18:30.015Z,46113,0.012940413,0.025584998,-0.063340925
1732439910025,2024-11-24T09:18:30.025Z,46123,-0.023043212,0.037137736,-0.08972003
1732439910028,2024-11-24T09:18:30.028Z,46126,-0.023043212,0.037137736,-0.08972003
1732439910039,2024-11-24T09:18:30.039Z,46137,0.07303034,0.010955928,-0.1408236
1732439910042,2024-11-24T09:18:30.042Z,46140,0.07303034,0.010955928,-0.1408236
1732439910052,2024-11-24T09:18:30.052Z,46150,0.08515965,-0.019799441,-0.062358882
1732439910055,2024-11-24T09:18:30.055Z,46153,0.08515965,-0.019799441,-0.062358882
1732439910066,2024-11-24T09:18:30.066Z,46164,0.06461639,-0.006102683,-0.018375102
1732439910070,2024-11-24T09:18:30.070Z,46168,0.06461639,-0.006102683,-0.018375102
1732439910081,2024-11-24T09:18:30.081Z,46179,0.047151066,0.034529552,0.020702986
1732439910086,2024-11-24T09:18:30.086Z,46184,0.047151066,0.034529552,0.020702986
1732439910096,2024-11-24T09:18:30.096Z,46194,0.02615555,0.08377025,-0.03228425
1732439910098,2024-11-24T09:18:30.098Z,46196,0.02615555,0.08377025,-0.03228425
1732439910110,2024-11-24T09:18:30.110Z,46208,0.04312326,0.08155164,-0.19373465
1732439910113,2024-11-24T09:18:30.113Z,46211,0.04312326,0.08155164,-0.19373465
1732439910128,2024-11-24T09:18:30.128Z,46226,0.06486673,0.08192361,-0.065044634
1732439910131,2024-11-24T09:18:30.131Z,46229,0.06486673,0.08192361,-0.065044634
1732439910142,2024-11-24T09:18:30.142Z,46240,0.09170967,0.05254187,0.0030506852
1732439910145,2024-11-24T09:18:30.145Z,46243,0.09170967,0.05254187,0.0030506852
1732439910157,2024-11-24T09:18:30.157Z,46255,0.0250267,0.103613645,0.031306326
1732439910160,2024-11-24T09:18:30.160Z,46258,0.0250267,0.103613645,0.031306326
1732439910172,2024-11-24T09:18:30.172Z,46270,0.14415051,-0.013768331,-0.12159966
1732439910178,2024-11-24T09:18:30.178Z,46276,0.14415051,-0.013768331,-0.12159966
1732439910199,2024-11-24T09:18:30.199Z,46297,0.11363619,0.022263113,-0.03816443
1732439910207,2024-11-24T09:18:30.207Z,46305,0.11363619,0.022263113,-0.03816443
1732439910222,2024-11-24T09:18:30.222Z,46320,0.07543075,0.037035916,-0.12335436
1732439910225,2024-11-24T09:18:30.225Z,46323,0.07543075,0.037035916,-0.12335436
1732439910236,2024-11-24T09:18:30.236Z,46334,0.037971415,-0.00471136,-0.16889206
1732439910240,2024-11-24T09:18:30.240Z,46338,0.037971415,-0.00471136,-0.16889206
1732439910250,2024-11-24T09:18:30.250Z,46348,0.08125127,-0.04690306,-0.015955871
1732439910254,2024-11-24T09:18:30.254Z,46352,0.08125127,-0.04690306,-0.015955871
1732439910264,2024-11-24T09:18:30.264Z,46362,-0.019600837,0.020807803,-0.044701044
1732439910267,2024-11-24T09:18:30.267Z,46365,-0.019600837,0.020807803,-0.044701044
1732439910281,2024-11-24T09:18:30.281Z,46379,0.06295479,-0.015557398,-0.114925526
1732439910289,2024-11-24T09:18:30.289Z,46387,0.06295479,-0.015557398,-0.114925526
1732439910316,2024-11-24T09:18:30.316Z,46414,0.06164596,0.025954152,-0.12148209
1732439910320,2024-11-24T09:18:30.320Z,46418,0.06164596,0.025954152,-0.12148209
1732439910329,2024-11-24T09:18:30.329Z,46427,0.06724901,-0.009724382,-0.1943704
1732439910332,2024-11-24T09:18:30.332Z,46430,0.06724901,-0.009724382,-0.1943704
1732439910344,2024-11-24T09:18:30.344Z,46442,0.02865348,-0.012801786,-0.07864206
1732439910348,2024-11-24T09:18:30.348Z,46446,0.02865348,-0.012801786,-0.07864206
1732439910358,2024-11-24T09:18:30.358Z,46456,0.008122129,0.032970864,-0.083954655
1732439910361,2024-11-24T09:18:30.361Z,46459,0.008122129,0.032970864,-0.083954655
1732439910372,2024-11-24T09:18:30.372Z,46470,0.0640208,0.03223227,-0.073479526
1732439910375,2024-11-24T09:18:30.375Z,46473,0.0640208,0.03223227,-0.073479526
1732439910387,2024-11-24T09:18:30.387Z,46485,0.09885553,-0.01197946,-0.202582
1732439910390,2024-11-24T09:18:30.390Z,46488,0.09885553,-0.01197946,-0.202582
1732439910401,2024-11-24T09:18:30.401Z,46499,0.14859016,-0.039575737,-0.03447276
1732439910406,2024-11-24T09:18:30.406Z,46504,0.14859016,-0.039575737,-0.03447276
1732439910415,2024-11-24T09:18:30.415Z,46513,0.036086295,0.030732514,-0.01774636
1732439910419,2024-11-24T09:18:30.419Z,46517,0.036086295,0.030732514,-0.01774636
1732439910429,2024-11-24T09:18:30.429Z,46527,0.04150744,0.047861923,-0.04992085
1732439910432,2024-11-24T09:18:30.432Z,46530,0.04150744,0.047861923,-0.04992085
1732439910443,2024-11-24T09:18:30.443Z,46541,0.04204072,0.076951824,0.010582095
1732439910446,2024-11-24T09:18:30.446Z,46544,0.04204072,0.076951824,0.010582095
1732439910455,2024-11-24T09:18:30.455Z,46553,0.005552407,0.10918575,-0.05799872
1732439910459,2024-11-24T09:18:30.459Z,46557,0.005552407,0.10918575,-0.05799872
1732439910469,2024-11-24T09:18:30.469Z,46567,0.14504124,0.015994817,-0.124627836
1732439910472,2024-11-24T09:18:30.472Z,46570,0.14504124,0.015994817,-0.124627836
1732439910482,2024-11-24T09:18:30.482Z,46580,0.10466652,0.038451843,-0.06531307
1732439910486,2024-11-24T09:18:30.486Z,46584,0.10466652,0.038451843,-0.06531307
1732439910496,2024-11-24T09:18:30.496Z,46594,0.08088287,0.05163105,-0.0010970272
1732439910499,2024-11-24T09:18:30.499Z,46597,0.08088287,0.05163105,-0.0010970272
1732439910509,2024-11-24T09:18:30.509Z,46607,-0.0066748643,0.13376516,-0.15281731
1732439910512,2024-11-24T09:18:30.512Z,46610,-0.0066748643,0.13376516,-0.15281731
1732439910523,2024-11-24T09:18:30.523Z,46621,0.15351427,0.04355268,-0.13696007
1732439910527,2024-11-24T09:18:30.527Z,46625,0.15351427,0.04355268,-0.13696007
1732439910537,2024-11-24T09:18:30.537Z,46635,0.07876073,0.044580396,-0.15605944
1732439910540,2024-11-24T09:18:30.540Z,46638,0.07876073,0.044580396,-0.15605944
1732439910550,2024-11-24T09:18:30.550Z,46648,0.084446535,0.029140666,0.0020781716
1732439910553,2024-11-24T09:18:30.553Z,46651,0.084446535,0.029140666,0.0020781716
1732439910562,2024-11-24T09:18:30.562Z,46660,0.033700638,0.07097129,-0.015424253
1732439910565,2024-11-24T09:18:30.565Z,46663,0.033700638,0.07097129,-0.015424253
1732439910574,2024-11-24T09:18:30.574Z,46672,0.061661955,0.093531296,-0.08535124
1732439910577,2024-11-24T09:18:30.577Z,46675,0.061661955,0.093531296,-0.08535124
1732439910585,2024-11-24T09:18:30.585Z,46683,0.12153472,0.052831862,-0.2463927
1732439910588,2024-11-24T09:18:30.588Z,46686,0.12153472,0.052831862,-0.2463927
1732439910598,2024-11-24T09:18:30.598Z,46696,0.18891452,0.003513949,-0.29251873
1732439910603,2024-11-24T09:18:30.603Z,46701,0.18891452,0.003513949,-0.29251873
1732439910613,2024-11-24T09:18:30.613Z,46711,0.21535954,-0.013007854,-0.12761322
1732439910617,2024-11-24T09:18:30.617Z,46715,0.21535954,-0.013007854,-0.12761322
1732439910628,2024-11-24T09:18:30.628Z,46726,0.009664867,-0.0063945237,-0.02463462
1732439910630,2024-11-24T09:18:30.630Z,46728,0.009664867,-0.0063945237,-0.02463462
1732439910642,2024-11-24T09:18:30.642Z,46740,0.026026964,0.02840314,-0.05075723
1732439910645,2024-11-24T09:18:30.645Z,46743,0.026026964,0.02840314,-0.05075723
1732439910657,2024-11-24T09:18:30.657Z,46755,0.056841437,0.018921683,-0.1933607
1732439910660,2024-11-24T09:18:30.660Z,46758,0.056841437,0.018921683,-0.1933607
1732439910670,2024-11-24T09:18:30.670Z,46768,0.16616848,-0.017918669,-0.22057138
1732439910673,2024-11-24T09:18:30.673Z,46771,0.16616848,-0.017918669,-0.22057138
1732439910683,2024-11-24T09:18:30.683Z,46781,0.1792321,-0.045309946,-0.047999114
1732439910686,2024-11-24T09:18:30.686Z,46784,0.1792321,-0.045309946,-0.047999114
1732439910695,2024-11-24T09:18:30.695Z,46793,0.10865509,-0.043530606,-0.03367201
1732439910699,2024-11-24T09:18:30.699Z,46797,0.10865509,-0.043530606,-0.03367201
1732439910710,2024-11-24T09:18:30.710Z,46808,0.031795334,0.05202033,-0.048668325
1732439910713,2024-11-24T09:18:30.713Z,46811,0.031795334,0.05202033,-0.048668325
1732439910725,2024-11-24T09:18:30.725Z,46823,0.0816822,0.035110705,-0.13655815
1732439910728,2024-11-24T09:18:30.728Z,46826,0.0816822,0.035110705,-0.13655815
1732439910737,2024-11-24T09:18:30.737Z,46835,0.09195612,0.009814239,-0.2950914
1732439910739,2024-11-24T09:18:30.739Z,46837,0.09195612,0.009814239,-0.2950914
1732439910750,2024-11-24T09:18:30.750Z,46848,0.02922464,-0.05993571,0.026007831
1732439910753,2024-11-24T09:18:30.753Z,46851,0.02922464,-0.05993571,0.026007831
1732439910766,2024-11-24T09:18:30.766Z,46864,-0.060311284,-0.005267228,-5.2839547E-4
1732439910773,2024-11-24T09:18:30.773Z,46871,-0.060311284,-0.005267228,-5.2839547E-4
1732439910794,2024-11-24T09:18:30.794Z,46892,0.018331436,-0.02792011,-0.05530751
1732439910801,2024-11-24T09:18:30.801Z,46899,0.018331436,-0.02792011,-0.05530751
1732439910827,2024-11-24T09:18:30.827Z,46925,0.029872213,-0.0097810775,-0.24825066
1732439910835,2024-11-24T09:18:30.835Z,46933,0.029872213,-0.0097810775,-0.24825066
1732439910849,2024-11-24T09:18:30.849Z,46947,0.09786366,-0.016333435,-0.12629941
1732439910853,2024-11-24T09:18:30.853Z,46951,0.09786366,-0.016333435,-0.12629941
1732439910866,2024-11-24T09:18:30.866Z,46964,0.062529504,-0.035929237,-0.12794521
1732439910869,2024-11-24T09:18:30.869Z,46967,0.062529504,-0.035929237,-0.12794521
1732439910887,2024-11-24T09:18:30.887Z,46985,0.038803685,0.021981485,-0.055630505
1732439910890,2024-11-24T09:18:30.890Z,46988,0.038803685,0.021981485,-0.055630505
1732439910901,2024-11-24T09:18:30.901Z,46999,-0.012199628,0.050323065,-0.09797441
1732439910906,2024-11-24T09:18:30.906Z,47004,-0.012199628,0.050323065,-0.09797441
1732439910920,2024-11-24T09:18:30.920Z,47018,0.01195826,0.029788822,-0.20825513
1732439910925,2024-11-24T09:18:30.925Z,47023,0.01195826,0.029788822,-0.20825513
1732439910935,2024-11-24T09:18:30.935Z,47033,0.11118727,-0.020502541,-0.14538528
1732439910938,2024-11-24T09:18:30.938Z,47036,0.11118727,-0.020502541,-0.14538528
1732439910948,2024-11-24T09:18:30.948Z,47046,0.067972794,-0.043005563,0.005833149
1732439910951,2024-11-24T09:18:30.951Z,47049,0.067972794,-0.043005563,0.005833149
1732439910960,2024-11-24T09:18:30.960Z,47058,-0.0412359,0.031000042,-0.08653363
1732439910964,2024-11-24T09:18:30.964Z,47062,-0.0412359,0.031000042,-0.08653363
1732439910978,2024-11-24T09:18:30.978Z,47076,-0.0014334313,0.041780535,-0.23377262
1732439910984,2024-11-24T09:18:30.984Z,47082,-0.0014334313,0.041780535,-0.23377262
1732439911001,2024-11-24T09:18:31.001Z,47099,0.10399943,0.058804233,-0.18074273
1732439911005,2024-11-24T09:18:31.005Z,47103,0.10399943,0.058804233,-0.18074273
1732439911071,2024-11-24T09:18:31.071Z,47169,0.061958514,0.008629665,-0.12436647
1732439911078,2024-11-24T09:18:31.078Z,47176,0.061958514,0.008629665,-0.12436647
1732439911107,2024-11-24T09:18:31.107Z,47205,-0.009622758,0.07006323,-0.052125487
1732439911114,2024-11-24T09:18:31.114Z,47212,-0.009622758,0.07006323,-0.052125487
1732439911140,2024-11-24T09:18:31.140Z,47238,-0.01131268,0.069907054,-0.118339896
1732439911148,2024-11-24T09:18:31.148Z,47246,-0.01131268,0.069907054,-0.118339896
1732439911167,2024-11-24T09:18:31.167Z,47265,0.052599926,0.041293714,-0.20428441
1732439911172,2024-11-24T09:18:31.172Z,47270,0.052599926,0.041293714,-0.20428441
1732439911192,2024-11-24T09:18:31.192Z,47290,0.09589894,0.03656553,-0.17652835
1732439911201,2024-11-24T09:18:31.201Z,47299,0.09589894,0.03656553,-0.17652835
1732439911227,2024-11-24T09:18:31.227Z,47325,0.07781042,0.0016185909,-0.08588564
1732439911234,2024-11-24T09:18:31.234Z,47332,0.07781042,0.0016185909,-0.08588564
1732439911255,2024-11-24T09:18:31.255Z,47353,-0.03699969,0.018696262,-0.095957905
1732439911260,2024-11-24T09:18:31.260Z,47358,-0.03699969,0.018696262,-0.095957905
1732439911274,2024-11-24T09:18:31.274Z,47372,0.03801039,0.025933145,-0.14206824
1732439911279,2024-11-24T09:18:31.279Z,47377,0.03801039,0.025933145,-0.14206824
1732439911294,2024-11-24T09:18:31.294Z,47392,0.04048403,0.04311769,-0.13099357
1732439911298,2024-11-24T09:18:31.298Z,47396,0.04048403,0.04311769,-0.13099357
1732439911310,2024-11-24T09:18:31.310Z,47408,0.024349611,0.0427076,-0.10626586
1732439911313,2024-11-24T09:18:31.313Z,47411,0.024349611,0.0427076,-0.10626586
1732439911328,2024-11-24T09:18:31.328Z,47426,0.026540652,0.037957143,-0.09219376
1732439911335,2024-11-24T09:18:31.335Z,47433,0.026540652,0.037957143,-0.09219376
1732439911359,2024-11-24T09:18:31.359Z,47457,-0.013780195,0.03534789,-0.09465289
1732439911366,2024-11-24T09:18:31.366Z,47464,-0.013780195,0.03534789,-0.09465289
1732439911380,2024-11-24T09:18:31.380Z,47478,0.042414688,0.012581228,-0.19332711
1732439911383,2024-11-24T09:18:31.383Z,47481,0.042414688,0.012581228,-0.19332711
1732439911392,2024-11-24T09:18:31.392Z,47490,-0.0035125874,0.011301157,-0.13717201
1732439911397,2024-11-24T09:18:31.397Z,47495,-0.0035125874,0.011301157,-0.13717201
1732439911409,2024-11-24T09:18:31.409Z,47507,0.0033281085,0.0054229214,-0.07096329
1732439911413,2024-11-24T09:18:31.413Z,47511,0.0033281085,0.0054229214,-0.07096329
1732439911424,2024-11-24T09:18:31.424Z,47522,-0.04642567,0.018110054,-0.047643863
1732439911427,2024-11-24T09:18:31.427Z,47525,-0.04642567,0.018110054,-0.047643863
1732439911436,2024-11-24T09:18:31.436Z,47534,-0.025657108,0.013639867,-0.022981817
1732439911439,2024-11-24T09:18:31.439Z,47537,-0.025657108,0.013639867,-0.022981817
1732439911448,2024-11-24T09:18:31.448Z,47546,0.10279988,0.008879202,-0.17830835
1732439911450,2024-11-24T09:18:31.450Z,47548,0.10279988,0.008879202,-0.17830835
1732439911459,2024-11-24T09:18:31.459Z,47557,0.027424537,-0.013723792,-0.21252412
1732439911462,2024-11-24T09:18:31.462Z,47560,0.027424537,-0.013723792,-0.21252412
1732439911471,2024-11-24T09:18:31.471Z,47569,0.02346991,-0.0022444772,-0.12549202
1732439911475,2024-11-24T09:18:31.475Z,47573,0.02346991,-0.0022444772,-0.12549202
1732439911483,2024-11-24T09:18:31.483Z,47581,-0.009646779,0.022127647,-0.0426431
1732439911486,2024-11-24T09:18:31.486Z,47584,-0.009646779,0.022127647,-0.0426431
1732439911496,2024-11-24T09:18:31.496Z,47594,0.047126777,0.011629854,-0.0347411
1732439911498,2024-11-24T09:18:31.498Z,47596,0.047126777,0.011629854,-0.0347411
1732439911509,2024-11-24T09:18:31.509Z,47607,0.047503125,0.043269303,-0.12461388
1732439911512,2024-11-24T09:18:31.512Z,47610,0.047503125,0.043269303,-0.12461388
1732439911522,2024-11-24T09:18:31.522Z,47620,0.04828383,0.043658584,-0.09879753
1732439911524,2024-11-24T09:18:31.524Z,47622,0.04828383,0.043658584,-0.09879753
1732439911533,2024-11-24T09:18:31.533Z,47631,0.04903789,0.04133378,-0.10106518
1732439911535,2024-11-24T09:18:31.535Z,47633,0.04903789,0.04133378,-0.10106518
1732439911544,2024-11-24T09:18:31.544Z,47642,0.07449438,0.041103885,-0.026010992
1732439911547,2024-11-24T09:18:31.547Z,47645,0.07449438,0.041103885,-0.026010992
1732439911555,2024-11-24T09:18:31.555Z,47653,0.004371771,0.0980731,-0.098290265
1732439911558,2024-11-24T09:18:31.558Z,47656,0.004371771,0.0980731,-0.098290265
1732439911568,2024-11-24T09:18:31.568Z,47666,-0.019139225,0.011738772,-0.050947666
1732439911572,2024-11-24T09:18:31.572Z,47670,-0.019139225,0.011738772,-0.050947666
1732439911581,2024-11-24T09:18:31.581Z,47679,-0.07117769,0.024454007,-0.045462195
1732439911584,2024-11-24T09:18:31.584Z,47682,-0.07117769,0.024454007,-0.045462195
1732439911593,2024-11-24T09:18:31.593Z,47691,-0.018214254,0.047424015,-0.114690006
1732439911595,2024-11-24T09:18:31.595Z,47693,-0.018214254,0.047424015,-0.114690006
1732439911604,2024-11-24T09:18:31.604Z,47702,0.012042379,0.029611053,-0.16513886
1732439911607,2024-11-24T09:18:31.607Z,47705,0.012042379,0.029611053,-0.16513886
1732439911617,2024-11-24T09:18:31.617Z,47715,0.038737994,0.035633218,-0.14477938
1732439911623,2024-11-24T09:18:31.623Z,47721,0.038737994,0.035633218,-0.14477938
1732439911638,2024-11-24T09:18:31.638Z,47736,-0.018298568,-0.0016754809,-0.1513102
1732439911643,2024-11-24T09:18:31.643Z,47741,-0.018298568,-0.0016754809,-0.1513102
1732439911652,2024-11-24T09:18:31.652Z,47750,-0.099969044,-0.0055190995,0.009706226
1732439911655,2024-11-24T09:18:31.655Z,47753,-0.099969044,-0.0055190995,0.009706226
1732439911665,2024-11-24T09:18:31.665Z,47763,-0.06613915,-6.097432E-5,-0.002781689
1732439911668,2024-11-24T09:18:31.668Z,47766,-0.06613915,-6.097432E-5,-0.002781689
1732439911678,2024-11-24T09:18:31.678Z,47776,0.0019890561,-0.0039425194,-0.067527644
1732439911681,2024-11-24T09:18:31.681Z,47779,0.0019890561,-0.0039425194,-0.067527644
1732439911690,2024-11-24T09:18:31.690Z,47788,0.026698727,0.023393035,-0.062347766
1732439911693,2024-11-24T09:18:31.693Z,47791,0.026698727,0.023393035,-0.062347766
1732439911701,2024-11-24T09:18:31.701Z,47799,0.039336216,0.0027471506,-0.1692468
1732439911704,2024-11-24T09:18:31.704Z,47802,0.039336216,0.0027471506,-0.1692468
1732439911713,2024-11-24T09:18:31.713Z,47811,-0.04350649,-8.4235973E-4,-0.14113079
1732439911717,2024-11-24T09:18:31.717Z,47815,-0.04350649,-8.4235973E-4,-0.14113079
1732439911729,2024-11-24T09:18:31.729Z,47827,-0.024455126,-0.025625454,-0.058120638
1732439911732,2024-11-24T09:18:31.732Z,47830,-0.024455126,-0.025625454,-0.058120638
1732439911741,2024-11-24T09:18:31.741Z,47839,-0.024026167,-0.020443123,-0.009047896
1732439911744,2024-11-24T09:18:31.744Z,47842,-0.024026167,-0.020443123,-0.009047896
1732439911753,2024-11-24T09:18:31.753Z,47851,-0.0010755111,0.0075267786,-0.011013061
1732439911757,2024-11-24T09:18:31.757Z,47855,-0.0010755111,0.0075267786,-0.011013061
1732439911766,2024-11-24T09:18:31.766Z,47864,-0.01487963,0.020430675,-0.16968808
1732439911769,2024-11-24T09:18:31.769Z,47867,-0.01487963,0.020430675,-0.16968808
1732439911779,2024-11-24T09:18:31.779Z,47877,0.051830698,-0.041379098,-0.11113977
1732439911784,2024-11-24T09:18:31.784Z,47882,0.051830698,-0.041379098,-0.11113977
1732439911795,2024-11-24T09:18:31.795Z,47893,-0.013561048,-0.040545877,0.04552373
1732439911798,2024-11-24T09:18:31.798Z,47896,-0.013561048,-0.040545877,0.04552373
1732439911810,2024-11-24T09:18:31.810Z,47908,-0.07938788,-0.0148403905,0.033768535
1732439911812,2024-11-24T09:18:31.812Z,47910,-0.07938788,-0.0148403905,0.033768535
1732439911822,2024-11-24T09:18:31.822Z,47920,-0.0041705654,0.015881233,-0.088893
1732439911826,2024-11-24T09:18:31.826Z,47924,-0.0041705654,0.015881233,-0.088893
1732439911836,2024-11-24T09:18:31.836Z,47934,-0.012220391,0.010231529,-0.101269096
1732439911839,2024-11-24T09:18:31.839Z,47937,-0.012220391,0.010231529,-0.101269096
1732439911849,2024-11-24T09:18:31.849Z,47947,-0.06356714,-0.032632735,-0.15937434
1732439911852,2024-11-24T09:18:31.852Z,47950,-0.06356714,-0.032632735,-0.15937434
1732439911863,2024-11-24T09:18:31.863Z,47961,0.004921804,-0.05334047,-0.047147036
1732439911866,2024-11-24T09:18:31.866Z,47964,0.004921804,-0.05334047,-0.047147036
1732439911877,2024-11-24T09:18:31.877Z,47975,-0.06982819,-0.018873544,0.03095391
1732439911880,2024-11-24T09:18:31.880Z,47978,-0.06982819,-0.018873544,0.03095391
1732439911889,2024-11-24T09:18:31.889Z,47987,-0.058066368,-0.015205652,-0.06735992
1732439911891,2024-11-24T09:18:31.891Z,47989,-0.058066368,-0.015205652,-0.06735992
1732439911901,2024-11-24T09:18:31.901Z,47999,0.0047588656,-0.029024163,-0.13810854
1732439911905,2024-11-24T09:18:31.905Z,48003,0.0047588656,-0.029024163,-0.13810854
1732439911918,2024-11-24T09:18:31.918Z,48016,0.11654392,-0.06613992,-0.18198779
1732439911925,2024-11-24T09:18:31.925Z,48023,0.11654392,-0.06613992,-0.18198779
1732439911945,2024-11-24T09:18:31.945Z,48043,-0.028279781,-0.05087728,-0.09728523
1732439911951,2024-11-24T09:18:31.951Z,48049,-0.028279781,-0.05087728,-0.09728523
1732439911975,2024-11-24T09:18:31.975Z,48073,-0.055052273,-0.0599892,-0.024016498
1732439911982,2024-11-24T09:18:31.982Z,48080,-0.055052273,-0.0599892,-0.024016498
1732439912004,2024-11-24T09:18:32.004Z,48102,-0.13096637,-0.034981072,-0.07292061
1732439912012,2024-11-24T09:18:32.012Z,48110,-0.13096637,-0.034981072,-0.07292061
1732439912035,2024-11-24T09:18:32.035Z,48133,-0.061897248,-0.04507616,-0.030632228
1732439912041,2024-11-24T09:18:32.041Z,48139,-0.061897248,-0.04507616,-0.030632228
1732439912068,2024-11-24T09:18:32.068Z,48166,-0.008623635,-0.061792947,-0.19558708
1732439912075,2024-11-24T09:18:32.075Z,48173,-0.008623635,-0.061792947,-0.19558708
1732439912091,2024-11-24T09:18:32.091Z,48189,-0.015339757,-0.061799657,-0.22659947
1732439912096,2024-11-24T09:18:32.096Z,48194,-0.015339757,-0.061799657,-0.22659947
1732439912113,2024-11-24T09:18:32.113Z,48211,0.008881196,-0.08164724,-0.048691507
1732439912120,2024-11-24T09:18:32.120Z,48218,0.008881196,-0.08164724,-0.048691507
1732439912143,2024-11-24T09:18:32.143Z,48241,-0.15761472,-0.035527702,-0.0030966103
1732439912148,2024-11-24T09:18:32.148Z,48246,-0.15761472,-0.035527702,-0.0030966103
1732439912160,2024-11-24T09:18:32.160Z,48258,-0.08199937,-0.047793653,-0.07567835
1732439912164,2024-11-24T09:18:32.164Z,48262,-0.08199937,-0.047793653,-0.07567835
1732439912176,2024-11-24T09:18:32.176Z,48274,-0.1479727,-0.013684698,-0.04496714
1732439912180,2024-11-24T09:18:32.180Z,48278,-0.1479727,-0.013684698,-0.04496714
1732439912190,2024-11-24T09:18:32.190Z,48288,0.019997388,-0.08359131,-0.06867251
1732439912194,2024-11-24T09:18:32.194Z,48292,0.019997388,-0.08359131,-0.06867251
1732439912203,2024-11-24T09:18:32.203Z,48301,-0.045326527,-0.006120674,-0.06111636
1732439912206,2024-11-24T09:18:32.206Z,48304,-0.045326527,-0.006120674,-0.06111636
1732439912215,2024-11-24T09:18:32.215Z,48313,-0.07474576,-0.033291686,-0.016109226
1732439912218,2024-11-24T09:18:32.218Z,48316,-0.07474576,-0.033291686,-0.016109226
1732439912226,2024-11-24T09:18:32.226Z,48324,-0.07840408,0.015126784,-0.06632167
1732439912229,2024-11-24T09:18:32.229Z,48327,-0.07840408,0.015126784,-0.06632167
1732439912236,2024-11-24T09:18:32.236Z,48334,-0.013509604,-0.02287694,-0.18918212
1732439912239,2024-11-24T09:18:32.239Z,48337,-0.013509604,-0.02287694,-0.18918212
1732439912248,2024-11-24T09:18:32.248Z,48346,-0.017849866,-0.01652122,-0.14541687
1732439912251,2024-11-24T09:18:32.251Z,48349,-0.017849866,-0.01652122,-0.14541687
1732439912269,2024-11-24T09:18:32.269Z,48367,-0.06828433,-0.019376997,0.005986691
1732439912277,2024-11-24T09:18:32.277Z,48375,-0.06828433,-0.019376997,0.005986691
1732439912299,2024-11-24T09:18:32.299Z,48397,-0.07394595,0.013690728,-0.013127983
1732439912305,2024-11-24T09:18:32.305Z,48403,-0.07394595,0.013690728,-0.013127983
1732439912320,2024-11-24T09:18:32.320Z,48418,3.9399913E-4,0.01405424,-0.09271296
1732439912325,2024-11-24T09:18:32.325Z,48423,3.9399913E-4,0.01405424,-0.09271296
1732439912337,2024-11-24T09:18:32.337Z,48435,-0.08064656,-0.013355126,-0.035818126
1732439912342,2024-11-24T09:18:32.342Z,48440,-0.08064656,-0.013355126,-0.035818126
1732439912353,2024-11-24T09:18:32.353Z,48451,-0.020043435,-0.0014939194,-0.015377998
1732439912357,2024-11-24T09:18:32.357Z,48455,-0.020043435,-0.0014939194,-0.015377998
1732439912368,2024-11-24T09:18:32.368Z,48466,0.0142556885,0.029585576,-0.08139294
1732439912371,2024-11-24T09:18:32.371Z,48469,0.0142556885,0.029585576,-0.08139294
1732439912380,2024-11-24T09:18:32.380Z,48478,-0.018683814,0.026571577,-0.24375613
1732439912383,2024-11-24T09:18:32.383Z,48481,-0.018683814,0.026571577,-0.24375613
1732439912392,2024-11-24T09:18:32.392Z,48490,0.016452806,-0.0026265634,-0.13959211
1732439912395,2024-11-24T09:18:32.395Z,48493,0.016452806,-0.0026265634,-0.13959211
1732439912404,2024-11-24T09:18:32.404Z,48502,-0.018540982,-0.0074058026,-0.14126128
1732439912408,2024-11-24T09:18:32.408Z,48506,-0.018540982,-0.0074058026,-0.14126128
1732439912425,2024-11-24T09:18:32.425Z,48523,-0.03604788,2.910624E-4,-0.062276542
1732439912428,2024-11-24T09:18:32.428Z,48526,-0.03604788,2.910624E-4,-0.062276542
1732439912442,2024-11-24T09:18:32.442Z,48540,-0.028818753,-0.014417946,-0.056035902
1732439912447,2024-11-24T09:18:32.447Z,48545,-0.028818753,-0.014417946,-0.056035902
1732439912456,2024-11-24T09:18:32.456Z,48554,-0.0063173333,-0.027596666,-0.05387813
1732439912459,2024-11-24T09:18:32.459Z,48557,-0.0063173333,-0.027596666,-0.05387813
1732439912468,2024-11-24T09:18:32.468Z,48566,0.047506116,-0.020204477,-0.080592275
1732439912471,2024-11-24T09:18:32.471Z,48569,0.047506116,-0.020204477,-0.080592275
1732439912480,2024-11-24T09:18:32.480Z,48578,0.0762179,-0.009323527,-0.078529745
1732439912483,2024-11-24T09:18:32.483Z,48581,0.0762179,-0.009323527,-0.078529745
1732439912491,2024-11-24T09:18:32.491Z,48589,-0.017681943,-0.0119529115,-0.08711353
1732439912494,2024-11-24T09:18:32.494Z,48592,-0.017681943,-0.0119529115,-0.08711353
1732439912502,2024-11-24T09:18:32.502Z,48600,-0.025104959,-0.012800911,-0.113304555
1732439912505,2024-11-24T09:18:32.505Z,48603,-0.025104959,-0.012800911,-0.113304555
1732439912514,2024-11-24T09:18:32.514Z,48612,-0.01558769,-0.03166726,-0.07599052
1732439912516,2024-11-24T09:18:32.516Z,48614,-0.01558769,-0.03166726,-0.07599052
1732439912526,2024-11-24T09:18:32.526Z,48624,-0.024900423,-0.043290697,-0.05745226
1732439912529,2024-11-24T09:18:32.529Z,48627,-0.024900423,-0.043290697,-0.05745226
1732439912539,2024-11-24T09:18:32.539Z,48637,-0.00856976,-0.040915616,-0.090222836
1732439912542,2024-11-24T09:18:32.542Z,48640,-0.00856976,-0.040915616,-0.090222836
1732439912551,2024-11-24T09:18:32.551Z,48649,-0.01851582,-0.048838872,-0.08489406
1732439912553,2024-11-24T09:18:32.553Z,48651,-0.01851582,-0.048838872,-0.08489406
1732439912561,2024-11-24T09:18:32.561Z,48659,-0.011732256,-0.02769819,-0.07934481
1732439912564,2024-11-24T09:18:32.564Z,48662,-0.011732256,-0.02769819,-0.07934481
1732439912574,2024-11-24T09:18:32.574Z,48672,0.01197946,-0.030884901,-0.10178006
1732439912578,2024-11-24T09:18:32.578Z,48676,0.01197946,-0.030884901,-0.10178006
1732439912593,2024-11-24T09:18:32.593Z,48691,0.025660804,-0.018025156,-0.10737979
1732439912596,2024-11-24T09:18:32.596Z,48694,0.025660804,-0.018025156,-0.10737979
1732439912641,2024-11-24T09:18:32.641Z,48739,-0.05727528,-0.028729018,-0.10622984
1732439912644,2024-11-24T09:18:32.644Z,48742,-0.05727528,-0.028729018,-0.10622984
1732439912654,2024-11-24T09:18:32.654Z,48752,-0.07133232,-0.0142366765,-0.12695286
1732439912657,2024-11-24T09:18:32.657Z,48755,-0.07133232,-0.0142366765,-0.12695286
1732439912666,2024-11-24T09:18:32.666Z,48764,-0.003351983,-0.029493773,-0.068608284
1732439912668,2024-11-24T09:18:32.668Z,48766,-0.003351983,-0.029493773,-0.068608284
1732439912684,2024-11-24T09:18:32.684Z,48782,-0.006877893,-0.033054013,-0.06489723
1732439912688,2024-11-24T09:18:32.688Z,48786,-0.006877893,-0.033054013,-0.06489723
1732439912736,2024-11-24T09:18:32.736Z,48834,0.0016032015,-0.038425684,-0.050347295
1732439912743,2024-11-24T09:18:32.743Z,48841,0.0016032015,-0.038425684,-0.050347295
1732439912767,2024-11-24T09:18:32.767Z,48865,0.051657524,-0.049207635,-0.072068594
1732439912774,2024-11-24T09:18:32.774Z,48872,0.051657524,-0.049207635,-0.072068594
1732439912793,2024-11-24T09:18:32.793Z,48891,-0.0063644983,-0.019307172,-0.12533358
1732439912798,2024-11-24T09:18:32.798Z,48896,-0.0063644983,-0.019307172,-0.12533358
1732439912811,2024-11-24T09:18:32.811Z,48909,0.019966852,-4.2011013E-4,-0.07023605
1732439912816,2024-11-24T09:18:32.816Z,48914,0.019966852,-4.2011013E-4,-0.07023605
1732439912830,2024-11-24T09:18:32.830Z,48928,7.490505E-5,-0.007052307,-0.05266839
1732439912834,2024-11-24T09:18:32.834Z,48932,7.490505E-5,-0.007052307,-0.05266839
1732439912845,2024-11-24T09:18:32.845Z,48943,-0.0127199525,8.482918E-4,-0.1037468
1732439912849,2024-11-24T09:18:32.849Z,48947,-0.0127199525,8.482918E-4,-0.1037468
1732439912859,2024-11-24T09:18:32.859Z,48957,0.036797076,-0.001605657,-0.090583295
1732439912863,2024-11-24T09:18:32.863Z,48961,0.036797076,-0.001605657,-0.090583295
1732439912873,2024-11-24T09:18:32.873Z,48971,0.032717705,-0.0088092815,-0.09496814
1732439912876,2024-11-24T09:18:32.876Z,48974,0.032717705,-0.0088092815,-0.09496814
1732439912885,2024-11-24T09:18:32.885Z,48983,-0.007941613,-0.0060660206,-0.07412672
1732439912888,2024-11-24T09:18:32.888Z,48986,-0.007941613,-0.0060660206,-0.07412672
1732439912897,2024-11-24T09:18:32.897Z,48995,-0.04756612,-0.007364375,-0.09576225
1732439912900,2024-11-24T09:18:32.900Z,48998,-0.04756612,-0.007364375,-0.09576225
1732439912912,2024-11-24T09:18:32.912Z,49010,-0.015361079,-0.015036636,-0.11226398
1732439912920,2024-11-24T09:18:32.920Z,49018,-0.015361079,-0.015036636,-0.11226398
1732439912930,2024-11-24T09:18:32.930Z,49028,-0.021432156,-0.025482986,-0.09855366
1732439912933,2024-11-24T09:18:32.933Z,49031,-0.021432156,-0.025482986,-0.09855366
1732439912945,2024-11-24T09:18:32.945Z,49043,-0.015455045,-0.027110912,-0.07382694
1732439912950,2024-11-24T09:18:32.950Z,49048,-0.015455045,-0.027110912,-0.07382694
1732439912971,2024-11-24T09:18:32.971Z,49069,-0.042527497,-0.020943267,-0.07274851
1732439912978,2024-11-24T09:18:32.978Z,49076,-0.042527497,-0.020943267,-0.07274851
1732439912997,2024-11-24T09:18:32.997Z,49095,-0.04248354,-0.015431753,-0.124714516
1732439913004,2024-11-24T09:18:33.004Z,49102,-0.04248354,-0.015431753,-0.124714516
1732439913025,2024-11-24T09:18:33.025Z,49123,-0.004210899,-0.021374172,-0.110174686
1732439913032,2024-11-24T09:18:33.032Z,49130,-0.004210899,-0.021374172,-0.110174686
1732439913052,2024-11-24T09:18:33.052Z,49150,-0.0066377157,-0.02129832,-0.09507823
1732439913056,2024-11-24T09:18:33.056Z,49154,-0.0066377157,-0.02129832,-0.09507823
1732439913070,2024-11-24T09:18:33.070Z,49168,-0.021356327,-0.018958831,-0.08413389
1732439913074,2024-11-24T09:18:33.074Z,49172,-0.021356327,-0.018958831,-0.08413389
1732439913087,2024-11-24T09:18:33.087Z,49185,-0.018969601,-0.021939084,-0.079078734
1732439913091,2024-11-24T09:18:33.091Z,49189,-0.018969601,-0.021939084,-0.079078734
1732439913104,2024-11-24T09:18:33.104Z,49202,-0.012002119,-0.026941216,-0.07555475
1732439913108,2024-11-24T09:18:33.108Z,49206,-0.012002119,-0.026941216,-0.07555475
1732439913119,2024-11-24T09:18:33.119Z,49217,-0.027021298,-0.043297794,-0.12686235
1732439913122,2024-11-24T09:18:33.122Z,49220,-0.027021298,-0.043297794,-0.12686235
1732439913132,2024-11-24T09:18:33.132Z,49230,-0.029673122,-0.04505798,-0.1064285
1732439913135,2024-11-24T09:18:33.135Z,49233,-0.029673122,-0.04505798,-0.1064285
1732439913145,2024-11-24T09:18:33.145Z,49243,-0.042000048,-0.05665282,-0.054693725
1732439913148,2024-11-24T09:18:33.148Z,49246,-0.042000048,-0.05665282,-0.054693725
1732439913157,2024-11-24T09:18:33.157Z,49255,-0.040482692,-0.071140304,-0.0705123
1732439913160,2024-11-24T09:18:33.160Z,49258,-0.040482692,-0.071140304,-0.0705123
1732439913170,2024-11-24T09:18:33.170Z,49268,-0.09945832,-0.075030796,-0.09786274
1732439913172,2024-11-24T09:18:33.172Z,49270,-0.09945832,-0.075030796,-0.09786274
1732439913181,2024-11-24T09:18:33.181Z,49279,-0.099559754,-0.08432758,-0.1335225
1732439913184,2024-11-24T09:18:33.184Z,49282,-0.099559754,-0.08432758,-0.1335225
1732439913192,2024-11-24T09:18:33.192Z,49290,-0.0859557,-0.13765676,2.571959E-4
1732439913194,2024-11-24T09:18:33.194Z,49292,-0.0859557,-0.13765676,2.571959E-4
1732439913202,2024-11-24T09:18:33.202Z,49300,-0.09482202,-0.1645338,-0.022777524
1732439913205,2024-11-24T09:18:33.205Z,49303,-0.09482202,-0.1645338,-0.022777524
1732439913215,2024-11-24T09:18:33.215Z,49313,-0.12977345,-0.17976843,-0.019331217
1732439913218,2024-11-24T09:18:33.218Z,49316,-0.12977345,-0.17976843,-0.019331217
1732439913226,2024-11-24T09:18:33.226Z,49324,-0.1508053,-0.20563409,-0.04614297
1732439913229,2024-11-24T09:18:33.229Z,49327,-0.1508053,-0.20563409,-0.04614297
1732439913238,2024-11-24T09:18:33.238Z,49336,-0.13236131,-0.21337861,-0.0465815
1732439913241,2024-11-24T09:18:33.241Z,49339,-0.13236131,-0.21337861,-0.0465815
1732439913249,2024-11-24T09:18:33.249Z,49347,-0.15197472,-0.21589391,-0.0012645121
1732439913252,2024-11-24T09:18:33.252Z,49350,-0.15197472,-0.21589391,-0.0012645121
1732439913260,2024-11-24T09:18:33.260Z,49358,-0.15605949,-0.20559187,0.020831639
1732439913263,2024-11-24T09:18:33.263Z,49361,-0.15605949,-0.20559187,0.020831639
1732439913272,2024-11-24T09:18:33.272Z,49370,-0.16013436,-0.2186472,-0.010258765
1732439913275,2024-11-24T09:18:33.275Z,49373,-0.16013436,-0.2186472,-0.010258765
1732439913285,2024-11-24T09:18:33.285Z,49383,-0.15488009,-0.21282877,-0.0018137367
1732439913287,2024-11-24T09:18:33.287Z,49385,-0.15488009,-0.21282877,-0.0018137367
1732439913296,2024-11-24T09:18:33.296Z,49394,-0.14240938,-0.22429816,-0.034022987
1732439913298,2024-11-24T09:18:33.298Z,49396,-0.14240938,-0.22429816,-0.034022987
1732439913308,2024-11-24T09:18:33.308Z,49406,-0.10396128,-0.198203,-0.036646776
1732439913311,2024-11-24T09:18:33.311Z,49409,-0.10396128,-0.198203,-0.036646776
1732439913319,2024-11-24T09:18:33.319Z,49417,-0.09043998,-0.2112024,-0.018514272
1732439913321,2024-11-24T09:18:33.321Z,49419,-0.09043998,-0.2112024,-0.018514272
1732439913330,2024-11-24T09:18:33.330Z,49428,-0.12995966,-0.18686138,-0.017967312
1732439913333,2024-11-24T09:18:33.333Z,49431,-0.12995966,-0.18686138,-0.017967312
1732439913343,2024-11-24T09:18:33.343Z,49441,-0.15136369,-0.17343226,-0.0077793007
1732439913347,2024-11-24T09:18:33.347Z,49445,-0.15136369,-0.17343226,-0.0077793007
1732439913354,2024-11-24T09:18:33.354Z,49452,-0.11838392,-0.17479363,-0.024197461
1732439913356,2024-11-24T09:18:33.356Z,49454,-0.11838392,-0.17479363,-0.024197461
1732439913365,2024-11-24T09:18:33.365Z,49463,-0.056908146,-0.17116833,-0.013937743
1732439913368,2024-11-24T09:18:33.368Z,49466,-0.056908146,-0.17116833,-0.013937743
1732439913377,2024-11-24T09:18:33.377Z,49475,-0.055968903,-0.17004395,-0.0038455424
1732439913379,2024-11-24T09:18:33.379Z,49477,-0.055968903,-0.17004395,-0.0038455424
1732439913403,2024-11-24T09:18:33.403Z,49501,-0.06010322,-0.12762965,-0.089969605
1732439913405,2024-11-24T09:18:33.405Z,49503,-0.06010322,-0.12762965,-0.089969605
1732439913414,2024-11-24T09:18:33.414Z,49512,-0.020932328,-0.121977225,-0.12509227
1732439913417,2024-11-24T09:18:33.417Z,49515,-0.020932328,-0.121977225,-0.12509227
1732439913429,2024-11-24T09:18:33.429Z,49527,0.051802836,-0.15272549,-0.13016729
1732439913436,2024-11-24T09:18:33.436Z,49534,0.051802836,-0.15272549,-0.13016729
1732439913458,2024-11-24T09:18:33.458Z,49556,0.063144885,-0.16143169,-0.014684497
1732439913465,2024-11-24T09:18:33.465Z,49563,0.063144885,-0.16143169,-0.014684497
1732439913495,2024-11-24T09:18:33.495Z,49593,0.098267354,-0.12470152,-0.021304993
1732439913501,2024-11-24T09:18:33.501Z,49599,0.098267354,-0.12470152,-0.021304993
1732439913519,2024-11-24T09:18:33.519Z,49617,0.058787704,-0.10200274,-0.031887617
1732439913527,2024-11-24T09:18:33.527Z,49625,0.058787704,-0.10200274,-0.031887617
1732439913548,2024-11-24T09:18:33.548Z,49646,0.10341937,-0.08767387,-0.073770106
1732439913554,2024-11-24T09:18:33.554Z,49652,0.10341937,-0.08767387,-0.073770106
1732439913572,2024-11-24T09:18:33.572Z,49670,0.14355291,-0.08443115,-0.12310078
1732439913576,2024-11-24T09:18:33.576Z,49674,0.14355291,-0.08443115,-0.12310078
1732439913591,2024-11-24T09:18:33.591Z,49689,0.16900285,-0.08389055,-0.089172654
1732439913594,2024-11-24T09:18:33.594Z,49692,0.16900285,-0.08389055,-0.089172654
1732439913606,2024-11-24T09:18:33.606Z,49704,0.07075612,-0.06399765,4.985039E-4
1732439913610,2024-11-24T09:18:33.610Z,49708,0.07075612,-0.06399765,4.985039E-4
1732439913621,2024-11-24T09:18:33.621Z,49719,0.077405,-0.07313563,0.052019287
1732439913624,2024-11-24T09:18:33.624Z,49722,0.077405,-0.07313563,0.052019287
1732439913633,2024-11-24T09:18:33.633Z,49731,0.13935763,-0.056713212,-0.11562091
1732439913636,2024-11-24T09:18:33.636Z,49734,0.13935763,-0.056713212,-0.11562091
1732439913644,2024-11-24T09:18:33.644Z,49742,0.21853907,-0.0671194,-0.046905674
1732439913647,2024-11-24T09:18:33.647Z,49745,0.21853907,-0.0671194,-0.046905674
1732439913673,2024-11-24T09:18:33.673Z,49771,0.17632253,-0.057143826,-0.0909115
1732439913677,2024-11-24T09:18:33.677Z,49775,0.17632253,-0.057143826,-0.0909115
1732439913725,2024-11-24T09:18:33.725Z,49823,0.10861114,-0.028871777,-0.032213002
1732439913731,2024-11-24T09:18:33.731Z,49829,0.10861114,-0.028871777,-0.032213002
1732439913749,2024-11-24T09:18:33.749Z,49847,0.06899171,-0.032068796,-0.070023865
1732439913753,2024-11-24T09:18:33.753Z,49851,0.06899171,-0.032068796,-0.070023865
1732439913768,2024-11-24T09:18:33.768Z,49866,0.12296076,-0.03812626,-0.09069627
1732439913772,2024-11-24T09:18:33.772Z,49870,0.12296076,-0.03812626,-0.09069627
1732439913812,2024-11-24T09:18:33.812Z,49910,0.20708126,-0.066053465,-0.030254712
1732439913816,2024-11-24T09:18:33.816Z,49914,0.20708126,-0.066053465,-0.030254712
1732439913829,2024-11-24T09:18:33.829Z,49927,0.07685142,-0.05160032,-0.04271279
1732439913833,2024-11-24T09:18:33.833Z,49931,0.07685142,-0.05160032,-0.04271279
1732439913847,2024-11-24T09:18:33.847Z,49945,0.07765935,-0.018091576,-0.0783284
1732439913851,2024-11-24T09:18:33.851Z,49949,0.07765935,-0.018091576,-0.0783284
1732439913863,2024-11-24T09:18:33.863Z,49961,0.21267156,0.02182268,-0.1190816
1732439913867,2024-11-24T09:18:33.867Z,49965,0.21267156,0.02182268,-0.1190816
1732439913878,2024-11-24T09:18:33.878Z,49976,0.21513577,0.012809566,-0.15180324
1732439913882,2024-11-24T09:18:33.882Z,49980,0.21513577,0.012809566,-0.15180324
1732439913891,2024-11-24T09:18:33.891Z,49989,0.2418262,0.0131916525,-0.0049641435
1732439913894,2024-11-24T09:18:33.894Z,49992,0.2418262,0.0131916525,-0.0049641435
1732439913904,2024-11-24T09:18:33.904Z,50002,0.27270058,0.056125645,-0.081314385
1732439913907,2024-11-24T09:18:33.907Z,50005,0.27270058,0.056125645,-0.081314385
1732439913916,2024-11-24T09:18:33.916Z,50014,0.20218675,0.06505308,-0.10520714
1732439913918,2024-11-24T09:18:33.918Z,50016,0.20218675,0.06505308,-0.10520714
1732439913944,2024-11-24T09:18:33.944Z,50042,0.185957,0.07512785,-0.04836288
1732439913948,2024-11-24T09:18:33.948Z,50046,0.185957,0.07512785,-0.04836288
1732439913956,2024-11-24T09:18:33.956Z,50054,0.14340284,0.099130385,-0.091551565
1732439913959,2024-11-24T09:18:33.959Z,50057,0.14340284,0.099130385,-0.091551565
1732439913968,2024-11-24T09:18:33.968Z,50066,0.17783423,0.07917063,-0.1108542
1732439913971,2024-11-24T09:18:33.971Z,50069,0.17783423,0.07917063,-0.1108542
1732439913981,2024-11-24T09:18:33.981Z,50079,0.21347359,0.082721144,-0.006801809
1732439913984,2024-11-24T09:18:33.984Z,50082,0.21347359,0.082721144,-0.006801809
1732439913993,2024-11-24T09:18:33.993Z,50091,0.15357755,0.10941394,-0.11989103
1732439913995,2024-11-24T09:18:33.995Z,50093,0.15357755,0.10941394,-0.11989103
1732439914003,2024-11-24T09:18:34.003Z,50101,0.11622322,0.12643851,-0.17449497
1732439914006,2024-11-24T09:18:34.006Z,50104,0.11622322,0.12643851,-0.17449497
1732439914034,2024-11-24T09:18:34.034Z,50132,0.1451173,0.113687,-0.09888411
1732439914037,2024-11-24T09:18:34.037Z,50135,0.1451173,0.113687,-0.09888411
1732439914047,2024-11-24T09:18:34.047Z,50145,0.15057598,0.11669565,-0.14388172
1732439914050,2024-11-24T09:18:34.050Z,50148,0.15057598,0.11669565,-0.14388172
1732439914059,2024-11-24T09:18:34.059Z,50157,0.12221346,0.14327131,-0.081849635
1732439914062,2024-11-24T09:18:34.062Z,50160,0.12221346,0.14327131,-0.081849635
1732439914072,2024-11-24T09:18:34.072Z,50170,0.10006503,0.16012415,-0.034091827
1732439914075,2024-11-24T09:18:34.075Z,50173,0.10006503,0.16012415,-0.034091827
1732439914084,2024-11-24T09:18:34.084Z,50182,0.08061009,0.14142497,-0.1343201
1732439914087,2024-11-24T09:18:34.087Z,50185,0.08061009,0.14142497,-0.1343201
1732439914097,2024-11-24T09:18:34.097Z,50195,0.08292816,0.13213548,-0.20128468
1732439914099,2024-11-24T09:18:34.099Z,50197,0.08292816,0.13213548,-0.20128468
1732439914107,2024-11-24T09:18:34.107Z,50205,0.16041733,0.098882645,-0.105494834
1732439914110,2024-11-24T09:18:34.110Z,50208,0.16041733,0.098882645,-0.105494834
1732439914124,2024-11-24T09:18:34.124Z,50222,0.006105771,0.1675705,-0.0037640943
1732439914127,2024-11-24T09:18:34.127Z,50225,0.006105771,0.1675705,-0.0037640943
1732439914136,2024-11-24T09:18:34.136Z,50234,0.060582846,0.13656637,-0.123245046
1732439914138,2024-11-24T09:18:34.138Z,50236,0.060582846,0.13656637,-0.123245046
1732439914147,2024-11-24T09:18:34.147Z,50245,0.10206855,0.1289124,-0.13733646
1732439914149,2024-11-24T09:18:34.149Z,50247,0.10206855,0.1289124,-0.13733646
1732439914168,2024-11-24T09:18:34.168Z,50266,0.06664597,0.10571809,-0.13341409
1732439914170,2024-11-24T09:18:34.170Z,50268,0.06664597,0.10571809,-0.13341409
1732439914178,2024-11-24T09:18:34.178Z,50276,0.019452753,0.11937974,-0.050947774
1732439914181,2024-11-24T09:18:34.181Z,50279,0.019452753,0.11937974,-0.050947774
1732439914189,2024-11-24T09:18:34.189Z,50287,0.041924365,0.11664601,-0.066036634
1732439914191,2024-11-24T09:18:34.191Z,50289,0.041924365,0.11664601,-0.066036634
1732439914216,2024-11-24T09:18:34.216Z,50314,0.039424565,0.09830363,-0.19596542
1732439914222,2024-11-24T09:18:34.222Z,50320,0.039424565,0.09830363,-0.19596542
1732439914238,2024-11-24T09:18:34.238Z,50336,0.01956235,0.09377218,-0.0045860927
1732439914241,2024-11-24T09:18:34.241Z,50339,0.01956235,0.09377218,-0.0045860927
1732439914250,2024-11-24T09:18:34.250Z,50348,-0.01602545,0.114305064,0.0128686745
1732439914253,2024-11-24T09:18:34.253Z,50351,-0.01602545,0.114305064,0.0128686745
1732439914262,2024-11-24T09:18:34.262Z,50360,-0.0019563567,0.11522483,-0.00835725
1732439914265,2024-11-24T09:18:34.265Z,50363,-0.0019563567,0.11522483,-0.00835725
1732439914273,2024-11-24T09:18:34.273Z,50371,-0.011286327,0.13900024,-0.09517642
1732439914276,2024-11-24T09:18:34.276Z,50374,-0.011286327,0.13900024,-0.09517642
1732439914285,2024-11-24T09:18:34.285Z,50383,-0.004080733,0.09408794,-0.052118927
1732439914287,2024-11-24T09:18:34.287Z,50385,-0.004080733,0.09408794,-0.052118927
1732439914306,2024-11-24T09:18:34.306Z,50404,0.008282199,0.099826336,-0.04795182
1732439914313,2024-11-24T09:18:34.313Z,50411,0.008282199,0.099826336,-0.04795182
1732439914328,2024-11-24T09:18:34.328Z,50426,0.04653235,0.07999616,-0.009073789
1732439914331,2024-11-24T09:18:34.331Z,50429,0.04653235,0.07999616,-0.009073789
1732439914341,2024-11-24T09:18:34.341Z,50439,0.021951484,0.09013725,-0.05461651
1732439914345,2024-11-24T09:18:34.345Z,50443,0.021951484,0.09013725,-0.05461651
1732439914355,2024-11-24T09:18:34.355Z,50453,0.023358537,0.07289183,-0.018853482
1732439914357,2024-11-24T09:18:34.357Z,50455,0.023358537,0.07289183,-0.018853482
1732439914367,2024-11-24T09:18:34.367Z,50465,0.046249796,0.09236783,-0.070470214
1732439914370,2024-11-24T09:18:34.370Z,50468,0.046249796,0.09236783,-0.070470214
1732439914378,2024-11-24T09:18:34.378Z,50476,0.07235388,0.060564224,-0.12619847
1732439914381,2024-11-24T09:18:34.381Z,50479,0.07235388,0.060564224,-0.12619847
1732439914388,2024-11-24T09:18:34.388Z,50486,0.091797695,0.054082274,0.057307653
1732439914391,2024-11-24T09:18:34.391Z,50489,0.091797695,0.054082274,0.057307653
1732439914400,2024-11-24T09:18:34.400Z,50498,-0.025070801,0.087171,-0.036251944
1732439914403,2024-11-24T09:18:34.403Z,50501,-0.025070801,0.087171,-0.036251944
1732439914410,2024-11-24T09:18:34.410Z,50508,-0.0015464089,0.10128155,-0.028218891
1732439914412,2024-11-24T09:18:34.412Z,50510,-0.0015464089,0.10128155,-0.028218891
1732439914420,2024-11-24T09:18:34.420Z,50518,0.02001246,0.09323411,-0.07370334
1732439914423,2024-11-24T09:18:34.423Z,50521,0.02001246,0.09323411,-0.07370334
1732439914438,2024-11-24T09:18:34.438Z,50536,0.0745157,0.027386706,-0.04564902
1732439914441,2024-11-24T09:18:34.441Z,50539,0.0745157,0.027386706,-0.04564902
1732439914449,2024-11-24T09:18:34.449Z,50547,0.016453486,0.07366223,-0.0065357545
1732439914452,2024-11-24T09:18:34.452Z,50550,0.016453486,0.07366223,-0.0065357545
1732439914459,2024-11-24T09:18:34.459Z,50557,0.06371133,0.06466302,-0.0026187745
1732439914461,2024-11-24T09:18:34.461Z,50559,0.06371133,0.06466302,-0.0026187745
1732439914484,2024-11-24T09:18:34.484Z,50582,-0.021964246,0.09215417,-0.11249857
1732439914487,2024-11-24T09:18:34.487Z,50585,-0.021964246,0.09215417,-0.11249857
1732439914495,2024-11-24T09:18:34.495Z,50593,0.042647548,0.033101663,-0.0068329433
1732439914498,2024-11-24T09:18:34.498Z,50596,0.042647548,0.033101663,-0.0068329433
1732439914506,2024-11-24T09:18:34.506Z,50604,-0.010641112,0.053004965,-0.07629729
1732439914509,2024-11-24T09:18:34.509Z,50607,-0.010641112,0.053004965,-0.07629729
1732439914528,2024-11-24T09:18:34.528Z,50626,0.03576873,0.03234955,-0.07790004
1732439914530,2024-11-24T09:18:34.530Z,50628,0.03576873,0.03234955,-0.07790004
1732439914538,2024-11-24T09:18:34.538Z,50636,0.028698748,0.017815392,-0.074289
1732439914541,2024-11-24T09:18:34.541Z,50639,0.028698748,0.017815392,-0.074289
1732439914549,2024-11-24T09:18:34.549Z,50647,0.052636664,-0.02824307,-0.04806693
1732439914551,2024-11-24T09:18:34.551Z,50649,0.052636664,-0.02824307,-0.04806693
1732439914559,2024-11-24T09:18:34.559Z,50657,0.03783145,-0.009809863,-0.002629712
1732439914561,2024-11-24T09:18:34.561Z,50659,0.03783145,-0.009809863,-0.002629712
1732439914576,2024-11-24T09:18:34.576Z,50674,0.009981433,-0.021853117,-0.07245472
1732439914579,2024-11-24T09:18:34.579Z,50677,0.009981433,-0.021853117,-0.07245472
1732439914589,2024-11-24T09:18:34.589Z,50687,0.06213244,-0.037109535,-0.1004969
1732439914592,2024-11-24T09:18:34.592Z,50690,0.06213244,-0.037109535,-0.1004969
1732439914600,2024-11-24T09:18:34.600Z,50698,0.11673262,-0.051391333,-0.02413194
1732439914602,2024-11-24T09:18:34.602Z,50700,0.11673262,-0.051391333,-0.02413194
1732439914618,2024-11-24T09:18:34.618Z,50716,-0.0050450168,0.0186384,-0.034848772
1732439914621,2024-11-24T09:18:34.621Z,50719,-0.0050450168,0.0186384,-0.034848772
1732439914628,2024-11-24T09:18:34.628Z,50726,0.02379141,-0.009875214,-0.021091845
1732439914631,2024-11-24T09:18:34.631Z,50729,0.02379141,-0.009875214,-0.021091845
1732439914641,2024-11-24T09:18:34.641Z,50739,0.044275403,-0.0183487,-0.031409707
1732439914648,2024-11-24T09:18:34.648Z,50746,0.044275403,-0.0183487,-0.031409707
1732439914669,2024-11-24T09:18:34.669Z,50767,0.03668517,0.012790506,0.020939512
1732439914677,2024-11-24T09:18:34.677Z,50775,0.03668517,0.012790506,0.020939512
1732439914701,2024-11-24T09:18:34.701Z,50799,0.030791277,0.02108379,0.002123191
1732439914708,2024-11-24T09:18:34.708Z,50806,0.030791277,0.02108379,0.002123191
1732439914723,2024-11-24T09:18:34.723Z,50821,0.04438748,-8.881634E-4,-0.09427484
1732439914726,2024-11-24T09:18:34.726Z,50824,0.04438748,-8.881634E-4,-0.09427484
1732439914737,2024-11-24T09:18:34.737Z,50835,0.04804341,0.018809555,0.0015086099
1732439914740,2024-11-24T09:18:34.740Z,50838,0.04804341,0.018809555,0.0015086099
1732439914750,2024-11-24T09:18:34.750Z,50848,0.01950653,0.02534256,0.020766571
1732439914753,2024-11-24T09:18:34.753Z,50851,0.01950653,0.02534256,0.020766571
1732439914762,2024-11-24T09:18:34.762Z,50860,0.035580166,0.02205053,0.035586238
1732439914765,2024-11-24T09:18:34.765Z,50863,0.035580166,0.02205053,0.035586238
1732439914773,2024-11-24T09:18:34.773Z,50871,-0.00863866,0.019257285,-0.07281964
1732439914775,2024-11-24T09:18:34.775Z,50873,-0.00863866,0.019257285,-0.07281964
1732439914783,2024-11-24T09:18:34.783Z,50881,0.025335023,-0.026651612,-0.09822508
1732439914786,2024-11-24T09:18:34.786Z,50884,0.025335023,-0.026651612,-0.09822508
1732439914793,2024-11-24T09:18:34.793Z,50891,0.016678931,-0.012469005,-0.048179504
1732439914796,2024-11-24T09:18:34.796Z,50894,0.016678931,-0.012469005,-0.048179504
1732439914804,2024-11-24T09:18:34.804Z,50902,0.034771577,-0.0055107363,0.030391691
1732439914807,2024-11-24T09:18:34.807Z,50905,0.034771577,-0.0055107363,0.030391691
1732439914814,2024-11-24T09:18:34.814Z,50912,-0.0103813885,0.024661437,-0.053440064
1732439914816,2024-11-24T09:18:34.816Z,50914,-0.0103813885,0.024661437,-0.053440064
1732439914823,2024-11-24T09:18:34.823Z,50921,0.001013856,0.008971102,-0.08507394
1732439914825,2024-11-24T09:18:34.825Z,50923,0.001013856,0.008971102,-0.08507394
1732439914847,2024-11-24T09:18:34.847Z,50945,-0.011731624,0.004850035,-0.05684882
1732439914849,2024-11-24T09:18:34.849Z,50947,-0.011731624,0.004850035,-0.05684882
1732439914858,2024-11-24T09:18:34.858Z,50956,0.0043587396,0.011960982,-0.06542512
1732439914860,2024-11-24T09:18:34.860Z,50958,0.0043587396,0.011960982,-0.06542512
1732439914888,2024-11-24T09:18:34.888Z,50986,0.03119957,0.0058850427,-0.03152672
1732439914891,2024-11-24T09:18:34.891Z,50989,0.03119957,0.0058850427,-0.03152672
1732439914900,2024-11-24T09:18:34.900Z,50998,0.009139146,0.007322072,-0.037038974
1732439914903,2024-11-24T09:18:34.903Z,51001,0.009139146,0.007322072,-0.037038974
1732439914912,2024-11-24T09:18:34.912Z,51010,0.009048875,0.017571107,-0.010168105
1732439914915,2024-11-24T09:18:34.915Z,51013,0.009048875,0.017571107,-0.010168105
1732439914934,2024-11-24T09:18:34.934Z,51032,-0.011980967,0.0038966187,-0.037313096
1732439914938,2024-11-24T09:18:34.938Z,51036,-0.011980967,0.0038966187,-0.037313096
1732439914949,2024-11-24T09:18:34.949Z,51047,0.024494875,0.014660774,-0.07451385
1732439914953,2024-11-24T09:18:34.953Z,51051,0.024494875,0.014660774,-0.07451385
1732439914962,2024-11-24T09:18:34.962Z,51060,0.041144196,0.0011312827,-0.013775589
1732439914966,2024-11-24T09:18:34.966Z,51064,0.041144196,0.0011312827,-0.013775589
1732439914981,2024-11-24T09:18:34.981Z,51079,0.019510664,0.0145416455,-0.0059720003
1732439914984,2024-11-24T09:18:34.984Z,51082,0.019510664,0.0145416455,-0.0059720003
1732439914991,2024-11-24T09:18:34.991Z,51089,-0.022792604,0.05863152,0.00371778
1732439914994,2024-11-24T09:18:34.994Z,51092,-0.022792604,0.05863152,0.00371778
1732439915002,2024-11-24T09:18:35.002Z,51100,-0.009974699,0.08395045,0.029492317
1732439915005,2024-11-24T09:18:35.005Z,51103,-0.009974699,0.08395045,0.029492317
1732439915024,2024-11-24T09:18:35.024Z,51122,-9.522496E-4,0.108545564,-0.03963437
1732439915027,2024-11-24T09:18:35.027Z,51125,-9.522496E-4,0.108545564,-0.03963437
1732439915036,2024-11-24T09:18:35.036Z,51134,0.11497505,0.012618766,0.006373907
1732439915038,2024-11-24T09:18:35.038Z,51136,0.11497505,0.012618766,0.006373907
1732439915046,2024-11-24T09:18:35.046Z,51144,0.06309721,0.1014776,0.033395614
1732439915049,2024-11-24T09:18:35.049Z,51147,0.06309721,0.1014776,0.033395614
1732439915070,2024-11-24T09:18:35.070Z,51168,-0.037664406,0.11569298,-0.042196963
1732439915073,2024-11-24T09:18:35.073Z,51171,-0.037664406,0.11569298,-0.042196963
1732439915082,2024-11-24T09:18:35.082Z,51180,0.043524574,0.11955119,0.03495926
1732439915085,2024-11-24T09:18:35.085Z,51183,0.043524574,0.11955119,0.03495926
1732439915093,2024-11-24T09:18:35.093Z,51191,0.022947276,0.12913252,-0.06078049
1732439915096,2024-11-24T09:18:35.096Z,51194,0.022947276,0.12913252,-0.06078049
1732439915104,2024-11-24T09:18:35.104Z,51202,0.048656825,0.103897125,-0.114892244
1732439915107,2024-11-24T09:18:35.107Z,51205,0.048656825,0.103897125,-0.114892244
1732439915116,2024-11-24T09:18:35.116Z,51214,0.022751201,0.07446734,0.033595677
1732439915118,2024-11-24T09:18:35.118Z,51216,0.022751201,0.07446734,0.033595677
1732439915125,2024-11-24T09:18:35.125Z,51223,-0.023909057,0.06914585,-0.06592211
1732439915128,2024-11-24T09:18:35.128Z,51226,-0.023909057,0.06914585,-0.06592211
1732439915135,2024-11-24T09:18:35.135Z,51233,0.023183806,0.059744813,-0.040478498
1732439915138,2024-11-24T09:18:35.138Z,51236,0.023183806,0.059744813,-0.040478498
1732439915160,2024-11-24T09:18:35.160Z,51258,0.032488786,0.065523855,-0.040484395
1732439915163,2024-11-24T09:18:35.163Z,51261,0.032488786,0.065523855,-0.040484395
1732439915172,2024-11-24T09:18:35.172Z,51270,0.015117959,0.04266695,-0.17944938
1732439915174,2024-11-24T09:18:35.174Z,51272,0.015117959,0.04266695,-0.17944938
1732439915181,2024-11-24T09:18:35.181Z,51279,0.07676778,-0.009467065,-0.06785962
1732439915184,2024-11-24T09:18:35.184Z,51282,0.07676778,-0.009467065,-0.06785962
1732439915207,2024-11-24T09:18:35.207Z,51305,0.0686918,0.013814816,-0.043193363
1732439915210,2024-11-24T09:18:35.210Z,51308,0.0686918,0.013814816,-0.043193363
1732439915220,2024-11-24T09:18:35.220Z,51318,0.04872806,0.04395762,-0.01372164
1732439915228,2024-11-24T09:18:35.228Z,51326,0.04872806,0.04395762,-0.01372164
1732439915249,2024-11-24T09:18:35.249Z,51347,0.015068996,0.082877904,-0.020677987
1732439915251,2024-11-24T09:18:35.251Z,51349,0.015068996,0.082877904,-0.020677987
1732439915260,2024-11-24T09:18:35.260Z,51358,-0.0011487387,0.102742404,-0.09698689
1732439915262,2024-11-24T09:18:35.262Z,51360,-0.0011487387,0.102742404,-0.09698689
1732439915271,2024-11-24T09:18:35.271Z,51369,0.016929612,0.02909603,-0.2955034
1732439915273,2024-11-24T09:18:35.273Z,51371,0.016929612,0.02909603,-0.2955034
1732439915281,2024-11-24T09:18:35.281Z,51379,0.17596367,-0.031351786,-0.05714953
1732439915283,2024-11-24T09:18:35.283Z,51381,0.17596367,-0.031351786,-0.05714953
1732439915295,2024-11-24T09:18:35.295Z,51393,-0.011909101,0.036466043,0.07147332
1732439915297,2024-11-24T09:18:35.297Z,51395,-0.011909101,0.036466043,0.07147332
1732439915305,2024-11-24T09:18:35.305Z,51403,-1.4514221E-4,0.07504664,0.075265884
1732439915307,2024-11-24T09:18:35.307Z,51405,-1.4514221E-4,0.07504664,0.075265884
1732439915339,2024-11-24T09:18:35.339Z,51437,0.0017072809,0.15110219,-0.010327574
1732439915341,2024-11-24T09:18:35.341Z,51439,0.0017072809,0.15110219,-0.010327574
1732439915349,2024-11-24T09:18:35.349Z,51447,0.13897899,0.048873298,-0.15678786
1732439915352,2024-11-24T09:18:35.352Z,51450,0.13897899,0.048873298,-0.15678786
1732439915383,2024-11-24T09:18:35.383Z,51481,0.08374558,0.050668392,-0.11432618
1732439915385,2024-11-24T09:18:35.385Z,51483,0.08374558,0.050668392,-0.11432618
1732439915392,2024-11-24T09:18:35.392Z,51490,0.10549216,0.02183717,-0.07447934
1732439915395,2024-11-24T09:18:35.395Z,51493,0.10549216,0.02183717,-0.07447934
1732439915437,2024-11-24T09:18:35.437Z,51535,0.04386531,0.08090426,0.034640968
1732439915446,2024-11-24T09:18:35.446Z,51544,0.04386531,0.08090426,0.034640968
1732439915467,2024-11-24T09:18:35.467Z,51565,0.047327667,0.14425993,0.025192173
1732439915475,2024-11-24T09:18:35.475Z,51573,0.047327667,0.14425993,0.025192173
1732439915489,2024-11-24T09:18:35.489Z,51587,0.06504635,0.19619463,-0.016642755
1732439915493,2024-11-24T09:18:35.493Z,51591,0.06504635,0.19619463,-0.016642755
1732439915507,2024-11-24T09:18:35.507Z,51605,0.2203635,0.13473243,-0.010295895
1732439915514,2024-11-24T09:18:35.514Z,51612,0.2203635,0.13473243,-0.010295895
1732439915534,2024-11-24T09:18:35.534Z,51632,0.115211144,0.11225518,-0.026822744
1732439915540,2024-11-24T09:18:35.540Z,51638,0.115211144,0.11225518,-0.026822744
1732439915553,2024-11-24T09:18:35.553Z,51651,2.3616607E-4,0.15803021,-0.013929811
1732439915557,2024-11-24T09:18:35.557Z,51655,2.3616607E-4,0.15803021,-0.013929811
1732439915569,2024-11-24T09:18:35.569Z,51667,-0.045339026,-0.012640452,-0.039571263
1732439915572,2024-11-24T09:18:35.572Z,51670,-0.045339026,-0.012640452,-0.039571263
1732439915583,2024-11-24T09:18:35.583Z,51681,-0.053117674,-4.7777803E-4,0.006147539
1732439915586,2024-11-24T09:18:35.586Z,51684,-0.053117674,-4.7777803E-4,0.006147539
1732439915607,2024-11-24T09:18:35.607Z,51705,-0.10841217,0.034684855,-0.14238085
1732439915609,2024-11-24T09:18:35.609Z,51707,-0.10841217,0.034684855,-0.14238085
1732439915620,2024-11-24T09:18:35.620Z,51718,0.020858249,0.0030434644,-0.14556545
1732439915623,2024-11-24T09:18:35.623Z,51721,0.020858249,0.0030434644,-0.14556545
1732439915632,2024-11-24T09:18:35.632Z,51730,0.010161803,-0.06997002,-0.19387874
1732439915635,2024-11-24T09:18:35.635Z,51733,0.010161803,-0.06997002,-0.19387874
1732439915653,2024-11-24T09:18:35.653Z,51751,0.08898039,-0.0785182,-0.19221896
1732439915656,2024-11-24T09:18:35.656Z,51754,0.08898039,-0.0785182,-0.19221896
1732439915665,2024-11-24T09:18:35.665Z,51763,0.07453692,0.022791363,-0.09177454
1732439915668,2024-11-24T09:18:35.668Z,51766,0.07453692,0.022791363,-0.09177454
1732439915676,2024-11-24T09:18:35.676Z,51774,0.111236215,0.07823326,-0.11399603
1732439915678,2024-11-24T09:18:35.678Z,51776,0.111236215,0.07823326,-0.11399603
1732439915686,2024-11-24T09:18:35.686Z,51784,0.04867569,0.074030794,-0.14210969
1732439915688,2024-11-24T09:18:35.688Z,51786,0.04867569,0.074030794,-0.14210969
1732439915703,2024-11-24T09:18:35.703Z,51801,0.043052025,-0.0026918168,-0.10489249
1732439915708,2024-11-24T09:18:35.708Z,51806,0.043052025,-0.0026918168,-0.10489249
1732439915726,2024-11-24T09:18:35.726Z,51824,0.01891152,-0.0076959897,-0.19282448
1732439915728,2024-11-24T09:18:35.728Z,51826,0.01891152,-0.0076959897,-0.19282448
1732439915745,2024-11-24T09:18:35.745Z,51843,0.10964493,-0.053301375,-0.18881232
1732439915750,2024-11-24T09:18:35.750Z,51848,0.10964493,-0.053301375,-0.18881232
1732439915767,2024-11-24T09:18:35.767Z,51865,-0.011675244,-0.054010116,-0.123582065
1732439915773,2024-11-24T09:18:35.773Z,51871,-0.011675244,-0.054010116,-0.123582065
1732439915789,2024-11-24T09:18:35.789Z,51887,0.021949053,-0.044944003,-0.1018548
1732439915793,2024-11-24T09:18:35.793Z,51891,0.021949053,-0.044944003,-0.1018548
1732439915805,2024-11-24T09:18:35.805Z,51903,0.012381992,-0.022307556,-0.12016201
1732439915808,2024-11-24T09:18:35.808Z,51906,0.012381992,-0.022307556,-0.12016201
1732439915819,2024-11-24T09:18:35.819Z,51917,0.03432356,0.0065649985,-0.21779925
1732439915822,2024-11-24T09:18:35.822Z,51920,0.03432356,0.0065649985,-0.21779925
1732439915832,2024-11-24T09:18:35.832Z,51930,0.04475624,-0.006746074,-0.15965566
1732439915835,2024-11-24T09:18:35.835Z,51933,0.04475624,-0.006746074,-0.15965566
1732439915846,2024-11-24T09:18:35.846Z,51944,-0.037887465,-0.033364136,-0.14752544
1732439915849,2024-11-24T09:18:35.849Z,51947,-0.037887465,-0.033364136,-0.14752544
1732439915863,2024-11-24T09:18:35.863Z,51961,0.021706736,-0.047997873,-0.09180593
1732439915866,2024-11-24T09:18:35.866Z,51964,0.021706736,-0.047997873,-0.09180593
1732439915875,2024-11-24T09:18:35.875Z,51973,0.028748054,-0.036945086,-0.10501324
1732439915877,2024-11-24T09:18:35.877Z,51975,0.028748054,-0.036945086,-0.10501324
1732439915885,2024-11-24T09:18:35.885Z,51983,0.13502274,-0.06306747,-0.14248906
1732439915888,2024-11-24T09:18:35.888Z,51986,0.13502274,-0.06306747,-0.14248906
1732439915896,2024-11-24T09:18:35.896Z,51994,0.09636648,-0.074293755,-0.1781607
1732439915899,2024-11-24T09:18:35.899Z,51997,0.09636648,-0.074293755,-0.1781607
1732439915906,2024-11-24T09:18:35.906Z,52004,0.060056057,-0.05557775,-0.043530103
1732439915908,2024-11-24T09:18:35.908Z,52006,0.060056057,-0.05557775,-0.043530103
1732439915916,2024-11-24T09:18:35.916Z,52014,0.0221594,-0.057307787,-0.045584977
1732439915918,2024-11-24T09:18:35.918Z,52016,0.0221594,-0.057307787,-0.045584977
1732439915928,2024-11-24T09:18:35.928Z,52026,0.03038709,0.0037792407,-0.05771603
1732439915932,2024-11-24T09:18:35.932Z,52030,0.03038709,0.0037792407,-0.05771603
1732439915946,2024-11-24T09:18:35.946Z,52044,0.07408584,-0.041205607,-0.1402614
1732439915952,2024-11-24T09:18:35.952Z,52050,0.07408584,-0.041205607,-0.1402614
1732439915970,2024-11-24T09:18:35.970Z,52068,0.09768973,-0.020764625,-0.20199664
1732439915975,2024-11-24T09:18:35.975Z,52073,0.09768973,-0.020764625,-0.20199664
1732439915992,2024-11-24T09:18:35.992Z,52090,0.05249711,-0.055143636,-5.9965372E-5
1732439915996,2024-11-24T09:18:35.996Z,52094,0.05249711,-0.055143636,-5.9965372E-5
1732439916008,2024-11-24T09:18:36.008Z,52106,-0.04676458,-0.028780073,0.03703484
1732439916014,2024-11-24T09:18:36.014Z,52112,-0.04676458,-0.028780073,0.03703484
1732439916026,2024-11-24T09:18:36.026Z,52124,-0.038987145,-0.0058872793,-0.059544556
1732439916029,2024-11-24T09:18:36.029Z,52127,-0.038987145,-0.0058872793,-0.059544556
1732439916039,2024-11-24T09:18:36.039Z,52137,0.09153145,-0.026440779,-0.14129607
1732439916042,2024-11-24T09:18:36.042Z,52140,0.09153145,-0.026440779,-0.14129607
1732439916051,2024-11-24T09:18:36.051Z,52149,-0.03225517,-0.012878612,-0.11835632
1732439916054,2024-11-24T09:18:36.054Z,52152,-0.03225517,-0.012878612,-0.11835632
1732439916064,2024-11-24T09:18:36.064Z,52162,-0.024222849,-0.008599616,-0.06627568
1732439916066,2024-11-24T09:18:36.066Z,52164,-0.024222849,-0.008599616,-0.06627568
1732439916077,2024-11-24T09:18:36.077Z,52175,0.061913244,-0.035774518,0.006406157
1732439916083,2024-11-24T09:18:36.083Z,52181,0.061913244,-0.035774518,0.006406157
1732439916101,2024-11-24T09:18:36.101Z,52199,-0.04342023,0.015953196,0.04677486
1732439916106,2024-11-24T09:18:36.106Z,52204,-0.04342023,0.015953196,0.04677486
1732439916123,2024-11-24T09:18:36.123Z,52221,-0.004012003,0.014903991,-0.013125148
1732439916128,2024-11-24T09:18:36.128Z,52226,-0.004012003,0.014903991,-0.013125148
1732439916146,2024-11-24T09:18:36.146Z,52244,7.11367E-5,0.018760737,-0.07526013
1732439916150,2024-11-24T09:18:36.150Z,52248,7.11367E-5,0.018760737,-0.07526013
1732439916161,2024-11-24T09:18:36.161Z,52259,-0.025625406,0.04712284,-0.09132108
1732439916165,2024-11-24T09:18:36.165Z,52263,-0.025625406,0.04712284,-0.09132108
1732439916175,2024-11-24T09:18:36.175Z,52273,0.07209936,0.0037859508,-0.08276551
1732439916178,2024-11-24T09:18:36.178Z,52276,0.07209936,0.0037859508,-0.08276551
1732439916188,2024-11-24T09:18:36.188Z,52286,-0.053375185,0.03851,-0.03946313
1732439916191,2024-11-24T09:18:36.191Z,52289,-0.053375185,0.03851,-0.03946313
1732439916204,2024-11-24T09:18:36.204Z,52302,0.06257886,0.013238429,-0.050105512
1732439916211,2024-11-24T09:18:36.211Z,52309,0.06257886,0.013238429,-0.050105512
1732439916232,2024-11-24T09:18:36.232Z,52330,0.005725605,-5.772624E-4,-0.0018830318
1732439916237,2024-11-24T09:18:36.237Z,52335,0.005725605,-5.772624E-4,-0.0018830318
1732439916255,2024-11-24T09:18:36.255Z,52353,0.01883343,2.2775415E-4,-0.0226934
1732439916261,2024-11-24T09:18:36.261Z,52359,0.01883343,2.2775415E-4,-0.0226934
1732439916279,2024-11-24T09:18:36.279Z,52377,-0.09283743,0.029952684,-0.03176883
1732439916285,2024-11-24T09:18:36.285Z,52383,-0.09283743,0.029952684,-0.03176883
1732439916303,2024-11-24T09:18:36.303Z,52401,-0.06043741,1.1553028E-4,-0.040694747
1732439916308,2024-11-24T09:18:36.308Z,52406,-0.06043741,1.1553028E-4,-0.040694747
1732439916320,2024-11-24T09:18:36.320Z,52418,0.03706057,0.011490012,-0.037593096
1732439916324,2024-11-24T09:18:36.324Z,52422,0.03706057,0.011490012,-0.037593096
1732439916335,2024-11-24T09:18:36.335Z,52433,0.021141313,0.029996349,-0.03330132
1732439916339,2024-11-24T09:18:36.339Z,52437,0.021141313,0.029996349,-0.03330132
1732439916349,2024-11-24T09:18:36.349Z,52447,-0.027809102,0.052589037,-0.0608471
1732439916352,2024-11-24T09:18:36.352Z,52450,-0.027809102,0.052589037,-0.0608471
1732439916361,2024-11-24T09:18:36.361Z,52459,-0.006145618,0.039897334,-0.11658439
1732439916364,2024-11-24T09:18:36.364Z,52462,-0.006145618,0.039897334,-0.11658439
1732439916373,2024-11-24T09:18:36.373Z,52471,0.048000645,0.034283612,-0.119757086
1732439916376,2024-11-24T09:18:36.376Z,52474,0.048000645,0.034283612,-0.119757086
1732439916385,2024-11-24T09:18:36.385Z,52483,0.039066985,-0.0050158426,-0.05395701
1732439916388,2024-11-24T09:18:36.388Z,52486,0.039066985,-0.0050158426,-0.05395701
1732439916397,2024-11-24T09:18:36.397Z,52495,0.021296715,0.01848183,-0.15944022
1732439916400,2024-11-24T09:18:36.400Z,52498,0.021296715,0.01848183,-0.15944022
1732439916413,2024-11-24T09:18:36.413Z,52511,0.12338506,-0.041691553,-0.10946708
1732439916416,2024-11-24T09:18:36.416Z,52514,0.12338506,-0.041691553,-0.10946708
1732439916425,2024-11-24T09:18:36.425Z,52523,0.017980324,-0.037697494,-0.0101922415
1732439916427,2024-11-24T09:18:36.427Z,52525,0.017980324,-0.037697494,-0.0101922415
1732439916435,2024-11-24T09:18:36.435Z,52533,-0.07966392,-0.012561292,-0.009951
1732439916437,2024-11-24T09:18:36.437Z,52535,-0.07966392,-0.012561292,-0.009951
1732439916444,2024-11-24T09:18:36.444Z,52542,-0.036900546,-0.016275864,-0.03167665
1732439916446,2024-11-24T09:18:36.446Z,52544,-0.036900546,-0.016275864,-0.03167665
1732439916462,2024-11-24T09:18:36.462Z,52560,-0.044825558,-0.026884617,-0.1124011
1732439916465,2024-11-24T09:18:36.465Z,52563,-0.044825558,-0.026884617,-0.1124011
1732439916473,2024-11-24T09:18:36.473Z,52571,0.0059917234,-0.03939709,-0.09444252
1732439916475,2024-11-24T09:18:36.475Z,52573,0.0059917234,-0.03939709,-0.09444252
1732439916482,2024-11-24T09:18:36.482Z,52580,0.049201995,-0.025402173,0.012390526
1732439916485,2024-11-24T09:18:36.485Z,52583,0.049201995,-0.025402173,0.012390526
1732439916492,2024-11-24T09:18:36.492Z,52590,0.025297243,-0.011258174,0.010332935
1732439916494,2024-11-24T09:18:36.494Z,52592,0.025297243,-0.011258174,0.010332935
1732439916511,2024-11-24T09:18:36.511Z,52609,-0.06172502,0.01773487,-0.0713576
1732439916514,2024-11-24T09:18:36.514Z,52612,-0.06172502,0.01773487,-0.0713576
1732439916522,2024-11-24T09:18:36.522Z,52620,-0.094032995,0.008810157,-0.09748288
1732439916525,2024-11-24T09:18:36.525Z,52623,-0.094032995,0.008810157,-0.09748288
1732439916554,2024-11-24T09:18:36.554Z,52652,-0.03434716,-0.0041450867,-0.15751794
1732439916556,2024-11-24T09:18:36.556Z,52654,-0.03434716,-0.0041450867,-0.15751794
1732439916564,2024-11-24T09:18:36.564Z,52662,0.055920817,-0.050448418,-0.0146153895
1732439916567,2024-11-24T09:18:36.567Z,52665,0.055920817,-0.050448418,-0.0146153895
1732439916575,2024-11-24T09:18:36.575Z,52673,-0.038281027,-0.04251816,0.059730798
1732439916578,2024-11-24T09:18:36.578Z,52676,-0.038281027,-0.04251816,0.059730798
1732439916587,2024-11-24T09:18:36.587Z,52685,-0.02648911,-0.0116161425,-0.04375392
1732439916589,2024-11-24T09:18:36.589Z,52687,-0.02648911,-0.0116161425,-0.04375392
1732439916602,2024-11-24T09:18:36.602Z,52700,-0.08242527,-0.030332243,-0.12675323
1732439916604,2024-11-24T09:18:36.604Z,52702,-0.08242527,-0.030332243,-0.12675323
1732439916649,2024-11-24T09:18:36.649Z,52747,-0.0683684,0.0055947583,-0.14108966
1732439916655,2024-11-24T09:18:36.655Z,52753,-0.0683684,0.0055947583,-0.14108966
1732439916676,2024-11-24T09:18:36.676Z,52774,0.0010272276,-0.03714785,-0.11715338
1732439916681,2024-11-24T09:18:36.681Z,52779,0.0010272276,-0.03714785,-0.11715338
1732439916699,2024-11-24T09:18:36.699Z,52797,0.04840916,-0.017259525,-0.057646185
1732439916702,2024-11-24T09:18:36.702Z,52800,0.04840916,-0.017259525,-0.057646185
1732439916714,2024-11-24T09:18:36.714Z,52812,-0.03406505,-0.027929641,-0.016587883
1732439916717,2024-11-24T09:18:36.717Z,52815,-0.03406505,-0.027929641,-0.016587883
1732439916728,2024-11-24T09:18:36.728Z,52826,-0.071429275,0.010660878,-0.08020692
1732439916731,2024-11-24T09:18:36.731Z,52829,-0.071429275,0.010660878,-0.08020692
1732439916743,2024-11-24T09:18:36.743Z,52841,0.013685088,-0.0013226662,-0.18797414
1732439916746,2024-11-24T09:18:36.746Z,52844,0.013685088,-0.0013226662,-0.18797414
1732439916759,2024-11-24T09:18:36.759Z,52857,0.0021864204,0.01162081,-0.13379234
1732439916764,2024-11-24T09:18:36.764Z,52862,0.0021864204,0.01162081,-0.13379234
1732439916777,2024-11-24T09:18:36.777Z,52875,-0.0049947887,-0.0037252682,-0.008223115
1732439916780,2024-11-24T09:18:36.780Z,52878,-0.0049947887,-0.0037252682,-0.008223115
1732439916791,2024-11-24T09:18:36.791Z,52889,-0.018567434,-0.0042507946,-0.038895186
1732439916793,2024-11-24T09:18:36.793Z,52891,-0.018567434,-0.0042507946,-0.038895186
1732439916804,2024-11-24T09:18:36.804Z,52902,-0.052328534,0.03139234,-0.10007185
1732439916810,2024-11-24T09:18:36.810Z,52908,-0.052328534,0.03139234,-0.10007185
1732439916830,2024-11-24T09:18:36.830Z,52928,-0.028388675,-0.013390816,-0.14968151
1732439916837,2024-11-24T09:18:36.837Z,52935,-0.028388675,-0.013390816,-0.14968151
1732439916858,2024-11-24T09:18:36.858Z,52956,-0.011680082,-0.0380258,-0.12357821
1732439916864,2024-11-24T09:18:36.864Z,52962,-0.011680082,-0.0380258,-0.12357821
1732439916884,2024-11-24T09:18:36.884Z,52982,-0.033107862,-0.03335937,-0.022665795
1732439916890,2024-11-24T09:18:36.890Z,52988,-0.033107862,-0.03335937,-0.022665795
1732439916911,2024-11-24T09:18:36.911Z,53009,-0.06277165,-0.016924992,-0.0877732
1732439916917,2024-11-24T09:18:36.917Z,53015,-0.06277165,-0.016924992,-0.0877732
1732439916937,2024-11-24T09:18:36.937Z,53035,-0.073215835,-0.029474907,-0.14458987
1732439916945,2024-11-24T09:18:36.945Z,53043,-0.073215835,-0.029474907,-0.14458987
1732439916963,2024-11-24T09:18:36.963Z,53061,0.015274553,-0.03708357,-0.1861223
1732439916966,2024-11-24T09:18:36.966Z,53064,0.015274553,-0.03708357,-0.1861223
1732439916978,2024-11-24T09:18:36.978Z,53076,0.02031128,-0.07466465,-0.10377744
1732439916982,2024-11-24T09:18:36.982Z,53080,0.02031128,-0.07466465,-0.10377744
1732439916994,2024-11-24T09:18:36.994Z,53092,-0.054200407,-0.061055712,0.0029538264
1732439916997,2024-11-24T09:18:36.997Z,53095,-0.054200407,-0.061055712,0.0029538264
1732439917009,2024-11-24T09:18:37.009Z,53107,-0.11055436,-0.024052083,-0.005312443
1732439917013,2024-11-24T09:18:37.013Z,53111,-0.11055436,-0.024052083,-0.005312443
1732439917029,2024-11-24T09:18:37.029Z,53127,-0.03529562,-0.041099314,-0.062834226
1732439917031,2024-11-24T09:18:37.031Z,53129,-0.03529562,-0.041099314,-0.062834226
1732439917040,2024-11-24T09:18:37.040Z,53138,-0.016831586,-0.043941963,-0.109660886
1732439917042,2024-11-24T09:18:37.042Z,53140,-0.016831586,-0.043941963,-0.109660886
1732439917051,2024-11-24T09:18:37.051Z,53149,-0.042548843,-0.039270084,-0.19109645
1732439917055,2024-11-24T09:18:37.055Z,53153,-0.042548843,-0.039270084,-0.19109645
1732439917068,2024-11-24T09:18:37.068Z,53166,-0.031077428,-0.03142307,-0.013885825
1732439917074,2024-11-24T09:18:37.074Z,53172,-0.031077428,-0.03142307,-0.013885825
1732439917084,2024-11-24T09:18:37.084Z,53182,-0.046845853,-0.025370082,-0.010668754
1732439917087,2024-11-24T09:18:37.087Z,53185,-0.046845853,-0.025370082,-0.010668754
1732439917096,2024-11-24T09:18:37.096Z,53194,-0.03772426,-0.017363483,-0.022066385
1732439917098,2024-11-24T09:18:37.098Z,53196,-0.03772426,-0.017363483,-0.022066385
1732439917107,2024-11-24T09:18:37.107Z,53205,0.10593821,-0.026102064,-0.21215275
1732439917110,2024-11-24T09:18:37.110Z,53208,0.10593821,-0.026102064,-0.21215275
1732439917117,2024-11-24T09:18:37.117Z,53215,0.06669885,-0.030452732,-0.11968657
1732439917120,2024-11-24T09:18:37.120Z,53218,0.06669885,-0.030452732,-0.11968657
1732439917127,2024-11-24T09:18:37.127Z,53225,-0.001384151,-0.014758313,-0.0091923475
1732439917129,2024-11-24T09:18:37.129Z,53227,-0.001384151,-0.014758313,-0.0091923475
1732439917136,2024-11-24T09:18:37.136Z,53234,-0.06218933,0.0033621453,0.010858385
1732439917139,2024-11-24T09:18:37.139Z,53237,-0.06218933,0.0033621453,0.010858385
1732439917147,2024-11-24T09:18:37.147Z,53245,-1.4638212E-4,0.012286277,-0.055241104
1732439917149,2024-11-24T09:18:37.149Z,53247,-1.4638212E-4,0.012286277,-0.055241104
1732439917158,2024-11-24T09:18:37.158Z,53256,-0.024931274,0.010917709,-0.06729323
1732439917161,2024-11-24T09:18:37.161Z,53259,-0.024931274,0.010917709,-0.06729323
1732439917168,2024-11-24T09:18:37.168Z,53266,0.11474423,-0.019422995,-0.05128887
1732439917170,2024-11-24T09:18:37.170Z,53268,0.11474423,-0.019422995,-0.05128887
1732439917177,2024-11-24T09:18:37.177Z,53275,0.030444661,0.01267624,-0.012822003
1732439917179,2024-11-24T09:18:37.179Z,53277,0.030444661,0.01267624,-0.012822003
1732439917185,2024-11-24T09:18:37.185Z,53283,-0.11315411,0.0062759784,0.021144269
1732439917188,2024-11-24T09:18:37.188Z,53286,-0.11315411,0.0062759784,0.021144269
1732439917195,2024-11-24T09:18:37.195Z,53293,0.043657806,-0.007201971,-0.04270336
1732439917197,2024-11-24T09:18:37.197Z,53295,0.043657806,-0.007201971,-0.04270336
1732439917205,2024-11-24T09:18:37.205Z,53303,0.012036934,-0.010237364,-0.0694277
1732439917208,2024-11-24T09:18:37.208Z,53306,0.012036934,-0.010237364,-0.0694277
1732439917216,2024-11-24T09:18:37.216Z,53314,0.025833856,-0.0046637086,-0.1194199
1732439917218,2024-11-24T09:18:37.218Z,53316,0.025833856,-0.0046637086,-0.1194199
1732439917226,2024-11-24T09:18:37.226Z,53324,-0.011582495,0.011016027,-0.039754033
1732439917229,2024-11-24T09:18:37.229Z,53327,-0.011582495,0.011016027,-0.039754033
1732439917239,2024-11-24T09:18:37.239Z,53337,0.038939394,-0.007919757,-0.042017847
1732439917242,2024-11-24T09:18:37.242Z,53340,0.038939394,-0.007919757,-0.042017847
1732439917250,2024-11-24T09:18:37.250Z,53348,0.032693394,-0.0072542904,-0.041399416
1732439917253,2024-11-24T09:18:37.253Z,53351,0.032693394,-0.0072542904,-0.041399416
1732439917261,2024-11-24T09:18:37.261Z,53359,-0.017665243,-6.1985693E-4,-0.051047172
1732439917263,2024-11-24T09:18:37.263Z,53361,-0.017665243,-6.1985693E-4,-0.051047172
1732439917273,2024-11-24T09:18:37.273Z,53371,-0.004752593,-0.0031137746,-0.088031314
1732439917276,2024-11-24T09:18:37.276Z,53374,-0.004752593,-0.0031137746,-0.088031314
1732439917286,2024-11-24T09:18:37.286Z,53384,0.012695957,0.002379457,-0.05618924
1732439917290,2024-11-24T09:18:37.290Z,53388,0.012695957,0.002379457,-0.05618924
1732439917306,2024-11-24T09:18:37.306Z,53404,-0.0072754906,0.01763704,-0.027989151
1732439917309,2024-11-24T09:18:37.309Z,53407,-0.0072754906,0.01763704,-0.027989151
1732439917316,2024-11-24T09:18:37.316Z,53414,0.019948399,0.008457244,-0.022222934
1732439917319,2024-11-24T09:18:37.319Z,53417,0.019948399,0.008457244,-0.022222934
1732439917328,2024-11-24T09:18:37.328Z,53426,0.0039032071,0.008974019,-0.04420453
1732439917330,2024-11-24T09:18:37.330Z,53428,0.0039032071,0.008974019,-0.04420453
1732439917337,2024-11-24T09:18:37.337Z,53435,-0.033458684,0.011764834,-0.049504694
1732439917340,2024-11-24T09:18:37.340Z,53438,-0.033458684,0.011764834,-0.049504694
1732439917350,2024-11-24T09:18:37.350Z,53448,0.0048594926,0.0077100904,-0.06361121
1732439917356,2024-11-24T09:18:37.356Z,53454,0.0048594926,0.0077100904,-0.06361121
1732439917372,2024-11-24T09:18:37.372Z,53470,0.043037366,-0.0054076537,-0.06433021
1732439917376,2024-11-24T09:18:37.376Z,53474,0.043037366,-0.0054076537,-0.06433021
1732439917389,2024-11-24T09:18:37.389Z,53487,-0.042290673,-0.005655927,-0.020338504
1732439917392,2024-11-24T09:18:37.392Z,53490,-0.042290673,-0.005655927,-0.020338504
1732439917400,2024-11-24T09:18:37.400Z,53498,-0.045865476,-0.02214953,9.857089E-4
1732439917403,2024-11-24T09:18:37.403Z,53501,-0.045865476,-0.02214953,9.857089E-4
1732439917412,2024-11-24T09:18:37.412Z,53510,-0.01054829,-0.028510598,-0.015893996
1732439917415,2024-11-24T09:18:37.415Z,53513,-0.01054829,-0.028510598,-0.015893996
1732439917425,2024-11-24T09:18:37.425Z,53523,-9.2560373E-4,-0.029892197,-0.058388706
1732439917428,2024-11-24T09:18:37.428Z,53526,-9.2560373E-4,-0.029892197,-0.058388706
1732439917437,2024-11-24T09:18:37.437Z,53535,0.008963371,-0.032394867,-0.0671159
1732439917440,2024-11-24T09:18:37.440Z,53538,0.008963371,-0.032394867,-0.0671159
1732439917449,2024-11-24T09:18:37.449Z,53547,-0.004396423,-0.019163828,-0.029884873
1732439917452,2024-11-24T09:18:37.452Z,53550,-0.004396423,-0.019163828,-0.029884873
1732439917461,2024-11-24T09:18:37.461Z,53559,-0.025232475,-0.034033295,-0.006000728
1732439917466,2024-11-24T09:18:37.466Z,53564,-0.025232475,-0.034033295,-0.006000728
1732439917475,2024-11-24T09:18:37.475Z,53573,0.0041781995,-0.028054507,-0.015092014
1732439917477,2024-11-24T09:18:37.477Z,53575,0.0041781995,-0.028054507,-0.015092014
1732439917484,2024-11-24T09:18:37.484Z,53582,-0.014564912,-0.023607856,-0.048630476
1732439917486,2024-11-24T09:18:37.486Z,53584,-0.014564912,-0.023607856,-0.048630476
1732439917499,2024-11-24T09:18:37.499Z,53597,-0.0010174055,-0.011418632,-0.039601117
1732439917501,2024-11-24T09:18:37.501Z,53599,-0.0010174055,-0.011418632,-0.039601117
1732439917509,2024-11-24T09:18:37.509Z,53607,0.001856313,-0.0062108226,-0.01101455
1732439917512,2024-11-24T09:18:37.512Z,53610,0.001856313,-0.0062108226,-0.01101455
1732439917521,2024-11-24T09:18:37.521Z,53619,0.0049331333,0.0034881784,-0.013291896
1732439917523,2024-11-24T09:18:37.523Z,53621,0.0049331333,0.0034881784,-0.013291896
1732439917545,2024-11-24T09:18:37.545Z,53643,-0.0018481686,0.002949037,-0.04769149
1732439917547,2024-11-24T09:18:37.547Z,53645,-0.0018481686,0.002949037,-0.04769149
1732439917556,2024-11-24T09:18:37.556Z,53654,-3.4311425E-4,9.784093E-4,-0.039952602
1732439917558,2024-11-24T09:18:37.558Z,53656,-3.4311425E-4,9.784093E-4,-0.039952602
1732439917566,2024-11-24T09:18:37.566Z,53664,0.0037449608,0.008766493,-0.055645343
1732439917568,2024-11-24T09:18:37.568Z,53666,0.0037449608,0.008766493,-0.055645343
1732439917591,2024-11-24T09:18:37.591Z,53689,-0.039028548,0.020619044,-0.061320122
1732439917593,2024-11-24T09:18:37.593Z,53691,-0.039028548,0.020619044,-0.061320122
1732439917602,2024-11-24T09:18:37.602Z,53700,-0.045372695,0.014128148,-0.051066283
1732439917605,2024-11-24T09:18:37.605Z,53703,-0.045372695,0.014128148,-0.051066283
1732439917613,2024-11-24T09:18:37.613Z,53711,-0.030757604,0.006352318,-0.07217121
1732439917615,2024-11-24T09:18:37.615Z,53713,-0.030757604,0.006352318,-0.07217121
1732439917635,2024-11-24T09:18:37.635Z,53733,-0.060391802,0.0047042607,-0.042182144
1732439917638,2024-11-24T09:18:37.638Z,53736,-0.060391802,0.0047042607,-0.042182144
1732439917646,2024-11-24T09:18:37.646Z,53744,-0.058416218,0.008262457,-0.07435709
1732439917649,2024-11-24T09:18:37.649Z,53747,-0.058416218,0.008262457,-0.07435709
1732439917657,2024-11-24T09:18:37.657Z,53755,-0.068692744,0.01816354,-0.07658296
1732439917660,2024-11-24T09:18:37.660Z,53758,-0.068692744,0.01816354,-0.07658296
1732439917681,2024-11-24T09:18:37.681Z,53779,-0.008823674,0.025331765,-0.05842006
1732439917684,2024-11-24T09:18:37.684Z,53782,-0.008823674,0.025331765,-0.05842006
1732439917693,2024-11-24T09:18:37.693Z,53791,-0.0012839616,0.025343435,-0.07441827
1732439917695,2024-11-24T09:18:37.695Z,53793,-0.0012839616,0.025343435,-0.07441827
1732439917704,2024-11-24T09:18:37.704Z,53802,-0.019265866,0.012194377,-0.0563299
1732439917707,2024-11-24T09:18:37.707Z,53805,-0.019265866,0.012194377,-0.0563299
1732439917728,2024-11-24T09:18:37.728Z,53826,-0.0051787323,-0.0030252791,-0.06467444
1732439917734,2024-11-24T09:18:37.734Z,53832,-0.0051787323,-0.0030252791,-0.06467444
1732439917750,2024-11-24T09:18:37.750Z,53848,-0.025925608,-0.0065495363,-0.06110438
1732439917753,2024-11-24T09:18:37.753Z,53851,-0.025925608,-0.0065495363,-0.06110438
1732439917767,2024-11-24T09:18:37.767Z,53865,-0.0153978625,-0.016037412,-0.04856014
1732439917773,2024-11-24T09:18:37.773Z,53871,-0.0153978625,-0.016037412,-0.04856014
1732439917819,2024-11-24T09:18:37.819Z,53917,-0.017712552,-0.043364797,-0.058007415
1732439917826,2024-11-24T09:18:37.826Z,53924,-0.017712552,-0.043364797,-0.058007415
1732439917847,2024-11-24T09:18:37.847Z,53945,-0.03700504,-0.05490849,-0.06227177
1732439917853,2024-11-24T09:18:37.853Z,53951,-0.03700504,-0.05490849,-0.06227177
1732439917872,2024-11-24T09:18:37.872Z,53970,-0.047282156,-0.07190389,-0.086054415
1732439917877,2024-11-24T09:18:37.877Z,53975,-0.047282156,-0.07190389,-0.086054415
1732439917889,2024-11-24T09:18:37.889Z,53987,-0.071566805,-0.14156613,-0.09807077
1732439917893,2024-11-24T09:18:37.893Z,53991,-0.071566805,-0.14156613,-0.09807077
1732439917905,2024-11-24T09:18:37.905Z,54003,-0.09865812,-0.16782592,-0.008113413
1732439917909,2024-11-24T09:18:37.909Z,54007,-0.09865812,-0.16782592,-0.008113413
1732439917919,2024-11-24T09:18:37.919Z,54017,-0.09782391,-0.16935883,-0.006077077
1732439917923,2024-11-24T09:18:37.923Z,54021,-0.09782391,-0.16935883,-0.006077077
1732439917933,2024-11-24T09:18:37.933Z,54031,-0.080269575,-0.21349365,-0.049687263
1732439917937,2024-11-24T09:18:37.937Z,54035,-0.080269575,-0.21349365,-0.049687263
1732439917947,2024-11-24T09:18:37.947Z,54045,-0.09582109,-0.2676359,0.037701603
1732439917950,2024-11-24T09:18:37.950Z,54048,-0.09582109,-0.2676359,0.037701603
1732439917960,2024-11-24T09:18:37.960Z,54058,-0.16381706,-0.2658597,0.06333113
1732439917963,2024-11-24T09:18:37.963Z,54061,-0.16381706,-0.2658597,0.06333113
1732439917972,2024-11-24T09:18:37.972Z,54070,-0.11469232,-0.25451994,0.031606607
1732439917975,2024-11-24T09:18:37.975Z,54073,-0.11469232,-0.25451994,0.031606607
1732439917983,2024-11-24T09:18:37.983Z,54081,-0.095230214,-0.25073844,-0.015264214
1732439917986,2024-11-24T09:18:37.986Z,54084,-0.095230214,-0.25073844,-0.015264214
1732439917994,2024-11-24T09:18:37.994Z,54092,-0.1272524,-0.2584962,-0.054315742
1732439917996,2024-11-24T09:18:37.996Z,54094,-0.1272524,-0.2584962,-0.054315742
1732439918003,2024-11-24T09:18:38.003Z,54101,-0.13507365,-0.21935797,0.054162435
1732439918005,2024-11-24T09:18:38.005Z,54103,-0.13507365,-0.21935797,0.054162435
1732439918012,2024-11-24T09:18:38.012Z,54110,-0.16412784,-0.23550129,0.042616278
1732439918014,2024-11-24T09:18:38.014Z,54112,-0.16412784,-0.23550129,0.042616278
1732439918023,2024-11-24T09:18:38.023Z,54121,-0.09604269,-0.22975463,0.031529516
1732439918025,2024-11-24T09:18:38.025Z,54123,-0.09604269,-0.22975463,0.031529516
1732439918041,2024-11-24T09:18:38.041Z,54139,-0.06459441,-0.21139815,-0.06474554
1732439918043,2024-11-24T09:18:38.043Z,54141,-0.06459441,-0.21139815,-0.06474554
1732439918053,2024-11-24T09:18:38.053Z,54151,-0.09462776,-0.21586144,-0.006172358
1732439918058,2024-11-24T09:18:38.058Z,54156,-0.09462776,-0.21586144,-0.006172358
1732439918085,2024-11-24T09:18:38.085Z,54183,-0.087919176,-0.19833526,0.046702944
1732439918091,2024-11-24T09:18:38.091Z,54189,-0.087919176,-0.19833526,0.046702944
1732439918111,2024-11-24T09:18:38.111Z,54209,-0.025134109,-0.17970921,-0.02737504
1732439918116,2024-11-24T09:18:38.116Z,54214,-0.025134109,-0.17970921,-0.02737504
1732439918125,2024-11-24T09:18:38.125Z,54223,-0.064681694,-0.17937954,-0.036927518
1732439918128,2024-11-24T09:18:38.128Z,54226,-0.064681694,-0.17937954,-0.036927518
1732439918136,2024-11-24T09:18:38.136Z,54234,-0.04688458,-0.17713487,-0.061918136
1732439918139,2024-11-24T09:18:38.139Z,54237,-0.04688458,-0.17713487,-0.061918136
1732439918152,2024-11-24T09:18:38.152Z,54250,0.0011879781,-0.18573263,0.019925741
1732439918157,2024-11-24T09:18:38.157Z,54255,0.0011879781,-0.18573263,0.019925741
1732439918174,2024-11-24T09:18:38.174Z,54272,0.019126242,-0.17696886,0.053723812
1732439918179,2024-11-24T09:18:38.179Z,54277,0.019126242,-0.17696886,0.053723812
1732439918193,2024-11-24T09:18:38.193Z,54291,0.013685282,-0.12517396,0.01142344
1732439918201,2024-11-24T09:18:38.201Z,54299,0.013685282,-0.12517396,0.01142344
1732439918220,2024-11-24T09:18:38.220Z,54318,0.03953815,-0.14923051,-0.032201678
1732439918225,2024-11-24T09:18:38.225Z,54323,0.03953815,-0.14923051,-0.032201678
1732439918241,2024-11-24T09:18:38.241Z,54339,0.049009737,-0.14410876,-0.026015071
1732439918246,2024-11-24T09:18:38.246Z,54344,0.049009737,-0.14410876,-0.026015071
1732439918260,2024-11-24T09:18:38.260Z,54358,0.06623503,-0.14153637,-0.05814052
1732439918263,2024-11-24T09:18:38.263Z,54361,0.06623503,-0.14153637,-0.05814052
1732439918275,2024-11-24T09:18:38.275Z,54373,0.11378843,-0.082958035,-0.0025401346
1732439918278,2024-11-24T09:18:38.278Z,54376,0.11378843,-0.082958035,-0.0025401346
1732439918289,2024-11-24T09:18:38.289Z,54387,0.12768698,-0.09316098,-0.060532667
1732439918292,2024-11-24T09:18:38.292Z,54390,0.12768698,-0.09316098,-0.060532667
1732439918302,2024-11-24T09:18:38.302Z,54400,0.13478597,-0.1039157,-0.054475363
1732439918305,2024-11-24T09:18:38.305Z,54403,0.13478597,-0.1039157,-0.054475363
1732439918314,2024-11-24T09:18:38.314Z,54412,0.18138592,-0.076206565,-0.11343056
1732439918317,2024-11-24T09:18:38.317Z,54415,0.18138592,-0.076206565,-0.11343056
1732439918325,2024-11-24T09:18:38.325Z,54423,0.12799291,-0.09082577,-0.035337035
1732439918328,2024-11-24T09:18:38.328Z,54426,0.12799291,-0.09082577,-0.035337035
1732439918336,2024-11-24T09:18:38.336Z,54434,0.11078241,-0.07206435,-0.049639937
1732439918338,2024-11-24T09:18:38.338Z,54436,0.11078241,-0.07206435,-0.049639937
1732439918354,2024-11-24T09:18:38.354Z,54452,0.09106777,-0.07983561,0.042986006
1732439918356,2024-11-24T09:18:38.356Z,54454,0.09106777,-0.07983561,0.042986006
1732439918364,2024-11-24T09:18:38.364Z,54462,0.101838484,-0.06928802,-0.0018896447
1732439918367,2024-11-24T09:18:38.367Z,54465,0.101838484,-0.06928802,-0.0018896447
1732439918376,2024-11-24T09:18:38.376Z,54474,0.16391419,-0.069425724,-0.09537421
1732439918378,2024-11-24T09:18:38.378Z,54476,0.16391419,-0.069425724,-0.09537421
1732439918405,2024-11-24T09:18:38.405Z,54503,0.23301664,-0.047203507,-0.11241529
1732439918411,2024-11-24T09:18:38.411Z,54509,0.23301664,-0.047203507,-0.11241529
1732439918432,2024-11-24T09:18:38.432Z,54530,0.23239212,-0.045842282,-0.06979869
1732439918439,2024-11-24T09:18:38.439Z,54537,0.23239212,-0.045842282,-0.06979869
1732439918463,2024-11-24T09:18:38.463Z,54561,0.12795441,-0.025944816,-0.035480805
1732439918469,2024-11-24T09:18:38.469Z,54567,0.12795441,-0.025944816,-0.035480805
1732439918493,2024-11-24T09:18:38.493Z,54591,0.10682637,0.026147917,-0.09697931
1732439918499,2024-11-24T09:18:38.499Z,54597,0.10682637,0.026147917,-0.09697931
1732439918513,2024-11-24T09:18:38.513Z,54611,0.12824479,0.01243453,-0.084089
1732439918518,2024-11-24T09:18:38.518Z,54616,0.12824479,0.01243453,-0.084089
1732439918539,2024-11-24T09:18:38.539Z,54637,0.1637954,0.022842564,-0.11770382
1732439918544,2024-11-24T09:18:38.544Z,54642,0.1637954,0.022842564,-0.11770382
1732439918565,2024-11-24T09:18:38.565Z,54663,0.18967877,0.0060769613,-0.14701527
1732439918570,2024-11-24T09:18:38.570Z,54668,0.18967877,0.0060769613,-0.14701527
1732439918586,2024-11-24T09:18:38.586Z,54684,0.15934826,0.01713456,0.023650814
1732439918591,2024-11-24T09:18:38.591Z,54689,0.15934826,0.01713456,0.023650814
1732439918625,2024-11-24T09:18:38.625Z,54723,0.09437409,0.038710717,0.014694665
1732439918631,2024-11-24T09:18:38.631Z,54729,0.09437409,0.038710717,0.014694665
1732439918646,2024-11-24T09:18:38.646Z,54744,0.10242487,0.070816904,-0.032293826
1732439918650,2024-11-24T09:18:38.650Z,54748,0.10242487,0.070816904,-0.032293826
1732439918663,2024-11-24T09:18:38.663Z,54761,0.073447354,0.08123603,-0.082796775
1732439918669,2024-11-24T09:18:38.669Z,54767,0.073447354,0.08123603,-0.082796775
1732439918690,2024-11-24T09:18:38.690Z,54788,0.14091532,0.068603836,-0.09796217
1732439918696,2024-11-24T09:18:38.696Z,54794,0.14091532,0.068603836,-0.09796217
1732439918716,2024-11-24T09:18:38.716Z,54814,0.18008213,0.07631879,-0.19166505
1732439918722,2024-11-24T09:18:38.722Z,54820,0.18008213,0.07631879,-0.19166505
1732439918736,2024-11-24T09:18:38.736Z,54834,0.19941816,0.061537333,-0.0946424
1732439918740,2024-11-24T09:18:38.740Z,54838,0.19941816,0.061537333,-0.0946424
1732439918752,2024-11-24T09:18:38.752Z,54850,0.15578398,0.0952077,-0.102818504
1732439918756,2024-11-24T09:18:38.756Z,54854,0.15578398,0.0952077,-0.102818504
1732439918773,2024-11-24T09:18:38.773Z,54871,0.119015425,0.16702431,-0.01998404
1732439918779,2024-11-24T09:18:38.779Z,54877,0.119015425,0.16702431,-0.01998404
1732439918798,2024-11-24T09:18:38.798Z,54896,0.07975562,0.15388283,-0.027892807
1732439918804,2024-11-24T09:18:38.804Z,54902,0.07975562,0.15388283,-0.027892807
1732439918823,2024-11-24T09:18:38.823Z,54921,0.120226495,0.18208341,-0.12908581
1732439918826,2024-11-24T09:18:38.826Z,54924,0.120226495,0.18208341,-0.12908581
1732439918836,2024-11-24T09:18:38.836Z,54934,0.12917666,0.14477865,-0.09655508
1732439918840,2024-11-24T09:18:38.840Z,54938,0.12917666,0.14477865,-0.09655508
1732439918851,2024-11-24T09:18:38.851Z,54949,0.10576737,0.15867214,-0.04430375
1732439918855,2024-11-24T09:18:38.855Z,54953,0.10576737,0.15867214,-0.04430375
1732439918866,2024-11-24T09:18:38.866Z,54964,0.07347237,0.20070508,0.031930547
1732439918869,2024-11-24T09:18:38.869Z,54967,0.07347237,0.20070508,0.031930547
1732439918879,2024-11-24T09:18:38.879Z,54977,0.041112103,0.18544167,-0.050698016
1732439918882,2024-11-24T09:18:38.882Z,54980,0.041112103,0.18544167,-0.050698016
1732439918893,2024-11-24T09:18:38.893Z,54991,0.08570485,0.18821555,-0.053615425
1732439918897,2024-11-24T09:18:38.897Z,54995,0.08570485,0.18821555,-0.053615425
1732439918909,2024-11-24T09:18:38.909Z,55007,0.04504135,0.21137773,-0.08466007
1732439918913,2024-11-24T09:18:38.913Z,55011,0.04504135,0.21137773,-0.08466007
1732439918922,2024-11-24T09:18:38.922Z,55020,0.0701174,0.17081517,-0.09430329
1732439918924,2024-11-24T09:18:38.924Z,55022,0.0701174,0.17081517,-0.09430329
1732439918932,2024-11-24T09:18:38.932Z,55030,0.016145844,0.1838702,-0.051859204
1732439918933,2024-11-24T09:18:38.933Z,55031,0.016145844,0.1838702,-0.051859204
1732439918941,2024-11-24T09:18:38.941Z,55039,0.038357563,0.13708572,-0.0065334174
1732439918944,2024-11-24T09:18:38.944Z,55042,0.038357563,0.13708572,-0.0065334174
1732439918951,2024-11-24T09:18:38.951Z,55049,-0.089578174,0.2282188,-0.048980232
1732439918954,2024-11-24T09:18:38.954Z,55052,-0.089578174,0.2282188,-0.048980232
1732439918962,2024-11-24T09:18:38.962Z,55060,-0.097626686,0.14624655,-0.12592031
1732439918965,2024-11-24T09:18:38.965Z,55063,-0.097626686,0.14624655,-0.12592031
1732439918984,2024-11-24T09:18:38.984Z,55082,-0.045215715,0.16533716,-0.049523376
1732439918986,2024-11-24T09:18:38.986Z,55084,-0.045215715,0.16533716,-0.049523376
1732439918993,2024-11-24T09:18:38.993Z,55091,-0.0343917,0.14278522,-0.179694
1732439918996,2024-11-24T09:18:38.996Z,55094,-0.0343917,0.14278522,-0.179694
1732439919005,2024-11-24T09:18:39.005Z,55103,0.03705375,0.080623604,-0.06367436
1732439919011,2024-11-24T09:18:39.011Z,55109,0.03705375,0.080623604,-0.06367436
1732439919034,2024-11-24T09:18:39.034Z,55132,-0.06700037,0.14056028,-0.0055919564
1732439919040,2024-11-24T09:18:39.040Z,55138,-0.06700037,0.14056028,-0.0055919564
1732439919056,2024-11-24T09:18:39.056Z,55154,-0.05387329,0.11362569,-0.038345158
1732439919061,2024-11-24T09:18:39.061Z,55159,-0.05387329,0.11362569,-0.038345158
1732439919072,2024-11-24T09:18:39.072Z,55170,-0.032066293,0.0976934,-0.06789362
1732439919075,2024-11-24T09:18:39.075Z,55173,-0.032066293,0.0976934,-0.06789362
1732439919089,2024-11-24T09:18:39.089Z,55187,-0.014247617,0.07529638,-0.05080423
1732439919093,2024-11-24T09:18:39.093Z,55191,-0.014247617,0.07529638,-0.05080423
1732439919111,2024-11-24T09:18:39.111Z,55209,-0.059200276,0.07150731,-0.04225367
1732439919116,2024-11-24T09:18:39.116Z,55214,-0.059200276,0.07150731,-0.04225367
1732439919131,2024-11-24T09:18:39.131Z,55229,-0.034505993,0.06910413,-0.09851199
1732439919135,2024-11-24T09:18:39.135Z,55233,-0.034505993,0.06910413,-0.09851199
1732439919146,2024-11-24T09:18:39.146Z,55244,0.026679521,0.03872404,-0.09511611
1732439919149,2024-11-24T09:18:39.149Z,55247,0.026679521,0.03872404,-0.09511611
1732439919159,2024-11-24T09:18:39.159Z,55257,0.070308775,0.01224903,-0.061302584
1732439919162,2024-11-24T09:18:39.162Z,55260,0.070308775,0.01224903,-0.061302584
1732439919171,2024-11-24T09:18:39.171Z,55269,0.0012866845,0.038946155,-0.056565866
1732439919175,2024-11-24T09:18:39.175Z,55273,0.0012866845,0.038946155,-0.056565866
1732439919184,2024-11-24T09:18:39.184Z,55282,0.036788277,0.0032419472,-0.032502502
1732439919186,2024-11-24T09:18:39.186Z,55284,0.036788277,0.0032419472,-0.032502502
1732439919194,2024-11-24T09:18:39.194Z,55292,0.04686196,0.0026622533,-0.041987404
1732439919196,2024-11-24T09:18:39.196Z,55294,0.04686196,0.0026622533,-0.041987404
1732439919204,2024-11-24T09:18:39.204Z,55302,-2.7910093E-4,0.033250354,-0.06031908
1732439919207,2024-11-24T09:18:39.207Z,55305,-2.7910093E-4,0.033250354,-0.06031908
1732439919215,2024-11-24T09:18:39.215Z,55313,0.038281392,0.026538415,-0.057336286
1732439919217,2024-11-24T09:18:39.217Z,55315,0.038281392,0.026538415,-0.057336286
1732439919224,2024-11-24T09:18:39.224Z,55322,0.07898295,0.00794329,-0.07858206
1732439919226,2024-11-24T09:18:39.226Z,55324,0.07898295,0.00794329,-0.07858206
1732439919253,2024-11-24T09:18:39.253Z,55351,0.03396525,0.008355913,-0.058477398
1732439919256,2024-11-24T09:18:39.256Z,55354,0.03396525,0.008355913,-0.058477398
1732439919264,2024-11-24T09:18:39.264Z,55362,0.03768327,0.014896696,-0.021011164
1732439919267,2024-11-24T09:18:39.267Z,55365,0.03768327,0.014896696,-0.021011164
1732439919275,2024-11-24T09:18:39.275Z,55373,0.028356789,-0.0028406058,-0.04670206
1732439919277,2024-11-24T09:18:39.277Z,55375,0.028356789,-0.0028406058,-0.04670206
1732439919284,2024-11-24T09:18:39.284Z,55382,0.05460713,-0.016182117,-0.013836295
1732439919286,2024-11-24T09:18:39.286Z,55384,0.05460713,-0.016182117,-0.013836295
1732439919307,2024-11-24T09:18:39.307Z,55405,-0.00846376,0.008385865,-0.029065179
1732439919312,2024-11-24T09:18:39.312Z,55410,-0.00846376,0.008385865,-0.029065179
1732439919331,2024-11-24T09:18:39.331Z,55429,0.032836847,0.016051805,-0.03130838
1732439919337,2024-11-24T09:18:39.337Z,55435,0.032836847,0.016051805,-0.03130838
1732439919354,2024-11-24T09:18:39.354Z,55452,0.028022038,0.024629248,-0.072575115
1732439919359,2024-11-24T09:18:39.359Z,55457,0.028022038,0.024629248,-0.072575115
1732439919369,2024-11-24T09:18:39.369Z,55467,0.030640773,0.0022837652,-0.014935152
1732439919372,2024-11-24T09:18:39.372Z,55470,0.030640773,0.0022837652,-0.014935152
1732439919385,2024-11-24T09:18:39.385Z,55483,0.011416274,0.007099764,0.01823763
1732439919393,2024-11-24T09:18:39.393Z,55491,0.011416274,0.007099764,0.01823763
1732439919413,2024-11-24T09:18:39.413Z,55511,0.0234888,0.010966139,0.019255735
1732439919418,2024-11-24T09:18:39.418Z,55516,0.0234888,0.010966139,0.019255735
1732439919435,2024-11-24T09:18:39.435Z,55533,0.014359185,2.0042754E-4,-0.052412458
1732439919440,2024-11-24T09:18:39.440Z,55538,0.014359185,2.0042754E-4,-0.052412458
1732439919456,2024-11-24T09:18:39.456Z,55554,-1.7779313E-4,0.0035831893,-0.083064765
1732439919464,2024-11-24T09:18:39.464Z,55562,-1.7779313E-4,0.0035831893,-0.083064765
1732439919484,2024-11-24T09:18:39.484Z,55582,0.020911273,-0.02235229,8.27882E-4
1732439919490,2024-11-24T09:18:39.490Z,55588,0.020911273,-0.02235229,8.27882E-4
1732439919510,2024-11-24T09:18:39.510Z,55608,0.033364024,-0.0024323598,0.0013130873
1732439919516,2024-11-24T09:18:39.516Z,55614,0.033364024,-0.0024323598,0.0013130873
1732439919535,2024-11-24T09:18:39.535Z,55633,0.02411325,-0.009755696,-0.024157438
1732439919540,2024-11-24T09:18:39.540Z,55638,0.02411325,-0.009755696,-0.024157438
1732439919554,2024-11-24T09:18:39.554Z,55652,0.023440564,-0.0038595672,-0.052903328
1732439919557,2024-11-24T09:18:39.557Z,55655,0.023440564,-0.0038595672,-0.052903328
1732439919569,2024-11-24T09:18:39.569Z,55667,0.042258143,-0.009040926,0.0027142505
1732439919574,2024-11-24T09:18:39.574Z,55672,0.042258143,-0.009040926,0.0027142505
1732439919585,2024-11-24T09:18:39.585Z,55683,0.046436366,0.0023084662,-0.04127216
1732439919596,2024-11-24T09:18:39.596Z,55694,0.046436366,0.0023084662,-0.04127216
1732439919611,2024-11-24T09:18:39.611Z,55709,0.05400619,0.0063289786,-0.00848651
1732439919617,2024-11-24T09:18:39.617Z,55715,0.05400619,0.0063289786,-0.00848651
1732439919633,2024-11-24T09:18:39.633Z,55731,0.022288885,0.031071326,0.02053228
1732439919640,2024-11-24T09:18:39.640Z,55738,0.022288885,0.031071326,0.02053228
1732439919652,2024-11-24T09:18:39.652Z,55750,0.022546202,0.03959713,-0.023871481
1732439919654,2024-11-24T09:18:39.654Z,55752,0.022546202,0.03959713,-0.023871481
1732439919664,2024-11-24T09:18:39.664Z,55762,0.08853968,0.0148591595,-0.022976905
1732439919667,2024-11-24T09:18:39.667Z,55765,0.08853968,0.0148591595,-0.022976905
1732439919675,2024-11-24T09:18:39.675Z,55773,0.03602329,0.045932528,-0.063715726
1732439919677,2024-11-24T09:18:39.677Z,55775,0.03602329,0.045932528,-0.063715726
1732439919685,2024-11-24T09:18:39.685Z,55783,0.048781496,0.051927555,-0.04498494
1732439919687,2024-11-24T09:18:39.687Z,55785,0.048781496,0.051927555,-0.04498494
1732439919694,2024-11-24T09:18:39.694Z,55792,0.0051318593,0.048548102,-0.06588929
1732439919697,2024-11-24T09:18:39.697Z,55795,0.0051318593,0.048548102,-0.06588929
1732439919703,2024-11-24T09:18:39.703Z,55801,0.060526334,0.017817726,0.021640152
1732439919705,2024-11-24T09:18:39.705Z,55803,0.060526334,0.017817726,0.021640152
1732439919713,2024-11-24T09:18:39.713Z,55811,0.027906302,0.029208448,8.502611E-4
1732439919715,2024-11-24T09:18:39.715Z,55813,0.027906302,0.029208448,8.502611E-4
1732439919721,2024-11-24T09:18:39.721Z,55819,-0.0037647993,0.018168012,-0.058259368
1732439919724,2024-11-24T09:18:39.724Z,55822,-0.0037647993,0.018168012,-0.058259368
1732439919732,2024-11-24T09:18:39.732Z,55830,0.024241861,-0.016244648,-0.09000676
1732439919733,2024-11-24T09:18:39.733Z,55831,0.024241861,-0.016244648,-0.09000676
1732439919739,2024-11-24T09:18:39.739Z,55837,0.021473924,0.009194091,0.012569936
1732439919741,2024-11-24T09:18:39.741Z,55839,0.021473924,0.009194091,0.012569936
1732439919750,2024-11-24T09:18:39.750Z,55848,-0.0067324834,0.01756887,-0.044196423
1732439919755,2024-11-24T09:18:39.755Z,55853,-0.0067324834,0.01756887,-0.044196423
1732439919763,2024-11-24T09:18:39.763Z,55861,-0.0019755873,0.013754522,-0.07664311
1732439919765,2024-11-24T09:18:39.765Z,55863,-0.0019755873,0.013754522,-0.07664311
1732439919772,2024-11-24T09:18:39.772Z,55870,0.013170793,0.019792438,-0.047263496
1732439919774,2024-11-24T09:18:39.774Z,55872,0.013170793,0.019792438,-0.047263496
1732439919794,2024-11-24T09:18:39.794Z,55892,0.019411592,0.018470356,-0.018306166
1732439919797,2024-11-24T09:18:39.797Z,55895,0.019411592,0.018470356,-0.018306166
1732439919805,2024-11-24T09:18:39.805Z,55903,0.00868072,0.01834899,-0.029504543
1732439919808,2024-11-24T09:18:39.808Z,55906,0.00868072,0.01834899,-0.029504543
1732439919816,2024-11-24T09:18:39.816Z,55914,0.010398844,0.024969712,-0.01070639
1732439919818,2024-11-24T09:18:39.818Z,55916,0.010398844,0.024969712,-0.01070639
1732439919838,2024-11-24T09:18:39.838Z,55936,0.016490027,0.02474789,-0.027946768
1732439919841,2024-11-24T09:18:39.841Z,55939,0.016490027,0.02474789,-0.027946768
1732439919850,2024-11-24T09:18:39.850Z,55948,-0.019833647,0.028268646,0.006140233
1732439919852,2024-11-24T09:18:39.852Z,55950,-0.019833647,0.028268646,0.006140233
1732439919860,2024-11-24T09:18:39.860Z,55958,-0.0048156823,0.031639837,0.002312563
1732439919862,2024-11-24T09:18:39.862Z,55960,-0.0048156823,0.031639837,0.002312563
1732439919882,2024-11-24T09:18:39.882Z,55980,0.0136908,0.054995723,0.004477771
1732439919885,2024-11-24T09:18:39.885Z,55983,0.0136908,0.054995723,0.004477771
1732439919894,2024-11-24T09:18:39.894Z,55992,0.032144625,0.0198256,-0.09498866
1732439919897,2024-11-24T09:18:39.897Z,55995,0.032144625,0.0198256,-0.09498866
1732439919905,2024-11-24T09:18:39.905Z,56003,0.03761928,0.014590172,-0.05682608
1732439919907,2024-11-24T09:18:39.907Z,56005,0.03761928,0.014590172,-0.05682608
1732439919914,2024-11-24T09:18:39.914Z,56012,0.055779368,0.018258842,0.021989733
1732439919916,2024-11-24T09:18:39.916Z,56014,0.055779368,0.018258842,0.021989733
1732439919927,2024-11-24T09:18:39.927Z,56025,-0.023352118,0.031273697,0.0013819387
1732439919929,2024-11-24T09:18:39.929Z,56027,-0.023352118,0.031273697,0.0013819387
1732439919935,2024-11-24T09:18:39.935Z,56033,0.036745124,0.02618803,-0.0039629904
1732439919937,2024-11-24T09:18:39.937Z,56035,0.036745124,0.02618803,-0.0039629904
1732439919945,2024-11-24T09:18:39.945Z,56043,0.026342534,0.015320794,-0.03639537
1732439919947,2024-11-24T09:18:39.947Z,56045,0.026342534,0.015320794,-0.03639537
1732439919976,2024-11-24T09:18:39.976Z,56074,0.06398723,0.024920408,-0.0059319525
1732439919981,2024-11-24T09:18:39.981Z,56079,0.06398723,0.024920408,-0.0059319525
1732439919994,2024-11-24T09:18:39.994Z,56092,-0.023119768,0.043689217,-0.052495837
1732439919997,2024-11-24T09:18:39.997Z,56095,-0.023119768,0.043689217,-0.052495837
1732439920008,2024-11-24T09:18:40.008Z,56106,0.0253067,0.033901136,-0.056647073
1732439920014,2024-11-24T09:18:40.014Z,56112,0.0253067,0.033901136,-0.056647073
1732439920033,2024-11-24T09:18:40.033Z,56131,0.09051936,0.01734763,-0.048519425
1732439920039,2024-11-24T09:18:40.039Z,56137,0.09051936,0.01734763,-0.048519425
1732439920071,2024-11-24T09:18:40.071Z,56169,0.06317963,0.0014284716,0.0052390383
1732439920077,2024-11-24T09:18:40.077Z,56175,0.06317963,0.0014284716,0.0052390383
