Timestamp (ms),ISO DateTime,Elapsed Time (ms),Acceleration X,Acceleration Y,Acceleration Z
1732435810044,2024-11-24T08:10:10.044Z,24252,0.0010975377,-0.031742334,-0.2842751
1732435810050,2024-11-24T08:10:10.050Z,24258,0.0010975377,-0.031742334,-0.2842751
1732435810070,2024-11-24T08:10:10.070Z,24278,8.1488723E-4,-0.029576726,-0.28413048
1732435810076,2024-11-24T08:10:10.076Z,24284,8.1488723E-4,-0.029576726,-0.28413048
1732435810095,2024-11-24T08:10:10.095Z,24303,7.950001E-5,-0.034006458,-0.2668284
1732435810100,2024-11-24T08:10:10.100Z,24308,7.950001E-5,-0.034006458,-0.2668284
1732435810122,2024-11-24T08:10:10.122Z,24330,0.0019068331,-0.03676061,-0.2597603
1732435810126,2024-11-24T08:10:10.126Z,24334,0.0019068331,-0.03676061,-0.2597603
1732435810138,2024-11-24T08:10:10.138Z,24346,-0.006675253,-0.034919612,-0.26277393
1732435810143,2024-11-24T08:10:10.143Z,24351,-0.006675253,-0.034919612,-0.26277393
1732435810161,2024-11-24T08:10:10.161Z,24369,0.006349984,-0.036609776,-0.27067208
1732435810164,2024-11-24T08:10:10.164Z,24372,0.006349984,-0.036609776,-0.27067208
1732435810175,2024-11-24T08:10:10.175Z,24383,0.007830362,-0.030167991,-0.25575778
1732435810179,2024-11-24T08:10:10.179Z,24387,0.007830362,-0.030167991,-0.25575778
1732435810191,2024-11-24T08:10:10.191Z,24399,-0.01147365,-0.025415884,-0.23578112
1732435810195,2024-11-24T08:10:10.195Z,24403,-0.01147365,-0.025415884,-0.23578112
1732435810209,2024-11-24T08:10:10.209Z,24417,-0.01563437,-0.029157685,-0.22018553
1732435810216,2024-11-24T08:10:10.216Z,24424,-0.01563437,-0.029157685,-0.22018553
1732435810231,2024-11-24T08:10:10.231Z,24439,-0.014955653,-0.03011081,-0.21620733
1732435810235,2024-11-24T08:10:10.235Z,24443,-0.014955653,-0.03011081,-0.21620733
1732435810248,2024-11-24T08:10:10.248Z,24456,-0.022452941,-0.03486078,-0.20882432
1732435810252,2024-11-24T08:10:10.252Z,24460,-0.022452941,-0.03486078,-0.20882432
1732435810263,2024-11-24T08:10:10.263Z,24471,-0.021975333,-0.033749916,-0.20605235
1732435810266,2024-11-24T08:10:10.266Z,24474,-0.021975333,-0.033749916,-0.20605235
1732435810281,2024-11-24T08:10:10.281Z,24489,-0.0070281653,-0.032670856,-0.19422247
1732435810285,2024-11-24T08:10:10.285Z,24493,-0.0070281653,-0.032670856,-0.19422247
1732435810298,2024-11-24T08:10:10.298Z,24506,-0.02777052,-0.031827133,-0.17234063
1732435810301,2024-11-24T08:10:10.301Z,24509,-0.02777052,-0.031827133,-0.17234063
1732435810313,2024-11-24T08:10:10.313Z,24521,-0.01898256,-0.032576818,-0.17166898
1732435810317,2024-11-24T08:10:10.317Z,24525,-0.01898256,-0.032576818,-0.17166898
1732435810330,2024-11-24T08:10:10.330Z,24538,-0.023210866,-0.030539284,-0.16200171
1732435810333,2024-11-24T08:10:10.333Z,24541,-0.023210866,-0.030539284,-0.16200171
1732435810346,2024-11-24T08:10:10.346Z,24554,-0.011812,-0.0200164,-0.1716277
1732435810350,2024-11-24T08:10:10.350Z,24558,-0.011812,-0.0200164,-0.1716277
1732435810362,2024-11-24T08:10:10.362Z,24570,-0.012915615,-0.02301513,-0.15890107
1732435810367,2024-11-24T08:10:10.367Z,24575,-0.012915615,-0.02301513,-0.15890107
1732435810380,2024-11-24T08:10:10.380Z,24588,3.860248E-4,-0.021092933,-0.14872356
1732435810384,2024-11-24T08:10:10.384Z,24592,3.860248E-4,-0.021092933,-0.14872356
1732435810395,2024-11-24T08:10:10.395Z,24603,-0.01169856,-0.011994825,-0.14350335
1732435810399,2024-11-24T08:10:10.399Z,24607,-0.01169856,-0.011994825,-0.14350335
1732435810412,2024-11-24T08:10:10.412Z,24620,-0.0043464624,-0.0121136615,-0.1443472
1732435810416,2024-11-24T08:10:10.416Z,24624,-0.0043464624,-0.0121136615,-0.1443472
1732435810427,2024-11-24T08:10:10.427Z,24635,0.0014523946,-0.013206045,-0.13545634
1732435810431,2024-11-24T08:10:10.431Z,24639,0.0014523946,-0.013206045,-0.13545634
1732435810446,2024-11-24T08:10:10.446Z,24654,-0.007887276,-0.0035317452,-0.13232613
1732435810450,2024-11-24T08:10:10.450Z,24658,-0.007887276,-0.0035317452,-0.13232613
1732435810464,2024-11-24T08:10:10.464Z,24672,-0.013503137,0.0039928937,-0.12270318
1732435810468,2024-11-24T08:10:10.468Z,24676,-0.013503137,0.0039928937,-0.12270318
1732435810482,2024-11-24T08:10:10.482Z,24690,-0.017617274,0.010470953,-0.11186327
1732435810486,2024-11-24T08:10:10.486Z,24694,-0.017617274,0.010470953,-0.11186327
1732435810498,2024-11-24T08:10:10.498Z,24706,-0.003059778,0.0033865543,-0.09664304
1732435810501,2024-11-24T08:10:10.501Z,24709,-0.003059778,0.0033865543,-0.09664304
1732435810513,2024-11-24T08:10:10.513Z,24721,-0.004093205,0.0050595067,-0.10086457
1732435810517,2024-11-24T08:10:10.517Z,24725,-0.004093205,0.0050595067,-0.10086457
1732435810530,2024-11-24T08:10:10.530Z,24738,-0.02027289,0.0077135917,-0.11425831
1732435810534,2024-11-24T08:10:10.534Z,24742,-0.02027289,0.0077135917,-0.11425831
1732435810546,2024-11-24T08:10:10.546Z,24754,-0.014024069,0.007190496,-0.10713839
1732435810550,2024-11-24T08:10:10.550Z,24758,-0.014024069,0.007190496,-0.10713839
1732435810565,2024-11-24T08:10:10.565Z,24773,-0.011169046,0.0039738333,-0.09785484
1732435810568,2024-11-24T08:10:10.568Z,24776,-0.011169046,0.0039738333,-0.09785484
1732435810580,2024-11-24T08:10:10.580Z,24788,-0.014706796,0.008556632,-0.09948631
1732435810584,2024-11-24T08:10:10.584Z,24792,-0.014706796,0.008556632,-0.09948631
1732435810599,2024-11-24T08:10:10.599Z,24807,-0.011488553,0.0067933365,-0.09054582
1732435810605,2024-11-24T08:10:10.605Z,24813,-0.011488553,0.0067933365,-0.09054582
1732435810635,2024-11-24T08:10:10.635Z,24843,-0.012497377,0.003165024,-0.080265366
1732435810644,2024-11-24T08:10:10.644Z,24852,-0.012497377,0.003165024,-0.080265366
1732435810669,2024-11-24T08:10:10.669Z,24877,-0.010245436,-0.0029590535,-0.06747092
1732435810677,2024-11-24T08:10:10.677Z,24885,-0.010245436,-0.0029590535,-0.06747092
1732435810694,2024-11-24T08:10:10.694Z,24902,-0.0064921603,-0.0042650905,-0.05385934
1732435810699,2024-11-24T08:10:10.699Z,24907,-0.0064921603,-0.0042650905,-0.05385934
1732435810714,2024-11-24T08:10:10.714Z,24922,-0.0099643655,-0.009278696,-0.06966665
1732435810717,2024-11-24T08:10:10.717Z,24925,-0.0099643655,-0.009278696,-0.06966665
1732435810740,2024-11-24T08:10:10.740Z,24948,-0.020776026,-0.021871205,-0.08027803
1732435810744,2024-11-24T08:10:10.744Z,24952,-0.020776026,-0.021871205,-0.08027803
1732435810755,2024-11-24T08:10:10.755Z,24963,-0.027171303,-0.034459535,-0.07359522
1732435810759,2024-11-24T08:10:10.759Z,24967,-0.027171303,-0.034459535,-0.07359522
1732435810792,2024-11-24T08:10:10.792Z,25000,-0.031520903,-0.08122829,-0.011388175
1732435810801,2024-11-24T08:10:10.801Z,25009,-0.031520903,-0.08122829,-0.011388175
1732435810815,2024-11-24T08:10:10.815Z,25023,-0.040874455,-0.09931675,-0.01698937
1732435810818,2024-11-24T08:10:10.818Z,25026,-0.040874455,-0.09931675,-0.01698937
1732435810832,2024-11-24T08:10:10.832Z,25040,-0.03107033,-0.11014383,-0.05364605
1732435810837,2024-11-24T08:10:10.837Z,25045,-0.03107033,-0.11014383,-0.05364605
1732435810849,2024-11-24T08:10:10.849Z,25057,-0.07985555,-0.13194308,-0.031829763
1732435810852,2024-11-24T08:10:10.852Z,25060,-0.07985555,-0.13194308,-0.031829763
1732435810866,2024-11-24T08:10:10.866Z,25074,-0.065642424,-0.14462408,-0.021451788
1732435810870,2024-11-24T08:10:10.870Z,25078,-0.065642424,-0.14462408,-0.021451788
1732435810882,2024-11-24T08:10:10.882Z,25090,-0.06553769,-0.13633089,-0.018396843
1732435810886,2024-11-24T08:10:10.886Z,25094,-0.06553769,-0.13633089,-0.018396843
1732435810909,2024-11-24T08:10:10.909Z,25117,-0.03517654,-0.14219697,-0.0077229394
1732435810915,2024-11-24T08:10:10.915Z,25123,-0.03517654,-0.14219697,-0.0077229394
1732435810930,2024-11-24T08:10:10.930Z,25138,-0.05361996,-0.12758258,-0.018014658
1732435810934,2024-11-24T08:10:10.934Z,25142,-0.05361996,-0.12758258,-0.018014658
1732435810946,2024-11-24T08:10:10.946Z,25154,-0.040980697,-0.12270172,-3.9981573E-4
1732435810950,2024-11-24T08:10:10.950Z,25158,-0.040980697,-0.12270172,-3.9981573E-4
1732435810961,2024-11-24T08:10:10.961Z,25169,-0.045928758,-0.11584284,-0.030853443
1732435810964,2024-11-24T08:10:10.964Z,25172,-0.045928758,-0.11584284,-0.030853443
1732435810977,2024-11-24T08:10:10.977Z,25185,-0.01029299,-0.116316244,-0.02395343
1732435810981,2024-11-24T08:10:10.981Z,25189,-0.01029299,-0.116316244,-0.02395343
1732435810992,2024-11-24T08:10:10.992Z,25200,-0.01787379,-0.11005893,0.03268738
1732435810995,2024-11-24T08:10:10.995Z,25203,-0.01787379,-0.11005893,0.03268738
1732435811007,2024-11-24T08:10:11.007Z,25215,-0.035230197,-0.10070399,0.017842093
1732435811012,2024-11-24T08:10:11.012Z,25220,-0.035230197,-0.10070399,0.017842093
1732435811022,2024-11-24T08:10:11.022Z,25230,-0.02139226,-0.09864419,-0.005650931
1732435811026,2024-11-24T08:10:11.026Z,25234,-0.02139226,-0.09864419,-0.005650931
1732435811036,2024-11-24T08:10:11.036Z,25244,-0.042458642,-0.09279805,-0.02235376
1732435811041,2024-11-24T08:10:11.041Z,25249,-0.042458642,-0.09279805,-0.02235376
1732435811054,2024-11-24T08:10:11.054Z,25262,-0.008274006,-0.08967503,-1.5126882E-4
1732435811058,2024-11-24T08:10:11.058Z,25266,-0.008274006,-0.08967503,-1.5126882E-4
1732435811069,2024-11-24T08:10:11.069Z,25277,-0.039584853,-0.102118075,0.029903539
1732435811073,2024-11-24T08:10:11.073Z,25281,-0.039584853,-0.102118075,0.029903539
1732435811085,2024-11-24T08:10:11.085Z,25293,-0.023255331,-0.11667518,0.02359034
1732435811089,2024-11-24T08:10:11.089Z,25297,-0.023255331,-0.11667518,0.02359034
1732435811102,2024-11-24T08:10:11.102Z,25310,-0.09690997,-0.12648378,0.036850132
1732435811106,2024-11-24T08:10:11.106Z,25314,-0.09690997,-0.12648378,0.036850132
1732435811117,2024-11-24T08:10:11.117Z,25325,-0.06215262,-0.13818862,0.02490804
1732435811121,2024-11-24T08:10:11.121Z,25329,-0.06215262,-0.13818862,0.02490804
1732435811134,2024-11-24T08:10:11.134Z,25342,-0.06529815,-0.14025551,-0.02224325
1732435811139,2024-11-24T08:10:11.139Z,25347,-0.06529815,-0.14025551,-0.02224325
1732435811153,2024-11-24T08:10:11.153Z,25361,-0.07838161,-0.1671586,-0.019307252
1732435811158,2024-11-24T08:10:11.158Z,25366,-0.07838161,-0.1671586,-0.019307252
1732435811170,2024-11-24T08:10:11.170Z,25378,-0.041103497,-0.17093755,-0.01172196
1732435811174,2024-11-24T08:10:11.174Z,25382,-0.041103497,-0.17093755,-0.01172196
1732435811186,2024-11-24T08:10:11.186Z,25394,-0.071919404,-0.17711085,0.02065218
1732435811190,2024-11-24T08:10:11.190Z,25398,-0.071919404,-0.17711085,0.02065218
1732435811203,2024-11-24T08:10:11.203Z,25411,-0.082778275,-0.18345033,-0.041224916
1732435811207,2024-11-24T08:10:11.207Z,25415,-0.082778275,-0.18345033,-0.041224916
1732435811219,2024-11-24T08:10:11.219Z,25427,-0.04073901,-0.18284798,-0.05390241
1732435811223,2024-11-24T08:10:11.223Z,25431,-0.04073901,-0.18284798,-0.05390241
1732435811237,2024-11-24T08:10:11.237Z,25445,-0.023014985,-0.17984429,-0.015403466
1732435811241,2024-11-24T08:10:11.241Z,25449,-0.023014985,-0.17984429,-0.015403466
1732435811254,2024-11-24T08:10:11.254Z,25462,-0.007743641,-0.15623146,-0.01260176
1732435811258,2024-11-24T08:10:11.258Z,25466,-0.007743641,-0.15623146,-0.01260176
1732435811272,2024-11-24T08:10:11.272Z,25480,-0.046079956,-0.1379453,-0.006406655
1732435811276,2024-11-24T08:10:11.276Z,25484,-0.046079956,-0.1379453,-0.006406655
1732435811288,2024-11-24T08:10:11.288Z,25496,0.03173368,-0.1455138,-0.02444269
1732435811293,2024-11-24T08:10:11.293Z,25501,0.03173368,-0.1455138,-0.02444269
1732435811304,2024-11-24T08:10:11.304Z,25512,0.033457007,-0.12861079,-0.056481168
1732435811308,2024-11-24T08:10:11.308Z,25516,0.033457007,-0.12861079,-0.056481168
1732435811320,2024-11-24T08:10:11.320Z,25528,0.035761,-0.13374469,-0.024239887
1732435811325,2024-11-24T08:10:11.325Z,25533,0.035761,-0.13374469,-0.024239887
1732435811338,2024-11-24T08:10:11.338Z,25546,0.04482303,-0.12655778,-0.04308131
1732435811342,2024-11-24T08:10:11.342Z,25550,0.04482303,-0.12655778,-0.04308131
1732435811354,2024-11-24T08:10:11.354Z,25562,0.015571158,-0.13692303,0.0805761
1732435811358,2024-11-24T08:10:11.358Z,25566,0.015571158,-0.13692303,0.0805761
1732435811372,2024-11-24T08:10:11.372Z,25580,0.05229316,-0.13154864,0.0058702854
1732435811381,2024-11-24T08:10:11.381Z,25589,0.05229316,-0.13154864,0.0058702854
1732435811393,2024-11-24T08:10:11.393Z,25601,0.027141303,-0.13420467,-0.03352838
1732435811395,2024-11-24T08:10:11.395Z,25603,0.027141303,-0.13420467,-0.03352838
1732435811425,2024-11-24T08:10:11.425Z,25633,0.10229531,-0.09479513,-0.06069024
1732435811431,2024-11-24T08:10:11.431Z,25639,0.10229531,-0.09479513,-0.06069024
1732435811449,2024-11-24T08:10:11.449Z,25657,0.09491751,-0.09400917,-0.1007401
1732435811452,2024-11-24T08:10:11.452Z,25660,0.09491751,-0.09400917,-0.1007401
1732435811464,2024-11-24T08:10:11.464Z,25672,0.09753839,-0.08177278,-0.076754056
1732435811468,2024-11-24T08:10:11.468Z,25676,0.09753839,-0.08177278,-0.076754056
1732435811480,2024-11-24T08:10:11.480Z,25688,0.12191756,-0.029616596,-5.51273E-4
1732435811484,2024-11-24T08:10:11.484Z,25692,0.12191756,-0.029616596,-5.51273E-4
1732435811496,2024-11-24T08:10:11.496Z,25704,0.09297922,-0.030588394,-0.09975843
1732435811500,2024-11-24T08:10:11.500Z,25708,0.09297922,-0.030588394,-0.09975843
1732435811510,2024-11-24T08:10:11.510Z,25718,0.11941509,-0.029388746,-0.07758401
1732435811513,2024-11-24T08:10:11.513Z,25721,0.11941509,-0.029388746,-0.07758401
1732435811523,2024-11-24T08:10:11.523Z,25731,0.11506252,0.026087185,-0.0924226
1732435811527,2024-11-24T08:10:11.527Z,25735,0.11506252,0.026087185,-0.0924226
1732435811538,2024-11-24T08:10:11.538Z,25746,0.10564617,0.01315324,-0.07163379
1732435811542,2024-11-24T08:10:11.542Z,25750,0.10564617,0.01315324,-0.07163379
1732435811554,2024-11-24T08:10:11.554Z,25762,0.056151755,0.016412497,-0.07112958
1732435811557,2024-11-24T08:10:11.557Z,25765,0.056151755,0.016412497,-0.07112958
1732435811568,2024-11-24T08:10:11.568Z,25776,0.15709233,0.0077953767,0.012977464
1732435811571,2024-11-24T08:10:11.571Z,25779,0.15709233,0.0077953767,0.012977464
1732435811582,2024-11-24T08:10:11.582Z,25790,0.1201073,0.02565453,5.2357564E-4
1732435811585,2024-11-24T08:10:11.585Z,25793,0.1201073,0.02565453,5.2357564E-4
1732435811595,2024-11-24T08:10:11.595Z,25803,0.13213898,0.042471092,-0.07160609
1732435811599,2024-11-24T08:10:11.599Z,25807,0.13213898,0.042471092,-0.07160609
1732435811609,2024-11-24T08:10:11.609Z,25817,0.1468766,-0.003800538,0.04326645
1732435811612,2024-11-24T08:10:11.612Z,25820,0.1468766,-0.003800538,0.04326645
1732435811621,2024-11-24T08:10:11.621Z,25829,0.085072495,-0.022420947,0.04973239
1732435811624,2024-11-24T08:10:11.624Z,25832,0.085072495,-0.022420947,0.04973239
1732435811635,2024-11-24T08:10:11.635Z,25843,0.039306846,-0.009599128,-0.028112762
1732435811638,2024-11-24T08:10:11.638Z,25846,0.039306846,-0.009599128,-0.028112762
1732435811650,2024-11-24T08:10:11.650Z,25858,0.19665411,-0.0018495542,0.0015918388
1732435811654,2024-11-24T08:10:11.654Z,25862,0.19665411,-0.0018495542,0.0015918388
1732435811670,2024-11-24T08:10:11.670Z,25878,0.094994195,0.010509949,0.02286089
1732435811674,2024-11-24T08:10:11.674Z,25882,0.094994195,0.010509949,0.02286089
1732435811686,2024-11-24T08:10:11.686Z,25894,0.09721188,0.031006947,0.029316254
1732435811690,2024-11-24T08:10:11.690Z,25898,0.09721188,0.031006947,0.029316254
1732435811702,2024-11-24T08:10:11.702Z,25910,0.1431634,0.0075137476,0.014134773
1732435811705,2024-11-24T08:10:11.705Z,25913,0.1431634,0.0075137476,0.014134773
1732435811715,2024-11-24T08:10:11.715Z,25923,0.086381204,-0.00847718,0.04928193
1732435811718,2024-11-24T08:10:11.718Z,25926,0.086381204,-0.00847718,0.04928193
1732435811729,2024-11-24T08:10:11.729Z,25937,0.016498901,-0.0048153177,-0.046497334
1732435811733,2024-11-24T08:10:11.733Z,25941,0.016498901,-0.0048153177,-0.046497334
1732435811741,2024-11-24T08:10:11.741Z,25949,0.012589446,0.03410166,-0.07801466
1732435811744,2024-11-24T08:10:11.744Z,25952,0.012589446,0.03410166,-0.07801466
1732435811753,2024-11-24T08:10:11.753Z,25961,0.16070117,0.06520274,-0.04047688
1732435811756,2024-11-24T08:10:11.756Z,25964,0.16070117,0.06520274,-0.04047688
1732435811765,2024-11-24T08:10:11.765Z,25973,0.17603643,0.034549,-0.033179272
1732435811768,2024-11-24T08:10:11.768Z,25976,0.17603643,0.034549,-0.033179272
1732435811780,2024-11-24T08:10:11.780Z,25988,0.08146047,0.042669673,0.032991357
1732435811783,2024-11-24T08:10:11.783Z,25991,0.08146047,0.042669673,0.032991357
1732435811794,2024-11-24T08:10:11.794Z,26002,0.12628566,0.08781473,-0.060321826
1732435811797,2024-11-24T08:10:11.797Z,26005,0.12628566,0.08781473,-0.060321826
1732435811806,2024-11-24T08:10:11.806Z,26014,0.13160796,0.032322027,-0.09098221
1732435811809,2024-11-24T08:10:11.809Z,26017,0.13160796,0.032322027,-0.09098221
1732435811820,2024-11-24T08:10:11.820Z,26028,0.083390355,0.046404857,-0.06524484
1732435811823,2024-11-24T08:10:11.823Z,26031,0.083390355,0.046404857,-0.06524484
1732435811834,2024-11-24T08:10:11.834Z,26042,0.039094504,0.04047557,-0.030969523
1732435811837,2024-11-24T08:10:11.837Z,26045,0.039094504,0.04047557,-0.030969523
1732435811847,2024-11-24T08:10:11.847Z,26055,0.11837444,0.006659329,0.009455955
1732435811850,2024-11-24T08:10:11.850Z,26058,0.11837444,0.006659329,0.009455955
1732435811860,2024-11-24T08:10:11.860Z,26068,0.10016031,0.01950196,0.031358965
1732435811863,2024-11-24T08:10:11.863Z,26071,0.10016031,0.01950196,0.031358965
1732435811873,2024-11-24T08:10:11.873Z,26081,0.053934313,0.0051590884,-0.04279288
1732435811877,2024-11-24T08:10:11.877Z,26085,0.053934313,0.0051590884,-0.04279288
1732435811888,2024-11-24T08:10:11.888Z,26096,0.080053955,-0.019529091,-0.09179728
1732435811892,2024-11-24T08:10:11.892Z,26100,0.080053955,-0.019529091,-0.09179728
1732435811903,2024-11-24T08:10:11.903Z,26111,0.049910154,0.026385445,-0.027670616
1732435811906,2024-11-24T08:10:11.906Z,26114,0.049910154,0.026385445,-0.027670616
1732435811917,2024-11-24T08:10:11.917Z,26125,0.12618807,0.020028362,-0.016780786
1732435811920,2024-11-24T08:10:11.920Z,26128,0.12618807,0.020028362,-0.016780786
1732435811935,2024-11-24T08:10:11.935Z,26143,0.07340537,0.023491936,-0.06903769
1732435811939,2024-11-24T08:10:11.939Z,26147,0.07340537,0.023491936,-0.06903769
1732435811948,2024-11-24T08:10:11.948Z,26156,0.043284617,-0.0027600846,-0.06960472
1732435811950,2024-11-24T08:10:11.950Z,26158,0.043284617,-0.0027600846,-0.06960472
1732435811959,2024-11-24T08:10:11.959Z,26167,0.11541084,0.009529401,-0.04407947
1732435811962,2024-11-24T08:10:11.962Z,26170,0.11541084,0.009529401,-0.04407947
1732435811972,2024-11-24T08:10:11.972Z,26180,0.16229321,0.031585764,-0.010574266
1732435811975,2024-11-24T08:10:11.975Z,26183,0.16229321,0.031585764,-0.010574266
1732435811986,2024-11-24T08:10:11.986Z,26194,0.13471349,0.038107585,-0.044272203
1732435811989,2024-11-24T08:10:11.989Z,26197,0.13471349,0.038107585,-0.044272203
1732435812002,2024-11-24T08:10:12.002Z,26210,0.0054417634,0.041939925,-0.09320908
1732435812006,2024-11-24T08:10:12.006Z,26214,0.0054417634,0.041939925,-0.09320908
1732435812017,2024-11-24T08:10:12.017Z,26225,0.121945545,0.009718158,-0.040124558
1732435812020,2024-11-24T08:10:12.020Z,26228,0.121945545,0.009718158,-0.040124558
1732435812041,2024-11-24T08:10:12.041Z,26249,0.10000265,0.06742398,0.015674751
1732435812049,2024-11-24T08:10:12.049Z,26257,0.10000265,0.06742398,0.015674751
1732435812073,2024-11-24T08:10:12.073Z,26281,0.12840678,0.0335385,-0.06280812
1732435812082,2024-11-24T08:10:12.082Z,26290,0.12840678,0.0335385,-0.06280812
1732435812105,2024-11-24T08:10:12.105Z,26313,0.06499313,0.0073238225,-0.07237106
1732435812113,2024-11-24T08:10:12.113Z,26321,0.06499313,0.0073238225,-0.07237106
1732435812131,2024-11-24T08:10:12.131Z,26339,0.20518568,0.050969474,-0.0013768879
1732435812136,2024-11-24T08:10:12.136Z,26344,0.20518568,0.050969474,-0.0013768879
1732435812150,2024-11-24T08:10:12.150Z,26358,-0.009785162,0.07421615,-0.05182397
1732435812155,2024-11-24T08:10:12.155Z,26363,-0.009785162,0.07421615,-0.05182397
1732435812168,2024-11-24T08:10:12.168Z,26376,0.06325363,0.0953227,-0.04509207
1732435812171,2024-11-24T08:10:12.171Z,26379,0.06325363,0.0953227,-0.04509207
1732435812183,2024-11-24T08:10:12.183Z,26391,0.1098376,0.115762904,0.07180307
1732435812186,2024-11-24T08:10:12.186Z,26394,0.1098376,0.115762904,0.07180307
1732435812197,2024-11-24T08:10:12.197Z,26405,0.12117316,0.20420186,-0.11005626
1732435812200,2024-11-24T08:10:12.200Z,26408,0.12117316,0.20420186,-0.11005626
1732435812224,2024-11-24T08:10:12.224Z,26432,0.033519562,0.21942586,-0.15761895
1732435812232,2024-11-24T08:10:12.232Z,26440,0.033519562,0.21942586,-0.15761895
1732435812251,2024-11-24T08:10:12.251Z,26459,0.15008295,0.22377117,-0.14446248
1732435812255,2024-11-24T08:10:12.255Z,26463,0.15008295,0.22377117,-0.14446248
1732435812268,2024-11-24T08:10:12.268Z,26476,0.01688038,0.19091073,-0.12775835
1732435812272,2024-11-24T08:10:12.272Z,26480,0.01688038,0.19091073,-0.12775835
1732435812282,2024-11-24T08:10:12.282Z,26490,0.036396246,0.1517358,-0.10317825
1732435812286,2024-11-24T08:10:12.286Z,26494,0.036396246,0.1517358,-0.10317825
1732435812296,2024-11-24T08:10:12.296Z,26504,0.067938685,0.14399946,-0.06495659
1732435812299,2024-11-24T08:10:12.299Z,26507,0.067938685,0.14399946,-0.06495659
1732435812308,2024-11-24T08:10:12.308Z,26516,0.032877628,0.1163354,-0.04035507
1732435812312,2024-11-24T08:10:12.312Z,26520,0.032877628,0.1163354,-0.04035507
1732435812323,2024-11-24T08:10:12.323Z,26531,3.6392527E-4,0.13111442,-0.10914194
1732435812327,2024-11-24T08:10:12.327Z,26535,3.6392527E-4,0.13111442,-0.10914194
1732435812338,2024-11-24T08:10:12.338Z,26546,-0.06995974,0.115357764,-0.15854463
1732435812342,2024-11-24T08:10:12.342Z,26550,-0.06995974,0.115357764,-0.15854463
1732435812351,2024-11-24T08:10:12.351Z,26559,-0.01268808,0.09495821,-0.12780091
1732435812355,2024-11-24T08:10:12.355Z,26563,-0.01268808,0.09495821,-0.12780091
1732435812367,2024-11-24T08:10:12.367Z,26575,0.02783108,0.05488194,-0.07281413
1732435812370,2024-11-24T08:10:12.370Z,26578,0.02783108,0.05488194,-0.07281413
1732435812380,2024-11-24T08:10:12.380Z,26588,0.0024954006,0.04903434,-0.11372424
1732435812383,2024-11-24T08:10:12.383Z,26591,0.0024954006,0.04903434,-0.11372424
1732435812394,2024-11-24T08:10:12.394Z,26602,-0.046167597,0.04119199,-0.15361679
1732435812398,2024-11-24T08:10:12.398Z,26606,-0.046167597,0.04119199,-0.15361679
1732435812408,2024-11-24T08:10:12.408Z,26616,-0.03381658,-0.022746045,-0.08415211
1732435812411,2024-11-24T08:10:12.411Z,26619,-0.03381658,-0.022746045,-0.08415211
1732435812421,2024-11-24T08:10:12.421Z,26629,-0.021891287,-0.013778835,-0.07532268
1732435812424,2024-11-24T08:10:12.424Z,26632,-0.021891287,-0.013778835,-0.07532268
1732435812447,2024-11-24T08:10:12.447Z,26655,0.016813984,-0.03405197,-0.06490632
1732435812454,2024-11-24T08:10:12.454Z,26662,0.016813984,-0.03405197,-0.06490632
1732435812472,2024-11-24T08:10:12.472Z,26680,0.009327441,-0.044182263,-0.07711688
1732435812475,2024-11-24T08:10:12.475Z,26683,0.009327441,-0.044182263,-0.07711688
1732435812487,2024-11-24T08:10:12.487Z,26695,-0.02151112,-0.026309201,-0.073475696
1732435812490,2024-11-24T08:10:12.490Z,26698,-0.02151112,-0.026309201,-0.073475696
1732435812502,2024-11-24T08:10:12.502Z,26710,0.07571967,-0.032888982,-0.045018714
1732435812506,2024-11-24T08:10:12.506Z,26714,0.07571967,-0.032888982,-0.045018714
1732435812516,2024-11-24T08:10:12.516Z,26724,0.03066748,0.02973981,-0.05334702
1732435812520,2024-11-24T08:10:12.520Z,26728,0.03066748,0.02973981,-0.05334702
1732435812532,2024-11-24T08:10:12.532Z,26740,0.076212935,-6.1810645E-4,-0.089069024
1732435812536,2024-11-24T08:10:12.536Z,26744,0.076212935,-6.1810645E-4,-0.089069024
1732435812546,2024-11-24T08:10:12.546Z,26754,0.11042721,0.018800998,-0.06085611
1732435812549,2024-11-24T08:10:12.549Z,26757,0.11042721,0.018800998,-0.06085611
1732435812559,2024-11-24T08:10:12.559Z,26767,0.09573318,0.025127545,-0.050630298
1732435812563,2024-11-24T08:10:12.563Z,26771,0.09573318,0.025127545,-0.050630298
1732435812573,2024-11-24T08:10:12.573Z,26781,0.120080456,-0.012509946,-0.020874234
1732435812576,2024-11-24T08:10:12.576Z,26784,0.120080456,-0.012509946,-0.020874234
1732435812588,2024-11-24T08:10:12.588Z,26796,0.099379994,0.005593008,-0.024113433
1732435812591,2024-11-24T08:10:12.591Z,26799,0.099379994,0.005593008,-0.024113433
1732435812603,2024-11-24T08:10:12.603Z,26811,0.06501554,-0.025086507,0.016618771
1732435812606,2024-11-24T08:10:12.606Z,26814,0.06501554,-0.025086507,0.016618771
1732435812623,2024-11-24T08:10:12.623Z,26831,0.013572548,-0.029596174,-0.044942252
1732435812628,2024-11-24T08:10:12.628Z,26836,0.013572548,-0.029596174,-0.044942252
1732435812638,2024-11-24T08:10:12.638Z,26846,0.052615948,-0.030748365,-0.049351025
1732435812641,2024-11-24T08:10:12.641Z,26849,0.052615948,-0.030748365,-0.049351025
1732435812652,2024-11-24T08:10:12.652Z,26860,0.09403003,-0.03654647,-0.08635639
1732435812655,2024-11-24T08:10:12.655Z,26863,0.09403003,-0.03654647,-0.08635639
1732435812664,2024-11-24T08:10:12.664Z,26872,0.09600557,-0.03125172,-0.04599084
1732435812667,2024-11-24T08:10:12.667Z,26875,0.09600557,-0.03125172,-0.04599084
1732435812678,2024-11-24T08:10:12.678Z,26886,0.003523382,-0.017583068,-0.072017744
1732435812681,2024-11-24T08:10:12.681Z,26889,0.003523382,-0.017583068,-0.072017744
1732435812691,2024-11-24T08:10:12.691Z,26899,0.040025167,-0.03156379,-0.071975306
1732435812694,2024-11-24T08:10:12.694Z,26902,0.040025167,-0.03156379,-0.071975306
1732435812703,2024-11-24T08:10:12.703Z,26911,0.015671786,-0.00835815,-0.055897586
1732435812706,2024-11-24T08:10:12.706Z,26914,0.015671786,-0.00835815,-0.055897586
1732435812715,2024-11-24T08:10:12.715Z,26923,0.044801656,0.002346004,-0.036959454
1732435812718,2024-11-24T08:10:12.718Z,26926,0.044801656,0.002346004,-0.036959454
1732435812727,2024-11-24T08:10:12.727Z,26935,0.006932425,0.02095805,-0.031650133
1732435812734,2024-11-24T08:10:12.734Z,26942,0.006932425,0.02095805,-0.031650133
1732435812743,2024-11-24T08:10:12.743Z,26951,-0.026173906,0.05869055,-0.036232892
1732435812746,2024-11-24T08:10:12.746Z,26954,-0.026173906,0.05869055,-0.036232892
1732435812754,2024-11-24T08:10:12.754Z,26962,-0.021169247,0.047418762,-0.024978234
1732435812757,2024-11-24T08:10:12.757Z,26965,-0.021169247,0.047418762,-0.024978234
1732435812766,2024-11-24T08:10:12.766Z,26974,0.018033154,0.05714908,-0.03044832
1732435812769,2024-11-24T08:10:12.769Z,26977,0.018033154,0.05714908,-0.03044832
1732435812779,2024-11-24T08:10:12.779Z,26987,0.018725194,0.046299443,-0.07412847
1732435812782,2024-11-24T08:10:12.782Z,26990,0.018725194,0.046299443,-0.07412847
1732435812791,2024-11-24T08:10:12.791Z,26999,0.013092338,0.0468098,-0.05450004
1732435812795,2024-11-24T08:10:12.795Z,27003,0.013092338,0.0468098,-0.05450004
1732435812806,2024-11-24T08:10:12.806Z,27014,-0.03252914,0.0483856,-0.04732944
1732435812809,2024-11-24T08:10:12.809Z,27017,-0.03252914,0.0483856,-0.04732944
1732435812821,2024-11-24T08:10:12.821Z,27029,-0.007755821,0.030418988,-0.021680502
1732435812824,2024-11-24T08:10:12.824Z,27032,-0.007755821,0.030418988,-0.021680502
1732435812835,2024-11-24T08:10:12.835Z,27043,0.02695354,0.028883057,-0.022539735
1732435812838,2024-11-24T08:10:12.838Z,27046,0.02695354,0.028883057,-0.022539735
1732435812848,2024-11-24T08:10:12.848Z,27056,0.0014467785,0.049752418,-0.017241107
1732435812851,2024-11-24T08:10:12.851Z,27059,0.0014467785,0.049752418,-0.017241107
1732435812861,2024-11-24T08:10:12.861Z,27069,0.008663653,0.05108257,-0.027067626
1732435812864,2024-11-24T08:10:12.864Z,27072,0.008663653,0.05108257,-0.027067626
1732435812874,2024-11-24T08:10:12.874Z,27082,0.032494936,0.054779053,0.031904727
1732435812879,2024-11-24T08:10:12.879Z,27087,0.032494936,0.054779053,0.031904727
1732435812889,2024-11-24T08:10:12.889Z,27097,-0.0048878402,0.066282295,-0.026689064
1732435812893,2024-11-24T08:10:12.893Z,27101,-0.0048878402,0.066282295,-0.026689064
1732435812904,2024-11-24T08:10:12.904Z,27112,0.00240321,0.07326983,-0.033820506
1732435812907,2024-11-24T08:10:12.907Z,27115,0.00240321,0.07326983,-0.033820506
1732435812919,2024-11-24T08:10:12.919Z,27127,0.017662471,0.08301999,-0.040460132
1732435812923,2024-11-24T08:10:12.923Z,27131,0.017662471,0.08301999,-0.040460132
1732435812932,2024-11-24T08:10:12.932Z,27140,0.015556352,0.05763512,-0.016470784
1732435812936,2024-11-24T08:10:12.936Z,27144,0.015556352,0.05763512,-0.016470784
1732435812954,2024-11-24T08:10:12.954Z,27162,0.035891652,0.056704074,-0.013284622
1732435812960,2024-11-24T08:10:12.960Z,27168,0.035891652,0.056704074,-0.013284622
1732435812980,2024-11-24T08:10:12.980Z,27188,0.0165131,0.07789775,-0.044009563
1732435812987,2024-11-24T08:10:12.987Z,27195,0.0165131,0.07789775,-0.044009563
1732435813003,2024-11-24T08:10:13.003Z,27211,-0.004472544,0.042859986,-0.08257632
1732435813007,2024-11-24T08:10:13.007Z,27215,-0.004472544,0.042859986,-0.08257632
1732435813017,2024-11-24T08:10:13.017Z,27225,0.058359325,0.019581119,-0.044802595
1732435813021,2024-11-24T08:10:13.021Z,27229,0.058359325,0.019581119,-0.044802595
1732435813032,2024-11-24T08:10:13.032Z,27240,0.03461588,-0.0034479178,0.01167432
1732435813036,2024-11-24T08:10:13.036Z,27244,0.03461588,-0.0034479178,0.01167432
1732435813046,2024-11-24T08:10:13.046Z,27254,0.028379412,-0.006867245,-0.023582121
1732435813050,2024-11-24T08:10:13.050Z,27258,0.028379412,-0.006867245,-0.023582121
1732435813059,2024-11-24T08:10:13.059Z,27267,-0.038417246,-0.019099645,-0.08162505
1732435813063,2024-11-24T08:10:13.063Z,27271,-0.038417246,-0.019099645,-0.08162505
1732435813078,2024-11-24T08:10:13.078Z,27286,0.026677819,-0.013334704,0.0057001505
1732435813081,2024-11-24T08:10:13.081Z,27289,0.026677819,-0.013334704,0.0057001505
1732435813091,2024-11-24T08:10:13.091Z,27299,0.019682353,-0.023763645,-0.0023299458
1732435813094,2024-11-24T08:10:13.094Z,27302,0.019682353,-0.023763645,-0.0023299458
1732435813104,2024-11-24T08:10:13.104Z,27312,0.08110632,-0.0014732056,0.026480127
1732435813107,2024-11-24T08:10:13.107Z,27315,0.08110632,-0.0014732056,0.026480127
1732435813116,2024-11-24T08:10:13.116Z,27324,-0.08131859,-0.024746627,-0.1310558
1732435813119,2024-11-24T08:10:13.119Z,27327,-0.08131859,-0.024746627,-0.1310558
1732435813140,2024-11-24T08:10:13.140Z,27348,0.08200506,-0.061827958,0.0033898123
1732435813146,2024-11-24T08:10:13.146Z,27354,0.08200506,-0.061827958,0.0033898123
1732435813164,2024-11-24T08:10:13.164Z,27372,0.12297375,0.021793894,0.029545994
1732435813174,2024-11-24T08:10:13.174Z,27382,0.12297375,0.021793894,0.029545994
1732435813185,2024-11-24T08:10:13.185Z,27393,0.08439266,0.0020725434,0.03226532
1732435813192,2024-11-24T08:10:13.192Z,27400,0.08439266,0.0020725434,0.03226532
1732435813205,2024-11-24T08:10:13.205Z,27413,0.10197916,0.022272741,0.028901607
1732435813209,2024-11-24T08:10:13.209Z,27417,0.10197916,0.022272741,0.028901607
1732435813223,2024-11-24T08:10:13.223Z,27431,-0.03190537,0.0070761326,-0.07532756
1732435813229,2024-11-24T08:10:13.229Z,27437,-0.03190537,0.0070761326,-0.07532756
1732435813240,2024-11-24T08:10:13.240Z,27448,0.08824564,-0.06360953,-0.02138098
1732435813243,2024-11-24T08:10:13.243Z,27451,0.08824564,-0.06360953,-0.02138098
1732435813253,2024-11-24T08:10:13.253Z,27461,0.13316227,-0.03072493,0.024489053
1732435813255,2024-11-24T08:10:13.255Z,27463,0.13316227,-0.03072493,0.024489053
1732435813264,2024-11-24T08:10:13.264Z,27472,0.028144559,-0.030500092,-0.03812745
1732435813267,2024-11-24T08:10:13.267Z,27475,0.028144559,-0.030500092,-0.03812745
1732435813275,2024-11-24T08:10:13.275Z,27483,0.036981653,-0.035382316,-0.047187556
1732435813278,2024-11-24T08:10:13.278Z,27486,0.036981653,-0.035382316,-0.047187556
1732435813288,2024-11-24T08:10:13.288Z,27496,0.004442616,-0.05664261,-0.077136025
1732435813292,2024-11-24T08:10:13.292Z,27500,0.004442616,-0.05664261,-0.077136025
1732435813304,2024-11-24T08:10:13.304Z,27512,0.023033656,-0.028278468,-0.069620475
1732435813307,2024-11-24T08:10:13.307Z,27515,0.023033656,-0.028278468,-0.069620475
1732435813315,2024-11-24T08:10:13.315Z,27523,-0.052238602,-0.042417508,-0.088531874
1732435813318,2024-11-24T08:10:13.318Z,27526,-0.052238602,-0.042417508,-0.088531874
1732435813328,2024-11-24T08:10:13.328Z,27536,0.05892706,-0.030560385,-0.046603367
1732435813331,2024-11-24T08:10:13.331Z,27539,0.05892706,-0.030560385,-0.046603367
1732435813340,2024-11-24T08:10:13.340Z,27548,0.0032415094,-0.019750234,-0.028637154
1732435813343,2024-11-24T08:10:13.343Z,27551,0.0032415094,-0.019750234,-0.028637154
1732435813356,2024-11-24T08:10:13.356Z,27564,0.021551454,6.0293582E-6,-0.015257729
1732435813359,2024-11-24T08:10:13.359Z,27567,0.021551454,6.0293582E-6,-0.015257729
1732435813370,2024-11-24T08:10:13.370Z,27578,0.047034245,0.012360282,-0.019347847
1732435813373,2024-11-24T08:10:13.373Z,27581,0.047034245,0.012360282,-0.019347847
1732435813381,2024-11-24T08:10:13.381Z,27589,0.11378493,0.0492231,-0.019047204
1732435813384,2024-11-24T08:10:13.384Z,27592,0.11378493,0.0492231,-0.019047204
1732435813403,2024-11-24T08:10:13.403Z,27611,-0.0103421,0.070915855,-0.09388457
1732435813408,2024-11-24T08:10:13.408Z,27616,-0.0103421,0.070915855,-0.09388457
1732435813420,2024-11-24T08:10:13.420Z,27628,0.1625536,0.077241234,0.02149668
1732435813423,2024-11-24T08:10:13.423Z,27631,0.1625536,0.077241234,0.02149668
1732435813433,2024-11-24T08:10:13.433Z,27641,0.040239647,0.07064619,-0.027240628
1732435813436,2024-11-24T08:10:13.436Z,27644,0.040239647,0.07064619,-0.027240628
1732435813446,2024-11-24T08:10:13.446Z,27654,0.04959405,0.019506821,-0.0064921845
1732435813449,2024-11-24T08:10:13.449Z,27657,0.04959405,0.019506821,-0.0064921845
1732435813458,2024-11-24T08:10:13.458Z,27666,0.10237454,0.07830566,-0.035127904
1732435813460,2024-11-24T08:10:13.460Z,27668,0.10237454,0.07830566,-0.035127904
1732435813470,2024-11-24T08:10:13.470Z,27678,0.10564274,0.050396588,-0.014475456
1732435813473,2024-11-24T08:10:13.473Z,27681,0.10564274,0.050396588,-0.014475456
1732435813482,2024-11-24T08:10:13.482Z,27690,0.10009612,0.08258008,-0.009076797
1732435813485,2024-11-24T08:10:13.485Z,27693,0.10009612,0.08258008,-0.009076797
1732435813496,2024-11-24T08:10:13.496Z,27704,0.0694728,0.07107028,-0.095445506
1732435813500,2024-11-24T08:10:13.500Z,27708,0.0694728,0.07107028,-0.095445506
1732435813511,2024-11-24T08:10:13.511Z,27719,0.076336734,0.018666504,-0.0997741
1732435813514,2024-11-24T08:10:13.514Z,27722,0.076336734,0.018666504,-0.0997741
1732435813525,2024-11-24T08:10:13.525Z,27733,0.16194208,0.013040626,-0.022954958
1732435813528,2024-11-24T08:10:13.528Z,27736,0.16194208,0.013040626,-0.022954958
1732435813539,2024-11-24T08:10:13.539Z,27747,0.008561349,-0.0026689635,-0.08184444
1732435813542,2024-11-24T08:10:13.542Z,27750,0.008561349,-0.0026689635,-0.08184444
1732435813552,2024-11-24T08:10:13.552Z,27760,0.06592671,-0.036126748,-0.09570862
1732435813556,2024-11-24T08:10:13.556Z,27764,0.06592671,-0.036126748,-0.09570862
1732435813567,2024-11-24T08:10:13.567Z,27775,0.077712886,-0.044633977,-0.083470136
1732435813570,2024-11-24T08:10:13.570Z,27778,0.077712886,-0.044633977,-0.083470136
1732435813581,2024-11-24T08:10:13.581Z,27789,0.075828955,-0.068829596,-0.057113826
1732435813584,2024-11-24T08:10:13.584Z,27792,0.075828955,-0.068829596,-0.057113826
1732435813594,2024-11-24T08:10:13.594Z,27802,0.0047687846,-0.043402627,-0.06379983
1732435813597,2024-11-24T08:10:13.597Z,27805,0.0047687846,-0.043402627,-0.06379983
1732435813609,2024-11-24T08:10:13.609Z,27817,-0.010581183,-0.05024167,-0.065076806
1732435813613,2024-11-24T08:10:13.613Z,27821,-0.010581183,-0.05024167,-0.065076806
1732435813629,2024-11-24T08:10:13.629Z,27837,0.058142025,-0.05244433,-0.07716063
1732435813633,2024-11-24T08:10:13.633Z,27841,0.058142025,-0.05244433,-0.07716063
1732435813645,2024-11-24T08:10:13.645Z,27853,0.037124656,-0.046248388,-0.033918567
1732435813648,2024-11-24T08:10:13.648Z,27856,0.037124656,-0.046248388,-0.033918567
1732435813671,2024-11-24T08:10:13.671Z,27879,0.020656824,-0.033253077,-0.03055652
1732435813673,2024-11-24T08:10:13.673Z,27881,0.020656824,-0.033253077,-0.03055652
1732435813684,2024-11-24T08:10:13.684Z,27892,-0.013278495,-0.024535794,-0.07746797
1732435813687,2024-11-24T08:10:13.687Z,27895,-0.013278495,-0.024535794,-0.07746797
1732435813697,2024-11-24T08:10:13.697Z,27905,0.050660275,-5.390441E-4,-0.08977329
1732435813701,2024-11-24T08:10:13.701Z,27909,0.050660275,-5.390441E-4,-0.08977329
1732435813717,2024-11-24T08:10:13.717Z,27925,-0.011056141,-0.038064018,-0.08840984
1732435813720,2024-11-24T08:10:13.720Z,27928,-0.011056141,-0.038064018,-0.08840984
1732435813729,2024-11-24T08:10:13.729Z,27937,0.1099417,-0.0035220205,-0.0022865855
1732435813732,2024-11-24T08:10:13.732Z,27940,0.1099417,-0.0035220205,-0.0022865855
1732435813742,2024-11-24T08:10:13.742Z,27950,-0.089012094,0.008873757,-0.093596734
1732435813745,2024-11-24T08:10:13.745Z,27953,-0.089012094,0.008873757,-0.093596734
1732435813809,2024-11-24T08:10:13.809Z,28017,-0.008278455,-0.005875123,-0.08022896
1732435813813,2024-11-24T08:10:13.813Z,28021,-0.008278455,-0.005875123,-0.08022896
1732435813826,2024-11-24T08:10:13.826Z,28034,0.046263266,-1.8836882E-4,-0.026861945
1732435813832,2024-11-24T08:10:13.832Z,28040,0.046263266,-1.8836882E-4,-0.026861945
1732435813846,2024-11-24T08:10:13.846Z,28054,0.04035221,0.0099486355,-0.04338516
1732435813849,2024-11-24T08:10:13.849Z,28057,0.04035221,0.0099486355,-0.04338516
1732435813873,2024-11-24T08:10:13.873Z,28081,0.034622326,-0.03717634,-0.028582027
1732435813881,2024-11-24T08:10:13.881Z,28089,0.034622326,-0.03717634,-0.028582027
1732435813902,2024-11-24T08:10:13.902Z,28110,0.091256626,-0.009430305,0.025071299
1732435813906,2024-11-24T08:10:13.906Z,28114,0.091256626,-0.009430305,0.025071299
1732435813920,2024-11-24T08:10:13.920Z,28128,0.037082013,-8.966239E-5,-0.038177095
1732435813924,2024-11-24T08:10:13.924Z,28132,0.037082013,-8.966239E-5,-0.038177095
1732435813936,2024-11-24T08:10:13.936Z,28144,0.059356116,-0.018644234,-0.053792365
1732435813940,2024-11-24T08:10:13.940Z,28148,0.059356116,-0.018644234,-0.053792365
1732435813951,2024-11-24T08:10:13.951Z,28159,-0.0044439775,-0.059139546,-0.025342425
1732435813955,2024-11-24T08:10:13.955Z,28163,-0.0044439775,-0.059139546,-0.025342425
1732435813964,2024-11-24T08:10:13.964Z,28172,-0.027524166,-0.051951285,-0.07062999
1732435813967,2024-11-24T08:10:13.967Z,28175,-0.027524166,-0.051951285,-0.07062999
1732435813977,2024-11-24T08:10:13.977Z,28185,0.013388287,-0.041968808,-0.054381203
1732435813980,2024-11-24T08:10:13.980Z,28188,0.013388287,-0.041968808,-0.054381203
1732435813990,2024-11-24T08:10:13.990Z,28198,0.04044007,-0.050140824,-0.07316096
1732435813993,2024-11-24T08:10:13.993Z,28201,0.04044007,-0.050140824,-0.07316096
1732435814002,2024-11-24T08:10:14.002Z,28210,0.018478476,-0.0528554,-0.04780694
1732435814005,2024-11-24T08:10:14.005Z,28213,0.018478476,-0.0528554,-0.04780694
1732435814015,2024-11-24T08:10:14.015Z,28223,-0.0073169665,-0.030639643,-0.07316803
1732435814018,2024-11-24T08:10:14.018Z,28226,-0.0073169665,-0.030639643,-0.07316803
1732435814028,2024-11-24T08:10:14.028Z,28236,0.0116007775,-0.043558806,-0.07900902
1732435814033,2024-11-24T08:10:14.033Z,28241,0.0116007775,-0.043558806,-0.07900902
1732435814043,2024-11-24T08:10:14.043Z,28251,0.0648581,-0.005853826,-0.05474304
1732435814046,2024-11-24T08:10:14.046Z,28254,0.0648581,-0.005853826,-0.05474304
1732435814055,2024-11-24T08:10:14.055Z,28263,-0.029151656,0.0063970517,-0.09770801
1732435814058,2024-11-24T08:10:14.058Z,28266,-0.029151656,0.0063970517,-0.09770801
1732435814069,2024-11-24T08:10:14.069Z,28277,0.03496551,0.020015718,-0.07588817
1732435814071,2024-11-24T08:10:14.071Z,28279,0.03496551,0.020015718,-0.07588817
1732435814081,2024-11-24T08:10:14.081Z,28289,0.113659285,-0.0029317269,-0.06298196
1732435814085,2024-11-24T08:10:14.085Z,28293,0.113659285,-0.0029317269,-0.06298196
1732435814123,2024-11-24T08:10:14.123Z,28331,0.051463928,0.022271866,-0.05616241
1732435814126,2024-11-24T08:10:14.126Z,28334,0.051463928,0.022271866,-0.05616241
1732435814137,2024-11-24T08:10:14.137Z,28345,0.059652966,0.0149091445,-0.042355824
1732435814140,2024-11-24T08:10:14.140Z,28348,0.059652966,0.0149091445,-0.042355824
1732435814150,2024-11-24T08:10:14.150Z,28358,-0.029325292,0.018777074,-0.09308569
1732435814153,2024-11-24T08:10:14.153Z,28361,-0.029325292,0.018777074,-0.09308569
1732435814168,2024-11-24T08:10:14.168Z,28376,0.07836624,0.009074963,-0.030136101
1732435814171,2024-11-24T08:10:14.171Z,28379,0.07836624,0.009074963,-0.030136101
1732435814180,2024-11-24T08:10:14.180Z,28388,0.02902256,-0.01007603,-0.0072574513
1732435814183,2024-11-24T08:10:14.183Z,28391,0.02902256,-0.01007603,-0.0072574513
1732435814192,2024-11-24T08:10:14.192Z,28400,0.024546977,0.0040486166,-0.012271245
1732435814195,2024-11-24T08:10:14.195Z,28403,0.024546977,0.0040486166,-0.012271245
1732435814228,2024-11-24T08:10:14.228Z,28436,0.03225123,9.4699825E-4,-0.04684599
1732435814234,2024-11-24T08:10:14.234Z,28442,0.03225123,9.4699825E-4,-0.04684599
1732435814244,2024-11-24T08:10:14.244Z,28452,0.036166765,-0.016281797,-0.09517162
1732435814247,2024-11-24T08:10:14.247Z,28455,0.036166765,-0.016281797,-0.09517162
1732435814257,2024-11-24T08:10:14.257Z,28465,-0.004798348,0.0054028886,-0.020860424
1732435814260,2024-11-24T08:10:14.260Z,28468,-0.004798348,0.0054028886,-0.020860424
1732435814270,2024-11-24T08:10:14.270Z,28478,-0.00783306,-0.00450325,0.030010495
1732435814274,2024-11-24T08:10:14.274Z,28482,-0.00783306,-0.00450325,0.030010495
1732435814282,2024-11-24T08:10:14.282Z,28490,0.019449884,-0.012393249,0.022592284
1732435814285,2024-11-24T08:10:14.285Z,28493,0.019449884,-0.012393249,0.022592284
1732435814292,2024-11-24T08:10:14.292Z,28500,0.012958695,-0.017863238,0.022879219
1732435814295,2024-11-24T08:10:14.295Z,28503,0.012958695,-0.017863238,0.022879219
1732435814304,2024-11-24T08:10:14.304Z,28512,-0.0013878708,-0.0047548297,-0.0045057754
1732435814307,2024-11-24T08:10:14.307Z,28515,-0.0013878708,-0.0047548297,-0.0045057754
1732435814315,2024-11-24T08:10:14.315Z,28523,-0.014155231,0.003274525,-0.08974503
1732435814317,2024-11-24T08:10:14.317Z,28525,-0.014155231,0.003274525,-0.08974503
1732435814327,2024-11-24T08:10:14.327Z,28535,0.05702183,-0.035824697,-0.045666743
1732435814330,2024-11-24T08:10:14.330Z,28538,0.05702183,-0.035824697,-0.045666743
1732435814342,2024-11-24T08:10:14.342Z,28550,0.027899398,-0.020112578,-0.062013615
1732435814346,2024-11-24T08:10:14.346Z,28554,0.027899398,-0.020112578,-0.062013615
1732435814355,2024-11-24T08:10:14.355Z,28563,0.049056806,-0.038541894,0.029383427
1732435814358,2024-11-24T08:10:14.358Z,28566,0.049056806,-0.038541894,0.029383427
1732435814366,2024-11-24T08:10:14.366Z,28574,0.02292712,-0.031013172,0.005766489
1732435814370,2024-11-24T08:10:14.370Z,28578,0.02292712,-0.031013172,0.005766489
1732435814377,2024-11-24T08:10:14.377Z,28585,-0.024428675,-0.04872402,0.02187214
1732435814379,2024-11-24T08:10:14.379Z,28587,-0.024428675,-0.04872402,0.02187214
1732435814393,2024-11-24T08:10:14.393Z,28601,-0.029706357,-0.06647728,-0.056763936
1732435814395,2024-11-24T08:10:14.395Z,28603,-0.029706357,-0.06647728,-0.056763936
1732435814404,2024-11-24T08:10:14.404Z,28612,-0.029735288,-0.051492956,-0.08663233
1732435814407,2024-11-24T08:10:14.407Z,28615,-0.029735288,-0.051492956,-0.08663233
1732435814417,2024-11-24T08:10:14.417Z,28625,0.010144882,-0.059869293,-0.06672802
1732435814420,2024-11-24T08:10:14.420Z,28628,0.010144882,-0.059869293,-0.06672802
1732435814438,2024-11-24T08:10:14.438Z,28646,6.768441E-4,-0.07543593,-0.010622105
1732435814441,2024-11-24T08:10:14.441Z,28649,6.768441E-4,-0.07543593,-0.010622105
1732435814451,2024-11-24T08:10:14.451Z,28659,-0.028898228,-0.057396088,0.0047420645
1732435814454,2024-11-24T08:10:14.454Z,28662,-0.028898228,-0.057396088,0.0047420645
1732435814464,2024-11-24T08:10:14.464Z,28672,0.04416787,-0.05311009,6.959593E-5
1732435814467,2024-11-24T08:10:14.467Z,28675,0.04416787,-0.05311009,6.959593E-5
1732435814494,2024-11-24T08:10:14.494Z,28702,0.041148912,-0.021675544,-0.1476268
1732435814497,2024-11-24T08:10:14.497Z,28705,0.041148912,-0.021675544,-0.1476268
1732435814505,2024-11-24T08:10:14.505Z,28713,0.057701834,-0.02902893,-0.10881861
1732435814508,2024-11-24T08:10:14.508Z,28716,0.057701834,-0.02902893,-0.10881861
1732435814527,2024-11-24T08:10:14.527Z,28735,0.06128405,-0.059645135,-0.056546763
1732435814529,2024-11-24T08:10:14.529Z,28737,0.06128405,-0.059645135,-0.056546763
1732435814540,2024-11-24T08:10:14.540Z,28748,0.02333955,-0.041073836,-0.0060487306
1732435814543,2024-11-24T08:10:14.543Z,28751,0.02333955,-0.041073836,-0.0060487306
1732435814554,2024-11-24T08:10:14.554Z,28762,0.010179307,-0.061570544,-0.024332156
1732435814557,2024-11-24T08:10:14.557Z,28765,0.010179307,-0.061570544,-0.024332156
1732435814571,2024-11-24T08:10:14.571Z,28779,-0.03799123,-0.057263054,-0.024924984
1732435814574,2024-11-24T08:10:14.574Z,28782,-0.03799123,-0.057263054,-0.024924984
1732435814621,2024-11-24T08:10:14.621Z,28829,-0.029295776,-0.053837016,-0.07493101
1732435814625,2024-11-24T08:10:14.625Z,28833,-0.029295776,-0.053837016,-0.07493101
1732435814636,2024-11-24T08:10:14.636Z,28844,0.045442108,-0.018361634,-0.065346114
1732435814641,2024-11-24T08:10:14.641Z,28849,0.045442108,-0.018361634,-0.065346114
1732435814652,2024-11-24T08:10:14.652Z,28860,0.063363254,-0.0369941,-0.03789436
1732435814656,2024-11-24T08:10:14.656Z,28864,0.063363254,-0.0369941,-0.03789436
1732435814665,2024-11-24T08:10:14.665Z,28873,0.049460772,-0.026206315,-0.02607923
1732435814668,2024-11-24T08:10:14.668Z,28876,0.049460772,-0.026206315,-0.02607923
1732435814677,2024-11-24T08:10:14.677Z,28885,0.0019953772,-0.005075261,-0.056192867
1732435814680,2024-11-24T08:10:14.680Z,28888,0.0019953772,-0.005075261,-0.056192867
1732435814688,2024-11-24T08:10:14.688Z,28896,-0.017718874,-0.010565284,-0.09895383
1732435814691,2024-11-24T08:10:14.691Z,28899,-0.017718874,-0.010565284,-0.09895383
1732435814706,2024-11-24T08:10:14.706Z,28914,0.058003787,-0.031825483,-0.09173887
1732435814708,2024-11-24T08:10:14.708Z,28916,0.058003787,-0.031825483,-0.09173887
1732435814716,2024-11-24T08:10:14.716Z,28924,0.037535917,0.01379984,-0.03976466
1732435814719,2024-11-24T08:10:14.719Z,28927,0.037535917,0.01379984,-0.03976466
1732435814728,2024-11-24T08:10:14.728Z,28936,0.0176773,-0.0026261746,-0.06619404
1732435814731,2024-11-24T08:10:14.731Z,28939,0.0176773,-0.0026261746,-0.06619404
1732435814750,2024-11-24T08:10:14.750Z,28958,0.0043049133,0.008693168,-0.06615841
1732435814753,2024-11-24T08:10:14.753Z,28961,0.0043049133,0.008693168,-0.06615841
1732435814762,2024-11-24T08:10:14.762Z,28970,0.10649629,-0.03459792,-0.019545726
1732435814765,2024-11-24T08:10:14.765Z,28973,0.10649629,-0.03459792,-0.019545726
1732435814774,2024-11-24T08:10:14.774Z,28982,0.06685391,-0.016473569,-0.029405195
1732435814776,2024-11-24T08:10:14.776Z,28984,0.06685391,-0.016473569,-0.029405195
1732435814785,2024-11-24T08:10:14.785Z,28993,0.030711072,-0.012312144,-0.043923184
1732435814787,2024-11-24T08:10:14.787Z,28995,0.030711072,-0.012312144,-0.043923184
1732435814796,2024-11-24T08:10:14.796Z,29004,0.0035346628,-0.014003185,-0.010542801
1732435814799,2024-11-24T08:10:14.799Z,29007,0.0035346628,-0.014003185,-0.010542801
1732435814808,2024-11-24T08:10:14.808Z,29016,0.023124874,-0.0045855213,-0.06154915
1732435814811,2024-11-24T08:10:14.811Z,29019,0.023124874,-0.0045855213,-0.06154915
1732435814821,2024-11-24T08:10:14.821Z,29029,0.1023002,0.012923735,-0.05107587
1732435814824,2024-11-24T08:10:14.824Z,29032,0.1023002,0.012923735,-0.05107587
1732435814842,2024-11-24T08:10:14.842Z,29050,0.042482663,0.009466871,-0.01847898
1732435814844,2024-11-24T08:10:14.844Z,29052,0.042482663,0.009466871,-0.01847898
1732435814854,2024-11-24T08:10:14.854Z,29062,0.026732717,0.0044615306,0.019244587
1732435814856,2024-11-24T08:10:14.856Z,29064,0.026732717,0.0044615306,0.019244587
1732435814865,2024-11-24T08:10:14.865Z,29073,-0.029838419,-0.0070123384,0.008603791
1732435814868,2024-11-24T08:10:14.868Z,29076,-0.029838419,-0.0070123384,0.008603791
1732435814888,2024-11-24T08:10:14.888Z,29096,-0.030967562,0.023394104,-0.04170107
1732435814891,2024-11-24T08:10:14.891Z,29099,-0.030967562,0.023394104,-0.04170107
1732435814900,2024-11-24T08:10:14.900Z,29108,0.0017042662,0.025208455,-0.073591046
1732435814903,2024-11-24T08:10:14.903Z,29111,0.0017042662,0.025208455,-0.073591046
1732435814911,2024-11-24T08:10:14.911Z,29119,0.050401982,7.702019E-4,-0.10892229
1732435814914,2024-11-24T08:10:14.914Z,29122,0.050401982,7.702019E-4,-0.10892229
1732435814931,2024-11-24T08:10:14.931Z,29139,0.025312413,-0.014872968,-0.016381675
1732435814935,2024-11-24T08:10:14.935Z,29143,0.025312413,-0.014872968,-0.016381675
1732435814943,2024-11-24T08:10:14.943Z,29151,-0.018561818,-0.04650065,-0.017710024
1732435814946,2024-11-24T08:10:14.946Z,29154,-0.018561818,-0.04650065,-0.017710024
1732435814976,2024-11-24T08:10:14.976Z,29184,-0.0049275416,-0.040752143,0.0022924994
1732435814979,2024-11-24T08:10:14.979Z,29187,-0.0049275416,-0.040752143,0.0022924994
1732435814989,2024-11-24T08:10:14.989Z,29197,-0.052469663,-0.06688601,0.017349394
1732435814991,2024-11-24T08:10:14.991Z,29199,-0.052469663,-0.06688601,0.017349394
1732435815000,2024-11-24T08:10:15Z,29208,-0.0046248096,-0.0566113,0.0018602698
1732435815003,2024-11-24T08:10:15.003Z,29211,-0.0046248096,-0.0566113,0.0018602698
1732435815023,2024-11-24T08:10:15.023Z,29231,0.030004542,-0.090305395,0.003463277
1732435815028,2024-11-24T08:10:15.028Z,29236,0.030004542,-0.090305395,0.003463277
1732435815038,2024-11-24T08:10:15.038Z,29246,0.027910458,-0.07668459,-0.030497722
1732435815042,2024-11-24T08:10:15.042Z,29250,0.027910458,-0.07668459,-0.030497722
1732435815051,2024-11-24T08:10:15.051Z,29259,-0.041254766,-0.080398865,-0.04645138
1732435815054,2024-11-24T08:10:15.054Z,29262,-0.041254766,-0.080398865,-0.04645138
1732435815074,2024-11-24T08:10:15.074Z,29282,-0.037031393,-0.072004445,-0.017296039
1732435815079,2024-11-24T08:10:15.079Z,29287,-0.037031393,-0.072004445,-0.017296039
1732435815092,2024-11-24T08:10:15.092Z,29300,0.014952274,-0.11262686,-0.011910104
1732435815098,2024-11-24T08:10:15.098Z,29306,0.014952274,-0.11262686,-0.011910104
1732435815111,2024-11-24T08:10:15.111Z,29319,-0.023335805,-0.09273289,-0.014069398
1732435815114,2024-11-24T08:10:15.114Z,29322,-0.023335805,-0.09273289,-0.014069398
1732435815124,2024-11-24T08:10:15.124Z,29332,-0.0047883075,-0.0870968,-0.053399224
1732435815127,2024-11-24T08:10:15.127Z,29335,-0.0047883075,-0.0870968,-0.053399224
1732435815136,2024-11-24T08:10:15.136Z,29344,-0.021456687,-0.0911673,-0.058163237
1732435815139,2024-11-24T08:10:15.139Z,29347,-0.021456687,-0.0911673,-0.058163237
1732435815146,2024-11-24T08:10:15.146Z,29354,0.009321631,-0.09523527,-0.046571005
1732435815149,2024-11-24T08:10:15.149Z,29357,0.009321631,-0.09523527,-0.046571005
1732435815158,2024-11-24T08:10:15.158Z,29366,0.0056631477,-0.09642208,-0.06510751
1732435815160,2024-11-24T08:10:15.160Z,29368,0.0056631477,-0.09642208,-0.06510751
1732435815170,2024-11-24T08:10:15.170Z,29378,0.03825764,-0.08971753,-0.027922384
1732435815173,2024-11-24T08:10:15.173Z,29381,0.03825764,-0.08971753,-0.027922384
1732435815184,2024-11-24T08:10:15.184Z,29392,0.038975887,-0.08777637,-0.029809944
1732435815187,2024-11-24T08:10:15.187Z,29395,0.038975887,-0.08777637,-0.029809944
1732435815201,2024-11-24T08:10:15.201Z,29409,0.027014831,-0.07120643,-0.008375787
1732435815203,2024-11-24T08:10:15.203Z,29411,0.027014831,-0.07120643,-0.008375787
1732435815211,2024-11-24T08:10:15.211Z,29419,0.020030111,-0.04930858,-0.04069846
1732435815214,2024-11-24T08:10:15.214Z,29422,0.020030111,-0.04930858,-0.04069846
1732435815222,2024-11-24T08:10:15.222Z,29430,-0.013939245,-0.027419966,-0.08231376
1732435815224,2024-11-24T08:10:15.224Z,29432,-0.013939245,-0.027419966,-0.08231376
1732435815244,2024-11-24T08:10:15.244Z,29452,0.019262122,-0.03736695,-0.058724456
1732435815247,2024-11-24T08:10:15.247Z,29455,0.019262122,-0.03736695,-0.058724456
1732435815256,2024-11-24T08:10:15.256Z,29464,0.032741677,-0.015824731,-0.031363275
1732435815258,2024-11-24T08:10:15.258Z,29466,0.032741677,-0.015824731,-0.031363275
1732435815266,2024-11-24T08:10:15.266Z,29474,0.007293773,-0.0076109953,-0.031931713
1732435815269,2024-11-24T08:10:15.269Z,29477,0.007293773,-0.0076109953,-0.031931713
1732435815278,2024-11-24T08:10:15.278Z,29486,0.024546126,-0.005116591,-0.059123497
1732435815280,2024-11-24T08:10:15.280Z,29488,0.024546126,-0.005116591,-0.059123497
1732435815290,2024-11-24T08:10:15.290Z,29498,0.014877101,0.03383783,-0.07622124
1732435815292,2024-11-24T08:10:15.292Z,29500,0.014877101,0.03383783,-0.07622124
1732435815301,2024-11-24T08:10:15.301Z,29509,0.019108446,0.024927603,-0.08323176
1732435815304,2024-11-24T08:10:15.304Z,29512,0.019108446,0.024927603,-0.08323176
1732435815312,2024-11-24T08:10:15.312Z,29520,-0.013767845,0.032701585,-0.08016073
1732435815314,2024-11-24T08:10:15.314Z,29522,-0.013767845,0.032701585,-0.08016073
1732435815335,2024-11-24T08:10:15.335Z,29543,-0.0026497815,0.032710142,-0.07932135
1732435815338,2024-11-24T08:10:15.338Z,29546,-0.0026497815,0.032710142,-0.07932135
1732435815345,2024-11-24T08:10:15.345Z,29553,0.017610418,0.004792951,-0.012465406
1732435815348,2024-11-24T08:10:15.348Z,29556,0.017610418,0.004792951,-0.012465406
1732435815356,2024-11-24T08:10:15.356Z,29564,0.028708352,0.011674101,0.005028497
1732435815358,2024-11-24T08:10:15.358Z,29566,0.028708352,0.011674101,0.005028497
1732435815389,2024-11-24T08:10:15.389Z,29597,-0.0028797723,0.024462856,-0.030544097
1732435815395,2024-11-24T08:10:15.395Z,29603,-0.0028797723,0.024462856,-0.030544097
1732435815405,2024-11-24T08:10:15.405Z,29613,-0.06516849,0.019703943,-0.03131153
1732435815407,2024-11-24T08:10:15.407Z,29615,-0.06516849,0.019703943,-0.03131153
1732435815415,2024-11-24T08:10:15.415Z,29623,-0.046194293,0.013224814,-0.039642684
1732435815419,2024-11-24T08:10:15.419Z,29627,-0.046194293,0.013224814,-0.039642684
1732435815427,2024-11-24T08:10:15.427Z,29635,0.0044182795,-2.8970095E-4,-0.041047264
1732435815429,2024-11-24T08:10:15.429Z,29637,0.0044182795,-2.8970095E-4,-0.041047264
1732435815437,2024-11-24T08:10:15.437Z,29645,0.0013096593,-0.004633173,0.0064543854
1732435815440,2024-11-24T08:10:15.440Z,29648,0.0013096593,-0.004633173,0.0064543854
1732435815448,2024-11-24T08:10:15.448Z,29656,-0.03360716,-0.003407268,-0.019193405
1732435815451,2024-11-24T08:10:15.451Z,29659,-0.03360716,-0.003407268,-0.019193405
1732435815460,2024-11-24T08:10:15.460Z,29668,-0.03966153,-0.0036903564,-0.037757564
1732435815462,2024-11-24T08:10:15.462Z,29670,-0.03966153,-0.0036903564,-0.037757564
1732435815471,2024-11-24T08:10:15.471Z,29679,0.005160693,-0.016881134,-0.053978194
1732435815475,2024-11-24T08:10:15.475Z,29683,0.005160693,-0.016881134,-0.053978194
1732435815485,2024-11-24T08:10:15.485Z,29693,-0.018667549,-0.01659785,-0.022233393
1732435815488,2024-11-24T08:10:15.488Z,29696,-0.018667549,-0.01659785,-0.022233393
1732435815496,2024-11-24T08:10:15.496Z,29704,-0.042510867,-0.0173028,0.010792412
1732435815498,2024-11-24T08:10:15.498Z,29706,-0.042510867,-0.0173028,0.010792412
1732435815517,2024-11-24T08:10:15.517Z,29725,-0.030489394,-0.03656592,-0.010900581
1732435815520,2024-11-24T08:10:15.520Z,29728,-0.030489394,-0.03656592,-0.010900581
1732435815539,2024-11-24T08:10:15.539Z,29747,-0.03366626,-0.022437576,-0.026491093
1732435815544,2024-11-24T08:10:15.544Z,29752,-0.03366626,-0.022437576,-0.026491093
1732435815573,2024-11-24T08:10:15.573Z,29781,-0.012983324,-0.028294805,-0.021973899
1732435815580,2024-11-24T08:10:15.580Z,29788,-0.012983324,-0.028294805,-0.021973899
1732435815617,2024-11-24T08:10:15.617Z,29825,-0.040882405,-0.03502921,-0.048685063
1732435815624,2024-11-24T08:10:15.624Z,29832,-0.040882405,-0.03502921,-0.048685063
1732435815640,2024-11-24T08:10:15.640Z,29848,-0.02124566,-0.041699335,-0.043232076
1732435815645,2024-11-24T08:10:15.645Z,29853,-0.02124566,-0.041699335,-0.043232076
1732435815660,2024-11-24T08:10:15.660Z,29868,-0.012051788,-0.05316406,-0.013742081
1732435815664,2024-11-24T08:10:15.664Z,29872,-0.012051788,-0.05316406,-0.013742081
1732435815676,2024-11-24T08:10:15.676Z,29884,-0.013212755,-0.055467956,-0.024395999
1732435815679,2024-11-24T08:10:15.679Z,29887,-0.013212755,-0.055467956,-0.024395999
1732435815690,2024-11-24T08:10:15.690Z,29898,-0.0064964877,-0.056115236,0.0028198739
1732435815694,2024-11-24T08:10:15.694Z,29902,-0.0064964877,-0.056115236,0.0028198739
1732435815704,2024-11-24T08:10:15.704Z,29912,-0.022768801,-0.053829916,-0.005247967
1732435815707,2024-11-24T08:10:15.707Z,29915,-0.022768801,-0.053829916,-0.005247967
1732435815718,2024-11-24T08:10:15.718Z,29926,0.03035602,-0.007771746,-0.049624197
1732435815721,2024-11-24T08:10:15.721Z,29929,0.03035602,-0.007771746,-0.049624197
1732435815734,2024-11-24T08:10:15.734Z,29942,0.009578292,-0.004017206,-0.06490035
1732435815738,2024-11-24T08:10:15.738Z,29946,0.009578292,-0.004017206,-0.06490035
1732435815748,2024-11-24T08:10:15.748Z,29956,0.033144794,-1.9916332E-4,-0.077417664
1732435815752,2024-11-24T08:10:15.752Z,29960,0.033144794,-1.9916332E-4,-0.077417664
1732435815766,2024-11-24T08:10:15.766Z,29974,0.02798179,-0.007539032,-0.043990873
1732435815769,2024-11-24T08:10:15.769Z,29977,0.02798179,-0.007539032,-0.043990873
1732435815778,2024-11-24T08:10:15.778Z,29986,-0.0024479195,0.006018175,-0.03381716
1732435815780,2024-11-24T08:10:15.780Z,29988,-0.0024479195,0.006018175,-0.03381716
1732435815789,2024-11-24T08:10:15.789Z,29997,0.027563065,-4.0523123E-4,-0.026087629
1732435815792,2024-11-24T08:10:15.792Z,30000,0.027563065,-4.0523123E-4,-0.026087629
1732435815800,2024-11-24T08:10:15.800Z,30008,0.0073382882,0.010462298,-0.039422855
1732435815803,2024-11-24T08:10:15.803Z,30011,0.0073382882,0.010462298,-0.039422855
1732435815812,2024-11-24T08:10:15.812Z,30020,0.018043147,0.014112394,-0.040081844
1732435815815,2024-11-24T08:10:15.815Z,30023,0.018043147,0.014112394,-0.040081844
1732435815842,2024-11-24T08:10:15.842Z,30050,-0.04225739,0.020524811,-0.06437384
1732435815847,2024-11-24T08:10:15.847Z,30055,-0.04225739,0.020524811,-0.06437384
1732435815868,2024-11-24T08:10:15.868Z,30076,0.0070100045,0.014445273,-0.055057067
1732435815873,2024-11-24T08:10:15.873Z,30081,0.0070100045,0.014445273,-0.055057067
1732435815891,2024-11-24T08:10:15.891Z,30099,0.016647764,0.013007952,-0.05874061
1732435815897,2024-11-24T08:10:15.897Z,30105,0.016647764,0.013007952,-0.05874061
1732435815920,2024-11-24T08:10:15.920Z,30128,0.0014018745,0.012550693,-0.06034451
1732435815925,2024-11-24T08:10:15.925Z,30133,0.0014018745,0.012550693,-0.06034451
1732435815946,2024-11-24T08:10:15.946Z,30154,-0.0035894131,0.007038109,-0.047561932
1732435815953,2024-11-24T08:10:15.953Z,30161,-0.0035894131,0.007038109,-0.047561932
1732435815970,2024-11-24T08:10:15.970Z,30178,-0.01597053,0.009336461,-0.042912863
1732435815974,2024-11-24T08:10:15.974Z,30182,-0.01597053,0.009336461,-0.042912863
1732435815987,2024-11-24T08:10:15.987Z,30195,-0.01704096,0.015998999,-0.056314096
1732435815991,2024-11-24T08:10:15.991Z,30199,-0.01704096,0.015998999,-0.056314096
1732435816004,2024-11-24T08:10:16.004Z,30212,-0.0073174527,0.008027605,-0.06930508
1732435816008,2024-11-24T08:10:16.008Z,30216,-0.0073174527,0.008027605,-0.06930508
1732435816020,2024-11-24T08:10:16.020Z,30228,-0.007773861,0.009035966,-0.06438737
1732435816023,2024-11-24T08:10:16.023Z,30231,-0.007773861,0.009035966,-0.06438737
1732435816033,2024-11-24T08:10:16.033Z,30241,-0.017429756,0.0012339762,-0.051054344
1732435816037,2024-11-24T08:10:16.037Z,30245,-0.017429756,0.0012339762,-0.051054344
1732435816045,2024-11-24T08:10:16.045Z,30253,-0.015694711,-0.0076037017,-0.049874984
1732435816048,2024-11-24T08:10:16.048Z,30256,-0.015694711,-0.0076037017,-0.049874984
1732435816057,2024-11-24T08:10:16.057Z,30265,-0.01349701,-0.011552348,-0.0067411265
1732435816060,2024-11-24T08:10:16.060Z,30268,-0.01349701,-0.011552348,-0.0067411265
1732435816070,2024-11-24T08:10:16.070Z,30278,-0.0038547534,-0.009546322,-0.028662937
1732435816073,2024-11-24T08:10:16.073Z,30281,-0.0038547534,-0.009546322,-0.028662937
1732435816081,2024-11-24T08:10:16.081Z,30289,0.009481822,-0.014778444,-0.018812297
1732435816083,2024-11-24T08:10:16.083Z,30291,0.009481822,-0.014778444,-0.018812297
1732435816094,2024-11-24T08:10:16.094Z,30302,-0.018081948,-0.029622724,-0.015226178
1732435816097,2024-11-24T08:10:16.097Z,30305,-0.018081948,-0.029622724,-0.015226178
1732435816105,2024-11-24T08:10:16.105Z,30313,-0.016443202,-0.038771693,-0.0039337734
1732435816108,2024-11-24T08:10:16.108Z,30316,-0.016443202,-0.038771693,-0.0039337734
1732435816117,2024-11-24T08:10:16.117Z,30325,-0.044380113,-0.047047276,-0.003151762
1732435816120,2024-11-24T08:10:16.120Z,30328,-0.044380113,-0.047047276,-0.003151762
1732435816129,2024-11-24T08:10:16.129Z,30337,-0.035512384,-0.08261777,0.030685635
1732435816132,2024-11-24T08:10:16.132Z,30340,-0.035512384,-0.08261777,0.030685635
1732435816141,2024-11-24T08:10:16.141Z,30349,-0.018304013,-0.087885775,0.055341218
1732435816144,2024-11-24T08:10:16.144Z,30352,-0.018304013,-0.087885775,0.055341218
1732435816152,2024-11-24T08:10:16.152Z,30360,-0.061239146,-0.097297214,0.041081138
1732435816154,2024-11-24T08:10:16.154Z,30362,-0.061239146,-0.097297214,0.041081138
1732435816163,2024-11-24T08:10:16.163Z,30371,0.015225588,-0.11165205,0.06806389
1732435816165,2024-11-24T08:10:16.165Z,30373,0.015225588,-0.11165205,0.06806389
1732435816175,2024-11-24T08:10:16.175Z,30383,-0.024111113,-0.099276885,0.02033494
1732435816177,2024-11-24T08:10:16.177Z,30385,-0.024111113,-0.099276885,0.02033494
1732435816185,2024-11-24T08:10:16.185Z,30393,-0.032829467,-0.098132476,0.021624366
1732435816187,2024-11-24T08:10:16.187Z,30395,-0.032829467,-0.098132476,0.021624366
1732435816195,2024-11-24T08:10:16.195Z,30403,-0.031106602,-0.1354719,0.11132859
1732435816197,2024-11-24T08:10:16.197Z,30405,-0.031106602,-0.1354719,0.11132859
1732435816205,2024-11-24T08:10:16.205Z,30413,-0.006663681,-0.16677418,0.14301431
1732435816207,2024-11-24T08:10:16.207Z,30415,-0.006663681,-0.16677418,0.14301431
1732435816215,2024-11-24T08:10:16.215Z,30423,-0.047146663,-0.17535737,0.08939872
1732435816217,2024-11-24T08:10:16.217Z,30425,-0.047146663,-0.17535737,0.08939872
1732435816226,2024-11-24T08:10:16.226Z,30434,-0.032811962,-0.1927864,0.023350999
1732435816229,2024-11-24T08:10:16.229Z,30437,-0.032811962,-0.1927864,0.023350999
1732435816239,2024-11-24T08:10:16.239Z,30447,-0.062316626,-0.19969682,0.07951692
1732435816241,2024-11-24T08:10:16.241Z,30449,-0.062316626,-0.19969682,0.07951692
1732435816248,2024-11-24T08:10:16.248Z,30456,-0.13987944,-0.17638655,0.03623576
1732435816250,2024-11-24T08:10:16.250Z,30458,-0.13987944,-0.17638655,0.03623576
1732435816259,2024-11-24T08:10:16.259Z,30467,-0.07939629,-0.21308452,0.058814432
1732435816262,2024-11-24T08:10:16.262Z,30470,-0.07939629,-0.21308452,0.058814432
1732435816270,2024-11-24T08:10:16.270Z,30478,-0.10408481,-0.23831242,0.07863315
1732435816274,2024-11-24T08:10:16.274Z,30482,-0.10408481,-0.23831242,0.07863315
1732435816282,2024-11-24T08:10:16.282Z,30490,-0.087855965,-0.23875812,0.09755933
1732435816285,2024-11-24T08:10:16.285Z,30493,-0.087855965,-0.23875812,0.09755933
1732435816294,2024-11-24T08:10:16.294Z,30502,-0.109417096,-0.20456952,0.042645104
1732435816296,2024-11-24T08:10:16.296Z,30504,-0.109417096,-0.20456952,0.042645104
1732435816312,2024-11-24T08:10:16.312Z,30520,-0.0737389,-0.19025494,0.041884933
1732435816315,2024-11-24T08:10:16.315Z,30523,-0.0737389,-0.19025494,0.041884933
1732435816325,2024-11-24T08:10:16.325Z,30533,-0.08375416,-0.17676182,0.097957134
1732435816327,2024-11-24T08:10:16.327Z,30535,-0.08375416,-0.17676182,0.097957134
1732435816336,2024-11-24T08:10:16.336Z,30544,-0.08045527,-0.16919333,0.094237305
1732435816339,2024-11-24T08:10:16.339Z,30547,-0.08045527,-0.16919333,0.094237305
1732435816346,2024-11-24T08:10:16.346Z,30554,-0.051519457,-0.15027048,0.16810127
1732435816348,2024-11-24T08:10:16.348Z,30556,-0.051519457,-0.15027048,0.16810127
1732435816356,2024-11-24T08:10:16.356Z,30564,-0.121244706,-0.11176116,0.072856605
1732435816358,2024-11-24T08:10:16.358Z,30566,-0.121244706,-0.11176116,0.072856605
1732435816366,2024-11-24T08:10:16.366Z,30574,-0.0095067425,-0.10472519,-0.06286888
1732435816369,2024-11-24T08:10:16.369Z,30577,-0.0095067425,-0.10472519,-0.06286888
1732435816378,2024-11-24T08:10:16.378Z,30586,-0.041690387,-0.10328981,-0.008064023
1732435816380,2024-11-24T08:10:16.380Z,30588,-0.041690387,-0.10328981,-0.008064023
1732435816396,2024-11-24T08:10:16.396Z,30604,-0.057634052,-0.1269992,0.008920618
1732435816401,2024-11-24T08:10:16.401Z,30609,-0.057634052,-0.1269992,0.008920618
1732435816420,2024-11-24T08:10:16.420Z,30628,-0.0182815,-0.14492252,0.027838921
1732435816424,2024-11-24T08:10:16.424Z,30632,-0.0182815,-0.14492252,0.027838921
1732435816434,2024-11-24T08:10:16.434Z,30642,0.0020669028,-0.15025909,0.008944376
1732435816438,2024-11-24T08:10:16.438Z,30646,0.0020669028,-0.15025909,0.008944376
1732435816449,2024-11-24T08:10:16.449Z,30657,-0.018681431,-0.16446126,0.027925532
1732435816451,2024-11-24T08:10:16.451Z,30659,-0.018681431,-0.16446126,0.027925532
1732435816462,2024-11-24T08:10:16.462Z,30670,-0.08927569,-0.13428538,-0.053288594
1732435816465,2024-11-24T08:10:16.465Z,30673,-0.08927569,-0.13428538,-0.053288594
1732435816475,2024-11-24T08:10:16.475Z,30683,0.0063416692,-0.1262465,-0.007523229
1732435816477,2024-11-24T08:10:16.477Z,30685,0.0063416692,-0.1262465,-0.007523229
1732435816485,2024-11-24T08:10:16.485Z,30693,-0.0041269986,-0.12743,0.018765783
1732435816488,2024-11-24T08:10:16.488Z,30696,-0.0041269986,-0.12743,0.018765783
1732435816496,2024-11-24T08:10:16.496Z,30704,0.014618811,-0.122277625,-0.008347386
1732435816498,2024-11-24T08:10:16.498Z,30706,0.014618811,-0.122277625,-0.008347386
1732435816507,2024-11-24T08:10:16.507Z,30715,0.038249616,-0.09783383,0.03170816
1732435816510,2024-11-24T08:10:16.510Z,30718,0.038249616,-0.09783383,0.03170816
1732435816517,2024-11-24T08:10:16.517Z,30725,0.024382092,-0.1008628,-0.04406678
1732435816520,2024-11-24T08:10:16.520Z,30728,0.024382092,-0.1008628,-0.04406678
1732435816528,2024-11-24T08:10:16.528Z,30736,0.021152982,-0.08724258,-0.053497992
1732435816531,2024-11-24T08:10:16.531Z,30739,0.021152982,-0.08724258,-0.053497992
1732435816550,2024-11-24T08:10:16.550Z,30758,0.06141023,-0.07054184,-0.02272152
1732435816553,2024-11-24T08:10:16.553Z,30761,0.06141023,-0.07054184,-0.02272152
1732435816562,2024-11-24T08:10:16.562Z,30770,0.09011936,-0.07861622,0.0074284733
1732435816564,2024-11-24T08:10:16.564Z,30772,0.09011936,-0.07861622,0.0074284733
1732435816572,2024-11-24T08:10:16.572Z,30780,0.064146146,-0.067837864,0.0051483912
1732435816575,2024-11-24T08:10:16.575Z,30783,0.064146146,-0.067837864,0.0051483912
1732435816606,2024-11-24T08:10:16.606Z,30814,0.07250016,-0.06908186,0.06852851
1732435816611,2024-11-24T08:10:16.611Z,30819,0.07250016,-0.06908186,0.06852851
1732435816632,2024-11-24T08:10:16.632Z,30840,0.047247317,-0.037681643,-0.03199818
1732435816639,2024-11-24T08:10:16.639Z,30847,0.047247317,-0.037681643,-0.03199818
1732435816655,2024-11-24T08:10:16.655Z,30863,0.073269635,-0.056831468,-0.043062914
1732435816659,2024-11-24T08:10:16.659Z,30867,0.073269635,-0.056831468,-0.043062914
1732435816670,2024-11-24T08:10:16.670Z,30878,0.0487903,-0.04413077,0.005118795
1732435816673,2024-11-24T08:10:16.673Z,30881,0.0487903,-0.04413077,0.005118795
1732435816686,2024-11-24T08:10:16.686Z,30894,0.1219339,-0.027439075,-0.027228016
1732435816690,2024-11-24T08:10:16.690Z,30898,0.1219339,-0.027439075,-0.027228016
1732435816701,2024-11-24T08:10:16.701Z,30909,0.110686086,-0.033712037,0.003378817
1732435816705,2024-11-24T08:10:16.705Z,30913,0.110686086,-0.033712037,0.003378817
1732435816714,2024-11-24T08:10:16.714Z,30922,0.05354819,-0.002571959,-0.013649068
1732435816717,2024-11-24T08:10:16.717Z,30925,0.05354819,-0.002571959,-0.013649068
1732435816726,2024-11-24T08:10:16.726Z,30934,0.093778595,0.014736967,-0.005068712
1732435816729,2024-11-24T08:10:16.729Z,30937,0.093778595,0.014736967,-0.005068712
1732435816743,2024-11-24T08:10:16.743Z,30951,0.12001637,0.026380096,-0.029470583
1732435816747,2024-11-24T08:10:16.747Z,30955,0.12001637,0.026380096,-0.029470583
1732435816762,2024-11-24T08:10:16.762Z,30970,0.049562007,0.012979263,-0.11538153
1732435816765,2024-11-24T08:10:16.765Z,30973,0.049562007,0.012979263,-0.11538153
1732435816774,2024-11-24T08:10:16.774Z,30982,0.10365901,0.009941342,-0.04229759
1732435816777,2024-11-24T08:10:16.777Z,30985,0.10365901,0.009941342,-0.04229759
1732435816785,2024-11-24T08:10:16.785Z,30993,0.018126488,-0.0019615837,-0.017132659
1732435816788,2024-11-24T08:10:16.788Z,30996,0.018126488,-0.0019615837,-0.017132659
1732435816796,2024-11-24T08:10:16.796Z,31004,0.11708965,-0.0041340003,-0.012381123
1732435816798,2024-11-24T08:10:16.798Z,31006,0.11708965,-0.0041340003,-0.012381123
1732435816807,2024-11-24T08:10:16.807Z,31015,0.06660715,0.04890398,0.034573328
1732435816809,2024-11-24T08:10:16.809Z,31017,0.06660715,0.04890398,0.034573328
1732435816816,2024-11-24T08:10:16.816Z,31024,0.042207986,0.03212131,-0.061609495
1732435816819,2024-11-24T08:10:16.819Z,31027,0.042207986,0.03212131,-0.061609495
1732435816827,2024-11-24T08:10:16.827Z,31035,0.08065249,0.018349575,-0.10389114
1732435816829,2024-11-24T08:10:16.829Z,31037,0.08065249,0.018349575,-0.10389114
1732435816836,2024-11-24T08:10:16.836Z,31044,0.03750956,0.02995959,-0.07828846
1732435816839,2024-11-24T08:10:16.839Z,31047,0.03750956,0.02995959,-0.07828846
1732435816848,2024-11-24T08:10:16.848Z,31056,0.12541269,0.00259136,-0.09510329
1732435816850,2024-11-24T08:10:16.850Z,31058,0.12541269,0.00259136,-0.09510329
1732435816872,2024-11-24T08:10:16.872Z,31080,0.17689136,-0.019217607,0.024893293
1732435816878,2024-11-24T08:10:16.878Z,31086,0.17689136,-0.019217607,0.024893293
1732435816895,2024-11-24T08:10:16.895Z,31103,0.10802568,-0.008799265,0.007110692
1732435816899,2024-11-24T08:10:16.899Z,31107,0.10802568,-0.008799265,0.007110692
1732435816910,2024-11-24T08:10:16.910Z,31118,0.12680939,0.0030001893,0.029101208
1732435816912,2024-11-24T08:10:16.912Z,31120,0.12680939,0.0030001893,0.029101208
1732435816924,2024-11-24T08:10:16.924Z,31132,0.117186315,-0.009464342,-0.019213183
1732435816928,2024-11-24T08:10:16.928Z,31136,0.117186315,-0.009464342,-0.019213183
1732435816936,2024-11-24T08:10:16.936Z,31144,0.04154398,-0.004990072,-0.072744004
1732435816939,2024-11-24T08:10:16.939Z,31147,0.04154398,-0.004990072,-0.072744004
1732435816948,2024-11-24T08:10:16.948Z,31156,0.23095284,0.011129514,-0.0582883
1732435816955,2024-11-24T08:10:16.955Z,31163,0.23095284,0.011129514,-0.0582883
1732435816963,2024-11-24T08:10:16.963Z,31171,0.14125794,0.00435096,-0.025310054
1732435816966,2024-11-24T08:10:16.966Z,31174,0.14125794,0.00435096,-0.025310054
1732435816974,2024-11-24T08:10:16.974Z,31182,0.11213685,0.010277236,-0.029332876
1732435816977,2024-11-24T08:10:16.977Z,31185,0.11213685,0.010277236,-0.029332876
1732435816984,2024-11-24T08:10:16.984Z,31192,0.1604081,0.04553031,-0.031166311
1732435816987,2024-11-24T08:10:16.987Z,31195,0.1604081,0.04553031,-0.031166311
1732435816995,2024-11-24T08:10:16.995Z,31203,0.10083098,0.091277435,-0.079391755
1732435816997,2024-11-24T08:10:16.997Z,31205,0.10083098,0.091277435,-0.079391755
1732435817005,2024-11-24T08:10:17.005Z,31213,0.1430165,0.0780976,-0.097995475
1732435817008,2024-11-24T08:10:17.008Z,31216,0.1430165,0.0780976,-0.097995475
1732435817016,2024-11-24T08:10:17.016Z,31224,0.108252704,0.055977147,-0.06477176
1732435817018,2024-11-24T08:10:17.018Z,31226,0.108252704,0.055977147,-0.06477176
1732435817027,2024-11-24T08:10:17.027Z,31235,0.16551702,0.032669593,-0.06455312
1732435817029,2024-11-24T08:10:17.029Z,31237,0.16551702,0.032669593,-0.06455312
1732435817038,2024-11-24T08:10:17.038Z,31246,0.08463016,0.009073503,-0.045343693
1732435817040,2024-11-24T08:10:17.040Z,31248,0.08463016,0.009073503,-0.045343693
1732435817048,2024-11-24T08:10:17.048Z,31256,0.1461677,0.032902986,-0.0037079337
1732435817051,2024-11-24T08:10:17.051Z,31259,0.1461677,0.032902986,-0.0037079337
1732435817060,2024-11-24T08:10:17.060Z,31268,0.14116819,0.03207385,0.011532728
1732435817063,2024-11-24T08:10:17.063Z,31271,0.14116819,0.03207385,0.011532728
1732435817072,2024-11-24T08:10:17.072Z,31280,0.040572986,0.053157933,-0.07514506
1732435817075,2024-11-24T08:10:17.075Z,31283,0.040572986,0.053157933,-0.07514506
1732435817092,2024-11-24T08:10:17.092Z,31300,0.07704518,0.069105394,-0.1367846
1732435817094,2024-11-24T08:10:17.094Z,31302,0.07704518,0.069105394,-0.1367846
1732435817102,2024-11-24T08:10:17.102Z,31310,0.03126891,0.005552261,-0.07281309
1732435817104,2024-11-24T08:10:17.104Z,31312,0.03126891,0.005552261,-0.07281309
1732435817111,2024-11-24T08:10:17.111Z,31319,0.076466605,0.057635706,0.030911213
1732435817114,2024-11-24T08:10:17.114Z,31322,0.076466605,0.057635706,0.030911213
1732435817137,2024-11-24T08:10:17.137Z,31345,0.05351571,0.079389244,-0.054904394
1732435817140,2024-11-24T08:10:17.140Z,31348,0.05351571,0.079389244,-0.054904394
1732435817148,2024-11-24T08:10:17.148Z,31356,0.03015518,0.11109997,-0.06849645
1732435817150,2024-11-24T08:10:17.150Z,31358,0.03015518,0.11109997,-0.06849645
1732435817168,2024-11-24T08:10:17.168Z,31376,0.10675448,0.06811852,-0.041704234
1732435817174,2024-11-24T08:10:17.174Z,31382,0.10675448,0.06811852,-0.041704234
1732435817190,2024-11-24T08:10:17.190Z,31398,-0.017195877,0.1234444,-0.08384713
1732435817195,2024-11-24T08:10:17.195Z,31403,-0.017195877,0.1234444,-0.08384713
1732435817211,2024-11-24T08:10:17.211Z,31419,-0.049965728,0.057743456,-0.11597179
1732435817214,2024-11-24T08:10:17.214Z,31422,-0.049965728,0.057743456,-0.11597179
1732435817225,2024-11-24T08:10:17.225Z,31433,0.13744538,0.09016526,6.662441E-4
1732435817228,2024-11-24T08:10:17.228Z,31436,0.13744538,0.09016526,6.662441E-4
1732435817238,2024-11-24T08:10:17.238Z,31446,0.06808976,0.06978992,-0.06594969
1732435817241,2024-11-24T08:10:17.241Z,31449,0.06808976,0.06978992,-0.06594969
1732435817250,2024-11-24T08:10:17.250Z,31458,0.10071973,0.17916894,-0.06374727
1732435817253,2024-11-24T08:10:17.253Z,31461,0.10071973,0.17916894,-0.06374727
1732435817262,2024-11-24T08:10:17.262Z,31470,0.02652903,0.120374486,-0.10021801
1732435817265,2024-11-24T08:10:17.265Z,31473,0.02652903,0.120374486,-0.10021801
1732435817273,2024-11-24T08:10:17.273Z,31481,0.12087347,0.1747292,-0.07972715
1732435817276,2024-11-24T08:10:17.276Z,31484,0.12087347,0.1747292,-0.07972715
1732435817284,2024-11-24T08:10:17.284Z,31492,0.08607991,0.21218221,-0.028423617
1732435817286,2024-11-24T08:10:17.286Z,31494,0.08607991,0.21218221,-0.028423617
1732435817294,2024-11-24T08:10:17.294Z,31502,0.08061296,0.23875286,-0.07371992
1732435817296,2024-11-24T08:10:17.296Z,31504,0.08061296,0.23875286,-0.07371992
1732435817303,2024-11-24T08:10:17.303Z,31511,0.06617286,0.24124037,-0.12571017
1732435817306,2024-11-24T08:10:17.306Z,31514,0.06617286,0.24124037,-0.12571017
1732435817317,2024-11-24T08:10:17.317Z,31525,0.077577785,0.18464974,-0.04712704
1732435817319,2024-11-24T08:10:17.319Z,31527,0.077577785,0.18464974,-0.04712704
1732435817328,2024-11-24T08:10:17.328Z,31536,0.020703115,0.1662229,-0.062263392
1732435817331,2024-11-24T08:10:17.331Z,31539,0.020703115,0.1662229,-0.062263392
1732435817338,2024-11-24T08:10:17.338Z,31546,0.012297119,0.13638924,-0.07797948
1732435817340,2024-11-24T08:10:17.340Z,31548,0.012297119,0.13638924,-0.07797948
1732435817363,2024-11-24T08:10:17.363Z,31571,-0.02620291,0.14567931,-0.13472837
1732435817366,2024-11-24T08:10:17.366Z,31574,-0.02620291,0.14567931,-0.13472837
1732435817374,2024-11-24T08:10:17.374Z,31582,-7.7987806E-4,0.11438616,-0.09982377
1732435817377,2024-11-24T08:10:17.377Z,31585,-7.7987806E-4,0.11438616,-0.09982377
1732435817407,2024-11-24T08:10:17.407Z,31615,-0.07824371,0.09900741,-0.12755932
1732435817410,2024-11-24T08:10:17.410Z,31618,-0.07824371,0.09900741,-0.12755932
1732435817418,2024-11-24T08:10:17.418Z,31626,-0.031771608,0.05760206,-0.13976625
1732435817421,2024-11-24T08:10:17.421Z,31629,-0.031771608,0.05760206,-0.13976625
1732435817430,2024-11-24T08:10:17.430Z,31638,-0.0835088,0.033591695,-0.13794233
1732435817432,2024-11-24T08:10:17.432Z,31640,-0.0835088,0.033591695,-0.13794233
1732435817450,2024-11-24T08:10:17.450Z,31658,-0.067397214,0.012509946,-0.14922327
1732435817454,2024-11-24T08:10:17.454Z,31662,-0.067397214,0.012509946,-0.14922327
1732435817462,2024-11-24T08:10:17.462Z,31670,-0.07409651,-0.04442295,-0.17369957
1732435817465,2024-11-24T08:10:17.465Z,31673,-0.07409651,-0.04442295,-0.17369957
1732435817478,2024-11-24T08:10:17.478Z,31686,0.021448324,-0.05819712,-0.05438748
1732435817481,2024-11-24T08:10:17.481Z,31689,0.021448324,-0.05819712,-0.05438748
1732435817494,2024-11-24T08:10:17.494Z,31702,-0.039966986,-0.023541825,-0.0741209
1732435817497,2024-11-24T08:10:17.497Z,31705,-0.039966986,-0.023541825,-0.0741209
1732435817504,2024-11-24T08:10:17.504Z,31712,-0.048776656,-0.0069634225,-0.08390494
1732435817506,2024-11-24T08:10:17.506Z,31714,-0.048776656,-0.0069634225,-0.08390494
1732435817515,2024-11-24T08:10:17.515Z,31723,-0.02798991,0.005620043,-0.052417837
1732435817517,2024-11-24T08:10:17.517Z,31725,-0.02798991,0.005620043,-0.052417837
1732435817526,2024-11-24T08:10:17.526Z,31734,-0.041793372,-0.0024360553,-0.025645992
1732435817529,2024-11-24T08:10:17.529Z,31737,-0.041793372,-0.0024360553,-0.025645992
1732435817541,2024-11-24T08:10:17.541Z,31749,-0.009530495,0.0074801,-0.03642553
1732435817544,2024-11-24T08:10:17.544Z,31752,-0.009530495,0.0074801,-0.03642553
1732435817552,2024-11-24T08:10:17.552Z,31760,0.048077423,0.0049723727,-0.028837273
1732435817554,2024-11-24T08:10:17.554Z,31762,0.048077423,0.0049723727,-0.028837273
1732435817586,2024-11-24T08:10:17.586Z,31794,0.078608304,0.04351903,-0.078174815
1732435817589,2024-11-24T08:10:17.589Z,31797,0.078608304,0.04351903,-0.078174815
1732435817597,2024-11-24T08:10:17.597Z,31805,0.049381297,0.07407232,-0.009624163
1732435817599,2024-11-24T08:10:17.599Z,31807,0.049381297,0.07407232,-0.009624163
1732435817607,2024-11-24T08:10:17.607Z,31815,-0.0037992736,0.073834546,-0.013353679
1732435817609,2024-11-24T08:10:17.609Z,31817,-0.0037992736,0.073834546,-0.013353679
1732435817617,2024-11-24T08:10:17.617Z,31825,0.0016003083,0.055030245,-0.010518781
1732435817620,2024-11-24T08:10:17.620Z,31828,0.0016003083,0.055030245,-0.010518781
1732435817632,2024-11-24T08:10:17.632Z,31840,0.013845327,0.03628604,0.0665664
1732435817634,2024-11-24T08:10:17.634Z,31842,0.013845327,0.03628604,0.0665664
1732435817641,2024-11-24T08:10:17.641Z,31849,-0.03438582,0.035334177,0.04270753
1732435817644,2024-11-24T08:10:17.644Z,31852,-0.03438582,0.035334177,0.04270753
1732435817651,2024-11-24T08:10:17.651Z,31859,0.015498028,0.0017004735,0.015503295
1732435817653,2024-11-24T08:10:17.653Z,31861,0.015498028,0.0017004735,0.015503295
1732435817676,2024-11-24T08:10:17.676Z,31884,-0.024432588,-0.01865571,-0.040842045
1732435817679,2024-11-24T08:10:17.679Z,31887,-0.024432588,-0.01865571,-0.040842045
1732435817686,2024-11-24T08:10:17.686Z,31894,0.005347749,-0.021004144,-0.04734431
1732435817689,2024-11-24T08:10:17.689Z,31897,0.005347749,-0.021004144,-0.04734431
1732435817698,2024-11-24T08:10:17.698Z,31906,0.0013854882,-0.028215937,-0.0017111343
1732435817700,2024-11-24T08:10:17.700Z,31908,0.0013854882,-0.028215937,-0.0017111343
1732435817723,2024-11-24T08:10:17.723Z,31931,0.047007624,0.0032703434,-0.042321943
1732435817727,2024-11-24T08:10:17.727Z,31935,0.047007624,0.0032703434,-0.042321943
1732435817735,2024-11-24T08:10:17.735Z,31943,-0.0093323765,0.018359493,-0.050405413
1732435817738,2024-11-24T08:10:17.738Z,31946,-0.0093323765,0.018359493,-0.050405413
1732435817747,2024-11-24T08:10:17.747Z,31955,0.007842129,0.022794476,-0.09306682
1732435817749,2024-11-24T08:10:17.749Z,31957,0.007842129,0.022794476,-0.09306682
1732435817768,2024-11-24T08:10:17.768Z,31976,-0.013297677,0.021902617,-0.046921942
1732435817771,2024-11-24T08:10:17.771Z,31979,-0.013297677,0.021902617,-0.046921942
1732435817779,2024-11-24T08:10:17.779Z,31987,0.011529543,0.030215837,-0.056987368
1732435817782,2024-11-24T08:10:17.782Z,31990,0.011529543,0.030215837,-0.056987368
1732435817789,2024-11-24T08:10:17.789Z,31997,0.014208596,0.026369106,-0.028367644
1732435817792,2024-11-24T08:10:17.792Z,32000,0.014208596,0.026369106,-0.028367644
1732435817812,2024-11-24T08:10:17.812Z,32020,-0.021421531,0.016573053,-0.006219411
1732435817814,2024-11-24T08:10:17.814Z,32022,-0.021421531,0.016573053,-0.006219411
1732435817823,2024-11-24T08:10:17.823Z,32031,-0.024273613,0.023559231,0.01919528
1732435817826,2024-11-24T08:10:17.826Z,32034,-0.024273613,0.023559231,0.01919528
1732435817833,2024-11-24T08:10:17.833Z,32041,-0.040961273,0.030452149,-0.017010024
1732435817835,2024-11-24T08:10:17.835Z,32043,-0.040961273,0.030452149,-0.017010024
1732435817857,2024-11-24T08:10:17.857Z,32065,0.0031889714,0.025895316,0.015320338
1732435817860,2024-11-24T08:10:17.860Z,32068,0.0031889714,0.025895316,0.015320338
1732435817868,2024-11-24T08:10:17.868Z,32076,-0.0174962,0.042755835,-0.034243636
1732435817871,2024-11-24T08:10:17.871Z,32079,-0.0174962,0.042755835,-0.034243636
1732435817900,2024-11-24T08:10:17.900Z,32108,-0.012839884,0.027389819,-0.049850814
1732435817903,2024-11-24T08:10:17.903Z,32111,-0.012839884,0.027389819,-0.049850814
1732435817913,2024-11-24T08:10:17.913Z,32121,-0.025937546,0.016153915,0.007867255
1732435817916,2024-11-24T08:10:17.916Z,32124,-0.025937546,0.016153915,0.007867255
1732435817925,2024-11-24T08:10:17.925Z,32133,-0.029416608,0.0044719363,0.010455913
1732435817928,2024-11-24T08:10:17.928Z,32136,-0.029416608,0.0044719363,0.010455913
1732435817946,2024-11-24T08:10:17.946Z,32154,-0.05256776,1.5520735E-4,0.022355326
1732435817949,2024-11-24T08:10:17.949Z,32157,-0.05256776,1.5520735E-4,0.022355326
1732435817958,2024-11-24T08:10:17.958Z,32166,-0.0011144831,0.04017235,0.0451381
1732435817961,2024-11-24T08:10:17.961Z,32169,-0.0011144831,0.04017235,0.0451381
1732435817993,2024-11-24T08:10:17.993Z,32201,-0.045549247,0.062479127,-0.010905228
1732435817995,2024-11-24T08:10:17.995Z,32203,-0.045549247,0.062479127,-0.010905228
1732435818005,2024-11-24T08:10:18.005Z,32213,-0.059734263,0.07791876,-0.075501435
1732435818008,2024-11-24T08:10:18.008Z,32216,-0.059734263,0.07791876,-0.075501435
1732435818017,2024-11-24T08:10:18.017Z,32225,0.032877,0.037100878,0.018312966
1732435818019,2024-11-24T08:10:18.019Z,32227,0.032877,0.037100878,0.018312966
1732435818036,2024-11-24T08:10:18.036Z,32244,0.0055276086,0.0418702,0.040818367
1732435818039,2024-11-24T08:10:18.039Z,32247,0.0055276086,0.0418702,0.040818367
1732435818048,2024-11-24T08:10:18.048Z,32256,-8.1248034E-4,0.007108322,0.04626319
1732435818051,2024-11-24T08:10:18.051Z,32259,-8.1248034E-4,0.007108322,0.04626319
1732435818060,2024-11-24T08:10:18.060Z,32268,0.015944347,0.034238294,0.05286164
1732435818062,2024-11-24T08:10:18.062Z,32270,0.015944347,0.034238294,0.05286164
1732435818081,2024-11-24T08:10:18.081Z,32289,0.012707675,0.05954818,0.029331274
1732435818083,2024-11-24T08:10:18.083Z,32291,0.012707675,0.05954818,0.029331274
1732435818095,2024-11-24T08:10:18.095Z,32303,0.052065138,0.06965999,0.0090565765
1732435818098,2024-11-24T08:10:18.098Z,32306,0.052065138,0.06965999,0.0090565765
1732435818109,2024-11-24T08:10:18.109Z,32317,0.047780477,0.06934628,0.009478102
1732435818112,2024-11-24T08:10:18.112Z,32320,0.047780477,0.06934628,0.009478102
1732435818125,2024-11-24T08:10:18.125Z,32333,0.03645897,0.051370133,0.0307679
1732435818129,2024-11-24T08:10:18.129Z,32337,0.03645897,0.051370133,0.0307679
1732435818171,2024-11-24T08:10:18.171Z,32379,0.013022733,0.04140409,-0.0033636345
1732435818174,2024-11-24T08:10:18.174Z,32382,0.013022733,0.04140409,-0.0033636345
1732435818183,2024-11-24T08:10:18.183Z,32391,0.040472336,0.06817493,0.009355972
1732435818186,2024-11-24T08:10:18.186Z,32394,0.040472336,0.06817493,0.009355972
1732435818195,2024-11-24T08:10:18.195Z,32403,0.008632923,0.052874748,-0.006927064
1732435818198,2024-11-24T08:10:18.198Z,32406,0.008632923,0.052874748,-0.006927064
1732435818217,2024-11-24T08:10:18.217Z,32425,0.008890143,0.016311554,-0.0031344518
1732435818220,2024-11-24T08:10:18.220Z,32428,0.008890143,0.016311554,-0.0031344518
1732435818229,2024-11-24T08:10:18.229Z,32437,0.036738582,-0.0067996574,0.013587159
1732435818231,2024-11-24T08:10:18.231Z,32439,0.036738582,-0.0067996574,0.013587159
1732435818240,2024-11-24T08:10:18.240Z,32448,0.039313775,-0.008478445,-0.014500188
1732435818243,2024-11-24T08:10:18.243Z,32451,0.039313775,-0.008478445,-0.014500188
1732435818264,2024-11-24T08:10:18.264Z,32472,-0.020692686,0.006349206,-0.022566162
1732435818267,2024-11-24T08:10:18.267Z,32475,-0.020692686,0.006349206,-0.022566162
1732435818277,2024-11-24T08:10:18.277Z,32485,0.040222336,-0.010616436,-0.022068698
1732435818281,2024-11-24T08:10:18.281Z,32489,0.040222336,-0.010616436,-0.022068698
1732435818289,2024-11-24T08:10:18.289Z,32497,0.05021128,0.042196367,-0.022523701
1732435818292,2024-11-24T08:10:18.292Z,32500,0.05021128,0.042196367,-0.022523701
1732435818317,2024-11-24T08:10:18.317Z,32525,0.019699614,0.03835664,-0.060640752
1732435818323,2024-11-24T08:10:18.323Z,32531,0.019699614,0.03835664,-0.060640752
1732435818334,2024-11-24T08:10:18.334Z,32542,0.09403008,0.06082465,-0.027307888
1732435818337,2024-11-24T08:10:18.337Z,32545,0.09403008,0.06082465,-0.027307888
1732435818349,2024-11-24T08:10:18.349Z,32557,0.075462624,0.057794414,-0.034553427
1732435818352,2024-11-24T08:10:18.352Z,32560,0.075462624,0.057794414,-0.034553427
1732435818362,2024-11-24T08:10:18.362Z,32570,-0.019330075,0.08013766,-0.063035354
1732435818365,2024-11-24T08:10:18.365Z,32573,-0.019330075,0.08013766,-0.063035354
1732435818376,2024-11-24T08:10:18.376Z,32584,0.01737678,0.06598481,-0.023937281
1732435818379,2024-11-24T08:10:18.379Z,32587,0.01737678,0.06598481,-0.023937281
1732435818389,2024-11-24T08:10:18.389Z,32597,0.02358471,0.02400346,-0.07164492
1732435818393,2024-11-24T08:10:18.393Z,32601,0.02358471,0.02400346,-0.07164492
1732435818401,2024-11-24T08:10:18.401Z,32609,0.09353961,0.022767246,-0.04968895
1732435818404,2024-11-24T08:10:18.404Z,32612,0.09353961,0.022767246,-0.04968895
1732435818413,2024-11-24T08:10:18.413Z,32621,0.03352367,-0.018196797,-0.04336148
1732435818415,2024-11-24T08:10:18.415Z,32623,0.03352367,-0.018196797,-0.04336148
1732435818423,2024-11-24T08:10:18.423Z,32631,0.09371298,-0.001666145,-0.034506466
1732435818426,2024-11-24T08:10:18.426Z,32634,0.09371298,-0.001666145,-0.034506466
1732435818433,2024-11-24T08:10:18.433Z,32641,0.049328707,-0.03733398,0.015640264
1732435818436,2024-11-24T08:10:18.436Z,32644,0.049328707,-0.03733398,0.015640264
1732435818444,2024-11-24T08:10:18.444Z,32652,0.022189861,-0.010149258,-0.054660924
1732435818447,2024-11-24T08:10:18.447Z,32655,0.022189861,-0.010149258,-0.054660924
1732435818455,2024-11-24T08:10:18.455Z,32663,-0.02680626,-0.031716466,-0.14307581
1732435818457,2024-11-24T08:10:18.457Z,32665,-0.02680626,-0.031716466,-0.14307581
1732435818465,2024-11-24T08:10:18.465Z,32673,0.059143677,-0.042668894,-0.07287574
1732435818467,2024-11-24T08:10:18.467Z,32675,0.059143677,-0.042668894,-0.07287574
1732435818486,2024-11-24T08:10:18.486Z,32694,0.006948592,-0.019194365,-0.055451658
1732435818488,2024-11-24T08:10:18.488Z,32696,0.006948592,-0.019194365,-0.055451658
1732435818496,2024-11-24T08:10:18.496Z,32704,0.08781364,-0.025165763,-0.004015492
1732435818498,2024-11-24T08:10:18.498Z,32706,0.08781364,-0.025165763,-0.004015492
1732435818532,2024-11-24T08:10:18.532Z,32740,0.06340327,-0.035095338,0.010091164
1732435818534,2024-11-24T08:10:18.534Z,32742,0.06340327,-0.035095338,0.010091164
1732435818542,2024-11-24T08:10:18.542Z,32750,0.015210491,-0.011187183,-0.060503528
1732435818544,2024-11-24T08:10:18.544Z,32752,0.015210491,-0.011187183,-0.060503528
1732435818551,2024-11-24T08:10:18.551Z,32759,-0.008927486,0.00835883,-0.10607509
1732435818554,2024-11-24T08:10:18.554Z,32762,-0.008927486,0.00835883,-0.10607509
1732435818561,2024-11-24T08:10:18.561Z,32769,0.0015249657,0.044435594,-0.09379838
1732435818563,2024-11-24T08:10:18.563Z,32771,0.0015249657,0.044435594,-0.09379838
1732435818576,2024-11-24T08:10:18.576Z,32784,0.038020574,0.00422376,0.042572953
1732435818579,2024-11-24T08:10:18.579Z,32787,0.038020574,0.00422376,0.042572953
1732435818585,2024-11-24T08:10:18.585Z,32793,0.055050276,0.015392174,0.027123956
1732435818587,2024-11-24T08:10:18.587Z,32795,0.055050276,0.015392174,0.027123956
1732435818619,2024-11-24T08:10:18.619Z,32827,-0.07362498,0.016215084,-0.07260489
1732435818621,2024-11-24T08:10:18.621Z,32829,-0.07362498,0.016215084,-0.07260489
1732435818629,2024-11-24T08:10:18.629Z,32837,0.07512444,-0.036336318,-0.057509795
1732435818632,2024-11-24T08:10:18.632Z,32840,0.07512444,-0.036336318,-0.057509795
1732435818639,2024-11-24T08:10:18.639Z,32847,0.045099553,-0.027367841,-0.04020094
1732435818642,2024-11-24T08:10:18.642Z,32850,0.045099553,-0.027367841,-0.04020094
1732435818650,2024-11-24T08:10:18.650Z,32858,0.057724297,-0.05554517,-0.00956599
1732435818652,2024-11-24T08:10:18.652Z,32860,0.057724297,-0.05554517,-0.00956599
1732435818668,2024-11-24T08:10:18.668Z,32876,-0.05351994,-0.04326619,-0.08661891
1732435818670,2024-11-24T08:10:18.670Z,32878,-0.05351994,-0.04326619,-0.08661891
1732435818679,2024-11-24T08:10:18.679Z,32887,0.010994826,-0.06856353,-0.042449575
1732435818681,2024-11-24T08:10:18.681Z,32889,0.010994826,-0.06856353,-0.042449575
1732435818712,2024-11-24T08:10:18.712Z,32920,0.02180904,-0.041902874,-0.08460136
1732435818715,2024-11-24T08:10:18.715Z,32923,0.02180904,-0.041902874,-0.08460136
1732435818725,2024-11-24T08:10:18.725Z,32933,-0.013264393,-0.06532693,-0.050491683
1732435818727,2024-11-24T08:10:18.727Z,32935,-0.013264393,-0.06532693,-0.050491683
1732435818742,2024-11-24T08:10:18.742Z,32950,0.0017298909,0.0033552407,-0.020433653
1732435818745,2024-11-24T08:10:18.745Z,32953,0.0017298909,0.0033552407,-0.020433653
1732435818755,2024-11-24T08:10:18.755Z,32963,0.06775652,0.0065472024,0.007740894
1732435818757,2024-11-24T08:10:18.757Z,32965,0.06775652,0.0065472024,0.007740894
1732435818764,2024-11-24T08:10:18.764Z,32972,0.059039332,0.037921745,-0.024315977
1732435818767,2024-11-24T08:10:18.767Z,32975,0.059039332,0.037921745,-0.024315977
1732435818773,2024-11-24T08:10:18.773Z,32981,0.08719602,0.015814813,-0.036485992
1732435818775,2024-11-24T08:10:18.775Z,32983,0.08719602,0.015814813,-0.036485992
1732435818783,2024-11-24T08:10:18.783Z,32991,0.077883214,0.0024542406,-0.022925017
1732435818785,2024-11-24T08:10:18.785Z,32993,0.077883214,0.0024542406,-0.022925017
1732435818811,2024-11-24T08:10:18.811Z,33019,0.05364556,0.035979614,-0.014925944
1732435818816,2024-11-24T08:10:18.816Z,33024,0.05364556,0.035979614,-0.014925944
1732435818825,2024-11-24T08:10:18.825Z,33033,0.02519844,0.011945617,-0.012338997
1732435818828,2024-11-24T08:10:18.828Z,33036,0.02519844,0.011945617,-0.012338997
1732435818835,2024-11-24T08:10:18.835Z,33043,0.059739783,0.061606426,-0.008538568
1732435818837,2024-11-24T08:10:18.837Z,33045,0.059739783,0.061606426,-0.008538568
1732435818846,2024-11-24T08:10:18.846Z,33054,0.061118316,-0.0017777855,-0.011058682
1732435818848,2024-11-24T08:10:18.848Z,33056,0.061118316,-0.0017777855,-0.011058682
1732435818855,2024-11-24T08:10:18.855Z,33063,0.047172166,0.046245858,-0.038526468
1732435818857,2024-11-24T08:10:18.857Z,33065,0.047172166,0.046245858,-0.038526468
1732435818865,2024-11-24T08:10:18.865Z,33073,0.048509713,0.010739065,-0.080945425
1732435818867,2024-11-24T08:10:18.867Z,33075,0.048509713,0.010739065,-0.080945425
1732435818892,2024-11-24T08:10:18.892Z,33100,0.0038088525,-0.011518992,-0.045681942
1732435818895,2024-11-24T08:10:18.895Z,33103,0.0038088525,-0.011518992,-0.045681942
1732435818904,2024-11-24T08:10:18.904Z,33112,0.03800037,-0.039286133,-0.021808699
1732435818907,2024-11-24T08:10:18.907Z,33115,0.03800037,-0.039286133,-0.021808699
1732435818936,2024-11-24T08:10:18.936Z,33144,0.008415428,-0.04106071,-0.055319156
1732435818939,2024-11-24T08:10:18.939Z,33147,0.008415428,-0.04106071,-0.055319156
1732435818949,2024-11-24T08:10:18.949Z,33157,0.0024596378,-0.02674069,-0.07410838
1732435818952,2024-11-24T08:10:18.952Z,33160,0.0024596378,-0.02674069,-0.07410838
1732435818963,2024-11-24T08:10:18.963Z,33171,0.03888372,-0.06526664,-0.05974298
1732435818966,2024-11-24T08:10:18.966Z,33174,0.03888372,-0.06526664,-0.05974298
1732435818975,2024-11-24T08:10:18.975Z,33183,-0.012558667,-0.05444958,0.010463927
1732435818978,2024-11-24T08:10:18.978Z,33186,-0.012558667,-0.05444958,0.010463927
1732435818985,2024-11-24T08:10:18.985Z,33193,0.06456883,-0.012083418,-0.063302025
1732435818988,2024-11-24T08:10:18.988Z,33196,0.06456883,-0.012083418,-0.063302025
1732435818996,2024-11-24T08:10:18.996Z,33204,0.060319014,-0.03452994,-0.09167315
1732435818998,2024-11-24T08:10:18.998Z,33206,0.060319014,-0.03452994,-0.09167315
1732435819005,2024-11-24T08:10:19.005Z,33213,-0.027614607,0.0016646864,-0.033287868
1732435819007,2024-11-24T08:10:19.007Z,33215,-0.027614607,0.0016646864,-0.033287868
1732435819027,2024-11-24T08:10:19.027Z,33235,-0.048159014,0.0043691453,-0.040213145
1732435819030,2024-11-24T08:10:19.030Z,33238,-0.048159014,0.0043691453,-0.040213145
1732435819038,2024-11-24T08:10:19.038Z,33246,0.061144598,0.011160926,0.028700778
1732435819041,2024-11-24T08:10:19.041Z,33249,0.061144598,0.011160926,0.028700778
1732435819049,2024-11-24T08:10:19.049Z,33257,0.041435648,0.023645394,-0.01912042
1732435819052,2024-11-24T08:10:19.052Z,33260,0.041435648,0.023645394,-0.01912042
1732435819071,2024-11-24T08:10:19.071Z,33279,-0.042995013,0.03288801,-0.113714926
1732435819073,2024-11-24T08:10:19.073Z,33281,-0.042995013,0.03288801,-0.113714926
1732435819082,2024-11-24T08:10:19.082Z,33290,0.07022253,0.04486815,-0.04524072
1732435819085,2024-11-24T08:10:19.085Z,33293,0.07022253,0.04486815,-0.04524072
1732435819115,2024-11-24T08:10:19.115Z,33323,0.09524575,0.039418485,-0.023037096
1732435819118,2024-11-24T08:10:19.118Z,33326,0.09524575,0.039418485,-0.023037096
1732435819126,2024-11-24T08:10:19.126Z,33334,-0.013197682,0.05800476,-0.016126819
1732435819129,2024-11-24T08:10:19.129Z,33337,-0.013197682,0.05800476,-0.016126819
1732435819137,2024-11-24T08:10:19.137Z,33345,0.022062492,0.06306368,-0.056271296
1732435819140,2024-11-24T08:10:19.140Z,33348,0.022062492,0.06306368,-0.056271296
1732435819161,2024-11-24T08:10:19.161Z,33369,-0.00956864,0.023177437,-0.13043709
1732435819164,2024-11-24T08:10:19.164Z,33372,-0.00956864,0.023177437,-0.13043709
1732435819172,2024-11-24T08:10:19.172Z,33380,0.0316375,0.031129966,-0.021988887
1732435819175,2024-11-24T08:10:19.175Z,33383,0.0316375,0.031129966,-0.021988887
1732435819184,2024-11-24T08:10:19.184Z,33392,0.05977175,1.5044221E-4,-0.016656455
1732435819186,2024-11-24T08:10:19.186Z,33394,0.05977175,1.5044221E-4,-0.016656455
1732435819194,2024-11-24T08:10:19.194Z,33402,0.059092283,-0.011699775,0.010987594
1732435819197,2024-11-24T08:10:19.197Z,33405,0.059092283,-0.011699775,0.010987594
1732435819206,2024-11-24T08:10:19.206Z,33414,0.0030082122,0.04145641,-0.037321594
1732435819208,2024-11-24T08:10:19.208Z,33416,0.0030082122,0.04145641,-0.037321594
1732435819216,2024-11-24T08:10:19.216Z,33424,0.03130049,0.007943485,-0.029316174
1732435819218,2024-11-24T08:10:19.218Z,33426,0.03130049,0.007943485,-0.029316174
1732435819250,2024-11-24T08:10:19.250Z,33458,0.045106992,0.0065731676,-0.032152306
1732435819253,2024-11-24T08:10:19.253Z,33461,0.045106992,0.0065731676,-0.032152306
1732435819264,2024-11-24T08:10:19.264Z,33472,0.046940256,9.119891E-4,0.0020140244
1732435819267,2024-11-24T08:10:19.267Z,33475,0.046940256,9.119891E-4,0.0020140244
1732435819276,2024-11-24T08:10:19.276Z,33484,0.016000604,0.015608939,0.0044183526
1732435819279,2024-11-24T08:10:19.279Z,33487,0.016000604,0.015608939,0.0044183526
1732435819287,2024-11-24T08:10:19.287Z,33495,0.022782855,0.01315324,0.021314753
1732435819290,2024-11-24T08:10:19.290Z,33498,0.022782855,0.01315324,0.021314753
1732435819298,2024-11-24T08:10:19.298Z,33506,0.064801015,0.008599907,0.021172293
1732435819301,2024-11-24T08:10:19.301Z,33509,0.064801015,0.008599907,0.021172293
1732435819308,2024-11-24T08:10:19.308Z,33516,0.02256249,-0.021122204,-0.020134587
1732435819312,2024-11-24T08:10:19.312Z,33520,0.02256249,-0.021122204,-0.020134587
1732435819361,2024-11-24T08:10:19.361Z,33569,-0.0047476823,9.851194E-4,-0.028332464
1732435819367,2024-11-24T08:10:19.367Z,33575,-0.0047476823,9.851194E-4,-0.028332464
1732435819386,2024-11-24T08:10:19.386Z,33594,0.048283733,-0.052805703,-0.016520757
1732435819391,2024-11-24T08:10:19.391Z,33599,0.048283733,-0.052805703,-0.016520757
1732435819409,2024-11-24T08:10:19.409Z,33617,-0.007481996,-0.040904332,-0.025114253
1732435819415,2024-11-24T08:10:19.415Z,33623,-0.007481996,-0.040904332,-0.025114253
1732435819428,2024-11-24T08:10:19.428Z,33636,-0.029236505,-0.022873148,-0.07348456
1732435819432,2024-11-24T08:10:19.432Z,33640,-0.029236505,-0.022873148,-0.07348456
1732435819442,2024-11-24T08:10:19.442Z,33650,0.08167777,-0.058168914,-0.015549326
1732435819446,2024-11-24T08:10:19.446Z,33654,0.08167777,-0.058168914,-0.015549326
1732435819456,2024-11-24T08:10:19.456Z,33664,0.056042157,-0.08270199,0.0274402
1732435819459,2024-11-24T08:10:19.459Z,33667,0.056042157,-0.08270199,0.0274402
1732435819469,2024-11-24T08:10:19.469Z,33677,-0.026042014,-0.062136818,0.038160186
1732435819472,2024-11-24T08:10:19.472Z,33680,-0.026042014,-0.062136818,0.038160186
1732435819481,2024-11-24T08:10:19.481Z,33689,-0.016793855,-0.026618158,-0.013143436
1732435819484,2024-11-24T08:10:19.484Z,33692,-0.016793855,-0.026618158,-0.013143436
1732435819491,2024-11-24T08:10:19.491Z,33699,0.039179936,-0.03552741,-0.07936232
1732435819494,2024-11-24T08:10:19.494Z,33702,0.039179936,-0.03552741,-0.07936232
1732435819501,2024-11-24T08:10:19.501Z,33709,0.064373516,-0.035670657,-0.05585386
1732435819503,2024-11-24T08:10:19.503Z,33711,0.064373516,-0.035670657,-0.05585386
1732435819511,2024-11-24T08:10:19.511Z,33719,-8.8835787E-4,-0.014539505,-0.03408524
1732435819513,2024-11-24T08:10:19.513Z,33721,-8.8835787E-4,-0.014539505,-0.03408524
1732435819521,2024-11-24T08:10:19.521Z,33729,0.033929583,-0.049098037,-0.0288588
1732435819523,2024-11-24T08:10:19.523Z,33731,0.033929583,-0.049098037,-0.0288588
1732435819531,2024-11-24T08:10:19.531Z,33739,0.006045939,-0.03715407,0.016018163
1732435819533,2024-11-24T08:10:19.533Z,33741,0.006045939,-0.03715407,0.016018163
1732435819540,2024-11-24T08:10:19.540Z,33748,0.014221117,-0.032748558,0.053517528
1732435819542,2024-11-24T08:10:19.542Z,33750,0.014221117,-0.032748558,0.053517528
1732435819549,2024-11-24T08:10:19.549Z,33757,0.0740255,0.011683924,-0.015635421
1732435819550,2024-11-24T08:10:19.550Z,33758,0.0740255,0.011683924,-0.015635421
1732435819565,2024-11-24T08:10:19.565Z,33773,0.010414695,0.013526282,-0.08232696
1732435819569,2024-11-24T08:10:19.569Z,33777,0.010414695,0.013526282,-0.08232696
1732435819576,2024-11-24T08:10:19.576Z,33784,0.01028346,0.04094051,-0.06889664
1732435819578,2024-11-24T08:10:19.578Z,33786,0.01028346,0.04094051,-0.06889664
1732435819586,2024-11-24T08:10:19.586Z,33794,0.03448117,0.011452377,-0.06163179
1732435819588,2024-11-24T08:10:19.588Z,33796,0.03448117,0.011452377,-0.06163179
1732435819610,2024-11-24T08:10:19.610Z,33818,0.083558686,-0.008291243,-0.016184919
1732435819612,2024-11-24T08:10:19.612Z,33820,0.083558686,-0.008291243,-0.016184919
1732435819621,2024-11-24T08:10:19.621Z,33829,-0.03413186,-0.032293342,0.03438417
1732435819623,2024-11-24T08:10:19.623Z,33831,-0.03413186,-0.032293342,0.03438417
1732435819631,2024-11-24T08:10:19.631Z,33839,-0.020683423,-0.012650177,0.050403036
1732435819633,2024-11-24T08:10:19.633Z,33841,-0.020683423,-0.012650177,0.050403036
1732435819654,2024-11-24T08:10:19.654Z,33862,-0.042662185,0.0025135616,-0.03883245
1732435819657,2024-11-24T08:10:19.657Z,33865,-0.042662185,0.0025135616,-0.03883245
1732435819665,2024-11-24T08:10:19.665Z,33873,0.11872346,-0.025864586,-0.035514105
1732435819668,2024-11-24T08:10:19.668Z,33876,0.11872346,-0.025864586,-0.035514105
1732435819675,2024-11-24T08:10:19.675Z,33883,-0.022721637,-0.014406568,-0.036896273
1732435819677,2024-11-24T08:10:19.677Z,33885,-0.022721637,-0.014406568,-0.036896273
1732435819684,2024-11-24T08:10:19.684Z,33892,-0.061059117,-0.005415336,-0.029396376
1732435819686,2024-11-24T08:10:19.686Z,33894,-0.061059117,-0.005415336,-0.029396376
1732435819701,2024-11-24T08:10:19.701Z,33909,-0.01789426,-0.02414437,0.0053810566
1732435819703,2024-11-24T08:10:19.703Z,33911,-0.01789426,-0.02414437,0.0053810566
1732435819711,2024-11-24T08:10:19.711Z,33919,-0.043319773,-0.028690508,-0.12296181
1732435819714,2024-11-24T08:10:19.714Z,33922,-0.043319773,-0.028690508,-0.12296181
1732435819749,2024-11-24T08:10:19.749Z,33957,6.884166E-4,-0.020136988,-0.13768034
1732435819751,2024-11-24T08:10:19.751Z,33959,6.884166E-4,-0.020136988,-0.13768034
1732435819758,2024-11-24T08:10:19.758Z,33966,-0.020841012,-0.038001977,-0.06762488
1732435819761,2024-11-24T08:10:19.761Z,33969,-0.020841012,-0.038001977,-0.06762488
1732435819768,2024-11-24T08:10:19.768Z,33976,-0.03310113,-0.03904564,-0.0721006
1732435819771,2024-11-24T08:10:19.771Z,33979,-0.03310113,-0.03904564,-0.0721006
1732435819778,2024-11-24T08:10:19.778Z,33986,-0.0381742,-0.04146205,-0.033953033
1732435819781,2024-11-24T08:10:19.781Z,33989,-0.0381742,-0.04146205,-0.033953033
1732435819793,2024-11-24T08:10:19.793Z,34001,-0.025859091,-0.032576915,-0.024185617
1732435819795,2024-11-24T08:10:19.795Z,34003,-0.025859091,-0.032576915,-0.024185617
1732435819803,2024-11-24T08:10:19.803Z,34011,-0.0070545436,-0.021273326,-0.032631118
1732435819805,2024-11-24T08:10:19.805Z,34013,-0.0070545436,-0.021273326,-0.032631118
1732435819813,2024-11-24T08:10:19.813Z,34021,-0.0756205,-0.019285098,-0.03578397
1732435819815,2024-11-24T08:10:19.815Z,34023,-0.0756205,-0.019285098,-0.03578397
1732435819850,2024-11-24T08:10:19.850Z,34058,-0.007476064,-0.050197713,-0.043081395
1732435819856,2024-11-24T08:10:19.856Z,34064,-0.007476064,-0.050197713,-0.043081395
1732435819867,2024-11-24T08:10:19.867Z,34075,-0.056289166,-0.029293345,-0.040984236
1732435819869,2024-11-24T08:10:19.869Z,34077,-0.056289166,-0.029293345,-0.040984236
1732435819880,2024-11-24T08:10:19.880Z,34088,-0.066294104,-0.0061115324,-0.06807725
1732435819883,2024-11-24T08:10:19.883Z,34091,-0.066294104,-0.0061115324,-0.06807725
1732435819893,2024-11-24T08:10:19.893Z,34101,-0.040810637,-0.02954016,-0.047790546
1732435819897,2024-11-24T08:10:19.897Z,34105,-0.040810637,-0.02954016,-0.047790546
1732435819907,2024-11-24T08:10:19.907Z,34115,-0.013134957,-0.0051624924,-0.043797843
1732435819910,2024-11-24T08:10:19.910Z,34118,-0.013134957,-0.0051624924,-0.043797843
1732435819924,2024-11-24T08:10:19.924Z,34132,-0.036880806,-0.024691584,-0.014663091
1732435819927,2024-11-24T08:10:19.927Z,34135,-0.036880806,-0.024691584,-0.014663091
1732435819936,2024-11-24T08:10:19.936Z,34144,0.03214849,0.025320193,-0.044531573
1732435819938,2024-11-24T08:10:19.938Z,34146,0.03214849,0.025320193,-0.044531573
1732435819946,2024-11-24T08:10:19.946Z,34154,0.06359198,0.02326,-0.049126405
1732435819948,2024-11-24T08:10:19.948Z,34156,0.06359198,0.02326,-0.049126405
1732435819969,2024-11-24T08:10:19.969Z,34177,0.038640503,0.052083835,-0.07410409
1732435819971,2024-11-24T08:10:19.971Z,34179,0.038640503,0.052083835,-0.07410409
1732435819979,2024-11-24T08:10:19.979Z,34187,0.024785234,0.046657022,-0.041592587
1732435819982,2024-11-24T08:10:19.982Z,34190,0.024785234,0.046657022,-0.041592587
1732435819989,2024-11-24T08:10:19.989Z,34197,0.016059196,0.020833379,-0.049132753
1732435819991,2024-11-24T08:10:19.991Z,34199,0.016059196,0.020833379,-0.049132753
1732435819999,2024-11-24T08:10:19.999Z,34207,-0.0011936671,0.022232577,-0.03407102
1732435820001,2024-11-24T08:10:20.001Z,34209,-0.0011936671,0.022232577,-0.03407102
1732435820017,2024-11-24T08:10:20.017Z,34225,0.032012053,0.005967995,-0.0041156933
1732435820020,2024-11-24T08:10:20.020Z,34228,0.032012053,0.005967995,-0.0041156933
1732435820028,2024-11-24T08:10:20.028Z,34236,0.04201281,0.0029036223,-0.025786867
1732435820030,2024-11-24T08:10:20.030Z,34238,0.04201281,0.0029036223,-0.025786867
1732435820038,2024-11-24T08:10:20.038Z,34246,0.08055133,-0.023494659,0.04316253
1732435820040,2024-11-24T08:10:20.040Z,34248,0.08055133,-0.023494659,0.04316253
1732435820062,2024-11-24T08:10:20.062Z,34270,-0.058505002,-0.014964576,-0.05770932
1732435820066,2024-11-24T08:10:20.066Z,34274,-0.058505002,-0.014964576,-0.05770932
1732435820073,2024-11-24T08:10:20.073Z,34281,4.3601013E-4,-0.022367753,-0.016415736
1732435820076,2024-11-24T08:10:20.076Z,34284,4.3601013E-4,-0.022367753,-0.016415736
1732435820085,2024-11-24T08:10:20.085Z,34293,0.01063608,-0.06668645,-0.004283689
1732435820087,2024-11-24T08:10:20.087Z,34295,0.01063608,-0.06668645,-0.004283689
1732435820106,2024-11-24T08:10:20.106Z,34314,-2.9689728E-4,-0.059666142,-0.010905912
1732435820109,2024-11-24T08:10:20.109Z,34317,-2.9689728E-4,-0.059666142,-0.010905912
1732435820118,2024-11-24T08:10:20.118Z,34326,-0.020973755,-0.06400193,-0.0090311095
1732435820120,2024-11-24T08:10:20.120Z,34328,-0.020973755,-0.06400193,-0.0090311095
1732435820129,2024-11-24T08:10:20.129Z,34337,-0.0032422873,-0.066384204,0.015577917
1732435820131,2024-11-24T08:10:20.131Z,34339,-0.0032422873,-0.066384204,0.015577917
1732435820154,2024-11-24T08:10:20.154Z,34362,-0.0019511782,-0.08514572,0.008167866
1732435820156,2024-11-24T08:10:20.156Z,34364,-0.0019511782,-0.08514572,0.008167866
1732435820166,2024-11-24T08:10:20.166Z,34374,0.029262494,-0.102517374,-0.055120163
1732435820169,2024-11-24T08:10:20.169Z,34377,0.029262494,-0.102517374,-0.055120163
1732435820196,2024-11-24T08:10:20.196Z,34404,0.070009895,-0.11120189,-0.029287565
1732435820199,2024-11-24T08:10:20.199Z,34407,0.070009895,-0.11120189,-0.029287565
1732435820208,2024-11-24T08:10:20.208Z,34416,0.018106772,-0.097588666,-0.006912969
1732435820210,2024-11-24T08:10:20.210Z,34418,0.018106772,-0.097588666,-0.006912969
1732435820219,2024-11-24T08:10:20.219Z,34427,0.011383526,-0.09240332,-0.019968444
1732435820221,2024-11-24T08:10:20.221Z,34429,0.011383526,-0.09240332,-0.019968444
1732435820240,2024-11-24T08:10:20.240Z,34448,-0.055774238,-0.06458571,0.04122392
1732435820243,2024-11-24T08:10:20.243Z,34451,-0.055774238,-0.06458571,0.04122392
1732435820252,2024-11-24T08:10:20.252Z,34460,-0.03289742,-0.07618989,0.032473274
1732435820254,2024-11-24T08:10:20.254Z,34462,-0.03289742,-0.07618989,0.032473274
1732435820263,2024-11-24T08:10:20.263Z,34471,0.015719825,-0.064456075,-0.033192977
1732435820266,2024-11-24T08:10:20.266Z,34474,0.015719825,-0.064456075,-0.033192977
1732435820297,2024-11-24T08:10:20.297Z,34505,0.06786313,-0.07862555,-0.04442452
1732435820303,2024-11-24T08:10:20.303Z,34511,0.06786313,-0.07862555,-0.04442452
1732435820326,2024-11-24T08:10:20.326Z,34534,0.03613268,-0.0334255,0.04069835
1732435820332,2024-11-24T08:10:20.332Z,34540,0.03613268,-0.0334255,0.04069835
1732435820349,2024-11-24T08:10:20.349Z,34557,0.02768465,-0.024618745,0.030547094
1732435820354,2024-11-24T08:10:20.354Z,34562,0.02768465,-0.024618745,0.030547094
1732435820372,2024-11-24T08:10:20.372Z,34580,0.009432931,0.005837391,0.03688994
1732435820377,2024-11-24T08:10:20.377Z,34585,0.009432931,0.005837391,0.03688994
1732435820387,2024-11-24T08:10:20.387Z,34595,-0.014105781,0.039881676,-0.022321275
1732435820391,2024-11-24T08:10:20.391Z,34599,-0.014105781,0.039881676,-0.022321275
1732435820402,2024-11-24T08:10:20.402Z,34610,0.0365198,0.04806371,-0.004672072
1732435820405,2024-11-24T08:10:20.405Z,34613,0.0365198,0.04806371,-0.004672072
1732435820424,2024-11-24T08:10:20.424Z,34632,0.04733399,0.046154834,-0.015789716
1732435820429,2024-11-24T08:10:20.429Z,34637,0.04733399,0.046154834,-0.015789716
1732435820447,2024-11-24T08:10:20.447Z,34655,0.019962646,0.03066415,0.0085751815
1732435820453,2024-11-24T08:10:20.453Z,34661,0.019962646,0.03066415,0.0085751815
1732435820470,2024-11-24T08:10:20.470Z,34678,-0.03219473,0.02507017,0.029673293
1732435820474,2024-11-24T08:10:20.474Z,34682,-0.03219473,0.02507017,0.029673293
1732435820484,2024-11-24T08:10:20.484Z,34692,-0.004868172,0.01003577,-0.0102235
1732435820487,2024-11-24T08:10:20.487Z,34695,-0.004868172,0.01003577,-0.0102235
1732435820498,2024-11-24T08:10:20.498Z,34706,0.011384401,0.005779918,0.005351882
1732435820501,2024-11-24T08:10:20.501Z,34709,0.011384401,0.005779918,0.005351882
1732435820511,2024-11-24T08:10:20.511Z,34719,0.027507415,0.0122880265,0.004532351
1732435820514,2024-11-24T08:10:20.514Z,34722,0.027507415,0.0122880265,0.004532351
1732435820522,2024-11-24T08:10:20.522Z,34730,0.0073497635,0.010591346,-0.023630101
1732435820524,2024-11-24T08:10:20.524Z,34732,0.0073497635,0.010591346,-0.023630101
1732435820532,2024-11-24T08:10:20.532Z,34740,-0.021827614,-0.0131564485,-0.05433236
1732435820535,2024-11-24T08:10:20.535Z,34743,-0.021827614,-0.0131564485,-0.05433236
1732435820544,2024-11-24T08:10:20.544Z,34752,0.021512968,-0.018668158,-0.006159567
1732435820547,2024-11-24T08:10:20.547Z,34755,0.021512968,-0.018668158,-0.006159567
1732435820556,2024-11-24T08:10:20.556Z,34764,-2.0334497E-4,-0.036835004,-0.017806578
1732435820559,2024-11-24T08:10:20.559Z,34767,-2.0334497E-4,-0.036835004,-0.017806578
1732435820567,2024-11-24T08:10:20.567Z,34775,-0.037409104,-0.043434624,0.031921513
1732435820570,2024-11-24T08:10:20.570Z,34778,-0.037409104,-0.043434624,0.031921513
1732435820582,2024-11-24T08:10:20.582Z,34790,-0.002881231,-0.050063804,0.04568633
1732435820586,2024-11-24T08:10:20.586Z,34794,-0.002881231,-0.050063804,0.04568633
1732435820593,2024-11-24T08:10:20.593Z,34801,-0.040616993,-0.044049226,0.0194248
1732435820596,2024-11-24T08:10:20.596Z,34804,-0.040616993,-0.044049226,0.0194248
1732435820603,2024-11-24T08:10:20.603Z,34811,0.03102241,-0.0504562,-0.029691447
1732435820605,2024-11-24T08:10:20.605Z,34813,0.03102241,-0.0504562,-0.029691447
1732435820611,2024-11-24T08:10:20.611Z,34819,-3.7771012E-4,-0.047178756,-0.008341872
1732435820613,2024-11-24T08:10:20.613Z,34821,-3.7771012E-4,-0.047178756,-0.008341872
1732435820621,2024-11-24T08:10:20.621Z,34829,-0.04108264,-0.028775405,-3.9075955E-4
1732435820623,2024-11-24T08:10:20.623Z,34831,-0.04108264,-0.028775405,-3.9075955E-4
1732435820630,2024-11-24T08:10:20.630Z,34838,-0.049116418,-0.04502161,-0.0068651354
1732435820633,2024-11-24T08:10:20.633Z,34841,-0.049116418,-0.04502161,-0.0068651354
1732435820641,2024-11-24T08:10:20.641Z,34849,-0.044325024,-0.027389526,-0.0058956975
1732435820643,2024-11-24T08:10:20.643Z,34851,-0.044325024,-0.027389526,-0.0058956975
1732435820651,2024-11-24T08:10:20.651Z,34859,0.016444102,-0.035596456,-0.023289135
1732435820653,2024-11-24T08:10:20.653Z,34861,0.016444102,-0.035596456,-0.023289135
1732435820661,2024-11-24T08:10:20.661Z,34869,0.0061898413,-0.034759346,-0.04779713
1732435820663,2024-11-24T08:10:20.663Z,34871,0.0061898413,-0.034759346,-0.04779713
1732435820670,2024-11-24T08:10:20.670Z,34878,0.005002204,-0.0387325,-0.048963327
1732435820673,2024-11-24T08:10:20.673Z,34881,0.005002204,-0.0387325,-0.048963327
1732435820679,2024-11-24T08:10:20.679Z,34887,9.906138E-4,-0.03736267,-0.038642514
1732435820681,2024-11-24T08:10:20.681Z,34889,9.906138E-4,-0.03736267,-0.038642514
1732435820747,2024-11-24T08:10:20.747Z,34955,0.01074456,-0.035825085,-0.040066708
1732435820752,2024-11-24T08:10:20.752Z,34960,0.01074456,-0.035825085,-0.040066708
1732435820767,2024-11-24T08:10:20.767Z,34975,-0.025333637,-0.02784027,-0.014413111
1732435820771,2024-11-24T08:10:20.771Z,34979,-0.025333637,-0.02784027,-0.014413111
1732435820783,2024-11-24T08:10:20.783Z,34991,-0.036229346,-0.019963691,-0.017316991
1732435820786,2024-11-24T08:10:20.786Z,34994,-0.036229346,-0.019963691,-0.017316991
1732435820797,2024-11-24T08:10:20.797Z,35005,-0.006815776,-0.018057927,-0.01927163
1732435820800,2024-11-24T08:10:20.800Z,35008,-0.006815776,-0.018057927,-0.01927163
1732435820821,2024-11-24T08:10:20.821Z,35029,0.008308262,-0.017602129,-0.02099424
1732435820827,2024-11-24T08:10:20.827Z,35035,0.008308262,-0.017602129,-0.02099424
1732435820845,2024-11-24T08:10:20.845Z,35053,0.0103508765,-0.011816959,-0.027720677
1732435820850,2024-11-24T08:10:20.850Z,35058,0.0103508765,-0.011816959,-0.027720677
1732435820871,2024-11-24T08:10:20.871Z,35079,0.017820863,-0.01631272,-0.01065018
1732435820877,2024-11-24T08:10:20.877Z,35085,0.017820863,-0.01631272,-0.01065018
1732435820888,2024-11-24T08:10:20.888Z,35096,0.021425009,-0.0055159875,0.03612668
1732435820891,2024-11-24T08:10:20.891Z,35099,0.021425009,-0.0055159875,0.03612668
1732435820901,2024-11-24T08:10:20.901Z,35109,-0.01109577,-0.00428347,0.014049
1732435820904,2024-11-24T08:10:20.904Z,35112,-0.01109577,-0.00428347,0.014049
1732435820914,2024-11-24T08:10:20.914Z,35122,-0.014516482,0.004164536,-0.013614142
1732435820918,2024-11-24T08:10:20.918Z,35126,-0.014516482,0.004164536,-0.013614142
1732435820934,2024-11-24T08:10:20.934Z,35142,0.043089416,0.0139737185,-0.0076216073
1732435820940,2024-11-24T08:10:20.940Z,35148,0.043089416,0.0139737185,-0.0076216073
1732435820961,2024-11-24T08:10:20.961Z,35169,0.041171595,0.01207204,-0.0033998105
1732435820966,2024-11-24T08:10:20.966Z,35174,0.041171595,0.01207204,-0.0033998105
1732435820985,2024-11-24T08:10:20.985Z,35193,0.039747838,0.0028731837,-0.002197136
1732435820991,2024-11-24T08:10:20.991Z,35199,0.039747838,0.0028731837,-0.002197136
1732435821012,2024-11-24T08:10:21.012Z,35220,0.02313263,-0.01201408,5.933144E-4
1732435821018,2024-11-24T08:10:21.018Z,35226,0.02313263,-0.01201408,5.933144E-4
1732435821036,2024-11-24T08:10:21.036Z,35244,0.024308428,-0.016665827,0.0025299843
1732435821041,2024-11-24T08:10:21.041Z,35249,0.024308428,-0.016665827,0.0025299843
1732435821059,2024-11-24T08:10:21.059Z,35267,8.0049457E-4,-0.01795047,-0.0075474316
1732435821065,2024-11-24T08:10:21.065Z,35273,8.0049457E-4,-0.01795047,-0.0075474316
1732435821082,2024-11-24T08:10:21.082Z,35290,0.019346096,-0.028106825,0.0025048093
1732435821086,2024-11-24T08:10:21.086Z,35294,0.019346096,-0.028106825,0.0025048093
1732435821098,2024-11-24T08:10:21.098Z,35306,0.007041926,-0.03160609,0.01225791
1732435821101,2024-11-24T08:10:21.101Z,35309,0.007041926,-0.03160609,0.01225791
1732435821112,2024-11-24T08:10:21.112Z,35320,0.0054673394,-0.03071608,-5.67489E-4
1732435821116,2024-11-24T08:10:21.116Z,35324,0.0054673394,-0.03071608,-5.67489E-4
1732435821126,2024-11-24T08:10:21.126Z,35334,0.01912075,-0.043162134,-0.012121338
1732435821129,2024-11-24T08:10:21.129Z,35337,0.01912075,-0.043162134,-0.012121338
1732435821139,2024-11-24T08:10:21.139Z,35347,-0.026809152,-0.031061018,-0.028784178
1732435821141,2024-11-24T08:10:21.141Z,35349,-0.026809152,-0.031061018,-0.028784178
1732435821150,2024-11-24T08:10:21.150Z,35358,-0.033014115,-0.040983398,-0.029790899
1732435821152,2024-11-24T08:10:21.152Z,35360,-0.033014115,-0.040983398,-0.029790899
1732435821160,2024-11-24T08:10:21.160Z,35368,-0.002082876,-0.04675145,-1.1532364E-4
1732435821163,2024-11-24T08:10:21.163Z,35371,-0.002082876,-0.04675145,-1.1532364E-4
1732435821170,2024-11-24T08:10:21.170Z,35378,-0.02705164,-0.04747254,0.0044092904
1732435821172,2024-11-24T08:10:21.172Z,35380,-0.02705164,-0.04747254,0.0044092904
1732435821180,2024-11-24T08:10:21.180Z,35388,-0.016671078,-0.03996774,-0.0034842154
1732435821182,2024-11-24T08:10:21.182Z,35390,-0.016671078,-0.03996774,-0.0034842154
1732435821188,2024-11-24T08:10:21.188Z,35396,-0.0148354545,-0.044758845,-0.01058497
1732435821190,2024-11-24T08:10:21.190Z,35398,-0.0148354545,-0.044758845,-0.01058497
1732435821196,2024-11-24T08:10:21.196Z,35404,-0.004523113,-0.053972386,-0.0099678235
1732435821198,2024-11-24T08:10:21.198Z,35406,-0.004523113,-0.053972386,-0.0099678235
1732435821209,2024-11-24T08:10:21.209Z,35417,-0.024990888,-0.053980164,-0.004022919
1732435821213,2024-11-24T08:10:21.213Z,35421,-0.024990888,-0.053980164,-0.004022919
1732435821229,2024-11-24T08:10:21.229Z,35437,-0.032710508,-0.055011768,0.0049419524
1732435821232,2024-11-24T08:10:21.232Z,35440,-0.032710508,-0.055011768,0.0049419524
1732435821239,2024-11-24T08:10:21.239Z,35447,-0.044455554,-0.05444102,-0.0026064455
1732435821241,2024-11-24T08:10:21.241Z,35449,-0.044455554,-0.05444102,-0.0026064455
1732435821250,2024-11-24T08:10:21.250Z,35458,-0.049114935,-0.06303188,-0.012523111
1732435821252,2024-11-24T08:10:21.252Z,35460,-0.049114935,-0.06303188,-0.012523111
1732435821259,2024-11-24T08:10:21.259Z,35467,-0.035946693,-0.091722585,-0.009645217
1732435821261,2024-11-24T08:10:21.261Z,35469,-0.035946693,-0.091722585,-0.009645217
1732435821268,2024-11-24T08:10:21.268Z,35476,-0.046818696,-0.12564969,-0.0053330585
1732435821270,2024-11-24T08:10:21.270Z,35478,-0.046818696,-0.12564969,-0.0053330585
1732435821277,2024-11-24T08:10:21.277Z,35485,-0.10592705,-0.11831128,-0.006688315
1732435821280,2024-11-24T08:10:21.280Z,35488,-0.10592705,-0.11831128,-0.006688315
1732435821288,2024-11-24T08:10:21.288Z,35496,-0.07552241,-0.1261401,-0.013970242
1732435821290,2024-11-24T08:10:21.290Z,35498,-0.07552241,-0.1261401,-0.013970242
1732435821296,2024-11-24T08:10:21.296Z,35504,-0.12961766,-0.17478225,0.05121419
1732435821298,2024-11-24T08:10:21.298Z,35506,-0.12961766,-0.17478225,0.05121419
1732435821305,2024-11-24T08:10:21.305Z,35513,-0.08436684,-0.18822947,0.031170227
1732435821308,2024-11-24T08:10:21.308Z,35516,-0.08436684,-0.18822947,0.031170227
1732435821318,2024-11-24T08:10:21.318Z,35526,-0.13005958,-0.20426172,0.03608517
1732435821321,2024-11-24T08:10:21.321Z,35529,-0.13005958,-0.20426172,0.03608517
1732435821329,2024-11-24T08:10:21.329Z,35537,-0.15016176,-0.2545413,0.09647748
1732435821332,2024-11-24T08:10:21.332Z,35540,-0.15016176,-0.2545413,0.09647748
1732435821339,2024-11-24T08:10:21.339Z,35547,-0.19081363,-0.26582876,0.10334764
1732435821341,2024-11-24T08:10:21.341Z,35549,-0.19081363,-0.26582876,0.10334764
1732435821348,2024-11-24T08:10:21.348Z,35556,-0.094397165,-0.2695202,0.07247354
1732435821350,2024-11-24T08:10:21.350Z,35558,-0.094397165,-0.2695202,0.07247354
1732435821359,2024-11-24T08:10:21.359Z,35567,-0.13264605,-0.24789755,0.0494794
1732435821362,2024-11-24T08:10:21.362Z,35570,-0.13264605,-0.24789755,0.0494794
1732435821371,2024-11-24T08:10:21.371Z,35579,-0.09811198,-0.22588105,0.016742835
1732435821373,2024-11-24T08:10:21.373Z,35581,-0.09811198,-0.22588105,0.016742835
1732435821379,2024-11-24T08:10:21.379Z,35587,-0.13323861,-0.21837898,0.026518054
1732435821382,2024-11-24T08:10:21.382Z,35590,-0.13323861,-0.21837898,0.026518054
1732435821388,2024-11-24T08:10:21.388Z,35596,-0.09769326,-0.22018127,0.10576827
1732435821390,2024-11-24T08:10:21.390Z,35598,-0.09769326,-0.22018127,0.10576827
1732435821398,2024-11-24T08:10:21.398Z,35606,-0.07954437,-0.2076191,0.14095324
1732435821401,2024-11-24T08:10:21.401Z,35609,-0.07954437,-0.2076191,0.14095324
1732435821416,2024-11-24T08:10:21.416Z,35624,-0.036952235,-0.16483255,0.04687077
1732435821420,2024-11-24T08:10:21.420Z,35628,-0.036952235,-0.16483255,0.04687077
1732435821436,2024-11-24T08:10:21.436Z,35644,-0.06304827,-0.15414152,0.026382752
1732435821441,2024-11-24T08:10:21.441Z,35649,-0.06304827,-0.15414152,0.026382752
1732435821458,2024-11-24T08:10:21.458Z,35666,-0.022219595,-0.1358714,0.03345565
1732435821463,2024-11-24T08:10:21.463Z,35671,-0.022219595,-0.1358714,0.03345565
1732435821480,2024-11-24T08:10:21.480Z,35688,-0.03697178,-0.14704895,0.06731278
1732435821485,2024-11-24T08:10:21.485Z,35693,-0.03697178,-0.14704895,0.06731278
1732435821495,2024-11-24T08:10:21.495Z,35703,0.02150638,-0.138493,0.12437236
1732435821499,2024-11-24T08:10:21.499Z,35707,0.02150638,-0.138493,0.12437236
1732435821510,2024-11-24T08:10:21.510Z,35718,-0.025519162,-0.1149999,0.058341384
1732435821513,2024-11-24T08:10:21.513Z,35721,-0.025519162,-0.1149999,0.058341384
1732435821524,2024-11-24T08:10:21.524Z,35732,0.0016460149,-0.09294071,0.06747765
1732435821526,2024-11-24T08:10:21.526Z,35734,0.0016460149,-0.09294071,0.06747765
1732435821537,2024-11-24T08:10:21.537Z,35745,0.060084842,-0.09733582,0.033973526
