Timestamp (ms),ISO DateTime,Elapsed Time (ms),Acceleration X,Acceleration Y,Acceleration Z
1732371382138,2024-11-23T14:16:22.138Z,140243,-0.008308443,-0.042941283,-0.1702647
1732371382144,2024-11-23T14:16:22.144Z,140249,-0.008308443,-0.042941283,-0.1702647
1732371382182,2024-11-23T14:16:22.182Z,140287,-0.0033405197,-0.038894612,-0.16457674
1732371382186,2024-11-23T14:16:22.186Z,140291,-0.0033405197,-0.038894612,-0.16457674
1732371382207,2024-11-23T14:16:22.207Z,140312,-0.005428781,-0.032179173,-0.14246432
1732371382211,2024-11-23T14:16:22.211Z,140316,-0.005428781,-0.032179173,-0.14246432
1732371382234,2024-11-23T14:16:22.234Z,140339,-0.009742143,-0.030941013,-0.14049444
1732371382237,2024-11-23T14:16:22.237Z,140342,-0.009742143,-0.030941013,-0.14049444
1732371382255,2024-11-23T14:16:22.255Z,140360,-0.005757174,-0.031230034,-0.14062448
1732371382258,2024-11-23T14:16:22.258Z,140363,-0.005757174,-0.031230034,-0.14062448
1732371382276,2024-11-23T14:16:22.276Z,140381,-0.00615183,-0.031559218,-0.13788565
1732371382278,2024-11-23T14:16:22.278Z,140383,-0.00615183,-0.031559218,-0.13788565
1732371382295,2024-11-23T14:16:22.295Z,140400,-0.0065840594,-0.024621274,-0.12994207
1732371382297,2024-11-23T14:16:22.297Z,140402,-0.0065840594,-0.024621274,-0.12994207
1732371382314,2024-11-23T14:16:22.314Z,140419,9.851193E-5,-0.031390492,-0.104484245
1732371382316,2024-11-23T14:16:22.316Z,140421,9.851193E-5,-0.031390492,-0.104484245
1732371382333,2024-11-23T14:16:22.333Z,140438,-0.008064437,-0.028768402,-0.09560729
1732371382335,2024-11-23T14:16:22.335Z,140440,-0.008064437,-0.028768402,-0.09560729
1732371382351,2024-11-23T14:16:22.351Z,140456,-0.0021247168,-0.026711224,-0.08756403
1732371382353,2024-11-23T14:16:22.353Z,140458,-0.0021247168,-0.026711224,-0.08756403
1732371382368,2024-11-23T14:16:22.368Z,140473,-0.0028745453,-0.016148567,-0.08078636
1732371382370,2024-11-23T14:16:22.370Z,140475,-0.0028745453,-0.016148567,-0.08078636
1732371382385,2024-11-23T14:16:22.385Z,140490,-0.004769356,-0.023129689,-0.076647066
1732371382387,2024-11-23T14:16:22.387Z,140492,-0.004769356,-0.023129689,-0.076647066
1732371382403,2024-11-23T14:16:22.403Z,140508,-0.0042315032,-0.013999392,-0.07787967
1732371382405,2024-11-23T14:16:22.405Z,140510,-0.0042315032,-0.013999392,-0.07787967
1732371382460,2024-11-23T14:16:22.460Z,140565,-0.0055046706,-0.017991897,-0.06341999
1732371382465,2024-11-23T14:16:22.465Z,140570,-0.0055046706,-0.017991897,-0.06341999
1732371382489,2024-11-23T14:16:22.489Z,140594,-0.0030932068,-0.019221984,-0.062235415
1732371382492,2024-11-23T14:16:22.492Z,140597,-0.0030932068,-0.019221984,-0.062235415
1732371382513,2024-11-23T14:16:22.513Z,140618,-0.004575019,-0.01704908,-0.060618926
1732371382516,2024-11-23T14:16:22.516Z,140621,-0.004575019,-0.01704908,-0.060618926
1732371382538,2024-11-23T14:16:22.538Z,140643,0.0022216483,-0.01764307,-0.058647774
1732371382541,2024-11-23T14:16:22.541Z,140646,0.0022216483,-0.01764307,-0.058647774
1732371382562,2024-11-23T14:16:22.562Z,140667,0.0016769395,-0.017444586,-0.06692992
1732371382565,2024-11-23T14:16:22.565Z,140670,0.0016769395,-0.017444586,-0.06692992
1732371382583,2024-11-23T14:16:22.583Z,140688,-0.008565445,-0.015760938,-0.0647749
1732371382585,2024-11-23T14:16:22.585Z,140690,-0.008565445,-0.015760938,-0.0647749
1732371382602,2024-11-23T14:16:22.602Z,140707,-0.004759206,-0.0163099,-0.06257438
1732371382605,2024-11-23T14:16:22.605Z,140710,-0.004759206,-0.0163099,-0.06257438
1732371382621,2024-11-23T14:16:22.621Z,140726,-0.0029653017,-0.017530942,-0.058482975
1732371382624,2024-11-23T14:16:22.624Z,140729,-0.0029653017,-0.017530942,-0.058482975
1732371382650,2024-11-23T14:16:22.650Z,140755,-0.006262777,-0.019311063,-0.046920624
1732371382654,2024-11-23T14:16:22.654Z,140759,-0.006262777,-0.019311063,-0.046920624
1732371382671,2024-11-23T14:16:22.671Z,140776,-0.0048238877,-0.019177735,-0.051087834
1732371382673,2024-11-23T14:16:22.673Z,140778,-0.0048238877,-0.019177735,-0.051087834
1732371382689,2024-11-23T14:16:22.689Z,140794,-0.0029179298,-0.017100817,-0.046050146
1732371382690,2024-11-23T14:16:22.690Z,140795,-0.0029179298,-0.017100817,-0.046050146
1732371382706,2024-11-23T14:16:22.706Z,140811,0.0038265274,-0.009241742,-0.041132536
1732371382708,2024-11-23T14:16:22.708Z,140813,0.0038265274,-0.009241742,-0.041132536
1732371382726,2024-11-23T14:16:22.726Z,140831,-0.0011098395,-0.0067228316,-0.042211257
1732371382728,2024-11-23T14:16:22.728Z,140833,-0.0011098395,-0.0067228316,-0.042211257
1732371382743,2024-11-23T14:16:22.743Z,140848,-0.0026123289,-0.011032754,-0.036882374
1732371382745,2024-11-23T14:16:22.745Z,140850,-0.0026123289,-0.011032754,-0.036882374
1732371382759,2024-11-23T14:16:22.759Z,140864,7.044138E-4,-0.012845937,-0.04253344
1732371382762,2024-11-23T14:16:22.762Z,140867,7.044138E-4,-0.012845937,-0.04253344
1732371382780,2024-11-23T14:16:22.780Z,140885,-0.010992967,-0.016197482,-0.044565856
1732371382782,2024-11-23T14:16:22.782Z,140887,-0.010992967,-0.016197482,-0.044565856
1732371382797,2024-11-23T14:16:22.797Z,140902,-0.008514949,-0.018573632,-0.03975359
1732371382799,2024-11-23T14:16:22.799Z,140904,-0.008514949,-0.018573632,-0.03975359
1732371382815,2024-11-23T14:16:22.815Z,140920,-0.012973076,-0.01609158,-0.039051194
1732371382818,2024-11-23T14:16:22.818Z,140923,-0.012973076,-0.01609158,-0.039051194
1732371382834,2024-11-23T14:16:22.834Z,140939,-5.959218E-4,-0.014648131,-0.03264099
1732371382836,2024-11-23T14:16:22.836Z,140941,-5.959218E-4,-0.014648131,-0.03264099
1732371382851,2024-11-23T14:16:22.851Z,140956,-8.818058E-4,-0.016149636,-0.035560425
1732371382853,2024-11-23T14:16:22.853Z,140958,-8.818058E-4,-0.016149636,-0.035560425
1732371382869,2024-11-23T14:16:22.869Z,140974,-0.0020568864,-0.017172487,-0.03160502
1732371382871,2024-11-23T14:16:22.871Z,140976,-0.0020568864,-0.017172487,-0.03160502
1732371382885,2024-11-23T14:16:22.885Z,140990,-0.0015398324,-0.015219073,-0.03401182
1732371382887,2024-11-23T14:16:22.887Z,140992,-0.0015398324,-0.015219073,-0.03401182
1732371382902,2024-11-23T14:16:22.902Z,141007,-0.012670161,-0.008391408,-0.035903394
1732371382904,2024-11-23T14:16:22.904Z,141009,-0.012670161,-0.008391408,-0.035903394
1732371382918,2024-11-23T14:16:22.918Z,141023,-0.008020626,-0.0054421765,-0.036970675
1732371382920,2024-11-23T14:16:22.920Z,141025,-0.008020626,-0.0054421765,-0.036970675
1732371382936,2024-11-23T14:16:22.936Z,141041,-0.004079602,-0.009335586,-0.03295043
1732371382938,2024-11-23T14:16:22.938Z,141043,-0.004079602,-0.009335586,-0.03295043
1732371382955,2024-11-23T14:16:22.955Z,141060,-0.0015552341,0.00455236,-0.032728
1732371382957,2024-11-23T14:16:22.957Z,141062,-0.0015552341,0.00455236,-0.032728
1732371382978,2024-11-23T14:16:22.978Z,141083,0.0058422657,0.004132347,-0.03278675
1732371382981,2024-11-23T14:16:22.981Z,141086,0.0058422657,0.004132347,-0.03278675
1732371382997,2024-11-23T14:16:22.997Z,141102,0.004405455,0.008605547,-0.031366155
1732371382999,2024-11-23T14:16:22.999Z,141104,0.004405455,0.008605547,-0.031366155
1732371383018,2024-11-23T14:16:23.018Z,141123,0.0051445016,0.0045411764,-0.031292673
1732371383021,2024-11-23T14:16:23.021Z,141126,0.0051445016,0.0045411764,-0.031292673
1732371383041,2024-11-23T14:16:23.041Z,141146,-8.5389573E-4,0.0036933708,-0.037567206
1732371383043,2024-11-23T14:16:23.043Z,141148,-8.5389573E-4,0.0036933708,-0.037567206
1732371383124,2024-11-23T14:16:23.124Z,141229,-0.004011918,0.0053247986,-0.031996626
1732371383127,2024-11-23T14:16:23.127Z,141232,-0.004011918,0.0053247986,-0.031996626
1732371383188,2024-11-23T14:16:23.188Z,141293,-0.014718162,-0.014695685,-0.02713548
1732371383194,2024-11-23T14:16:23.194Z,141299,-0.014718162,-0.014695685,-0.02713548
1732371383222,2024-11-23T14:16:23.222Z,141327,-0.001918503,-0.015471625,-0.024422755
1732371383226,2024-11-23T14:16:23.226Z,141331,-0.001918503,-0.015471625,-0.024422755
1732371383249,2024-11-23T14:16:23.249Z,141354,-0.018595405,-0.028544733,-0.017137563
1732371383252,2024-11-23T14:16:23.252Z,141357,-0.018595405,-0.028544733,-0.017137563
1732371383271,2024-11-23T14:16:23.271Z,141376,-0.017431337,-0.03810817,-0.026509715
1732371383274,2024-11-23T14:16:23.274Z,141379,-0.017431337,-0.03810817,-0.026509715
1732371383289,2024-11-23T14:16:23.289Z,141394,-0.014174681,-0.03856475,-0.013852767
1732371383291,2024-11-23T14:16:23.291Z,141396,-0.014174681,-0.03856475,-0.013852767
1732371383306,2024-11-23T14:16:23.306Z,141411,-0.024938447,-0.043225054,-0.024153294
1732371383309,2024-11-23T14:16:23.309Z,141414,-0.024938447,-0.043225054,-0.024153294
1732371383325,2024-11-23T14:16:23.325Z,141430,-0.0152082415,-0.04857747,-0.015852531
1732371383327,2024-11-23T14:16:23.327Z,141432,-0.0152082415,-0.04857747,-0.015852531
1732371383346,2024-11-23T14:16:23.346Z,141451,-0.028471798,-0.057796456,-0.01836393
1732371383348,2024-11-23T14:16:23.348Z,141453,-0.028471798,-0.057796456,-0.01836393
1732371383365,2024-11-23T14:16:23.365Z,141470,-0.008728857,-0.06114061,-0.01518134
1732371383368,2024-11-23T14:16:23.368Z,141473,-0.008728857,-0.06114061,-0.01518134
1732371383384,2024-11-23T14:16:23.384Z,141489,-0.022082744,-0.05869104,-0.03407165
1732371383387,2024-11-23T14:16:23.387Z,141492,-0.022082744,-0.05869104,-0.03407165
1732371383402,2024-11-23T14:16:23.402Z,141507,-0.044073127,-0.061099473,-0.042803522
1732371383404,2024-11-23T14:16:23.404Z,141509,-0.044073127,-0.061099473,-0.042803522
1732371383420,2024-11-23T14:16:23.420Z,141525,-0.062374014,-0.08150983,-0.026015393
1732371383422,2024-11-23T14:16:23.422Z,141527,-0.062374014,-0.08150983,-0.026015393
1732371383438,2024-11-23T14:16:23.438Z,141543,-0.06826691,-0.08203282,-0.02189824
1732371383440,2024-11-23T14:16:23.440Z,141545,-0.06826691,-0.08203282,-0.02189824
1732371383466,2024-11-23T14:16:23.466Z,141571,-0.04514905,-0.079216234,-0.013649847
1732371383471,2024-11-23T14:16:23.471Z,141576,-0.04514905,-0.079216234,-0.013649847
1732371383504,2024-11-23T14:16:23.504Z,141609,-0.05844674,-0.12096575,-0.0077747116
1732371383507,2024-11-23T14:16:23.507Z,141612,-0.05844674,-0.12096575,-0.0077747116
1732371383528,2024-11-23T14:16:23.528Z,141633,-0.07031394,-0.09804758,0.004351969
1732371383531,2024-11-23T14:16:23.531Z,141636,-0.07031394,-0.09804758,0.004351969
1732371383572,2024-11-23T14:16:23.572Z,141677,-0.040664546,-0.114506945,-0.009298973
1732371383578,2024-11-23T14:16:23.578Z,141683,-0.040664546,-0.114506945,-0.009298973
1732371383615,2024-11-23T14:16:23.615Z,141720,-0.060873445,-0.11127735,-0.00516141
1732371383620,2024-11-23T14:16:23.620Z,141725,-0.060873445,-0.11127735,-0.00516141
1732371383648,2024-11-23T14:16:23.648Z,141753,-0.031999968,-0.10020492,0.012562278
1732371383651,2024-11-23T14:16:23.651Z,141756,-0.031999968,-0.10020492,0.012562278
1732371383672,2024-11-23T14:16:23.672Z,141777,-0.017762369,-0.11625585,0.017895075
1732371383675,2024-11-23T14:16:23.675Z,141780,-0.017762369,-0.11625585,0.017895075
1732371383701,2024-11-23T14:16:23.701Z,141806,-0.023778282,-0.0935559,0.0078015644
1732371383703,2024-11-23T14:16:23.703Z,141808,-0.023778282,-0.0935559,0.0078015644
1732371383719,2024-11-23T14:16:23.719Z,141824,-0.01113321,-0.095289536,0.028120259
1732371383721,2024-11-23T14:16:23.721Z,141826,-0.01113321,-0.095289536,0.028120259
1732371383736,2024-11-23T14:16:23.736Z,141841,-0.010884694,-0.07890262,0.025224866
1732371383738,2024-11-23T14:16:23.738Z,141843,-0.010884694,-0.07890262,0.025224866
1732371383755,2024-11-23T14:16:23.755Z,141860,-0.010395975,-0.08373116,0.029146295
1732371383760,2024-11-23T14:16:23.760Z,141865,-0.010395975,-0.08373116,0.029146295
1732371383776,2024-11-23T14:16:23.776Z,141881,-0.011003409,-0.067372344,0.0010802277
1732371383778,2024-11-23T14:16:23.778Z,141883,-0.011003409,-0.067372344,0.0010802277
1732371383796,2024-11-23T14:16:23.796Z,141901,-0.0023981286,-0.086065106,0.011750441
1732371383798,2024-11-23T14:16:23.798Z,141903,-0.0023981286,-0.086065106,0.011750441
1732371383813,2024-11-23T14:16:23.813Z,141918,-0.020934686,-0.091198035,0.0075058946
1732371383815,2024-11-23T14:16:23.815Z,141920,-0.020934686,-0.091198035,0.0075058946
1732371383833,2024-11-23T14:16:23.833Z,141938,-0.011998229,-0.08143174,-0.002753095
1732371383836,2024-11-23T14:16:23.836Z,141941,-0.011998229,-0.08143174,-0.002753095
1732371383854,2024-11-23T14:16:23.854Z,141959,-0.015196122,-0.08897067,0.03607239
1732371383856,2024-11-23T14:16:23.856Z,141961,-0.015196122,-0.08897067,0.03607239
1732371383988,2024-11-23T14:16:23.988Z,142093,-0.005612239,-0.09411712,0.043632984
1732371383993,2024-11-23T14:16:23.993Z,142098,-0.005612239,-0.09411712,0.043632984
1732371384021,2024-11-23T14:16:24.021Z,142126,-0.02408984,-0.08808368,0.0073803114
1732371384024,2024-11-23T14:16:24.024Z,142129,-0.02408984,-0.08808368,0.0073803114
1732371384069,2024-11-23T14:16:24.069Z,142174,0.021098815,-0.105807945,0.009180342
1732371384072,2024-11-23T14:16:24.072Z,142177,0.021098815,-0.105807945,0.009180342
1732371384098,2024-11-23T14:16:24.098Z,142203,0.045369998,-0.12086753,-0.0043803654
1732371384101,2024-11-23T14:16:24.101Z,142206,0.045369998,-0.12086753,-0.0043803654
1732371384125,2024-11-23T14:16:24.125Z,142230,0.016922852,-0.10870418,0.010086545
1732371384128,2024-11-23T14:16:24.128Z,142233,0.016922852,-0.10870418,0.010086545
1732371384150,2024-11-23T14:16:24.150Z,142255,0.0010705758,-0.1153285,-0.030763026
1732371384153,2024-11-23T14:16:24.153Z,142258,0.0010705758,-0.1153285,-0.030763026
1732371384171,2024-11-23T14:16:24.171Z,142276,0.027186498,-0.09682304,0.01879413
1732371384173,2024-11-23T14:16:24.173Z,142278,0.027186498,-0.09682304,0.01879413
1732371384189,2024-11-23T14:16:24.189Z,142294,0.047207322,-0.10380522,0.016781783
1732371384191,2024-11-23T14:16:24.191Z,142296,0.047207322,-0.10380522,0.016781783
1732371384207,2024-11-23T14:16:24.207Z,142312,0.07557429,-0.025488723,0.016282745
1732371384209,2024-11-23T14:16:24.209Z,142314,0.07557429,-0.025488723,0.016282745
1732371384224,2024-11-23T14:16:24.224Z,142329,0.07069437,0.0051503363,-0.016326573
1732371384225,2024-11-23T14:16:24.225Z,142330,0.07069437,0.0051503363,-0.016326573
1732371384261,2024-11-23T14:16:24.261Z,142366,0.08607826,0.04181778,-0.023958117
1732371384268,2024-11-23T14:16:24.268Z,142373,0.08607826,0.04181778,-0.023958117
1732371384308,2024-11-23T14:16:24.308Z,142413,0.10624522,0.043646526,0.021491867
1732371384311,2024-11-23T14:16:24.311Z,142416,0.10624522,0.043646526,0.021491867
1732371384336,2024-11-23T14:16:24.336Z,142441,0.09390188,-0.004062329,0.038733035
1732371384339,2024-11-23T14:16:24.339Z,142444,0.09390188,-0.004062329,0.038733035
1732371384362,2024-11-23T14:16:24.362Z,142467,0.066297315,-0.036641773,-0.017070882
1732371384365,2024-11-23T14:16:24.365Z,142470,0.066297315,-0.036641773,-0.017070882
1732371384390,2024-11-23T14:16:24.390Z,142495,0.030778926,0.020110924,-0.039262526
1732371384393,2024-11-23T14:16:24.393Z,142498,0.030778926,0.020110924,-0.039262526
1732371384407,2024-11-23T14:16:24.407Z,142512,0.07922185,0.037180524,-0.03328796
1732371384409,2024-11-23T14:16:24.409Z,142514,0.07922185,0.037180524,-0.03328796
1732371384426,2024-11-23T14:16:24.426Z,142531,0.08098175,0.043945074,-0.06044537
1732371384428,2024-11-23T14:16:24.428Z,142533,0.08098175,0.043945074,-0.06044537
1732371384445,2024-11-23T14:16:24.445Z,142550,0.077507764,0.073073395,-0.022187583
1732371384447,2024-11-23T14:16:24.447Z,142552,0.077507764,0.073073395,-0.022187583
1732371384462,2024-11-23T14:16:24.462Z,142567,0.06470396,0.060428172,0.013382087
1732371384465,2024-11-23T14:16:24.465Z,142570,0.06470396,0.060428172,0.013382087
1732371384480,2024-11-23T14:16:24.480Z,142585,0.061667014,0.045077037,-0.009308478
1732371384483,2024-11-23T14:16:24.483Z,142588,0.061667014,0.045077037,-0.009308478
1732371384499,2024-11-23T14:16:24.499Z,142604,0.06509699,0.056990273,-0.023353845
1732371384501,2024-11-23T14:16:24.501Z,142606,0.06509699,0.056990273,-0.023353845
1732371384520,2024-11-23T14:16:24.520Z,142625,0.020721275,0.09545058,-0.016178215
1732371384522,2024-11-23T14:16:24.522Z,142627,0.020721275,0.09545058,-0.016178215
1732371384538,2024-11-23T14:16:24.538Z,142643,0.036715705,0.09368826,-0.05449267
1732371384540,2024-11-23T14:16:24.540Z,142645,0.036715705,0.09368826,-0.05449267
1732371384556,2024-11-23T14:16:24.556Z,142661,0.05458412,0.11926591,-0.01637429
1732371384558,2024-11-23T14:16:24.558Z,142663,0.05458412,0.11926591,-0.01637429
1732371384573,2024-11-23T14:16:24.573Z,142678,0.06008314,0.15169151,-0.08669355
1732371384575,2024-11-23T14:16:24.575Z,142680,0.06008314,0.15169151,-0.08669355
1732371384591,2024-11-23T14:16:24.591Z,142696,0.009691926,0.14302906,-0.041815545
1732371384593,2024-11-23T14:16:24.593Z,142698,0.009691926,0.14302906,-0.041815545
1732371384607,2024-11-23T14:16:24.607Z,142712,0.006563054,0.111447535,-0.037009053
1732371384609,2024-11-23T14:16:24.609Z,142714,0.006563054,0.111447535,-0.037009053
1732371384641,2024-11-23T14:16:24.641Z,142746,0.04658975,0.07610995,-0.0021377478
1732371384646,2024-11-23T14:16:24.646Z,142751,0.04658975,0.07610995,-0.0021377478
1732371384685,2024-11-23T14:16:24.685Z,142790,0.035912756,0.056328792,-0.068895146
1732371384687,2024-11-23T14:16:24.687Z,142792,0.035912756,0.056328792,-0.068895146
1732371384706,2024-11-23T14:16:24.706Z,142811,0.02546536,0.067641035,-0.1159198
1732371384709,2024-11-23T14:16:24.709Z,142814,0.02546536,0.067641035,-0.1159198
1732371384726,2024-11-23T14:16:24.726Z,142831,0.074083894,0.021771915,3.094787E-4
1732371384728,2024-11-23T14:16:24.728Z,142833,0.074083894,0.021771915,3.094787E-4
1732371384744,2024-11-23T14:16:24.744Z,142849,0.061833087,0.06798296,0.02328887
1732371384746,2024-11-23T14:16:24.746Z,142851,0.061833087,0.06798296,0.02328887
1732371384764,2024-11-23T14:16:24.764Z,142869,0.027980039,0.16072689,0.041958753
1732371384766,2024-11-23T14:16:24.766Z,142871,0.027980039,0.16072689,0.041958753
1732371384793,2024-11-23T14:16:24.793Z,142898,-0.026465528,0.14971514,-0.1648845
1732371384797,2024-11-23T14:16:24.797Z,142902,-0.026465528,0.14971514,-0.1648845
1732371384837,2024-11-23T14:16:24.837Z,142942,0.08567157,0.10002453,-0.0388959
1732371384842,2024-11-23T14:16:24.842Z,142947,0.08567157,0.10002453,-0.0388959
1732371384872,2024-11-23T14:16:24.872Z,142977,0.17926791,0.102947794,-0.0026647577
1732371384874,2024-11-23T14:16:24.874Z,142979,0.17926791,0.102947794,-0.0026647577
1732371384893,2024-11-23T14:16:24.893Z,142998,0.10031146,0.11085155,0.011140127
1732371384895,2024-11-23T14:16:24.895Z,143000,0.10031146,0.11085155,0.011140127
1732371384911,2024-11-23T14:16:24.911Z,143016,0.06868808,0.28389177,-0.19542605
1732371384914,2024-11-23T14:16:24.914Z,143019,0.06868808,0.28389177,-0.19542605
1732371384943,2024-11-23T14:16:24.943Z,143048,0.017933037,0.22145255,-0.12789927
1732371384947,2024-11-23T14:16:24.947Z,143052,0.017933037,0.22145255,-0.12789927
1732371384972,2024-11-23T14:16:24.972Z,143077,-0.044692717,0.2710468,-0.1769921
1732371384975,2024-11-23T14:16:24.975Z,143080,-0.044692717,0.2710468,-0.1769921
1732371384991,2024-11-23T14:16:24.991Z,143096,-0.083393954,0.13557513,-0.15079807
1732371384993,2024-11-23T14:16:24.993Z,143098,-0.083393954,0.13557513,-0.15079807
1732371385009,2024-11-23T14:16:25.009Z,143114,0.045306545,0.06607632,-0.07112331
1732371385011,2024-11-23T14:16:25.011Z,143116,0.045306545,0.06607632,-0.07112331
1732371385026,2024-11-23T14:16:25.026Z,143131,0.037644543,0.015159849,0.0045468654
1732371385028,2024-11-23T14:16:25.028Z,143133,0.037644543,0.015159849,0.0045468654
1732371385042,2024-11-23T14:16:25.042Z,143147,-0.11393809,-0.06443692,-0.07378134
1732371385043,2024-11-23T14:16:25.043Z,143148,-0.11393809,-0.06443692,-0.07378134
1732371385058,2024-11-23T14:16:25.058Z,143163,-0.100270614,-0.057560436,-0.087075956
1732371385060,2024-11-23T14:16:25.060Z,143165,-0.100270614,-0.057560436,-0.087075956
1732371385099,2024-11-23T14:16:25.099Z,143204,-0.103387594,-0.0332842,-0.13466373
1732371385101,2024-11-23T14:16:25.101Z,143206,-0.103387594,-0.0332842,-0.13466373
1732371385120,2024-11-23T14:16:25.120Z,143225,-0.051931154,0.0076309307,-0.07359298
1732371385122,2024-11-23T14:16:25.122Z,143227,-0.051931154,0.0076309307,-0.07359298
1732371385138,2024-11-23T14:16:25.138Z,143243,-0.044693835,0.025809446,-0.17832704
1732371385140,2024-11-23T14:16:25.140Z,143245,-0.044693835,0.025809446,-0.17832704
1732371385155,2024-11-23T14:16:25.155Z,143260,0.032666456,-0.024637125,-0.11624347
1732371385158,2024-11-23T14:16:25.158Z,143263,0.032666456,-0.024637125,-0.11624347
1732371385187,2024-11-23T14:16:25.187Z,143292,0.01684367,0.023478225,-0.05476348
1732371385192,2024-11-23T14:16:25.192Z,143297,0.01684367,0.023478225,-0.05476348
1732371385231,2024-11-23T14:16:25.231Z,143336,-0.06615786,-0.015963018,-0.055028968
1732371385236,2024-11-23T14:16:25.236Z,143341,-0.06615786,-0.015963018,-0.055028968
1732371385259,2024-11-23T14:16:25.259Z,143364,-0.12233709,-0.0071082246,-0.06113908
1732371385262,2024-11-23T14:16:25.262Z,143367,-0.12233709,-0.0071082246,-0.06113908
1732371385280,2024-11-23T14:16:25.280Z,143385,0.15817253,0.110999465,-0.07416859
1732371385282,2024-11-23T14:16:25.282Z,143387,0.15817253,0.110999465,-0.07416859
1732371385300,2024-11-23T14:16:25.300Z,143405,0.09220423,0.10207835,-0.0781877
1732371385302,2024-11-23T14:16:25.302Z,143407,0.09220423,0.10207835,-0.0781877
1732371385318,2024-11-23T14:16:25.318Z,143423,0.14143477,0.09926614,-0.03840531
1732371385320,2024-11-23T14:16:25.320Z,143425,0.14143477,0.09926614,-0.03840531
1732371385360,2024-11-23T14:16:25.360Z,143465,0.13724339,0.15030374,-0.09759455
1732371385366,2024-11-23T14:16:25.366Z,143471,0.13724339,0.15030374,-0.09759455
1732371385402,2024-11-23T14:16:25.402Z,143507,0.19019623,0.002998147,-0.03657222
1732371385405,2024-11-23T14:16:25.405Z,143510,0.19019623,0.002998147,-0.03657222
1732371385441,2024-11-23T14:16:25.441Z,143546,0.11746984,0.093225114,0.001409326
1732371385447,2024-11-23T14:16:25.447Z,143552,0.11746984,0.093225114,0.001409326
1732371385474,2024-11-23T14:16:25.474Z,143579,0.055387534,0.0995042,0.053787466
1732371385476,2024-11-23T14:16:25.476Z,143581,0.055387534,0.0995042,0.053787466
1732371385501,2024-11-23T14:16:25.501Z,143606,0.14203031,0.051502585,0.07359136
1732371385503,2024-11-23T14:16:25.503Z,143608,0.14203031,0.051502585,0.07359136
1732371385531,2024-11-23T14:16:25.531Z,143636,0.13033593,0.1116906,0.0012237531
1732371385536,2024-11-23T14:16:25.536Z,143641,0.13033593,0.1116906,0.0012237531
1732371385568,2024-11-23T14:16:25.568Z,143673,0.14532764,0.042452518,-0.05828261
1732371385571,2024-11-23T14:16:25.571Z,143676,0.14532764,0.042452518,-0.05828261
1732371385592,2024-11-23T14:16:25.592Z,143697,0.12952635,0.025587235,-0.045019798
1732371385595,2024-11-23T14:16:25.595Z,143700,0.12952635,0.025587235,-0.045019798
1732371385616,2024-11-23T14:16:25.616Z,143721,-0.02428397,-0.010980434,0.12777272
1732371385620,2024-11-23T14:16:25.620Z,143725,-0.02428397,-0.010980434,0.12777272
1732371385655,2024-11-23T14:16:25.655Z,143760,-0.07872587,0.07155506,0.081711955
1732371385660,2024-11-23T14:16:25.660Z,143765,-0.07872587,0.07155506,0.081711955
1732371385697,2024-11-23T14:16:25.697Z,143802,0.03991338,0.0819559,0.013625207
1732371385700,2024-11-23T14:16:25.700Z,143805,0.03991338,0.0819559,0.013625207
1732371385723,2024-11-23T14:16:25.723Z,143828,0.064336,-0.041062847,-0.08507752
1732371385726,2024-11-23T14:16:25.726Z,143831,0.064336,-0.041062847,-0.08507752
1732371385747,2024-11-23T14:16:25.747Z,143852,0.046215713,-0.038824983,-0.039382655
1732371385750,2024-11-23T14:16:25.750Z,143855,0.046215713,-0.038824983,-0.039382655
1732371385772,2024-11-23T14:16:25.772Z,143877,0.006478351,-0.019069498,-0.010606759
1732371385776,2024-11-23T14:16:25.776Z,143881,0.006478351,-0.019069498,-0.010606759
1732371385797,2024-11-23T14:16:25.797Z,143902,0.081623845,-0.08376772,0.09330889
1732371385800,2024-11-23T14:16:25.800Z,143905,0.081623845,-0.08376772,0.09330889
1732371385825,2024-11-23T14:16:25.825Z,143930,-0.02241691,-0.013829695,0.027309358
1732371385827,2024-11-23T14:16:25.827Z,143932,-0.02241691,-0.013829695,0.027309358
1732371385846,2024-11-23T14:16:25.846Z,143951,-0.019748677,-0.014071258,0.09248709
1732371385848,2024-11-23T14:16:25.848Z,143953,-0.019748677,-0.014071258,0.09248709
1732371385866,2024-11-23T14:16:25.866Z,143971,0.024937669,-0.054406498,0.023181789
1732371385869,2024-11-23T14:16:25.869Z,143974,0.024937669,-0.054406498,0.023181789
1732371385886,2024-11-23T14:16:25.886Z,143991,0.05770344,-0.062859364,-0.02121713
1732371385888,2024-11-23T14:16:25.888Z,143993,0.05770344,-0.062859364,-0.02121713
1732371385904,2024-11-23T14:16:25.904Z,144009,0.05663313,-0.0029558444,-0.03455069
1732371385906,2024-11-23T14:16:25.906Z,144011,0.05663313,-0.0029558444,-0.03455069
1732371385932,2024-11-23T14:16:25.932Z,144037,0.01898217,-0.04857115,-0.03551506
1732371385937,2024-11-23T14:16:25.937Z,144042,0.01898217,-0.04857115,-0.03551506
1732371385964,2024-11-23T14:16:25.964Z,144069,0.061508935,-0.07931008,0.04678359
1732371385967,2024-11-23T14:16:25.967Z,144072,0.061508935,-0.07931008,0.04678359
1732371385984,2024-11-23T14:16:25.984Z,144089,0.06922447,-0.12994872,0.0029850672
1732371385987,2024-11-23T14:16:25.987Z,144092,0.06922447,-0.12994872,0.0029850672
1732371386006,2024-11-23T14:16:26.006Z,144111,0.02990783,-0.13320409,0.06611939
1732371386008,2024-11-23T14:16:26.008Z,144113,0.02990783,-0.13320409,0.06611939
1732371386025,2024-11-23T14:16:26.025Z,144130,0.038774464,-0.11690916,0.17713092
1732371386028,2024-11-23T14:16:26.028Z,144133,0.038774464,-0.11690916,0.17713092
1732371386049,2024-11-23T14:16:26.049Z,144154,0.03348713,-0.123714164,0.15738793
1732371386052,2024-11-23T14:16:26.052Z,144157,0.03348713,-0.123714164,0.15738793
1732371386068,2024-11-23T14:16:26.068Z,144173,-0.037738822,-0.11458776,0.008655423
1732371386070,2024-11-23T14:16:26.070Z,144175,-0.037738822,-0.11458776,0.008655423
1732371386086,2024-11-23T14:16:26.086Z,144191,-0.034609344,-0.14689335,-0.082712404
1732371386088,2024-11-23T14:16:26.088Z,144193,-0.034609344,-0.14689335,-0.082712404
1732371386101,2024-11-23T14:16:26.101Z,144206,0.049101148,-0.12149254,-0.06970173
1732371386103,2024-11-23T14:16:26.103Z,144208,0.049101148,-0.12149254,-0.06970173
1732371386118,2024-11-23T14:16:26.118Z,144223,0.019654736,-0.11455168,0.09867585
1732371386121,2024-11-23T14:16:26.121Z,144226,0.019654736,-0.11455168,0.09867585
1732371386141,2024-11-23T14:16:26.141Z,144246,-0.018862337,-0.107331716,-0.0012567565
1732371386143,2024-11-23T14:16:26.143Z,144248,-0.018862337,-0.107331716,-0.0012567565
1732371386159,2024-11-23T14:16:26.159Z,144264,0.025588961,-0.08062672,-0.041770276
1732371386161,2024-11-23T14:16:26.161Z,144266,0.025588961,-0.08062672,-0.041770276
1732371386176,2024-11-23T14:16:26.176Z,144281,0.0018915653,-0.11897743,-0.034901425
1732371386178,2024-11-23T14:16:26.178Z,144283,0.0018915653,-0.11897743,-0.034901425
1732371386194,2024-11-23T14:16:26.194Z,144299,-0.0030212433,-0.1292677,0.010687536
1732371386197,2024-11-23T14:16:26.197Z,144302,-0.0030212433,-0.1292677,0.010687536
1732371386212,2024-11-23T14:16:26.212Z,144317,-0.013883376,-0.11875084,-2.2983282E-4
1732371386214,2024-11-23T14:16:26.214Z,144319,-0.013883376,-0.11875084,-2.2983282E-4
1732371386232,2024-11-23T14:16:26.232Z,144337,-0.012652171,-0.08210868,0.04196375
1732371386235,2024-11-23T14:16:26.235Z,144340,-0.012652171,-0.08210868,0.04196375
1732371386254,2024-11-23T14:16:26.254Z,144359,-0.010025316,-0.104260735,0.040052943
1732371386256,2024-11-23T14:16:26.256Z,144361,-0.010025316,-0.104260735,0.040052943
1732371386270,2024-11-23T14:16:26.270Z,144375,-0.030812014,-0.050866682,-0.034114413
1732371386272,2024-11-23T14:16:26.272Z,144377,-0.030812014,-0.050866682,-0.034114413
1732371386296,2024-11-23T14:16:26.296Z,144401,0.0057131695,-0.108534284,-0.035541475
1732371386300,2024-11-23T14:16:26.300Z,144405,0.0057131695,-0.108534284,-0.035541475
1732371386336,2024-11-23T14:16:26.336Z,144441,0.004802104,-0.07175996,-0.053290363
1732371386342,2024-11-23T14:16:26.342Z,144447,0.004802104,-0.07175996,-0.053290363
1732371386372,2024-11-23T14:16:26.372Z,144477,-0.018091394,-0.091027945,-0.009342308
1732371386375,2024-11-23T14:16:26.375Z,144480,-0.018091394,-0.091027945,-0.009342308
1732371386399,2024-11-23T14:16:26.399Z,144504,0.0019373447,-0.11929455,0.03292263
1732371386402,2024-11-23T14:16:26.402Z,144507,0.0019373447,-0.11929455,0.03292263
1732371386424,2024-11-23T14:16:26.424Z,144529,-0.04847885,-0.10315211,0.024064992
1732371386427,2024-11-23T14:16:26.427Z,144532,-0.04847885,-0.10315211,0.024064992
1732371386448,2024-11-23T14:16:26.448Z,144553,-0.05037209,-0.13528052,0.058211315
1732371386450,2024-11-23T14:16:26.450Z,144555,-0.05037209,-0.13528052,0.058211315
1732371386468,2024-11-23T14:16:26.468Z,144573,-0.08389879,-0.2148482,0.068176314
1732371386471,2024-11-23T14:16:26.471Z,144576,-0.08389879,-0.2148482,0.068176314
1732371386487,2024-11-23T14:16:26.487Z,144592,-0.08321653,-0.25991133,0.06304718
1732371386489,2024-11-23T14:16:26.489Z,144594,-0.08321653,-0.25991133,0.06304718
1732371386515,2024-11-23T14:16:26.515Z,144620,-0.11900132,-0.2788269,0.029958569
1732371386521,2024-11-23T14:16:26.521Z,144626,-0.11900132,-0.2788269,0.029958569
1732371386559,2024-11-23T14:16:26.559Z,144664,-0.09803216,-0.27565798,0.10629367
1732371386564,2024-11-23T14:16:26.564Z,144669,-0.09803216,-0.27565798,0.10629367
1732371386588,2024-11-23T14:16:26.588Z,144693,-0.13172145,-0.26738358,0.08805477
1732371386591,2024-11-23T14:16:26.591Z,144696,-0.13172145,-0.26738358,0.08805477
1732371386608,2024-11-23T14:16:26.608Z,144713,-0.105712414,-0.22999318,0.10091084
1732371386610,2024-11-23T14:16:26.610Z,144715,-0.105712414,-0.22999318,0.10091084
1732371386626,2024-11-23T14:16:26.626Z,144731,0.022235835,-0.15106791,-0.007512459
1732371386628,2024-11-23T14:16:26.628Z,144733,0.022235835,-0.15106791,-0.007512459
1732371386658,2024-11-23T14:16:26.658Z,144763,0.009302486,-0.088148735,0.08787736
1732371386663,2024-11-23T14:16:26.663Z,144768,0.009302486,-0.088148735,0.08787736
1732371386700,2024-11-23T14:16:26.700Z,144805,0.057365783,0.025043232,0.04286451
1732371386703,2024-11-23T14:16:26.703Z,144808,0.057365783,0.025043232,0.04286451
1732371386727,2024-11-23T14:16:26.727Z,144832,0.039016914,0.082365505,0.035331093
1732371386731,2024-11-23T14:16:26.731Z,144836,0.039016914,0.082365505,0.035331093
1732371386753,2024-11-23T14:16:26.753Z,144858,0.041514114,0.104592055,-0.009444346
1732371386756,2024-11-23T14:16:26.756Z,144861,0.041514114,0.104592055,-0.009444346
1732371386778,2024-11-23T14:16:26.778Z,144883,0.05252163,0.16219684,-0.023258347
1732371386781,2024-11-23T14:16:26.781Z,144886,0.05252163,0.16219684,-0.023258347
1732371386798,2024-11-23T14:16:26.798Z,144903,0.089789145,0.16040641,-0.035759795
1732371386801,2024-11-23T14:16:26.801Z,144906,0.089789145,0.16040641,-0.035759795
1732371386816,2024-11-23T14:16:26.816Z,144921,0.11886628,0.1596117,-0.047590006
1732371386818,2024-11-23T14:16:26.818Z,144923,0.11886628,0.1596117,-0.047590006
1732371386835,2024-11-23T14:16:26.835Z,144940,0.11344649,0.1964487,-0.043835282
1732371386838,2024-11-23T14:16:26.838Z,144943,0.11344649,0.1964487,-0.043835282
1732371386852,2024-11-23T14:16:26.852Z,144957,0.12986523,0.19596626,-0.025047243
1732371386854,2024-11-23T14:16:26.854Z,144959,0.12986523,0.19596626,-0.025047243
1732371386872,2024-11-23T14:16:26.872Z,144977,0.0796345,0.20003374,0.03403106
1732371386874,2024-11-23T14:16:26.874Z,144979,0.0796345,0.20003374,0.03403106
1732371386888,2024-11-23T14:16:26.888Z,144993,0.0543005,0.10933921,-0.007913848
1732371386890,2024-11-23T14:16:26.890Z,144995,0.0543005,0.10933921,-0.007913848
1732371386905,2024-11-23T14:16:26.905Z,145010,0.037765007,0.096172445,-0.0033259934
1732371386907,2024-11-23T14:16:26.907Z,145012,0.037765007,0.096172445,-0.0033259934
1732371386932,2024-11-23T14:16:26.932Z,145037,-0.0437163,-0.06548311,0.014658841
1732371386937,2024-11-23T14:16:26.937Z,145042,-0.0437163,-0.06548311,0.014658841
1732371386966,2024-11-23T14:16:26.966Z,145071,-0.09949645,-0.10040651,0.028247362
1732371386969,2024-11-23T14:16:26.969Z,145074,-0.09949645,-0.10040651,0.028247362
1732371386990,2024-11-23T14:16:26.990Z,145095,-0.10738849,-0.09226921,0.052911498
1732371386994,2024-11-23T14:16:26.994Z,145099,-0.10738849,-0.09226921,0.052911498
1732371387014,2024-11-23T14:16:27.014Z,145119,-0.072582,-0.111756876,0.07816442
1732371387017,2024-11-23T14:16:27.017Z,145122,-0.072582,-0.111756876,0.07816442
1732371387033,2024-11-23T14:16:27.033Z,145138,-0.009952477,-0.015053557,-0.105984084
1732371387035,2024-11-23T14:16:27.035Z,145140,-0.009952477,-0.015053557,-0.105984084
1732371387052,2024-11-23T14:16:27.052Z,145157,3.6995462E-4,0.0109896725,-0.0990757
1732371387055,2024-11-23T14:16:27.055Z,145160,3.6995462E-4,0.0109896725,-0.0990757
1732371387077,2024-11-23T14:16:27.077Z,145182,0.002970164,0.05435758,-0.082290396
1732371387080,2024-11-23T14:16:27.080Z,145185,0.002970164,0.05435758,-0.082290396
1732371387097,2024-11-23T14:16:27.097Z,145202,0.074789695,0.11981366,-0.06461822
1732371387099,2024-11-23T14:16:27.099Z,145204,0.074789695,0.11981366,-0.06461822
1732371387115,2024-11-23T14:16:27.115Z,145220,0.030683575,0.13064142,-0.05366314
1732371387117,2024-11-23T14:16:27.117Z,145222,0.030683575,0.13064142,-0.05366314
1732371387133,2024-11-23T14:16:27.133Z,145238,0.049112357,0.1094133,-0.06394666
1732371387135,2024-11-23T14:16:27.135Z,145240,0.049112357,0.1094133,-0.06394666
1732371387149,2024-11-23T14:16:27.149Z,145254,0.016428396,0.102154054,-0.06519881
1732371387152,2024-11-23T14:16:27.152Z,145257,0.016428396,0.102154054,-0.06519881
1732371387170,2024-11-23T14:16:27.170Z,145275,0.03761792,0.094939634,-0.03829887
1732371387172,2024-11-23T14:16:27.172Z,145277,0.03761792,0.094939634,-0.03829887
1732371387186,2024-11-23T14:16:27.186Z,145291,0.047794722,0.1028838,-0.017483072
1732371387188,2024-11-23T14:16:27.188Z,145293,0.047794722,0.1028838,-0.017483072
1732371387202,2024-11-23T14:16:27.202Z,145307,-0.0060760616,0.052877277,0.006353947
1732371387205,2024-11-23T14:16:27.205Z,145310,-0.0060760616,0.052877277,0.006353947
1732371387241,2024-11-23T14:16:27.241Z,145346,0.018705817,0.031574972,0.011376208
1732371387247,2024-11-23T14:16:27.247Z,145352,0.018705817,0.031574972,0.011376208
1732371387285,2024-11-23T14:16:27.285Z,145390,0.036348958,0.014998515,-0.010553151
1732371387290,2024-11-23T14:16:27.290Z,145395,0.036348958,0.014998515,-0.010553151
1732371387317,2024-11-23T14:16:27.317Z,145422,-0.031576455,-0.038632236,-0.031240597
1732371387321,2024-11-23T14:16:27.321Z,145426,-0.031576455,-0.038632236,-0.031240597
1732371387344,2024-11-23T14:16:27.344Z,145449,0.004249968,-0.058340654,-0.026711881
1732371387347,2024-11-23T14:16:27.347Z,145452,0.004249968,-0.058340654,-0.026711881
1732371387366,2024-11-23T14:16:27.366Z,145471,-0.042211004,-0.06881462,-0.04989831
1732371387368,2024-11-23T14:16:27.368Z,145473,-0.042211004,-0.06881462,-0.04989831
1732371387386,2024-11-23T14:16:27.386Z,145491,-0.0415831,-0.10041692,0.008684281
1732371387389,2024-11-23T14:16:27.389Z,145494,-0.0415831,-0.10041692,0.008684281
1732371387407,2024-11-23T14:16:27.407Z,145512,-0.07584306,-0.11183147,0.042578574
1732371387409,2024-11-23T14:16:27.409Z,145514,-0.07584306,-0.11183147,0.042578574
1732371387424,2024-11-23T14:16:27.424Z,145529,-0.1214075,-0.14093684,-0.0075499113
1732371387426,2024-11-23T14:16:27.426Z,145531,-0.1214075,-0.14093684,-0.0075499113
1732371387458,2024-11-23T14:16:27.458Z,145563,-0.13516924,-0.22246514,0.03000256
1732371387463,2024-11-23T14:16:27.463Z,145568,-0.13516924,-0.22246514,0.03000256
1732371387492,2024-11-23T14:16:27.492Z,145597,-0.12796244,-0.24028607,0.012280344
1732371387495,2024-11-23T14:16:27.495Z,145600,-0.12796244,-0.24028607,0.012280344
1732371387516,2024-11-23T14:16:27.516Z,145621,-0.111510165,-0.26557523,0.010518933
1732371387519,2024-11-23T14:16:27.519Z,145624,-0.111510165,-0.26557523,0.010518933
1732371387536,2024-11-23T14:16:27.536Z,145641,-0.18040603,-0.2799822,0.04117614
1732371387538,2024-11-23T14:16:27.538Z,145643,-0.18040603,-0.2799822,0.04117614
1732371387553,2024-11-23T14:16:27.553Z,145658,-0.1585847,-0.28625935,0.049185704
1732371387555,2024-11-23T14:16:27.555Z,145660,-0.1585847,-0.28625935,0.049185704
1732371387576,2024-11-23T14:16:27.576Z,145681,-0.11262367,-0.28785685,0.034716584
1732371387578,2024-11-23T14:16:27.578Z,145683,-0.11262367,-0.28785685,0.034716584
1732371387598,2024-11-23T14:16:27.598Z,145703,-0.15901963,-0.28408858,0.023206916
1732371387601,2024-11-23T14:16:27.601Z,145706,-0.15901963,-0.28408858,0.023206916
1732371387633,2024-11-23T14:16:27.633Z,145738,-0.09746509,-0.1479272,0.0684957
1732371387638,2024-11-23T14:16:27.638Z,145743,-0.09746509,-0.1479272,0.0684957
1732371387664,2024-11-23T14:16:27.664Z,145769,-0.0786337,-0.14653412,0.02158633
1732371387666,2024-11-23T14:16:27.666Z,145771,-0.0786337,-0.14653412,0.02158633
1732371387685,2024-11-23T14:16:27.685Z,145790,-0.076319546,-0.113760084,0.035334773
1732371387687,2024-11-23T14:16:27.687Z,145792,-0.076319546,-0.113760084,0.035334773
1732371387724,2024-11-23T14:16:27.724Z,145829,-0.043841287,-0.08402115,0.1269848
1732371387730,2024-11-23T14:16:27.730Z,145835,-0.043841287,-0.08402115,0.1269848
1732371387767,2024-11-23T14:16:27.767Z,145872,0.025559008,-0.039450966,0.015813172
1732371387770,2024-11-23T14:16:27.770Z,145875,0.025559008,-0.039450966,0.015813172
1732371387793,2024-11-23T14:16:27.793Z,145898,0.055013325,-0.022150306,0.05152449
1732371387796,2024-11-23T14:16:27.796Z,145901,0.055013325,-0.022150306,0.05152449
1732371387817,2024-11-23T14:16:27.817Z,145922,0.08308828,-0.0035793965,0.11558557
1732371387819,2024-11-23T14:16:27.819Z,145924,0.08308828,-0.0035793965,0.11558557
1732371387837,2024-11-23T14:16:27.837Z,145942,0.048434563,-0.020599108,0.109655164
1732371387839,2024-11-23T14:16:27.839Z,145944,0.048434563,-0.020599108,0.109655164
1732371387854,2024-11-23T14:16:27.854Z,145959,0.03449527,-0.043626785,0.039643917
1732371387857,2024-11-23T14:16:27.857Z,145962,0.03449527,-0.043626785,0.039643917
1732371387873,2024-11-23T14:16:27.873Z,145978,0.08559929,-0.04705399,0.039739586
1732371387875,2024-11-23T14:16:27.875Z,145980,0.08559929,-0.04705399,0.039739586
1732371387901,2024-11-23T14:16:27.901Z,146006,0.13982373,-0.071373016,-0.019149948
1732371387906,2024-11-23T14:16:27.906Z,146011,0.13982373,-0.071373016,-0.019149948
1732371387928,2024-11-23T14:16:27.928Z,146033,0.041099656,-0.09115855,-0.009911001
1732371387930,2024-11-23T14:16:27.930Z,146035,0.041099656,-0.09115855,-0.009911001
1732371387946,2024-11-23T14:16:27.946Z,146051,-0.0030670958,-0.09526084,-0.009463929
1732371387948,2024-11-23T14:16:27.948Z,146053,-0.0030670958,-0.09526084,-0.009463929
1732371387964,2024-11-23T14:16:27.964Z,146069,0.057448406,-0.08171453,0.009752329
1732371387966,2024-11-23T14:16:27.966Z,146071,0.057448406,-0.08171453,0.009752329
1732371387980,2024-11-23T14:16:27.980Z,146085,4.2011012E-5,-0.09383665,-0.011348456
1732371387982,2024-11-23T14:16:27.982Z,146087,4.2011012E-5,-0.09383665,-0.011348456
1732371387996,2024-11-23T14:16:27.996Z,146101,0.0588001,-0.09916894,-0.020693706
1732371387999,2024-11-23T14:16:27.999Z,146104,0.0588001,-0.09916894,-0.020693706
1732371388019,2024-11-23T14:16:28.019Z,146124,0.037184,-0.049802303,0.04228875
1732371388021,2024-11-23T14:16:28.021Z,146126,0.037184,-0.049802303,0.04228875
1732371388037,2024-11-23T14:16:28.037Z,146142,0.08002789,-0.0038340883,0.0026214703
1732371388039,2024-11-23T14:16:28.039Z,146144,0.08002789,-0.0038340883,0.0026214703
1732371388054,2024-11-23T14:16:28.054Z,146159,0.040320702,-0.007412999,-0.052484147
1732371388057,2024-11-23T14:16:28.057Z,146162,0.040320702,-0.007412999,-0.052484147
1732371388071,2024-11-23T14:16:28.071Z,146176,0.06634485,-0.018951247,-0.013543957
1732371388074,2024-11-23T14:16:28.074Z,146179,0.06634485,-0.018951247,-0.013543957
1732371388094,2024-11-23T14:16:28.094Z,146199,0.070594914,-0.043334458,-0.013652643
1732371388097,2024-11-23T14:16:28.097Z,146202,0.070594914,-0.043334458,-0.013652643
1732371388118,2024-11-23T14:16:28.118Z,146223,0.0766586,-0.028092919,0.06548043
1732371388119,2024-11-23T14:16:28.119Z,146224,0.0766586,-0.028092919,0.06548043
1732371388138,2024-11-23T14:16:28.138Z,146243,0.048769753,-0.0028913692,-0.0033362166
1732371388140,2024-11-23T14:16:28.140Z,146245,0.048769753,-0.0028913692,-0.0033362166
1732371388157,2024-11-23T14:16:28.157Z,146262,0.12942006,-0.006015549,-0.013601066
1732371388159,2024-11-23T14:16:28.159Z,146264,0.12942006,-0.006015549,-0.013601066
1732371388184,2024-11-23T14:16:28.184Z,146289,0.09947901,-0.013131748,-0.06613535
1732371388189,2024-11-23T14:16:28.189Z,146294,0.09947901,-0.013131748,-0.06613535
1732371388225,2024-11-23T14:16:28.225Z,146330,0.07898644,-0.0012572184,0.01789674
1732371388228,2024-11-23T14:16:28.228Z,146333,0.07898644,-0.0012572184,0.01789674
1732371388251,2024-11-23T14:16:28.251Z,146356,0.07726861,0.0278039,0.010096027
1732371388254,2024-11-23T14:16:28.254Z,146359,0.07726861,0.0278039,0.010096027
1732371388275,2024-11-23T14:16:28.275Z,146380,0.06821314,0.10078413,-0.009683076
1732371388277,2024-11-23T14:16:28.277Z,146382,0.06821314,0.10078413,-0.009683076
1732371388296,2024-11-23T14:16:28.296Z,146401,0.12089233,0.1100425,-0.01467874
1732371388298,2024-11-23T14:16:28.298Z,146403,0.12089233,0.1100425,-0.01467874
1732371388315,2024-11-23T14:16:28.315Z,146420,0.10967284,0.08517033,-0.035829633
1732371388317,2024-11-23T14:16:28.317Z,146422,0.10967284,0.08517033,-0.035829633
1732371388330,2024-11-23T14:16:28.330Z,146435,0.11859405,0.062007282,-0.054526538
1732371388332,2024-11-23T14:16:28.332Z,146437,0.11859405,0.062007282,-0.054526538
1732371388346,2024-11-23T14:16:28.346Z,146451,0.13539289,0.04158205,-0.009797513
1732371388348,2024-11-23T14:16:28.348Z,146453,0.13539289,0.04158205,-0.009797513
1732371388362,2024-11-23T14:16:28.362Z,146467,0.080382116,0.042891786,-0.006303609
1732371388364,2024-11-23T14:16:28.364Z,146469,0.080382116,0.042891786,-0.006303609
1732371388378,2024-11-23T14:16:28.378Z,146483,0.09940722,0.12478846,-0.03757208
1732371388381,2024-11-23T14:16:28.381Z,146486,0.09940722,0.12478846,-0.03757208
1732371388396,2024-11-23T14:16:28.396Z,146501,0.082068175,0.08909048,-0.011048702
1732371388398,2024-11-23T14:16:28.398Z,146503,0.082068175,0.08909048,-0.011048702
1732371388413,2024-11-23T14:16:28.413Z,146518,0.13073224,0.12643963,-0.0071084187
1732371388414,2024-11-23T14:16:28.414Z,146519,0.13073224,0.12643963,-0.0071084187
1732371388430,2024-11-23T14:16:28.430Z,146535,0.0050221635,0.14812241,-0.06555521
1732371388432,2024-11-23T14:16:28.432Z,146537,0.0050221635,0.14812241,-0.06555521
1732371388446,2024-11-23T14:16:28.446Z,146551,0.09856693,0.12035066,-0.055900514
1732371388448,2024-11-23T14:16:28.448Z,146553,0.09856693,0.12035066,-0.055900514
1732371388463,2024-11-23T14:16:28.463Z,146568,0.12661241,0.26202372,-0.07805081
1732371388465,2024-11-23T14:16:28.465Z,146570,0.12661241,0.26202372,-0.07805081
1732371388480,2024-11-23T14:16:28.480Z,146585,0.12235446,0.22277924,0.03197048
1732371388482,2024-11-23T14:16:28.482Z,146587,0.12235446,0.22277924,0.03197048
1732371388499,2024-11-23T14:16:28.499Z,146604,0.116862155,0.28530023,-0.118372194
1732371388501,2024-11-23T14:16:28.501Z,146606,0.116862155,0.28530023,-0.118372194
1732371388516,2024-11-23T14:16:28.516Z,146621,0.109867394,0.27787712,-0.11887977
1732371388517,2024-11-23T14:16:28.517Z,146622,0.109867394,0.27787712,-0.11887977
1732371388533,2024-11-23T14:16:28.533Z,146638,0.097852714,0.24053508,-0.08491035
1732371388535,2024-11-23T14:16:28.535Z,146640,0.097852714,0.24053508,-0.08491035
1732371388557,2024-11-23T14:16:28.557Z,146662,-0.03148543,-0.029573807,-0.034922358
1732371388561,2024-11-23T14:16:28.561Z,146666,-0.03148543,-0.029573807,-0.034922358
1732371388582,2024-11-23T14:16:28.582Z,146687,-0.109563604,-0.01172292,-0.12362637
1732371388587,2024-11-23T14:16:28.587Z,146692,-0.109563604,-0.01172292,-0.12362637
1732371388606,2024-11-23T14:16:28.606Z,146711,-0.084930345,0.027739717,-0.12832654
1732371388608,2024-11-23T14:16:28.608Z,146713,-0.084930345,0.027739717,-0.12832654
1732371388626,2024-11-23T14:16:28.626Z,146731,0.08371715,0.06698121,-0.142231
1732371388628,2024-11-23T14:16:28.628Z,146733,0.08371715,0.06698121,-0.142231
1732371388654,2024-11-23T14:16:28.654Z,146759,0.017113313,0.0314644,-0.14822723
1732371388658,2024-11-23T14:16:28.658Z,146763,0.017113313,0.0314644,-0.14822723
1732371388693,2024-11-23T14:16:28.693Z,146798,0.032995176,-0.052936696,0.05513271
1732371388698,2024-11-23T14:16:28.698Z,146803,0.032995176,-0.052936696,0.05513271
1732371388738,2024-11-23T14:16:28.738Z,146843,-0.030040719,-0.0018206717,-0.002369149
1732371388743,2024-11-23T14:16:28.743Z,146848,-0.030040719,-0.0018206717,-0.002369149
1732371388768,2024-11-23T14:16:28.768Z,146873,-0.09238645,0.025715407,-0.03681305
1732371388771,2024-11-23T14:16:28.771Z,146876,-0.09238645,0.025715407,-0.03681305
1732371388793,2024-11-23T14:16:28.793Z,146898,-0.032932088,-0.008442755,0.017147593
1732371388796,2024-11-23T14:16:28.796Z,146901,-0.032932088,-0.008442755,0.017147593
1732371388817,2024-11-23T14:16:28.817Z,146922,-0.014651778,0.03134702,-0.037700374
1732371388820,2024-11-23T14:16:28.820Z,146925,-0.014651778,0.03134702,-0.037700374
1732371388837,2024-11-23T14:16:28.837Z,146942,0.01106589,0.036912024,-0.093539685
1732371388840,2024-11-23T14:16:28.840Z,146945,0.01106589,0.036912024,-0.093539685
1732371388855,2024-11-23T14:16:28.855Z,146960,-0.10854924,-0.006925399,-0.077286124
1732371388858,2024-11-23T14:16:28.858Z,146963,-0.10854924,-0.006925399,-0.077286124
1732371388875,2024-11-23T14:16:28.875Z,146980,-0.0675124,-0.023207389,-0.10680688
1732371388878,2024-11-23T14:16:28.878Z,146983,-0.0675124,-0.023207389,-0.10680688
1732371388893,2024-11-23T14:16:28.893Z,146998,-0.052804027,-0.0059433915,-0.1192598
1732371388896,2024-11-23T14:16:28.896Z,147001,-0.052804027,-0.0059433915,-0.1192598
1732371388909,2024-11-23T14:16:28.909Z,147014,-0.089048445,-0.02218658,-0.040695727
1732371388911,2024-11-23T14:16:28.911Z,147016,-0.089048445,-0.02218658,-0.040695727
1732371388934,2024-11-23T14:16:28.934Z,147039,-0.11450282,-0.019592594,-0.065941155
1732371388936,2024-11-23T14:16:28.936Z,147041,-0.11450282,-0.019592594,-0.065941155
1732371388951,2024-11-23T14:16:28.951Z,147056,-0.10219736,-0.023116073,-0.055011276
1732371388953,2024-11-23T14:16:28.953Z,147058,-0.10219736,-0.023116073,-0.055011276
1732371388967,2024-11-23T14:16:28.967Z,147072,-0.07598671,-0.008037329,-0.04136663
1732371388969,2024-11-23T14:16:28.969Z,147074,-0.07598671,-0.008037329,-0.04136663
1732371388984,2024-11-23T14:16:28.984Z,147089,-0.12805448,-0.0019473855,-0.064706646
1732371388986,2024-11-23T14:16:28.986Z,147091,-0.12805448,-0.0019473855,-0.064706646
1732371389005,2024-11-23T14:16:29.005Z,147110,-0.0421431,0.006067577,-0.058585476
1732371389007,2024-11-23T14:16:29.007Z,147112,-0.0421431,0.006067577,-0.058585476
1732371389024,2024-11-23T14:16:29.024Z,147129,-0.05432785,0.035334177,-0.048591807
1732371389026,2024-11-23T14:16:29.026Z,147131,-0.05432785,0.035334177,-0.048591807
1732371389041,2024-11-23T14:16:29.041Z,147146,-0.018264337,0.06666759,-0.064497896
1732371389044,2024-11-23T14:16:29.044Z,147149,-0.018264337,0.06666759,-0.064497896
1732371389067,2024-11-23T14:16:29.067Z,147172,0.017864356,0.12239179,-0.06489718
1732371389069,2024-11-23T14:16:29.069Z,147174,0.017864356,0.12239179,-0.06489718
1732371389089,2024-11-23T14:16:29.089Z,147194,-0.0024780664,0.1480578,-0.10010206
1732371389091,2024-11-23T14:16:29.091Z,147196,-0.0024780664,0.1480578,-0.10010206
1732371389108,2024-11-23T14:16:29.108Z,147213,0.08878387,0.089513704,-0.14111209
1732371389110,2024-11-23T14:16:29.110Z,147215,0.08878387,0.089513704,-0.14111209
1732371389126,2024-11-23T14:16:29.126Z,147231,0.11372504,0.077563316,-0.008419415
1732371389128,2024-11-23T14:16:29.128Z,147233,0.11372504,0.077563316,-0.008419415
1732371389155,2024-11-23T14:16:29.155Z,147260,0.075350374,0.09563058,0.025553891
1732371389159,2024-11-23T14:16:29.159Z,147264,0.075350374,0.09563058,0.025553891
1732371389183,2024-11-23T14:16:29.183Z,147288,0.08058813,0.11111193,-0.037710845
1732371389186,2024-11-23T14:16:29.186Z,147291,0.08058813,0.11111193,-0.037710845
1732371389204,2024-11-23T14:16:29.204Z,147309,0.15409134,0.0033606866,-0.016138885
1732371389206,2024-11-23T14:16:29.206Z,147311,0.15409134,0.0033606866,-0.016138885
1732371389222,2024-11-23T14:16:29.222Z,147327,0.13623683,-0.0061389566,0.036671225
1732371389224,2024-11-23T14:16:29.224Z,147329,0.13623683,-0.0061389566,0.036671225
1732371389240,2024-11-23T14:16:29.240Z,147345,0.009562222,0.0514526,0.024854254
1732371389242,2024-11-23T14:16:29.242Z,147347,0.009562222,0.0514526,0.024854254
1732371389256,2024-11-23T14:16:29.256Z,147361,0.20396541,0.061862286,-0.09735261
1732371389258,2024-11-23T14:16:29.258Z,147363,0.20396541,0.061862286,-0.09735261
1732371389272,2024-11-23T14:16:29.272Z,147377,0.169905,0.058627926,-0.100205556
1732371389273,2024-11-23T14:16:29.273Z,147378,0.169905,0.058627926,-0.100205556
1732371389289,2024-11-23T14:16:29.289Z,147394,0.18122207,0.06728958,-0.094859056
1732371389291,2024-11-23T14:16:29.291Z,147396,0.18122207,0.06728958,-0.094859056
1732371389308,2024-11-23T14:16:29.308Z,147413,0.08134399,0.029560873,-0.024347777
1732371389311,2024-11-23T14:16:29.311Z,147416,0.08134399,0.029560873,-0.024347777
1732371389327,2024-11-23T14:16:29.327Z,147432,0.03631609,0.028217299,0.027384762
1732371389329,2024-11-23T14:16:29.329Z,147434,0.03631609,0.028217299,0.027384762
1732371389355,2024-11-23T14:16:29.355Z,147460,0.043669015,0.04290326,0.022248812
1732371389359,2024-11-23T14:16:29.359Z,147464,0.043669015,0.04290326,0.022248812
1732371389383,2024-11-23T14:16:29.383Z,147488,0.15297304,0.09365869,-0.069871716
1732371389386,2024-11-23T14:16:29.386Z,147491,0.15297304,0.09365869,-0.069871716
1732371389403,2024-11-23T14:16:29.403Z,147508,0.16766226,0.055224642,-0.16795252
1732371389405,2024-11-23T14:16:29.405Z,147510,0.16766226,0.055224642,-0.16795252
1732371389421,2024-11-23T14:16:29.421Z,147526,0.07602355,0.03304798,-0.13422877
1732371389423,2024-11-23T14:16:29.423Z,147528,0.07602355,0.03304798,-0.13422877
1732371389439,2024-11-23T14:16:29.439Z,147544,0.0641436,-0.059022654,-0.10310774
1732371389441,2024-11-23T14:16:29.441Z,147546,0.0641436,-0.059022654,-0.10310774
1732371389458,2024-11-23T14:16:29.458Z,147563,0.07484987,-0.03435655,-0.119452626
1732371389461,2024-11-23T14:16:29.461Z,147566,0.07484987,-0.03435655,-0.119452626
1732371389477,2024-11-23T14:16:29.477Z,147582,0.024200192,-0.015259528,-0.023775036
1732371389480,2024-11-23T14:16:29.480Z,147585,0.024200192,-0.015259528,-0.023775036
1732371389494,2024-11-23T14:16:29.494Z,147599,0.07619767,-0.06376688,0.07447376
1732371389497,2024-11-23T14:16:29.497Z,147602,0.07619767,-0.06376688,0.07447376
1732371389512,2024-11-23T14:16:29.512Z,147617,0.029462071,-0.0860617,0.0676051
1732371389515,2024-11-23T14:16:29.515Z,147620,0.029462071,-0.0860617,0.0676051
1732371389534,2024-11-23T14:16:29.534Z,147639,0.022578755,-0.0646885,-0.0065759392
1732371389536,2024-11-23T14:16:29.536Z,147641,0.022578755,-0.0646885,-0.0065759392
1732371389556,2024-11-23T14:16:29.556Z,147661,-0.020561205,-0.082876444,0.03039898
1732371389558,2024-11-23T14:16:29.558Z,147663,-0.020561205,-0.082876444,0.03039898
1732371389575,2024-11-23T14:16:29.575Z,147680,0.038861863,-0.012898353,-0.060297042
1732371389578,2024-11-23T14:16:29.578Z,147683,0.038861863,-0.012898353,-0.060297042
1732371389595,2024-11-23T14:16:29.595Z,147700,0.057488546,-0.026644124,-0.12702455
1732371389597,2024-11-23T14:16:29.597Z,147702,0.057488546,-0.026644124,-0.12702455
1732371389611,2024-11-23T14:16:29.611Z,147716,0.060246903,-0.027514588,0.018060178
1732371389613,2024-11-23T14:16:29.613Z,147718,0.060246903,-0.027514588,0.018060178
1732371389643,2024-11-23T14:16:29.643Z,147748,-0.0458805,-0.11428493,0.06098691
1732371389647,2024-11-23T14:16:29.647Z,147752,-0.0458805,-0.11428493,0.06098691
1732371389683,2024-11-23T14:16:29.683Z,147788,0.019516425,-0.044723153,0.06422142
1732371389688,2024-11-23T14:16:29.688Z,147793,0.019516425,-0.044723153,0.06422142
1732371389712,2024-11-23T14:16:29.712Z,147817,-0.014532504,-0.073543295,0.033591405
1732371389715,2024-11-23T14:16:29.715Z,147820,-0.014532504,-0.073543295,0.033591405
1732371389738,2024-11-23T14:16:29.738Z,147843,0.07250349,-0.11444267,0.112263
1732371389740,2024-11-23T14:16:29.740Z,147845,0.07250349,-0.11444267,0.112263
1732371389758,2024-11-23T14:16:29.758Z,147863,0.03379803,-0.12484331,0.04593355
1732371389761,2024-11-23T14:16:29.761Z,147866,0.03379803,-0.12484331,0.04593355
1732371389777,2024-11-23T14:16:29.777Z,147882,0.0022291606,-0.14342006,0.08891487
1732371389780,2024-11-23T14:16:29.780Z,147885,0.0022291606,-0.14342006,0.08891487
1732371389801,2024-11-23T14:16:29.801Z,147906,-0.050723583,-0.18248515,0.0070820767
1732371389806,2024-11-23T14:16:29.806Z,147911,-0.050723583,-0.18248515,0.0070820767
1732371389832,2024-11-23T14:16:29.832Z,147937,0.0048368094,-0.12997001,0.08553583
1732371389835,2024-11-23T14:16:29.835Z,147940,0.0048368094,-0.12997001,0.08553583
1732371389854,2024-11-23T14:16:29.854Z,147959,-0.045850646,-0.18615595,0.028130677
1732371389857,2024-11-23T14:16:29.857Z,147962,-0.045850646,-0.18615595,0.028130677
1732371389874,2024-11-23T14:16:29.874Z,147979,-8.859024E-4,-0.15822476,0.082106
1732371389877,2024-11-23T14:16:29.877Z,147982,-8.859024E-4,-0.15822476,0.082106
1732371389915,2024-11-23T14:16:29.915Z,148020,1.6288992E-5,-0.15655375,0.09776787
1732371389920,2024-11-23T14:16:29.920Z,148025,1.6288992E-5,-0.15655375,0.09776787
1732371389961,2024-11-23T14:16:29.961Z,148066,-0.07365705,-0.16863814,0.034166187
1732371389967,2024-11-23T14:16:29.967Z,148072,-0.07365705,-0.16863814,0.034166187
1732371389997,2024-11-23T14:16:29.997Z,148102,0.07357215,-0.10336294,0.063100494
1732371390001,2024-11-23T14:16:30.001Z,148106,0.07357215,-0.10336294,0.063100494
1732371390026,2024-11-23T14:16:30.026Z,148131,-0.032444805,-0.106819615,0.044490345
1732371390029,2024-11-23T14:16:30.029Z,148134,-0.032444805,-0.106819615,0.044490345
1732371390054,2024-11-23T14:16:30.054Z,148159,-0.027375864,-0.06962265,0.050562054
1732371390058,2024-11-23T14:16:30.058Z,148163,-0.027375864,-0.06962265,0.050562054
1732371390079,2024-11-23T14:16:30.079Z,148184,0.079367556,-0.056184866,0.07938703
1732371390082,2024-11-23T14:16:30.082Z,148187,0.079367556,-0.056184866,0.07938703
1732371390103,2024-11-23T14:16:30.103Z,148208,-0.009812562,-0.038460985,0.02546942
1732371390106,2024-11-23T14:16:30.106Z,148211,-0.009812562,-0.038460985,0.02546942
1732371390131,2024-11-23T14:16:30.131Z,148236,0.09937423,-0.004285026,0.040676434
1732371390134,2024-11-23T14:16:30.134Z,148239,0.09937423,-0.004285026,0.040676434
1732371390151,2024-11-23T14:16:30.151Z,148256,0.06441157,-0.014887166,0.0094838645
1732371390153,2024-11-23T14:16:30.153Z,148258,0.06441157,-0.014887166,0.0094838645
1732371390170,2024-11-23T14:16:30.170Z,148275,0.078337096,0.010285015,0.100974075
1732371390172,2024-11-23T14:16:30.172Z,148277,0.078337096,0.010285015,0.100974075
1732371390188,2024-11-23T14:16:30.188Z,148293,0.029556133,-0.021682836,0.0134553155
1732371390190,2024-11-23T14:16:30.190Z,148295,0.029556133,-0.021682836,0.0134553155
1732371390205,2024-11-23T14:16:30.205Z,148310,0.02757037,-0.011227541,-0.03953415
1732371390207,2024-11-23T14:16:30.207Z,148312,0.02757037,-0.011227541,-0.03953415
1732371390225,2024-11-23T14:16:30.225Z,148330,-0.06298338,-0.20493157,0.040886585
1732371390227,2024-11-23T14:16:30.227Z,148332,-0.06298338,-0.20493157,0.040886585
1732371390245,2024-11-23T14:16:30.245Z,148350,-0.023405543,-0.16155772,0.090371646
1732371390247,2024-11-23T14:16:30.247Z,148352,-0.023405543,-0.16155772,0.090371646
1732371390265,2024-11-23T14:16:30.265Z,148370,-0.011715724,-0.02712793,0.05438525
1732371390267,2024-11-23T14:16:30.267Z,148372,-0.011715724,-0.02712793,0.05438525
1732371390283,2024-11-23T14:16:30.283Z,148388,-0.00548482,0.00844684,0.049291827
1732371390286,2024-11-23T14:16:30.286Z,148391,-0.00548482,0.00844684,0.049291827
1732371390303,2024-11-23T14:16:30.303Z,148408,0.02194362,0.060662832,0.024665618
1732371390305,2024-11-23T14:16:30.305Z,148410,0.02194362,0.060662832,0.024665618
1732371390320,2024-11-23T14:16:30.320Z,148425,0.062081713,0.117811814,0.006732216
1732371390322,2024-11-23T14:16:30.322Z,148427,0.062081713,0.117811814,0.006732216
1732371390354,2024-11-23T14:16:30.354Z,148459,0.030051429,0.14126942,0.010961179
1732371390359,2024-11-23T14:16:30.359Z,148464,0.030051429,0.14126942,0.010961179
1732371390407,2024-11-23T14:16:30.407Z,148512,0.0627482,0.17886885,-0.041260283
1732371390414,2024-11-23T14:16:30.414Z,148519,0.0627482,0.17886885,-0.041260283
1732371390449,2024-11-23T14:16:30.449Z,148554,0.01970714,0.109062634,-0.03507905
1732371390452,2024-11-23T14:16:30.452Z,148557,0.01970714,0.109062634,-0.03507905
1732371390488,2024-11-23T14:16:30.488Z,148593,-0.013917485,0.042166416,-0.0352778
1732371390494,2024-11-23T14:16:30.494Z,148599,-0.013917485,0.042166416,-0.0352778
1732371390520,2024-11-23T14:16:30.520Z,148625,0.002642512,-0.004744716,-0.050828062
1732371390523,2024-11-23T14:16:30.523Z,148628,0.002642512,-0.004744716,-0.050828062
1732371390546,2024-11-23T14:16:30.546Z,148651,-0.14763537,-0.25735566,0.08450255
1732371390550,2024-11-23T14:16:30.550Z,148655,-0.14763537,-0.25735566,0.08450255
1732371390571,2024-11-23T14:16:30.571Z,148676,-0.12613297,-0.24260056,0.06703949
1732371390574,2024-11-23T14:16:30.574Z,148679,-0.12613297,-0.24260056,0.06703949
1732371390591,2024-11-23T14:16:30.591Z,148696,-0.08035775,-0.18371649,0.050132096
1732371390594,2024-11-23T14:16:30.594Z,148699,-0.08035775,-0.18371649,0.050132096
1732371390610,2024-11-23T14:16:30.610Z,148715,-0.07802877,-0.18389757,0.057936735
1732371390613,2024-11-23T14:16:30.613Z,148718,-0.07802877,-0.18389757,0.057936735
1732371390630,2024-11-23T14:16:30.630Z,148735,-0.10045266,-0.18212883,0.057758845
1732371390632,2024-11-23T14:16:30.632Z,148737,-0.10045266,-0.18212883,0.057758845
1732371390661,2024-11-23T14:16:30.661Z,148766,-0.103427954,-0.18384048,0.061288353
1732371390666,2024-11-23T14:16:30.666Z,148771,-0.103427954,-0.18384048,0.061288353
1732371390702,2024-11-23T14:16:30.702Z,148807,-0.103859685,-0.1903946,0.049377356
1732371390706,2024-11-23T14:16:30.706Z,148811,-0.103859685,-0.1903946,0.049377356
1732371390743,2024-11-23T14:16:30.743Z,148848,-0.09547024,-0.1892355,0.05189053
1732371390748,2024-11-23T14:16:30.748Z,148853,-0.09547024,-0.1892355,0.05189053
1732371390775,2024-11-23T14:16:30.775Z,148880,-0.079482794,-0.1529342,0.076542534
1732371390778,2024-11-23T14:16:30.778Z,148883,-0.079482794,-0.1529342,0.076542534
1732371390799,2024-11-23T14:16:30.799Z,148904,-0.04347578,-0.11168423,0.057389792
1732371390802,2024-11-23T14:16:30.802Z,148907,-0.04347578,-0.11168423,0.057389792
1732371390824,2024-11-23T14:16:30.824Z,148929,-0.048569154,-0.10169573,0.0700737
1732371390826,2024-11-23T14:16:30.826Z,148931,-0.048569154,-0.10169573,0.0700737
1732371390843,2024-11-23T14:16:30.843Z,148948,0.01014053,-0.08976936,0.048890535
1732371390846,2024-11-23T14:16:30.846Z,148951,0.01014053,-0.08976936,0.048890535
1732371390878,2024-11-23T14:16:30.878Z,148983,0.0038562608,-0.09013259,0.050296556
1732371390884,2024-11-23T14:16:30.884Z,148989,0.0038562608,-0.09013259,0.050296556
1732371390922,2024-11-23T14:16:30.922Z,149027,-0.019779796,-0.09625034,0.037956744
1732371390928,2024-11-23T14:16:30.928Z,149033,-0.019779796,-0.09625034,0.037956744
1732371390956,2024-11-23T14:16:30.956Z,149061,0.0017874616,-0.07701436,0.020791221
1732371390959,2024-11-23T14:16:30.959Z,149064,0.0017874616,-0.07701436,0.020791221
1732371390984,2024-11-23T14:16:30.984Z,149089,0.04746403,-0.053009633,0.04513163
1732371390987,2024-11-23T14:16:30.987Z,149092,0.04746403,-0.053009633,0.04513163
1732371391008,2024-11-23T14:16:31.008Z,149113,0.008251493,-0.041438222,0.013011282
1732371391011,2024-11-23T14:16:31.011Z,149116,0.008251493,-0.041438222,0.013011282
1732371391030,2024-11-23T14:16:31.030Z,149135,0.0041907444,-0.019956786,0.044175576
1732371391034,2024-11-23T14:16:31.034Z,149139,0.0041907444,-0.019956786,0.044175576
1732371391052,2024-11-23T14:16:31.052Z,149157,0.010470199,-0.014023315,0.01774383
1732371391054,2024-11-23T14:16:31.054Z,149159,0.010470199,-0.014023315,0.01774383
1732371391069,2024-11-23T14:16:31.069Z,149174,0.013636123,-0.030022703,0.029519945
1732371391073,2024-11-23T14:16:31.073Z,149178,0.013636123,-0.030022703,0.029519945
1732371391090,2024-11-23T14:16:31.090Z,149195,0.08755258,0.008299801,0.02271929
1732371391093,2024-11-23T14:16:31.093Z,149198,0.08755258,0.008299801,0.02271929
1732371391106,2024-11-23T14:16:31.106Z,149211,0.03916005,-0.025066474,0.046342753
1732371391108,2024-11-23T14:16:31.108Z,149213,0.03916005,-0.025066474,0.046342753
1732371391123,2024-11-23T14:16:31.123Z,149228,0.047787867,-0.03345905,0.078055575
1732371391125,2024-11-23T14:16:31.125Z,149230,0.047787867,-0.03345905,0.078055575
1732371391140,2024-11-23T14:16:31.140Z,149245,0.081249565,-0.009066112,0.04296438
1732371391142,2024-11-23T14:16:31.142Z,149247,0.081249565,-0.009066112,0.04296438
1732371391160,2024-11-23T14:16:31.160Z,149265,0.094518214,-0.032610368,0.038347606
1732371391162,2024-11-23T14:16:31.162Z,149267,0.094518214,-0.032610368,0.038347606
1732371391176,2024-11-23T14:16:31.176Z,149281,0.12686779,-0.052058257,0.030273614
1732371391178,2024-11-23T14:16:31.178Z,149283,0.12686779,-0.052058257,0.030273614
1732371391192,2024-11-23T14:16:31.192Z,149297,0.07902687,-0.04725811,0.011959257
1732371391194,2024-11-23T14:16:31.194Z,149299,0.07902687,-0.04725811,0.011959257
1732371391211,2024-11-23T14:16:31.211Z,149316,0.051430743,-0.026848441,0.045101933
1732371391214,2024-11-23T14:16:31.214Z,149319,0.051430743,-0.026848441,0.045101933
1732371391237,2024-11-23T14:16:31.237Z,149342,0.06873614,0.005086153,0.003114504
1732371391240,2024-11-23T14:16:31.240Z,149345,0.06873614,0.005086153,0.003114504
1732371391257,2024-11-23T14:16:31.257Z,149362,0.04117884,-0.018392168,-0.012366652
1732371391259,2024-11-23T14:16:31.259Z,149364,0.04117884,-0.018392168,-0.012366652
1732371391274,2024-11-23T14:16:31.274Z,149379,0.052955564,-0.031110419,-0.0204501
1732371391276,2024-11-23T14:16:31.276Z,149381,0.052955564,-0.031110419,-0.0204501
1732371391291,2024-11-23T14:16:31.291Z,149396,0.11897667,-0.043662958,0.018004745
1732371391293,2024-11-23T14:16:31.293Z,149398,0.11897667,-0.043662958,0.018004745
1732371391309,2024-11-23T14:16:31.309Z,149414,0.053462565,-0.008504702,-0.053203702
1732371391311,2024-11-23T14:16:31.311Z,149416,0.053462565,-0.008504702,-0.053203702
1732371391328,2024-11-23T14:16:31.328Z,149433,0.0071136705,0.00819769,-0.012451148
1732371391330,2024-11-23T14:16:31.330Z,149435,0.0071136705,0.00819769,-0.012451148
1732371391349,2024-11-23T14:16:31.349Z,149454,0.112747684,-0.020749843,-0.059858326
1732371391351,2024-11-23T14:16:31.351Z,149456,0.112747684,-0.020749843,-0.059858326
1732371391370,2024-11-23T14:16:31.370Z,149475,0.03163857,0.029807786,-0.013544017
1732371391372,2024-11-23T14:16:31.372Z,149477,0.03163857,0.029807786,-0.013544017
1732371391443,2024-11-23T14:16:31.443Z,149548,0.058026835,0.07080703,-0.051035784
1732371391445,2024-11-23T14:16:31.445Z,149550,0.058026835,0.07080703,-0.051035784
1732371391493,2024-11-23T14:16:31.493Z,149598,0.04423125,0.18407145,-0.118516885
1732371391496,2024-11-23T14:16:31.496Z,149601,0.04423125,0.18407145,-0.118516885
1732371391530,2024-11-23T14:16:31.530Z,149635,0.186791,0.16130167,-0.11262304
1732371391536,2024-11-23T14:16:31.536Z,149641,0.186791,0.16130167,-0.11262304
1732371391562,2024-11-23T14:16:31.562Z,149667,0.1647413,0.24813052,0.05613583
1732371391565,2024-11-23T14:16:31.565Z,149670,0.1647413,0.24813052,0.05613583
1732371391640,2024-11-23T14:16:31.640Z,149745,0.077634744,0.35828874,0.02000738
1732371391646,2024-11-23T14:16:31.646Z,149751,0.077634744,0.35828874,0.02000738
1732371391672,2024-11-23T14:16:31.672Z,149777,-0.08765948,0.41393673,-0.15997721
1732371391675,2024-11-23T14:16:31.675Z,149780,-0.08765948,0.41393673,-0.15997721
1732371391701,2024-11-23T14:16:31.701Z,149806,-0.18349095,0.04156377,-0.21820042
1732371391704,2024-11-23T14:16:31.704Z,149809,-0.18349095,0.04156377,-0.21820042
1732371391725,2024-11-23T14:16:31.725Z,149830,0.020289399,0.01796136,-0.12458091
1732371391727,2024-11-23T14:16:31.727Z,149832,0.020289399,0.01796136,-0.12458091
1732371391743,2024-11-23T14:16:31.743Z,149848,0.010973554,-0.02850807,-0.087035015
1732371391745,2024-11-23T14:16:31.745Z,149850,0.010973554,-0.02850807,-0.087035015
1732371391761,2024-11-23T14:16:31.761Z,149866,-0.06782885,-0.04824615,-0.044574704
1732371391762,2024-11-23T14:16:31.762Z,149867,-0.06782885,-0.04824615,-0.044574704
1732371391804,2024-11-23T14:16:31.804Z,149909,-0.024699971,0.043636996,0.02078242
1732371391810,2024-11-23T14:16:31.810Z,149915,-0.024699971,0.043636996,0.02078242
1732371391850,2024-11-23T14:16:31.850Z,149955,-0.022947641,0.02060115,0.023823721
1732371391855,2024-11-23T14:16:31.855Z,149960,-0.022947641,0.02060115,0.023823721
1732371391891,2024-11-23T14:16:31.891Z,149996,-0.03075177,0.017459854,-0.021277118
1732371391894,2024-11-23T14:16:31.894Z,149999,-0.03075177,0.017459854,-0.021277118
1732371391918,2024-11-23T14:16:31.918Z,150023,-0.039577436,-0.0024713562,-0.026391717
1732371391920,2024-11-23T14:16:31.920Z,150025,-0.039577436,-0.0024713562,-0.026391717
1732371391943,2024-11-23T14:16:31.943Z,150048,-0.044308197,-0.030561164,-0.025465177
1732371391946,2024-11-23T14:16:31.946Z,150051,-0.044308197,-0.030561164,-0.025465177
1732371391970,2024-11-23T14:16:31.970Z,150075,-0.04368124,-0.053285036,-0.037267853
1732371391975,2024-11-23T14:16:31.975Z,150080,-0.04368124,-0.053285036,-0.037267853
1732371391995,2024-11-23T14:16:31.995Z,150100,-0.028162234,-0.028300738,-8.2423515E-4
1732371391997,2024-11-23T14:16:31.997Z,150102,-0.028162234,-0.028300738,-8.2423515E-4
1732371392010,2024-11-23T14:16:32.010Z,150115,-0.052634183,-0.034346238,-0.045203693
1732371392012,2024-11-23T14:16:32.012Z,150117,-0.052634183,-0.034346238,-0.045203693
1732371392027,2024-11-23T14:16:32.027Z,150132,-0.06792211,-0.049604796,-0.037606176
1732371392029,2024-11-23T14:16:32.029Z,150134,-0.06792211,-0.049604796,-0.037606176
1732371392045,2024-11-23T14:16:32.045Z,150150,0.0022392988,-0.012383718,-0.028625753
1732371392047,2024-11-23T14:16:32.047Z,150152,0.0022392988,-0.012383718,-0.028625753
1732371392064,2024-11-23T14:16:32.064Z,150169,-0.00877612,-0.02414408,-0.04796994
1732371392067,2024-11-23T14:16:32.067Z,150172,-0.00877612,-0.02414408,-0.04796994
1732371392085,2024-11-23T14:16:32.085Z,150190,-0.033095244,0.05173345,-0.06160035
1732371392088,2024-11-23T14:16:32.088Z,150193,-0.033095244,0.05173345,-0.06160035
1732371392102,2024-11-23T14:16:32.102Z,150207,-0.06915825,0.08250428,-0.046652
1732371392104,2024-11-23T14:16:32.104Z,150209,-0.06915825,0.08250428,-0.046652
1732371392118,2024-11-23T14:16:32.118Z,150223,-0.037082765,0.12811288,-0.04946837
1732371392120,2024-11-23T14:16:32.120Z,150225,-0.037082765,0.12811288,-0.04946837
1732371392172,2024-11-23T14:16:32.172Z,150277,-0.122879684,0.2035316,-0.09080421
1732371392174,2024-11-23T14:16:32.174Z,150279,-0.122879684,0.2035316,-0.09080421
1732371392193,2024-11-23T14:16:32.193Z,150298,-0.15086763,0.2827684,-0.15630206
1732371392195,2024-11-23T14:16:32.195Z,150300,-0.15086763,0.2827684,-0.15630206
1732371392212,2024-11-23T14:16:32.212Z,150317,0.044064254,0.2467213,-0.18324141
1732371392214,2024-11-23T14:16:32.214Z,150319,0.044064254,0.2467213,-0.18324141
1732371392229,2024-11-23T14:16:32.229Z,150334,0.16461676,0.18540943,-0.10469424
1732371392231,2024-11-23T14:16:32.231Z,150336,0.16461676,0.18540943,-0.10469424
1732371392247,2024-11-23T14:16:32.247Z,150352,0.017030846,0.042463798,-0.045490704
1732371392248,2024-11-23T14:16:32.248Z,150353,0.017030846,0.042463798,-0.045490704
1732371392365,2024-11-23T14:16:32.365Z,150470,-0.15155579,0.04392874,-0.08608292
1732371392371,2024-11-23T14:16:32.371Z,150476,-0.15155579,0.04392874,-0.08608292
1732371392402,2024-11-23T14:16:32.402Z,150507,0.20519577,-0.091140755,-0.048670705
1732371392406,2024-11-23T14:16:32.406Z,150511,0.20519577,-0.091140755,-0.048670705
1732371392428,2024-11-23T14:16:32.428Z,150533,0.011743731,-7.066019E-4,-0.03443825
1732371392431,2024-11-23T14:16:32.431Z,150536,0.011743731,-7.066019E-4,-0.03443825
1732371392453,2024-11-23T14:16:32.453Z,150558,0.14366877,-0.016827064,4.3368834E-4
1732371392456,2024-11-23T14:16:32.456Z,150561,0.14366877,-0.016827064,4.3368834E-4
1732371392477,2024-11-23T14:16:32.477Z,150582,0.09195647,-0.013948823,0.019844595
1732371392480,2024-11-23T14:16:32.480Z,150585,0.09195647,-0.013948823,0.019844595
1732371392499,2024-11-23T14:16:32.499Z,150604,0.14886169,0.02934693,0.07650864
1732371392502,2024-11-23T14:16:32.502Z,150607,0.14886169,0.02934693,0.07650864
1732371392519,2024-11-23T14:16:32.519Z,150624,0.06359573,0.109168,0.0629265
1732371392522,2024-11-23T14:16:32.522Z,150627,0.06359573,0.109168,0.0629265
1732371392561,2024-11-23T14:16:32.561Z,150666,0.08904868,0.07097537,-0.010689224
1732371392566,2024-11-23T14:16:32.566Z,150671,0.08904868,0.07097537,-0.010689224
1732371392595,2024-11-23T14:16:32.595Z,150700,0.021265546,0.0830832,-0.005393023
1732371392599,2024-11-23T14:16:32.599Z,150704,0.021265546,0.0830832,-0.005393023
1732371392640,2024-11-23T14:16:32.640Z,150745,-0.0017954846,0.020864302,-0.13763116
1732371392647,2024-11-23T14:16:32.647Z,150752,-0.0017954846,0.020864302,-0.13763116
1732371392683,2024-11-23T14:16:32.683Z,150788,-0.105878204,0.019226845,0.02497733
1732371392686,2024-11-23T14:16:32.686Z,150791,-0.105878204,0.019226845,0.02497733
1732371392710,2024-11-23T14:16:32.710Z,150815,0.015693447,-0.052114565,0.044781063
1732371392713,2024-11-23T14:16:32.713Z,150818,0.015693447,-0.052114565,0.044781063
1732371392748,2024-11-23T14:16:32.748Z,150853,-8.9667254E-4,-9.1422576E-4,0.06756973
1732371392753,2024-11-23T14:16:32.753Z,150858,-8.9667254E-4,-9.1422576E-4,0.06756973
1732371392782,2024-11-23T14:16:32.782Z,150887,-0.09687759,0.010182225,-0.044188224
1732371392786,2024-11-23T14:16:32.786Z,150891,-0.09687759,0.010182225,-0.044188224
1732371392808,2024-11-23T14:16:32.808Z,150913,0.011097957,0.017345395,-0.045051537
1732371392811,2024-11-23T14:16:32.811Z,150916,0.011097957,0.017345395,-0.045051537
1732371392834,2024-11-23T14:16:32.834Z,150939,0.056354225,0.017011348,-0.05245101
1732371392836,2024-11-23T14:16:32.836Z,150941,0.056354225,0.017011348,-0.05245101
1732371392859,2024-11-23T14:16:32.859Z,150964,-0.004195461,-0.054044057,0.0011379776
1732371392862,2024-11-23T14:16:32.862Z,150967,-0.004195461,-0.054044057,0.0011379776
1732371392879,2024-11-23T14:16:32.879Z,150984,-0.06500747,-0.018560018,0.013354007
1732371392882,2024-11-23T14:16:32.882Z,150987,-0.06500747,-0.018560018,0.013354007
1732371392899,2024-11-23T14:16:32.899Z,151004,0.018378602,-0.0026716865,-0.010494706
1732371392901,2024-11-23T14:16:32.901Z,151006,0.018378602,-0.0026716865,-0.010494706
1732371392929,2024-11-23T14:16:32.929Z,151034,0.016267112,-0.0770834,0.10352666
1732371392934,2024-11-23T14:16:32.934Z,151039,0.016267112,-0.0770834,0.10352666
1732371393038,2024-11-23T14:16:33.038Z,151143,-0.037878033,-0.11309666,0.008865509
1732371393044,2024-11-23T14:16:33.044Z,151149,-0.037878033,-0.11309666,0.008865509
1732371393082,2024-11-23T14:16:33.082Z,151187,0.08203377,-0.068982475,0.04573187
1732371393087,2024-11-23T14:16:33.087Z,151192,0.08203377,-0.068982475,0.04573187
1732371393115,2024-11-23T14:16:33.115Z,151220,0.061134167,-0.054188956,0.06930638
1732371393119,2024-11-23T14:16:33.119Z,151224,0.061134167,-0.054188956,0.06930638
1732371393142,2024-11-23T14:16:33.142Z,151247,0.002669304,-0.08014486,0.06857246
1732371393145,2024-11-23T14:16:33.145Z,151250,0.002669304,-0.08014486,0.06857246
1732371393168,2024-11-23T14:16:33.168Z,151273,0.073259205,-0.04623244,0.06173935
1732371393171,2024-11-23T14:16:33.171Z,151276,0.073259205,-0.04623244,0.06173935
1732371393191,2024-11-23T14:16:33.191Z,151296,0.059141222,-0.07269442,0.013397295
1732371393194,2024-11-23T14:16:33.194Z,151299,0.059141222,-0.07269442,0.013397295
1732371393211,2024-11-23T14:16:33.211Z,151316,0.031741142,-0.057671394,0.032428417
1732371393213,2024-11-23T14:16:33.213Z,151318,0.031741142,-0.057671394,0.032428417
1732371393229,2024-11-23T14:16:33.229Z,151334,0.03586508,-0.084968925,0.050550044
1732371393231,2024-11-23T14:16:33.231Z,151336,0.03586508,-0.084968925,0.050550044
1732371393247,2024-11-23T14:16:33.247Z,151352,0.0106425835,-0.103657894,3.8157572E-4
1732371393249,2024-11-23T14:16:33.249Z,151354,0.0106425835,-0.103657894,3.8157572E-4
1732371393265,2024-11-23T14:16:33.265Z,151370,0.053964436,-0.09495811,-0.0029278127
1732371393267,2024-11-23T14:16:33.267Z,151372,0.053964436,-0.09495811,-0.0029278127
1732371393287,2024-11-23T14:16:33.287Z,151392,0.0026905525,-0.12065242,0.07753721
1732371393290,2024-11-23T14:16:33.290Z,151395,0.0026905525,-0.12065242,0.07753721
1732371393309,2024-11-23T14:16:33.309Z,151414,0.047453966,-0.103761464,0.032601323
1732371393313,2024-11-23T14:16:33.313Z,151418,0.047453966,-0.103761464,0.032601323
1732371393337,2024-11-23T14:16:33.337Z,151442,0.04293771,-0.052860454,0.065469496
1732371393339,2024-11-23T14:16:33.339Z,151444,0.04293771,-0.052860454,0.065469496
1732371393356,2024-11-23T14:16:33.356Z,151461,0.096210435,-0.055953708,0.03319361
1732371393359,2024-11-23T14:16:33.359Z,151464,0.096210435,-0.055953708,0.03319361
1732371393378,2024-11-23T14:16:33.378Z,151483,0.024611805,-0.07768274,0.06414505
1732371393380,2024-11-23T14:16:33.380Z,151485,0.024611805,-0.07768274,0.06414505
1732371393395,2024-11-23T14:16:33.395Z,151500,-0.018945593,-0.07214351,0.028080497
1732371393396,2024-11-23T14:16:33.396Z,151501,-0.018945593,-0.07214351,0.028080497
1732371393411,2024-11-23T14:16:33.411Z,151516,0.07067605,-0.062726915,0.09292753
1732371393413,2024-11-23T14:16:33.413Z,151518,0.07067605,-0.062726915,0.09292753
1732371393429,2024-11-23T14:16:33.429Z,151534,-0.006122935,-0.06731283,0.05485204
1732371393431,2024-11-23T14:16:33.431Z,151536,-0.006122935,-0.06731283,0.05485204
1732371393444,2024-11-23T14:16:33.444Z,151549,0.007719937,-0.04839202,0.053560905
1732371393446,2024-11-23T14:16:33.446Z,151551,0.007719937,-0.04839202,0.053560905
1732371393461,2024-11-23T14:16:33.461Z,151566,0.008961608,-0.06243381,0.07729545
1732371393464,2024-11-23T14:16:33.464Z,151569,0.008961608,-0.06243381,0.07729545
1732371393481,2024-11-23T14:16:33.481Z,151586,0.021496827,-0.08452392,0.052589037
1732371393483,2024-11-23T14:16:33.483Z,151588,0.021496827,-0.08452392,0.052589037
1732371393497,2024-11-23T14:16:33.497Z,151602,0.04213718,-0.07345003,0.075474046
1732371393499,2024-11-23T14:16:33.499Z,151604,0.04213718,-0.07345003,0.075474046
1732371393516,2024-11-23T14:16:33.516Z,151621,0.023631766,-0.07891001,0.062149044
1732371393519,2024-11-23T14:16:33.519Z,151624,0.023631766,-0.07891001,0.062149044
1732371393536,2024-11-23T14:16:33.536Z,151641,-0.10048417,-0.15231939,0.04251974
1732371393538,2024-11-23T14:16:33.538Z,151643,-0.10048417,-0.15231939,0.04251974
1732371393553,2024-11-23T14:16:33.553Z,151658,-0.11659516,-0.15416504,0.051321313
1732371393556,2024-11-23T14:16:33.556Z,151661,-0.11659516,-0.15416504,0.051321313
1732371393571,2024-11-23T14:16:33.571Z,151676,-0.12184334,-0.14875486,0.085126616
1732371393573,2024-11-23T14:16:33.573Z,151678,-0.12184334,-0.14875486,0.085126616
1732371393587,2024-11-23T14:16:33.587Z,151692,-0.1326056,-0.14956193,-0.004480372
1732371393589,2024-11-23T14:16:33.589Z,151694,-0.1326056,-0.14956193,-0.004480372
1732371393604,2024-11-23T14:16:33.604Z,151709,-0.03426724,-0.07534354,0.01509586
1732371393607,2024-11-23T14:16:33.607Z,151712,-0.03426724,-0.07534354,0.01509586
1732371393623,2024-11-23T14:16:33.623Z,151728,-0.0205093,-0.0041820407,-0.027356438
1732371393625,2024-11-23T14:16:33.625Z,151730,-0.0205093,-0.0041820407,-0.027356438
1732371393740,2024-11-23T14:16:33.740Z,151845,-0.0016335185,-2.7579453E-4,-0.04167033
1732371393742,2024-11-23T14:16:33.742Z,151847,-0.0016335185,-2.7579453E-4,-0.04167033
1732371393759,2024-11-23T14:16:33.759Z,151864,0.025702596,0.02687499,-0.035038326
1732371393762,2024-11-23T14:16:33.762Z,151867,0.025702596,0.02687499,-0.035038326
1732371393778,2024-11-23T14:16:33.778Z,151883,0.0081298845,0.02668059,-0.03148013
1732371393781,2024-11-23T14:16:33.781Z,151886,0.0081298845,0.02668059,-0.03148013
1732371393802,2024-11-23T14:16:33.802Z,151907,-3.4595875E-4,0.030390494,-0.024626281
1732371393804,2024-11-23T14:16:33.804Z,151909,-3.4595875E-4,0.030390494,-0.024626281
1732371393828,2024-11-23T14:16:33.828Z,151933,-0.0052091223,0.007443632,-0.032337636
1732371393830,2024-11-23T14:16:33.830Z,151935,-0.0052091223,0.007443632,-0.032337636
1732371393920,2024-11-23T14:16:33.920Z,152025,-0.001842212,0.0036976498,-0.051288117
1732371393922,2024-11-23T14:16:33.922Z,152027,-0.001842212,0.0036976498,-0.051288117
1732371393989,2024-11-23T14:16:33.989Z,152094,-0.018483728,-0.024486002,0.00927116
1732371393994,2024-11-23T14:16:33.994Z,152099,-0.018483728,-0.024486002,0.00927116
1732371394027,2024-11-23T14:16:34.027Z,152132,-0.11509745,-0.15130344,0.03389817
1732371394031,2024-11-23T14:16:34.031Z,152136,-0.11509745,-0.15130344,0.03389817
1732371394054,2024-11-23T14:16:34.054Z,152159,-0.13292897,-0.121623926,0.06966391
1732371394057,2024-11-23T14:16:34.057Z,152162,-0.13292897,-0.121623926,0.06966391
1732371394078,2024-11-23T14:16:34.078Z,152183,-0.0856747,-0.124083415,0.0280848
1732371394082,2024-11-23T14:16:34.082Z,152187,-0.0856747,-0.124083415,0.0280848
1732371394103,2024-11-23T14:16:34.103Z,152208,-0.08668174,-0.11351006,-0.023433562
1732371394106,2024-11-23T14:16:34.106Z,152211,-0.08668174,-0.11351006,-0.023433562
1732371394127,2024-11-23T14:16:34.127Z,152232,-0.056835793,-0.110132456,-0.015168309
1732371394130,2024-11-23T14:16:34.130Z,152235,-0.056835793,-0.110132456,-0.015168309
1732371394147,2024-11-23T14:16:34.147Z,152252,-0.030407295,-0.08867825,0.043734998
1732371394150,2024-11-23T14:16:34.150Z,152255,-0.030407295,-0.08867825,0.043734998
1732371394167,2024-11-23T14:16:34.167Z,152272,-0.05000091,-0.14811857,0.09185193
1732371394168,2024-11-23T14:16:34.168Z,152273,-0.05000091,-0.14811857,0.09185193
1732371394185,2024-11-23T14:16:34.185Z,152290,-0.0713842,-0.1285787,0.07749996
1732371394187,2024-11-23T14:16:34.187Z,152292,-0.0713842,-0.1285787,0.07749996
1732371394239,2024-11-23T14:16:34.239Z,152344,-0.027773704,-0.11557376,0.025719346
1732371394242,2024-11-23T14:16:34.242Z,152347,-0.027773704,-0.11557376,0.025719346
1732371394263,2024-11-23T14:16:34.263Z,152368,0.007226721,-0.08909408,0.009212617
1732371394266,2024-11-23T14:16:34.266Z,152371,0.007226721,-0.08909408,0.009212617
1732371394284,2024-11-23T14:16:34.284Z,152389,-0.005393674,-0.069923736,0.040915906
1732371394287,2024-11-23T14:16:34.287Z,152392,-0.005393674,-0.069923736,0.040915906
1732371394327,2024-11-23T14:16:34.327Z,152432,0.060250115,-0.040756226,0.026630728
1732371394330,2024-11-23T14:16:34.330Z,152435,0.060250115,-0.040756226,0.026630728
1732371394348,2024-11-23T14:16:34.348Z,152453,0.028405912,-0.0091551915,0.040065948
1732371394351,2024-11-23T14:16:34.351Z,152456,0.028405912,-0.0091551915,0.040065948
1732371394368,2024-11-23T14:16:34.368Z,152473,0.016999654,-0.033715006,0.057860397
1732371394370,2024-11-23T14:16:34.370Z,152475,0.016999654,-0.033715006,0.057860397
1732371394386,2024-11-23T14:16:34.386Z,152491,0.06896718,0.012956118,-6.4284384E-4
1732371394389,2024-11-23T14:16:34.389Z,152494,0.06896718,0.012956118,-6.4284384E-4
1732371394406,2024-11-23T14:16:34.406Z,152511,0.070349045,4.2224958E-4,0.0016733293
1732371394408,2024-11-23T14:16:34.408Z,152513,0.070349045,4.2224958E-4,0.0016733293
1732371394423,2024-11-23T14:16:34.423Z,152528,0.04889834,0.0069285105,-6.615762E-4
1732371394426,2024-11-23T14:16:34.426Z,152531,0.04889834,0.0069285105,-6.615762E-4
1732371394617,2024-11-23T14:16:34.617Z,152722,0.061353195,0.025001317,-0.045524914
1732371394624,2024-11-23T14:16:34.624Z,152729,0.061353195,0.025001317,-0.045524914
1732371394662,2024-11-23T14:16:34.662Z,152767,0.077572435,-0.018832603,-0.03892414
1732371394665,2024-11-23T14:16:34.665Z,152770,0.077572435,-0.018832603,-0.03892414
1732371394691,2024-11-23T14:16:34.691Z,152796,0.041454174,-0.0011122221,-0.045053832
1732371394694,2024-11-23T14:16:34.694Z,152799,0.041454174,-0.0011122221,-0.045053832
1732371394717,2024-11-23T14:16:34.717Z,152822,0.008577832,-0.004168329,-0.043369174
1732371394719,2024-11-23T14:16:34.719Z,152824,0.008577832,-0.004168329,-0.043369174
1732371394736,2024-11-23T14:16:34.736Z,152841,-0.06021729,0.02920621,-0.010226059
1732371394738,2024-11-23T14:16:34.738Z,152843,-0.06021729,0.02920621,-0.010226059
1732371394755,2024-11-23T14:16:34.755Z,152860,0.03191191,6.3882023E-4,0.062382925
1732371394758,2024-11-23T14:16:34.758Z,152863,0.03191191,6.3882023E-4,0.062382925
1732371394779,2024-11-23T14:16:34.779Z,152884,0.08753192,0.025135422,0.023563072
1732371394781,2024-11-23T14:16:34.781Z,152886,0.08753192,0.025135422,0.023563072
1732371394868,2024-11-23T14:16:34.868Z,152973,0.07922302,0.0013961855,0.026752677
1732371394871,2024-11-23T14:16:34.871Z,152976,0.07922302,0.0013961855,0.026752677
1732371394931,2024-11-23T14:16:34.931Z,153036,0.056941237,0.0249843,0.0516133
1732371394936,2024-11-23T14:16:34.936Z,153041,0.056941237,0.0249843,0.0516133
1732371394964,2024-11-23T14:16:34.964Z,153069,0.060179293,0.0064651254,0.0052533457
1732371394967,2024-11-23T14:16:34.967Z,153072,0.060179293,0.0064651254,0.0052533457
1732371394991,2024-11-23T14:16:34.991Z,153096,0.02191008,-0.014303388,0.006013045
1732371394994,2024-11-23T14:16:34.994Z,153099,0.02191008,-0.014303388,0.006013045
1732371395062,2024-11-23T14:16:35.062Z,153167,0.054449823,-0.03711148,0.039322015
1732371395068,2024-11-23T14:16:35.068Z,153173,0.054449823,-0.03711148,0.039322015
1732371395107,2024-11-23T14:16:35.107Z,153212,0.019450322,-2.0528992E-4,0.06904985
1732371395112,2024-11-23T14:16:35.112Z,153217,0.019450322,-2.0528992E-4,0.06904985
1732371395141,2024-11-23T14:16:35.141Z,153246,0.050064825,0.05646348,-0.04365969
1732371395145,2024-11-23T14:16:35.145Z,153250,0.050064825,0.05646348,-0.04365969
1732371395168,2024-11-23T14:16:35.168Z,153273,0.0010032561,0.0389021,0.12122263
1732371395171,2024-11-23T14:16:35.171Z,153276,0.0010032561,0.0389021,0.12122263
1732371395194,2024-11-23T14:16:35.194Z,153299,0.022878546,-0.014866647,0.090509824
1732371395198,2024-11-23T14:16:35.198Z,153303,0.022878546,-0.014866647,0.090509824
1732371395217,2024-11-23T14:16:35.217Z,153322,0.012399424,0.06932945,0.022829656
1732371395220,2024-11-23T14:16:35.220Z,153325,0.012399424,0.06932945,0.022829656
1732371395238,2024-11-23T14:16:35.238Z,153343,-0.10417949,-1.7903304E-4,-0.14373218
1732371395241,2024-11-23T14:16:35.241Z,153346,-0.10417949,-1.7903304E-4,-0.14373218
1732371395256,2024-11-23T14:16:35.256Z,153361,0.110651225,0.041814182,-0.07978983
1732371395258,2024-11-23T14:16:35.258Z,153363,0.110651225,0.041814182,-0.07978983
1732371395424,2024-11-23T14:16:35.424Z,153529,0.056992777,0.12960742,-0.115828276
1732371395430,2024-11-23T14:16:35.430Z,153535,0.056992777,0.12960742,-0.115828276
1732371395517,2024-11-23T14:16:35.517Z,153622,0.067996085,0.002744914,-0.06497696
1732371395523,2024-11-23T14:16:35.523Z,153628,0.067996085,0.002744914,-0.06497696
1732371395554,2024-11-23T14:16:35.554Z,153659,-0.0010881533,0.07993325,-0.08797978
1732371395558,2024-11-23T14:16:35.558Z,153663,-0.0010881533,0.07993325,-0.08797978
1732371395581,2024-11-23T14:16:35.581Z,153686,0.004593739,0.0057530776,-0.0468477
1732371395583,2024-11-23T14:16:35.583Z,153688,0.004593739,0.0057530776,-0.0468477
1732371395620,2024-11-23T14:16:35.620Z,153725,0.040081106,-0.04141673,-0.08036702
1732371395630,2024-11-23T14:16:35.630Z,153735,0.040081106,-0.04141673,-0.08036702
1732371395671,2024-11-23T14:16:35.671Z,153776,-0.033910036,-0.032092717,-0.031450797
1732371395675,2024-11-23T14:16:35.675Z,153780,-0.033910036,-0.032092717,-0.031450797
1732371395695,2024-11-23T14:16:35.695Z,153800,0.0061480976,-0.028608333,-0.03173503
1732371395698,2024-11-23T14:16:35.698Z,153803,0.0061480976,-0.028608333,-0.03173503
1732371395718,2024-11-23T14:16:35.718Z,153823,-0.0056322715,-0.012636465,-0.038469627
1732371395720,2024-11-23T14:16:35.720Z,153825,-0.0056322715,-0.012636465,-0.038469627
1732371395737,2024-11-23T14:16:35.737Z,153842,0.017893288,0.03192769,-0.05313676
1732371395739,2024-11-23T14:16:35.739Z,153844,0.017893288,0.03192769,-0.05313676
1732371395758,2024-11-23T14:16:35.758Z,153863,0.011002217,0.047997776,-0.076544
1732371395760,2024-11-23T14:16:35.760Z,153865,0.011002217,0.047997776,-0.076544
1732371395776,2024-11-23T14:16:35.776Z,153881,-0.029503595,0.083077654,-0.07508588
1732371395778,2024-11-23T14:16:35.778Z,153883,-0.029503595,0.083077654,-0.07508588
1732371395794,2024-11-23T14:16:35.794Z,153899,0.04307366,-0.08103428,-0.08127951
1732371395796,2024-11-23T14:16:35.796Z,153901,0.04307366,-0.08103428,-0.08127951
1732371395810,2024-11-23T14:16:35.810Z,153915,0.07562979,-0.040571358,-0.0021187968
1732371395812,2024-11-23T14:16:35.812Z,153917,0.07562979,-0.040571358,-0.0021187968
1732371395827,2024-11-23T14:16:35.827Z,153932,0.009294037,-0.018264191,-0.015240722
1732371395829,2024-11-23T14:16:35.829Z,153934,0.009294037,-0.018264191,-0.015240722
1732371395861,2024-11-23T14:16:35.861Z,153966,0.0358308,0.028691674,-0.06857234
1732371395866,2024-11-23T14:16:35.866Z,153971,0.0358308,0.028691674,-0.06857234
1732371395891,2024-11-23T14:16:35.891Z,153996,-0.0101718195,0.05435651,-0.08412536
1732371395894,2024-11-23T14:16:35.894Z,153999,-0.0101718195,0.05435651,-0.08412536
1732371395912,2024-11-23T14:16:35.912Z,154017,0.04949284,0.04368766,-0.046609808
1732371395915,2024-11-23T14:16:35.915Z,154020,0.04949284,0.04368766,-0.046609808
1732371395936,2024-11-23T14:16:35.936Z,154041,0.010452671,0.043357115,-0.09679973
1732371395939,2024-11-23T14:16:35.939Z,154044,0.010452671,0.043357115,-0.09679973
1732371395972,2024-11-23T14:16:35.972Z,154077,-0.020246731,0.06664795,-0.11274179
1732371395979,2024-11-23T14:16:35.979Z,154084,-0.020246731,0.06664795,-0.11274179
1732371396009,2024-11-23T14:16:36.009Z,154114,0.01359613,0.11236069,-0.04728918
1732371396012,2024-11-23T14:16:36.012Z,154117,0.01359613,0.11236069,-0.04728918
1732371396033,2024-11-23T14:16:36.033Z,154138,-0.0813182,0.13982058,-0.046701305
1732371396035,2024-11-23T14:16:36.035Z,154140,-0.0813182,0.13982058,-0.046701305
1732371396053,2024-11-23T14:16:36.053Z,154158,0.0022030983,0.12179635,-0.06306758
1732371396056,2024-11-23T14:16:36.056Z,154161,0.0022030983,0.12179635,-0.06306758
1732371396085,2024-11-23T14:16:36.085Z,154190,0.07288332,0.17774636,-0.016190164
1732371396091,2024-11-23T14:16:36.091Z,154196,0.07288332,0.17774636,-0.016190164
1732371396124,2024-11-23T14:16:36.124Z,154229,-0.016235579,0.23177345,-0.06908023
1732371396128,2024-11-23T14:16:36.128Z,154233,-0.016235579,0.23177345,-0.06908023
1732371396152,2024-11-23T14:16:36.152Z,154257,-0.03921667,0.15049157,-0.0323182
1732371396155,2024-11-23T14:16:36.155Z,154260,-0.03921667,0.15049157,-0.0323182
1732371396177,2024-11-23T14:16:36.177Z,154282,-0.023933781,0.12332289,-0.07192603
1732371396180,2024-11-23T14:16:36.180Z,154285,-0.023933781,0.12332289,-0.07192603
1732371396200,2024-11-23T14:16:36.200Z,154305,-0.0060422923,0.09247888,-0.068048224
1732371396202,2024-11-23T14:16:36.202Z,154307,-0.0060422923,0.09247888,-0.068048224
1732371396220,2024-11-23T14:16:36.220Z,154325,0.059704483,-0.0034031838,-0.09126729
1732371396222,2024-11-23T14:16:36.222Z,154327,0.059704483,-0.0034031838,-0.09126729
1732371396240,2024-11-23T14:16:36.240Z,154345,0.10838284,-0.07853706,-0.0129033495
1732371396243,2024-11-23T14:16:36.243Z,154348,0.10838284,-0.07853706,-0.0129033495
1732371396357,2024-11-23T14:16:36.357Z,154462,0.029924095,0.006034804,-0.011393579
1732371396362,2024-11-23T14:16:36.362Z,154467,0.029924095,0.006034804,-0.011393579
1732371396392,2024-11-23T14:16:36.392Z,154497,-0.050333522,0.024027674,-0.05133282
1732371396395,2024-11-23T14:16:36.395Z,154500,-0.050333522,0.024027674,-0.05133282
1732371396416,2024-11-23T14:16:36.416Z,154521,0.023918854,0.036749035,0.0025365485
1732371396419,2024-11-23T14:16:36.419Z,154524,0.023918854,0.036749035,0.0025365485
1732371396453,2024-11-23T14:16:36.453Z,154558,0.1202425,0.046896737,-0.013993205
1732371396458,2024-11-23T14:16:36.458Z,154563,0.1202425,0.046896737,-0.013993205
1732371396488,2024-11-23T14:16:36.488Z,154593,0.10628283,0.10749368,0.043251455
1732371396491,2024-11-23T14:16:36.491Z,154596,0.10628283,0.10749368,0.043251455
1732371396512,2024-11-23T14:16:36.512Z,154617,0.054907396,0.1432434,0.03671947
1732371396515,2024-11-23T14:16:36.515Z,154620,0.054907396,0.1432434,0.03671947
1732371396589,2024-11-23T14:16:36.589Z,154694,0.058111273,0.08285087,0.057502147
1732371396594,2024-11-23T14:16:36.594Z,154699,0.058111273,0.08285087,0.057502147
1732371396620,2024-11-23T14:16:36.620Z,154725,0.023772107,0.022048878,0.009875153
1732371396622,2024-11-23T14:16:36.622Z,154727,0.023772107,0.022048878,0.009875153
1732371396658,2024-11-23T14:16:36.658Z,154763,0.02162614,0.029520128,0.021512665
1732371396663,2024-11-23T14:16:36.663Z,154768,0.02162614,0.029520128,0.021512665
1732371396687,2024-11-23T14:16:36.687Z,154792,-0.0049646418,0.04290161,0.0026868936
1732371396691,2024-11-23T14:16:36.691Z,154796,-0.0049646418,0.04290161,0.0026868936
1732371396715,2024-11-23T14:16:36.715Z,154820,-0.022070661,-0.08189366,0.04830891
1732371396718,2024-11-23T14:16:36.718Z,154823,-0.022070661,-0.08189366,0.04830891
1732371396738,2024-11-23T14:16:36.738Z,154843,-0.056354757,-0.0043907342,0.022775926
1732371396740,2024-11-23T14:16:36.740Z,154845,-0.056354757,-0.0043907342,0.022775926
1732371396759,2024-11-23T14:16:36.759Z,154864,0.046218753,-0.0334183,0.02887682
1732371396762,2024-11-23T14:16:36.762Z,154867,0.046218753,-0.0334183,0.02887682
1732371396780,2024-11-23T14:16:36.780Z,154885,-0.011179159,-0.1260981,-0.022132376
1732371396782,2024-11-23T14:16:36.782Z,154887,-0.011179159,-0.1260981,-0.022132376
1732371396798,2024-11-23T14:16:36.798Z,154903,-0.022794329,-0.11035146,-0.0091952095
1732371396800,2024-11-23T14:16:36.800Z,154905,-0.022794329,-0.11035146,-0.0091952095
1732371396816,2024-11-23T14:16:36.816Z,154921,-0.044103783,-0.10130606,0.07869963
1732371396818,2024-11-23T14:16:36.818Z,154923,-0.044103783,-0.10130606,0.07869963
1732371396833,2024-11-23T14:16:36.833Z,154938,0.035090648,-0.10017808,7.1928056E-4
1732371396836,2024-11-23T14:16:36.836Z,154941,0.035090648,-0.10017808,7.1928056E-4
1732371396854,2024-11-23T14:16:36.854Z,154959,-0.040717304,-0.13142873,0.020526597
1732371396856,2024-11-23T14:16:36.856Z,154961,-0.040717304,-0.13142873,0.020526597
1732371396890,2024-11-23T14:16:36.890Z,154995,-0.0707517,-0.12701729,0.07059902
1732371396892,2024-11-23T14:16:36.892Z,154997,-0.0707517,-0.12701729,0.07059902
1732371396908,2024-11-23T14:16:36.908Z,155013,-0.085560024,-0.11858766,-0.012606792
1732371396910,2024-11-23T14:16:36.910Z,155015,-0.085560024,-0.11858766,-0.012606792
1732371396944,2024-11-23T14:16:36.944Z,155049,-0.041282214,-0.09106344,0.020103022
1732371396949,2024-11-23T14:16:36.949Z,155054,-0.041282214,-0.09106344,0.020103022
1732371396983,2024-11-23T14:16:36.983Z,155088,0.020852609,-0.10512546,0.06627506
1732371396988,2024-11-23T14:16:36.988Z,155093,0.020852609,-0.10512546,0.06627506
1732371397014,2024-11-23T14:16:37.014Z,155119,-0.0071794586,-0.06336486,-0.0029799982
1732371397017,2024-11-23T14:16:37.017Z,155122,-0.0071794586,-0.06336486,-0.0029799982
1732371397037,2024-11-23T14:16:37.037Z,155142,0.035945844,-0.07836133,0.046193857
1732371397039,2024-11-23T14:16:37.039Z,155144,0.035945844,-0.07836133,0.046193857
1732371397055,2024-11-23T14:16:37.055Z,155160,0.026797654,-0.085013956,0.03947906
1732371397057,2024-11-23T14:16:37.057Z,155162,0.026797654,-0.085013956,0.03947906
1732371397074,2024-11-23T14:16:37.074Z,155179,-0.015545995,-0.09616049,0.006692381
1732371397076,2024-11-23T14:16:37.076Z,155181,-0.015545995,-0.09616049,0.006692381
1732371397107,2024-11-23T14:16:37.107Z,155212,-0.017541446,-0.06133423,-0.0031423531
1732371397112,2024-11-23T14:16:37.112Z,155217,-0.017541446,-0.06133423,-0.0031423531
1732371397150,2024-11-23T14:16:37.150Z,155255,0.033847723,-0.055204708,0.04088919
1732371397155,2024-11-23T14:16:37.155Z,155260,0.033847723,-0.055204708,0.04088919
1732371397179,2024-11-23T14:16:37.179Z,155284,-0.023893837,-0.06361051,-0.03442546
1732371397182,2024-11-23T14:16:37.182Z,155287,-0.023893837,-0.06361051,-0.03442546
1732371397223,2024-11-23T14:16:37.223Z,155328,0.016993163,-0.046766814,-0.00670179
1732371397228,2024-11-23T14:16:37.228Z,155333,0.016993163,-0.046766814,-0.00670179
1732371397264,2024-11-23T14:16:37.264Z,155369,0.042910602,-0.073401116,0.013958512
1732371397267,2024-11-23T14:16:37.267Z,155372,0.042910602,-0.073401116,0.013958512
1732371397287,2024-11-23T14:16:37.287Z,155392,0.0051799966,-0.045855507,-0.008920667
1732371397290,2024-11-23T14:16:37.290Z,155395,0.0051799966,-0.045855507,-0.008920667
1732371397311,2024-11-23T14:16:37.311Z,155416,0.01427081,-0.060717292,-0.02751979
1732371397314,2024-11-23T14:16:37.314Z,155419,0.01427081,-0.060717292,-0.02751979
1732371397338,2024-11-23T14:16:37.338Z,155443,4.5315005E-4,-0.05565467,-0.03762536
1732371397342,2024-11-23T14:16:37.342Z,155447,4.5315005E-4,-0.05565467,-0.03762536
1732371397388,2024-11-23T14:16:37.388Z,155493,0.01345675,-0.0094283605,0.05233619
1732371397391,2024-11-23T14:16:37.391Z,155496,0.01345675,-0.0094283605,0.05233619
1732371397414,2024-11-23T14:16:37.414Z,155519,0.027156265,0.002402213,0.017054977
1732371397417,2024-11-23T14:16:37.417Z,155522,0.027156265,0.002402213,0.017054977
1732371397440,2024-11-23T14:16:37.440Z,155545,-0.06894019,-0.05933725,0.016240818
1732371397444,2024-11-23T14:16:37.444Z,155549,-0.06894019,-0.05933725,0.016240818
1732371397584,2024-11-23T14:16:37.584Z,155689,-0.09776867,-0.10298893,-0.024191912
1732371397590,2024-11-23T14:16:37.590Z,155695,-0.09776867,-0.10298893,-0.024191912
1732371397616,2024-11-23T14:16:37.616Z,155721,0.017146401,-0.09116059,-0.035871886
1732371397619,2024-11-23T14:16:37.619Z,155724,0.017146401,-0.09116059,-0.035871886
1732371397643,2024-11-23T14:16:37.643Z,155748,-0.04028647,-0.1372,0.022496874
1732371397647,2024-11-23T14:16:37.647Z,155752,-0.04028647,-0.1372,0.022496874
1732371397672,2024-11-23T14:16:37.672Z,155777,-0.0025610428,-0.04482585,-0.026057696
1732371397675,2024-11-23T14:16:37.675Z,155780,-0.0025610428,-0.04482585,-0.026057696
1732371397697,2024-11-23T14:16:37.697Z,155802,0.040073484,-0.017500795,-0.035873283
1732371397700,2024-11-23T14:16:37.700Z,155805,0.040073484,-0.017500795,-0.035873283
1732371397718,2024-11-23T14:16:37.718Z,155823,0.03898526,0.0020975359,0.013121804
1732371397720,2024-11-23T14:16:37.720Z,155825,0.03898526,0.0020975359,0.013121804
1732371397903,2024-11-23T14:16:37.903Z,156008,0.012727574,-0.018781355,0.027145606
1732371397910,2024-11-23T14:16:37.910Z,156015,0.012727574,-0.018781355,0.027145606
1732371397954,2024-11-23T14:16:37.954Z,156059,0.019497706,-0.016850306,0.012452983
1732371397960,2024-11-23T14:16:37.960Z,156065,0.019497706,-0.016850306,0.012452983
1732371398039,2024-11-23T14:16:38.039Z,156144,0.022829508,-0.02272436,0.0124332905
1732371398046,2024-11-23T14:16:38.046Z,156151,0.022829508,-0.02272436,0.0124332905
1732371398089,2024-11-23T14:16:38.089Z,156194,-0.0046908893,-0.040799208,-0.03542593
1732371398093,2024-11-23T14:16:38.093Z,156198,-0.0046908893,-0.040799208,-0.03542593
1732371398117,2024-11-23T14:16:38.117Z,156222,0.016117629,-0.038347304,-0.015843598
1732371398121,2024-11-23T14:16:38.121Z,156226,0.016117629,-0.038347304,-0.015843598
1732371398215,2024-11-23T14:16:38.215Z,156320,0.02480822,-0.016431168,0.01375338
1732371398221,2024-11-23T14:16:38.221Z,156326,0.02480822,-0.016431168,0.01375338
1732371398254,2024-11-23T14:16:38.254Z,156359,0.010439566,-0.00863336,-0.0024953764
1732371398257,2024-11-23T14:16:38.257Z,156362,0.010439566,-0.00863336,-0.0024953764
1732371398279,2024-11-23T14:16:38.279Z,156384,-0.03609265,-0.16534135,0.056263298
1732371398282,2024-11-23T14:16:38.282Z,156387,-0.03609265,-0.16534135,0.056263298
1732371398303,2024-11-23T14:16:38.303Z,156408,-0.022612816,-0.123536006,0.07600551
1732371398306,2024-11-23T14:16:38.306Z,156411,-0.022612816,-0.123536006,0.07600551
1732371398326,2024-11-23T14:16:38.326Z,156431,-0.030000482,-0.102749504,0.04837776
1732371398328,2024-11-23T14:16:38.328Z,156433,-0.030000482,-0.102749504,0.04837776
1732371398346,2024-11-23T14:16:38.346Z,156451,-0.018302264,-0.10883867,0.054135736
1732371398349,2024-11-23T14:16:38.349Z,156454,-0.018302264,-0.10883867,0.054135736
1732371398530,2024-11-23T14:16:38.530Z,156635,-0.043927863,-0.050971903,0.018710557
1732371398535,2024-11-23T14:16:38.535Z,156640,-0.043927863,-0.050971903,0.018710557
1732371398575,2024-11-23T14:16:38.575Z,156680,-0.054359455,-0.014854685,0.012500039
1732371398581,2024-11-23T14:16:38.581Z,156686,-0.054359455,-0.014854685,0.012500039
1732371398608,2024-11-23T14:16:38.608Z,156713,0.015511423,-0.0260337,0.029688135
1732371398611,2024-11-23T14:16:38.611Z,156716,0.015511423,-0.0260337,0.029688135
1732371398634,2024-11-23T14:16:38.634Z,156739,0.006876313,0.0038018995,0.035363145
1732371398637,2024-11-23T14:16:38.637Z,156742,0.006876313,0.0038018995,0.035363145
1732371398669,2024-11-23T14:16:38.669Z,156774,0.02691153,-0.0022223047,0.008227947
1732371398674,2024-11-23T14:16:38.674Z,156779,0.02691153,-0.0022223047,0.008227947
1732371398714,2024-11-23T14:16:38.714Z,156819,0.026814817,-0.005730613,0.012095659
1732371398719,2024-11-23T14:16:38.719Z,156824,0.026814817,-0.005730613,0.012095659
1732371398758,2024-11-23T14:16:38.758Z,156863,0.042961754,0.0406123,0.026225872
1732371398763,2024-11-23T14:16:38.763Z,156868,0.042961754,0.0406123,0.026225872
1732371398799,2024-11-23T14:16:38.799Z,156904,0.08053363,0.054292914,0.053315464
1732371398805,2024-11-23T14:16:38.805Z,156910,0.08053363,0.054292914,0.053315464
1732371398829,2024-11-23T14:16:38.829Z,156934,0.050238825,0.106133044,-0.0040902146
1732371398832,2024-11-23T14:16:38.832Z,156937,0.050238825,0.106133044,-0.0040902146
1732371398854,2024-11-23T14:16:38.854Z,156959,0.05606591,0.014147403,0.025442604
1732371398857,2024-11-23T14:16:38.857Z,156962,0.05606591,0.014147403,0.025442604
1732371398879,2024-11-23T14:16:38.879Z,156984,0.023531491,0.0046797544,-0.024639994
1732371398881,2024-11-23T14:16:38.881Z,156986,0.023531491,0.0046797544,-0.024639994
1732371398900,2024-11-23T14:16:38.900Z,157005,0.053158566,0.013041405,-0.034350086
1732371398902,2024-11-23T14:16:38.902Z,157007,0.053158566,0.013041405,-0.034350086
1732371398934,2024-11-23T14:16:38.934Z,157039,-0.035699587,-0.015906906,-0.01377272
1732371398939,2024-11-23T14:16:38.939Z,157044,-0.035699587,-0.015906906,-0.01377272
1732371398978,2024-11-23T14:16:38.978Z,157083,0.019477284,0.0300581,-0.052232105
1732371398984,2024-11-23T14:16:38.984Z,157089,0.019477284,0.0300581,-0.052232105
1732371399010,2024-11-23T14:16:39.010Z,157115,-0.023593608,0.040303733,-0.10538768
1732371399013,2024-11-23T14:16:39.013Z,157118,-0.023593608,0.040303733,-0.10538768
1732371399055,2024-11-23T14:16:39.055Z,157160,-9.1291295E-4,-0.0012673322,-0.07414388
1732371399058,2024-11-23T14:16:39.058Z,157163,-9.1291295E-4,-0.0012673322,-0.07414388
1732371399080,2024-11-23T14:16:39.080Z,157185,-0.016094254,-0.035815943,-0.031766526
1732371399083,2024-11-23T14:16:39.083Z,157188,-0.016094254,-0.035815943,-0.031766526
1732371399120,2024-11-23T14:16:39.120Z,157225,-0.008810935,-0.07205725,-0.053913824
1732371399125,2024-11-23T14:16:39.125Z,157230,-0.008810935,-0.07205725,-0.053913824
1732371399159,2024-11-23T14:16:39.159Z,157264,-0.030253764,-0.046544507,-0.030664502
1732371399162,2024-11-23T14:16:39.162Z,157267,-0.030253764,-0.046544507,-0.030664502
1732371399252,2024-11-23T14:16:39.252Z,157357,0.0044818553,0.013060465,-0.050659228
1732371399258,2024-11-23T14:16:39.258Z,157363,0.0044818553,0.013060465,-0.050659228
1732371399297,2024-11-23T14:16:39.297Z,157402,-0.025387319,0.030793877,-0.08699202
1732371399302,2024-11-23T14:16:39.302Z,157407,-0.025387319,0.030793877,-0.08699202
1732371399331,2024-11-23T14:16:39.331Z,157436,0.042991076,0.042656057,0.062663026
1732371399334,2024-11-23T14:16:39.334Z,157439,0.042991076,0.042656057,0.062663026
1732371399372,2024-11-23T14:16:39.372Z,157477,0.014175945,0.14777553,-0.012240934
1732371399378,2024-11-23T14:16:39.378Z,157483,0.014175945,0.14777553,-0.012240934
1732371399420,2024-11-23T14:16:39.420Z,157525,0.03198176,0.10683294,-0.07327031
1732371399427,2024-11-23T14:16:39.427Z,157532,0.03198176,0.10683294,-0.07327031
1732371399459,2024-11-23T14:16:39.459Z,157564,0.028678035,-0.0058572297,-0.0649134
1732371399462,2024-11-23T14:16:39.462Z,157567,0.028678035,-0.0058572297,-0.0649134
1732371399485,2024-11-23T14:16:39.485Z,157590,0.0382299,0.06166468,0.0023800891
1732371399489,2024-11-23T14:16:39.489Z,157594,0.0382299,0.06166468,0.0023800891
1732371399513,2024-11-23T14:16:39.513Z,157618,0.048068937,0.07361088,-0.014696087
1732371399516,2024-11-23T14:16:39.516Z,157621,0.048068937,0.07361088,-0.014696087
1732371399538,2024-11-23T14:16:39.538Z,157643,0.05214138,0.10536255,-0.091255896
1732371399540,2024-11-23T14:16:39.540Z,157645,0.05214138,0.10536255,-0.091255896
1732371399560,2024-11-23T14:16:39.560Z,157665,0.09706326,0.049694944,-0.07547787
1732371399563,2024-11-23T14:16:39.563Z,157668,0.09706326,0.049694944,-0.07547787
1732371399584,2024-11-23T14:16:39.584Z,157689,0.033795986,0.037085123,0.017729037
1732371399587,2024-11-23T14:16:39.587Z,157692,0.033795986,0.037085123,0.017729037
1732371399608,2024-11-23T14:16:39.608Z,157713,-0.18608727,0.07916917,-0.13408695
1732371399610,2024-11-23T14:16:39.610Z,157715,-0.18608727,0.07916917,-0.13408695
1732371399635,2024-11-23T14:16:39.635Z,157740,0.041170597,-0.0543217,-0.12446743
1732371399637,2024-11-23T14:16:39.637Z,157742,0.041170597,-0.0543217,-0.12446743
1732371399650,2024-11-23T14:16:39.650Z,157755,-0.06306731,-0.04609036,-0.06491631
1732371399652,2024-11-23T14:16:39.652Z,157757,-0.06306731,-0.04609036,-0.06491631
1732371399666,2024-11-23T14:16:39.666Z,157771,-0.072185226,0.06593434,-0.12747112
1732371399668,2024-11-23T14:16:39.668Z,157773,-0.072185226,0.06593434,-0.12747112
1732371399685,2024-11-23T14:16:39.685Z,157790,-0.043201882,0.07797847,-0.10175831
1732371399687,2024-11-23T14:16:39.687Z,157792,-0.043201882,0.07797847,-0.10175831
1732371399705,2024-11-23T14:16:39.705Z,157810,-0.019178052,0.06460934,-0.07366227
1732371399709,2024-11-23T14:16:39.709Z,157814,-0.019178052,0.06460934,-0.07366227
1732371399725,2024-11-23T14:16:39.725Z,157830,0.0039852844,0.06431312,-0.056810852
1732371399728,2024-11-23T14:16:39.728Z,157833,0.0039852844,0.06431312,-0.056810852
1732371399770,2024-11-23T14:16:39.770Z,157875,-0.08489439,0.02382783,-0.0562866
1732371399777,2024-11-23T14:16:39.777Z,157882,-0.08489439,0.02382783,-0.0562866
1732371399819,2024-11-23T14:16:39.819Z,157924,0.07267949,0.029480547,-0.047966048
1732371399825,2024-11-23T14:16:39.825Z,157930,0.07267949,0.029480547,-0.047966048
1732371399852,2024-11-23T14:16:39.852Z,157957,-0.08387951,0.02028529,-0.050769955
1732371399855,2024-11-23T14:16:39.855Z,157960,-0.08387951,0.02028529,-0.050769955
1732371399877,2024-11-23T14:16:39.877Z,157982,-0.11214485,0.0134966215,-0.02270356
1732371399880,2024-11-23T14:16:39.880Z,157985,-0.11214485,0.0134966215,-0.02270356
1732371399913,2024-11-23T14:16:39.913Z,158018,-0.07922035,0.02867164,-0.106424205
1732371399916,2024-11-23T14:16:39.916Z,158021,-0.07922035,0.02867164,-0.106424205
1732371399937,2024-11-23T14:16:39.937Z,158042,-0.067906015,0.01013963,-0.053910047
1732371399940,2024-11-23T14:16:39.940Z,158045,-0.067906015,0.01013963,-0.053910047
1732371399960,2024-11-23T14:16:39.960Z,158065,0.0048494516,-0.017697236,-0.018776212
1732371399962,2024-11-23T14:16:39.962Z,158067,0.0048494516,-0.017697236,-0.018776212
1732371399994,2024-11-23T14:16:39.994Z,158099,-0.058739103,-0.0053608776,-0.042281773
1732371400000,2024-11-23T14:16:40Z,158105,-0.058739103,-0.0053608776,-0.042281773
1732371400035,2024-11-23T14:16:40.035Z,158140,-0.064679556,-0.010600585,-0.015124159
1732371400038,2024-11-23T14:16:40.038Z,158143,-0.064679556,-0.010600585,-0.015124159
1732371400060,2024-11-23T14:16:40.060Z,158165,-0.010739114,-0.02157071,-0.014369614
1732371400063,2024-11-23T14:16:40.063Z,158168,-0.010739114,-0.02157071,-0.014369614
1732371400084,2024-11-23T14:16:40.084Z,158189,0.008951798,0.0041889455,0.009343366
1732371400087,2024-11-23T14:16:40.087Z,158192,0.008951798,0.0041889455,0.009343366
1732371400106,2024-11-23T14:16:40.106Z,158211,-0.077936776,0.06877125,-0.06773404
1732371400110,2024-11-23T14:16:40.110Z,158215,-0.077936776,0.06877125,-0.06773404
1732371400128,2024-11-23T14:16:40.128Z,158233,-0.13504894,0.14269298,-0.17280099
1732371400130,2024-11-23T14:16:40.130Z,158235,-0.13504894,0.14269298,-0.17280099
1732371400159,2024-11-23T14:16:40.159Z,158264,-0.017065419,0.11188768,-0.2193889
1732371400163,2024-11-23T14:16:40.163Z,158268,-0.017065419,0.11188768,-0.2193889
1732371400194,2024-11-23T14:16:40.194Z,158299,0.14862011,0.07512444,-0.1030681
1732371400196,2024-11-23T14:16:40.196Z,158301,0.14862011,0.07512444,-0.1030681
1732371400222,2024-11-23T14:16:40.222Z,158327,0.092299044,0.16605957,-0.14323361
1732371400225,2024-11-23T14:16:40.225Z,158330,0.092299044,0.16605957,-0.14323361
1732371400244,2024-11-23T14:16:40.244Z,158349,0.08516741,0.17469394,-0.12898579
1732371400246,2024-11-23T14:16:40.246Z,158351,0.08516741,0.17469394,-0.12898579
1732371400264,2024-11-23T14:16:40.264Z,158369,0.18671748,0.3001684,-0.15468147
1732371400266,2024-11-23T14:16:40.266Z,158371,0.18671748,0.3001684,-0.15468147
1732371400282,2024-11-23T14:16:40.282Z,158387,0.25073698,0.28023952,-0.17434731
1732371400284,2024-11-23T14:16:40.284Z,158389,0.25073698,0.28023952,-0.17434731
1732371400299,2024-11-23T14:16:40.299Z,158404,0.182956,0.25694698,-0.20513554
1732371400302,2024-11-23T14:16:40.302Z,158407,0.182956,0.25694698,-0.20513554
1732371400318,2024-11-23T14:16:40.318Z,158423,-0.0030016967,-0.0244119,0.0632883
1732371400320,2024-11-23T14:16:40.320Z,158425,-0.0030016967,-0.0244119,0.0632883
1732371400334,2024-11-23T14:16:40.334Z,158439,0.10341959,-0.078985274,0.111085154
1732371400336,2024-11-23T14:16:40.336Z,158441,0.10341959,-0.078985274,0.111085154
1732371400351,2024-11-23T14:16:40.351Z,158456,0.0113208005,-0.045070134,0.026928524
1732371400353,2024-11-23T14:16:40.353Z,158458,0.0113208005,-0.045070134,0.026928524
1732371400368,2024-11-23T14:16:40.368Z,158473,-0.027959934,-0.010476301,0.0112886485
1732371400371,2024-11-23T14:16:40.371Z,158476,-0.027959934,-0.010476301,0.0112886485
1732371400386,2024-11-23T14:16:40.386Z,158491,0.017597971,0.08188705,0.030755283
1732371400388,2024-11-23T14:16:40.388Z,158493,0.017597971,0.08188705,0.030755283
1732371400405,2024-11-23T14:16:40.405Z,158510,0.09670738,0.023466554,0.12486684
1732371400407,2024-11-23T14:16:40.407Z,158512,0.09670738,0.023466554,0.12486684
1732371400421,2024-11-23T14:16:40.421Z,158526,0.1351847,0.14374189,-0.025143372
1732371400423,2024-11-23T14:16:40.423Z,158528,0.1351847,0.14374189,-0.025143372
1732371400440,2024-11-23T14:16:40.440Z,158545,0.08728447,-0.0027623214,-0.05633816
1732371400442,2024-11-23T14:16:40.442Z,158547,0.08728447,-0.0027623214,-0.05633816
1732371400458,2024-11-23T14:16:40.458Z,158563,0.048263434,-0.011657083,-0.07493221
1732371400460,2024-11-23T14:16:40.460Z,158565,0.048263434,-0.011657083,-0.07493221
1732371400627,2024-11-23T14:16:40.627Z,158732,0.06915061,-0.0058242627,0.063542776
1732371400629,2024-11-23T14:16:40.629Z,158734,0.06915061,-0.0058242627,0.063542776
1732371400645,2024-11-23T14:16:40.645Z,158750,0.0656476,0.0015290258,-0.03598463
1732371400647,2024-11-23T14:16:40.647Z,158752,0.0656476,0.0015290258,-0.03598463
1732371400672,2024-11-23T14:16:40.672Z,158777,0.082482986,0.03172882,-0.056760605
1732371400675,2024-11-23T14:16:40.675Z,158780,0.082482986,0.03172882,-0.056760605
1732371400689,2024-11-23T14:16:40.689Z,158794,0.111698605,0.047367416,-0.052126016
1732371400691,2024-11-23T14:16:40.691Z,158796,0.111698605,0.047367416,-0.052126016
1732371400705,2024-11-23T14:16:40.705Z,158810,0.036620427,0.053779155,-0.04072009
1732371400707,2024-11-23T14:16:40.707Z,158812,0.036620427,0.053779155,-0.04072009
1732371400776,2024-11-23T14:16:40.776Z,158881,0.0072737886,0.068512864,-0.055092562
1732371400781,2024-11-23T14:16:40.781Z,158886,0.0072737886,0.068512864,-0.055092562
1732371400860,2024-11-23T14:16:40.860Z,158965,0.020294625,0.08402708,0.06435583
1732371400864,2024-11-23T14:16:40.864Z,158969,0.020294625,0.08402708,0.06435583
1732371400884,2024-11-23T14:16:40.884Z,158989,0.10773622,-0.025933243,0.075510554
1732371400887,2024-11-23T14:16:40.887Z,158992,0.10773622,-0.025933243,0.075510554
1732371400992,2024-11-23T14:16:40.992Z,159097,0.098266825,-0.0886693,0.0033406292
1732371400996,2024-11-23T14:16:40.996Z,159101,0.098266825,-0.0886693,0.0033406292
1732371401014,2024-11-23T14:16:41.014Z,159119,-0.0039617987,-0.106656335,0.04915015
1732371401016,2024-11-23T14:16:41.016Z,159121,-0.0039617987,-0.106656335,0.04915015
1732371401032,2024-11-23T14:16:41.032Z,159137,0.0035532857,-0.048948858,0.06510529
1732371401033,2024-11-23T14:16:41.033Z,159138,0.0035532857,-0.048948858,0.06510529
1732371401051,2024-11-23T14:16:41.051Z,159156,0.031369876,-0.12671572,0.05630876
1732371401058,2024-11-23T14:16:41.058Z,159163,0.031369876,-0.12671572,0.05630876
1732371401074,2024-11-23T14:16:41.074Z,159179,-0.046815537,-0.1690174,0.012485926
1732371401077,2024-11-23T14:16:41.077Z,159182,-0.046815537,-0.1690174,0.012485926
1732371401095,2024-11-23T14:16:41.095Z,159200,-0.020183787,-0.2304554,0.13545476
1732371401097,2024-11-23T14:16:41.097Z,159202,-0.020183787,-0.2304554,0.13545476
1732371401111,2024-11-23T14:16:41.111Z,159216,-0.062263433,-0.26899913,0.12068777
1732371401112,2024-11-23T14:16:41.112Z,159217,-0.062263433,-0.26899913,0.12068777
1732371401128,2024-11-23T14:16:41.128Z,159233,-0.034925118,-0.15643375,0.049892258
1732371401130,2024-11-23T14:16:41.130Z,159235,-0.034925118,-0.15643375,0.049892258
1732371401145,2024-11-23T14:16:41.145Z,159250,-0.02226326,-0.10640942,0.063138805
1732371401147,2024-11-23T14:16:41.147Z,159252,-0.02226326,-0.10640942,0.063138805
