Timestamp (ms),ISO DateTime,Elapsed Time (ms),Acceleration X,Acceleration Y,Acceleration Z
1732438726035,2024-11-24T08:58:46.035Z,25993,-0.010437062,-0.035767224,-0.22739154
1732438726042,2024-11-24T08:58:46.042Z,26000,-0.010437062,-0.035767224,-0.22739154
1732438726064,2024-11-24T08:58:46.064Z,26022,-0.015135585,-0.0364323,-0.21864578
1732438726069,2024-11-24T08:58:46.069Z,26027,-0.015135585,-0.0364323,-0.21864578
1732438726086,2024-11-24T08:58:46.086Z,26044,-0.015517745,-0.03811916,-0.21823758
1732438726091,2024-11-24T08:58:46.091Z,26049,-0.015517745,-0.03811916,-0.21823758
1732438726117,2024-11-24T08:58:46.117Z,26075,-0.013994092,-0.041320067,-0.21151246
1732438726121,2024-11-24T08:58:46.121Z,26079,-0.013994092,-0.041320067,-0.21151246
1732438726136,2024-11-24T08:58:46.136Z,26094,-0.017804988,-0.043189462,-0.19475134
1732438726141,2024-11-24T08:58:46.141Z,26099,-0.017804988,-0.043189462,-0.19475134
1732438726154,2024-11-24T08:58:46.154Z,26112,-0.017743453,-0.045176134,-0.18749851
1732438726159,2024-11-24T08:58:46.159Z,26117,-0.017743453,-0.045176134,-0.18749851
1732438726170,2024-11-24T08:58:46.170Z,26128,-0.015746934,-0.049148217,-0.19634728
1732438726174,2024-11-24T08:58:46.174Z,26132,-0.015746934,-0.049148217,-0.19634728
1732438726185,2024-11-24T08:58:46.185Z,26143,-0.03706181,-0.050752707,-0.1969072
1732438726188,2024-11-24T08:58:46.188Z,26146,-0.03706181,-0.050752707,-0.1969072
1732438726200,2024-11-24T08:58:46.200Z,26158,-0.026332129,-0.057273652,-0.18829906
1732438726204,2024-11-24T08:58:46.204Z,26162,-0.026332129,-0.057273652,-0.18829906
1732438726217,2024-11-24T08:58:46.217Z,26175,-0.02299889,-0.051733647,-0.17079687
1732438726221,2024-11-24T08:58:46.221Z,26179,-0.02299889,-0.051733647,-0.17079687
1732438726253,2024-11-24T08:58:46.253Z,26211,-0.013352111,-0.043378703,-0.1552401
1732438726258,2024-11-24T08:58:46.258Z,26216,-0.013352111,-0.043378703,-0.1552401
1732438726269,2024-11-24T08:58:46.269Z,26227,-0.026966184,-0.040701378,-0.1663947
1732438726273,2024-11-24T08:58:46.273Z,26231,-0.026966184,-0.040701378,-0.1663947
1732438726295,2024-11-24T08:58:46.295Z,26253,-0.009585975,-0.037023664,-0.15122257
1732438726299,2024-11-24T08:58:46.299Z,26257,-0.009585975,-0.037023664,-0.15122257
1732438726310,2024-11-24T08:58:46.310Z,26268,-0.004322807,-0.01389203,-0.13669209
1732438726314,2024-11-24T08:58:46.314Z,26272,-0.004322807,-0.01389203,-0.13669209
1732438726329,2024-11-24T08:58:46.329Z,26287,-1.3772708E-4,-0.014228313,-0.12689884
1732438726332,2024-11-24T08:58:46.332Z,26290,-1.3772708E-4,-0.014228313,-0.12689884
1732438726345,2024-11-24T08:58:46.345Z,26303,0.004917258,-0.010234447,-0.11737069
1732438726348,2024-11-24T08:58:46.348Z,26306,0.004917258,-0.010234447,-0.11737069
1732438726363,2024-11-24T08:58:46.363Z,26321,0.0055241566,0.011354935,-0.10346722
1732438726367,2024-11-24T08:58:46.367Z,26325,0.0055241566,0.011354935,-0.10346722
1732438726380,2024-11-24T08:58:46.380Z,26338,0.01361637,0.012559251,-0.08504642
1732438726386,2024-11-24T08:58:46.386Z,26344,0.01361637,0.012559251,-0.08504642
1732438726397,2024-11-24T08:58:46.397Z,26355,0.013287721,0.007881636,-0.08877667
1732438726404,2024-11-24T08:58:46.404Z,26362,0.013287721,0.007881636,-0.08877667
1732438726417,2024-11-24T08:58:46.417Z,26375,0.014059017,0.01165154,-0.07593511
1732438726420,2024-11-24T08:58:46.420Z,26378,0.014059017,0.01165154,-0.07593511
1732438726431,2024-11-24T08:58:46.431Z,26389,0.020019524,0.0068220245,-0.07297381
1732438726435,2024-11-24T08:58:46.435Z,26393,0.020019524,0.0068220245,-0.07297381
1732438726448,2024-11-24T08:58:46.448Z,26406,0.0031867833,0.007873759,-0.08635855
1732438726453,2024-11-24T08:58:46.453Z,26411,0.0031867833,0.007873759,-0.08635855
1732438726465,2024-11-24T08:58:46.465Z,26423,0.016171237,-0.0060795383,-0.07446337
1732438726469,2024-11-24T08:58:46.469Z,26427,0.016171237,-0.0060795383,-0.07446337
1732438726481,2024-11-24T08:58:46.481Z,26439,0.014362017,-0.0036055562,-0.07539266
1732438726485,2024-11-24T08:58:46.485Z,26443,0.014362017,-0.0036055562,-0.07539266
1732438726496,2024-11-24T08:58:46.496Z,26454,0.009212264,-0.01139928,-0.075318225
1732438726500,2024-11-24T08:58:46.500Z,26458,0.009212264,-0.01139928,-0.075318225
1732438726516,2024-11-24T08:58:46.516Z,26474,0.005095902,-0.011338111,-0.06609345
1732438726522,2024-11-24T08:58:46.522Z,26480,0.005095902,-0.011338111,-0.06609345
1732438726536,2024-11-24T08:58:46.536Z,26494,0.01355277,-0.01285887,-0.062945075
1732438726540,2024-11-24T08:58:46.540Z,26498,0.01355277,-0.01285887,-0.062945075
1732438726552,2024-11-24T08:58:46.552Z,26510,-3.1972618E-4,-0.022200486,-0.07043945
1732438726555,2024-11-24T08:58:46.555Z,26513,-3.1972618E-4,-0.022200486,-0.07043945
1732438726567,2024-11-24T08:58:46.567Z,26525,0.0068210154,-0.019462768,-0.070345044
1732438726570,2024-11-24T08:58:46.570Z,26528,0.0068210154,-0.019462768,-0.070345044
1732438726582,2024-11-24T08:58:46.582Z,26540,0.0016147497,-0.016180659,-0.06997371
1732438726587,2024-11-24T08:58:46.587Z,26545,0.0016147497,-0.016180659,-0.06997371
1732438726600,2024-11-24T08:58:46.600Z,26558,0.0072365426,-0.01875821,-0.06853372
1732438726603,2024-11-24T08:58:46.603Z,26561,0.0072365426,-0.01875821,-0.06853372
1732438726617,2024-11-24T08:58:46.617Z,26575,0.0010881047,-0.019133488,-0.06892356
1732438726621,2024-11-24T08:58:46.621Z,26579,0.0010881047,-0.019133488,-0.06892356
1732438726634,2024-11-24T08:58:46.634Z,26592,0.011088124,-0.011429329,-0.068288326
1732438726639,2024-11-24T08:58:46.639Z,26597,0.011088124,-0.011429329,-0.068288326
1732438726654,2024-11-24T08:58:46.654Z,26612,0.0031506922,-0.013500512,-0.07194791
1732438726659,2024-11-24T08:58:46.659Z,26617,0.0031506922,-0.013500512,-0.07194791
1732438726670,2024-11-24T08:58:46.670Z,26628,0.0053563192,-6.621597E-4,-0.060204834
1732438726674,2024-11-24T08:58:46.674Z,26632,0.0053563192,-6.621597E-4,-0.060204834
1732438726694,2024-11-24T08:58:46.694Z,26652,0.010242397,-0.0028867985,-0.06297473
1732438726703,2024-11-24T08:58:46.703Z,26661,0.010242397,-0.0028867985,-0.06297473
1732438726725,2024-11-24T08:58:46.725Z,26683,-0.006663,-0.003226193,-0.050747883
1732438726732,2024-11-24T08:58:46.732Z,26690,-0.006663,-0.003226193,-0.050747883
1732438726747,2024-11-24T08:58:46.747Z,26705,-0.0013964165,6.8063673E-4,-0.061360754
1732438726752,2024-11-24T08:58:46.752Z,26710,-0.0013964165,6.8063673E-4,-0.061360754
1732438726766,2024-11-24T08:58:46.766Z,26724,0.008652481,0.0047562886,-0.053799722
1732438726770,2024-11-24T08:58:46.770Z,26728,0.008652481,0.0047562886,-0.053799722
1732438726785,2024-11-24T08:58:46.785Z,26743,0.012861217,0.0068600485,-0.05607629
1732438726789,2024-11-24T08:58:46.789Z,26747,0.012861217,0.0068600485,-0.05607629
1732438726805,2024-11-24T08:58:46.805Z,26763,0.001504495,0.01294863,-0.055344317
1732438726809,2024-11-24T08:58:46.809Z,26767,0.001504495,0.01294863,-0.055344317
1732438726824,2024-11-24T08:58:46.824Z,26782,0.007804907,0.018391002,-0.044686772
1732438726828,2024-11-24T08:58:46.828Z,26786,0.007804907,0.018391002,-0.044686772
1732438726841,2024-11-24T08:58:46.841Z,26799,0.011215056,0.019865083,-0.033828795
1732438726845,2024-11-24T08:58:46.845Z,26803,0.011215056,0.019865083,-0.033828795
1732438726858,2024-11-24T08:58:46.858Z,26816,0.010667941,0.01592791,-0.04318806
1732438726862,2024-11-24T08:58:46.862Z,26820,0.010667941,0.01592791,-0.04318806
1732438726875,2024-11-24T08:58:46.875Z,26833,0.00951609,0.01742183,-0.04949781
1732438726880,2024-11-24T08:58:46.880Z,26838,0.00951609,0.01742183,-0.04949781
1732438726893,2024-11-24T08:58:46.893Z,26851,-8.1303954E-4,0.01698237,-0.06046164
1732438726897,2024-11-24T08:58:46.897Z,26855,-8.1303954E-4,0.01698237,-0.06046164
1732438726911,2024-11-24T08:58:46.911Z,26869,0.014148388,0.014592701,-0.04613287
1732438726915,2024-11-24T08:58:46.915Z,26873,0.014148388,0.014592701,-0.04613287
1732438726935,2024-11-24T08:58:46.935Z,26893,-0.0022576058,0.014095765,-0.031206159
1732438726943,2024-11-24T08:58:46.943Z,26901,-0.0022576058,0.014095765,-0.031206159
1732438726967,2024-11-24T08:58:46.967Z,26925,-0.0047707297,0.008165696,-0.026221849
1732438726971,2024-11-24T08:58:46.971Z,26929,-0.0047707297,0.008165696,-0.026221849
1732438726984,2024-11-24T08:58:46.984Z,26942,-0.0013352841,0.008054639,-0.02623549
1732438726989,2024-11-24T08:58:46.989Z,26947,-0.0013352841,0.008054639,-0.02623549
1732438727001,2024-11-24T08:58:47.001Z,26959,-0.009465314,0.004384997,-0.039935004
1732438727005,2024-11-24T08:58:47.005Z,26963,-0.009465314,0.004384997,-0.039935004
1732438727018,2024-11-24T08:58:47.018Z,26976,-0.017208008,8.6686615E-4,-0.04323778
1732438727022,2024-11-24T08:58:47.022Z,26980,-0.017208008,8.6686615E-4,-0.04323778
1732438727032,2024-11-24T08:58:47.032Z,26990,-0.0036579485,7.8605325E-4,-0.025668984
1732438727036,2024-11-24T08:58:47.036Z,26994,-0.0036579485,7.8605325E-4,-0.025668984
1732438727049,2024-11-24T08:58:47.049Z,27007,-0.019411275,0.0019009011,-0.005977817
1732438727052,2024-11-24T08:58:47.052Z,27010,-0.019411275,0.0019009011,-0.005977817
1732438727066,2024-11-24T08:58:47.066Z,27024,-0.018815901,0.0031998388,0.0016354755
1732438727073,2024-11-24T08:58:47.073Z,27031,-0.018815901,0.0031998388,0.0016354755
1732438727086,2024-11-24T08:58:47.086Z,27044,-0.030818505,0.002024892,-0.0093638245
1732438727090,2024-11-24T08:58:47.090Z,27048,-0.030818505,0.002024892,-0.0093638245
1732438727101,2024-11-24T08:58:47.101Z,27059,-0.038525727,0.0113815805,-0.0028761134
1732438727104,2024-11-24T08:58:47.104Z,27062,-0.038525727,0.0113815805,-0.0028761134
1732438727113,2024-11-24T08:58:47.113Z,27071,-0.021757912,0.017030312,0.023128083
1732438727116,2024-11-24T08:58:47.116Z,27074,-0.021757912,0.017030312,0.023128083
1732438727127,2024-11-24T08:58:47.127Z,27085,-0.02685943,0.02164919,0.010883867
1732438727130,2024-11-24T08:58:47.130Z,27088,-0.02685943,0.02164919,0.010883867
1732438727148,2024-11-24T08:58:47.148Z,27106,-0.044904254,0.042452905,0.05720789
1732438727157,2024-11-24T08:58:47.157Z,27115,-0.044904254,0.042452905,0.05720789
1732438727177,2024-11-24T08:58:47.177Z,27135,-0.04470351,0.049481776,0.062200077
1732438727183,2024-11-24T08:58:47.183Z,27141,-0.04470351,0.049481776,0.062200077
1732438727207,2024-11-24T08:58:47.207Z,27165,-0.054952838,0.058467172,0.05380365
1732438727214,2024-11-24T08:58:47.214Z,27172,-0.054952838,0.058467172,0.05380365
1732438727231,2024-11-24T08:58:47.231Z,27189,-0.023857977,0.06182076,0.07746156
1732438727235,2024-11-24T08:58:47.235Z,27193,-0.023857977,0.06182076,0.07746156
1732438727250,2024-11-24T08:58:47.250Z,27208,-0.045235794,0.07614661,0.097312115
1732438727253,2024-11-24T08:58:47.253Z,27211,-0.045235794,0.07614661,0.097312115
1732438727266,2024-11-24T08:58:47.266Z,27224,-0.053537637,0.07984202,0.10331612
1732438727269,2024-11-24T08:58:47.269Z,27227,-0.053537637,0.07984202,0.10331612
1732438727282,2024-11-24T08:58:47.282Z,27240,-0.039763592,0.05158651,0.1135847
1732438727287,2024-11-24T08:58:47.287Z,27245,-0.039763592,0.05158651,0.1135847
1732438727300,2024-11-24T08:58:47.300Z,27258,-0.04311176,0.037653536,0.10765925
1732438727304,2024-11-24T08:58:47.304Z,27262,-0.04311176,0.037653536,0.10765925
1732438727316,2024-11-24T08:58:47.316Z,27274,-0.03348487,0.017483193,0.102075264
1732438727320,2024-11-24T08:58:47.320Z,27278,-0.03348487,0.017483193,0.102075264
1732438727332,2024-11-24T08:58:47.332Z,27290,-0.027724301,-0.009294547,0.08480689
1732438727336,2024-11-24T08:58:47.336Z,27294,-0.027724301,-0.009294547,0.08480689
1732438727346,2024-11-24T08:58:47.346Z,27304,-0.034680784,-0.014916924,0.072008185
1732438727349,2024-11-24T08:58:47.349Z,27307,-0.034680784,-0.014916924,0.072008185
1732438727361,2024-11-24T08:58:47.361Z,27319,-0.036219265,-0.039478097,0.053908493
1732438727365,2024-11-24T08:58:47.365Z,27323,-0.036219265,-0.039478097,0.053908493
1732438727380,2024-11-24T08:58:47.380Z,27338,0.04152498,-0.080060445,0.06692797
1732438727389,2024-11-24T08:58:47.389Z,27347,0.04152498,-0.080060445,0.06692797
1732438727407,2024-11-24T08:58:47.407Z,27365,0.021537427,-0.08464626,0.085584044
1732438727414,2024-11-24T08:58:47.414Z,27372,0.021537427,-0.08464626,0.085584044
1732438727438,2024-11-24T08:58:47.438Z,27396,0.023984995,-0.09554646,0.054971192
1732438727444,2024-11-24T08:58:47.444Z,27402,0.023984995,-0.09554646,0.054971192
1732438727454,2024-11-24T08:58:47.454Z,27412,-0.01462991,-0.11092347,0.02511833
1732438727457,2024-11-24T08:58:47.457Z,27415,-0.01462991,-0.11092347,0.02511833
1732438727469,2024-11-24T08:58:47.469Z,27427,-0.00807945,-0.11193183,0.027355174
1732438727473,2024-11-24T08:58:47.473Z,27431,-0.00807945,-0.11193183,0.027355174
1732438727484,2024-11-24T08:58:47.484Z,27442,0.008351998,-0.11394904,0.04607976
1732438727487,2024-11-24T08:58:47.487Z,27445,0.008351998,-0.11394904,0.04607976
1732438727500,2024-11-24T08:58:47.500Z,27458,0.035638746,-0.109483615,-0.041711394
1732438727504,2024-11-24T08:58:47.504Z,27462,0.035638746,-0.109483615,-0.041711394
1732438727515,2024-11-24T08:58:47.515Z,27473,0.021844864,-0.11067947,-0.06661996
1732438727520,2024-11-24T08:58:47.520Z,27478,0.021844864,-0.11067947,-0.06661996
1732438727530,2024-11-24T08:58:47.530Z,27488,0.037917104,-0.10748868,-0.07182894
1732438727533,2024-11-24T08:58:47.533Z,27491,0.037917104,-0.10748868,-0.07182894
1732438727548,2024-11-24T08:58:47.548Z,27506,0.045518056,-0.100687854,-0.09251996
1732438727557,2024-11-24T08:58:47.557Z,27515,0.045518056,-0.100687854,-0.09251996
1732438727579,2024-11-24T08:58:47.579Z,27537,0.04620961,-0.10583819,-0.09233815
1732438727587,2024-11-24T08:58:47.587Z,27545,0.04620961,-0.10583819,-0.09233815
1732438727603,2024-11-24T08:58:47.603Z,27561,0.08660151,-0.1090779,-0.085674845
1732438727607,2024-11-24T08:58:47.607Z,27565,0.08660151,-0.1090779,-0.085674845
1732438727619,2024-11-24T08:58:47.619Z,27577,0.077361785,-0.10095723,-0.08207345
1732438727623,2024-11-24T08:58:47.623Z,27581,0.077361785,-0.10095723,-0.08207345
1732438727635,2024-11-24T08:58:47.635Z,27593,0.07116604,-0.11018993,-0.063463606
1732438727639,2024-11-24T08:58:47.639Z,27597,0.07116604,-0.11018993,-0.063463606
1732438727651,2024-11-24T08:58:47.651Z,27609,0.082659625,-0.090179265,-0.07651303
1732438727655,2024-11-24T08:58:47.655Z,27613,0.082659625,-0.090179265,-0.07651303
1732438727666,2024-11-24T08:58:47.666Z,27624,0.083313406,-0.11139774,-0.059460875
1732438727670,2024-11-24T08:58:47.670Z,27628,0.083313406,-0.11139774,-0.059460875
1732438727680,2024-11-24T08:58:47.680Z,27638,0.06967263,-0.12552997,-0.075957835
1732438727683,2024-11-24T08:58:47.683Z,27641,0.06967263,-0.12552997,-0.075957835
1732438727694,2024-11-24T08:58:47.694Z,27652,0.061847016,-0.11366235,-0.060195066
1732438727697,2024-11-24T08:58:47.697Z,27655,0.061847016,-0.11366235,-0.060195066
1732438727708,2024-11-24T08:58:47.708Z,27666,0.06397971,-0.09856824,-0.09272984
1732438727711,2024-11-24T08:58:47.711Z,27669,0.06397971,-0.09856824,-0.09272984
1732438727721,2024-11-24T08:58:47.721Z,27679,0.059850305,-0.09867774,-0.083084226
1732438727725,2024-11-24T08:58:47.725Z,27683,0.059850305,-0.09867774,-0.083084226
1732438727736,2024-11-24T08:58:47.736Z,27694,0.06979058,-0.08610371,-0.032316685
1732438727740,2024-11-24T08:58:47.740Z,27698,0.06979058,-0.08610371,-0.032316685
1732438727750,2024-11-24T08:58:47.750Z,27708,0.069844715,-0.07092062,-0.071624726
1732438727752,2024-11-24T08:58:47.752Z,27710,0.069844715,-0.07092062,-0.071624726
1732438727763,2024-11-24T08:58:47.763Z,27721,0.03469293,-0.061852757,-0.08077196
1732438727766,2024-11-24T08:58:47.766Z,27724,0.03469293,-0.061852757,-0.08077196
1732438727777,2024-11-24T08:58:47.777Z,27735,0.090615906,-0.060579102,0.019216057
1732438727781,2024-11-24T08:58:47.781Z,27739,0.090615906,-0.060579102,0.019216057
1732438727791,2024-11-24T08:58:47.791Z,27749,0.08340531,-0.055127006,-0.02076158
1732438727794,2024-11-24T08:58:47.794Z,27752,0.08340531,-0.055127006,-0.02076158
1732438727919,2024-11-24T08:58:47.919Z,27877,0.09501724,-0.040386975,-0.002407349
1732438727922,2024-11-24T08:58:47.922Z,27880,0.09501724,-0.040386975,-0.002407349
1732438727931,2024-11-24T08:58:47.931Z,27889,0.031220334,-0.010422135,-0.030201226
1732438727934,2024-11-24T08:58:47.934Z,27892,0.031220334,-0.010422135,-0.030201226
1732438727945,2024-11-24T08:58:47.945Z,27903,0.040814333,-0.02479807,-0.07091591
1732438727948,2024-11-24T08:58:47.948Z,27906,0.040814333,-0.02479807,-0.07091591
1732438727961,2024-11-24T08:58:47.961Z,27919,0.05073107,0.0028896185,-0.02030194
1732438727965,2024-11-24T08:58:47.965Z,27923,0.05073107,0.0028896185,-0.02030194
1732438727977,2024-11-24T08:58:47.977Z,27935,-0.049951945,-0.017739441,-0.08404917
1732438727980,2024-11-24T08:58:47.980Z,27938,-0.049951945,-0.017739441,-0.08404917
1732438727991,2024-11-24T08:58:47.991Z,27949,0.021760222,-0.0074949786,0.050807107
1732438727994,2024-11-24T08:58:47.994Z,27952,0.021760222,-0.0074949786,0.050807107
1732438728009,2024-11-24T08:58:48.009Z,27967,0.028667094,-0.023017757,0.11239841
1732438728012,2024-11-24T08:58:48.012Z,27970,0.028667094,-0.023017757,0.11239841
1732438728023,2024-11-24T08:58:48.023Z,27981,0.03940857,-0.03792262,-0.014904443
1732438728026,2024-11-24T08:58:48.026Z,27984,0.03940857,-0.03792262,-0.014904443
1732438728035,2024-11-24T08:58:48.035Z,27993,0.07405849,-0.013063091,0.009925808
1732438728039,2024-11-24T08:58:48.039Z,27997,0.07405849,-0.013063091,0.009925808
1732438728051,2024-11-24T08:58:48.051Z,28009,0.060292125,-0.027016193,0.00978368
1732438728055,2024-11-24T08:58:48.055Z,28013,0.060292125,-0.027016193,0.00978368
1732438728066,2024-11-24T08:58:48.066Z,28024,0.07537534,1.2418533E-4,0.03311368
1732438728069,2024-11-24T08:58:48.069Z,28027,0.07537534,1.2418533E-4,0.03311368
1732438728082,2024-11-24T08:58:48.082Z,28040,0.05783832,0.0038922424,-0.011481676
1732438728085,2024-11-24T08:58:48.085Z,28043,0.05783832,0.0038922424,-0.011481676
1732438728189,2024-11-24T08:58:48.189Z,28147,0.069622606,-0.013349389,-0.0036104657
1732438728193,2024-11-24T08:58:48.193Z,28151,0.069622606,-0.013349389,-0.0036104657
1732438728232,2024-11-24T08:58:48.232Z,28190,0.10008594,0.005074969,0.008985516
1732438728238,2024-11-24T08:58:48.238Z,28196,0.10008594,0.005074969,0.008985516
1732438728252,2024-11-24T08:58:48.252Z,28210,0.0760925,0.0027367452,-0.050917838
1732438728257,2024-11-24T08:58:48.257Z,28215,0.0760925,0.0027367452,-0.050917838
1732438728270,2024-11-24T08:58:48.270Z,28228,0.13887954,0.020468505,-0.007866416
1732438728274,2024-11-24T08:58:48.274Z,28232,0.13887954,0.020468505,-0.007866416
1732438728289,2024-11-24T08:58:48.289Z,28247,0.109373726,0.011058621,0.014474478
1732438728294,2024-11-24T08:58:48.294Z,28252,0.109373726,0.011058621,0.014474478
1732438728306,2024-11-24T08:58:48.306Z,28264,0.09144451,-0.005173967,-0.0526197
1732438728310,2024-11-24T08:58:48.310Z,28268,0.09144451,-0.005173967,-0.0526197
1732438728323,2024-11-24T08:58:48.323Z,28281,0.08581751,-0.016579472,-0.020039294
1732438728327,2024-11-24T08:58:48.327Z,28285,0.08581751,-0.016579472,-0.020039294
1732438728338,2024-11-24T08:58:48.338Z,28296,0.052357636,-0.010313412,-0.015855644
1732438728341,2024-11-24T08:58:48.341Z,28299,0.052357636,-0.010313412,-0.015855644
1732438728365,2024-11-24T08:58:48.365Z,28323,0.073409386,-0.036960065,0.06261443
1732438728368,2024-11-24T08:58:48.368Z,28326,0.073409386,-0.036960065,0.06261443
1732438728378,2024-11-24T08:58:48.378Z,28336,0.082828045,-0.025792427,0.03901392
1732438728381,2024-11-24T08:58:48.381Z,28339,0.082828045,-0.025792427,0.03901392
1732438728390,2024-11-24T08:58:48.390Z,28348,0.04242072,-0.022913603,-0.00863195
1732438728393,2024-11-24T08:58:48.393Z,28351,0.04242072,-0.022913603,-0.00863195
1732438728415,2024-11-24T08:58:48.415Z,28373,0.08277767,-0.038835388,0.0045388276
1732438728423,2024-11-24T08:58:48.423Z,28381,0.08277767,-0.038835388,0.0045388276
1732438728446,2024-11-24T08:58:48.446Z,28404,0.016001577,0.009117265,0.009649481
1732438728451,2024-11-24T08:58:48.451Z,28409,0.016001577,0.009117265,0.009649481
1732438728462,2024-11-24T08:58:48.462Z,28420,0.05502147,0.020000353,0.012968803
1732438728466,2024-11-24T08:58:48.466Z,28424,0.05502147,0.020000353,0.012968803
1732438728505,2024-11-24T08:58:48.505Z,28463,0.013004986,0.027605126,-0.026093753
1732438728509,2024-11-24T08:58:48.509Z,28467,0.013004986,0.027605126,-0.026093753
1732438728523,2024-11-24T08:58:48.523Z,28481,0.050338212,0.022349859,0.023212723
1732438728527,2024-11-24T08:58:48.527Z,28485,0.050338212,0.022349859,0.023212723
1732438728538,2024-11-24T08:58:48.538Z,28496,0.06842167,0.032002766,0.04525551
1732438728542,2024-11-24T08:58:48.542Z,28500,0.06842167,0.032002766,0.04525551
1732438728554,2024-11-24T08:58:48.554Z,28512,0.07217492,0.028864386,-0.016984258
1732438728557,2024-11-24T08:58:48.557Z,28515,0.07217492,0.028864386,-0.016984258
1732438728568,2024-11-24T08:58:48.568Z,28526,0.07755143,0.03085495,0.0021712435
1732438728572,2024-11-24T08:58:48.572Z,28530,0.07755143,0.03085495,0.0021712435
1732438728596,2024-11-24T08:58:48.596Z,28554,0.051122807,0.0022813343,-0.07567075
1732438728604,2024-11-24T08:58:48.604Z,28562,0.051122807,0.0022813343,-0.07567075
1732438728630,2024-11-24T08:58:48.630Z,28588,0.018144308,-0.016215181,-0.04131693
1732438728639,2024-11-24T08:58:48.639Z,28597,0.018144308,-0.016215181,-0.04131693
1732438728655,2024-11-24T08:58:48.655Z,28613,0.022065798,-0.040111862,-0.06233412
1732438728660,2024-11-24T08:58:48.660Z,28618,0.022065798,-0.040111862,-0.06233412
1732438728673,2024-11-24T08:58:48.673Z,28631,0.060129136,6.217046E-4,0.028255636
1732438728677,2024-11-24T08:58:48.677Z,28635,0.060129136,6.217046E-4,0.028255636
1732438728688,2024-11-24T08:58:48.688Z,28646,0.002784032,0.010360772,-0.0072530536
1732438728692,2024-11-24T08:58:48.692Z,28650,0.002784032,0.010360772,-0.0072530536
1732438728702,2024-11-24T08:58:48.702Z,28660,0.016182166,0.051676076,-0.012549225
1732438728705,2024-11-24T08:58:48.705Z,28663,0.016182166,0.051676076,-0.012549225
1732438728716,2024-11-24T08:58:48.716Z,28674,0.0043728165,0.03141208,-0.07044203
1732438728719,2024-11-24T08:58:48.719Z,28677,0.0043728165,0.03141208,-0.07044203
1732438728730,2024-11-24T08:58:48.730Z,28688,0.047352295,0.05603783,0.025189096
1732438728733,2024-11-24T08:58:48.733Z,28691,0.047352295,0.05603783,0.025189096
1732438728742,2024-11-24T08:58:48.742Z,28700,-0.0038091687,0.06650752,-0.03902972
1732438728745,2024-11-24T08:58:48.745Z,28703,-0.0038091687,0.06650752,-0.03902972
1732438728754,2024-11-24T08:58:48.754Z,28712,-0.02779663,0.031896375,-0.12321186
1732438728758,2024-11-24T08:58:48.758Z,28716,-0.02779663,0.031896375,-0.12321186
1732438728769,2024-11-24T08:58:48.769Z,28727,0.05440589,0.0022496313,-0.05688188
1732438728773,2024-11-24T08:58:48.773Z,28731,0.05440589,0.0022496313,-0.05688188
1732438728787,2024-11-24T08:58:48.787Z,28745,0.005838315,0.04109319,-0.036380712
1732438728793,2024-11-24T08:58:48.793Z,28751,0.005838315,0.04109319,-0.036380712
1732438728816,2024-11-24T08:58:48.816Z,28774,-0.0046145013,0.015773384,-0.08919996
1732438728821,2024-11-24T08:58:48.821Z,28779,-0.0046145013,0.015773384,-0.08919996
1732438728833,2024-11-24T08:58:48.833Z,28791,0.06417654,0.010422232,-0.034824375
1732438728836,2024-11-24T08:58:48.836Z,28794,0.06417654,0.010422232,-0.034824375
1732438728848,2024-11-24T08:58:48.848Z,28806,0.056492753,0.039242372,-0.010415588
1732438728851,2024-11-24T08:58:48.851Z,28809,0.056492753,0.039242372,-0.010415588
1732438728864,2024-11-24T08:58:48.864Z,28822,0.0666583,0.060022846,-0.018046413
1732438728867,2024-11-24T08:58:48.867Z,28825,0.0666583,0.060022846,-0.018046413
1732438728879,2024-11-24T08:58:48.879Z,28837,0.038529765,0.03884988,-0.12450392
1732438728883,2024-11-24T08:58:48.883Z,28841,0.038529765,0.03884988,-0.12450392
1732438728898,2024-11-24T08:58:48.898Z,28856,0.08017557,0.06924339,0.0065616923
1732438728901,2024-11-24T08:58:48.901Z,28859,0.08017557,0.06924339,0.0065616923
1732438728913,2024-11-24T08:58:48.913Z,28871,0.040298942,0.09584919,-0.02834109
1732438728916,2024-11-24T08:58:48.916Z,28874,0.040298942,0.09584919,-0.02834109
1732438728928,2024-11-24T08:58:48.928Z,28886,-0.013138239,0.077962816,-0.10476754
1732438728932,2024-11-24T08:58:48.932Z,28890,-0.013138239,0.077962816,-0.10476754
1732438728943,2024-11-24T08:58:48.943Z,28901,0.033643793,0.13238798,-0.023236606
1732438728946,2024-11-24T08:58:48.946Z,28904,0.033643793,0.13238798,-0.023236606
1732438728956,2024-11-24T08:58:48.956Z,28914,0.034365445,0.13735072,0.020237647
1732438728959,2024-11-24T08:58:48.959Z,28917,0.034365445,0.13735072,0.020237647
1732438728969,2024-11-24T08:58:48.969Z,28927,0.0138487555,0.14480029,-0.040123213
1732438728974,2024-11-24T08:58:48.974Z,28932,0.0138487555,0.14480029,-0.040123213
1732438728985,2024-11-24T08:58:48.985Z,28943,0.011967085,0.16159059,-0.04527492
1732438728988,2024-11-24T08:58:48.988Z,28946,0.011967085,0.16159059,-0.04527492
1732438729001,2024-11-24T08:58:49.001Z,28959,0.017430048,0.17132324,-0.089686304
1732438729004,2024-11-24T08:58:49.004Z,28962,0.017430048,0.17132324,-0.089686304
1732438729016,2024-11-24T08:58:49.016Z,28974,0.015201933,0.18788779,-0.09579528
1732438729019,2024-11-24T08:58:49.019Z,28977,0.015201933,0.18788779,-0.09579528
1732438729030,2024-11-24T08:58:49.030Z,28988,0.0023477785,0.160368,-0.07137215
1732438729033,2024-11-24T08:58:49.033Z,28991,0.0023477785,0.160368,-0.07137215
1732438729044,2024-11-24T08:58:49.044Z,29002,0.006128551,0.1420936,-0.062083483
1732438729048,2024-11-24T08:58:49.048Z,29006,0.006128551,0.1420936,-0.062083483
1732438729059,2024-11-24T08:58:49.059Z,29017,-0.02092659,0.123243876,-0.047112435
1732438729063,2024-11-24T08:58:49.063Z,29021,-0.02092659,0.123243876,-0.047112435
1732438729072,2024-11-24T08:58:49.072Z,29030,-0.021110704,0.101831,-7.995403E-4
1732438729075,2024-11-24T08:58:49.075Z,29033,-0.021110704,0.101831,-7.995403E-4
1732438729092,2024-11-24T08:58:49.092Z,29050,-0.037993222,0.052756984,-0.0331046
1732438729100,2024-11-24T08:58:49.100Z,29058,-0.037993222,0.052756984,-0.0331046
1732438729119,2024-11-24T08:58:49.119Z,29077,0.014939194,0.0681017,0.009196601
1732438729122,2024-11-24T08:58:49.122Z,29080,0.014939194,0.0681017,0.009196601
1732438729133,2024-11-24T08:58:49.133Z,29091,-0.048341427,0.069775626,-0.080785364
1732438729136,2024-11-24T08:58:49.136Z,29094,-0.048341427,0.069775626,-0.080785364
1732438729147,2024-11-24T08:58:49.147Z,29105,-0.013947753,0.04888069,-0.1166471
1732438729151,2024-11-24T08:58:49.151Z,29109,-0.013947753,0.04888069,-0.1166471
1732438729160,2024-11-24T08:58:49.160Z,29118,-0.028190095,0.046368975,-0.09798017
1732438729164,2024-11-24T08:58:49.164Z,29122,-0.028190095,0.046368975,-0.09798017
1732438729176,2024-11-24T08:58:49.176Z,29134,-0.00988613,0.035598595,-0.066141695
1732438729182,2024-11-24T08:58:49.182Z,29140,-0.00988613,0.035598595,-0.066141695
1732438729200,2024-11-24T08:58:49.200Z,29158,-0.012351238,0.046559095,-0.07745468
1732438729203,2024-11-24T08:58:49.203Z,29161,-0.012351238,0.046559095,-0.07745468
1732438729213,2024-11-24T08:58:49.213Z,29171,-6.002372E-4,0.03851457,-0.07151297
1732438729218,2024-11-24T08:58:49.218Z,29176,-6.002372E-4,0.03851457,-0.07151297
1732438729231,2024-11-24T08:58:49.231Z,29189,0.02748573,0.04163583,-0.016345965
1732438729234,2024-11-24T08:58:49.234Z,29192,0.02748573,0.04163583,-0.016345965
1732438729243,2024-11-24T08:58:49.243Z,29201,-0.0027330497,0.0040896554,-0.014347198
1732438729247,2024-11-24T08:58:49.247Z,29205,-0.0027330497,0.0040896554,-0.014347198
1732438729257,2024-11-24T08:58:49.257Z,29215,-0.027523996,-0.009158692,-0.06917101
1732438729260,2024-11-24T08:58:49.260Z,29218,-0.027523996,-0.009158692,-0.06917101
1732438729270,2024-11-24T08:58:49.270Z,29228,-0.03603582,-0.020979736,-0.035970096
1732438729273,2024-11-24T08:58:49.273Z,29231,-0.03603582,-0.020979736,-0.035970096
1732438729282,2024-11-24T08:58:49.282Z,29240,-0.014285738,2.6995965E-4,-0.0052844468
1732438729284,2024-11-24T08:58:49.284Z,29242,-0.014285738,2.6995965E-4,-0.0052844468
1732438729293,2024-11-24T08:58:49.293Z,29251,-0.009149527,-0.005187971,0.003669375
1732438729296,2024-11-24T08:58:49.296Z,29254,-0.009149527,-0.005187971,0.003669375
1732438729306,2024-11-24T08:58:49.306Z,29264,-0.038424615,-0.01888745,-0.047975335
1732438729309,2024-11-24T08:58:49.309Z,29267,-0.038424615,-0.01888745,-0.047975335
1732438729320,2024-11-24T08:58:49.320Z,29278,0.0067514954,-0.007516373,0.019459153
1732438729324,2024-11-24T08:58:49.324Z,29282,0.0067514954,-0.007516373,0.019459153
1732438729335,2024-11-24T08:58:49.335Z,29293,-0.009132339,0.008753461,0.019204492
1732438729337,2024-11-24T08:58:49.337Z,29295,-0.009132339,0.008753461,0.019204492
1732438729349,2024-11-24T08:58:49.349Z,29307,-0.042559877,0.026962513,-0.0069866404
1732438729353,2024-11-24T08:58:49.353Z,29311,-0.042559877,0.026962513,-0.0069866404
1732438729364,2024-11-24T08:58:49.364Z,29322,-0.03107801,0.037687864,-0.03223838
1732438729367,2024-11-24T08:58:49.367Z,29325,-0.03107801,0.037687864,-0.03223838
1732438729376,2024-11-24T08:58:49.376Z,29334,-0.005224755,0.062209558,-0.0053460775
1732438729379,2024-11-24T08:58:49.379Z,29337,-0.005224755,0.062209558,-0.0053460775
1732438729388,2024-11-24T08:58:49.388Z,29346,-0.023780324,0.08916798,0.0035138943
1732438729392,2024-11-24T08:58:49.392Z,29350,-0.023780324,0.08916798,0.0035138943
1732438729404,2024-11-24T08:58:49.404Z,29362,-0.026518017,0.09273911,-0.019298524
1732438729408,2024-11-24T08:58:49.408Z,29366,-0.026518017,0.09273911,-0.019298524
1732438729422,2024-11-24T08:58:49.422Z,29380,-0.034932278,0.08934313,-0.037976954
1732438729426,2024-11-24T08:58:49.426Z,29384,-0.034932278,0.08934313,-0.037976954
1732438729437,2024-11-24T08:58:49.437Z,29395,-0.055066787,0.094634086,-0.0713857
1732438729440,2024-11-24T08:58:49.440Z,29398,-0.055066787,0.094634086,-0.0713857
1732438729449,2024-11-24T08:58:49.449Z,29407,-0.00705768,0.110312365,-0.023044918
1732438729452,2024-11-24T08:58:49.452Z,29410,-0.00705768,0.110312365,-0.023044918
1732438729460,2024-11-24T08:58:49.460Z,29418,-0.06916834,0.11745501,-0.052959938
1732438729464,2024-11-24T08:58:49.464Z,29422,-0.06916834,0.11745501,-0.052959938
1732438729475,2024-11-24T08:58:49.475Z,29433,-0.030268036,0.0978064,-0.055571757
1732438729479,2024-11-24T08:58:49.479Z,29437,-0.030268036,0.0978064,-0.055571757
1732438729489,2024-11-24T08:58:49.489Z,29447,-0.048626095,0.11486949,-0.06196247
1732438729492,2024-11-24T08:58:49.492Z,29450,-0.048626095,0.11486949,-0.06196247
1732438729502,2024-11-24T08:58:49.502Z,29460,-0.022255795,0.12417026,-0.031278215
1732438729505,2024-11-24T08:58:49.505Z,29463,-0.022255795,0.12417026,-0.031278215
1732438729516,2024-11-24T08:58:49.516Z,29474,-0.05432882,0.13391623,-0.0766661
1732438729518,2024-11-24T08:58:49.518Z,29476,-0.05432882,0.13391623,-0.0766661
1732438729535,2024-11-24T08:58:49.535Z,29493,0.028311241,0.06308148,-0.04009891
1732438729538,2024-11-24T08:58:49.538Z,29496,0.028311241,0.06308148,-0.04009891
1732438729549,2024-11-24T08:58:49.549Z,29507,-0.04980182,0.07820078,-0.051068652
1732438729552,2024-11-24T08:58:49.552Z,29510,-0.04980182,0.07820078,-0.051068652
1732438729561,2024-11-24T08:58:49.561Z,29519,-0.03615055,0.08013241,-0.03241965
1732438729564,2024-11-24T08:58:49.564Z,29522,-0.03615055,0.08013241,-0.03241965
1732438729583,2024-11-24T08:58:49.583Z,29541,0.017346561,0.1332104,-0.0047182343
1732438729590,2024-11-24T08:58:49.590Z,29548,0.017346561,0.1332104,-0.0047182343
1732438729607,2024-11-24T08:58:49.607Z,29565,-0.009429431,0.16817014,-0.069644466
1732438729610,2024-11-24T08:58:49.610Z,29568,-0.009429431,0.16817014,-0.069644466
1732438729620,2024-11-24T08:58:49.620Z,29578,-0.0796648,0.14696833,-0.20147906
1732438729624,2024-11-24T08:58:49.624Z,29582,-0.0796648,0.14696833,-0.20147906
1732438729636,2024-11-24T08:58:49.636Z,29594,0.06944982,0.071469,-0.038485024
1732438729639,2024-11-24T08:58:49.639Z,29597,0.06944982,0.071469,-0.038485024
1732438729650,2024-11-24T08:58:49.650Z,29608,0.06598642,0.13470015,-0.0043857154
1732438729654,2024-11-24T08:58:49.654Z,29612,0.06598642,0.13470015,-0.0043857154
1732438729664,2024-11-24T08:58:49.664Z,29622,-0.016308904,0.08050944,-0.17155147
1732438729667,2024-11-24T08:58:49.667Z,29625,-0.016308904,0.08050944,-0.17155147
1732438729717,2024-11-24T08:58:49.717Z,29675,0.008397291,0.023363374,-0.154068
1732438729720,2024-11-24T08:58:49.720Z,29678,0.008397291,0.023363374,-0.154068
1732438729734,2024-11-24T08:58:49.734Z,29692,0.047135044,0.07585546,0.007900442
1732438729738,2024-11-24T08:58:49.738Z,29696,0.047135044,0.07585546,0.007900442
1732438729751,2024-11-24T08:58:49.751Z,29709,0.0510038,0.06940064,0.011211987
1732438729754,2024-11-24T08:58:49.754Z,29712,0.0510038,0.06940064,0.011211987
1732438729768,2024-11-24T08:58:49.768Z,29726,0.082182825,0.09712966,0.050993018
1732438729775,2024-11-24T08:58:49.775Z,29733,0.082182825,0.09712966,0.050993018
1732438729794,2024-11-24T08:58:49.794Z,29752,0.035042923,0.11183302,-0.104090005
1732438729800,2024-11-24T08:58:49.800Z,29758,0.035042923,0.11183302,-0.104090005
1732438729817,2024-11-24T08:58:49.817Z,29775,0.054679815,0.086929925,-0.11960432
1732438729820,2024-11-24T08:58:49.820Z,29778,0.054679815,0.086929925,-0.11960432
1732438729832,2024-11-24T08:58:49.832Z,29790,0.029570939,0.044540036,-0.10904429
1732438729835,2024-11-24T08:58:49.835Z,29793,0.029570939,0.044540036,-0.10904429
1732438729846,2024-11-24T08:58:49.846Z,29804,0.08087215,0.011014762,-0.08464104
1732438729849,2024-11-24T08:58:49.849Z,29807,0.08087215,0.011014762,-0.08464104
1732438729858,2024-11-24T08:58:49.858Z,29816,0.11211435,0.039337188,0.007951613
1732438729862,2024-11-24T08:58:49.862Z,29820,0.11211435,0.039337188,0.007951613
1732438729871,2024-11-24T08:58:49.871Z,29829,0.06864884,0.013948532,-0.043087993
1732438729874,2024-11-24T08:58:49.874Z,29832,0.06864884,0.013948532,-0.043087993
1732438729895,2024-11-24T08:58:49.895Z,29853,0.101687245,0.03108737,0.025236066
1732438729899,2024-11-24T08:58:49.899Z,29857,0.101687245,0.03108737,0.025236066
1732438729949,2024-11-24T08:58:49.949Z,29907,0.080673516,0.0027662113,0.018576112
1732438729958,2024-11-24T08:58:49.958Z,29916,0.080673516,0.0027662113,0.018576112
1732438729983,2024-11-24T08:58:49.983Z,29941,0.019304328,-0.0065720007,-0.03621909
1732438729990,2024-11-24T08:58:49.990Z,29948,0.019304328,-0.0065720007,-0.03621909
1732438730014,2024-11-24T08:58:50.014Z,29972,0.058651507,-0.01451568,0.04482534
1732438730021,2024-11-24T08:58:50.021Z,29979,0.058651507,-0.01451568,0.04482534
1732438730037,2024-11-24T08:58:50.037Z,29995,0.052807722,0.021088459,0.06987014
1732438730041,2024-11-24T08:58:50.041Z,29999,0.052807722,0.021088459,0.06987014
1732438730055,2024-11-24T08:58:50.055Z,30013,0.021640874,0.026377859,0.04515877
1732438730059,2024-11-24T08:58:50.059Z,30017,0.021640874,0.026377859,0.04515877
1732438730074,2024-11-24T08:58:50.074Z,30032,0.011504866,0.021376312,0.022360798
1732438730077,2024-11-24T08:58:50.077Z,30035,0.011504866,0.021376312,0.022360798
1732438730090,2024-11-24T08:58:50.090Z,30048,-0.03154378,0.0019486498,0.016664144
1732438730094,2024-11-24T08:58:50.094Z,30052,-0.03154378,0.0019486498,0.016664144
1732438730126,2024-11-24T08:58:50.126Z,30084,0.064413995,0.024352968,0.035448153
1732438730129,2024-11-24T08:58:50.129Z,30087,0.064413995,0.024352968,0.035448153
1732438730140,2024-11-24T08:58:50.140Z,30098,0.119898796,-0.016241536,-0.015699446
1732438730143,2024-11-24T08:58:50.143Z,30101,0.119898796,-0.016241536,-0.015699446
1732438730154,2024-11-24T08:58:50.154Z,30112,0.06123426,-0.034688648,-0.009661852
1732438730158,2024-11-24T08:58:50.158Z,30116,0.06123426,-0.034688648,-0.009661852
1732438730169,2024-11-24T08:58:50.169Z,30127,0.057813328,-0.04241206,-0.016502833
1732438730173,2024-11-24T08:58:50.173Z,30131,0.057813328,-0.04241206,-0.016502833
1732438730214,2024-11-24T08:58:50.214Z,30172,0.13146077,-0.022889,0.010467719
1732438730218,2024-11-24T08:58:50.218Z,30176,0.13146077,-0.022889,0.010467719
1732438730231,2024-11-24T08:58:50.231Z,30189,0.09888267,-0.030726874,-0.029813038
1732438730235,2024-11-24T08:58:50.235Z,30193,0.09888267,-0.030726874,-0.029813038
1732438730248,2024-11-24T08:58:50.248Z,30206,0.08752251,-0.048276003,-0.03549736
1732438730252,2024-11-24T08:58:50.252Z,30210,0.08752251,-0.048276003,-0.03549736
1732438730264,2024-11-24T08:58:50.264Z,30222,0.10656547,-0.068594456,-0.030604938
1732438730267,2024-11-24T08:58:50.267Z,30225,0.10656547,-0.068594456,-0.030604938
1732438730278,2024-11-24T08:58:50.278Z,30236,0.078451954,-0.06044101,-0.031644575
1732438730281,2024-11-24T08:58:50.281Z,30239,0.078451954,-0.06044101,-0.031644575
1732438730291,2024-11-24T08:58:50.291Z,30249,0.071149506,-0.064328976,-0.014808456
1732438730295,2024-11-24T08:58:50.295Z,30253,0.071149506,-0.064328976,-0.014808456
1732438730306,2024-11-24T08:58:50.306Z,30264,0.11484576,-0.04741332,-0.02991161
1732438730309,2024-11-24T08:58:50.309Z,30267,0.11484576,-0.04741332,-0.02991161
1732438730320,2024-11-24T08:58:50.320Z,30278,0.15070498,-0.046782084,0.022640483
1732438730324,2024-11-24T08:58:50.324Z,30282,0.15070498,-0.046782084,0.022640483
1732438730350,2024-11-24T08:58:50.350Z,30308,0.1728156,-0.05694379,0.0379623
1732438730356,2024-11-24T08:58:50.356Z,30314,0.1728156,-0.05694379,0.0379623
1732438730379,2024-11-24T08:58:50.379Z,30337,0.16876194,-0.02319504,-0.033549283
1732438730385,2024-11-24T08:58:50.385Z,30343,0.16876194,-0.02319504,-0.033549283
1732438730400,2024-11-24T08:58:50.400Z,30358,0.14793743,-0.065292016,-0.09695021
1732438730403,2024-11-24T08:58:50.403Z,30361,0.14793743,-0.065292016,-0.09695021
1732438730416,2024-11-24T08:58:50.416Z,30374,0.12875685,-0.059477966,-0.08073449
1732438730420,2024-11-24T08:58:50.420Z,30378,0.12875685,-0.059477966,-0.08073449
1732438730432,2024-11-24T08:58:50.432Z,30390,0.105358295,-0.048699323,-0.023803761
1732438730436,2024-11-24T08:58:50.436Z,30394,0.105358295,-0.048699323,-0.023803761
1732438730450,2024-11-24T08:58:50.450Z,30408,0.10493195,-0.05829563,-0.017481297
1732438730458,2024-11-24T08:58:50.458Z,30416,0.10493195,-0.05829563,-0.017481297
1732438730480,2024-11-24T08:58:50.480Z,30438,0.13498655,-0.0962801,0.0050285333
1732438730484,2024-11-24T08:58:50.484Z,30442,0.13498655,-0.0962801,0.0050285333
1732438730497,2024-11-24T08:58:50.497Z,30455,0.12596843,-0.10982029,-0.018158799
1732438730502,2024-11-24T08:58:50.502Z,30460,0.12596843,-0.10982029,-0.018158799
1732438730514,2024-11-24T08:58:50.514Z,30472,0.17227614,-0.089121014,0.015899198
1732438730518,2024-11-24T08:58:50.518Z,30476,0.17227614,-0.089121014,0.015899198
1732438730529,2024-11-24T08:58:50.529Z,30487,0.12187442,-0.124644145,-0.0028058884
1732438730533,2024-11-24T08:58:50.533Z,30491,0.12187442,-0.124644145,-0.0028058884
1732438730544,2024-11-24T08:58:50.544Z,30502,0.08627243,-0.11185432,-4.3401655E-4
1732438730547,2024-11-24T08:58:50.547Z,30505,0.08627243,-0.11185432,-4.3401655E-4
1732438730577,2024-11-24T08:58:50.577Z,30535,0.056322765,-0.09991658,0.036304567
1732438730583,2024-11-24T08:58:50.583Z,30541,0.056322765,-0.09991658,0.036304567
1732438730603,2024-11-24T08:58:50.603Z,30561,0.09312338,-0.095679596,0.024239382
1732438730606,2024-11-24T08:58:50.606Z,30564,0.09312338,-0.095679596,0.024239382
1732438730618,2024-11-24T08:58:50.618Z,30576,0.06791147,-0.10346564,-0.0750949
1732438730622,2024-11-24T08:58:50.622Z,30580,0.06791147,-0.10346564,-0.0750949
1732438730633,2024-11-24T08:58:50.633Z,30591,0.12096715,-0.08519785,-0.00521503
1732438730636,2024-11-24T08:58:50.636Z,30594,0.12096715,-0.08519785,-0.00521503
1732438730647,2024-11-24T08:58:50.647Z,30605,0.12958817,-0.07383639,0.0080216
1732438730651,2024-11-24T08:58:50.651Z,30609,0.12958817,-0.07383639,0.0080216
1732438730661,2024-11-24T08:58:50.661Z,30619,0.06916305,-0.041473623,0.021489533
1732438730664,2024-11-24T08:58:50.664Z,30622,0.06916305,-0.041473623,0.021489533
1732438730672,2024-11-24T08:58:50.672Z,30630,0.09412877,-0.03469468,0.005509934
1732438730674,2024-11-24T08:58:50.674Z,30632,0.09412877,-0.03469468,0.005509934
1732438730685,2024-11-24T08:58:50.685Z,30643,0.10854199,-0.085432604,-0.041094624
1732438730688,2024-11-24T08:58:50.688Z,30646,0.10854199,-0.085432604,-0.041094624
1732438730701,2024-11-24T08:58:50.701Z,30659,0.07439112,-0.04132425,-0.024905942
1732438730705,2024-11-24T08:58:50.705Z,30663,0.07439112,-0.04132425,-0.024905942
1732438730716,2024-11-24T08:58:50.716Z,30674,0.0060121454,-0.026842995,0.01506953
1732438730719,2024-11-24T08:58:50.719Z,30677,0.0060121454,-0.026842995,0.01506953
1732438730737,2024-11-24T08:58:50.737Z,30695,0.03284735,-0.042004205,-0.020781035
1732438730744,2024-11-24T08:58:50.744Z,30702,0.03284735,-0.042004205,-0.020781035
1732438730764,2024-11-24T08:58:50.764Z,30722,0.019483251,-0.053535838,-0.037569102
1732438730768,2024-11-24T08:58:50.768Z,30726,0.019483251,-0.053535838,-0.037569102
1732438730786,2024-11-24T08:58:50.786Z,30744,0.07135914,-0.028981667,-0.06178332
1732438730788,2024-11-24T08:58:50.788Z,30746,0.07135914,-0.028981667,-0.06178332
1732438730798,2024-11-24T08:58:50.798Z,30756,0.07777849,-0.017600378,-0.0017872185
1732438730801,2024-11-24T08:58:50.801Z,30759,0.07777849,-0.017600378,-0.0017872185
1732438730810,2024-11-24T08:58:50.810Z,30768,0.06142586,-0.014595715,-0.02783988
1732438730813,2024-11-24T08:58:50.813Z,30771,0.06142586,-0.014595715,-0.02783988
1732438730823,2024-11-24T08:58:50.823Z,30781,0.05141759,-0.019404808,0.020034196
1732438730826,2024-11-24T08:58:50.826Z,30784,0.05141759,-0.019404808,0.020034196
1732438730836,2024-11-24T08:58:50.836Z,30794,0.07352263,-0.055998348,0.011485417
1732438730839,2024-11-24T08:58:50.839Z,30797,0.07352263,-0.055998348,0.011485417
1732438730848,2024-11-24T08:58:50.848Z,30806,0.02511094,-0.073697135,-0.042450987
1732438730851,2024-11-24T08:58:50.851Z,30809,0.02511094,-0.073697135,-0.042450987
1732438730859,2024-11-24T08:58:50.859Z,30817,0.063075885,-0.06173499,0.011872317
1732438730862,2024-11-24T08:58:50.862Z,30820,0.063075885,-0.06173499,0.011872317
1732438730871,2024-11-24T08:58:50.871Z,30829,0.022123747,-0.036435995,-0.028065545
1732438730874,2024-11-24T08:58:50.874Z,30832,0.022123747,-0.036435995,-0.028065545
1732438730884,2024-11-24T08:58:50.884Z,30842,0.025741993,-0.023780664,-0.0059619416
1732438730887,2024-11-24T08:58:50.887Z,30845,0.025741993,-0.023780664,-0.0059619416
1732438730895,2024-11-24T08:58:50.895Z,30853,0.09459253,-0.025717061,-0.03765096
1732438730898,2024-11-24T08:58:50.898Z,30856,0.09459253,-0.025717061,-0.03765096
1732438730906,2024-11-24T08:58:50.906Z,30864,0.043907538,-0.019767933,-0.016964719
1732438730908,2024-11-24T08:58:50.908Z,30866,0.043907538,-0.019767933,-0.016964719
1732438730917,2024-11-24T08:58:50.917Z,30875,0.07094335,-0.043155327,0.003331731
1732438730920,2024-11-24T08:58:50.920Z,30878,0.07094335,-0.043155327,0.003331731
1732438730929,2024-11-24T08:58:50.929Z,30887,0.06027331,-0.016310776,0.07950152
1732438730932,2024-11-24T08:58:50.932Z,30890,0.06027331,-0.016310776,0.07950152
1732438730942,2024-11-24T08:58:50.942Z,30900,-0.0031219313,-0.037666567,0.0063311667
1732438730947,2024-11-24T08:58:50.947Z,30905,-0.0031219313,-0.037666567,0.0063311667
1732438730955,2024-11-24T08:58:50.955Z,30913,0.026887596,-0.036071315,0.06070567
1732438730958,2024-11-24T08:58:50.958Z,30916,0.026887596,-0.036071315,0.06070567
1732438730967,2024-11-24T08:58:50.967Z,30925,0.07519466,-0.046275616,0.039253358
1732438730970,2024-11-24T08:58:50.970Z,30928,0.07519466,-0.046275616,0.039253358
1732438730979,2024-11-24T08:58:50.979Z,30937,0.10713363,-0.06320975,-0.0068552587
1732438730982,2024-11-24T08:58:50.982Z,30940,0.10713363,-0.06320975,-0.0068552587
1732438730991,2024-11-24T08:58:50.991Z,30949,0.038522787,-0.06912932,0.008051259
1732438730995,2024-11-24T08:58:50.995Z,30953,0.038522787,-0.06912932,0.008051259
1732438731004,2024-11-24T08:58:51.004Z,30962,0.031117324,-0.09265558,0.055020325
1732438731007,2024-11-24T08:58:51.007Z,30965,0.031117324,-0.09265558,0.055020325
1732438731021,2024-11-24T08:58:51.021Z,30979,0.014940738,-0.06463102,0.08265322
1732438731024,2024-11-24T08:58:51.024Z,30982,0.014940738,-0.06463102,0.08265322
1732438731033,2024-11-24T08:58:51.033Z,30991,-0.040344857,-0.06910636,0.05037463
1732438731036,2024-11-24T08:58:51.036Z,30994,-0.040344857,-0.06910636,0.05037463
1732438731044,2024-11-24T08:58:51.044Z,31002,-0.041035473,-0.042312384,0.06661931
1732438731047,2024-11-24T08:58:51.047Z,31005,-0.041035473,-0.042312384,0.06661931
1732438731068,2024-11-24T08:58:51.068Z,31026,-0.035377696,-0.037893932,0.017256023
1732438731070,2024-11-24T08:58:51.070Z,31028,-0.035377696,-0.037893932,0.017256023
1732438731079,2024-11-24T08:58:51.079Z,31037,-0.014276961,-0.04976214,-0.03236472
1732438731082,2024-11-24T08:58:51.082Z,31040,-0.014276961,-0.04976214,-0.03236472
1732438731090,2024-11-24T08:58:51.090Z,31048,0.072534226,-0.0039208336,0.0031854461
1732438731093,2024-11-24T08:58:51.093Z,31051,0.072534226,-0.0039208336,0.0031854461
1732438731113,2024-11-24T08:58:51.113Z,31071,-0.0012716962,-0.016858086,0.036023982
1732438731116,2024-11-24T08:58:51.116Z,31074,-0.0012716962,-0.016858086,0.036023982
1732438731125,2024-11-24T08:58:51.125Z,31083,-0.006906788,0.0118660685,0.01654575
1732438731128,2024-11-24T08:58:51.128Z,31086,-0.006906788,0.0118660685,0.01654575
1732438731137,2024-11-24T08:58:51.137Z,31095,-0.0073739537,0.019188045,0.023253193
1732438731139,2024-11-24T08:58:51.139Z,31097,-0.0073739537,0.019188045,0.023253193
1732438731158,2024-11-24T08:58:51.158Z,31116,0.04475933,0.025803028,0.075873055
1732438731162,2024-11-24T08:58:51.162Z,31120,0.04475933,0.025803028,0.075873055
1732438731172,2024-11-24T08:58:51.172Z,31130,0.028579159,0.047923867,0.05665071
1732438731176,2024-11-24T08:58:51.176Z,31134,0.028579159,0.047923867,0.05665071
1732438731185,2024-11-24T08:58:51.185Z,31143,-0.016591797,0.035353627,0.05611587
1732438731188,2024-11-24T08:58:51.188Z,31146,-0.016591797,0.035353627,0.05611587
1732438731201,2024-11-24T08:58:51.201Z,31159,0.038587224,0.054835945,0.03933021
1732438731207,2024-11-24T08:58:51.207Z,31165,0.038587224,0.054835945,0.03933021
1732438731217,2024-11-24T08:58:51.217Z,31175,-0.0050802208,0.03588285,0.061791465
1732438731220,2024-11-24T08:58:51.220Z,31178,-0.0050802208,0.03588285,0.061791465
1732438731228,2024-11-24T08:58:51.228Z,31186,-0.03783894,0.034468967,0.0485817
1732438731231,2024-11-24T08:58:51.231Z,31189,-0.03783894,0.034468967,0.0485817
1732438731252,2024-11-24T08:58:51.252Z,31210,-0.008678727,0.053856272,0.079918735
1732438731260,2024-11-24T08:58:51.260Z,31218,-0.008678727,0.053856272,0.079918735
1732438731281,2024-11-24T08:58:51.281Z,31239,0.017096208,0.0345844,0.044621337
1732438731285,2024-11-24T08:58:51.285Z,31243,0.017096208,0.0345844,0.044621337
1732438731294,2024-11-24T08:58:51.294Z,31252,9.2606567E-4,0.042214356,0.056940213
1732438731297,2024-11-24T08:58:51.297Z,31255,9.2606567E-4,0.042214356,0.056940213
1732438731336,2024-11-24T08:58:51.336Z,31294,-0.016171748,0.02104042,-0.0039112787
1732438731339,2024-11-24T08:58:51.339Z,31297,-0.016171748,0.02104042,-0.0039112787
1732438731352,2024-11-24T08:58:51.352Z,31310,-0.06349435,-0.011976056,0.01902581
1732438731357,2024-11-24T08:58:51.357Z,31315,-0.06349435,-0.011976056,0.01902581
1732438731369,2024-11-24T08:58:51.369Z,31327,-0.010905432,-5.427395E-4,0.060980007
1732438731372,2024-11-24T08:58:51.372Z,31330,-0.010905432,-5.427395E-4,0.060980007
1732438731385,2024-11-24T08:58:51.385Z,31343,-0.050572507,-0.020416088,0.050099228
1732438731388,2024-11-24T08:58:51.388Z,31346,-0.050572507,-0.020416088,0.050099228
1732438731401,2024-11-24T08:58:51.401Z,31359,-0.04246222,-0.025896288,0.097485706
1732438731408,2024-11-24T08:58:51.408Z,31366,-0.04246222,-0.025896288,0.097485706
1732438731427,2024-11-24T08:58:51.427Z,31385,-0.0268455,-0.02815545,0.10220737
1732438731431,2024-11-24T08:58:51.431Z,31389,-0.0268455,-0.02815545,0.10220737
1732438731443,2024-11-24T08:58:51.443Z,31401,-0.03194614,-0.035750788,0.14290282
1732438731447,2024-11-24T08:58:51.447Z,31405,-0.03194614,-0.035750788,0.14290282
1732438731458,2024-11-24T08:58:51.458Z,31416,-0.02559363,-0.03220893,0.038419507
1732438731461,2024-11-24T08:58:51.461Z,31419,-0.02559363,-0.03220893,0.038419507
1732438731470,2024-11-24T08:58:51.470Z,31428,-0.047764502,-0.032508746,0.038403146
1732438731473,2024-11-24T08:58:51.473Z,31431,-0.047764502,-0.032508746,0.038403146
1732438731482,2024-11-24T08:58:51.482Z,31440,0.0019267082,-0.003381303,0.06792328
1732438731485,2024-11-24T08:58:51.485Z,31443,0.0019267082,-0.003381303,0.06792328
1732438731493,2024-11-24T08:58:51.493Z,31451,-0.0026705682,0.015529487,0.07215229
1732438731496,2024-11-24T08:58:51.496Z,31454,-0.0026705682,0.015529487,0.07215229
1732438731504,2024-11-24T08:58:51.504Z,31462,-0.0014884735,0.010911485,0.06408347
1732438731506,2024-11-24T08:58:51.506Z,31464,-0.0014884735,0.010911485,0.06408347
1732438731516,2024-11-24T08:58:51.516Z,31474,-0.0011354886,0.029075025,0.004245203
1732438731519,2024-11-24T08:58:51.519Z,31477,-0.0011354886,0.029075025,0.004245203
1732438731527,2024-11-24T08:58:51.527Z,31485,0.009255551,0.02612521,0.008388199
1732438731529,2024-11-24T08:58:51.529Z,31487,0.009255551,0.02612521,0.008388199
1732438731537,2024-11-24T08:58:51.537Z,31495,0.0076290346,0.020865275,-0.0076580388
1732438731540,2024-11-24T08:58:51.540Z,31498,0.0076290346,0.020865275,-0.0076580388
1732438731562,2024-11-24T08:58:51.562Z,31520,0.02205217,0.009372248,0.008908231
1732438731564,2024-11-24T08:58:51.564Z,31522,0.02205217,0.009372248,0.008908231
1732438731572,2024-11-24T08:58:51.572Z,31530,-0.009889898,0.020045089,-0.010427094
1732438731576,2024-11-24T08:58:51.576Z,31534,-0.009889898,0.020045089,-0.010427094
1732438731612,2024-11-24T08:58:51.612Z,31570,-0.041486107,0.021412099,0.018191157
1732438731620,2024-11-24T08:58:51.620Z,31578,-0.041486107,0.021412099,0.018191157
1732438731651,2024-11-24T08:58:51.651Z,31609,-0.046295322,0.047210947,0.010479852
1732438731658,2024-11-24T08:58:51.658Z,31616,-0.046295322,0.047210947,0.010479852
1732438731677,2024-11-24T08:58:51.677Z,31635,-0.008111736,0.029470045,2.8427938E-4
1732438731682,2024-11-24T08:58:51.682Z,31640,-0.008111736,0.029470045,2.8427938E-4
1732438731695,2024-11-24T08:58:51.695Z,31653,-0.006228084,0.041032992,-0.018285438
1732438731700,2024-11-24T08:58:51.700Z,31658,-0.006228084,0.041032992,-0.018285438
1732438731712,2024-11-24T08:58:51.712Z,31670,0.008424436,0.038046516,-0.016423801
1732438731716,2024-11-24T08:58:51.716Z,31674,0.008424436,0.038046516,-0.016423801
1732438731727,2024-11-24T08:58:51.727Z,31685,-0.02376378,0.043966275,-0.022712495
1732438731730,2024-11-24T08:58:51.730Z,31688,-0.02376378,0.043966275,-0.022712495
1732438731741,2024-11-24T08:58:51.741Z,31699,-0.016629335,0.020692369,-0.038039174
1732438731744,2024-11-24T08:58:51.744Z,31702,-0.016629335,0.020692369,-0.038039174
1732438731755,2024-11-24T08:58:51.755Z,31713,0.0044523044,0.003201881,-0.010465872
1732438731758,2024-11-24T08:58:51.758Z,31716,0.0044523044,0.003201881,-0.010465872
1732438731768,2024-11-24T08:58:51.768Z,31726,-0.020769438,0.012670891,-0.025270792
1732438731771,2024-11-24T08:58:51.771Z,31729,-0.020769438,0.012670891,-0.025270792
1732438731781,2024-11-24T08:58:51.781Z,31739,-0.017811138,2.0898534E-4,-0.02242824
1732438731784,2024-11-24T08:58:51.784Z,31742,-0.017811138,2.0898534E-4,-0.02242824
1732438731793,2024-11-24T08:58:51.793Z,31751,-5.561354E-5,0.014338106,-0.008214928
1732438731796,2024-11-24T08:58:51.796Z,31754,-5.561354E-5,0.014338106,-0.008214928
1732438731805,2024-11-24T08:58:51.805Z,31763,-0.013480321,-0.005997364,-0.017485041
1732438731808,2024-11-24T08:58:51.808Z,31766,-0.013480321,-0.005997364,-0.017485041
1732438731818,2024-11-24T08:58:51.818Z,31776,-0.024398528,-0.013653482,-0.015542275
1732438731821,2024-11-24T08:58:51.821Z,31779,-0.024398528,-0.013653482,-0.015542275
1732438731832,2024-11-24T08:58:51.832Z,31790,1.1294107E-4,-0.018858569,0.022922331
1732438731835,2024-11-24T08:58:51.835Z,31793,1.1294107E-4,-0.018858569,0.022922331
1732438731843,2024-11-24T08:58:51.843Z,31801,-0.020711271,-0.021373978,0.034959387
1732438731845,2024-11-24T08:58:51.845Z,31803,-0.020711271,-0.021373978,0.034959387
1732438731854,2024-11-24T08:58:51.854Z,31812,-0.022878546,-0.020529771,0.061488394
1732438731857,2024-11-24T08:58:51.857Z,31815,-0.022878546,-0.020529771,0.061488394
1732438731880,2024-11-24T08:58:51.880Z,31838,-0.026983712,-0.014751117,0.038670458
1732438731883,2024-11-24T08:58:51.883Z,31841,-0.026983712,-0.014751117,0.038670458
1732438731895,2024-11-24T08:58:51.895Z,31853,-0.020827943,-0.0039357124,0.024434047
1732438731901,2024-11-24T08:58:51.901Z,31859,-0.020827943,-0.0039357124,0.024434047
1732438731918,2024-11-24T08:58:51.918Z,31876,3.4459727E-4,-0.011226081,0.015840413
1732438731921,2024-11-24T08:58:51.921Z,31879,3.4459727E-4,-0.011226081,0.015840413
1732438731974,2024-11-24T08:58:51.974Z,31932,-0.009247954,0.027114218,0.042157296
1732438731983,2024-11-24T08:58:51.983Z,31941,-0.009247954,0.027114218,0.042157296
1732438732012,2024-11-24T08:58:52.012Z,31970,-0.009659883,0.01072934,0.038431007
1732438732021,2024-11-24T08:58:52.021Z,31979,-0.009659883,0.01072934,0.038431007
1732438732048,2024-11-24T08:58:52.048Z,32006,-0.012817383,0.01876453,0.054382987
1732438732056,2024-11-24T08:58:52.056Z,32014,-0.012817383,0.01876453,0.054382987
1732438732080,2024-11-24T08:58:52.080Z,32038,-0.017488264,0.02112551,0.002121702
1732438732087,2024-11-24T08:58:52.087Z,32045,-0.017488264,0.02112551,0.002121702
1732438732109,2024-11-24T08:58:52.109Z,32067,0.0020412903,0.02036581,0.0133310575
1732438732114,2024-11-24T08:58:52.114Z,32072,0.0020412903,0.02036581,0.0133310575
1732438732128,2024-11-24T08:58:52.128Z,32086,0.00569406,0.012983737,0.019309968
1732438732132,2024-11-24T08:58:52.132Z,32090,0.00569406,0.012983737,0.019309968
1732438732149,2024-11-24T08:58:52.149Z,32107,0.004085316,0.019664655,0.032409843
1732438732155,2024-11-24T08:58:52.155Z,32113,0.004085316,0.019664655,0.032409843
1732438732174,2024-11-24T08:58:52.174Z,32132,0.0051467745,0.023934705,0.019861314
1732438732181,2024-11-24T08:58:52.181Z,32139,0.0051467745,0.023934705,0.019861314
1732438732203,2024-11-24T08:58:52.203Z,32161,-0.0036209456,0.027060052,0.044546697
1732438732209,2024-11-24T08:58:52.209Z,32167,-0.0036209456,0.027060052,0.044546697
1732438732224,2024-11-24T08:58:52.224Z,32182,0.040305797,0.020785144,0.050177973
1732438732228,2024-11-24T08:58:52.228Z,32186,0.040305797,0.020785144,0.050177973
1732438732243,2024-11-24T08:58:52.243Z,32201,0.037816755,0.045272604,-0.033876218
1732438732247,2024-11-24T08:58:52.247Z,32205,0.037816755,0.045272604,-0.033876218
1732438732258,2024-11-24T08:58:52.258Z,32216,0.03251593,0.04288702,-0.028691588
1732438732262,2024-11-24T08:58:52.262Z,32220,0.03251593,0.04288702,-0.028691588
1732438732272,2024-11-24T08:58:52.272Z,32230,0.052989867,0.041943327,-0.001712362
1732438732275,2024-11-24T08:58:52.275Z,32233,0.052989867,0.041943327,-0.001712362
1732438732286,2024-11-24T08:58:52.286Z,32244,0.02052858,0.043308493,0.010863955
1732438732289,2024-11-24T08:58:52.289Z,32247,0.02052858,0.043308493,0.010863955
1732438732298,2024-11-24T08:58:52.298Z,32256,0.039088745,0.025631484,1.8889153E-4
1732438732301,2024-11-24T08:58:52.301Z,32259,0.039088745,0.025631484,1.8889153E-4
1732438732309,2024-11-24T08:58:52.309Z,32267,0.013878477,0.042109914,-0.028987914
1732438732311,2024-11-24T08:58:52.311Z,32269,0.013878477,0.042109914,-0.028987914
1732438732320,2024-11-24T08:58:52.320Z,32278,0.042579327,0.012601067,-0.06024413
1732438732323,2024-11-24T08:58:52.323Z,32281,0.042579327,0.012601067,-0.06024413
1732438732332,2024-11-24T08:58:52.332Z,32290,0.029034253,0.01885429,-0.07316069
1732438732335,2024-11-24T08:58:52.335Z,32293,0.029034253,0.01885429,-0.07316069
1732438732342,2024-11-24T08:58:52.342Z,32300,0.027030244,0.010004358,-0.049428195
1732438732345,2024-11-24T08:58:52.345Z,32303,0.027030244,0.010004358,-0.049428195
1732438732353,2024-11-24T08:58:52.353Z,32311,0.02707053,0.0064632776,-0.029819455
1732438732356,2024-11-24T08:58:52.356Z,32314,0.02707053,0.0064632776,-0.029819455
1732438732366,2024-11-24T08:58:52.366Z,32324,0.025972761,0.0029970773,-0.007948785
1732438732368,2024-11-24T08:58:52.368Z,32326,0.025972761,0.0029970773,-0.007948785
1732438732377,2024-11-24T08:58:52.377Z,32335,0.024060082,-0.004461336,-0.013237723
1732438732379,2024-11-24T08:58:52.379Z,32337,0.024060082,-0.004461336,-0.013237723
1732438732389,2024-11-24T08:58:52.389Z,32347,0.019572416,0.005667305,-0.009805171
1732438732391,2024-11-24T08:58:52.391Z,32349,0.019572416,0.005667305,-0.009805171
1732438732399,2024-11-24T08:58:52.399Z,32357,0.0300074,-0.0049981438,-0.019926932
1732438732402,2024-11-24T08:58:52.402Z,32360,0.0300074,-0.0049981438,-0.019926932
1732438732411,2024-11-24T08:58:52.411Z,32369,0.03795622,0.0111634545,9.981992E-4
1732438732414,2024-11-24T08:58:52.414Z,32372,0.03795622,0.0111634545,9.981992E-4
1732438732424,2024-11-24T08:58:52.424Z,32382,0.045216016,-0.011868792,0.0126920305
1732438732426,2024-11-24T08:58:52.426Z,32384,0.045216016,-0.011868792,0.0126920305
1732438732436,2024-11-24T08:58:52.436Z,32394,0.031436976,-0.010449656,-0.0062214835
1732438732438,2024-11-24T08:58:52.438Z,32396,0.031436976,-0.010449656,-0.0062214835
1732438732445,2024-11-24T08:58:52.445Z,32403,0.029315421,-0.01731408,0.0022461792
1732438732448,2024-11-24T08:58:52.448Z,32406,0.029315421,-0.01731408,0.0022461792
1732438732509,2024-11-24T08:58:52.509Z,32467,0.05701924,-0.034305688,0.015898008
1732438732512,2024-11-24T08:58:52.512Z,32470,0.05701924,-0.034305688,0.015898008
1732438732524,2024-11-24T08:58:52.524Z,32482,0.057781056,-0.04258915,0.028486943
1732438732527,2024-11-24T08:58:52.527Z,32485,0.057781056,-0.04258915,0.028486943
1732438732539,2024-11-24T08:58:52.539Z,32497,0.05179434,-0.048437335,-0.00477603
1732438732542,2024-11-24T08:58:52.542Z,32500,0.05179434,-0.048437335,-0.00477603
1732438732554,2024-11-24T08:58:52.554Z,32512,0.027470183,-0.027261743,-0.02463659
1732438732557,2024-11-24T08:58:52.557Z,32515,0.027470183,-0.027261743,-0.02463659
1732438732568,2024-11-24T08:58:52.568Z,32526,0.045776263,-0.040250342,-0.024733303
1732438732571,2024-11-24T08:58:52.571Z,32529,0.045776263,-0.040250342,-0.024733303
1732438732580,2024-11-24T08:58:52.580Z,32538,0.050625533,-0.05028757,0.0013756176
1732438732583,2024-11-24T08:58:52.583Z,32541,0.050625533,-0.05028757,0.0013756176
1732438732592,2024-11-24T08:58:52.592Z,32550,0.06609117,-0.067195445,0.017871018
1732438732595,2024-11-24T08:58:52.595Z,32553,0.06609117,-0.067195445,0.017871018
1732438732603,2024-11-24T08:58:52.603Z,32561,0.050333947,-0.046099696,-0.052275814
1732438732607,2024-11-24T08:58:52.607Z,32565,0.050333947,-0.046099696,-0.052275814
1732438732643,2024-11-24T08:58:52.643Z,32601,0.052708432,-0.054506175,-0.008076824
1732438732657,2024-11-24T08:58:52.657Z,32615,0.052708432,-0.054506175,-0.008076824
1732438732679,2024-11-24T08:58:52.679Z,32637,0.08683553,-0.04187156,-0.042169344
1732438732686,2024-11-24T08:58:52.686Z,32644,0.08683553,-0.04187156,-0.042169344
1732438732703,2024-11-24T08:58:52.703Z,32661,0.037150353,-0.042958982,-0.03888467
1732438732706,2024-11-24T08:58:52.706Z,32664,0.037150353,-0.042958982,-0.03888467
1732438732719,2024-11-24T08:58:52.719Z,32677,0.049601816,-0.058443155,-0.026279664
1732438732723,2024-11-24T08:58:52.723Z,32681,0.049601816,-0.058443155,-0.026279664
1732438732736,2024-11-24T08:58:52.736Z,32694,0.057882145,-0.058854997,-0.028912779
1732438732739,2024-11-24T08:58:52.739Z,32697,0.057882145,-0.058854997,-0.028912779
1732438732751,2024-11-24T08:58:52.751Z,32709,0.030931981,-0.06281152,-0.043093774
1732438732755,2024-11-24T08:58:52.755Z,32713,0.030931981,-0.06281152,-0.043093774
1732438732765,2024-11-24T08:58:52.765Z,32723,0.02988455,-0.07564161,-0.047376424
1732438732768,2024-11-24T08:58:52.768Z,32726,0.02988455,-0.07564161,-0.047376424
1732438732777,2024-11-24T08:58:52.777Z,32735,0.038201783,-0.07084603,-0.063356705
1732438732780,2024-11-24T08:58:52.780Z,32738,0.038201783,-0.07084603,-0.063356705
1732438732789,2024-11-24T08:58:52.789Z,32747,-4.323998E-4,-0.09435489,-0.08770409
1732438732791,2024-11-24T08:58:52.791Z,32749,-4.323998E-4,-0.09435489,-0.08770409
1732438732799,2024-11-24T08:58:52.799Z,32757,0.014333073,-0.12036457,-0.07950244
1732438732802,2024-11-24T08:58:52.802Z,32760,0.014333073,-0.12036457,-0.07950244
1732438732809,2024-11-24T08:58:52.809Z,32767,0.049231887,-0.12729308,-0.0931468
1732438732812,2024-11-24T08:58:52.812Z,32770,0.049231887,-0.12729308,-0.0931468
1732438732822,2024-11-24T08:58:52.822Z,32780,0.111383595,-0.13352063,-0.100311965
1732438732825,2024-11-24T08:58:52.825Z,32783,0.111383595,-0.13352063,-0.100311965
1732438732833,2024-11-24T08:58:52.833Z,32791,0.0583753,-0.10902568,-0.11344513
1732438732835,2024-11-24T08:58:52.835Z,32793,0.0583753,-0.10902568,-0.11344513
1732438732847,2024-11-24T08:58:52.847Z,32805,0.08776032,-0.12143974,-0.10214254
1732438732852,2024-11-24T08:58:52.852Z,32810,0.08776032,-0.12143974,-0.10214254
1732438732867,2024-11-24T08:58:52.867Z,32825,0.0760256,-0.122812,-0.08645323
1732438732870,2024-11-24T08:58:52.870Z,32828,0.0760256,-0.122812,-0.08645323
1732438732878,2024-11-24T08:58:52.878Z,32836,0.108778924,-0.1550504,-0.089666784
1732438732880,2024-11-24T08:58:52.880Z,32838,0.108778924,-0.1550504,-0.089666784
1732438732889,2024-11-24T08:58:52.889Z,32847,0.12980948,-0.11201741,-0.043669943
1732438732891,2024-11-24T08:58:52.891Z,32849,0.12980948,-0.11201741,-0.043669943
1732438732899,2024-11-24T08:58:52.899Z,32857,0.066846974,-0.07664024,-0.058409125
1732438732901,2024-11-24T08:58:52.901Z,32859,0.066846974,-0.07664024,-0.058409125
1732438732909,2024-11-24T08:58:52.909Z,32867,0.0763259,-0.07353901,-0.061290592
1732438732912,2024-11-24T08:58:52.912Z,32870,0.0763259,-0.07353901,-0.061290592
1732438732920,2024-11-24T08:58:52.920Z,32878,0.049988814,-0.05981065,-0.084768444
1732438732922,2024-11-24T08:58:52.922Z,32880,0.049988814,-0.05981065,-0.084768444
1732438732930,2024-11-24T08:58:52.930Z,32888,0.067556605,-0.064370304,-0.0855113
1732438732932,2024-11-24T08:58:52.932Z,32890,0.067556605,-0.064370304,-0.0855113
1732438732942,2024-11-24T08:58:52.942Z,32900,0.06153173,-0.06840608,-0.064041786
1732438732944,2024-11-24T08:58:52.944Z,32902,0.06153173,-0.06840608,-0.064041786
1732438733008,2024-11-24T08:58:53.008Z,32966,0.009003193,-0.047214445,-0.031283166
1732438733012,2024-11-24T08:58:53.012Z,32970,0.009003193,-0.047214445,-0.031283166
1732438733023,2024-11-24T08:58:53.023Z,32981,-0.03345363,-0.057935715,-0.05998078
1732438733026,2024-11-24T08:58:53.026Z,32984,-0.03345363,-0.057935715,-0.05998078
1732438733037,2024-11-24T08:58:53.037Z,32995,1.6930827E-4,-0.0462197,-0.054291874
1732438733041,2024-11-24T08:58:53.041Z,32999,1.6930827E-4,-0.0462197,-0.054291874
1732438733052,2024-11-24T08:58:53.052Z,33010,-0.0021234038,-0.041561533,-0.078985006
1732438733055,2024-11-24T08:58:53.055Z,33013,-0.0021234038,-0.041561533,-0.078985006
1732438733064,2024-11-24T08:58:53.064Z,33022,0.045357283,-0.043218248,-0.035599142
1732438733067,2024-11-24T08:58:53.067Z,33025,0.045357283,-0.043218248,-0.035599142
1732438733075,2024-11-24T08:58:53.075Z,33033,0.006328079,-0.012171135,-0.037773136
1732438733077,2024-11-24T08:58:53.077Z,33035,0.006328079,-0.012171135,-0.037773136
1732438733095,2024-11-24T08:58:53.095Z,33053,0.03031999,-0.07344167,-0.054903664
1732438733097,2024-11-24T08:58:53.097Z,33055,0.03031999,-0.07344167,-0.054903664
1732438733107,2024-11-24T08:58:53.107Z,33065,0.048940446,-0.059339195,-0.08180529
1732438733109,2024-11-24T08:58:53.109Z,33067,0.048940446,-0.059339195,-0.08180529
1732438733183,2024-11-24T08:58:53.183Z,33141,-8.92418E-4,-0.07466942,-0.062479027
1732438733186,2024-11-24T08:58:53.186Z,33144,-8.92418E-4,-0.07466942,-0.062479027
1732438733197,2024-11-24T08:58:53.197Z,33155,0.051267486,-0.0737763,-0.030714156
1732438733200,2024-11-24T08:58:53.200Z,33158,0.051267486,-0.0737763,-0.030714156
1732438733209,2024-11-24T08:58:53.209Z,33167,0.018906439,-0.065327615,-0.0148097295
1732438733212,2024-11-24T08:58:53.212Z,33170,0.018906439,-0.065327615,-0.0148097295
1732438733223,2024-11-24T08:58:53.223Z,33181,0.041131068,-0.056708936,-0.009328134
1732438733227,2024-11-24T08:58:53.227Z,33185,0.041131068,-0.056708936,-0.009328134
1732438733237,2024-11-24T08:58:53.237Z,33195,0.012621198,-0.072582774,-0.03296289
1732438733240,2024-11-24T08:58:53.240Z,33198,0.012621198,-0.072582774,-0.03296289
1732438733250,2024-11-24T08:58:53.250Z,33208,0.05899523,-0.058371287,-0.043768615
1732438733252,2024-11-24T08:58:53.252Z,33210,0.05899523,-0.058371287,-0.043768615
1732438733273,2024-11-24T08:58:53.273Z,33231,0.07382475,-0.06992218,-0.06436479
1732438733275,2024-11-24T08:58:53.275Z,33233,0.07382475,-0.06992218,-0.06436479
1732438733286,2024-11-24T08:58:53.286Z,33244,0.021753658,-0.019208271,0.05723586
1732438733289,2024-11-24T08:58:53.289Z,33247,0.021753658,-0.019208271,0.05723586
1732438733297,2024-11-24T08:58:53.297Z,33255,0.032500282,-0.051627256,0.01485103
1732438733300,2024-11-24T08:58:53.300Z,33258,0.032500282,-0.051627256,0.01485103
1732438733317,2024-11-24T08:58:53.317Z,33275,0.042668115,-0.042031046,0.0100292545
1732438733320,2024-11-24T08:58:53.320Z,33278,0.042668115,-0.042031046,0.0100292545
1732438733328,2024-11-24T08:58:53.328Z,33286,0.032456134,-0.06766749,0.01455998
1732438733331,2024-11-24T08:58:53.331Z,33289,0.032456134,-0.06766749,0.01455998
1732438733341,2024-11-24T08:58:53.341Z,33299,0.06310594,-0.033670466,-0.008054171
1732438733344,2024-11-24T08:58:53.344Z,33302,0.06310594,-0.033670466,-0.008054171
1732438733360,2024-11-24T08:58:53.360Z,33318,0.055171594,-0.03142239,0.044655286
1732438733362,2024-11-24T08:58:53.362Z,33320,0.055171594,-0.03142239,0.044655286
1732438733369,2024-11-24T08:58:53.369Z,33327,0.016542712,-0.0056624427,0.05081614
1732438733372,2024-11-24T08:58:53.372Z,33330,0.016542712,-0.0056624427,0.05081614
1732438733380,2024-11-24T08:58:53.380Z,33338,0.025710667,-0.024964266,0.026879095
1732438733384,2024-11-24T08:58:53.384Z,33342,0.025710667,-0.024964266,0.026879095
1732438733392,2024-11-24T08:58:53.392Z,33350,0.014352304,-0.032063834,0.023740377
1732438733395,2024-11-24T08:58:53.395Z,33353,0.014352304,-0.032063834,0.023740377
1732438733407,2024-11-24T08:58:53.407Z,33365,0.013069534,-0.053321116,0.027611429
1732438733409,2024-11-24T08:58:53.409Z,33367,0.013069534,-0.053321116,0.027611429
1732438733417,2024-11-24T08:58:53.417Z,33375,0.069545776,-0.031851057,0.0233491
1732438733419,2024-11-24T08:58:53.419Z,33377,0.069545776,-0.031851057,0.0233491
1732438733428,2024-11-24T08:58:53.428Z,33386,0.04134608,-0.033273596,0.028781706
1732438733430,2024-11-24T08:58:53.430Z,33388,0.04134608,-0.033273596,0.028781706
1732438733452,2024-11-24T08:58:53.452Z,33410,0.076556124,-0.0037367435,0.050898578
1732438733455,2024-11-24T08:58:53.455Z,33413,0.076556124,-0.0037367435,0.050898578
1732438733465,2024-11-24T08:58:53.465Z,33423,0.03243508,-0.008356594,0.046755962
1732438733468,2024-11-24T08:58:53.468Z,33426,0.03243508,-0.008356594,0.046755962
1732438733498,2024-11-24T08:58:53.498Z,33456,0.04443112,0.0099826725,0.008251844
1732438733502,2024-11-24T08:58:53.502Z,33460,0.04443112,0.0099826725,0.008251844
1732438733510,2024-11-24T08:58:53.510Z,33468,0.07567258,-0.03979814,0.059491217
1732438733512,2024-11-24T08:58:53.512Z,33470,0.07567258,-0.03979814,0.059491217
1732438733544,2024-11-24T08:58:53.544Z,33502,0.04312766,-0.030214185,0.0749979
1732438733551,2024-11-24T08:58:53.551Z,33509,0.04312766,-0.030214185,0.0749979
1732438733589,2024-11-24T08:58:53.589Z,33547,0.039082956,-0.026376303,0.091023885
1732438733594,2024-11-24T08:58:53.594Z,33552,0.039082956,-0.026376303,0.091023885
1732438733616,2024-11-24T08:58:53.616Z,33574,0.041146554,0.001827868,0.03168895
1732438733622,2024-11-24T08:58:53.622Z,33580,0.041146554,0.001827868,0.03168895
1732438733648,2024-11-24T08:58:53.648Z,33606,0.044156175,-0.013396554,0.009281328
1732438733654,2024-11-24T08:58:53.654Z,33612,0.044156175,-0.013396554,0.009281328
1732438733671,2024-11-24T08:58:53.671Z,33629,0.029812405,0.0066497987,0.04032063
1732438733674,2024-11-24T08:58:53.674Z,33632,0.029812405,0.0066497987,0.04032063
1732438733686,2024-11-24T08:58:53.686Z,33644,0.04901557,4.2020736E-4,0.12117769
1732438733689,2024-11-24T08:58:53.689Z,33647,0.04901557,4.2020736E-4,0.12117769
1732438733700,2024-11-24T08:58:53.700Z,33658,0.012782458,0.008498575,0.008035153
1732438733704,2024-11-24T08:58:53.704Z,33662,0.012782458,0.008498575,0.008035153
1732438733714,2024-11-24T08:58:53.714Z,33672,0.0557324,0.04714229,0.072469614
1732438733717,2024-11-24T08:58:53.717Z,33675,0.0557324,0.04714229,0.072469614
1732438733725,2024-11-24T08:58:53.725Z,33683,0.063585564,0.03817323,0.04965448
1732438733728,2024-11-24T08:58:53.728Z,33686,0.063585564,0.03817323,0.04965448
1732438733736,2024-11-24T08:58:53.736Z,33694,0.05940671,0.028861469,-0.002603686
1732438733738,2024-11-24T08:58:53.738Z,33696,0.05940671,0.028861469,-0.002603686
1732438733746,2024-11-24T08:58:53.746Z,33704,0.0134276245,-0.00907506,-0.046158973
1732438733748,2024-11-24T08:58:53.748Z,33706,0.0134276245,-0.00907506,-0.046158973
1732438733756,2024-11-24T08:58:53.756Z,33714,0.008651083,0.013385953,0.0027016934
1732438733759,2024-11-24T08:58:53.759Z,33717,0.008651083,0.013385953,0.0027016934
1732438733767,2024-11-24T08:58:53.767Z,33725,0.04596372,-0.008128256,-0.0027614278
1732438733770,2024-11-24T08:58:53.770Z,33728,0.04596372,-0.008128256,-0.0027614278
1732438733778,2024-11-24T08:58:53.778Z,33736,0.017508673,0.010666129,0.030549318
1732438733781,2024-11-24T08:58:53.781Z,33739,0.017508673,0.010666129,0.030549318
1732438733790,2024-11-24T08:58:53.790Z,33748,0.020102853,0.034374733,0.05270674
1732438733792,2024-11-24T08:58:53.792Z,33750,0.020102853,0.034374733,0.05270674
1732438733799,2024-11-24T08:58:53.799Z,33757,0.03226533,0.029370366,-0.008755334
1732438733801,2024-11-24T08:58:53.801Z,33759,0.03226533,0.029370366,-0.008755334
1732438733813,2024-11-24T08:58:53.813Z,33771,0.075525224,0.015669525,-0.070616245
1732438733818,2024-11-24T08:58:53.818Z,33776,0.075525224,0.015669525,-0.070616245
1732438733831,2024-11-24T08:58:53.831Z,33789,0.009781418,0.0017852735,-0.07012111
1732438733834,2024-11-24T08:58:53.834Z,33792,0.009781418,0.0017852735,-0.07012111
1732438733855,2024-11-24T08:58:53.855Z,33813,0.011530102,-0.010654751,-0.023465788
1732438733858,2024-11-24T08:58:53.858Z,33816,0.011530102,-0.010654751,-0.023465788
1732438733870,2024-11-24T08:58:53.870Z,33828,0.038350828,0.016361441,-0.027637279
1732438733876,2024-11-24T08:58:53.876Z,33834,0.038350828,0.016361441,-0.027637279
1732438733899,2024-11-24T08:58:53.899Z,33857,0.044553433,0.016411232,-0.07128534
1732438733906,2024-11-24T08:58:53.906Z,33864,0.044553433,0.016411232,-0.07128534
1732438733919,2024-11-24T08:58:53.919Z,33877,0.09249508,0.0444353,-0.01275653
1732438733925,2024-11-24T08:58:53.925Z,33883,0.09249508,0.0444353,-0.01275653
1732438733945,2024-11-24T08:58:53.945Z,33903,0.015965328,0.051116705,-0.052556615
1732438733951,2024-11-24T08:58:53.951Z,33909,0.015965328,0.051116705,-0.052556615
1732438733968,2024-11-24T08:58:53.968Z,33926,0.033430967,0.022805756,-0.06187376
1732438733972,2024-11-24T08:58:53.972Z,33930,0.033430967,0.022805756,-0.06187376
1732438733985,2024-11-24T08:58:53.985Z,33943,0.05684688,0.044754468,0.020502772
1732438733990,2024-11-24T08:58:53.990Z,33948,0.05684688,0.044754468,0.020502772
1732438734001,2024-11-24T08:58:54.001Z,33959,-0.019814635,-0.00417747,-0.0875381
1732438734004,2024-11-24T08:58:54.004Z,33962,-0.019814635,-0.00417747,-0.0875381
1732438734016,2024-11-24T08:58:54.016Z,33974,0.030682772,0.0046904515,-0.039101817
1732438734021,2024-11-24T08:58:54.021Z,33979,0.030682772,0.0046904515,-0.039101817
1732438734035,2024-11-24T08:58:54.035Z,33993,0.054041404,0.0014542423,-0.019028813
1732438734040,2024-11-24T08:58:54.040Z,33998,0.054041404,0.0014542423,-0.019028813
1732438734049,2024-11-24T08:58:54.049Z,34007,0.059201807,-0.024723092,-0.041458245
1732438734052,2024-11-24T08:58:54.052Z,34010,0.059201807,-0.024723092,-0.041458245
1732438734060,2024-11-24T08:58:54.060Z,34018,0.020241553,-0.049274445,-0.10028854
1732438734062,2024-11-24T08:58:54.062Z,34020,0.020241553,-0.049274445,-0.10028854
1732438734070,2024-11-24T08:58:54.070Z,34028,0.029147329,-0.022075426,-0.025671968
1732438734072,2024-11-24T08:58:54.072Z,34030,0.029147329,-0.022075426,-0.025671968
1732438734079,2024-11-24T08:58:54.079Z,34037,0.05634034,-0.019502737,-0.02869532
1732438734082,2024-11-24T08:58:54.082Z,34040,0.05634034,-0.019502737,-0.02869532
1732438734089,2024-11-24T08:58:54.089Z,34047,0.0402925,0.00719283,-0.044869687
1732438734092,2024-11-24T08:58:54.092Z,34050,0.0402925,0.00719283,-0.044869687
1732438734098,2024-11-24T08:58:54.098Z,34056,0.02030333,-0.027635952,-0.10881698
1732438734101,2024-11-24T08:58:54.101Z,34059,0.02030333,-0.027635952,-0.10881698
1732438734109,2024-11-24T08:58:54.109Z,34067,0.073278025,0.045483533,0.01949542
1732438734111,2024-11-24T08:58:54.111Z,34069,0.073278025,0.045483533,0.01949542
1732438734118,2024-11-24T08:58:54.118Z,34076,0.057964258,0.0781931,0.04536786
1732438734120,2024-11-24T08:58:54.120Z,34078,0.057964258,0.0781931,0.04536786
1732438734129,2024-11-24T08:58:54.129Z,34087,0.07327941,0.1170986,0.044181045
1732438734131,2024-11-24T08:58:54.131Z,34089,0.07327941,0.1170986,0.044181045
1732438734138,2024-11-24T08:58:54.138Z,34096,0.054929715,0.1337441,0.0071605393
1732438734141,2024-11-24T08:58:54.141Z,34099,0.054929715,0.1337441,0.0071605393
1732438734149,2024-11-24T08:58:54.149Z,34107,0.08285894,0.09114192,-0.148002
1732438734152,2024-11-24T08:58:54.152Z,34110,0.08285894,0.09114192,-0.148002
1732438734160,2024-11-24T08:58:54.160Z,34118,0.16503146,0.13589881,-0.11213985
1732438734163,2024-11-24T08:58:54.163Z,34121,0.16503146,0.13589881,-0.11213985
1732438734174,2024-11-24T08:58:54.174Z,34132,0.013273268,0.12456985,-0.09346855
1732438734176,2024-11-24T08:58:54.176Z,34134,0.013273268,0.12456985,-0.09346855
1732438734183,2024-11-24T08:58:54.183Z,34141,0.026243463,0.106957994,-0.11220568
1732438734186,2024-11-24T08:58:54.186Z,34144,0.026243463,0.106957994,-0.11220568
1732438734193,2024-11-24T08:58:54.193Z,34151,0.007274129,0.06592335,-0.07147348
1732438734195,2024-11-24T08:58:54.195Z,34153,0.007274129,0.06592335,-0.07147348
1732438734219,2024-11-24T08:58:54.219Z,34177,-0.036286354,0.07545703,-0.03245299
1732438734221,2024-11-24T08:58:54.221Z,34179,-0.036286354,0.07545703,-0.03245299
1732438734229,2024-11-24T08:58:54.229Z,34187,-0.039396,0.06640862,-0.04422951
1732438734231,2024-11-24T08:58:54.231Z,34189,-0.039396,0.06640862,-0.04422951
1732438734313,2024-11-24T08:58:54.313Z,34271,-0.01658448,0.081720464,-0.04529032
1732438734322,2024-11-24T08:58:54.322Z,34280,-0.01658448,0.081720464,-0.04529032
1732438734341,2024-11-24T08:58:54.341Z,34299,0.021686217,0.1470123,0.0045208884
1732438734344,2024-11-24T08:58:54.344Z,34302,0.021686217,0.1470123,0.0045208884
1732438734355,2024-11-24T08:58:54.355Z,34313,-0.03663917,0.14537346,-0.079316705
1732438734358,2024-11-24T08:58:54.358Z,34316,-0.03663917,0.14537346,-0.079316705
1732438734368,2024-11-24T08:58:54.368Z,34326,0.009488289,0.13685516,-0.04843615
1732438734373,2024-11-24T08:58:54.373Z,34331,0.009488289,0.13685516,-0.04843615
1732438734383,2024-11-24T08:58:54.383Z,34341,0.011902391,0.1556544,-0.04179113
1732438734386,2024-11-24T08:58:54.386Z,34344,0.011902391,0.1556544,-0.04179113
1732438734395,2024-11-24T08:58:54.395Z,34353,0.023317376,0.16944344,-0.01810569
1732438734398,2024-11-24T08:58:54.398Z,34356,0.023317376,0.16944344,-0.01810569
1732438734407,2024-11-24T08:58:54.407Z,34365,-0.02192547,0.1641382,-0.040350188
1732438734411,2024-11-24T08:58:54.411Z,34369,-0.02192547,0.1641382,-0.040350188
1732438734420,2024-11-24T08:58:54.420Z,34378,-0.06368906,0.060048908,-0.026834477
1732438734423,2024-11-24T08:58:54.423Z,34381,-0.06368906,0.060048908,-0.026834477
1732438734431,2024-11-24T08:58:54.431Z,34389,-0.052630316,0.042105634,-0.006235414
1732438734434,2024-11-24T08:58:54.434Z,34392,-0.052630316,0.042105634,-0.006235414
1732438734443,2024-11-24T08:58:54.443Z,34401,-0.05793715,0.032900166,-0.036296386
1732438734446,2024-11-24T08:58:54.446Z,34404,-0.05793715,0.032900166,-0.036296386
1732438734454,2024-11-24T08:58:54.454Z,34412,-0.013060271,0.049003027,-0.028571844
1732438734456,2024-11-24T08:58:54.456Z,34414,-0.013060271,0.049003027,-0.028571844
1732438734464,2024-11-24T08:58:54.464Z,34422,-0.050617922,0.007799461,-0.07863548
1732438734468,2024-11-24T08:58:54.468Z,34426,-0.050617922,0.007799461,-0.07863548
1732438734476,2024-11-24T08:58:54.476Z,34434,-0.041298527,0.011512962,-0.022047631
1732438734478,2024-11-24T08:58:54.478Z,34436,-0.041298527,0.011512962,-0.022047631
1732438734485,2024-11-24T08:58:54.485Z,34443,-0.04074256,0.007380421,-0.0014766458
1732438734488,2024-11-24T08:58:54.488Z,34446,-0.04074256,0.007380421,-0.0014766458
1732438734495,2024-11-24T08:58:54.495Z,34453,-0.028660238,0.004945435,0.0016916665
1732438734497,2024-11-24T08:58:54.497Z,34455,-0.028660238,0.004945435,0.0016916665
1732438734505,2024-11-24T08:58:54.505Z,34463,-0.052102845,0.02481577,-0.04214186
1732438734507,2024-11-24T08:58:54.507Z,34465,-0.052102845,0.02481577,-0.04214186
1732438734534,2024-11-24T08:58:54.534Z,34492,-0.05829434,0.027671643,-0.058259513
1732438734540,2024-11-24T08:58:54.540Z,34498,-0.05829434,0.027671643,-0.058259513
1732438734555,2024-11-24T08:58:54.555Z,34513,0.010204057,0.052427508,-0.035749134
1732438734558,2024-11-24T08:58:54.558Z,34516,0.010204057,0.052427508,-0.035749134
1732438734566,2024-11-24T08:58:54.566Z,34524,0.016285807,0.040072866,-0.018291501
1732438734569,2024-11-24T08:58:54.569Z,34527,0.016285807,0.040072866,-0.018291501
1732438734579,2024-11-24T08:58:54.579Z,34537,0.0107529955,0.030638477,-0.022041978
1732438734581,2024-11-24T08:58:54.581Z,34539,0.0107529955,0.030638477,-0.022041978
1732438734592,2024-11-24T08:58:54.592Z,34550,0.023928942,0.012558181,0.02249187
1732438734595,2024-11-24T08:58:54.595Z,34553,0.023928942,0.012558181,0.02249187
1732438734604,2024-11-24T08:58:54.604Z,34562,0.009255745,0.03325201,0.00823473
1732438734606,2024-11-24T08:58:54.606Z,34564,0.009255745,0.03325201,0.00823473
1732438734614,2024-11-24T08:58:54.614Z,34572,0.010175588,0.02952421,0.005961595
1732438734618,2024-11-24T08:58:54.618Z,34576,0.010175588,0.02952421,0.005961595
1732438734669,2024-11-24T08:58:54.669Z,34627,-0.0073219994,0.050235253,-0.03044595
1732438734673,2024-11-24T08:58:54.673Z,34631,-0.0073219994,0.050235253,-0.03044595
1732438734684,2024-11-24T08:58:54.684Z,34642,-0.03293712,0.03970877,-0.0444475
1732438734687,2024-11-24T08:58:54.687Z,34645,-0.03293712,0.03970877,-0.0444475
1732438734698,2024-11-24T08:58:54.698Z,34656,0.0075785145,0.048175156,1.9610609E-4
1732438734702,2024-11-24T08:58:54.702Z,34660,0.0075785145,0.048175156,1.9610609E-4
1732438734712,2024-11-24T08:58:54.712Z,34670,-0.030387552,0.067439154,-0.039136443
1732438734715,2024-11-24T08:58:54.715Z,34673,-0.030387552,0.067439154,-0.039136443
1732438734729,2024-11-24T08:58:54.729Z,34687,-0.007079196,0.092959575,-0.050143365
1732438734736,2024-11-24T08:58:54.736Z,34694,-0.007079196,0.092959575,-0.050143365
1732438734756,2024-11-24T08:58:54.756Z,34714,-0.02219628,0.102337174,-0.056579147
1732438734762,2024-11-24T08:58:54.762Z,34720,-0.02219628,0.102337174,-0.056579147
1732438734779,2024-11-24T08:58:54.779Z,34737,-0.02162349,0.105959065,-0.067000836
1732438734783,2024-11-24T08:58:54.783Z,34741,-0.02162349,0.105959065,-0.067000836
1732438734796,2024-11-24T08:58:54.796Z,34754,0.016480837,0.112434015,-0.090303205
1732438734800,2024-11-24T08:58:54.800Z,34758,0.016480837,0.112434015,-0.090303205
1732438734811,2024-11-24T08:58:54.811Z,34769,-0.013931683,0.10758437,-0.10332227
1732438734815,2024-11-24T08:58:54.815Z,34773,-0.013931683,0.10758437,-0.10332227
1732438734829,2024-11-24T08:58:54.829Z,34787,-0.023242569,0.08657818,-0.09281623
1732438734838,2024-11-24T08:58:54.838Z,34796,-0.023242569,0.08657818,-0.09281623
1732438734861,2024-11-24T08:58:54.861Z,34819,0.039861474,0.09096396,0.0030530053
1732438734866,2024-11-24T08:58:54.866Z,34824,0.039861474,0.09096396,0.0030530053
1732438734883,2024-11-24T08:58:54.883Z,34841,0.0029492558,0.10804902,0.0045435242
1732438734889,2024-11-24T08:58:54.889Z,34847,0.0029492558,0.10804902,0.0045435242
1732438734902,2024-11-24T08:58:54.902Z,34860,0.02531628,0.10748411,-0.00825395
1732438734906,2024-11-24T08:58:54.906Z,34864,0.02531628,0.10748411,-0.00825395
1732438734922,2024-11-24T08:58:54.922Z,34880,-0.006825914,0.084052175,-0.10115964
1732438734928,2024-11-24T08:58:54.928Z,34886,-0.006825914,0.084052175,-0.10115964
1732438734951,2024-11-24T08:58:54.951Z,34909,0.0029758043,0.05269066,-0.055305425
1732438734958,2024-11-24T08:58:54.958Z,34916,0.0029758043,0.05269066,-0.055305425
1732438734981,2024-11-24T08:58:54.981Z,34939,0.0377662,0.05936477,-0.012686823
1732438734988,2024-11-24T08:58:54.988Z,34946,0.0377662,0.05936477,-0.012686823
1732438735008,2024-11-24T08:58:55.008Z,34966,0.055849995,0.11079276,0.016447004
1732438735012,2024-11-24T08:58:55.012Z,34970,0.055849995,0.11079276,0.016447004
1732438735025,2024-11-24T08:58:55.025Z,34983,0.07354584,0.11544422,-0.011529807
1732438735029,2024-11-24T08:58:55.029Z,34987,0.07354584,0.11544422,-0.011529807
1732438735041,2024-11-24T08:58:55.041Z,34999,0.0081043085,0.11605484,-0.069654614
1732438735045,2024-11-24T08:58:55.045Z,35003,0.0081043085,0.11605484,-0.069654614
1732438735056,2024-11-24T08:58:55.056Z,35014,0.044227432,0.06139647,-0.05937552
1732438735060,2024-11-24T08:58:55.060Z,35018,0.044227432,0.06139647,-0.05937552
1732438735069,2024-11-24T08:58:55.069Z,35027,0.03241045,0.05737683,0.009606088
1732438735072,2024-11-24T08:58:55.072Z,35030,0.03241045,0.05737683,0.009606088
1732438735081,2024-11-24T08:58:55.081Z,35039,0.07321192,0.083168484,0.0452021
1732438735083,2024-11-24T08:58:55.083Z,35041,0.07321192,0.083168484,0.0452021
1732438735092,2024-11-24T08:58:55.092Z,35050,-0.0015343258,0.096986994,-0.029814873
1732438735094,2024-11-24T08:58:55.094Z,35052,-0.0015343258,0.096986994,-0.029814873
1732438735102,2024-11-24T08:58:55.102Z,35060,0.012355979,0.06742466,-0.04741666
1732438735104,2024-11-24T08:58:55.104Z,35062,0.012355979,0.06742466,-0.04741666
1732438735112,2024-11-24T08:58:55.112Z,35070,0.053829115,0.058761932,-0.026012007
1732438735114,2024-11-24T08:58:55.114Z,35072,0.053829115,0.058761932,-0.026012007
1732438735122,2024-11-24T08:58:55.122Z,35080,0.035265934,0.07199219,-0.02182803
1732438735125,2024-11-24T08:58:55.125Z,35083,0.035265934,0.07199219,-0.02182803
1732438735138,2024-11-24T08:58:55.138Z,35096,0.07841086,0.054461345,0.014638151
1732438735144,2024-11-24T08:58:55.144Z,35102,0.07841086,0.054461345,0.014638151
1732438735164,2024-11-24T08:58:55.164Z,35122,0.005684688,0.022818884,-0.03448746
1732438735169,2024-11-24T08:58:55.169Z,35127,0.005684688,0.022818884,-0.03448746
1732438735183,2024-11-24T08:58:55.183Z,35141,0.083962604,0.08885397,0.04306685
1732438735187,2024-11-24T08:58:55.187Z,35145,0.083962604,0.08885397,0.04306685
1732438735199,2024-11-24T08:58:55.199Z,35157,0.06325225,0.08840624,-0.009159627
1732438735202,2024-11-24T08:58:55.202Z,35160,0.06325225,0.08840624,-0.009159627
1732438735213,2024-11-24T08:58:55.213Z,35171,0.04500758,0.08666969,-0.094899654
1732438735216,2024-11-24T08:58:55.216Z,35174,0.04500758,0.08666969,-0.094899654
1732438735228,2024-11-24T08:58:55.228Z,35186,0.09260866,0.013204392,-0.0487842
1732438735231,2024-11-24T08:58:55.231Z,35189,0.09260866,0.013204392,-0.0487842
1732438735241,2024-11-24T08:58:55.241Z,35199,0.13276523,0.044902965,-0.0074310354
1732438735244,2024-11-24T08:58:55.244Z,35202,0.13276523,0.044902965,-0.0074310354
1732438735253,2024-11-24T08:58:55.253Z,35211,0.1260333,0.054137997,0.058655165
1732438735256,2024-11-24T08:58:55.256Z,35214,0.1260333,0.054137997,0.058655165
1732438735265,2024-11-24T08:58:55.265Z,35223,0.10120735,0.062364377,-0.014675917
1732438735267,2024-11-24T08:58:55.267Z,35225,0.10120735,0.062364377,-0.014675917
1732438735275,2024-11-24T08:58:55.275Z,35233,0.025269696,-0.024482112,-0.12209949
1732438735278,2024-11-24T08:58:55.278Z,35236,0.025269696,-0.024482112,-0.12209949
1732438735284,2024-11-24T08:58:55.284Z,35242,0.032474514,-0.002495279,-0.083916
1732438735286,2024-11-24T08:58:55.286Z,35244,0.032474514,-0.002495279,-0.083916
1732438735294,2024-11-24T08:58:55.294Z,35252,0.059309363,-0.0018672533,-0.009544435
1732438735296,2024-11-24T08:58:55.296Z,35254,0.059309363,-0.0018672533,-0.009544435
1732438735303,2024-11-24T08:58:55.303Z,35261,0.052026942,0.0018813543,0.039666943
1732438735306,2024-11-24T08:58:55.306Z,35264,0.052026942,0.0018813543,0.039666943
1732438735316,2024-11-24T08:58:55.316Z,35274,0.08170301,0.026691677,0.045518365
1732438735319,2024-11-24T08:58:55.319Z,35277,0.08170301,0.026691677,0.045518365
1732438735332,2024-11-24T08:58:55.332Z,35290,0.08327818,0.0024749544,-0.054332376
1732438735335,2024-11-24T08:58:55.335Z,35293,0.08327818,0.0024749544,-0.054332376
1732438735345,2024-11-24T08:58:55.345Z,35303,0.014370197,-0.04462756,-0.08337599
1732438735350,2024-11-24T08:58:55.350Z,35308,0.014370197,-0.04462756,-0.08337599
1732438735368,2024-11-24T08:58:55.368Z,35326,0.039721023,-0.044864845,-0.043726742
1732438735373,2024-11-24T08:58:55.373Z,35331,0.039721023,-0.044864845,-0.043726742
1732438735482,2024-11-24T08:58:55.482Z,35440,0.070092216,-0.041180808,0.058720224
1732438735491,2024-11-24T08:58:55.491Z,35449,0.070092216,-0.041180808,0.058720224
1732438735512,2024-11-24T08:58:55.512Z,35470,0.047728375,0.016461996,0.060191654
1732438735519,2024-11-24T08:58:55.519Z,35477,0.047728375,0.016461996,0.060191654
1732438735540,2024-11-24T08:58:55.540Z,35498,0.06404802,-0.005842448,0.012442584
1732438735545,2024-11-24T08:58:55.545Z,35503,0.06404802,-0.005842448,0.012442584
1732438735558,2024-11-24T08:58:55.558Z,35516,0.12980229,-0.031691376,-0.033322845
1732438735562,2024-11-24T08:58:55.562Z,35520,0.12980229,-0.031691376,-0.033322845
1732438735574,2024-11-24T08:58:55.574Z,35532,0.09169535,-0.010673715,0.0042886985
1732438735578,2024-11-24T08:58:55.578Z,35536,0.09169535,-0.010673715,0.0042886985
1732438735589,2024-11-24T08:58:55.589Z,35547,0.08181229,-0.041883424,-0.013098334
1732438735592,2024-11-24T08:58:55.592Z,35550,0.08181229,-0.041883424,-0.013098334
1732438735614,2024-11-24T08:58:55.614Z,35572,0.08601914,-0.052629393,-0.026344717
1732438735617,2024-11-24T08:58:55.617Z,35575,0.08601914,-0.052629393,-0.026344717
1732438735627,2024-11-24T08:58:55.627Z,35585,0.08066758,-0.10516893,-0.0082508065
1732438735630,2024-11-24T08:58:55.630Z,35588,0.08066758,-0.10516893,-0.0082508065
1732438735656,2024-11-24T08:58:55.656Z,35614,0.10047682,-0.07390982,0.046769913
1732438735660,2024-11-24T08:58:55.660Z,35618,0.10047682,-0.07390982,0.046769913
1732438735670,2024-11-24T08:58:55.670Z,35628,0.082475156,-0.023860602,-0.032898586
1732438735673,2024-11-24T08:58:55.673Z,35631,0.082475156,-0.023860602,-0.032898586
1732438735704,2024-11-24T08:58:55.704Z,35662,0.047595743,-0.07797555,-0.11593452
1732438735708,2024-11-24T08:58:55.708Z,35666,0.047595743,-0.07797555,-0.11593452
1732438735719,2024-11-24T08:58:55.719Z,35677,0.08111415,-0.08698079,-0.16277584
1732438735723,2024-11-24T08:58:55.723Z,35681,0.08111415,-0.08698079,-0.16277584
1732438735753,2024-11-24T08:58:55.753Z,35711,0.077352144,-0.11006875,-0.006636889
1732438735760,2024-11-24T08:58:55.760Z,35718,0.077352144,-0.11006875,-0.006636889
1732438735782,2024-11-24T08:58:55.782Z,35740,0.12260644,-0.09689782,-0.020131808
1732438735789,2024-11-24T08:58:55.789Z,35747,0.12260644,-0.09689782,-0.020131808
1732438735809,2024-11-24T08:58:55.809Z,35767,0.15115139,-0.09891046,-0.062025875
1732438735815,2024-11-24T08:58:55.815Z,35773,0.15115139,-0.09891046,-0.062025875
1732438735833,2024-11-24T08:58:55.833Z,35791,0.052875772,-0.07562887,-0.043317437
1732438735841,2024-11-24T08:58:55.841Z,35799,0.052875772,-0.07562887,-0.043317437
1732438735861,2024-11-24T08:58:55.861Z,35819,0.094695695,-0.11796099,0.006387655
1732438735866,2024-11-24T08:58:55.866Z,35824,0.094695695,-0.11796099,0.006387655
1732438735886,2024-11-24T08:58:55.886Z,35844,0.10002529,-0.100204535,-0.023343597
1732438735891,2024-11-24T08:58:55.891Z,35849,0.10002529,-0.100204535,-0.023343597
1732438735910,2024-11-24T08:58:55.910Z,35868,0.09886656,-0.10902179,-0.042378403
1732438735917,2024-11-24T08:58:55.917Z,35875,0.09886656,-0.10902179,-0.042378403
1732438735937,2024-11-24T08:58:55.937Z,35895,0.09158981,-0.110863954,-0.0027333414
1732438735943,2024-11-24T08:58:55.943Z,35901,0.09158981,-0.110863954,-0.0027333414
1732438735961,2024-11-24T08:58:55.961Z,35919,0.092098825,-0.093258806,0.013702543
1732438735967,2024-11-24T08:58:55.967Z,35925,0.092098825,-0.093258806,0.013702543
1732438735987,2024-11-24T08:58:55.987Z,35945,0.02335072,-0.06976755,0.06945907
1732438735992,2024-11-24T08:58:55.992Z,35950,0.02335072,-0.06976755,0.06945907
1732438736009,2024-11-24T08:58:56.009Z,35967,0.09833583,-0.032313764,0.02294262
1732438736014,2024-11-24T08:58:56.014Z,35972,0.09833583,-0.032313764,0.02294262
1732438736028,2024-11-24T08:58:56.028Z,35986,0.0790291,-0.053786542,-0.07657323
1732438736032,2024-11-24T08:58:56.032Z,35990,0.0790291,-0.053786542,-0.07657323
1732438736044,2024-11-24T08:58:56.044Z,36002,0.04567166,-0.10442781,-0.14390895
1732438736047,2024-11-24T08:58:56.047Z,36005,0.04567166,-0.10442781,-0.14390895
1732438736058,2024-11-24T08:58:56.058Z,36016,0.1370821,-0.066830285,-0.03717357
1732438736061,2024-11-24T08:58:56.061Z,36019,0.1370821,-0.066830285,-0.03717357
1732438736070,2024-11-24T08:58:56.070Z,36028,0.049983867,-0.05433862,-0.0041685477
1732438736073,2024-11-24T08:58:56.073Z,36031,0.049983867,-0.05433862,-0.0041685477
1732438736081,2024-11-24T08:58:56.081Z,36039,0.0154450275,-0.050941464,9.988556E-4
1732438736084,2024-11-24T08:58:56.084Z,36042,0.0154450275,-0.050941464,9.988556E-4
1732438736092,2024-11-24T08:58:56.092Z,36050,0.03793226,-0.06172264,8.3365606E-4
1732438736094,2024-11-24T08:58:56.094Z,36052,0.03793226,-0.06172264,8.3365606E-4
1732438736101,2024-11-24T08:58:56.101Z,36059,-0.025268579,-0.04201286,5.804594E-4
1732438736104,2024-11-24T08:58:56.104Z,36062,-0.025268579,-0.04201286,5.804594E-4
1732438736112,2024-11-24T08:58:56.112Z,36070,0.045314506,-0.06193357,-0.051924866
1732438736115,2024-11-24T08:58:56.115Z,36073,0.045314506,-0.06193357,-0.051924866
1732438736123,2024-11-24T08:58:56.123Z,36081,0.07105802,-0.053567737,-0.052245405
1732438736126,2024-11-24T08:58:56.126Z,36084,0.07105802,-0.053567737,-0.052245405
1732438736135,2024-11-24T08:58:56.135Z,36093,0.06978592,-0.017888522,-0.031009147
1732438736139,2024-11-24T08:58:56.139Z,36097,0.06978592,-0.017888522,-0.031009147
1732438736147,2024-11-24T08:58:56.147Z,36105,0.07624608,-0.015369613,-0.03382426
1732438736149,2024-11-24T08:58:56.149Z,36107,0.07624608,-0.015369613,-0.03382426
1732438736157,2024-11-24T08:58:56.157Z,36115,0.014861761,-0.036843367,-0.050187964
1732438736159,2024-11-24T08:58:56.159Z,36117,0.014861761,-0.036843367,-0.050187964
1732438736167,2024-11-24T08:58:56.167Z,36125,0.030799616,-0.030184913,-0.022503365
1732438736170,2024-11-24T08:58:56.170Z,36128,0.030799616,-0.030184913,-0.022503365
1732438736182,2024-11-24T08:58:56.182Z,36140,0.010171065,-0.049906556,-0.031361878
1732438736184,2024-11-24T08:58:56.184Z,36142,0.010171065,-0.049906556,-0.031361878
1732438736192,2024-11-24T08:58:56.192Z,36150,0.008102047,-0.05793834,-0.035462353
1732438736194,2024-11-24T08:58:56.194Z,36152,0.008102047,-0.05793834,-0.035462353
1732438736202,2024-11-24T08:58:56.202Z,36160,-0.02316849,-0.013764733,-0.039974924
1732438736204,2024-11-24T08:58:56.204Z,36162,-0.02316849,-0.013764733,-0.039974924
1732438736212,2024-11-24T08:58:56.212Z,36170,-0.019842668,-0.0056120683,-0.058362924
1732438736214,2024-11-24T08:58:56.214Z,36172,-0.019842668,-0.0056120683,-0.058362924
1732438736221,2024-11-24T08:58:56.221Z,36179,-0.047105163,-0.013951059,-0.050692037
1732438736223,2024-11-24T08:58:56.223Z,36181,-0.047105163,-0.013951059,-0.050692037
1732438736231,2024-11-24T08:58:56.231Z,36189,0.00696104,-0.026486777,-0.062467154
1732438736233,2024-11-24T08:58:56.233Z,36191,0.00696104,-0.026486777,-0.062467154
1732438736245,2024-11-24T08:58:56.245Z,36203,-9.6785785E-5,-0.015470555,-0.06415782
1732438736248,2024-11-24T08:58:56.248Z,36206,-9.6785785E-5,-0.015470555,-0.06415782
1732438736255,2024-11-24T08:58:56.255Z,36213,0.018732462,-0.031681847,-0.075644255
1732438736257,2024-11-24T08:58:56.257Z,36215,0.018732462,-0.031681847,-0.075644255
1732438736264,2024-11-24T08:58:56.264Z,36222,-9.005868E-4,0.01222501,0.02119052
1732438736267,2024-11-24T08:58:56.267Z,36225,-9.005868E-4,0.01222501,0.02119052
1732438736275,2024-11-24T08:58:56.275Z,36233,-0.011778206,0.04450415,-0.027875181
1732438736277,2024-11-24T08:58:56.277Z,36235,-0.011778206,0.04450415,-0.027875181
1732438736284,2024-11-24T08:58:56.284Z,36242,0.007196793,0.038714122,-0.005952642
1732438736287,2024-11-24T08:58:56.287Z,36245,0.007196793,0.038714122,-0.005952642
1732438736296,2024-11-24T08:58:56.296Z,36254,-0.037364494,0.032287117,-0.06812446
1732438736298,2024-11-24T08:58:56.298Z,36256,-0.037364494,0.032287117,-0.06812446
1732438736305,2024-11-24T08:58:56.305Z,36263,-0.0012598685,0.008303593,-0.08301804
1732438736307,2024-11-24T08:58:56.307Z,36265,-0.0012598685,0.008303593,-0.08301804
1732438736316,2024-11-24T08:58:56.316Z,36274,0.02951439,0.03137921,-0.035038326
1732438736318,2024-11-24T08:58:56.318Z,36276,0.02951439,0.03137921,-0.035038326
1732438736326,2024-11-24T08:58:56.326Z,36284,0.049278576,0.017534833,-0.013947753
1732438736329,2024-11-24T08:58:56.329Z,36287,0.049278576,0.017534833,-0.013947753
1732438736337,2024-11-24T08:58:56.337Z,36295,0.054489765,0.0073909233,-0.022365576
1732438736340,2024-11-24T08:58:56.340Z,36298,0.054489765,0.0073909233,-0.022365576
1732438736346,2024-11-24T08:58:56.346Z,36304,0.056007635,0.0011729047,-0.029355243
1732438736348,2024-11-24T08:58:56.348Z,36306,0.056007635,0.0011729047,-0.029355243
1732438736355,2024-11-24T08:58:56.355Z,36313,0.06245161,-0.009889703,-0.0013248299
1732438736357,2024-11-24T08:58:56.357Z,36315,0.06245161,-0.009889703,-0.0013248299
1732438736365,2024-11-24T08:58:56.365Z,36323,0.03435971,-0.02113504,0.040109005
1732438736367,2024-11-24T08:58:56.367Z,36325,0.03435971,-0.02113504,0.040109005
1732438736423,2024-11-24T08:58:56.423Z,36381,0.08222938,-0.030676112,0.1008235
1732438736426,2024-11-24T08:58:56.426Z,36384,0.08222938,-0.030676112,0.1008235
1732438736435,2024-11-24T08:58:56.435Z,36393,0.040247485,-0.010719713,0.14257944
1732438736438,2024-11-24T08:58:56.438Z,36396,0.040247485,-0.010719713,0.14257944
1732438736445,2024-11-24T08:58:56.445Z,36403,0.049775977,-0.036764402,0.13469751
1732438736447,2024-11-24T08:58:56.447Z,36405,0.049775977,-0.036764402,0.13469751
1732438736468,2024-11-24T08:58:56.468Z,36426,0.10430747,-0.051486246,0.112623334
1732438736471,2024-11-24T08:58:56.471Z,36429,0.10430747,-0.051486246,0.112623334
1732438736481,2024-11-24T08:58:56.481Z,36439,0.02244324,-0.054636393,0.14473742
1732438736484,2024-11-24T08:58:56.484Z,36442,0.02244324,-0.054636393,0.14473742
1732438736496,2024-11-24T08:58:56.496Z,36454,0.023776969,-0.054505788,0.11098008
1732438736499,2024-11-24T08:58:56.499Z,36457,0.023776969,-0.054505788,0.11098008
1732438736512,2024-11-24T08:58:56.512Z,36470,-0.012826147,-0.024375042,0.15873356
1732438736516,2024-11-24T08:58:56.516Z,36474,-0.012826147,-0.024375042,0.15873356
1732438736530,2024-11-24T08:58:56.530Z,36488,0.008459943,-0.03483209,0.22203934
1732438736535,2024-11-24T08:58:56.535Z,36493,0.008459943,-0.03483209,0.22203934
1732438736555,2024-11-24T08:58:56.555Z,36513,-0.024824983,-0.021898046,0.14361072
1732438736562,2024-11-24T08:58:56.562Z,36520,-0.024824983,-0.021898046,0.14361072
1732438736581,2024-11-24T08:58:56.581Z,36539,-0.030203743,-0.036371324,0.12371791
1732438736587,2024-11-24T08:58:56.587Z,36545,-0.030203743,-0.036371324,0.12371791
1732438736605,2024-11-24T08:58:56.605Z,36563,-0.03272189,-0.02471959,0.12875904
1732438736611,2024-11-24T08:58:56.611Z,36569,-0.03272189,-0.02471959,0.12875904
1732438736631,2024-11-24T08:58:56.631Z,36589,-0.03572053,-0.038477227,0.12985699
1732438736636,2024-11-24T08:58:56.636Z,36594,-0.03572053,-0.038477227,0.12985699
1732438736656,2024-11-24T08:58:56.656Z,36614,-0.004144856,-0.0052540023,0.095846884
1732438736662,2024-11-24T08:58:56.662Z,36620,-0.004144856,-0.0052540023,0.095846884
1732438736680,2024-11-24T08:58:56.680Z,36638,-0.017335353,-0.0031988663,0.09454724
1732438736686,2024-11-24T08:58:56.686Z,36644,-0.017335353,-0.0031988663,0.09454724
1732438736701,2024-11-24T08:58:56.701Z,36659,-0.0042394046,0.014193888,0.09498053
1732438736705,2024-11-24T08:58:56.705Z,36663,-0.0042394046,0.014193888,0.09498053
1732438736717,2024-11-24T08:58:56.717Z,36675,-0.010800854,0.046661884,0.06524055
1732438736721,2024-11-24T08:58:56.721Z,36679,-0.010800854,0.046661884,0.06524055
1732438736733,2024-11-24T08:58:56.733Z,36691,-0.02076709,0.077994905,0.076791435
1732438736737,2024-11-24T08:58:56.737Z,36695,-0.02076709,0.077994905,0.076791435
1732438736748,2024-11-24T08:58:56.748Z,36706,-0.021146346,0.08108417,0.080559835
1732438736751,2024-11-24T08:58:56.751Z,36709,-0.021146346,0.08108417,0.080559835
1732438736761,2024-11-24T08:58:56.761Z,36719,-0.04222683,0.08472513,0.049984742
1732438736763,2024-11-24T08:58:56.763Z,36721,-0.04222683,0.08472513,0.049984742
1732438736773,2024-11-24T08:58:56.773Z,36731,-0.013003831,0.077427365,0.07626387
1732438736776,2024-11-24T08:58:56.776Z,36734,-0.013003831,0.077427365,0.07626387
1732438736792,2024-11-24T08:58:56.792Z,36750,-0.0018615887,0.07351606,0.08727683
1732438736795,2024-11-24T08:58:56.795Z,36753,-0.0018615887,0.07351606,0.08727683
1732438736802,2024-11-24T08:58:56.802Z,36760,0.003247709,0.06311231,0.05051715
1732438736804,2024-11-24T08:58:56.804Z,36762,0.003247709,0.06311231,0.05051715
1732438736817,2024-11-24T08:58:56.817Z,36775,2.3523007E-4,0.0638441,0.029391443
1732438736823,2024-11-24T08:58:56.823Z,36781,2.3523007E-4,0.0638441,0.029391443
1732438736840,2024-11-24T08:58:56.840Z,36798,0.011983848,0.06407924,0.016126564
1732438736846,2024-11-24T08:58:56.846Z,36804,0.011983848,0.06407924,0.016126564
1732438736863,2024-11-24T08:58:56.863Z,36821,0.011795358,0.060618974,0.039158273
1732438736869,2024-11-24T08:58:56.869Z,36827,0.011795358,0.060618974,0.039158273
1732438736885,2024-11-24T08:58:56.885Z,36843,-0.009511252,0.045649633,0.037152834
1732438736891,2024-11-24T08:58:56.891Z,36849,-0.009511252,0.045649633,0.037152834
1732438736908,2024-11-24T08:58:56.908Z,36866,-0.0029457426,0.03318948,0.06488569
1732438736913,2024-11-24T08:58:56.913Z,36871,-0.0029457426,0.03318948,0.06488569
1732438736931,2024-11-24T08:58:56.931Z,36889,-0.0011118939,-0.0019472883,0.07838477
1732438736936,2024-11-24T08:58:56.936Z,36894,-0.0011118939,-0.0019472883,0.07838477
1732438736952,2024-11-24T08:58:56.952Z,36910,3.8959866E-4,-0.0024662993,0.080473796
1732438736956,2024-11-24T08:58:56.956Z,36914,3.8959866E-4,-0.0024662993,0.080473796
1732438736968,2024-11-24T08:58:56.968Z,36926,-0.015457779,-0.0030714718,0.055055335
1732438736972,2024-11-24T08:58:56.972Z,36930,-0.015457779,-0.0030714718,0.055055335
1732438736983,2024-11-24T08:58:56.983Z,36941,0.0042721406,-0.0013758607,0.053216964
1732438736986,2024-11-24T08:58:56.986Z,36944,0.0042721406,-0.0013758607,0.053216964
1732438736997,2024-11-24T08:58:56.997Z,36955,0.018445484,-0.003923751,0.05892606
1732438737000,2024-11-24T08:58:57Z,36958,0.018445484,-0.003923751,0.05892606
1732438737010,2024-11-24T08:58:57.010Z,36968,0.0013804921,-0.010870641,0.059750844
1732438737013,2024-11-24T08:58:57.013Z,36971,0.0013804921,-0.010870641,0.059750844
1732438737021,2024-11-24T08:58:57.021Z,36979,-0.006783259,-0.003442861,0.021696597
1732438737024,2024-11-24T08:58:57.024Z,36982,-0.006783259,-0.003442861,0.021696597
1732438737033,2024-11-24T08:58:57.033Z,36991,-0.013999246,0.0030814884,0.034488514
1732438737035,2024-11-24T08:58:57.035Z,36993,-0.013999246,0.0030814884,0.034488514
1732438737043,2024-11-24T08:58:57.043Z,37001,0.01480036,0.017826283,0.071293175
1732438737046,2024-11-24T08:58:57.046Z,37004,0.01480036,0.017826283,0.071293175
1732438737053,2024-11-24T08:58:57.053Z,37011,-0.00661062,0.031467512,0.048719086
1732438737055,2024-11-24T08:58:57.055Z,37013,-0.00661062,0.031467512,0.048719086
1732438737063,2024-11-24T08:58:57.063Z,37021,0.02728546,0.046672873,0.052856855
1732438737065,2024-11-24T08:58:57.065Z,37023,0.02728546,0.046672873,0.052856855
1732438737073,2024-11-24T08:58:57.073Z,37031,0.015390302,0.055958476,0.046086736
1732438737076,2024-11-24T08:58:57.076Z,37034,0.015390302,0.055958476,0.046086736
1732438737087,2024-11-24T08:58:57.087Z,37045,0.03389998,0.055536807,0.032632858
1732438737093,2024-11-24T08:58:57.093Z,37051,0.03389998,0.055536807,0.032632858
1732438737110,2024-11-24T08:58:57.110Z,37068,0.029021623,0.051743858,0.03926469
1732438737116,2024-11-24T08:58:57.116Z,37074,0.029021623,0.051743858,0.03926469
1732438737132,2024-11-24T08:58:57.132Z,37090,0.043498233,0.059258383,0.037301525
1732438737138,2024-11-24T08:58:57.138Z,37096,0.043498233,0.059258383,0.037301525
1732438737156,2024-11-24T08:58:57.156Z,37114,0.03419695,0.06815266,0.039683074
1732438737162,2024-11-24T08:58:57.162Z,37120,0.03419695,0.06815266,0.039683074
1732438737178,2024-11-24T08:58:57.178Z,37136,0.04799892,0.056334045,0.03290892
1732438737181,2024-11-24T08:58:57.181Z,37139,0.04799892,0.056334045,0.03290892
1732438737190,2024-11-24T08:58:57.190Z,37148,0.030033972,0.07969304,0.025736852
1732438737193,2024-11-24T08:58:57.193Z,37151,0.030033972,0.07969304,0.025736852
1732438737203,2024-11-24T08:58:57.203Z,37161,0.060234487,0.073272556,0.018658774
1732438737206,2024-11-24T08:58:57.206Z,37164,0.060234487,0.073272556,0.018658774
1732438737214,2024-11-24T08:58:57.214Z,37172,0.03790157,0.0684301,0.016942473
1732438737217,2024-11-24T08:58:57.217Z,37175,0.03790157,0.0684301,0.016942473
1732438737226,2024-11-24T08:58:57.226Z,37184,0.05616072,0.052892644,0.04448847
1732438737229,2024-11-24T08:58:57.229Z,37187,0.05616072,0.052892644,0.04448847
1732438737237,2024-11-24T08:58:57.237Z,37195,0.043210186,0.031696435,0.020018613
1732438737240,2024-11-24T08:58:57.240Z,37198,0.043210186,0.031696435,0.020018613
1732438737248,2024-11-24T08:58:57.248Z,37206,0.039809786,0.017825603,0.01698086
1732438737250,2024-11-24T08:58:57.250Z,37208,0.039809786,0.017825603,0.01698086
1732438737257,2024-11-24T08:58:57.257Z,37215,0.045736443,0.013146724,-0.008806218
1732438737260,2024-11-24T08:58:57.260Z,37218,0.045736443,0.013146724,-0.008806218
1732438737266,2024-11-24T08:58:57.266Z,37224,0.084189,0.012504306,0.021308482
1732438737268,2024-11-24T08:58:57.268Z,37226,0.084189,0.012504306,0.021308482
1732438737275,2024-11-24T08:58:57.275Z,37233,0.04454484,0.03691854,0.036442462
1732438737277,2024-11-24T08:58:57.277Z,37235,0.04454484,0.03691854,0.036442462
1732438737286,2024-11-24T08:58:57.286Z,37244,0.04377089,0.010541361,0.06366042
1732438737288,2024-11-24T08:58:57.288Z,37246,0.04377089,0.010541361,0.06366042
1732438737296,2024-11-24T08:58:57.296Z,37254,0.04387419,0.01429308,0.048606474
1732438737299,2024-11-24T08:58:57.299Z,37257,0.04387419,0.01429308,0.048606474
1732438737321,2024-11-24T08:58:57.321Z,37279,0.04787923,-0.018018251,0.08016292
1732438737324,2024-11-24T08:58:57.324Z,37282,0.04787923,-0.018018251,0.08016292
1732438737332,2024-11-24T08:58:57.332Z,37290,0.062023498,-0.0063875215,0.051607564
1732438737334,2024-11-24T08:58:57.334Z,37292,0.062023498,-0.0063875215,0.051607564
1732438737342,2024-11-24T08:58:57.342Z,37300,0.053780776,-0.0020303377,-0.013532505
1732438737345,2024-11-24T08:58:57.345Z,37303,0.053780776,-0.0020303377,-0.013532505
1732438737366,2024-11-24T08:58:57.366Z,37324,0.0727367,-0.027113343,-0.027744774
1732438737368,2024-11-24T08:58:57.368Z,37326,0.0727367,-0.027113343,-0.027744774
1732438737376,2024-11-24T08:58:57.376Z,37334,0.010650995,-0.050847135,-0.011453532
1732438737379,2024-11-24T08:58:57.379Z,37337,0.010650995,-0.050847135,-0.011453532
1732438737386,2024-11-24T08:58:57.386Z,37344,0.12207739,-0.05943537,0.022890653
1732438737388,2024-11-24T08:58:57.388Z,37346,0.12207739,-0.05943537,0.022890653
1732438737412,2024-11-24T08:58:57.412Z,37370,0.10292073,-0.060377702,0.026811827
1732438737415,2024-11-24T08:58:57.415Z,37373,0.10292073,-0.060377702,0.026811827
1732438737422,2024-11-24T08:58:57.422Z,37380,0.104730695,-0.049076155,-0.009097074
1732438737424,2024-11-24T08:58:57.424Z,37382,0.104730695,-0.049076155,-0.009097074
1732438737432,2024-11-24T08:58:57.432Z,37390,0.10306347,-0.025560297,-0.002765263
1732438737434,2024-11-24T08:58:57.434Z,37392,0.10306347,-0.025560297,-0.002765263
1732438737456,2024-11-24T08:58:57.456Z,37414,0.1416477,-0.011486609,-0.053302042
1732438737459,2024-11-24T08:58:57.459Z,37417,0.1416477,-0.011486609,-0.053302042
1732438737467,2024-11-24T08:58:57.467Z,37425,0.13276188,0.0060780793,-0.079988725
1732438737470,2024-11-24T08:58:57.470Z,37428,0.13276188,0.0060780793,-0.079988725
1732438737478,2024-11-24T08:58:57.478Z,37436,0.11944234,-0.024524512,-0.12973185
1732438737480,2024-11-24T08:58:57.480Z,37438,0.11944234,-0.024524512,-0.12973185
1732438737502,2024-11-24T08:58:57.502Z,37460,0.12990323,0.012871415,-0.08876296
1732438737505,2024-11-24T08:58:57.505Z,37463,0.12990323,0.012871415,-0.08876296
1732438737513,2024-11-24T08:58:57.513Z,37471,0.13383403,0.020797104,-0.10158581
1732438737516,2024-11-24T08:58:57.516Z,37474,0.13383403,0.020797104,-0.10158581
1732438737545,2024-11-24T08:58:57.545Z,37503,0.11601054,0.014573834,-0.10251327
1732438737548,2024-11-24T08:58:57.548Z,37506,0.11601054,0.014573834,-0.10251327
1732438737557,2024-11-24T08:58:57.557Z,37515,0.12795699,-3.952147E-4,-0.11189752
1732438737561,2024-11-24T08:58:57.561Z,37519,0.12795699,-3.952147E-4,-0.11189752
1732438737571,2024-11-24T08:58:57.571Z,37529,0.10010874,-0.012087988,-0.14829227
1732438737574,2024-11-24T08:58:57.574Z,37532,0.10010874,-0.012087988,-0.14829227
1732438737589,2024-11-24T08:58:57.589Z,37547,0.11094428,-0.017955234,-0.11302065
1732438737596,2024-11-24T08:58:57.596Z,37554,0.11094428,-0.017955234,-0.11302065
1732438737616,2024-11-24T08:58:57.616Z,37574,0.14254367,-0.0014078552,-0.097908504
1732438737622,2024-11-24T08:58:57.622Z,37580,0.14254367,-0.0014078552,-0.097908504
1732438737643,2024-11-24T08:58:57.643Z,37601,0.0978992,-0.0051799966,-0.12692247
1732438737649,2024-11-24T08:58:57.649Z,37607,0.0978992,-0.0051799966,-0.12692247
1732438737669,2024-11-24T08:58:57.669Z,37627,0.11269172,0.0125691695,-0.067905396
1732438737674,2024-11-24T08:58:57.674Z,37632,0.11269172,0.0125691695,-0.067905396
1732438737693,2024-11-24T08:58:57.693Z,37651,0.10699287,0.006341621,-0.084359854
1732438737699,2024-11-24T08:58:57.699Z,37657,0.10699287,0.006341621,-0.084359854
1732438737719,2024-11-24T08:58:57.719Z,37677,0.16723123,-0.004199837,-0.082544155
1732438737727,2024-11-24T08:58:57.727Z,37685,0.16723123,-0.004199837,-0.082544155
1732438737744,2024-11-24T08:58:57.744Z,37702,0.16864231,-0.0055897012,-0.106640406
1732438737750,2024-11-24T08:58:57.750Z,37708,0.16864231,-0.0055897012,-0.106640406
1732438737763,2024-11-24T08:58:57.763Z,37721,0.06542152,-0.020625366,-0.12505755
1732438737766,2024-11-24T08:58:57.766Z,37724,0.06542152,-0.020625366,-0.12505755
1732438737779,2024-11-24T08:58:57.779Z,37737,0.13845952,-0.05088185,-0.088282615
1732438737782,2024-11-24T08:58:57.782Z,37740,0.13845952,-0.05088185,-0.088282615
1732438737794,2024-11-24T08:58:57.794Z,37752,0.12876964,-0.06687939,-0.08638991
1732438737798,2024-11-24T08:58:57.798Z,37756,0.12876964,-0.06687939,-0.08638991
1732438737808,2024-11-24T08:58:57.808Z,37766,0.09849274,-0.08629772,-0.071649015
1732438737811,2024-11-24T08:58:57.811Z,37769,0.09849274,-0.08629772,-0.071649015
1732438737821,2024-11-24T08:58:57.821Z,37779,0.09450549,-0.104442686,-0.03757354
1732438737823,2024-11-24T08:58:57.823Z,37781,0.09450549,-0.104442686,-0.03757354
1732438737832,2024-11-24T08:58:57.832Z,37790,0.13589904,-0.13197371,-0.06880412
1732438737834,2024-11-24T08:58:57.834Z,37792,0.13589904,-0.13197371,-0.06880412
1732438737841,2024-11-24T08:58:57.841Z,37799,0.101812474,-0.11946571,-0.054514144
1732438737844,2024-11-24T08:58:57.844Z,37802,0.101812474,-0.11946571,-0.054514144
1732438737854,2024-11-24T08:58:57.854Z,37812,0.0649879,-0.11346815,-0.03465451
1732438737859,2024-11-24T08:58:57.859Z,37817,0.0649879,-0.11346815,-0.03465451
1732438737874,2024-11-24T08:58:57.874Z,37832,0.095319144,-0.12219438,-0.028020762
1732438737880,2024-11-24T08:58:57.880Z,37838,0.095319144,-0.12219438,-0.028020762
1732438737897,2024-11-24T08:58:57.897Z,37855,0.07551068,-0.13054611,-0.052430186
1732438737902,2024-11-24T08:58:57.902Z,37860,0.07551068,-0.13054611,-0.052430186
1732438737918,2024-11-24T08:58:57.918Z,37876,0.08087264,-0.114045896,-0.09171627
1732438737924,2024-11-24T08:58:57.924Z,37882,0.08087264,-0.114045896,-0.09171627
1732438737941,2024-11-24T08:58:57.941Z,37899,0.06417358,-0.110783815,-0.08546932
1732438737946,2024-11-24T08:58:57.946Z,37904,0.06417358,-0.110783815,-0.08546932
1732438737958,2024-11-24T08:58:57.958Z,37916,0.05481472,-0.12852822,-0.10452965
1732438737962,2024-11-24T08:58:57.962Z,37920,0.05481472,-0.12852822,-0.10452965
1732438737973,2024-11-24T08:58:57.973Z,37931,0.104165494,-0.13083066,-0.07261461
1732438737977,2024-11-24T08:58:57.977Z,37935,0.104165494,-0.13083066,-0.07261461
1732438737987,2024-11-24T08:58:57.987Z,37945,0.09093836,-0.12808506,-0.05032209
1732438737991,2024-11-24T08:58:57.991Z,37949,0.09093836,-0.12808506,-0.05032209
1732438738004,2024-11-24T08:58:58.004Z,37962,0.07742675,-0.10044814,-0.012391979
1732438738010,2024-11-24T08:58:58.010Z,37968,0.07742675,-0.10044814,-0.012391979
1732438738036,2024-11-24T08:58:58.036Z,37994,0.04278135,-0.09898077,-0.042511407
1732438738043,2024-11-24T08:58:58.043Z,38001,0.04278135,-0.09898077,-0.042511407
1732438738058,2024-11-24T08:58:58.058Z,38016,0.040712062,-0.105246045,-0.06323059
1732438738061,2024-11-24T08:58:58.061Z,38019,0.040712062,-0.105246045,-0.06323059
1732438738071,2024-11-24T08:58:58.071Z,38029,0.00372167,-0.0916231,-0.066443525
1732438738074,2024-11-24T08:58:58.074Z,38032,0.00372167,-0.0916231,-0.066443525
1732438738084,2024-11-24T08:58:58.084Z,38042,0.03818469,-0.111591265,-0.03890157
1732438738086,2024-11-24T08:58:58.086Z,38044,0.03818469,-0.111591265,-0.03890157
1732438738095,2024-11-24T08:58:58.095Z,38053,-0.0035071173,-0.10503268,0.010608996
1732438738098,2024-11-24T08:58:58.098Z,38056,-0.0035071173,-0.10503268,0.010608996
1732438738106,2024-11-24T08:58:58.106Z,38064,-0.010202647,-0.114149176,0.0123101715
1732438738108,2024-11-24T08:58:58.108Z,38066,-0.010202647,-0.114149176,0.0123101715
1732438738116,2024-11-24T08:58:58.116Z,38074,-0.0464971,-0.10772333,-0.0019091672
1732438738118,2024-11-24T08:58:58.118Z,38076,-0.0464971,-0.10772333,-0.0019091672
1732438738125,2024-11-24T08:58:58.125Z,38083,-0.004943077,-0.0854291,0.009231507
1732438738128,2024-11-24T08:58:58.128Z,38086,-0.004943077,-0.0854291,0.009231507
1732438738137,2024-11-24T08:58:58.137Z,38095,-0.0044643995,-0.09163934,-0.0019530684
1732438738150,2024-11-24T08:58:58.150Z,38108,-0.0044643995,-0.09163934,-0.0019530684
1732438738171,2024-11-24T08:58:58.171Z,38129,0.046947625,-0.07101932,-0.016407074
1732438738178,2024-11-24T08:58:58.178Z,38136,0.046947625,-0.07101932,-0.016407074
1732438738196,2024-11-24T08:58:58.196Z,38154,0.026844867,-0.052118745,-0.005801652
1732438738201,2024-11-24T08:58:58.201Z,38159,0.026844867,-0.052118745,-0.005801652
1732438738218,2024-11-24T08:58:58.218Z,38176,-0.0059664147,-0.041919503,-0.009488317
1732438738223,2024-11-24T08:58:58.223Z,38181,-0.0059664147,-0.041919503,-0.009488317
1732438738239,2024-11-24T08:58:58.239Z,38197,0.014049767,-0.031856503,0.032223634
1732438738244,2024-11-24T08:58:58.244Z,38202,0.014049767,-0.031856503,0.032223634
1732438738256,2024-11-24T08:58:58.256Z,38214,-0.005354581,-0.009024491,0.029866096
1732438738260,2024-11-24T08:58:58.260Z,38218,-0.005354581,-0.009024491,0.029866096
1732438738270,2024-11-24T08:58:58.270Z,38228,-0.015683673,-0.008131951,-0.014473145
1732438738273,2024-11-24T08:58:58.273Z,38231,-0.015683673,-0.008131951,-0.014473145
1732438738282,2024-11-24T08:58:58.282Z,38240,0.012866359,-0.013308836,0.025525654
1732438738286,2024-11-24T08:58:58.286Z,38244,0.012866359,-0.013308836,0.025525654
1732438738301,2024-11-24T08:58:58.301Z,38259,0.015028078,-0.04814355,-0.028595245
1732438738306,2024-11-24T08:58:58.306Z,38264,0.015028078,-0.04814355,-0.028595245
1732438738324,2024-11-24T08:58:58.324Z,38282,-0.011273733,-0.03950027,-0.014982314
1732438738330,2024-11-24T08:58:58.330Z,38288,-0.011273733,-0.03950027,-0.014982314
1732438738348,2024-11-24T08:58:58.348Z,38306,0.0034284682,-0.006722054,0.06954896
1732438738354,2024-11-24T08:58:58.354Z,38312,0.0034284682,-0.006722054,0.06954896
1732438738368,2024-11-24T08:58:58.368Z,38326,-0.011895827,0.0023438644,0.0324448
1732438738371,2024-11-24T08:58:58.371Z,38329,-0.011895827,0.0023438644,0.0324448
1732438738382,2024-11-24T08:58:58.382Z,38340,-0.02963184,-6.301652E-4,-0.024340697
1732438738385,2024-11-24T08:58:58.385Z,38343,-0.02963184,-6.301652E-4,-0.024340697
1732438738395,2024-11-24T08:58:58.395Z,38353,0.006352999,-0.014092069,-0.01725522
1732438738398,2024-11-24T08:58:58.398Z,38356,0.006352999,-0.014092069,-0.01725522
1732438738406,2024-11-24T08:58:58.406Z,38364,0.022524443,-0.014349873,0.0160349
1732438738409,2024-11-24T08:58:58.409Z,38367,0.022524443,-0.014349873,0.0160349
1732438738417,2024-11-24T08:58:58.417Z,38375,0.012098369,-0.0071906904,0.0364463
1732438738419,2024-11-24T08:58:58.419Z,38377,0.012098369,-0.0071906904,0.0364463
1732438738427,2024-11-24T08:58:58.427Z,38385,-0.01455881,0.003417479,0.05995157
1732438738430,2024-11-24T08:58:58.430Z,38388,-0.01455881,0.003417479,0.05995157
1732438738443,2024-11-24T08:58:58.443Z,38401,0.0044001187,-0.011863929,0.10259862
1732438738449,2024-11-24T08:58:58.449Z,38407,0.0044001187,-0.011863929,0.10259862
1732438738468,2024-11-24T08:58:58.468Z,38426,0.040451474,0.029514974,0.07213708
1732438738474,2024-11-24T08:58:58.474Z,38432,0.040451474,0.029514974,0.07213708
1732438738493,2024-11-24T08:58:58.493Z,38451,0.020898364,0.01988424,0.05489298
1732438738498,2024-11-24T08:58:58.498Z,38456,0.020898364,0.01988424,0.05489298
1732438738510,2024-11-24T08:58:58.510Z,38468,0.011510264,0.018526856,0.017684424
1732438738514,2024-11-24T08:58:58.514Z,38472,0.011510264,0.018526856,0.017684424
1732438738525,2024-11-24T08:58:58.525Z,38483,0.028544392,-0.0043568923,0.031518452
1732438738528,2024-11-24T08:58:58.528Z,38486,0.028544392,-0.0043568923,0.031518452
1732438738539,2024-11-24T08:58:58.539Z,38497,0.020927368,0.046339024,0.021758642
1732438738541,2024-11-24T08:58:58.541Z,38499,0.020927368,0.046339024,0.021758642
1732438738552,2024-11-24T08:58:58.552Z,38510,-0.010249034,-0.023805365,-0.02833244
1732438738555,2024-11-24T08:58:58.555Z,38513,-0.010249034,-0.023805365,-0.02833244
1732438738564,2024-11-24T08:58:58.564Z,38522,0.014936034,-7.43945E-5,-0.023891509
1732438738566,2024-11-24T08:58:58.566Z,38524,0.014936034,-7.43945E-5,-0.023891509
1732438738575,2024-11-24T08:58:58.575Z,38533,0.0019709438,0.01648971,0.051753186
1732438738577,2024-11-24T08:58:58.577Z,38535,0.0019709438,0.01648971,0.051753186
1732438738589,2024-11-24T08:58:58.589Z,38547,-0.01227181,0.02791058,0.051349126
1732438738595,2024-11-24T08:58:58.595Z,38553,-0.01227181,0.02791058,0.051349126
1732438738610,2024-11-24T08:58:58.610Z,38568,0.012636513,0.037086096,0.08081191
1732438738615,2024-11-24T08:58:58.615Z,38573,0.012636513,0.037086096,0.08081191
1732438738634,2024-11-24T08:58:58.634Z,38592,0.03176874,0.036156215,-0.0076176263
1732438738639,2024-11-24T08:58:58.639Z,38597,0.03176874,0.036156215,-0.0076176263
1732438738653,2024-11-24T08:58:58.653Z,38611,0.010370035,0.04355939,-0.0077360617
1732438738656,2024-11-24T08:58:58.656Z,38614,0.010370035,0.04355939,-0.0077360617
1732438738668,2024-11-24T08:58:58.668Z,38626,-0.040775917,0.0123669915,-0.03417585
1732438738671,2024-11-24T08:58:58.671Z,38629,-0.040775917,0.0123669915,-0.03417585
1732438738686,2024-11-24T08:58:58.686Z,38644,0.038179792,0.006401039,0.06310531
1732438738688,2024-11-24T08:58:58.688Z,38646,0.038179792,0.006401039,0.06310531
1732438738696,2024-11-24T08:58:58.696Z,38654,-0.022962349,0.017878506,0.1777261
1732438738698,2024-11-24T08:58:58.698Z,38656,-0.022962349,0.017878506,0.1777261
1732438738706,2024-11-24T08:58:58.706Z,38664,0.035482164,0.03818383,0.09137704
1732438738708,2024-11-24T08:58:58.708Z,38666,0.035482164,0.03818383,0.09137704
1732438738715,2024-11-24T08:58:58.715Z,38673,0.012679667,0.0077846795,0.023697846
1732438738717,2024-11-24T08:58:58.717Z,38675,0.012679667,0.0077846795,0.023697846
1732438738724,2024-11-24T08:58:58.724Z,38682,0.04156608,0.034098938,1.5986309E-4
1732438738726,2024-11-24T08:58:58.726Z,38684,0.04156608,0.034098938,1.5986309E-4
1732438738732,2024-11-24T08:58:58.732Z,38690,-0.0019193295,-0.022566041,-0.032501224
1732438738735,2024-11-24T08:58:58.735Z,38693,-0.0019193295,-0.022566041,-0.032501224
1732438738741,2024-11-24T08:58:58.741Z,38699,0.062281545,-0.036563877,0.026811447
1732438738743,2024-11-24T08:58:58.743Z,38701,0.062281545,-0.036563877,0.026811447
1732438738749,2024-11-24T08:58:58.749Z,38707,0.052446738,-0.007882024,-0.010776251
1732438738751,2024-11-24T08:58:58.751Z,38709,0.052446738,-0.007882024,-0.010776251
1732438738758,2024-11-24T08:58:58.758Z,38716,0.039827388,-0.0015270809,0.039400183
1732438738760,2024-11-24T08:58:58.760Z,38718,0.039827388,-0.0015270809,0.039400183
1732438738767,2024-11-24T08:58:58.767Z,38725,0.07947856,4.4014317E-4,0.031277712
1732438738769,2024-11-24T08:58:58.769Z,38727,0.07947856,4.4014317E-4,0.031277712
1732438738775,2024-11-24T08:58:58.775Z,38733,0.07856657,-0.0010448295,0.024915248
1732438738777,2024-11-24T08:58:58.777Z,38735,0.07856657,-0.0010448295,0.024915248
1732438738785,2024-11-24T08:58:58.785Z,38743,0.050877135,-0.018210413,-0.066113114
1732438738787,2024-11-24T08:58:58.787Z,38745,0.050877135,-0.018210413,-0.066113114
1732438738793,2024-11-24T08:58:58.793Z,38751,0.10130348,-0.009632483,0.060024254
1732438738796,2024-11-24T08:58:58.796Z,38754,0.10130348,-0.009632483,0.060024254
1732438738804,2024-11-24T08:58:58.804Z,38762,0.06495593,-0.02594219,-0.01659441
1732438738806,2024-11-24T08:58:58.806Z,38764,0.06495593,-0.02594219,-0.01659441
1732438738816,2024-11-24T08:58:58.816Z,38774,0.12970023,-0.041775577,0.02837189
1732438738818,2024-11-24T08:58:58.818Z,38776,0.12970023,-0.041775577,0.02837189
1732438738826,2024-11-24T08:58:58.826Z,38784,0.10885994,-0.028721238,0.057109017
1732438738830,2024-11-24T08:58:58.830Z,38788,0.10885994,-0.028721238,0.057109017
1732438738837,2024-11-24T08:58:58.837Z,38795,0.092336096,-0.01014809,0.110027306
1732438738839,2024-11-24T08:58:58.839Z,38797,0.092336096,-0.01014809,0.110027306
1732438738845,2024-11-24T08:58:58.845Z,38803,0.07937536,-0.013278981,0.05692055
1732438738848,2024-11-24T08:58:58.848Z,38806,0.07937536,-0.013278981,0.05692055
1732438738855,2024-11-24T08:58:58.855Z,38813,0.08738544,-0.030473739,0.032600783
1732438738858,2024-11-24T08:58:58.858Z,38816,0.08738544,-0.030473739,0.032600783
1732438738866,2024-11-24T08:58:58.866Z,38824,0.08207996,-0.028975151,0.024798565
1732438738869,2024-11-24T08:58:58.869Z,38827,0.08207996,-0.028975151,0.024798565
1732438738875,2024-11-24T08:58:58.875Z,38833,0.104230225,-0.038247816,0.029978419
1732438738877,2024-11-24T08:58:58.877Z,38835,0.104230225,-0.038247816,0.029978419
1732438738887,2024-11-24T08:58:58.887Z,38845,0.06258758,-0.032997802,0.024405655
1732438738889,2024-11-24T08:58:58.889Z,38847,0.06258758,-0.032997802,0.024405655
1732438738899,2024-11-24T08:58:58.899Z,38857,0.065135084,-0.010151397,0.08781662
1732438738901,2024-11-24T08:58:58.901Z,38859,0.065135084,-0.010151397,0.08781662
1732438738907,2024-11-24T08:58:58.907Z,38865,0.03995347,-0.0058880574,0.043058332
1732438738909,2024-11-24T08:58:58.909Z,38867,0.03995347,-0.0058880574,0.043058332
1732438738917,2024-11-24T08:58:58.917Z,38875,0.070700526,-0.013016898,0.0017110979
1732438738920,2024-11-24T08:58:58.920Z,38878,0.070700526,-0.013016898,0.0017110979
