Timestamp (ms),ISO DateTime,Elapsed Time (ms),Acceleration X,Acceleration Y,Acceleration Z
1732440022402,2024-11-24T09:20:22.402Z,27420,-0.017913297,-0.13971364,-0.60419595
1732440022408,2024-11-24T09:20:22.408Z,27426,-0.017913297,-0.13971364,-0.60419595
1732440022430,2024-11-24T09:20:22.430Z,27448,0.013396164,-0.13402297,-0.59922594
1732440022437,2024-11-24T09:20:22.437Z,27455,0.013396164,-0.13402297,-0.59922594
1732440022453,2024-11-24T09:20:22.453Z,27471,0.033666015,-0.12715115,-0.5685126
1732440022458,2024-11-24T09:20:22.458Z,27476,0.033666015,-0.12715115,-0.5685126
1732440022472,2024-11-24T09:20:22.472Z,27490,0.031498,-0.10843368,-0.5573545
1732440022477,2024-11-24T09:20:22.477Z,27495,0.031498,-0.10843368,-0.5573545
1732440022492,2024-11-24T09:20:22.492Z,27510,0.034873955,-0.12365757,-0.5404678
1732440022496,2024-11-24T09:20:22.496Z,27514,0.034873955,-0.12365757,-0.5404678
1732440022510,2024-11-24T09:20:22.510Z,27528,0.021853652,-0.11894839,-0.5245355
1732440022515,2024-11-24T09:20:22.515Z,27533,0.021853652,-0.11894839,-0.5245355
1732440022529,2024-11-24T09:20:22.529Z,27547,0.017719457,-0.12115874,-0.519416
1732440022533,2024-11-24T09:20:22.533Z,27551,0.017719457,-0.12115874,-0.519416
1732440022545,2024-11-24T09:20:22.545Z,27563,-0.0077604647,-0.105862305,-0.5543441
1732440022549,2024-11-24T09:20:22.549Z,27567,-0.0077604647,-0.105862305,-0.5543441
1732440022563,2024-11-24T09:20:22.563Z,27581,-0.008410493,-0.11002636,-0.56283605
1732440022567,2024-11-24T09:20:22.567Z,27585,-0.008410493,-0.11002636,-0.56283605
1732440022585,2024-11-24T09:20:22.585Z,27603,0.029434938,-0.10682073,-0.57131326
1732440022591,2024-11-24T09:20:22.591Z,27609,0.029434938,-0.10682073,-0.57131326
1732440022604,2024-11-24T09:20:22.604Z,27622,0.036124926,-0.11142191,-0.5386779
1732440022608,2024-11-24T09:20:22.608Z,27626,0.036124926,-0.11142191,-0.5386779
1732440022623,2024-11-24T09:20:22.623Z,27641,0.040411822,-0.10713392,-0.52494687
1732440022626,2024-11-24T09:20:22.626Z,27644,0.040411822,-0.10713392,-0.52494687
1732440022640,2024-11-24T09:20:22.640Z,27658,0.02537927,-0.11194739,-0.50665873
1732440022644,2024-11-24T09:20:22.644Z,27662,0.02537927,-0.11194739,-0.50665873
1732440022659,2024-11-24T09:20:22.659Z,27677,-0.0036867096,-0.103691734,-0.5080042
1732440022664,2024-11-24T09:20:22.664Z,27682,-0.0036867096,-0.103691734,-0.5080042
1732440022678,2024-11-24T09:20:22.678Z,27696,-0.011356953,-0.1062156,-0.509505
1732440022682,2024-11-24T09:20:22.682Z,27700,-0.011356953,-0.1062156,-0.509505
1732440022693,2024-11-24T09:20:22.693Z,27711,0.0043545337,-0.10139601,-0.5251785
1732440022696,2024-11-24T09:20:22.696Z,27714,0.0043545337,-0.10139601,-0.5251785
1732440022707,2024-11-24T09:20:22.707Z,27725,0.014385805,-0.084864385,-0.49641174
1732440022710,2024-11-24T09:20:22.710Z,27728,0.014385805,-0.084864385,-0.49641174
1732440022721,2024-11-24T09:20:22.721Z,27739,0.044011276,-0.09144728,-0.47713342
1732440022724,2024-11-24T09:20:22.724Z,27742,0.044011276,-0.09144728,-0.47713342
1732440022734,2024-11-24T09:20:22.734Z,27752,0.028769424,-0.07349749,-0.47077698
1732440022737,2024-11-24T09:20:22.737Z,27755,0.028769424,-0.07349749,-0.47077698
1732440022747,2024-11-24T09:20:22.747Z,27765,0.0070912302,-0.048821174,-0.46459523
1732440022751,2024-11-24T09:20:22.751Z,27769,0.0070912302,-0.048821174,-0.46459523
1732440022764,2024-11-24T09:20:22.764Z,27782,0.016990196,-0.039455634,-0.4378162
1732440022768,2024-11-24T09:20:22.768Z,27786,0.016990196,-0.039455634,-0.4378162
1732440022781,2024-11-24T09:20:22.781Z,27799,0.006257088,-0.03817984,-0.41969392
1732440022785,2024-11-24T09:20:22.785Z,27803,0.006257088,-0.03817984,-0.41969392
1732440022795,2024-11-24T09:20:22.795Z,27813,0.03943062,-0.040390186,-0.39454904
1732440022798,2024-11-24T09:20:22.798Z,27816,0.03943062,-0.040390186,-0.39454904
1732440022809,2024-11-24T09:20:22.809Z,27827,0.029264342,-0.031307638,-0.37510392
1732440022813,2024-11-24T09:20:22.813Z,27831,0.029264342,-0.031307638,-0.37510392
1732440022825,2024-11-24T09:20:22.825Z,27843,0.008037548,-0.02260348,-0.3697883
1732440022829,2024-11-24T09:20:22.829Z,27847,0.008037548,-0.02260348,-0.3697883
1732440022844,2024-11-24T09:20:22.844Z,27862,0.009652224,-0.00920401,-0.36882007
1732440022848,2024-11-24T09:20:22.848Z,27866,0.009652224,-0.00920401,-0.36882007
1732440022859,2024-11-24T09:20:22.859Z,27877,0.019808508,-0.015198068,-0.3819123
1732440022862,2024-11-24T09:20:22.862Z,27880,0.019808508,-0.015198068,-0.3819123
1732440022875,2024-11-24T09:20:22.875Z,27893,0.027335068,-0.04358662,-0.32182327
1732440022879,2024-11-24T09:20:22.879Z,27897,0.027335068,-0.04358662,-0.32182327
1732440022892,2024-11-24T09:20:22.892Z,27910,0.021610582,-0.0230798,-0.34599155
1732440022899,2024-11-24T09:20:22.899Z,27917,0.021610582,-0.0230798,-0.34599155
1732440022910,2024-11-24T09:20:22.910Z,27928,7.903808E-5,-0.0149705075,-0.34554377
1732440022914,2024-11-24T09:20:22.914Z,27932,7.903808E-5,-0.0149705075,-0.34554377
1732440022925,2024-11-24T09:20:22.925Z,27943,0.010322456,-0.011816764,-0.33908868
1732440022929,2024-11-24T09:20:22.929Z,27947,0.010322456,-0.011816764,-0.33908868
1732440022943,2024-11-24T09:20:22.943Z,27961,0.06606893,-0.03795588,-0.317801
1732440022946,2024-11-24T09:20:22.946Z,27964,0.06606893,-0.03795588,-0.317801
1732440022958,2024-11-24T09:20:22.958Z,27976,0.03724072,-0.03865976,-0.2984393
1732440022962,2024-11-24T09:20:22.962Z,27980,0.03724072,-0.03865976,-0.2984393
1732440022974,2024-11-24T09:20:22.974Z,27992,0.007548003,-0.04088848,-0.2932661
1732440022978,2024-11-24T09:20:22.978Z,27996,0.007548003,-0.04088848,-0.2932661
1732440022990,2024-11-24T09:20:22.990Z,28008,-0.066101365,-0.050979976,-0.3340156
1732440022993,2024-11-24T09:20:22.993Z,28011,-0.066101365,-0.050979976,-0.3340156
1732440023004,2024-11-24T09:20:23.004Z,28022,-0.0055879266,-0.07011628,-0.3483915
1732440023008,2024-11-24T09:20:23.008Z,28026,-0.0055879266,-0.07011628,-0.3483915
1732440023019,2024-11-24T09:20:23.019Z,28037,0.015016749,-0.09480757,-0.28264746
1732440023024,2024-11-24T09:20:23.024Z,28042,0.015016749,-0.09480757,-0.28264746
1732440023034,2024-11-24T09:20:23.034Z,28052,-0.056698993,-0.11160391,-0.24329557
1732440023037,2024-11-24T09:20:23.037Z,28055,-0.056698993,-0.11160391,-0.24329557
1732440023047,2024-11-24T09:20:23.047Z,28065,-0.10718804,-0.1202328,-0.2661819
1732440023050,2024-11-24T09:20:23.050Z,28068,-0.10718804,-0.1202328,-0.2661819
1732440023061,2024-11-24T09:20:23.061Z,28079,-0.12706804,-0.16069524,-0.27322614
1732440023066,2024-11-24T09:20:23.066Z,28084,-0.12706804,-0.16069524,-0.27322614
1732440023078,2024-11-24T09:20:23.078Z,28096,-0.059261397,-0.20232008,-0.2253401
1732440023082,2024-11-24T09:20:23.082Z,28100,-0.059261397,-0.20232008,-0.2253401
1732440023093,2024-11-24T09:20:23.093Z,28111,-0.0995182,-0.19278736,-0.21795158
1732440023097,2024-11-24T09:20:23.097Z,28115,-0.0995182,-0.19278736,-0.21795158
1732440023108,2024-11-24T09:20:23.108Z,28126,-0.08103803,-0.21851785,-0.18967928
1732440023112,2024-11-24T09:20:23.112Z,28130,-0.08103803,-0.21851785,-0.18967928
1732440023125,2024-11-24T09:20:23.125Z,28143,-0.17033823,-0.21445319,-0.20568436
1732440023129,2024-11-24T09:20:23.129Z,28147,-0.17033823,-0.21445319,-0.20568436
1732440023144,2024-11-24T09:20:23.144Z,28162,-0.1858823,-0.22463416,-0.20392683
1732440023148,2024-11-24T09:20:23.148Z,28166,-0.1858823,-0.22463416,-0.20392683
1732440023162,2024-11-24T09:20:23.162Z,28180,-0.18927133,-0.23837496,-0.19704023
1732440023166,2024-11-24T09:20:23.166Z,28184,-0.18927133,-0.23837496,-0.19704023
1732440023178,2024-11-24T09:20:23.178Z,28196,-0.14876376,-0.247447,-0.20188838
1732440023182,2024-11-24T09:20:23.182Z,28200,-0.14876376,-0.247447,-0.20188838
1732440023193,2024-11-24T09:20:23.193Z,28211,-0.10801805,-0.23988259,-0.19919986
1732440023196,2024-11-24T09:20:23.196Z,28214,-0.10801805,-0.23988259,-0.19919986
1732440023206,2024-11-24T09:20:23.206Z,28224,-0.115124516,-0.24483523,-0.20833938
1732440023209,2024-11-24T09:20:23.209Z,28227,-0.115124516,-0.24483523,-0.20833938
1732440023220,2024-11-24T09:20:23.220Z,28238,-0.10612196,-0.24170268,-0.24092633
1732440023223,2024-11-24T09:20:23.223Z,28241,-0.10612196,-0.24170268,-0.24092633
1732440023234,2024-11-24T09:20:23.234Z,28252,-0.08137562,-0.25028518,-0.24837586
1732440023237,2024-11-24T09:20:23.237Z,28255,-0.08137562,-0.25028518,-0.24837586
1732440023249,2024-11-24T09:20:23.249Z,28267,-0.0022924205,-0.26473483,-0.23299876
1732440023252,2024-11-24T09:20:23.252Z,28270,-0.0022924205,-0.26473483,-0.23299876
1732440023264,2024-11-24T09:20:23.264Z,28282,-0.009846137,-0.23180169,-0.2345412
1732440023268,2024-11-24T09:20:23.268Z,28286,-0.009846137,-0.23180169,-0.2345412
1732440023278,2024-11-24T09:20:23.278Z,28296,-0.06537599,-0.2199752,-0.2546527
1732440023283,2024-11-24T09:20:23.283Z,28301,-0.06537599,-0.2199752,-0.2546527
1732440023295,2024-11-24T09:20:23.295Z,28313,-0.009117751,-0.23401564,-0.27552384
1732440023298,2024-11-24T09:20:23.298Z,28316,-0.009117751,-0.23401564,-0.27552384
1732440023308,2024-11-24T09:20:23.308Z,28326,0.08393606,-0.18926448,-0.28572738
1732440023311,2024-11-24T09:20:23.311Z,28329,0.08393606,-0.18926448,-0.28572738
1732440023323,2024-11-24T09:20:23.323Z,28341,0.030304382,-0.1934014,-0.3070953
1732440023326,2024-11-24T09:20:23.326Z,28344,0.030304382,-0.1934014,-0.3070953
1732440023339,2024-11-24T09:20:23.339Z,28357,0.02574643,-0.20041071,-0.29039392
1732440023346,2024-11-24T09:20:23.346Z,28364,0.02574643,-0.20041071,-0.29039392
1732440023367,2024-11-24T09:20:23.367Z,28385,0.17535348,-0.23042098,-0.262528
1732440023370,2024-11-24T09:20:23.370Z,28388,0.17535348,-0.23042098,-0.262528
1732440023380,2024-11-24T09:20:23.380Z,28398,0.12528156,-0.19462258,-0.29250455
1732440023385,2024-11-24T09:20:23.385Z,28403,0.12528156,-0.19462258,-0.29250455
1732440023395,2024-11-24T09:20:23.395Z,28413,0.08780297,-0.16668448,-0.34368464
1732440023399,2024-11-24T09:20:23.399Z,28417,0.08780297,-0.16668448,-0.34368464
1732440023410,2024-11-24T09:20:23.410Z,28428,0.10888725,-0.17809212,-0.35836178
1732440023414,2024-11-24T09:20:23.414Z,28432,0.10888725,-0.17809212,-0.35836178
1732440023428,2024-11-24T09:20:23.428Z,28446,0.13054217,-0.18966445,-0.3098065
1732440023432,2024-11-24T09:20:23.432Z,28450,0.13054217,-0.18966445,-0.3098065
1732440023444,2024-11-24T09:20:23.444Z,28462,0.16747569,-0.20821144,-0.30361217
1732440023448,2024-11-24T09:20:23.448Z,28466,0.16747569,-0.20821144,-0.30361217
1732440023460,2024-11-24T09:20:23.460Z,28478,0.18890312,-0.16914625,-0.307107
1732440023464,2024-11-24T09:20:23.464Z,28482,0.18890312,-0.16914625,-0.307107
1732440023567,2024-11-24T09:20:23.567Z,28585,0.21213733,-0.18017711,-0.39438653
1732440023572,2024-11-24T09:20:23.572Z,28590,0.21213733,-0.18017711,-0.39438653
1732440023602,2024-11-24T09:20:23.602Z,28620,0.11653821,-0.17595063,-0.4936411
1732440023610,2024-11-24T09:20:23.610Z,28628,0.11653821,-0.17595063,-0.4936411
1732440023656,2024-11-24T09:20:23.656Z,28674,0.28259408,-0.2077023,-0.3705557
1732440023663,2024-11-24T09:20:23.663Z,28681,0.28259408,-0.2077023,-0.3705557
1732440023686,2024-11-24T09:20:23.686Z,28704,0.29757193,-0.15434569,-0.2654304
1732440023691,2024-11-24T09:20:23.691Z,28709,0.29757193,-0.15434569,-0.2654304
1732440023705,2024-11-24T09:20:23.705Z,28723,0.28813618,-0.15471537,-0.2862551
1732440023710,2024-11-24T09:20:23.710Z,28728,0.28813618,-0.15471537,-0.2862551
1732440023731,2024-11-24T09:20:23.731Z,28749,0.371984,-0.19418715,-0.38085264
1732440023742,2024-11-24T09:20:23.742Z,28760,0.371984,-0.19418715,-0.38085264
1732440023769,2024-11-24T09:20:23.769Z,28787,0.36471006,-0.18862842,-0.28416586
1732440023777,2024-11-24T09:20:23.777Z,28795,0.36471006,-0.18862842,-0.28416586
1732440023804,2024-11-24T09:20:23.804Z,28822,0.37113348,-0.12800133,-0.33624476
1732440023812,2024-11-24T09:20:23.812Z,28830,0.37113348,-0.12800133,-0.33624476
1732440023838,2024-11-24T09:20:23.838Z,28856,0.41000172,-0.11815398,-0.2514012
1732440023847,2024-11-24T09:20:23.847Z,28865,0.41000172,-0.11815398,-0.2514012
1732440023876,2024-11-24T09:20:23.876Z,28894,0.3078467,-0.07610095,-0.22357196
1732440023884,2024-11-24T09:20:23.884Z,28902,0.3078467,-0.07610095,-0.22357196
1732440023902,2024-11-24T09:20:23.902Z,28920,0.2983601,-0.06476785,-0.17889038
1732440023907,2024-11-24T09:20:23.907Z,28925,0.2983601,-0.06476785,-0.17889038
1732440023924,2024-11-24T09:20:23.924Z,28942,0.3038257,-0.035584446,-0.23512489
1732440023929,2024-11-24T09:20:23.929Z,28947,0.3038257,-0.035584446,-0.23512489
1732440023943,2024-11-24T09:20:23.943Z,28961,0.24941212,0.008188889,-0.31348392
1732440023948,2024-11-24T09:20:23.948Z,28966,0.24941212,0.008188889,-0.31348392
1732440023960,2024-11-24T09:20:23.960Z,28978,0.3196594,-0.019358665,-0.2508819
1732440023964,2024-11-24T09:20:23.964Z,28982,0.3196594,-0.019358665,-0.2508819
1732440023976,2024-11-24T09:20:23.976Z,28994,0.35359934,-0.031604584,-0.24705625
1732440023980,2024-11-24T09:20:23.980Z,28998,0.35359934,-0.031604584,-0.24705625
1732440023990,2024-11-24T09:20:23.990Z,29008,0.28987858,-0.0037680087,-0.25563854
1732440023994,2024-11-24T09:20:23.994Z,29012,0.28987858,-0.0037680087,-0.25563854
1732440024006,2024-11-24T09:20:24.006Z,29024,0.34308767,-0.035408232,-0.19674592
1732440024010,2024-11-24T09:20:24.010Z,29028,0.34308767,-0.035408232,-0.19674592
1732440024022,2024-11-24T09:20:24.022Z,29040,0.30317008,-0.015995547,-0.15288585
1732440024025,2024-11-24T09:20:24.025Z,29043,0.30317008,-0.015995547,-0.15288585
1732440024038,2024-11-24T09:20:24.038Z,29056,0.3209369,0.0018469773,-0.27807927
1732440024042,2024-11-24T09:20:24.042Z,29060,0.3209369,0.0018469773,-0.27807927
1732440024053,2024-11-24T09:20:24.053Z,29071,0.3453491,0.00857015,-0.13429357
1732440024056,2024-11-24T09:20:24.056Z,29074,0.3453491,0.00857015,-0.13429357
1732440024068,2024-11-24T09:20:24.068Z,29086,0.2701868,0.018033957,-0.19229345
1732440024072,2024-11-24T09:20:24.072Z,29090,0.2701868,0.018033957,-0.19229345
1732440024082,2024-11-24T09:20:24.082Z,29100,0.3180304,0.042479794,-0.21464467
1732440024085,2024-11-24T09:20:24.085Z,29103,0.3180304,0.042479794,-0.21464467
1732440024096,2024-11-24T09:20:24.096Z,29114,0.3294875,0.0019560405,-0.2254363
1732440024099,2024-11-24T09:20:24.099Z,29117,0.3294875,0.0019560405,-0.2254363
1732440024111,2024-11-24T09:20:24.111Z,29129,0.31103304,0.0072474834,-0.15654428
1732440024114,2024-11-24T09:20:24.114Z,29132,0.31103304,0.0072474834,-0.15654428
1732440024125,2024-11-24T09:20:24.125Z,29143,0.20860578,0.047326475,-0.182261
1732440024128,2024-11-24T09:20:24.128Z,29146,0.20860578,0.047326475,-0.182261
1732440024140,2024-11-24T09:20:24.140Z,29158,0.3161043,0.027408587,-0.14820097
1732440024144,2024-11-24T09:20:24.144Z,29162,0.3161043,0.027408587,-0.14820097
1732440024156,2024-11-24T09:20:24.156Z,29174,0.28362715,0.02370948,-0.22720091
1732440024162,2024-11-24T09:20:24.162Z,29180,0.28362715,0.02370948,-0.22720091
1732440024192,2024-11-24T09:20:24.192Z,29210,0.18456629,0.09366127,-0.08989028
1732440024196,2024-11-24T09:20:24.196Z,29214,0.18456629,0.09366127,-0.08989028
1732440024209,2024-11-24T09:20:24.209Z,29227,0.17535244,0.034155827,-0.067213066
1732440024213,2024-11-24T09:20:24.213Z,29231,0.17535244,0.034155827,-0.067213066
1732440024233,2024-11-24T09:20:24.233Z,29251,0.103941225,0.056685694,-0.2096243
1732440024242,2024-11-24T09:20:24.242Z,29260,0.103941225,0.056685694,-0.2096243
1732440024290,2024-11-24T09:20:24.290Z,29308,0.3177635,-0.033323873,-0.10658616
1732440024300,2024-11-24T09:20:24.300Z,29318,0.3177635,-0.033323873,-0.10658616
1732440024323,2024-11-24T09:20:24.323Z,29341,0.24386846,0.0039613857,-0.029887784
1732440024328,2024-11-24T09:20:24.328Z,29346,0.24386846,0.0039613857,-0.029887784
1732440024344,2024-11-24T09:20:24.344Z,29362,0.22347641,0.038854256,-0.10913049
1732440024348,2024-11-24T09:20:24.348Z,29366,0.22347641,0.038854256,-0.10913049
1732440024363,2024-11-24T09:20:24.363Z,29381,0.2702071,-0.03381527,-0.097838104
1732440024367,2024-11-24T09:20:24.367Z,29385,0.2702071,-0.03381527,-0.097838104
1732440024380,2024-11-24T09:20:24.380Z,29398,0.22410177,-0.045880012,-0.043029804
1732440024383,2024-11-24T09:20:24.383Z,29401,0.22410177,-0.045880012,-0.043029804
1732440024395,2024-11-24T09:20:24.395Z,29413,0.28146592,-0.08703427,-0.07524271
1732440024398,2024-11-24T09:20:24.398Z,29416,0.28146592,-0.08703427,-0.07524271
1732440024410,2024-11-24T09:20:24.410Z,29428,0.2911294,-0.080923714,-0.110687375
1732440024414,2024-11-24T09:20:24.414Z,29432,0.2911294,-0.080923714,-0.110687375
1732440024427,2024-11-24T09:20:24.427Z,29445,0.2600852,-0.08575527,-0.026695652
1732440024435,2024-11-24T09:20:24.435Z,29453,0.2600852,-0.08575527,-0.026695652
1732440024455,2024-11-24T09:20:24.455Z,29473,0.27294326,-0.09872393,-0.02597901
1732440024462,2024-11-24T09:20:24.462Z,29480,0.27294326,-0.09872393,-0.02597901
1732440024476,2024-11-24T09:20:24.476Z,29494,0.24973473,-0.091207564,-0.06349109
1732440024479,2024-11-24T09:20:24.479Z,29497,0.24973473,-0.091207564,-0.06349109
1732440024494,2024-11-24T09:20:24.494Z,29512,0.20668958,-0.10426978,-0.046782527
1732440024501,2024-11-24T09:20:24.501Z,29519,0.20668958,-0.10426978,-0.046782527
1732440024525,2024-11-24T09:20:24.525Z,29543,0.27710903,-0.118236005,0.01992156
1732440024531,2024-11-24T09:20:24.531Z,29549,0.27710903,-0.118236005,0.01992156
1732440024548,2024-11-24T09:20:24.548Z,29566,0.27564844,-0.11845443,-0.022986788
1732440024553,2024-11-24T09:20:24.553Z,29571,0.27564844,-0.11845443,-0.022986788
1732440024567,2024-11-24T09:20:24.567Z,29585,0.2246923,-0.0896517,-0.047151435
1732440024574,2024-11-24T09:20:24.574Z,29592,0.2246923,-0.0896517,-0.047151435
1732440024593,2024-11-24T09:20:24.593Z,29611,0.23682317,-0.0987922,-0.034043755
1732440024601,2024-11-24T09:20:24.601Z,29619,0.23682317,-0.0987922,-0.034043755
1732440024623,2024-11-24T09:20:24.623Z,29641,0.24255273,-0.088386014,-0.06768575
1732440024629,2024-11-24T09:20:24.629Z,29647,0.24255273,-0.088386014,-0.06768575
1732440024643,2024-11-24T09:20:24.643Z,29661,0.25495714,-0.074644916,-0.041022915
1732440024648,2024-11-24T09:20:24.648Z,29666,0.25495714,-0.074644916,-0.041022915
1732440024661,2024-11-24T09:20:24.661Z,29679,0.2476142,-0.07043681,-0.03506406
1732440024665,2024-11-24T09:20:24.665Z,29683,0.2476142,-0.07043681,-0.03506406
1732440024677,2024-11-24T09:20:24.677Z,29695,0.23480882,-0.0724053,-0.05796418
1732440024680,2024-11-24T09:20:24.680Z,29698,0.23480882,-0.0724053,-0.05796418
1732440024692,2024-11-24T09:20:24.692Z,29710,0.2234287,-0.086921275,-0.045600656
1732440024695,2024-11-24T09:20:24.695Z,29713,0.2234287,-0.086921275,-0.045600656
1732440024707,2024-11-24T09:20:24.707Z,29725,0.20266598,-0.0651868,-0.058907513
1732440024711,2024-11-24T09:20:24.711Z,29729,0.20266598,-0.0651868,-0.058907513
1732440024721,2024-11-24T09:20:24.721Z,29739,0.20613031,-0.07010675,-0.052886833
1732440024725,2024-11-24T09:20:24.725Z,29743,0.20613031,-0.07010675,-0.052886833
1732440024736,2024-11-24T09:20:24.736Z,29754,0.1988833,-0.07163967,-0.07549991
1732440024740,2024-11-24T09:20:24.740Z,29758,0.1988833,-0.07163967,-0.07549991
1732440024748,2024-11-24T09:20:24.748Z,29766,0.22015455,-0.075447306,-0.07890233
1732440024752,2024-11-24T09:20:24.752Z,29770,0.22015455,-0.075447306,-0.07890233
1732440024761,2024-11-24T09:20:24.761Z,29779,0.2484828,-0.07079254,-0.020190382
1732440024764,2024-11-24T09:20:24.764Z,29782,0.2484828,-0.07079254,-0.020190382
1732440024774,2024-11-24T09:20:24.774Z,29792,0.20644458,-0.05245318,-0.05314615
1732440024778,2024-11-24T09:20:24.778Z,29796,0.20644458,-0.05245318,-0.05314615
1732440024789,2024-11-24T09:20:24.789Z,29807,0.24546267,-0.083143875,-0.061393533
1732440024793,2024-11-24T09:20:24.793Z,29811,0.24546267,-0.083143875,-0.061393533
1732440024803,2024-11-24T09:20:24.803Z,29821,0.23303664,-0.047224656,-0.06546852
1732440024806,2024-11-24T09:20:24.806Z,29824,0.23303664,-0.047224656,-0.06546852
1732440024816,2024-11-24T09:20:24.816Z,29834,0.26040134,-0.060414266,-0.11384192
1732440024821,2024-11-24T09:20:24.821Z,29839,0.26040134,-0.060414266,-0.11384192
1732440024830,2024-11-24T09:20:24.830Z,29848,0.2864768,-0.09153043,-0.045539677
1732440024832,2024-11-24T09:20:24.832Z,29850,0.2864768,-0.09153043,-0.045539677
1732440024842,2024-11-24T09:20:24.842Z,29860,0.20885207,-0.06275959,-0.07120812
1732440024846,2024-11-24T09:20:24.846Z,29864,0.20885207,-0.06275959,-0.07120812
1732440024856,2024-11-24T09:20:24.856Z,29874,0.18709569,-0.042116914,-0.09284983
1732440024859,2024-11-24T09:20:24.859Z,29877,0.18709569,-0.042116914,-0.09284983
1732440024871,2024-11-24T09:20:24.871Z,29889,0.19911025,-0.045273285,-0.05654527
1732440024875,2024-11-24T09:20:24.875Z,29893,0.19911025,-0.045273285,-0.05654527
1732440024884,2024-11-24T09:20:24.884Z,29902,0.2190585,-0.056711268,-0.021117099
1732440024887,2024-11-24T09:20:24.887Z,29905,0.2190585,-0.056711268,-0.021117099
1732440024897,2024-11-24T09:20:24.897Z,29915,0.19673136,-0.018878601,-0.06862421
1732440024900,2024-11-24T09:20:24.900Z,29918,0.19673136,-0.018878601,-0.06862421
1732440024913,2024-11-24T09:20:24.913Z,29931,0.20344466,-0.028871777,-0.20071384
1732440024916,2024-11-24T09:20:24.916Z,29934,0.20344466,-0.028871777,-0.20071384
1732440024928,2024-11-24T09:20:24.928Z,29946,0.27427807,-0.05519615,-0.12984149
1732440024933,2024-11-24T09:20:24.933Z,29951,0.27427807,-0.05519615,-0.12984149
1732440024947,2024-11-24T09:20:24.947Z,29965,0.27837855,-0.060396373,-0.083258934
1732440024949,2024-11-24T09:20:24.949Z,29967,0.27837855,-0.060396373,-0.083258934
1732440024959,2024-11-24T09:20:24.959Z,29977,0.228205,-0.05423651,-0.083039746
1732440024963,2024-11-24T09:20:24.963Z,29981,0.228205,-0.05423651,-0.083039746
1732440024975,2024-11-24T09:20:24.975Z,29993,0.19962099,-0.036670167,-0.08974856
1732440024979,2024-11-24T09:20:24.979Z,29997,0.19962099,-0.036670167,-0.08974856
1732440024990,2024-11-24T09:20:24.990Z,30008,0.18094404,-0.016734775,-0.11100975
1732440024993,2024-11-24T09:20:24.993Z,30011,0.18094404,-0.016734775,-0.11100975
1732440025051,2024-11-24T09:20:25.051Z,30069,0.27818814,-0.09692942,-0.10380891
1732440025054,2024-11-24T09:20:25.054Z,30072,0.27818814,-0.09692942,-0.10380891
1732440025065,2024-11-24T09:20:25.065Z,30083,0.18776703,-0.052905675,-0.055286944
1732440025068,2024-11-24T09:20:25.068Z,30086,0.18776703,-0.052905675,-0.055286944
1732440025079,2024-11-24T09:20:25.079Z,30097,0.16361053,-0.05778761,-0.078335136
1732440025083,2024-11-24T09:20:25.083Z,30101,0.16361053,-0.05778761,-0.078335136
1732440025096,2024-11-24T09:20:25.096Z,30114,0.1702049,-0.033297133,-0.13892886
1732440025099,2024-11-24T09:20:25.099Z,30117,0.1702049,-0.033297133,-0.13892886
1732440025110,2024-11-24T09:20:25.110Z,30128,0.21692017,-0.038100973,-0.18420227
1732440025113,2024-11-24T09:20:25.113Z,30131,0.21692017,-0.038100973,-0.18420227
1732440025138,2024-11-24T09:20:25.138Z,30156,0.24327576,-0.04056883,-0.18912645
1732440025140,2024-11-24T09:20:25.140Z,30158,0.24327576,-0.04056883,-0.18912645
1732440025153,2024-11-24T09:20:25.153Z,30171,0.1841571,-0.0054355636,-0.16518748
1732440025160,2024-11-24T09:20:25.160Z,30178,0.1841571,-0.0054355636,-0.16518748
1732440025182,2024-11-24T09:20:25.182Z,30200,0.20877728,-0.019522771,-0.21925475
1732440025189,2024-11-24T09:20:25.189Z,30207,0.20877728,-0.019522771,-0.21925475
1732440025212,2024-11-24T09:20:25.212Z,30230,0.2240978,-0.06487784,-0.22521234
1732440025218,2024-11-24T09:20:25.218Z,30236,0.2240978,-0.06487784,-0.22521234
1732440025233,2024-11-24T09:20:25.233Z,30251,0.17727974,-0.028740978,-0.14799222
1732440025237,2024-11-24T09:20:25.237Z,30255,0.17727974,-0.028740978,-0.14799222
1732440025251,2024-11-24T09:20:25.251Z,30269,0.18578255,-0.03331483,-0.14536236
1732440025255,2024-11-24T09:20:25.255Z,30273,0.18578255,-0.03331483,-0.14536236
1732440025274,2024-11-24T09:20:25.274Z,30292,0.19297941,-0.03967765,-0.11837381
1732440025280,2024-11-24T09:20:25.280Z,30298,0.19297941,-0.03967765,-0.11837381
1732440025303,2024-11-24T09:20:25.303Z,30321,0.16414009,-0.036845505,-0.20168838
1732440025309,2024-11-24T09:20:25.309Z,30327,0.16414009,-0.036845505,-0.20168838
1732440025334,2024-11-24T09:20:25.334Z,30352,0.1816911,-0.025549892,-0.17356741
1732440025338,2024-11-24T09:20:25.338Z,30356,0.1816911,-0.025549892,-0.17356741
1732440025351,2024-11-24T09:20:25.351Z,30369,0.13063984,-0.0034488903,-0.1520528
1732440025355,2024-11-24T09:20:25.355Z,30373,0.13063984,-0.0034488903,-0.1520528
1732440025369,2024-11-24T09:20:25.369Z,30387,0.14553578,-0.008683248,-0.11148928
1732440025372,2024-11-24T09:20:25.372Z,30390,0.14553578,-0.008683248,-0.11148928
1732440025383,2024-11-24T09:20:25.383Z,30401,0.1207016,0.022942875,-0.16171624
1732440025386,2024-11-24T09:20:25.386Z,30404,0.1207016,0.022942875,-0.16171624
1732440025396,2024-11-24T09:20:25.396Z,30414,0.16894493,-0.012619836,-0.24355501
1732440025399,2024-11-24T09:20:25.399Z,30417,0.16894493,-0.012619836,-0.24355501
1732440025409,2024-11-24T09:20:25.409Z,30427,0.17851809,-0.024895415,-0.14781415
1732440025412,2024-11-24T09:20:25.412Z,30430,0.17851809,-0.024895415,-0.14781415
1732440025421,2024-11-24T09:20:25.421Z,30439,0.15215796,-0.016026521,-0.122045435
1732440025425,2024-11-24T09:20:25.425Z,30443,0.15215796,-0.016026521,-0.122045435
1732440025433,2024-11-24T09:20:25.433Z,30451,0.111173056,0.017249508,-0.13573185
1732440025436,2024-11-24T09:20:25.436Z,30454,0.111173056,0.017249508,-0.13573185
1732440025447,2024-11-24T09:20:25.447Z,30465,0.11332339,0.04166948,-0.17299922
1732440025450,2024-11-24T09:20:25.450Z,30468,0.11332339,0.04166948,-0.17299922
1732440025462,2024-11-24T09:20:25.462Z,30480,0.1444066,0.014253112,-0.21591777
1732440025465,2024-11-24T09:20:25.465Z,30483,0.1444066,0.014253112,-0.21591777
1732440025474,2024-11-24T09:20:25.474Z,30492,0.16607352,0.01746112,-0.14971156
1732440025477,2024-11-24T09:20:25.477Z,30495,0.16607352,0.01746112,-0.14971156
1732440025485,2024-11-24T09:20:25.485Z,30503,0.16539882,-0.009970808,-0.18650272
1732440025488,2024-11-24T09:20:25.488Z,30506,0.16539882,-0.009970808,-0.18650272
1732440025499,2024-11-24T09:20:25.499Z,30517,0.12934434,0.01395777,-0.116972126
1732440025502,2024-11-24T09:20:25.502Z,30520,0.12934434,0.01395777,-0.116972126
1732440025515,2024-11-24T09:20:25.515Z,30533,0.10890018,0.02188375,-0.15446162
1732440025519,2024-11-24T09:20:25.519Z,30537,0.10890018,0.02188375,-0.15446162
1732440025530,2024-11-24T09:20:25.530Z,30548,0.117516816,-0.016062405,-0.27080092
1732440025532,2024-11-24T09:20:25.532Z,30550,0.117516816,-0.016062405,-0.27080092
1732440025545,2024-11-24T09:20:25.545Z,30563,0.1476012,-0.020326717,-0.20028807
1732440025548,2024-11-24T09:20:25.548Z,30566,0.1476012,-0.020326717,-0.20028807
1732440025560,2024-11-24T09:20:25.560Z,30578,0.16012396,-0.06946997,-0.1362819
1732440025567,2024-11-24T09:20:25.567Z,30585,0.16012396,-0.06946997,-0.1362819
1732440025588,2024-11-24T09:20:25.588Z,30606,0.05851429,-0.02935889,-0.06948632
1732440025594,2024-11-24T09:20:25.594Z,30612,0.05851429,-0.02935889,-0.06948632
1732440025684,2024-11-24T09:20:25.684Z,30702,0.06546663,-0.03665772,-0.0743511
1732440025693,2024-11-24T09:20:25.693Z,30711,0.06546663,-0.03665772,-0.0743511
1732440025718,2024-11-24T09:20:25.718Z,30736,0.10503905,-0.05450715,-0.1994462
1732440025725,2024-11-24T09:20:25.725Z,30743,0.10503905,-0.05450715,-0.1994462
1732440025747,2024-11-24T09:20:25.747Z,30765,0.14572072,-0.07062936,-0.1955893
1732440025754,2024-11-24T09:20:25.754Z,30772,0.14572072,-0.07062936,-0.1955893
1732440025777,2024-11-24T09:20:25.777Z,30795,0.19443788,-0.063181065,-0.18939975
1732440025784,2024-11-24T09:20:25.784Z,30802,0.19443788,-0.063181065,-0.18939975
1732440025814,2024-11-24T09:20:25.814Z,30832,0.13467528,-0.0684868,-0.17117846
1732440025822,2024-11-24T09:20:25.822Z,30840,0.13467528,-0.0684868,-0.17117846
1732440025844,2024-11-24T09:20:25.844Z,30862,0.13287517,-0.05729845,-0.17964607
1732440025851,2024-11-24T09:20:25.851Z,30869,0.13287517,-0.05729845,-0.17964607
1732440025868,2024-11-24T09:20:25.868Z,30886,0.12077879,-0.04706634,-0.20536827
1732440025872,2024-11-24T09:20:25.872Z,30890,0.12077879,-0.04706634,-0.20536827
1732440025885,2024-11-24T09:20:25.885Z,30903,0.15082747,-0.0066053565,-0.23066597
1732440025889,2024-11-24T09:20:25.889Z,30907,0.15082747,-0.0066053565,-0.23066597
1732440025901,2024-11-24T09:20:25.901Z,30919,0.12386774,-0.019029822,-0.19619429
1732440025905,2024-11-24T09:20:25.905Z,30923,0.12386774,-0.019029822,-0.19619429
1732440025999,2024-11-24T09:20:25.999Z,31017,0.06046773,-0.016175698,-0.17017528
1732440026006,2024-11-24T09:20:26.006Z,31024,0.06046773,-0.016175698,-0.17017528
1732440026029,2024-11-24T09:20:26.029Z,31047,0.04279546,-0.024273517,-0.14950433
1732440026036,2024-11-24T09:20:26.036Z,31054,0.04279546,-0.024273517,-0.14950433
1732440026053,2024-11-24T09:20:26.053Z,31071,0.05844668,-0.02701279,-0.1884751
1732440026058,2024-11-24T09:20:26.058Z,31076,0.05844668,-0.02701279,-0.1884751
1732440026072,2024-11-24T09:20:26.072Z,31090,0.092328586,-0.022994708,-0.23165673
1732440026076,2024-11-24T09:20:26.076Z,31094,0.092328586,-0.022994708,-0.23165673
1732440026090,2024-11-24T09:20:26.090Z,31108,0.14699367,0.028555917,-0.16243625
1732440026093,2024-11-24T09:20:26.093Z,31111,0.14699367,0.028555917,-0.16243625
1732440026103,2024-11-24T09:20:26.103Z,31121,0.18355107,0.04590209,-0.15087451
1732440026106,2024-11-24T09:20:26.106Z,31124,0.18355107,0.04590209,-0.15087451
1732440026116,2024-11-24T09:20:26.116Z,31134,0.13146234,0.099014126,-0.16067925
1732440026119,2024-11-24T09:20:26.119Z,31137,0.13146234,0.099014126,-0.16067925
1732440026129,2024-11-24T09:20:26.129Z,31147,0.081288196,-0.024872465,-0.14679693
1732440026131,2024-11-24T09:20:26.131Z,31149,0.081288196,-0.024872465,-0.14679693
1732440026139,2024-11-24T09:20:26.139Z,31157,0.0892365,0.006609441,-0.18989164
1732440026142,2024-11-24T09:20:26.142Z,31160,0.0892365,0.006609441,-0.18989164
1732440026172,2024-11-24T09:20:26.172Z,31190,0.11194192,-0.007864715,-0.22332254
1732440026176,2024-11-24T09:20:26.176Z,31194,0.11194192,-0.007864715,-0.22332254
1732440026186,2024-11-24T09:20:26.186Z,31204,0.11768405,-0.04579988,-0.249211
1732440026189,2024-11-24T09:20:26.189Z,31207,0.11768405,-0.04579988,-0.249211
1732440026199,2024-11-24T09:20:26.199Z,31217,0.10061637,-0.050657403,-0.18282919
1732440026202,2024-11-24T09:20:26.202Z,31220,0.10061637,-0.050657403,-0.18282919
1732440026212,2024-11-24T09:20:26.212Z,31230,0.10989867,-0.07064804,-0.13038266
1732440026214,2024-11-24T09:20:26.214Z,31232,0.10989867,-0.07064804,-0.13038266
1732440026222,2024-11-24T09:20:26.222Z,31240,0.07723163,-0.038153682,-0.13484389
1732440026225,2024-11-24T09:20:26.225Z,31243,0.07723163,-0.038153682,-0.13484389
1732440026235,2024-11-24T09:20:26.235Z,31253,0.09931569,-0.04868843,-0.16484016
1732440026239,2024-11-24T09:20:26.239Z,31257,0.09931569,-0.04868843,-0.16484016
1732440026264,2024-11-24T09:20:26.264Z,31282,0.076531835,-0.019217217,-0.21245925
1732440026269,2024-11-24T09:20:26.269Z,31287,0.076531835,-0.019217217,-0.21245925
1732440026278,2024-11-24T09:20:26.278Z,31296,0.058435325,0.010769698,-0.18176645
1732440026281,2024-11-24T09:20:26.281Z,31299,0.058435325,0.010769698,-0.18176645
1732440026290,2024-11-24T09:20:26.290Z,31308,0.06563559,-0.020678656,-0.18595958
1732440026293,2024-11-24T09:20:26.293Z,31311,0.06563559,-0.020678656,-0.18595958
1732440026312,2024-11-24T09:20:26.312Z,31330,1.3600093E-4,-0.007241162,-0.2576231
1732440026319,2024-11-24T09:20:26.319Z,31337,1.3600093E-4,-0.007241162,-0.2576231
1732440026338,2024-11-24T09:20:26.338Z,31356,0.08646399,-0.038294498,-0.16450286
1732440026342,2024-11-24T09:20:26.342Z,31360,0.08646399,-0.038294498,-0.16450286
1732440026352,2024-11-24T09:20:26.352Z,31370,0.055049475,-0.02895677,-0.1485268
1732440026355,2024-11-24T09:20:26.355Z,31373,0.055049475,-0.02895677,-0.1485268
1732440026365,2024-11-24T09:20:26.365Z,31383,0.044852786,-0.016551852,-0.17744207
1732440026367,2024-11-24T09:20:26.367Z,31385,0.044852786,-0.016551852,-0.17744207
1732440026376,2024-11-24T09:20:26.376Z,31394,0.03482752,-0.030609885,-0.22751322
1732440026379,2024-11-24T09:20:26.379Z,31397,0.03482752,-0.030609885,-0.22751322
1732440026388,2024-11-24T09:20:26.388Z,31406,0.09390193,-0.027442819,-0.19627419
1732440026391,2024-11-24T09:20:26.391Z,31409,0.09390193,-0.027442819,-0.19627419
1732440026403,2024-11-24T09:20:26.403Z,31421,0.09992054,-0.039007615,-0.19020543
1732440026407,2024-11-24T09:20:26.407Z,31425,0.09992054,-0.039007615,-0.19020543
1732440026415,2024-11-24T09:20:26.415Z,31433,0.033034563,0.018354144,-0.16218308
1732440026418,2024-11-24T09:20:26.418Z,31436,0.033034563,0.018354144,-0.16218308
1732440026428,2024-11-24T09:20:26.428Z,31446,0.012681491,0.031454872,-0.21670029
1732440026431,2024-11-24T09:20:26.431Z,31449,0.012681491,0.031454872,-0.21670029
1732440026447,2024-11-24T09:20:26.447Z,31465,0.09460114,0.027829379,-0.21027339
1732440026452,2024-11-24T09:20:26.452Z,31470,0.09460114,0.027829379,-0.21027339
1732440026492,2024-11-24T09:20:26.492Z,31510,0.12762065,-0.012678281,-0.22902656
1732440026500,2024-11-24T09:20:26.500Z,31518,0.12762065,-0.012678281,-0.22902656
1732440026521,2024-11-24T09:20:26.521Z,31539,0.10933305,-1.5929175E-4,-0.16797006
1732440026527,2024-11-24T09:20:26.527Z,31545,0.10933305,-1.5929175E-4,-0.16797006
1732440026545,2024-11-24T09:20:26.545Z,31563,-0.009252342,0.034435805,-0.18303457
1732440026552,2024-11-24T09:20:26.552Z,31570,-0.009252342,0.034435805,-0.18303457
1732440026570,2024-11-24T09:20:26.570Z,31588,0.038444746,0.010740038,-0.21186797
1732440026575,2024-11-24T09:20:26.575Z,31593,0.038444746,0.010740038,-0.21186797
1732440026591,2024-11-24T09:20:26.591Z,31609,0.03630452,0.014440411,-0.21850047
1732440026594,2024-11-24T09:20:26.594Z,31612,0.03630452,0.014440411,-0.21850047
1732440026606,2024-11-24T09:20:26.606Z,31624,0.015268232,-0.002939604,-0.19543397
1732440026610,2024-11-24T09:20:26.610Z,31628,0.015268232,-0.002939604,-0.19543397
1732440026622,2024-11-24T09:20:26.622Z,31640,0.054193184,0.026706362,-0.21421379
1732440026627,2024-11-24T09:20:26.627Z,31645,0.054193184,0.026706362,-0.21421379
1732440026638,2024-11-24T09:20:26.638Z,31656,0.05003852,-0.013560805,-0.19914475
1732440026641,2024-11-24T09:20:26.641Z,31659,0.05003852,-0.013560805,-0.19914475
1732440026652,2024-11-24T09:20:26.652Z,31670,0.10774935,-0.04788069,-0.16270141
1732440026655,2024-11-24T09:20:26.655Z,31673,0.10774935,-0.04788069,-0.16270141
1732440026671,2024-11-24T09:20:26.671Z,31689,0.058311675,-0.0268958,-0.082267195
1732440026674,2024-11-24T09:20:26.674Z,31692,0.058311675,-0.0268958,-0.082267195
1732440026685,2024-11-24T09:20:26.685Z,31703,-0.02882675,0.025140576,-0.22755985
1732440026688,2024-11-24T09:20:26.688Z,31706,-0.02882675,0.025140576,-0.22755985
1732440026698,2024-11-24T09:20:26.698Z,31716,0.04292237,0.0023995873,-0.217018
1732440026700,2024-11-24T09:20:26.700Z,31718,0.04292237,0.0023995873,-0.217018
1732440026709,2024-11-24T09:20:26.709Z,31727,0.09162597,-0.017639278,-0.18232712
1732440026712,2024-11-24T09:20:26.712Z,31730,0.09162597,-0.017639278,-0.18232712
1732440026720,2024-11-24T09:20:26.720Z,31738,0.06598413,-0.0076202336,-0.13804856
1732440026723,2024-11-24T09:20:26.723Z,31741,0.06598413,-0.0076202336,-0.13804856
1732440026731,2024-11-24T09:20:26.731Z,31749,0.011760604,0.018978085,-0.103987664
1732440026734,2024-11-24T09:20:26.734Z,31752,0.011760604,0.018978085,-0.103987664
1732440026743,2024-11-24T09:20:26.743Z,31761,0.02177673,0.052053105,-0.1908216
1732440026747,2024-11-24T09:20:26.747Z,31765,0.02177673,0.052053105,-0.1908216
1732440026758,2024-11-24T09:20:26.758Z,31776,0.08468961,0.026232863,-0.24065319
1732440026761,2024-11-24T09:20:26.761Z,31779,0.08468961,0.026232863,-0.24065319
1732440026769,2024-11-24T09:20:26.769Z,31787,0.08931675,0.001971503,-0.15060073
1732440026772,2024-11-24T09:20:26.772Z,31790,0.08931675,0.001971503,-0.15060073
1732440026781,2024-11-24T09:20:26.781Z,31799,0.053727902,0.03445438,-0.15101822
1732440026783,2024-11-24T09:20:26.783Z,31801,0.053727902,0.03445438,-0.15101822
1732440026850,2024-11-24T09:20:26.850Z,31868,0.022772351,0.044436567,-0.22098325
1732440026853,2024-11-24T09:20:26.853Z,31871,0.022772351,0.044436567,-0.22098325
1732440026865,2024-11-24T09:20:26.865Z,31883,0.02394793,0.036101073,-0.18305734
1732440026869,2024-11-24T09:20:26.869Z,31887,0.02394793,0.036101073,-0.18305734
1732440026881,2024-11-24T09:20:26.881Z,31899,0.009499254,0.02434937,-0.22484744
1732440026885,2024-11-24T09:20:26.885Z,31903,0.009499254,0.02434937,-0.22484744
1732440026897,2024-11-24T09:20:26.897Z,31915,0.1328106,-0.00910929,-0.222955
1732440026900,2024-11-24T09:20:26.900Z,31918,0.1328106,-0.00910929,-0.222955
1732440026911,2024-11-24T09:20:26.911Z,31929,0.03700431,0.00420256,-0.16944124
1732440026914,2024-11-24T09:20:26.914Z,31932,0.03700431,0.00420256,-0.16944124
1732440026924,2024-11-24T09:20:26.924Z,31942,-0.027625207,0.0034058094,-0.12334019
1732440026927,2024-11-24T09:20:26.927Z,31945,-0.027625207,0.0034058094,-0.12334019
1732440026937,2024-11-24T09:20:26.937Z,31955,-0.062367342,0.006467751,-0.21117851
1732440026940,2024-11-24T09:20:26.940Z,31958,-0.062367342,0.006467751,-0.21117851
1732440026950,2024-11-24T09:20:26.950Z,31968,-0.04784928,-0.036040004,-0.30257845
1732440026953,2024-11-24T09:20:26.953Z,31971,-0.04784928,-0.036040004,-0.30257845
1732440026962,2024-11-24T09:20:26.962Z,31980,0.06712876,-0.07191644,-0.32684153
1732440026965,2024-11-24T09:20:26.965Z,31983,0.06712876,-0.07191644,-0.32684153
1732440026973,2024-11-24T09:20:26.973Z,31991,0.08799391,-0.078430474,-0.23300672
1732440026976,2024-11-24T09:20:26.976Z,31994,0.08799391,-0.078430474,-0.23300672
1732440026987,2024-11-24T09:20:26.987Z,32005,-0.06506271,-0.03505362,-0.10661996
1732440026989,2024-11-24T09:20:26.989Z,32007,-0.06506271,-0.03505362,-0.10661996
1732440027000,2024-11-24T09:20:27Z,32018,-0.03639306,-0.022276144,-0.07462413
1732440027002,2024-11-24T09:20:27.002Z,32020,-0.03639306,-0.022276144,-0.07462413
1732440027028,2024-11-24T09:20:27.028Z,32046,-0.04887578,-0.023099056,-0.13129073
1732440027031,2024-11-24T09:20:27.031Z,32049,-0.04887578,-0.023099056,-0.13129073
1732440027040,2024-11-24T09:20:27.040Z,32058,0.061177347,-0.062243495,-0.19942668
1732440027044,2024-11-24T09:20:27.044Z,32062,0.061177347,-0.062243495,-0.19942668
1732440027052,2024-11-24T09:20:27.052Z,32070,-9.686845E-4,-0.023840472,-0.07440362
1732440027055,2024-11-24T09:20:27.055Z,32073,-9.686845E-4,-0.023840472,-0.07440362
1732440027121,2024-11-24T09:20:27.121Z,32139,2.1768901E-4,-0.030562136,-0.12632272
1732440027124,2024-11-24T09:20:27.124Z,32142,2.1768901E-4,-0.030562136,-0.12632272
1732440027132,2024-11-24T09:20:27.132Z,32150,-0.0015553313,-0.0067913914,-0.14365265
1732440027135,2024-11-24T09:20:27.135Z,32153,-0.0015553313,-0.0067913914,-0.14365265
1732440027147,2024-11-24T09:20:27.147Z,32165,0.026327437,-0.021253683,-0.18886887
1732440027150,2024-11-24T09:20:27.150Z,32168,0.026327437,-0.021253683,-0.18886887
1732440027161,2024-11-24T09:20:27.161Z,32179,0.011922813,-0.03533554,-0.23854747
1732440027164,2024-11-24T09:20:27.164Z,32182,0.011922813,-0.03533554,-0.23854747
1732440027173,2024-11-24T09:20:27.173Z,32191,0.1399211,-0.06796293,-0.18695645
1732440027176,2024-11-24T09:20:27.176Z,32194,0.1399211,-0.06796293,-0.18695645
1732440027191,2024-11-24T09:20:27.191Z,32209,0.020057,-0.045190137,-0.1334182
1732440027196,2024-11-24T09:20:27.196Z,32214,0.020057,-0.045190137,-0.1334182
1732440027219,2024-11-24T09:20:27.219Z,32237,-0.007575062,-0.017523358,-0.11328722
1732440027226,2024-11-24T09:20:27.226Z,32244,-0.007575062,-0.017523358,-0.11328722
1732440027251,2024-11-24T09:20:27.251Z,32269,-0.012163501,-0.03196017,-0.114777066
1732440027255,2024-11-24T09:20:27.255Z,32273,-0.012163501,-0.03196017,-0.114777066
1732440027270,2024-11-24T09:20:27.270Z,32288,-0.049832694,-0.015907198,-0.08491457
1732440027274,2024-11-24T09:20:27.274Z,32292,-0.049832694,-0.015907198,-0.08491457
1732440027287,2024-11-24T09:20:27.287Z,32305,0.025450358,-0.03197106,-0.15103447
1732440027290,2024-11-24T09:20:27.290Z,32308,0.025450358,-0.03197106,-0.15103447
1732440027303,2024-11-24T09:20:27.303Z,32321,0.068366624,-0.027800594,-0.3037184
1732440027307,2024-11-24T09:20:27.307Z,32325,0.068366624,-0.027800594,-0.3037184
1732440027319,2024-11-24T09:20:27.319Z,32337,0.07576499,-0.073142536,-0.19647229
1732440027322,2024-11-24T09:20:27.322Z,32340,0.07576499,-0.073142536,-0.19647229
1732440027345,2024-11-24T09:20:27.345Z,32363,0.09164552,-0.039993513,-0.14305854
1732440027348,2024-11-24T09:20:27.348Z,32366,0.09164552,-0.039993513,-0.14305854
1732440027365,2024-11-24T09:20:27.365Z,32383,0.09663535,-0.049728982,-0.14813459
1732440027369,2024-11-24T09:20:27.369Z,32387,0.09663535,-0.049728982,-0.14813459
1732440027377,2024-11-24T09:20:27.377Z,32395,0.056884054,-0.03486457,-0.2315625
1732440027380,2024-11-24T09:20:27.380Z,32398,0.056884054,-0.03486457,-0.2315625
1732440027391,2024-11-24T09:20:27.391Z,32409,0.010627376,-0.031471014,-0.1395722
1732440027394,2024-11-24T09:20:27.394Z,32412,0.010627376,-0.031471014,-0.1395722
1732440027404,2024-11-24T09:20:27.404Z,32422,0.0781002,-0.046755727,-0.17038678
1732440027406,2024-11-24T09:20:27.406Z,32424,0.0781002,-0.046755727,-0.17038678
1732440027416,2024-11-24T09:20:27.416Z,32434,0.049115494,-0.054629583,-0.16477624
1732440027418,2024-11-24T09:20:27.418Z,32436,0.049115494,-0.054629583,-0.16477624
1732440027432,2024-11-24T09:20:27.432Z,32450,0.082530975,-0.05268648,-0.15394503
1732440027435,2024-11-24T09:20:27.435Z,32453,0.082530975,-0.05268648,-0.15394503
1732440027443,2024-11-24T09:20:27.443Z,32461,-0.020212257,-0.046246346,-0.15242255
1732440027446,2024-11-24T09:20:27.446Z,32464,-0.020212257,-0.046246346,-0.15242255
1732440027454,2024-11-24T09:20:27.454Z,32472,-0.08766483,-0.049528457,-0.0729115
1732440027456,2024-11-24T09:20:27.456Z,32474,-0.08766483,-0.049528457,-0.0729115
1732440027464,2024-11-24T09:20:27.464Z,32482,0.014427404,-0.058283474,-0.09136743
1732440027466,2024-11-24T09:20:27.466Z,32484,0.014427404,-0.058283474,-0.09136743
1732440027525,2024-11-24T09:20:27.525Z,32543,0.03406685,-0.07835161,-0.10721004
1732440027529,2024-11-24T09:20:27.529Z,32547,0.03406685,-0.07835161,-0.10721004
1732440027539,2024-11-24T09:20:27.539Z,32557,0.07065511,-0.09307968,-0.16677159
1732440027541,2024-11-24T09:20:27.541Z,32559,0.07065511,-0.09307968,-0.16677159
1732440027551,2024-11-24T09:20:27.551Z,32569,0.073758475,-0.09858662,-0.17930466
1732440027554,2024-11-24T09:20:27.554Z,32572,0.073758475,-0.09858662,-0.17930466
1732440027664,2024-11-24T09:20:27.664Z,32682,0.10215617,-0.091065675,-0.22878994
1732440027671,2024-11-24T09:20:27.671Z,32689,0.10215617,-0.091065675,-0.22878994
1732440027753,2024-11-24T09:20:27.753Z,32771,-0.05672474,-0.074535705,-0.17102867
1732440027762,2024-11-24T09:20:27.762Z,32780,-0.05672474,-0.074535705,-0.17102867
1732440027788,2024-11-24T09:20:27.788Z,32806,0.033283807,-0.08309302,-0.15579511
1732440027796,2024-11-24T09:20:27.796Z,32814,0.033283807,-0.08309302,-0.15579511
1732440027823,2024-11-24T09:20:27.823Z,32841,0.04855622,-0.08724832,-0.15473627
1732440027831,2024-11-24T09:20:27.831Z,32849,0.04855622,-0.08724832,-0.15473627
1732440027853,2024-11-24T09:20:27.853Z,32871,0.06881739,-0.037662677,-0.22219296
1732440027861,2024-11-24T09:20:27.861Z,32879,0.06881739,-0.037662677,-0.22219296
1732440027881,2024-11-24T09:20:27.881Z,32899,0.03044544,-0.040823814,-0.1774036
1732440027885,2024-11-24T09:20:27.885Z,32903,0.03044544,-0.040823814,-0.1774036
1732440027898,2024-11-24T09:20:27.898Z,32916,0.004128895,-0.044889934,-0.17833331
1732440027902,2024-11-24T09:20:27.902Z,32920,0.004128895,-0.044889934,-0.17833331
1732440027916,2024-11-24T09:20:27.916Z,32934,0.08465905,-0.010250298,-0.20209774
1732440027920,2024-11-24T09:20:27.920Z,32938,0.08465905,-0.010250298,-0.20209774
1732440027932,2024-11-24T09:20:27.932Z,32950,0.051525924,-0.037711497,-0.14326772
1732440027936,2024-11-24T09:20:27.936Z,32954,0.051525924,-0.037711497,-0.14326772
1732440027947,2024-11-24T09:20:27.947Z,32965,0.06019602,-0.04414842,-0.09849352
1732440027951,2024-11-24T09:20:27.951Z,32969,0.06019602,-0.04414842,-0.09849352
1732440027960,2024-11-24T09:20:27.960Z,32978,0.06400818,-0.045737546,-0.104293615
1732440027964,2024-11-24T09:20:27.964Z,32982,0.06400818,-0.045737546,-0.104293615
1732440027973,2024-11-24T09:20:27.973Z,32991,0.030038774,-0.044270273,-0.18863645
1732440027975,2024-11-24T09:20:27.975Z,32993,0.030038774,-0.044270273,-0.18863645
1732440028020,2024-11-24T09:20:28.020Z,33038,0.07051223,-0.051152296,-0.19816846
1732440028024,2024-11-24T09:20:28.024Z,33042,0.07051223,-0.051152296,-0.19816846
1732440028035,2024-11-24T09:20:28.035Z,33053,0.089808874,-0.04868357,-0.16221988
1732440028039,2024-11-24T09:20:28.039Z,33057,0.089808874,-0.04868357,-0.16221988
1732440028050,2024-11-24T09:20:28.050Z,33068,0.06016867,-0.046523795,-0.122330815
1732440028054,2024-11-24T09:20:28.054Z,33072,0.06016867,-0.046523795,-0.122330815
1732440028072,2024-11-24T09:20:28.072Z,33090,0.08904616,-0.045924358,-0.14039116
1732440028080,2024-11-24T09:20:28.080Z,33098,0.08904616,-0.045924358,-0.14039116
1732440028107,2024-11-24T09:20:28.107Z,33125,0.041778203,-0.041922227,-0.13653767
1732440028113,2024-11-24T09:20:28.113Z,33131,0.041778203,-0.041922227,-0.13653767
1732440028158,2024-11-24T09:20:28.158Z,33176,-0.007957902,-0.03312014,-0.13668239
1732440028165,2024-11-24T09:20:28.165Z,33183,-0.007957902,-0.03312014,-0.13668239
1732440028253,2024-11-24T09:20:28.253Z,33271,-0.009190444,-0.089970864,-0.13227724
1732440028261,2024-11-24T09:20:28.261Z,33279,-0.009190444,-0.089970864,-0.13227724
1732440028286,2024-11-24T09:20:28.286Z,33304,-0.021664457,-0.12179751,-0.15015191
1732440028293,2024-11-24T09:20:28.293Z,33311,-0.021664457,-0.12179751,-0.15015191
1732440028312,2024-11-24T09:20:28.312Z,33330,-0.0025987506,-0.1341682,-0.17847261
1732440028317,2024-11-24T09:20:28.317Z,33335,-0.0025987506,-0.1341682,-0.17847261
1732440028385,2024-11-24T09:20:28.385Z,33403,-0.034376312,-0.18008478,-0.11170417
1732440028391,2024-11-24T09:20:28.391Z,33409,-0.034376312,-0.18008478,-0.11170417
1732440028416,2024-11-24T09:20:28.416Z,33434,-0.007501956,-0.20441665,-0.08285535
1732440028423,2024-11-24T09:20:28.423Z,33441,-0.007501956,-0.20441665,-0.08285535
1732440028445,2024-11-24T09:20:28.445Z,33463,-0.041522976,-0.20386223,-0.07565002
1732440028451,2024-11-24T09:20:28.451Z,33469,-0.041522976,-0.20386223,-0.07565002
1732440028470,2024-11-24T09:20:28.470Z,33488,-0.085660264,-0.21336226,-0.10378599
1732440028477,2024-11-24T09:20:28.477Z,33495,-0.085660264,-0.21336226,-0.10378599
1732440028502,2024-11-24T09:20:28.502Z,33520,-0.0016271002,-0.20320572,-0.11297554
1732440028513,2024-11-24T09:20:28.513Z,33531,-0.0016271002,-0.20320572,-0.11297554
1732440028529,2024-11-24T09:20:28.529Z,33547,0.05220938,-0.20830032,-0.1242537
1732440028532,2024-11-24T09:20:28.532Z,33550,0.05220938,-0.20830032,-0.1242537
1732440028559,2024-11-24T09:20:28.559Z,33577,0.055436544,-0.21014093,-0.10142911
1732440028563,2024-11-24T09:20:28.563Z,33581,0.055436544,-0.21014093,-0.10142911
1732440028576,2024-11-24T09:20:28.576Z,33594,0.13375847,-0.13084261,-0.12750173
1732440028581,2024-11-24T09:20:28.581Z,33599,0.13375847,-0.13084261,-0.12750173
1732440028592,2024-11-24T09:20:28.592Z,33610,0.15813687,-0.12698218,-0.19020379
1732440028596,2024-11-24T09:20:28.596Z,33614,0.15813687,-0.12698218,-0.19020379
1732440028608,2024-11-24T09:20:28.608Z,33626,0.14401057,-0.15077713,-0.20970446
1732440028612,2024-11-24T09:20:28.612Z,33630,0.14401057,-0.15077713,-0.20970446
1732440028651,2024-11-24T09:20:28.651Z,33669,0.1367523,-0.13789716,-0.16618049
1732440028655,2024-11-24T09:20:28.655Z,33673,0.1367523,-0.13789716,-0.16618049
1732440028668,2024-11-24T09:20:28.668Z,33686,0.114393845,-0.115025476,-0.11504632
1732440028672,2024-11-24T09:20:28.672Z,33690,0.114393845,-0.115025476,-0.11504632
1732440028684,2024-11-24T09:20:28.684Z,33702,0.058661133,-0.08965189,-0.1322194
1732440028688,2024-11-24T09:20:28.688Z,33706,0.058661133,-0.08965189,-0.1322194
1732440028744,2024-11-24T09:20:28.744Z,33762,0.18734685,-0.06340084,-0.1922526
1732440028750,2024-11-24T09:20:28.750Z,33768,0.18734685,-0.06340084,-0.1922526
1732440028774,2024-11-24T09:20:28.774Z,33792,0.25248048,-0.08075985,-0.21504562
1732440028780,2024-11-24T09:20:28.780Z,33798,0.25248048,-0.08075985,-0.21504562
1732440028802,2024-11-24T09:20:28.802Z,33820,0.21229865,-0.079197176,-0.15037066
1732440028807,2024-11-24T09:20:28.807Z,33825,0.21229865,-0.079197176,-0.15037066
1732440028820,2024-11-24T09:20:28.820Z,33838,0.20433502,-0.051030252,-0.13541423
1732440028824,2024-11-24T09:20:28.824Z,33842,0.20433502,-0.051030252,-0.13541423
1732440028841,2024-11-24T09:20:28.841Z,33859,0.28745726,-0.064584345,-0.1618677
1732440028844,2024-11-24T09:20:28.844Z,33862,0.28745726,-0.064584345,-0.1618677
1732440028858,2024-11-24T09:20:28.858Z,33876,0.30469233,-0.051974334,-0.13622978
1732440028864,2024-11-24T09:20:28.864Z,33882,0.30469233,-0.051974334,-0.13622978
1732440028884,2024-11-24T09:20:28.884Z,33902,0.23658384,-0.046168547,-0.10656509
1732440028890,2024-11-24T09:20:28.890Z,33908,0.23658384,-0.046168547,-0.10656509
1732440028912,2024-11-24T09:20:28.912Z,33930,0.24362043,-0.03150855,-0.09498373
1732440028919,2024-11-24T09:20:28.919Z,33937,0.24362043,-0.03150855,-0.09498373
1732440028941,2024-11-24T09:20:28.941Z,33959,0.18482043,-0.05261286,-0.1973096
1732440028947,2024-11-24T09:20:28.947Z,33965,0.18482043,-0.05261286,-0.1973096
1732440028968,2024-11-24T09:20:28.968Z,33986,0.22045867,-0.0066638025,-0.14792667
1732440028973,2024-11-24T09:20:28.973Z,33991,0.22045867,-0.0066638025,-0.14792667
1732440028995,2024-11-24T09:20:28.995Z,34013,0.24164854,-0.044842284,-0.16655697
1732440029006,2024-11-24T09:20:29.006Z,34024,0.24164854,-0.044842284,-0.16655697
1732440029028,2024-11-24T09:20:29.028Z,34046,0.20903663,-0.024817228,-0.12617397
1732440029034,2024-11-24T09:20:29.034Z,34052,0.20903663,-0.024817228,-0.12617397
1732440029050,2024-11-24T09:20:29.050Z,34068,0.2138048,2.3796516E-4,-0.095709704
1732440029057,2024-11-24T09:20:29.057Z,34075,0.2138048,2.3796516E-4,-0.095709704
1732440029077,2024-11-24T09:20:29.077Z,34095,0.28890952,0.011502849,-0.16318566
1732440029082,2024-11-24T09:20:29.082Z,34100,0.28890952,0.011502849,-0.16318566
1732440029095,2024-11-24T09:20:29.095Z,34113,0.20844094,0.0125893,-0.18747707
1732440029100,2024-11-24T09:20:29.100Z,34118,0.20844094,0.0125893,-0.18747707
1732440029115,2024-11-24T09:20:29.115Z,34133,0.12635116,0.043509115,-0.13477531
1732440029121,2024-11-24T09:20:29.121Z,34139,0.12635116,0.043509115,-0.13477531
1732440029144,2024-11-24T09:20:29.144Z,34162,0.18330798,0.067462295,-0.1609758
1732440029150,2024-11-24T09:20:29.150Z,34168,0.18330798,0.067462295,-0.1609758
1732440029169,2024-11-24T09:20:29.169Z,34187,0.25611207,0.06088125,-0.16419165
1732440029175,2024-11-24T09:20:29.175Z,34193,0.25611207,0.06088125,-0.16419165
1732440029191,2024-11-24T09:20:29.191Z,34209,0.22635852,0.0823518,-0.1119125
1732440029196,2024-11-24T09:20:29.196Z,34214,0.22635852,0.0823518,-0.1119125
1732440029209,2024-11-24T09:20:29.209Z,34227,0.17496164,0.10186752,-0.09612519
1732440029213,2024-11-24T09:20:29.213Z,34231,0.17496164,0.10186752,-0.09612519
1732440029225,2024-11-24T09:20:29.225Z,34243,0.15268324,0.0923897,-0.20087665
1732440029229,2024-11-24T09:20:29.229Z,34247,0.15268324,0.0923897,-0.20087665
1732440029240,2024-11-24T09:20:29.240Z,34258,0.25284532,0.08538165,-0.085953064
1732440029243,2024-11-24T09:20:29.243Z,34261,0.25284532,0.08538165,-0.085953064
1732440029252,2024-11-24T09:20:29.252Z,34270,0.22045396,0.099764094,-0.13244726
1732440029255,2024-11-24T09:20:29.255Z,34273,0.22045396,0.099764094,-0.13244726
1732440029263,2024-11-24T09:20:29.263Z,34281,0.20515758,0.121341564,-0.119426414
1732440029266,2024-11-24T09:20:29.266Z,34284,0.20515758,0.121341564,-0.119426414
1732440029274,2024-11-24T09:20:29.274Z,34292,0.14294228,0.11618768,-0.16973008
1732440029277,2024-11-24T09:20:29.277Z,34295,0.14294228,0.11618768,-0.16973008
1732440029286,2024-11-24T09:20:29.286Z,34304,0.19126195,0.09628039,-0.13468394
1732440029289,2024-11-24T09:20:29.289Z,34307,0.19126195,0.09628039,-0.13468394
1732440029296,2024-11-24T09:20:29.296Z,34314,0.21086526,0.089327276,-0.10428041
1732440029299,2024-11-24T09:20:29.299Z,34317,0.21086526,0.089327276,-0.10428041
1732440029306,2024-11-24T09:20:29.306Z,34324,0.18152303,0.09599896,-0.15917394
1732440029309,2024-11-24T09:20:29.309Z,34327,0.18152303,0.09599896,-0.15917394
1732440029316,2024-11-24T09:20:29.316Z,34334,0.17972666,0.0943014,-0.13579515
1732440029319,2024-11-24T09:20:29.319Z,34337,0.17972666,0.0943014,-0.13579515
1732440029328,2024-11-24T09:20:29.328Z,34346,0.12669721,0.05978809,-0.15533006
1732440029332,2024-11-24T09:20:29.332Z,34350,0.12669721,0.05978809,-0.15533006
1732440029341,2024-11-24T09:20:29.341Z,34359,0.11847733,0.057455216,-0.12143156
1732440029344,2024-11-24T09:20:29.344Z,34362,0.11847733,0.057455216,-0.12143156
1732440029353,2024-11-24T09:20:29.353Z,34371,0.1256125,0.061867636,-0.020952785
1732440029355,2024-11-24T09:20:29.355Z,34373,0.1256125,0.061867636,-0.020952785
1732440029370,2024-11-24T09:20:29.370Z,34388,0.1226928,0.06585848,-0.11471355
1732440029377,2024-11-24T09:20:29.377Z,34395,0.1226928,0.06585848,-0.11471355
1732440029397,2024-11-24T09:20:29.397Z,34415,0.08690748,0.08598342,-0.19230159
1732440029402,2024-11-24T09:20:29.402Z,34420,0.08690748,0.08598342,-0.19230159
1732440029422,2024-11-24T09:20:29.422Z,34440,0.17375374,0.058229793,-0.10259125
1732440029428,2024-11-24T09:20:29.428Z,34446,0.17375374,0.058229793,-0.10259125
1732440029447,2024-11-24T09:20:29.447Z,34465,0.034402423,0.08545925,-0.104180165
1732440029453,2024-11-24T09:20:29.453Z,34471,0.034402423,0.08545925,-0.104180165
1732440029477,2024-11-24T09:20:29.477Z,34495,0.05977579,0.04838628,-0.11211233
1732440029484,2024-11-24T09:20:29.484Z,34502,0.05977579,0.04838628,-0.11211233
1732440029499,2024-11-24T09:20:29.499Z,34517,0.110884175,0.049721785,-0.10858092
1732440029503,2024-11-24T09:20:29.503Z,34521,0.110884175,0.049721785,-0.10858092
1732440029517,2024-11-24T09:20:29.517Z,34535,0.11113836,0.049308483,-0.025992673
1732440029525,2024-11-24T09:20:29.525Z,34543,0.11113836,0.049308483,-0.025992673
1732440029548,2024-11-24T09:20:29.548Z,34566,0.062465295,0.07973554,-0.14495963
1732440029556,2024-11-24T09:20:29.556Z,34574,0.062465295,0.07973554,-0.14495963
1732440029578,2024-11-24T09:20:29.578Z,34596,0.110000536,0.032329615,-0.15646012
1732440029584,2024-11-24T09:20:29.584Z,34602,0.110000536,0.032329615,-0.15646012
1732440029605,2024-11-24T09:20:29.605Z,34623,0.12503566,0.06596867,-0.1172296
1732440029613,2024-11-24T09:20:29.613Z,34631,0.12503566,0.06596867,-0.1172296
1732440029631,2024-11-24T09:20:29.631Z,34649,0.08841762,0.054658856,-0.06431591
1732440029636,2024-11-24T09:20:29.636Z,34654,0.08841762,0.054658856,-0.06431591
1732440029649,2024-11-24T09:20:29.649Z,34667,0.07749887,0.051462714,-0.08842899
1732440029653,2024-11-24T09:20:29.653Z,34671,0.07749887,0.051462714,-0.08842899
1732440029669,2024-11-24T09:20:29.669Z,34687,0.1471266,-0.03940069,-0.10829343
1732440029678,2024-11-24T09:20:29.678Z,34696,0.1471266,-0.03940069,-0.10829343
1732440029698,2024-11-24T09:20:29.698Z,34716,0.08338175,0.0050499765,-0.08515031
1732440029703,2024-11-24T09:20:29.703Z,34721,0.08338175,0.0050499765,-0.08515031
1732440029715,2024-11-24T09:20:29.715Z,34733,0.10213247,-0.026142228,-0.011505754
1732440029719,2024-11-24T09:20:29.719Z,34737,0.10213247,-0.026142228,-0.011505754
1732440029731,2024-11-24T09:20:29.731Z,34749,0.040751703,-0.03203476,-0.05762953
1732440029735,2024-11-24T09:20:29.735Z,34753,0.040751703,-0.03203476,-0.05762953
1732440029746,2024-11-24T09:20:29.746Z,34764,0.055495284,-0.055206653,-0.17095886
1732440029749,2024-11-24T09:20:29.749Z,34767,0.055495284,-0.055206653,-0.17095886
1732440029760,2024-11-24T09:20:29.760Z,34778,0.114206575,-0.08771083,-0.13503899
1732440029763,2024-11-24T09:20:29.763Z,34781,0.114206575,-0.08771083,-0.13503899
1732440029773,2024-11-24T09:20:29.773Z,34791,0.15259771,-0.044048157,-0.087311864
1732440029777,2024-11-24T09:20:29.777Z,34795,0.15259771,-0.044048157,-0.087311864
1732440029787,2024-11-24T09:20:29.787Z,34805,0.11151335,-0.02398615,-0.08026519
1732440029789,2024-11-24T09:20:29.789Z,34807,0.11151335,-0.02398615,-0.08026519
1732440029798,2024-11-24T09:20:29.798Z,34816,0.055804823,-0.0044783545,-0.11579091
1732440029801,2024-11-24T09:20:29.801Z,34819,0.055804823,-0.0044783545,-0.11579091
1732440029809,2024-11-24T09:20:29.809Z,34827,0.09727769,-0.03582518,-0.030940576
1732440029812,2024-11-24T09:20:29.812Z,34830,0.09727769,-0.03582518,-0.030940576
1732440029820,2024-11-24T09:20:29.820Z,34838,0.13190608,-0.034827616,-0.01167251
1732440029823,2024-11-24T09:20:29.823Z,34841,0.13190608,-0.034827616,-0.01167251
1732440029832,2024-11-24T09:20:29.832Z,34850,0.124688804,-0.043237988,-0.063489705
1732440029834,2024-11-24T09:20:29.834Z,34852,0.124688804,-0.043237988,-0.063489705
1732440029841,2024-11-24T09:20:29.841Z,34859,0.13786937,-0.043748636,-0.040569752
1732440029843,2024-11-24T09:20:29.843Z,34861,0.13786937,-0.043748636,-0.040569752
1732440029854,2024-11-24T09:20:29.854Z,34872,0.07523073,-0.025076782,-0.05128471
1732440029861,2024-11-24T09:20:29.861Z,34879,0.07523073,-0.025076782,-0.05128471
1732440029881,2024-11-24T09:20:29.881Z,34899,0.11892092,-0.04223118,-0.05193971
1732440029887,2024-11-24T09:20:29.887Z,34905,0.11892092,-0.04223118,-0.05193971
1732440029908,2024-11-24T09:20:29.908Z,34926,0.13975379,-0.05970154,1.3468809E-5
1732440029913,2024-11-24T09:20:29.913Z,34931,0.13975379,-0.05970154,1.3468809E-5
1732440029925,2024-11-24T09:20:29.925Z,34943,0.14545587,-0.055395994,-0.007074917
1732440029928,2024-11-24T09:20:29.928Z,34946,0.14545587,-0.055395994,-0.007074917
1732440029940,2024-11-24T09:20:29.940Z,34958,0.077307485,-0.035960454,-0.01263452
1732440029943,2024-11-24T09:20:29.943Z,34961,0.077307485,-0.035960454,-0.01263452
1732440029955,2024-11-24T09:20:29.955Z,34973,0.08358944,-0.031660937,-0.046780832
1732440029958,2024-11-24T09:20:29.958Z,34976,0.08358944,-0.031660937,-0.046780832
1732440029967,2024-11-24T09:20:29.967Z,34985,0.114779726,-0.03715884,-0.06461731
1732440029970,2024-11-24T09:20:29.970Z,34988,0.114779726,-0.03715884,-0.06461731
1732440029978,2024-11-24T09:20:29.978Z,34996,0.14055786,-0.025599683,-0.007413716
1732440029981,2024-11-24T09:20:29.981Z,34999,0.14055786,-0.025599683,-0.007413716
1732440029992,2024-11-24T09:20:29.992Z,35010,0.10166677,-0.018323706,-0.020718321
1732440029998,2024-11-24T09:20:29.998Z,35016,0.10166677,-0.018323706,-0.020718321
1732440030014,2024-11-24T09:20:30.014Z,35032,0.075655565,-0.020378647,-0.039025035
1732440030020,2024-11-24T09:20:30.020Z,35038,0.075655565,-0.020378647,-0.039025035
1732440030040,2024-11-24T09:20:30.040Z,35058,0.11037742,-0.019732922,-0.06291945
1732440030047,2024-11-24T09:20:30.047Z,35065,0.11037742,-0.019732922,-0.06291945
1732440030065,2024-11-24T09:20:30.065Z,35083,0.11727984,-0.035060428,-0.07186877
1732440030071,2024-11-24T09:20:30.071Z,35089,0.11727984,-0.035060428,-0.07186877
1732440030082,2024-11-24T09:20:30.082Z,35100,0.14110504,-0.03176898,-0.032481443
1732440030086,2024-11-24T09:20:30.086Z,35104,0.14110504,-0.03176898,-0.032481443
1732440030097,2024-11-24T09:20:30.097Z,35115,0.09611772,-0.019723296,-0.06533134
1732440030104,2024-11-24T09:20:30.104Z,35122,0.09611772,-0.019723296,-0.06533134
1732440030113,2024-11-24T09:20:30.113Z,35131,0.10380802,-0.044195976,-0.051051002
1732440030117,2024-11-24T09:20:30.117Z,35135,0.10380802,-0.044195976,-0.051051002
1732440030125,2024-11-24T09:20:30.125Z,35143,0.09352687,-0.027669115,-0.04773032
1732440030128,2024-11-24T09:20:30.128Z,35146,0.09352687,-0.027669115,-0.04773032
1732440030137,2024-11-24T09:20:30.137Z,35155,0.10156102,-0.027426578,-0.06870228
1732440030139,2024-11-24T09:20:30.139Z,35157,0.10156102,-0.027426578,-0.06870228
1732440030149,2024-11-24T09:20:30.149Z,35167,0.09712489,-0.03951661,-0.10110666
1732440030152,2024-11-24T09:20:30.152Z,35170,0.09712489,-0.03951661,-0.10110666
1732440030160,2024-11-24T09:20:30.160Z,35178,0.08964384,-0.042297505,-0.07631624
1732440030163,2024-11-24T09:20:30.163Z,35181,0.08964384,-0.042297505,-0.07631624
1732440030170,2024-11-24T09:20:30.170Z,35188,0.09655655,-0.023677582,-0.038468316
1732440030176,2024-11-24T09:20:30.176Z,35194,0.09655655,-0.023677582,-0.038468316
1732440030186,2024-11-24T09:20:30.186Z,35204,0.08814924,-0.010750637,-0.052952547
1732440030189,2024-11-24T09:20:30.189Z,35207,0.08814924,-0.010750637,-0.052952547
1732440030196,2024-11-24T09:20:30.196Z,35214,0.100221135,-0.009039564,-0.055758704
1732440030199,2024-11-24T09:20:30.199Z,35217,0.100221135,-0.009039564,-0.055758704
1732440030210,2024-11-24T09:20:30.210Z,35228,0.072651215,0.0058265966,-0.11700363
1732440030215,2024-11-24T09:20:30.215Z,35233,0.072651215,0.0058265966,-0.11700363
1732440030235,2024-11-24T09:20:30.235Z,35253,0.108232066,-0.03279018,-0.09337485
1732440030239,2024-11-24T09:20:30.239Z,35257,0.108232066,-0.03279018,-0.09337485
1732440030260,2024-11-24T09:20:30.260Z,35278,0.122096404,-0.012284331,-0.07822975
1732440030267,2024-11-24T09:20:30.267Z,35285,0.122096404,-0.012284331,-0.07822975
1732440030291,2024-11-24T09:20:30.291Z,35309,0.02611393,0.020811206,-0.123477526
1732440030297,2024-11-24T09:20:30.297Z,35315,0.02611393,0.020811206,-0.123477526
1732440030315,2024-11-24T09:20:30.315Z,35333,0.056751214,-0.04018723,-0.14246623
1732440030320,2024-11-24T09:20:30.320Z,35338,0.056751214,-0.04018723,-0.14246623
1732440030334,2024-11-24T09:20:30.334Z,35352,0.09237942,-0.037266005,-0.032501243
1732440030338,2024-11-24T09:20:30.338Z,35356,0.09237942,-0.037266005,-0.032501243
1732440030351,2024-11-24T09:20:30.351Z,35369,0.110935405,-0.011877739,-0.13021505
1732440030356,2024-11-24T09:20:30.356Z,35374,0.110935405,-0.011877739,-0.13021505
1732440030368,2024-11-24T09:20:30.368Z,35386,0.16015446,0.034175474,-0.111558884
1732440030371,2024-11-24T09:20:30.371Z,35389,0.16015446,0.034175474,-0.111558884
1732440030385,2024-11-24T09:20:30.385Z,35403,0.076679066,0.039279908,-0.14418624
1732440030389,2024-11-24T09:20:30.389Z,35407,0.076679066,0.039279908,-0.14418624
1732440030399,2024-11-24T09:20:30.399Z,35417,0.056067925,0.04188605,-0.050159194
1732440030402,2024-11-24T09:20:30.402Z,35420,0.056067925,0.04188605,-0.050159194
1732440030412,2024-11-24T09:20:30.412Z,35430,0.059459124,-0.0032350426,-0.079758234
1732440030414,2024-11-24T09:20:30.414Z,35432,0.059459124,-0.0032350426,-0.079758234
1732440030423,2024-11-24T09:20:30.423Z,35441,0.09967422,0.01894901,-0.06488628
1732440030426,2024-11-24T09:20:30.426Z,35444,0.09967422,0.01894901,-0.06488628
1732440030436,2024-11-24T09:20:30.436Z,35454,0.12150516,0.091673575,-0.028965961
1732440030438,2024-11-24T09:20:30.438Z,35456,0.12150516,0.091673575,-0.028965961
1732440030446,2024-11-24T09:20:30.446Z,35464,0.12276296,0.05815258,-0.054507416
1732440030449,2024-11-24T09:20:30.449Z,35467,0.12276296,0.05815258,-0.054507416
1732440030457,2024-11-24T09:20:30.457Z,35475,0.107266925,0.045506775,-0.013640888
1732440030460,2024-11-24T09:20:30.460Z,35478,0.107266925,0.045506775,-0.013640888
1732440030470,2024-11-24T09:20:30.470Z,35488,0.11873029,0.009026144,-0.0178261
1732440030472,2024-11-24T09:20:30.472Z,35490,0.11873029,0.009026144,-0.0178261
1732440030479,2024-11-24T09:20:30.479Z,35497,0.09701388,-2.1637617E-4,-0.06283963
1732440030481,2024-11-24T09:20:30.481Z,35499,0.09701388,-2.1637617E-4,-0.06283963
1732440030489,2024-11-24T09:20:30.489Z,35507,0.0793459,-0.017821226,-0.16155468
1732440030491,2024-11-24T09:20:30.491Z,35509,0.0793459,-0.017821226,-0.16155468
1732440030499,2024-11-24T09:20:30.499Z,35517,0.08850077,-0.023520138,-0.040824383
1732440030502,2024-11-24T09:20:30.502Z,35520,0.08850077,-0.023520138,-0.040824383
1732440030509,2024-11-24T09:20:30.509Z,35527,0.11461348,-0.005513751,-0.047607996
1732440030511,2024-11-24T09:20:30.511Z,35529,0.11461348,-0.005513751,-0.047607996
1732440030520,2024-11-24T09:20:30.520Z,35538,0.13687944,-0.009529595,-0.0733115
1732440030523,2024-11-24T09:20:30.523Z,35541,0.13687944,-0.009529595,-0.0733115
1732440030531,2024-11-24T09:20:30.531Z,35549,0.12982495,0.0048558703,-0.21505804
1732440030534,2024-11-24T09:20:30.534Z,35552,0.12982495,0.0048558703,-0.21505804
1732440030541,2024-11-24T09:20:30.541Z,35559,0.17134604,-0.039578848,-0.16099866
1732440030543,2024-11-24T09:20:30.543Z,35561,0.17134604,-0.039578848,-0.16099866
1732440030550,2024-11-24T09:20:30.550Z,35568,0.12676527,0.005541564,-0.09289823
1732440030552,2024-11-24T09:20:30.552Z,35570,0.12676527,0.005541564,-0.09289823
1732440030560,2024-11-24T09:20:30.560Z,35578,0.13426603,0.017473761,-0.007634541
1732440030562,2024-11-24T09:20:30.562Z,35580,0.13426603,0.017473761,-0.007634541
1732440030571,2024-11-24T09:20:30.571Z,35589,0.102832556,0.026333319,-0.17399976
1732440030574,2024-11-24T09:20:30.574Z,35592,0.102832556,0.026333319,-0.17399976
1732440030583,2024-11-24T09:20:30.583Z,35601,0.14216277,-0.03559208,-0.15775996
1732440030586,2024-11-24T09:20:30.586Z,35604,0.14216277,-0.03559208,-0.15775996
1732440030593,2024-11-24T09:20:30.593Z,35611,0.05541406,-0.026235294,-0.16310333
1732440030596,2024-11-24T09:20:30.596Z,35614,0.05541406,-0.026235294,-0.16310333
1732440030606,2024-11-24T09:20:30.606Z,35624,0.1186745,-0.026786981,-0.08325733
1732440030608,2024-11-24T09:20:30.608Z,35626,0.1186745,-0.026786981,-0.08325733
1732440030627,2024-11-24T09:20:30.627Z,35645,0.09752774,0.050119042,-0.1935611
1732440030629,2024-11-24T09:20:30.629Z,35647,0.09752774,0.050119042,-0.1935611
1732440030637,2024-11-24T09:20:30.637Z,35655,0.10949971,-0.023738362,-0.21279857
1732440030640,2024-11-24T09:20:30.640Z,35658,0.10949971,-0.023738362,-0.21279857
1732440030647,2024-11-24T09:20:30.647Z,35665,0.17174949,-0.011499056,-0.047144476
1732440030650,2024-11-24T09:20:30.650Z,35668,0.17174949,-0.011499056,-0.047144476
1732440030677,2024-11-24T09:20:30.677Z,35695,0.12303586,0.00865281,-0.07458428
1732440030682,2024-11-24T09:20:30.682Z,35700,0.12303586,0.00865281,-0.07458428
1732440030701,2024-11-24T09:20:30.701Z,35719,0.15798941,0.022470836,-0.020700281
1732440030707,2024-11-24T09:20:30.707Z,35725,0.15798941,0.022470836,-0.020700281
1732440030727,2024-11-24T09:20:30.727Z,35745,0.1445304,0.058308076,0.0037577124
1732440030732,2024-11-24T09:20:30.732Z,35750,0.1445304,0.058308076,0.0037577124
1732440030742,2024-11-24T09:20:30.742Z,35760,0.08015356,0.023886178,-0.23787549
1732440030745,2024-11-24T09:20:30.745Z,35763,0.08015356,0.023886178,-0.23787549
1732440030755,2024-11-24T09:20:30.755Z,35773,0.15643574,0.024758685,-0.041101966
1732440030757,2024-11-24T09:20:30.757Z,35775,0.15643574,0.024758685,-0.041101966
1732440030766,2024-11-24T09:20:30.766Z,35784,0.13142696,0.056979574,-0.11227628
1732440030769,2024-11-24T09:20:30.769Z,35787,0.13142696,0.056979574,-0.11227628
1732440030777,2024-11-24T09:20:30.777Z,35795,0.15875886,0.00704832,-0.23068167
1732440030779,2024-11-24T09:20:30.779Z,35797,0.15875886,0.00704832,-0.23068167
1732440030787,2024-11-24T09:20:30.787Z,35805,0.19048572,-0.005944169,-0.095165275
1732440030790,2024-11-24T09:20:30.790Z,35808,0.19048572,-0.005944169,-0.095165275
1732440030810,2024-11-24T09:20:30.810Z,35828,0.08376656,0.0070543494,-0.028479042
1732440030817,2024-11-24T09:20:30.817Z,35835,0.08376656,0.0070543494,-0.028479042
1732440030837,2024-11-24T09:20:30.837Z,35855,0.035324648,-0.011896896,-0.11962888
1732440030842,2024-11-24T09:20:30.842Z,35860,0.035324648,-0.011896896,-0.11962888
1732440030859,2024-11-24T09:20:30.859Z,35877,0.0194193,-0.045248583,-0.31502295
1732440030862,2024-11-24T09:20:30.862Z,35880,0.0194193,-0.045248583,-0.31502295
1732440030872,2024-11-24T09:20:30.872Z,35890,0.08822167,-0.08456681,-0.34456727
1732440030876,2024-11-24T09:20:30.876Z,35894,0.08822167,-0.08456681,-0.34456727
1732440030888,2024-11-24T09:20:30.888Z,35906,0.13387772,-0.103313155,-0.065767296
1732440030893,2024-11-24T09:20:30.893Z,35911,0.13387772,-0.103313155,-0.065767296
1732440030911,2024-11-24T09:20:30.911Z,35929,0.037123147,-0.078728445,-0.07913176
1732440030916,2024-11-24T09:20:30.916Z,35934,0.037123147,-0.078728445,-0.07913176
1732440030936,2024-11-24T09:20:30.936Z,35954,0.003875516,-0.023848057,-0.122758
1732440030943,2024-11-24T09:20:30.943Z,35961,0.003875516,-0.023848057,-0.122758
1732440030961,2024-11-24T09:20:30.961Z,35979,0.12758397,-0.03972472,-0.3097531
1732440030968,2024-11-24T09:20:30.968Z,35986,0.12758397,-0.03972472,-0.3097531
1732440030987,2024-11-24T09:20:30.987Z,36005,0.12137432,-0.04747585,-0.17277876
1732440030993,2024-11-24T09:20:30.993Z,36011,0.12137432,-0.04747585,-0.17277876
1732440031012,2024-11-24T09:20:31.012Z,36030,0.13911279,-0.07821867,-0.0672347
1732440031018,2024-11-24T09:20:31.018Z,36036,0.13911279,-0.07821867,-0.0672347
1732440031033,2024-11-24T09:20:31.033Z,36051,0.034159936,-0.0047548297,-0.0378317
1732440031036,2024-11-24T09:20:31.036Z,36054,0.034159936,-0.0047548297,-0.0378317
1732440031051,2024-11-24T09:20:31.051Z,36069,0.119149044,-0.019972444,-0.06457842
1732440031056,2024-11-24T09:20:31.056Z,36074,0.119149044,-0.019972444,-0.06457842
1732440031075,2024-11-24T09:20:31.075Z,36093,0.14643507,-0.03467377,-0.16545865
1732440031081,2024-11-24T09:20:31.081Z,36099,0.14643507,-0.03467377,-0.16545865
1732440031100,2024-11-24T09:20:31.100Z,36118,0.13815348,0.0050924737,-0.13351724
1732440031105,2024-11-24T09:20:31.105Z,36123,0.13815348,0.0050924737,-0.13351724
1732440031122,2024-11-24T09:20:31.122Z,36140,0.12530859,-0.0401247,-0.22595458
1732440031125,2024-11-24T09:20:31.125Z,36143,0.12530859,-0.0401247,-0.22595458
1732440031136,2024-11-24T09:20:31.136Z,36154,0.16493227,-0.02983657,-0.17683926
1732440031140,2024-11-24T09:20:31.140Z,36158,0.16493227,-0.02983657,-0.17683926
1732440031151,2024-11-24T09:20:31.151Z,36169,0.107067056,-0.052314896,-0.040838905
1732440031155,2024-11-24T09:20:31.155Z,36173,0.107067056,-0.052314896,-0.040838905
1732440031165,2024-11-24T09:20:31.165Z,36183,0.09243427,-0.021698687,0.021781884
1732440031168,2024-11-24T09:20:31.168Z,36186,0.09243427,-0.021698687,0.021781884
1732440031177,2024-11-24T09:20:31.177Z,36195,0.1171125,0.002496835,-0.04319329
1732440031180,2024-11-24T09:20:31.180Z,36198,0.1171125,0.002496835,-0.04319329
1732440031188,2024-11-24T09:20:31.188Z,36206,0.15492113,-0.06528842,-0.16525322
1732440031191,2024-11-24T09:20:31.191Z,36209,0.15492113,-0.06528842,-0.16525322
1732440031198,2024-11-24T09:20:31.198Z,36216,0.053966016,-0.048964128,-0.106610894
1732440031201,2024-11-24T09:20:31.201Z,36219,0.053966016,-0.048964128,-0.106610894
1732440031213,2024-11-24T09:20:31.213Z,36231,0.05643596,-0.054327823,-0.0359403
1732440031216,2024-11-24T09:20:31.216Z,36234,0.05643596,-0.054327823,-0.0359403
1732440031224,2024-11-24T09:20:31.224Z,36242,0.08622585,-0.035431426,-0.046506293
1732440031227,2024-11-24T09:20:31.227Z,36245,0.08622585,-0.035431426,-0.046506293
1732440031235,2024-11-24T09:20:31.235Z,36253,0.16043293,-0.05194895,-0.09531096
1732440031238,2024-11-24T09:20:31.238Z,36256,0.16043293,-0.05194895,-0.09531096
1732440031257,2024-11-24T09:20:31.257Z,36275,0.12397272,-0.049837023,-0.19260697
1732440031259,2024-11-24T09:20:31.259Z,36277,0.12397272,-0.049837023,-0.19260697
1732440031266,2024-11-24T09:20:31.266Z,36284,0.067161605,-0.09637482,-0.09050734
1732440031269,2024-11-24T09:20:31.269Z,36287,0.067161605,-0.09637482,-0.09050734
1732440031279,2024-11-24T09:20:31.279Z,36297,0.06755288,-0.09650922,-0.039838523
1732440031281,2024-11-24T09:20:31.281Z,36299,0.06755288,-0.09650922,-0.039838523
1732440031304,2024-11-24T09:20:31.304Z,36322,0.12245138,-0.072361924,-0.19746955
1732440031307,2024-11-24T09:20:31.307Z,36325,0.12245138,-0.072361924,-0.19746955
1732440031314,2024-11-24T09:20:31.314Z,36332,0.03526465,-0.08555883,-0.019019222
1732440031318,2024-11-24T09:20:31.318Z,36336,0.03526465,-0.08555883,-0.019019222
1732440031326,2024-11-24T09:20:31.326Z,36344,0.00716667,-0.049690083,0.051981796
1732440031329,2024-11-24T09:20:31.329Z,36347,0.00716667,-0.049690083,0.051981796
1732440031338,2024-11-24T09:20:31.338Z,36356,0.030537581,-0.003583481,-0.06779633
1732440031340,2024-11-24T09:20:31.340Z,36358,0.030537581,-0.003583481,-0.06779633
1732440031394,2024-11-24T09:20:31.394Z,36412,0.033967264,-0.00778079,-0.12910387
1732440031397,2024-11-24T09:20:31.397Z,36415,0.033967264,-0.00778079,-0.12910387
1732440031406,2024-11-24T09:20:31.406Z,36424,0.07251276,-0.031570595,-0.08877642
1732440031409,2024-11-24T09:20:31.409Z,36427,0.07251276,-0.031570595,-0.08877642
1732440031423,2024-11-24T09:20:31.423Z,36441,0.042476196,-0.03571996,-0.06634189
1732440031429,2024-11-24T09:20:31.429Z,36447,0.042476196,-0.03571996,-0.06634189
1732440031450,2024-11-24T09:20:31.450Z,36468,0.06937171,-0.03632027,-0.0848851
1732440031456,2024-11-24T09:20:31.456Z,36474,0.06937171,-0.03632027,-0.0848851
1732440031476,2024-11-24T09:20:31.476Z,36494,0.072844036,-0.0042957235,-0.16451342
1732440031482,2024-11-24T09:20:31.482Z,36500,0.072844036,-0.0042957235,-0.16451342
1732440031502,2024-11-24T09:20:31.502Z,36520,0.019938797,-0.005345026,-0.1503382
1732440031508,2024-11-24T09:20:31.508Z,36526,0.019938797,-0.005345026,-0.1503382
1732440031530,2024-11-24T09:20:31.530Z,36548,0.05105855,0.007896223,-0.14726946
1732440031536,2024-11-24T09:20:31.536Z,36554,0.05105855,0.007896223,-0.14726946
1732440031553,2024-11-24T09:20:31.553Z,36571,0.08375022,0.023929453,-0.20474541
1732440031556,2024-11-24T09:20:31.556Z,36574,0.08375022,0.023929453,-0.20474541
1732440031568,2024-11-24T09:20:31.568Z,36586,0.058442034,0.004072248,-0.09413895
1732440031571,2024-11-24T09:20:31.571Z,36589,0.058442034,0.004072248,-0.09413895
1732440031581,2024-11-24T09:20:31.581Z,36599,0.044035904,-0.007892819,-0.11169914
1732440031584,2024-11-24T09:20:31.584Z,36602,0.044035904,-0.007892819,-0.11169914
1732440031621,2024-11-24T09:20:31.621Z,36639,0.001585235,-0.0016690625,-0.14779605
1732440031624,2024-11-24T09:20:31.624Z,36642,0.001585235,-0.0016690625,-0.14779605
1732440031633,2024-11-24T09:20:31.633Z,36651,0.0136945695,-0.02196505,-0.19709148
1732440031635,2024-11-24T09:20:31.635Z,36653,0.0136945695,-0.02196505,-0.19709148
1732440031643,2024-11-24T09:20:31.643Z,36661,0.051282316,-0.022158572,-0.1041009
1732440031646,2024-11-24T09:20:31.646Z,36664,0.051282316,-0.022158572,-0.1041009
1732440031664,2024-11-24T09:20:31.664Z,36682,0.035957973,-0.01829638,-0.116052896
1732440031667,2024-11-24T09:20:31.667Z,36685,0.035957973,-0.01829638,-0.116052896
1732440031678,2024-11-24T09:20:31.678Z,36696,0.041806452,0.00292278,-0.12315501
1732440031681,2024-11-24T09:20:31.681Z,36699,0.041806452,0.00292278,-0.12315501
1732440031693,2024-11-24T09:20:31.693Z,36711,-6.758716E-5,-0.00267227,-0.20292799
1732440031696,2024-11-24T09:20:31.696Z,36714,-6.758716E-5,-0.00267227,-0.20292799
1732440031708,2024-11-24T09:20:31.708Z,36726,0.095024824,0.003959052,-0.14825
1732440031711,2024-11-24T09:20:31.711Z,36729,0.095024824,0.003959052,-0.14825
1732440031720,2024-11-24T09:20:31.720Z,36738,0.09396278,9.6080745E-5,-0.19684426
1732440031723,2024-11-24T09:20:31.723Z,36741,0.09396278,9.6080745E-5,-0.19684426
1732440031730,2024-11-24T09:20:31.730Z,36748,0.09664521,-0.0061512096,-0.1768342
1732440031733,2024-11-24T09:20:31.733Z,36751,0.09664521,-0.0061512096,-0.1768342
1732440031759,2024-11-24T09:20:31.759Z,36777,0.023989456,0.027135711,-0.11153567
1732440031765,2024-11-24T09:20:31.765Z,36783,0.023989456,0.027135711,-0.11153567
1732440031787,2024-11-24T09:20:31.787Z,36805,0.04544755,0.034653347,-0.082759626
1732440031792,2024-11-24T09:20:31.792Z,36810,0.04544755,0.034653347,-0.082759626
1732440031809,2024-11-24T09:20:31.809Z,36827,0.10108528,0.009934827,-0.102383025
1732440031813,2024-11-24T09:20:31.813Z,36831,0.10108528,0.009934827,-0.102383025
1732440031827,2024-11-24T09:20:31.827Z,36845,0.05891738,0.003001259,-0.13823292
1732440031831,2024-11-24T09:20:31.831Z,36849,0.05891738,0.003001259,-0.13823292
1732440031843,2024-11-24T09:20:31.843Z,36861,0.09264296,-0.0051508225,-0.14033327
1732440031846,2024-11-24T09:20:31.846Z,36864,0.09264296,-0.0051508225,-0.14033327
1732440031860,2024-11-24T09:20:31.860Z,36878,0.16788311,-0.0133024175,-0.07974714
1732440031867,2024-11-24T09:20:31.867Z,36885,0.16788311,-0.0133024175,-0.07974714
1732440031889,2024-11-24T09:20:31.889Z,36907,0.020789715,-1.0833395E-4,-0.10440627
1732440031895,2024-11-24T09:20:31.895Z,36913,0.020789715,-1.0833395E-4,-0.10440627
1732440031913,2024-11-24T09:20:31.913Z,36931,0.045850694,-0.011026043,-0.15825653
1732440031921,2024-11-24T09:20:31.921Z,36939,0.045850694,-0.011026043,-0.15825653
1732440031942,2024-11-24T09:20:31.942Z,36960,0.13259,-0.046438117,-0.09023235
1732440031948,2024-11-24T09:20:31.948Z,36966,0.13259,-0.046438117,-0.09023235
1732440031966,2024-11-24T09:20:31.966Z,36984,0.09523201,-0.052898966,-0.12498969
1732440031972,2024-11-24T09:20:31.972Z,36990,0.09523201,-0.052898966,-0.12498969
1732440031991,2024-11-24T09:20:31.991Z,37009,0.028496133,-0.049455132,-0.16340417
1732440031997,2024-11-24T09:20:31.997Z,37015,0.028496133,-0.049455132,-0.16340417
1732440032013,2024-11-24T09:20:32.013Z,37031,0.06930045,-0.055365458,-0.1281396
1732440032017,2024-11-24T09:20:32.017Z,37035,0.06930045,-0.055365458,-0.1281396
1732440032029,2024-11-24T09:20:32.029Z,37047,0.017284516,-0.08439954,-0.19065696
1732440032033,2024-11-24T09:20:32.033Z,37051,0.017284516,-0.08439954,-0.19065696
1732440032044,2024-11-24T09:20:32.044Z,37062,0.119760975,-0.12312562,-0.11187927
1732440032047,2024-11-24T09:20:32.047Z,37065,0.119760975,-0.12312562,-0.11187927
1732440032061,2024-11-24T09:20:32.061Z,37079,0.087843426,-0.10565614,-0.14213973
1732440032072,2024-11-24T09:20:32.072Z,37090,0.087843426,-0.10565614,-0.14213973
1732440032093,2024-11-24T09:20:32.093Z,37111,0.06435506,-0.11634707,-0.10200707
1732440032099,2024-11-24T09:20:32.099Z,37117,0.06435506,-0.11634707,-0.10200707
1732440032113,2024-11-24T09:20:32.113Z,37131,-0.0053657885,-0.10175729,-0.08994458
1732440032117,2024-11-24T09:20:32.117Z,37135,-0.0053657885,-0.10175729,-0.08994458
1732440032128,2024-11-24T09:20:32.128Z,37146,-0.10616071,-0.092865735,-0.15624973
1732440032132,2024-11-24T09:20:32.132Z,37150,-0.10616071,-0.092865735,-0.15624973
1732440032142,2024-11-24T09:20:32.142Z,37160,0.017752523,-0.10232551,-0.14692062
1732440032145,2024-11-24T09:20:32.145Z,37163,0.017752523,-0.10232551,-0.14692062
1732440032155,2024-11-24T09:20:32.155Z,37173,0.09249675,-0.08479126,-0.1512984
1732440032158,2024-11-24T09:20:32.158Z,37176,0.09249675,-0.08479126,-0.1512984
1732440032166,2024-11-24T09:20:32.166Z,37184,0.12216584,-0.09944328,-0.103775896
1732440032169,2024-11-24T09:20:32.169Z,37187,0.12216584,-0.09944328,-0.103775896
1732440032178,2024-11-24T09:20:32.178Z,37196,0.07666869,-0.059699107,-0.06423811
1732440032180,2024-11-24T09:20:32.180Z,37198,0.07666869,-0.059699107,-0.06423811
1732440032188,2024-11-24T09:20:32.188Z,37206,-0.012923516,-0.07605958,-0.09988743
1732440032191,2024-11-24T09:20:32.191Z,37209,-0.012923516,-0.07605958,-0.09988743
1732440032198,2024-11-24T09:20:32.198Z,37216,0.0102272015,-0.06528822,-0.09394509
1732440032200,2024-11-24T09:20:32.200Z,37218,0.0102272015,-0.06528822,-0.09394509
1732440032208,2024-11-24T09:20:32.208Z,37226,0.09997537,-0.060473297,-0.14143562
1732440032210,2024-11-24T09:20:32.210Z,37228,0.09997537,-0.060473297,-0.14143562
1732440032217,2024-11-24T09:20:32.217Z,37235,0.08228039,-0.059809677,-0.07469046
1732440032220,2024-11-24T09:20:32.220Z,37238,0.08228039,-0.059809677,-0.07469046
1732440032230,2024-11-24T09:20:32.230Z,37248,0.0145913875,-0.038181495,-0.06551481
1732440032232,2024-11-24T09:20:32.232Z,37250,0.0145913875,-0.038181495,-0.06551481
1732440032242,2024-11-24T09:20:32.242Z,37260,-0.009313657,-0.037216604,-0.115365125
1732440032244,2024-11-24T09:20:32.244Z,37262,-0.009313657,-0.037216604,-0.115365125
1732440032252,2024-11-24T09:20:32.252Z,37270,0.048640974,-0.054538656,-0.116996706
1732440032254,2024-11-24T09:20:32.254Z,37272,0.048640974,-0.054538656,-0.116996706
1732440032264,2024-11-24T09:20:32.264Z,37282,0.1461619,-0.08053433,-0.14334336
1732440032269,2024-11-24T09:20:32.269Z,37287,0.1461619,-0.08053433,-0.14334336
1732440032279,2024-11-24T09:20:32.279Z,37297,0.13181886,-0.073113166,-0.08725927
1732440032281,2024-11-24T09:20:32.281Z,37299,0.13181886,-0.073113166,-0.08725927
1732440032288,2024-11-24T09:20:32.288Z,37306,0.012154943,-0.06544265,-0.07231999
1732440032290,2024-11-24T09:20:32.290Z,37308,0.012154943,-0.06544265,-0.07231999
1732440032297,2024-11-24T09:20:32.297Z,37315,0.0013008098,-0.08670509,-0.0950976
1732440032299,2024-11-24T09:20:32.299Z,37317,0.0013008098,-0.08670509,-0.0950976
1732440032307,2024-11-24T09:20:32.307Z,37325,-0.02197937,-0.08143679,-0.11495695
1732440032309,2024-11-24T09:20:32.309Z,37327,-0.02197937,-0.08143679,-0.11495695
1732440032315,2024-11-24T09:20:32.315Z,37333,0.04608822,-0.10069057,-0.09512377
1732440032317,2024-11-24T09:20:32.317Z,37335,0.04608822,-0.10069057,-0.09512377
1732440032326,2024-11-24T09:20:32.326Z,37344,0.061299685,-0.08473777,-0.095699966
1732440032329,2024-11-24T09:20:32.329Z,37347,0.061299685,-0.08473777,-0.095699966
1732440032337,2024-11-24T09:20:32.337Z,37355,0.063963175,-0.09011673,-0.06720653
1732440032340,2024-11-24T09:20:32.340Z,37358,0.063963175,-0.09011673,-0.06720653
1732440032349,2024-11-24T09:20:32.349Z,37367,0.043308783,-0.046114963,-0.07782409
1732440032352,2024-11-24T09:20:32.352Z,37370,0.043308783,-0.046114963,-0.07782409
1732440032386,2024-11-24T09:20:32.386Z,37404,0.055179667,-0.037594605,-0.03946618
1732440032389,2024-11-24T09:20:32.389Z,37407,0.055179667,-0.037594605,-0.03946618
1732440032403,2024-11-24T09:20:32.403Z,37421,0.051509634,-0.03315554,-0.10410786
1732440032409,2024-11-24T09:20:32.409Z,37427,0.051509634,-0.03315554,-0.10410786
1732440032479,2024-11-24T09:20:32.479Z,37497,-0.015143512,-0.019019222,-0.11165457
1732440032485,2024-11-24T09:20:32.485Z,37503,-0.015143512,-0.019019222,-0.11165457
1732440032507,2024-11-24T09:20:32.507Z,37525,0.06686765,-0.013767943,-0.091896445
1732440032514,2024-11-24T09:20:32.514Z,37532,0.06686765,-0.013767943,-0.091896445
1732440032530,2024-11-24T09:20:32.530Z,37548,0.08895796,-0.012926555,-0.11141651
1732440032533,2024-11-24T09:20:32.533Z,37551,0.08895796,-0.012926555,-0.11141651
1732440032546,2024-11-24T09:20:32.546Z,37564,0.09462633,-0.02088881,-0.07900882
1732440032550,2024-11-24T09:20:32.550Z,37568,0.09462633,-0.02088881,-0.07900882
1732440032563,2024-11-24T09:20:32.563Z,37581,0.078194626,-0.035414796,-0.16025403
1732440032566,2024-11-24T09:20:32.566Z,37584,0.078194626,-0.035414796,-0.16025403
1732440032577,2024-11-24T09:20:32.577Z,37595,0.14459017,-0.04557271,-0.15575069
1732440032580,2024-11-24T09:20:32.580Z,37598,0.14459017,-0.04557271,-0.15575069
1732440032589,2024-11-24T09:20:32.589Z,37607,0.092952915,-0.035576716,-0.075678594
1732440032592,2024-11-24T09:20:32.592Z,37610,0.092952915,-0.035576716,-0.075678594
1732440032600,2024-11-24T09:20:32.600Z,37618,0.11650646,-0.045431506,-0.08951188
1732440032603,2024-11-24T09:20:32.603Z,37621,0.11650646,-0.045431506,-0.08951188
1732440032612,2024-11-24T09:20:32.612Z,37630,0.08663704,-0.025828993,-0.050676502
1732440032615,2024-11-24T09:20:32.615Z,37633,0.08663704,-0.025828993,-0.050676502
1732440032623,2024-11-24T09:20:32.623Z,37641,0.11265265,-0.031033691,-0.048808344
1732440032625,2024-11-24T09:20:32.625Z,37643,0.11265265,-0.031033691,-0.048808344
1732440032637,2024-11-24T09:20:32.637Z,37655,0.12794678,-0.04586922,-0.1212653
1732440032641,2024-11-24T09:20:32.641Z,37659,0.12794678,-0.04586922,-0.1212653
1732440032652,2024-11-24T09:20:32.652Z,37670,0.054257393,-0.039306555,-0.10217137
1732440032655,2024-11-24T09:20:32.655Z,37673,0.054257393,-0.039306555,-0.10217137
1732440032664,2024-11-24T09:20:32.664Z,37682,0.11236624,-0.037125483,-0.09475824
1732440032667,2024-11-24T09:20:32.667Z,37685,0.11236624,-0.037125483,-0.09475824
1732440032675,2024-11-24T09:20:32.675Z,37693,0.092026316,-0.028055284,-0.038904853
1732440032677,2024-11-24T09:20:32.677Z,37695,0.092026316,-0.028055284,-0.038904853
1732440032699,2024-11-24T09:20:32.699Z,37717,0.097192064,-0.029520225,-0.035181675
1732440032702,2024-11-24T09:20:32.702Z,37720,0.097192064,-0.029520225,-0.035181675
1732440032712,2024-11-24T09:20:32.712Z,37730,0.06642106,-0.02960162,-0.059332464
1732440032715,2024-11-24T09:20:32.715Z,37733,0.06642106,-0.02960162,-0.059332464
1732440032725,2024-11-24T09:20:32.725Z,37743,0.10744601,-0.04343326,-0.111236006
1732440032728,2024-11-24T09:20:32.728Z,37746,0.10744601,-0.04343326,-0.111236006
1732440032743,2024-11-24T09:20:32.743Z,37761,0.102110006,-0.03914697,-0.101567775
1732440032746,2024-11-24T09:20:32.746Z,37764,0.102110006,-0.03914697,-0.101567775
1732440032754,2024-11-24T09:20:32.754Z,37772,-0.020656144,-0.05737372,-0.08481288
1732440032757,2024-11-24T09:20:32.757Z,37775,-0.020656144,-0.05737372,-0.08481288
1732440032765,2024-11-24T09:20:32.765Z,37783,-0.035397,-0.076310575,-0.11732332
1732440032767,2024-11-24T09:20:32.767Z,37785,-0.035397,-0.076310575,-0.11732332
1732440032789,2024-11-24T09:20:32.789Z,37807,-0.055415906,-0.07917354,-0.13734287
1732440032792,2024-11-24T09:20:32.792Z,37810,-0.055415906,-0.07917354,-0.13734287
1732440032801,2024-11-24T09:20:32.801Z,37819,-0.014895505,-0.08908523,-0.13554034
1732440032804,2024-11-24T09:20:32.804Z,37822,-0.014895505,-0.08908523,-0.13554034
1732440032812,2024-11-24T09:20:32.812Z,37830,-0.0137999365,-0.0877577,-0.10227221
1732440032814,2024-11-24T09:20:32.814Z,37832,-0.0137999365,-0.0877577,-0.10227221
1732440032832,2024-11-24T09:20:32.832Z,37850,-0.012960981,-0.0736528,-0.10575131
1732440032834,2024-11-24T09:20:32.834Z,37852,-0.012960981,-0.0736528,-0.10575131
1732440032843,2024-11-24T09:20:32.843Z,37861,0.0065289685,-0.062162586,-0.114495315
1732440032845,2024-11-24T09:20:32.845Z,37863,0.0065289685,-0.062162586,-0.114495315
1732440032853,2024-11-24T09:20:32.853Z,37871,0.042752236,-0.055979285,-0.09560165
1732440032855,2024-11-24T09:20:32.855Z,37873,0.042752236,-0.055979285,-0.09560165
1732440032879,2024-11-24T09:20:32.879Z,37897,0.074600354,-0.054203056,-0.10437376
1732440032882,2024-11-24T09:20:32.882Z,37900,0.074600354,-0.054203056,-0.10437376
1732440032890,2024-11-24T09:20:32.890Z,37908,0.06695602,-0.046739,-0.07938246
1732440032893,2024-11-24T09:20:32.893Z,37911,0.06695602,-0.046739,-0.07938246
1732440032901,2024-11-24T09:20:32.901Z,37919,0.0428912,-0.041148815,-0.079719014
1732440032903,2024-11-24T09:20:32.903Z,37921,0.0428912,-0.041148815,-0.079719014
1732440032912,2024-11-24T09:20:32.912Z,37930,0.018275278,-0.034240533,-0.116948664
1732440032915,2024-11-24T09:20:32.915Z,37933,0.018275278,-0.034240533,-0.116948664
1732440032928,2024-11-24T09:20:32.928Z,37946,0.06236946,-0.034771115,-0.10792759
1732440032931,2024-11-24T09:20:32.931Z,37949,0.06236946,-0.034771115,-0.10792759
1732440032941,2024-11-24T09:20:32.941Z,37959,0.069066785,-0.033728037,-0.09650847
1732440032949,2024-11-24T09:20:32.949Z,37967,0.069066785,-0.033728037,-0.09650847
1732440032969,2024-11-24T09:20:32.969Z,37987,0.08808287,-0.028502528,-0.10256773
1732440032976,2024-11-24T09:20:32.976Z,37994,0.08808287,-0.028502528,-0.10256773
1732440032996,2024-11-24T09:20:32.996Z,38014,0.077307336,-0.03011081,-0.118315846
1732440033003,2024-11-24T09:20:33.003Z,38021,0.077307336,-0.03011081,-0.118315846
1732440033028,2024-11-24T09:20:33.028Z,38046,0.042975735,-0.033947427,-0.08452023
1732440033034,2024-11-24T09:20:33.034Z,38052,0.042975735,-0.033947427,-0.08452023
1732440033054,2024-11-24T09:20:33.054Z,38072,0.014906981,-0.037282247,-0.095499605
1732440033057,2024-11-24T09:20:33.057Z,38075,0.014906981,-0.037282247,-0.095499605
1732440033071,2024-11-24T09:20:33.071Z,38089,0.031217804,-0.052485466,-0.106772095
1732440033074,2024-11-24T09:20:33.074Z,38092,0.031217804,-0.052485466,-0.106772095
1732440033087,2024-11-24T09:20:33.087Z,38105,0.060229763,-0.10841448,-0.095975675
1732440033091,2024-11-24T09:20:33.091Z,38109,0.060229763,-0.10841448,-0.095975675
1732440033101,2024-11-24T09:20:33.101Z,38119,0.019185102,-0.107781395,-0.01964096
1732440033105,2024-11-24T09:20:33.105Z,38123,0.019185102,-0.107781395,-0.01964096
1732440033116,2024-11-24T09:20:33.116Z,38134,-6.121743E-5,-0.12630971,-0.010150409
1732440033119,2024-11-24T09:20:33.119Z,38137,-6.121743E-5,-0.12630971,-0.010150409
1732440033128,2024-11-24T09:20:33.128Z,38146,0.016419984,-0.18384156,-0.087733895
1732440033131,2024-11-24T09:20:33.131Z,38149,0.016419984,-0.18384156,-0.087733895
1732440033139,2024-11-24T09:20:33.139Z,38157,-0.015017576,-0.21412537,-0.108915776
1732440033142,2024-11-24T09:20:33.142Z,38160,-0.015017576,-0.21412537,-0.108915776
1732440033150,2024-11-24T09:20:33.150Z,38168,0.0031837686,-0.22498405,-0.06893397
1732440033152,2024-11-24T09:20:33.152Z,38170,0.0031837686,-0.22498405,-0.06893397
1732440033160,2024-11-24T09:20:33.160Z,38178,-0.012271665,-0.26901382,-0.0291206
1732440033162,2024-11-24T09:20:33.162Z,38180,-0.012271665,-0.26901382,-0.0291206
1732440033169,2024-11-24T09:20:33.169Z,38187,-0.047644377,-0.25809562,-0.025839604
1732440033172,2024-11-24T09:20:33.172Z,38190,-0.047644377,-0.25809562,-0.025839604
1732440033179,2024-11-24T09:20:33.179Z,38197,-0.11127713,-0.2669118,-0.029088266
1732440033182,2024-11-24T09:20:33.182Z,38200,-0.11127713,-0.2669118,-0.029088266
1732440033192,2024-11-24T09:20:33.192Z,38210,-0.088878505,-0.27402297,-0.033273462
1732440033194,2024-11-24T09:20:33.194Z,38212,-0.088878505,-0.27402297,-0.033273462
1732440033202,2024-11-24T09:20:33.202Z,38220,-0.07225724,-0.280629,-0.09166796
1732440033204,2024-11-24T09:20:33.204Z,38222,-0.07225724,-0.280629,-0.09166796
1732440033212,2024-11-24T09:20:33.212Z,38230,-0.07890262,-0.29517218,-0.07437412
1732440033214,2024-11-24T09:20:33.214Z,38232,-0.07890262,-0.29517218,-0.07437412
1732440033239,2024-11-24T09:20:33.239Z,38257,-0.11626684,-0.2674774,-0.07098163
1732440033243,2024-11-24T09:20:33.243Z,38261,-0.11626684,-0.2674774,-0.07098163
1732440033250,2024-11-24T09:20:33.250Z,38268,-0.16169198,-0.26281962,-0.06591094
1732440033253,2024-11-24T09:20:33.253Z,38271,-0.16169198,-0.26281962,-0.06591094
1732440033261,2024-11-24T09:20:33.261Z,38279,-0.1659278,-0.23096381,-0.056195114
1732440033264,2024-11-24T09:20:33.264Z,38282,-0.1659278,-0.23096381,-0.056195114
1732440033272,2024-11-24T09:20:33.272Z,38290,-0.11430842,-0.22123437,-0.013607362
1732440033274,2024-11-24T09:20:33.274Z,38292,-0.11430842,-0.22123437,-0.013607362
1732440033283,2024-11-24T09:20:33.283Z,38301,-0.073821954,-0.2177143,-0.055298477
1732440033286,2024-11-24T09:20:33.286Z,38304,-0.073821954,-0.2177143,-0.055298477
1732440033293,2024-11-24T09:20:33.293Z,38311,-0.023124535,-0.20284326,-0.055074044
1732440033296,2024-11-24T09:20:33.296Z,38314,-0.023124535,-0.20284326,-0.055074044
1732440033303,2024-11-24T09:20:33.303Z,38321,-0.028877078,-0.18545927,-0.10329574
1732440033305,2024-11-24T09:20:33.305Z,38323,-0.028877078,-0.18545927,-0.10329574
1732440033330,2024-11-24T09:20:33.330Z,38348,0.08126627,-0.14171676,-0.08191109
1732440033333,2024-11-24T09:20:33.333Z,38351,0.08126627,-0.14171676,-0.08191109
1732440033341,2024-11-24T09:20:33.341Z,38359,0.07673433,-0.14711586,-0.1028944
1732440033344,2024-11-24T09:20:33.344Z,38362,0.07673433,-0.14711586,-0.1028944
1732440033374,2024-11-24T09:20:33.374Z,38392,0.07465945,-0.1520823,-0.063726485
1732440033377,2024-11-24T09:20:33.377Z,38395,0.07465945,-0.1520823,-0.063726485
1732440033385,2024-11-24T09:20:33.385Z,38403,0.10919783,-0.12612377,-0.026711766
1732440033389,2024-11-24T09:20:33.389Z,38407,0.10919783,-0.12612377,-0.026711766
1732440033398,2024-11-24T09:20:33.398Z,38416,0.08299093,-0.094507664,-0.046347562
1732440033400,2024-11-24T09:20:33.400Z,38418,0.08299093,-0.094507664,-0.046347562
1732440033418,2024-11-24T09:20:33.418Z,38436,0.11279563,-0.11652873,-0.066910654
1732440033422,2024-11-24T09:20:33.422Z,38440,0.11279563,-0.11652873,-0.066910654
1732440033432,2024-11-24T09:20:33.432Z,38450,0.14431836,-0.09201433,-0.09062985
1732440033435,2024-11-24T09:20:33.435Z,38453,0.14431836,-0.09201433,-0.09062985
1732440033444,2024-11-24T09:20:33.444Z,38462,0.12690929,-0.08982412,-0.08737222
1732440033447,2024-11-24T09:20:33.447Z,38465,0.12690929,-0.08982412,-0.08737222
1732440033463,2024-11-24T09:20:33.463Z,38481,0.13014801,-0.108240016,-0.11114196
1732440033466,2024-11-24T09:20:33.466Z,38484,0.13014801,-0.108240016,-0.11114196
1732440033475,2024-11-24T09:20:33.475Z,38493,0.17261377,-0.11039677,-0.045104183
1732440033478,2024-11-24T09:20:33.478Z,38496,0.17261377,-0.11039677,-0.045104183
1732440033485,2024-11-24T09:20:33.485Z,38503,0.1367678,-0.080286354,-0.04040471
1732440033488,2024-11-24T09:20:33.488Z,38506,0.1367678,-0.080286354,-0.04040471
1732440033512,2024-11-24T09:20:33.512Z,38530,0.13810617,-0.088063546,-0.062470414
1732440033518,2024-11-24T09:20:33.518Z,38536,0.13810617,-0.088063546,-0.062470414
1732440033536,2024-11-24T09:20:33.536Z,38554,0.121861696,-0.048113696,-0.14751162
1732440033540,2024-11-24T09:20:33.540Z,38558,0.121861696,-0.048113696,-0.14751162
1732440033548,2024-11-24T09:20:33.548Z,38566,0.13721412,-0.06554545,-0.11331834
1732440033551,2024-11-24T09:20:33.551Z,38569,0.13721412,-0.06554545,-0.11331834
1732440033564,2024-11-24T09:20:33.564Z,38582,0.14988291,-0.07268946,-0.10072472
1732440033568,2024-11-24T09:20:33.568Z,38586,0.14988291,-0.07268946,-0.10072472
1732440033576,2024-11-24T09:20:33.576Z,38594,0.19706464,-0.088510394,-0.115647435
1732440033579,2024-11-24T09:20:33.579Z,38597,0.19706464,-0.088510394,-0.115647435
1732440033586,2024-11-24T09:20:33.586Z,38604,0.1427144,-0.06541572,-0.10921597
1732440033588,2024-11-24T09:20:33.588Z,38606,0.1427144,-0.06541572,-0.10921597
1732440033597,2024-11-24T09:20:33.597Z,38615,0.14713149,-0.03402746,-0.08175184
1732440033599,2024-11-24T09:20:33.599Z,38617,0.14713149,-0.03402746,-0.08175184
1732440033607,2024-11-24T09:20:33.607Z,38625,0.19240859,-0.054314792,-0.095468104
1732440033609,2024-11-24T09:20:33.609Z,38627,0.19240859,-0.054314792,-0.095468104
1732440033617,2024-11-24T09:20:33.617Z,38635,0.15893501,-0.06060351,-0.12942414
1732440033619,2024-11-24T09:20:33.619Z,38637,0.15893501,-0.06060351,-0.12942414
1732440033642,2024-11-24T09:20:33.642Z,38660,0.17432657,-0.077154584,-0.10557658
1732440033644,2024-11-24T09:20:33.644Z,38662,0.17432657,-0.077154584,-0.10557658
1732440033651,2024-11-24T09:20:33.651Z,38669,0.19465807,-0.056052513,-0.057387117
1732440033653,2024-11-24T09:20:33.653Z,38671,0.19465807,-0.056052513,-0.057387117
1732440033661,2024-11-24T09:20:33.661Z,38679,0.1945197,-0.022503704,-0.120743446
1732440033664,2024-11-24T09:20:33.664Z,38682,0.1945197,-0.022503704,-0.120743446
1732440033686,2024-11-24T09:20:33.686Z,38704,0.22887541,-0.029861078,-0.061718676
1732440033689,2024-11-24T09:20:33.689Z,38707,0.22887541,-0.029861078,-0.061718676
1732440033699,2024-11-24T09:20:33.699Z,38717,0.17886724,0.00896585,-0.1823565
1732440033701,2024-11-24T09:20:33.701Z,38719,0.17886724,0.00896585,-0.1823565
1732440033711,2024-11-24T09:20:33.711Z,38729,0.27040544,-0.037304126,-0.11116768
1732440033713,2024-11-24T09:20:33.713Z,38731,0.27040544,-0.037304126,-0.11116768
1732440033734,2024-11-24T09:20:33.734Z,38752,0.24235164,-0.021980511,-0.09907529
1732440033736,2024-11-24T09:20:33.736Z,38754,0.24235164,-0.021980511,-0.09907529
1732440033745,2024-11-24T09:20:33.745Z,38763,0.18388276,0.004983362,-0.08016375
1732440033747,2024-11-24T09:20:33.747Z,38765,0.18388276,0.004983362,-0.08016375
1732440033756,2024-11-24T09:20:33.756Z,38774,0.22261009,-0.014232397,-0.03252248
1732440033760,2024-11-24T09:20:33.760Z,38778,0.22261009,-0.014232397,-0.03252248
1732440033781,2024-11-24T09:20:33.781Z,38799,0.22426121,0.0075978665,-0.10327367
1732440033786,2024-11-24T09:20:33.786Z,38804,0.22426121,0.0075978665,-0.10327367
1732440033802,2024-11-24T09:20:33.802Z,38820,0.27403083,0.008429821,-0.11977697
1732440033808,2024-11-24T09:20:33.808Z,38826,0.27403083,0.008429821,-0.11977697
1732440033826,2024-11-24T09:20:33.826Z,38844,0.24101806,0.003252936,-0.07941679
1732440033830,2024-11-24T09:20:33.830Z,38848,0.24101806,0.003252936,-0.07941679
1732440033841,2024-11-24T09:20:33.841Z,38859,0.20135032,0.016297841,-0.0547837
1732440033844,2024-11-24T09:20:33.844Z,38862,0.20135032,0.016297841,-0.0547837
1732440033856,2024-11-24T09:20:33.856Z,38874,0.24654387,-0.023348885,-0.08206805
1732440033860,2024-11-24T09:20:33.860Z,38878,0.24654387,-0.023348885,-0.08206805
1732440033873,2024-11-24T09:20:33.873Z,38891,0.18269986,0.0031237912,-0.09808407
1732440033878,2024-11-24T09:20:33.878Z,38896,0.18269986,0.0031237912,-0.09808407
1732440033893,2024-11-24T09:20:33.893Z,38911,0.20913064,-0.0015001432,0.04304213
1732440033899,2024-11-24T09:20:33.899Z,38917,0.20913064,-0.0015001432,0.04304213
1732440033912,2024-11-24T09:20:33.912Z,38930,0.21791485,0.0075388374,-0.08669427
1732440033916,2024-11-24T09:20:33.916Z,38934,0.21791485,0.0075388374,-0.08669427
1732440033926,2024-11-24T09:20:33.926Z,38944,0.16456605,0.053329673,-0.070638865
1732440033929,2024-11-24T09:20:33.929Z,38947,0.16456605,0.053329673,-0.070638865
1732440033939,2024-11-24T09:20:33.939Z,38957,0.16850454,0.057639305,-0.027572038
1732440033941,2024-11-24T09:20:33.941Z,38959,0.16850454,0.057639305,-0.027572038
1732440033950,2024-11-24T09:20:33.950Z,38968,0.2363855,0.030943057,-0.09580254
1732440033953,2024-11-24T09:20:33.953Z,38971,0.2363855,0.030943057,-0.09580254
1732440033961,2024-11-24T09:20:33.961Z,38979,0.19080944,0.04671411,-0.10947506
1732440033964,2024-11-24T09:20:33.964Z,38982,0.19080944,0.04671411,-0.10947506
1732440033971,2024-11-24T09:20:33.971Z,38989,0.17103264,0.042043008,-0.05591724
1732440033974,2024-11-24T09:20:33.974Z,38992,0.17103264,0.042043008,-0.05591724
1732440033982,2024-11-24T09:20:33.982Z,39000,0.18467231,0.036794547,-0.013226345
1732440033984,2024-11-24T09:20:33.984Z,39002,0.18467231,0.036794547,-0.013226345
1732440033991,2024-11-24T09:20:33.991Z,39009,0.1561952,0.10329992,-0.074085034
1732440033993,2024-11-24T09:20:33.993Z,39011,0.1561952,0.10329992,-0.074085034
1732440034004,2024-11-24T09:20:34.004Z,39022,0.16155723,0.07564171,-0.10366611
1732440034008,2024-11-24T09:20:34.008Z,39026,0.16155723,0.07564171,-0.10366611
1732440034021,2024-11-24T09:20:34.021Z,39039,0.16572188,0.11161193,-0.070432365
1732440034026,2024-11-24T09:20:34.026Z,39044,0.16572188,0.11161193,-0.070432365
1732440034042,2024-11-24T09:20:34.042Z,39060,0.16441849,0.114310846,-0.06445646
1732440034048,2024-11-24T09:20:34.048Z,39066,0.16441849,0.114310846,-0.06445646
1732440034064,2024-11-24T09:20:34.064Z,39082,0.13915603,0.08585592,-0.14622164
1732440034069,2024-11-24T09:20:34.069Z,39087,0.13915603,0.08585592,-0.14622164
1732440034087,2024-11-24T09:20:34.087Z,39105,0.13766123,0.07745032,-0.06919513
1732440034095,2024-11-24T09:20:34.095Z,39113,0.13766123,0.07745032,-0.06919513
1732440034111,2024-11-24T09:20:34.111Z,39129,0.08559211,0.12380782,-0.090686314
1732440034116,2024-11-24T09:20:34.116Z,39134,0.08559211,0.12380782,-0.090686314
1732440034129,2024-11-24T09:20:34.129Z,39147,0.08988837,0.11395021,-0.090845704
1732440034133,2024-11-24T09:20:34.133Z,39151,0.08988837,0.11395021,-0.090845704
1732440034143,2024-11-24T09:20:34.143Z,39161,0.12342438,0.09390784,-0.13790353
1732440034146,2024-11-24T09:20:34.146Z,39164,0.12342438,0.09390784,-0.13790353
1732440034156,2024-11-24T09:20:34.156Z,39174,0.11496539,0.09354802,-0.0076185805
1732440034160,2024-11-24T09:20:34.160Z,39178,0.11496539,0.09354802,-0.0076185805
1732440034170,2024-11-24T09:20:34.170Z,39188,0.052393664,0.17667523,-0.055728897
1732440034173,2024-11-24T09:20:34.173Z,39191,0.052393664,0.17667523,-0.055728897
1732440034188,2024-11-24T09:20:34.188Z,39206,0.1570587,0.112561114,-0.088309675
1732440034191,2024-11-24T09:20:34.191Z,39209,0.1570587,0.112561114,-0.088309675
1732440034199,2024-11-24T09:20:34.199Z,39217,0.02471062,0.14215077,-0.12560512
1732440034202,2024-11-24T09:20:34.202Z,39220,0.02471062,0.14215077,-0.12560512
1732440034209,2024-11-24T09:20:34.209Z,39227,0.0060869534,0.12278953,-0.11962252
1732440034212,2024-11-24T09:20:34.212Z,39230,0.0060869534,0.12278953,-0.11962252
1732440034232,2024-11-24T09:20:34.232Z,39250,0.081791915,0.11276038,-0.07205866
1732440034238,2024-11-24T09:20:34.238Z,39256,0.081791915,0.11276038,-0.07205866
1732440034258,2024-11-24T09:20:34.258Z,39276,0.09195104,0.1417257,-0.11805007
1732440034263,2024-11-24T09:20:34.263Z,39281,0.09195104,0.1417257,-0.11805007
1732440034283,2024-11-24T09:20:34.283Z,39301,0.0590016,0.12285965,-0.18114431
1732440034286,2024-11-24T09:20:34.286Z,39304,0.0590016,0.12285965,-0.18114431
1732440034299,2024-11-24T09:20:34.299Z,39317,-0.012011868,0.10717593,-0.042863864
1732440034303,2024-11-24T09:20:34.303Z,39321,-0.012011868,0.10717593,-0.042863864
1732440034314,2024-11-24T09:20:34.314Z,39332,-0.029113607,0.11646328,-0.0010015664
1732440034318,2024-11-24T09:20:34.318Z,39336,-0.029113607,0.11646328,-0.0010015664
1732440034330,2024-11-24T09:20:34.330Z,39348,-0.022511095,0.0928314,-0.11015621
1732440034333,2024-11-24T09:20:34.333Z,39351,-0.022511095,0.0928314,-0.11015621
1732440034344,2024-11-24T09:20:34.344Z,39362,0.0364827,0.080557674,-0.047067832
1732440034347,2024-11-24T09:20:34.347Z,39365,0.0364827,0.080557674,-0.047067832
1732440034356,2024-11-24T09:20:34.356Z,39374,0.05227062,0.1022725,-0.07725041
1732440034359,2024-11-24T09:20:34.359Z,39377,0.05227062,0.1022725,-0.07725041
1732440034368,2024-11-24T09:20:34.368Z,39386,4.965225E-4,0.09308201,-0.04517165
1732440034370,2024-11-24T09:20:34.370Z,39388,4.965225E-4,0.09308201,-0.04517165
1732440034378,2024-11-24T09:20:34.378Z,39396,0.047155175,0.06474928,-0.045240574
1732440034380,2024-11-24T09:20:34.380Z,39398,0.047155175,0.06474928,-0.045240574
1732440034387,2024-11-24T09:20:34.387Z,39405,0.044528075,0.0557774,-0.040629014
1732440034389,2024-11-24T09:20:34.389Z,39407,0.044528075,0.0557774,-0.040629014
1732440034397,2024-11-24T09:20:34.397Z,39415,0.007736469,0.05648439,-0.03951424
1732440034401,2024-11-24T09:20:34.401Z,39419,0.007736469,0.05648439,-0.03951424
1732440034455,2024-11-24T09:20:34.455Z,39473,-0.018264385,0.04520278,-0.09989303
1732440034458,2024-11-24T09:20:34.458Z,39476,-0.018264385,0.04520278,-0.09989303
1732440034469,2024-11-24T09:20:34.469Z,39487,0.033313543,1.7553213E-4,-0.057385135
1732440034472,2024-11-24T09:20:34.472Z,39490,0.033313543,1.7553213E-4,-0.057385135
1732440034485,2024-11-24T09:20:34.485Z,39503,0.022681668,0.020190764,0.007857239
1732440034492,2024-11-24T09:20:34.492Z,39510,0.022681668,0.020190764,0.007857239
1732440034517,2024-11-24T09:20:34.517Z,39535,0.0045028366,0.01148797,-0.030355036
1732440034522,2024-11-24T09:20:34.522Z,39540,0.0045028366,0.01148797,-0.030355036
1732440034541,2024-11-24T09:20:34.541Z,39559,9.615854E-4,-0.003148881,-0.068144634
1732440034548,2024-11-24T09:20:34.548Z,39566,9.615854E-4,-0.003148881,-0.068144634
1732440034567,2024-11-24T09:20:34.567Z,39585,0.026062947,-0.03482246,-0.052728076
1732440034572,2024-11-24T09:20:34.572Z,39590,0.026062947,-0.03482246,-0.052728076
1732440034592,2024-11-24T09:20:34.592Z,39610,0.012744994,-0.01899598,0.015258483
1732440034597,2024-11-24T09:20:34.597Z,39615,0.012744994,-0.01899598,0.015258483
1732440034617,2024-11-24T09:20:34.617Z,39635,0.0023965484,-0.024825202,-0.021001702
1732440034623,2024-11-24T09:20:34.623Z,39641,0.0023965484,-0.024825202,-0.021001702
1732440034643,2024-11-24T09:20:34.643Z,39661,0.06684375,-0.040955488,0.0050208024
1732440034648,2024-11-24T09:20:34.648Z,39666,0.06684375,-0.040955488,0.0050208024
1732440034669,2024-11-24T09:20:34.669Z,39687,0.034376193,0.010805291,0.010477773
1732440034675,2024-11-24T09:20:34.675Z,39693,0.034376193,0.010805291,0.010477773
1732440034694,2024-11-24T09:20:34.694Z,39712,0.028181804,-0.0051598665,-0.024181422
1732440034700,2024-11-24T09:20:34.700Z,39718,0.028181804,-0.0051598665,-0.024181422
1732440034719,2024-11-24T09:20:34.719Z,39737,0.0022497773,-0.021516154,-0.03682912
1732440034725,2024-11-24T09:20:34.725Z,39743,0.0022497773,-0.021516154,-0.03682912
1732440034747,2024-11-24T09:20:34.747Z,39765,-0.0017254176,-0.023071826,-0.0131233
1732440034753,2024-11-24T09:20:34.753Z,39771,-0.0017254176,-0.023071826,-0.0131233
1732440034775,2024-11-24T09:20:34.775Z,39793,0.025759608,-0.020256115,0.005963327
1732440034781,2024-11-24T09:20:34.781Z,39799,0.025759608,-0.020256115,0.005963327
1732440034802,2024-11-24T09:20:34.802Z,39820,0.030431313,-0.0038985636,-0.026403727
1732440034809,2024-11-24T09:20:34.809Z,39827,0.030431313,-0.0038985636,-0.026403727
1732440034824,2024-11-24T09:20:34.824Z,39842,0.05264257,0.006752687,-0.05789954
1732440034829,2024-11-24T09:20:34.829Z,39847,0.05264257,0.006752687,-0.05789954
1732440034840,2024-11-24T09:20:34.840Z,39858,0.06097196,-0.015262154,-0.062445126
1732440034844,2024-11-24T09:20:34.844Z,39862,0.06097196,-0.015262154,-0.062445126
1732440034855,2024-11-24T09:20:34.855Z,39873,0.010905772,-0.012568197,-0.020325003
1732440034859,2024-11-24T09:20:34.859Z,39877,0.010905772,-0.012568197,-0.020325003
1732440034870,2024-11-24T09:20:34.870Z,39888,0.025326174,-0.005179705,-0.030527674
1732440034873,2024-11-24T09:20:34.873Z,39891,0.025326174,-0.005179705,-0.030527674
1732440034882,2024-11-24T09:20:34.882Z,39900,0.03603434,-0.025097204,-0.012604714
1732440034885,2024-11-24T09:20:34.885Z,39903,0.03603434,-0.025097204,-0.012604714
1732440034893,2024-11-24T09:20:34.893Z,39911,0.02028884,0.016388575,-0.0045007095
1732440034896,2024-11-24T09:20:34.896Z,39914,0.02028884,0.016388575,-0.0045007095
1732440034904,2024-11-24T09:20:34.904Z,39922,0.027837936,0.0075012026,-0.082986675
1732440034906,2024-11-24T09:20:34.906Z,39924,0.027837936,0.0075012026,-0.082986675
1732440034915,2024-11-24T09:20:34.915Z,39933,0.06316669,-0.045304015,-0.0902367
1732440034917,2024-11-24T09:20:34.917Z,39935,0.06316669,-0.045304015,-0.0902367
1732440034925,2024-11-24T09:20:34.925Z,39943,0.017744815,0.013336843,-0.015433042
1732440034927,2024-11-24T09:20:34.927Z,39945,0.017744815,0.013336843,-0.015433042
1732440034940,2024-11-24T09:20:34.940Z,39958,0.04304269,-0.0047201123,-0.015328574
1732440034944,2024-11-24T09:20:34.944Z,39962,0.04304269,-0.0047201123,-0.015328574
1732440034952,2024-11-24T09:20:34.952Z,39970,0.014229529,0.013291623,-0.05313102
1732440034955,2024-11-24T09:20:34.955Z,39973,0.014229529,0.013291623,-0.05313102
1732440034963,2024-11-24T09:20:34.963Z,39981,0.029975003,-0.008757449,-0.052146256
1732440034965,2024-11-24T09:20:34.965Z,39983,0.029975003,-0.008757449,-0.052146256
1732440034973,2024-11-24T09:20:34.973Z,39991,0.026826099,-0.03318549,-0.06850923
1732440034975,2024-11-24T09:20:34.975Z,39993,0.026826099,-0.03318549,-0.06850923
1732440034984,2024-11-24T09:20:34.984Z,40002,-0.007995075,-0.023695184,-0.07721567
1732440034986,2024-11-24T09:20:34.986Z,40004,-0.007995075,-0.023695184,-0.07721567
1732440034997,2024-11-24T09:20:34.997Z,40015,0.011520086,-0.047909476,-0.04761896
1732440035002,2024-11-24T09:20:35.002Z,40020,0.011520086,-0.047909476,-0.04761896
1732440035017,2024-11-24T09:20:35.017Z,40035,-0.0010238969,-0.03061679,-0.021239739
1732440035022,2024-11-24T09:20:35.022Z,40040,-0.0010238969,-0.03061679,-0.021239739
1732440035032,2024-11-24T09:20:35.032Z,40050,0.032151382,0.0059048813,-0.039643638
1732440035035,2024-11-24T09:20:35.035Z,40053,0.032151382,0.0059048813,-0.039643638
1732440035044,2024-11-24T09:20:35.044Z,40062,0.037174154,-0.0023413359,-0.050887093
1732440035047,2024-11-24T09:20:35.047Z,40065,0.037174154,-0.0023413359,-0.050887093
1732440035055,2024-11-24T09:20:35.055Z,40073,0.0065698125,0.019140782,-0.019391863
1732440035058,2024-11-24T09:20:35.058Z,40076,0.0065698125,0.019140782,-0.019391863
1732440035066,2024-11-24T09:20:35.066Z,40084,0.039569583,0.008848861,-0.039192166
1732440035069,2024-11-24T09:20:35.069Z,40087,0.039569583,0.008848861,-0.039192166
1732440035076,2024-11-24T09:20:35.076Z,40094,0.03975083,0.012711055,-0.06416554
1732440035079,2024-11-24T09:20:35.079Z,40097,0.03975083,0.012711055,-0.06416554
1732440035087,2024-11-24T09:20:35.087Z,40105,0.086653136,-0.007315751,-0.03682945
1732440035089,2024-11-24T09:20:35.089Z,40107,0.086653136,-0.007315751,-0.03682945
1732440035096,2024-11-24T09:20:35.096Z,40114,0.08582184,0.043007217,-0.0053640017
1732440035098,2024-11-24T09:20:35.098Z,40116,0.08582184,0.043007217,-0.0053640017
1732440035108,2024-11-24T09:20:35.108Z,40126,0.046010837,0.031707425,-0.119343564
1732440035113,2024-11-24T09:20:35.113Z,40131,0.046010837,0.031707425,-0.119343564
1732440035128,2024-11-24T09:20:35.128Z,40146,0.07148794,-0.025466649,-0.07697257
1732440035130,2024-11-24T09:20:35.130Z,40148,0.07148794,-0.025466649,-0.07697257
1732440035139,2024-11-24T09:20:35.139Z,40157,0.04930172,-0.00888387,-0.025682926
1732440035141,2024-11-24T09:20:35.141Z,40159,0.04930172,-0.00888387,-0.025682926
1732440035149,2024-11-24T09:20:35.149Z,40167,0.075746365,-0.038607538,0.034716
1732440035151,2024-11-24T09:20:35.151Z,40169,0.075746365,-0.038607538,0.034716
1732440035159,2024-11-24T09:20:35.159Z,40177,0.061507355,-0.02622946,0.018156793
1732440035162,2024-11-24T09:20:35.162Z,40180,0.061507355,-0.02622946,0.018156793
1732440035170,2024-11-24T09:20:35.170Z,40188,0.053956218,-4.4257435E-4,-0.032489173
1732440035172,2024-11-24T09:20:35.172Z,40190,0.053956218,-4.4257435E-4,-0.032489173
1732440035179,2024-11-24T09:20:35.179Z,40197,0.059233703,-0.028666487,-0.13438334
1732440035182,2024-11-24T09:20:35.182Z,40200,0.059233703,-0.028666487,-0.13438334
1732440035189,2024-11-24T09:20:35.189Z,40207,0.052852333,-0.0452409,-0.09833222
1732440035191,2024-11-24T09:20:35.191Z,40209,0.052852333,-0.0452409,-0.09833222
1732440035201,2024-11-24T09:20:35.201Z,40219,0.0740942,-0.032995857,-0.031247623
1732440035203,2024-11-24T09:20:35.203Z,40221,0.0740942,-0.032995857,-0.031247623
1732440035209,2024-11-24T09:20:35.209Z,40227,0.039700795,-0.020577421,0.006123336
1732440035212,2024-11-24T09:20:35.212Z,40230,0.039700795,-0.020577421,0.006123336
1732440035219,2024-11-24T09:20:35.219Z,40237,0.05702618,-0.020953478,-0.018734127
1732440035221,2024-11-24T09:20:35.221Z,40239,0.05702618,-0.020953478,-0.018734127
1732440035227,2024-11-24T09:20:35.227Z,40245,0.04924651,-0.016536683,-0.040665664
1732440035230,2024-11-24T09:20:35.230Z,40248,0.04924651,-0.016536683,-0.040665664
1732440035237,2024-11-24T09:20:35.237Z,40255,0.06423066,-0.0012578019,-0.10039028
1732440035239,2024-11-24T09:20:35.239Z,40257,0.06423066,-0.0012578019,-0.10039028
1732440035248,2024-11-24T09:20:35.248Z,40266,0.09737975,-0.031800296,-0.12102229
1732440035250,2024-11-24T09:20:35.250Z,40268,0.09737975,-0.031800296,-0.12102229
1732440035257,2024-11-24T09:20:35.257Z,40275,0.1181268,-0.021753147,-0.022029694
1732440035259,2024-11-24T09:20:35.259Z,40277,0.1181268,-0.021753147,-0.022029694
1732440035271,2024-11-24T09:20:35.271Z,40289,0.091408744,0.03086273,-0.022003694
1732440035277,2024-11-24T09:20:35.277Z,40295,0.091408744,0.03086273,-0.022003694
1732440035294,2024-11-24T09:20:35.294Z,40312,0.08084168,0.05290227,-0.018661484
1732440035299,2024-11-24T09:20:35.299Z,40317,0.08084168,0.05290227,-0.018661484
1732440035315,2024-11-24T09:20:35.315Z,40333,0.08345942,0.070834555,-0.042468954
1732440035318,2024-11-24T09:20:35.318Z,40336,0.08345942,0.070834555,-0.042468954
1732440035357,2024-11-24T09:20:35.357Z,40375,0.079507396,0.050421383,-0.11283978
1732440035363,2024-11-24T09:20:35.363Z,40381,0.079507396,0.050421383,-0.11283978
1732440035381,2024-11-24T09:20:35.381Z,40399,0.1093809,0.014157614,-0.17363523
1732440035385,2024-11-24T09:20:35.385Z,40403,0.1093809,0.014157614,-0.17363523
1732440035399,2024-11-24T09:20:35.399Z,40417,0.14232914,-0.019625464,-0.09637094
1732440035405,2024-11-24T09:20:35.405Z,40423,0.14232914,-0.019625464,-0.09637094
1732440035426,2024-11-24T09:20:35.426Z,40444,0.08710974,-0.0072012907,-0.09891431
1732440035432,2024-11-24T09:20:35.432Z,40450,0.08710974,-0.0072012907,-0.09891431
1732440035453,2024-11-24T09:20:35.453Z,40471,0.088269755,-0.021697132,-0.08597781
1732440035458,2024-11-24T09:20:35.458Z,40476,0.088269755,-0.021697132,-0.08597781
1732440035489,2024-11-24T09:20:35.489Z,40507,0.07903195,0.005800826,-0.016661474
1732440035492,2024-11-24T09:20:35.492Z,40510,0.07903195,0.005800826,-0.016661474
1732440035504,2024-11-24T09:20:35.504Z,40522,0.061106257,0.06340512,-0.024431033
1732440035510,2024-11-24T09:20:35.510Z,40528,0.061106257,0.06340512,-0.024431033
1732440035520,2024-11-24T09:20:35.520Z,40538,0.025034795,0.041065086,0.017626064
1732440035522,2024-11-24T09:20:35.522Z,40540,0.025034795,0.041065086,0.017626064
1732440035530,2024-11-24T09:20:35.530Z,40548,0.04603004,0.022569638,-0.020640852
1732440035533,2024-11-24T09:20:35.533Z,40551,0.04603004,0.022569638,-0.020640852
1732440035541,2024-11-24T09:20:35.541Z,40559,0.04802182,0.05219742,0.004006375
1732440035543,2024-11-24T09:20:35.543Z,40561,0.04802182,0.05219742,0.004006375
1732440035551,2024-11-24T09:20:35.551Z,40569,0.15045723,0.07579701,-0.14691803
1732440035553,2024-11-24T09:20:35.553Z,40571,0.15045723,0.07579701,-0.14691803
1732440035560,2024-11-24T09:20:35.560Z,40578,0.15912838,0.011490012,-0.26547426
1732440035563,2024-11-24T09:20:35.563Z,40581,0.15912838,0.011490012,-0.26547426
1732440035578,2024-11-24T09:20:35.578Z,40596,0.18252586,0.006936485,-0.04625816
1732440035581,2024-11-24T09:20:35.581Z,40599,0.18252586,0.006936485,-0.04625816
1732440035588,2024-11-24T09:20:35.588Z,40606,0.1540474,-0.022337897,-0.07664591
1732440035590,2024-11-24T09:20:35.590Z,40608,0.1540474,-0.022337897,-0.07664591
1732440035598,2024-11-24T09:20:35.598Z,40616,0.06647951,-0.010570632,-0.060821638
1732440035601,2024-11-24T09:20:35.601Z,40619,0.06647951,-0.010570632,-0.060821638
1732440035623,2024-11-24T09:20:35.623Z,40641,0.045790933,-0.0064993566,-0.067026444
1732440035625,2024-11-24T09:20:35.625Z,40643,0.045790933,-0.0064993566,-0.067026444
1732440035635,2024-11-24T09:20:35.635Z,40653,0.058841117,-0.010097522,-0.103515804
1732440035637,2024-11-24T09:20:35.637Z,40655,0.058841117,-0.010097522,-0.103515804
1732440035646,2024-11-24T09:20:35.646Z,40664,0.09075522,-0.030683307,-0.15481746
1732440035649,2024-11-24T09:20:35.649Z,40667,0.09075522,-0.030683307,-0.15481746
1732440035669,2024-11-24T09:20:35.669Z,40687,0.06575344,-0.0073171128,-0.020684527
1732440035672,2024-11-24T09:20:35.672Z,40690,0.06575344,-0.0073171128,-0.020684527
1732440035683,2024-11-24T09:20:35.683Z,40701,0.044564445,-0.0011554974,-0.07832206
1732440035685,2024-11-24T09:20:35.685Z,40703,0.044564445,-0.0011554974,-0.07832206
1732440035694,2024-11-24T09:20:35.694Z,40712,0.032183744,0.012811511,-0.07352634
1732440035697,2024-11-24T09:20:35.697Z,40715,0.032183744,0.012811511,-0.07352634
1732440035713,2024-11-24T09:20:35.713Z,40731,0.057558347,0.022177828,-0.04167332
1732440035716,2024-11-24T09:20:35.716Z,40734,0.057558347,0.022177828,-0.04167332
1732440035725,2024-11-24T09:20:35.725Z,40743,0.086773865,-0.009621105,-0.12897366
1732440035728,2024-11-24T09:20:35.728Z,40746,0.086773865,-0.009621105,-0.12897366
1732440035736,2024-11-24T09:20:35.736Z,40754,0.11884133,-0.020670392,-0.08422345
1732440035739,2024-11-24T09:20:35.739Z,40757,0.11884133,-0.020670392,-0.08422345
1732440035758,2024-11-24T09:20:35.758Z,40776,0.037703134,0.01570074,-0.07486673
1732440035761,2024-11-24T09:20:35.761Z,40779,0.037703134,0.01570074,-0.07486673
1732440035772,2024-11-24T09:20:35.772Z,40790,0.026683265,0.019494958,-0.11062977
1732440035774,2024-11-24T09:20:35.774Z,40792,0.026683265,0.019494958,-0.11062977
1732440035784,2024-11-24T09:20:35.784Z,40802,0.086325705,-0.017218681,-0.09096122
1732440035786,2024-11-24T09:20:35.786Z,40804,0.086325705,-0.017218681,-0.09096122
1732440035803,2024-11-24T09:20:35.803Z,40821,0.012869714,-0.016933938,-0.084466584
1732440035805,2024-11-24T09:20:35.805Z,40823,0.012869714,-0.016933938,-0.084466584
1732440035848,2024-11-24T09:20:35.848Z,40866,0.07065815,-0.036246363,-0.0462886
1732440035851,2024-11-24T09:20:35.851Z,40869,0.07065815,-0.036246363,-0.0462886
1732440035861,2024-11-24T09:20:35.861Z,40879,0.04229094,-0.008085953,-0.036892585
1732440035863,2024-11-24T09:20:35.863Z,40881,0.04229094,-0.008085953,-0.036892585
1732440035946,2024-11-24T09:20:35.946Z,40964,0.060791858,0.056239814,-0.0631138
1732440035952,2024-11-24T09:20:35.952Z,40970,0.060791858,0.056239814,-0.0631138
1732440035970,2024-11-24T09:20:35.970Z,40988,0.061584376,0.06539549,-0.068198584
1732440035975,2024-11-24T09:20:35.975Z,40993,0.061584376,0.06539549,-0.068198584
1732440035988,2024-11-24T09:20:35.988Z,41006,0.07278145,0.029538507,-0.13768527
1732440035991,2024-11-24T09:20:35.991Z,41009,0.07278145,0.029538507,-0.13768527
1732440036003,2024-11-24T09:20:36.003Z,41021,0.10001356,-0.011412019,-0.026227199
1732440036006,2024-11-24T09:20:36.006Z,41024,0.10001356,-0.011412019,-0.026227199
1732440036016,2024-11-24T09:20:36.016Z,41034,0.052273903,0.0031238883,0.04385912
1732440036019,2024-11-24T09:20:36.019Z,41037,0.052273903,0.0031238883,0.04385912
1732440036029,2024-11-24T09:20:36.029Z,41047,0.064158425,0.018616714,-0.09476982
1732440036032,2024-11-24T09:20:36.032Z,41050,0.064158425,0.018616714,-0.09476982
1732440036041,2024-11-24T09:20:36.041Z,41059,0.06264744,-0.014687031,-0.10064977
1732440036044,2024-11-24T09:20:36.044Z,41062,0.06264744,-0.014687031,-0.10064977
1732440036053,2024-11-24T09:20:36.053Z,41071,0.06923084,-0.017621772,-0.029994452
1732440036055,2024-11-24T09:20:36.055Z,41073,0.06923084,-0.017621772,-0.029994452
1732440036074,2024-11-24T09:20:36.074Z,41092,0.1379929,0.0014465598,-0.1080004
1732440036077,2024-11-24T09:20:36.077Z,41095,0.1379929,0.0014465598,-0.1080004
1732440036169,2024-11-24T09:20:36.169Z,41187,0.11886552,0.006650382,-0.1192495
1732440036176,2024-11-24T09:20:36.176Z,41194,0.11886552,0.006650382,-0.1192495
1732440036211,2024-11-24T09:20:36.211Z,41229,0.045921974,0.025961736,-0.18753496
1732440036216,2024-11-24T09:20:36.216Z,41234,0.045921974,0.025961736,-0.18753496
1732440036236,2024-11-24T09:20:36.236Z,41254,0.10740118,-0.010011555,-0.06916349
1732440036241,2024-11-24T09:20:36.241Z,41259,0.10740118,-0.010011555,-0.06916349
1732440036259,2024-11-24T09:20:36.259Z,41277,0.07940193,-0.0254472,-0.011146971
1732440036264,2024-11-24T09:20:36.264Z,41282,0.07940193,-0.0254472,-0.011146971
1732440036285,2024-11-24T09:20:36.285Z,41303,0.078711376,-0.023654047,-0.0021249112
1732440036288,2024-11-24T09:20:36.288Z,41306,0.078711376,-0.023654047,-0.0021249112
1732440036301,2024-11-24T09:20:36.301Z,41319,0.09252549,0.014555066,-0.08334546
1732440036306,2024-11-24T09:20:36.306Z,41324,0.09252549,0.014555066,-0.08334546
1732440036319,2024-11-24T09:20:36.319Z,41337,0.064216144,0.0021120259,-0.13619226
1732440036323,2024-11-24T09:20:36.323Z,41341,0.064216144,0.0021120259,-0.13619226
1732440036349,2024-11-24T09:20:36.349Z,41367,0.045079958,-0.018728256,-0.024246493
1732440036355,2024-11-24T09:20:36.355Z,41373,0.045079958,-0.018728256,-0.024246493
1732440036372,2024-11-24T09:20:36.372Z,41390,0.08718763,-0.0379869,-0.0062473146
1732440036378,2024-11-24T09:20:36.378Z,41396,0.08718763,-0.0379869,-0.0062473146
1732440036393,2024-11-24T09:20:36.393Z,41411,0.060976967,-0.009326542,-0.0557239
1732440036397,2024-11-24T09:20:36.397Z,41415,0.060976967,-0.009326542,-0.0557239
1732440036409,2024-11-24T09:20:36.409Z,41427,0.051661924,-0.0016358038,-0.15911987
1732440036412,2024-11-24T09:20:36.412Z,41430,0.051661924,-0.0016358038,-0.15911987
1732440036425,2024-11-24T09:20:36.425Z,41443,0.15070024,-0.05946377,-0.09839845
1732440036429,2024-11-24T09:20:36.429Z,41447,0.15070024,-0.05946377,-0.09839845
1732440036436,2024-11-24T09:20:36.436Z,41454,0.1293928,-0.071272366,-0.0586858
1732440036438,2024-11-24T09:20:36.438Z,41456,0.1293928,-0.071272366,-0.0586858
1732440036446,2024-11-24T09:20:36.446Z,41464,0.06983463,-0.06963568,-0.2224877
1732440036448,2024-11-24T09:20:36.448Z,41466,0.06983463,-0.06963568,-0.2224877
1732440036456,2024-11-24T09:20:36.456Z,41474,0.12049257,-0.10442246,-0.075129546
1732440036458,2024-11-24T09:20:36.458Z,41476,0.12049257,-0.10442246,-0.075129546
1732440036476,2024-11-24T09:20:36.476Z,41494,0.018993694,-0.086855434,0.0052623656
