Timestamp (ms),ISO DateTime,Elapsed Time (ms),Acceleration X,Acceleration Y,Acceleration Z
1732435702895,2024-11-24T08:08:22.895Z,28470,-0.02316421,-0.08414096,-0.350811
1732435702902,2024-11-24T08:08:22.902Z,28477,-0.02316421,-0.08414096,-0.350811
1732435702924,2024-11-24T08:08:22.924Z,28499,-0.020125926,-0.08194637,-0.33428484
1732435702931,2024-11-24T08:08:22.931Z,28506,-0.020125926,-0.08194637,-0.33428484
1732435702949,2024-11-24T08:08:22.949Z,28524,-0.0127360225,-0.072135925,-0.32917607
1732435702953,2024-11-24T08:08:22.953Z,28528,-0.0127360225,-0.072135925,-0.32917607
1732435702968,2024-11-24T08:08:22.968Z,28543,-0.01895961,-0.06445676,-0.3295359
1732435702972,2024-11-24T08:08:22.972Z,28547,-0.01895961,-0.06445676,-0.3295359
1732435702985,2024-11-24T08:08:22.985Z,28560,-0.024623632,-0.063842446,-0.31449372
1732435702989,2024-11-24T08:08:22.989Z,28564,-0.024623632,-0.063842446,-0.31449372
1732435703002,2024-11-24T08:08:23.002Z,28577,-0.022410395,-0.05708762,-0.3103905
1732435703007,2024-11-24T08:08:23.007Z,28582,-0.022410395,-0.05708762,-0.3103905
1732435703025,2024-11-24T08:08:23.025Z,28600,-0.019250235,-0.0563815,-0.2977372
1732435703028,2024-11-24T08:08:23.028Z,28603,-0.019250235,-0.0563815,-0.2977372
1732435703041,2024-11-24T08:08:23.041Z,28616,-0.016105631,-0.05582826,-0.29305327
1732435703045,2024-11-24T08:08:23.045Z,28620,-0.016105631,-0.05582826,-0.29305327
1732435703057,2024-11-24T08:08:23.057Z,28632,-0.017893044,-0.05172246,-0.27207536
1732435703061,2024-11-24T08:08:23.061Z,28636,-0.017893044,-0.05172246,-0.27207536
1732435703073,2024-11-24T08:08:23.073Z,28648,-0.02464634,-0.050204325,-0.2608285
1732435703077,2024-11-24T08:08:23.077Z,28652,-0.02464634,-0.050204325,-0.2608285
1732435703088,2024-11-24T08:08:23.088Z,28663,-0.011224623,-0.05211223,-0.2608905
1732435703092,2024-11-24T08:08:23.092Z,28667,-0.011224623,-0.05211223,-0.2608905
1732435703104,2024-11-24T08:08:23.104Z,28679,-0.020948958,-0.05045513,-0.24439946
1732435703107,2024-11-24T08:08:23.107Z,28682,-0.020948958,-0.05045513,-0.24439946
1732435703118,2024-11-24T08:08:23.118Z,28693,-0.011329383,-0.04690899,-0.23277335
1732435703122,2024-11-24T08:08:23.122Z,28697,-0.011329383,-0.04690899,-0.23277335
1732435703135,2024-11-24T08:08:23.135Z,28710,-0.010462639,-0.045948572,-0.22430919
1732435703139,2024-11-24T08:08:23.139Z,28714,-0.010462639,-0.045948572,-0.22430919
1732435703153,2024-11-24T08:08:23.153Z,28728,0.0012070386,-0.033513214,-0.208856
1732435703157,2024-11-24T08:08:23.157Z,28732,0.0012070386,-0.033513214,-0.208856
1732435703172,2024-11-24T08:08:23.172Z,28747,-0.012861326,-0.032820813,-0.20493534
1732435703175,2024-11-24T08:08:23.175Z,28750,-0.012861326,-0.032820813,-0.20493534
1732435703187,2024-11-24T08:08:23.187Z,28762,-0.014645919,-0.035668418,-0.20120741
1732435703192,2024-11-24T08:08:23.192Z,28767,-0.014645919,-0.035668418,-0.20120741
1732435703206,2024-11-24T08:08:23.206Z,28781,-0.0017167625,-0.027296072,-0.180113
1732435703210,2024-11-24T08:08:23.210Z,28785,-0.0017167625,-0.027296072,-0.180113
1732435703222,2024-11-24T08:08:23.222Z,28797,0.0037680329,-0.024609799,-0.18392181
1732435703227,2024-11-24T08:08:23.227Z,28802,0.0037680329,-0.024609799,-0.18392181
1732435703241,2024-11-24T08:08:23.241Z,28816,-0.0025001415,-0.017599113,-0.17229286
1732435703245,2024-11-24T08:08:23.245Z,28820,-0.0025001415,-0.017599113,-0.17229286
1732435703258,2024-11-24T08:08:23.258Z,28833,0.0017560263,-0.017340338,-0.1693999
1732435703263,2024-11-24T08:08:23.263Z,28838,0.0017560263,-0.017340338,-0.1693999
1732435703274,2024-11-24T08:08:23.274Z,28849,0.0073330128,-0.013753161,-0.16712232
1732435703279,2024-11-24T08:08:23.279Z,28854,0.0073330128,-0.013753161,-0.16712232
1732435703293,2024-11-24T08:08:23.293Z,28868,-0.0065356544,-0.019040227,-0.15228477
1732435703301,2024-11-24T08:08:23.301Z,28876,-0.0065356544,-0.019040227,-0.15228477
1732435703318,2024-11-24T08:08:23.318Z,28893,0.0015903648,-0.015379531,-0.13612223
1732435703322,2024-11-24T08:08:23.322Z,28897,0.0015903648,-0.015379531,-0.13612223
1732435703334,2024-11-24T08:08:23.334Z,28909,0.009224967,-0.020483188,-0.12369645
1732435703338,2024-11-24T08:08:23.338Z,28913,0.009224967,-0.020483188,-0.12369645
1732435703350,2024-11-24T08:08:23.350Z,28925,7.9373585E-4,-0.019341404,-0.114553384
1732435703354,2024-11-24T08:08:23.354Z,28929,7.9373585E-4,-0.019341404,-0.114553384
1732435703366,2024-11-24T08:08:23.366Z,28941,-0.007094707,-0.016442157,-0.11564253
1732435703370,2024-11-24T08:08:23.370Z,28945,-0.007094707,-0.016442157,-0.11564253
1732435703381,2024-11-24T08:08:23.381Z,28956,0.00852809,-0.016307566,-0.10955081
1732435703385,2024-11-24T08:08:23.385Z,28960,0.00852809,-0.016307566,-0.10955081
1732435703396,2024-11-24T08:08:23.396Z,28971,-0.0065210913,-0.013788559,-0.0972118
1732435703399,2024-11-24T08:08:23.399Z,28974,-0.0065210913,-0.013788559,-0.0972118
1732435703415,2024-11-24T08:08:23.415Z,28990,-0.0091160005,-0.016701322,-0.09239799
1732435703421,2024-11-24T08:08:23.421Z,28996,-0.0091160005,-0.016701322,-0.09239799
1732435703434,2024-11-24T08:08:23.434Z,29009,-0.012114756,-0.010485443,-0.08542626
1732435703438,2024-11-24T08:08:23.438Z,29013,-0.012114756,-0.010485443,-0.08542626
1732435703451,2024-11-24T08:08:23.451Z,29026,-0.008186945,-0.009160929,-0.10073549
1732435703455,2024-11-24T08:08:23.455Z,29030,-0.008186945,-0.009160929,-0.10073549
1732435703468,2024-11-24T08:08:23.468Z,29043,-0.0052692704,-0.0060172025,-0.08918543
1732435703471,2024-11-24T08:08:23.471Z,29046,-0.0052692704,-0.0060172025,-0.08918543
1732435703484,2024-11-24T08:08:23.484Z,29059,-5.123982E-4,-0.004212771,-0.08849369
1732435703488,2024-11-24T08:08:23.488Z,29063,-5.123982E-4,-0.004212771,-0.08849369
1732435703499,2024-11-24T08:08:23.499Z,29074,0.003068676,-0.013159366,-0.07746819
1732435703503,2024-11-24T08:08:23.503Z,29078,0.003068676,-0.013159366,-0.07746819
1732435703517,2024-11-24T08:08:23.517Z,29092,-0.010243369,-0.0057070795,-0.065168254
1732435703520,2024-11-24T08:08:23.520Z,29095,-0.010243369,-0.0057070795,-0.065168254
1732435703531,2024-11-24T08:08:23.531Z,29106,-0.008836948,-7.5026613E-4,-0.06656629
1732435703534,2024-11-24T08:08:23.534Z,29109,-0.008836948,-7.5026613E-4,-0.06656629
1732435703547,2024-11-24T08:08:23.547Z,29122,-0.0049887346,0.0041876812,-0.07053121
1732435703552,2024-11-24T08:08:23.552Z,29127,-0.0049887346,0.0041876812,-0.07053121
1732435703566,2024-11-24T08:08:23.566Z,29141,-0.0010389703,0.00920897,-0.0691821
1732435703570,2024-11-24T08:08:23.570Z,29145,-0.0010389703,0.00920897,-0.0691821
1732435703582,2024-11-24T08:08:23.582Z,29157,-0.0041770325,0.0058850427,-0.078508675
1732435703587,2024-11-24T08:08:23.587Z,29162,-0.0041770325,0.0058850427,-0.078508675
1732435703598,2024-11-24T08:08:23.598Z,29173,0.008196086,1.3585505E-4,-0.06891491
1732435703601,2024-11-24T08:08:23.601Z,29176,0.008196086,1.3585505E-4,-0.06891491
1732435703610,2024-11-24T08:08:23.610Z,29185,-0.012184287,-0.018276054,-0.05745264
1732435703613,2024-11-24T08:08:23.613Z,29188,-0.012184287,-0.018276054,-0.05745264
1732435703623,2024-11-24T08:08:23.623Z,29198,-0.007631563,-0.026522174,-0.053185813
1732435703627,2024-11-24T08:08:23.627Z,29202,-0.007631563,-0.026522174,-0.053185813
1732435703640,2024-11-24T08:08:23.640Z,29215,-0.008966094,-0.027453126,-0.049543288
1732435703644,2024-11-24T08:08:23.644Z,29219,-0.008966094,-0.027453126,-0.049543288
1732435703660,2024-11-24T08:08:23.660Z,29235,-0.021816527,-0.04598718,-0.037792765
1732435703669,2024-11-24T08:08:23.669Z,29244,-0.021816527,-0.04598718,-0.037792765
1732435703695,2024-11-24T08:08:23.695Z,29270,-0.0046612774,-0.049403396,-0.0410316
1732435703703,2024-11-24T08:08:23.703Z,29278,-0.0046612774,-0.049403396,-0.0410316
1732435703729,2024-11-24T08:08:23.729Z,29304,-0.022153053,-0.05925206,-0.044455286
1732435703736,2024-11-24T08:08:23.736Z,29311,-0.022153053,-0.05925206,-0.044455286
1732435703749,2024-11-24T08:08:23.749Z,29324,-0.02233972,-0.09421952,-0.040386494
1732435703753,2024-11-24T08:08:23.753Z,29328,-0.02233972,-0.09421952,-0.040386494
1732435703765,2024-11-24T08:08:23.765Z,29340,-0.038355786,-0.10149238,-0.039920814
1732435703771,2024-11-24T08:08:23.771Z,29346,-0.038355786,-0.10149238,-0.039920814
1732435703785,2024-11-24T08:08:23.785Z,29360,-0.03137615,-0.10490753,-0.03581446
1732435703788,2024-11-24T08:08:23.788Z,29363,-0.03137615,-0.10490753,-0.03581446
1732435703799,2024-11-24T08:08:23.799Z,29374,-0.06361965,-0.110872895,-0.017232623
1732435703803,2024-11-24T08:08:23.803Z,29378,-0.06361965,-0.110872895,-0.017232623
1732435703814,2024-11-24T08:08:23.814Z,29389,-0.047726773,-0.110947,-0.03435078
1732435703817,2024-11-24T08:08:23.817Z,29392,-0.047726773,-0.110947,-0.03435078
1732435703835,2024-11-24T08:08:23.835Z,29410,-0.04872174,-0.11443975,-0.02068767
1732435703843,2024-11-24T08:08:23.843Z,29418,-0.04872174,-0.11443975,-0.02068767
1732435703868,2024-11-24T08:08:23.868Z,29443,-0.06907843,-0.116885625,-0.021483114
1732435703873,2024-11-24T08:08:23.873Z,29448,-0.06907843,-0.116885625,-0.021483114
1732435703889,2024-11-24T08:08:23.889Z,29464,-0.056347124,-0.11924116,-0.017058877
1732435703894,2024-11-24T08:08:23.894Z,29469,-0.056347124,-0.11924116,-0.017058877
1732435703907,2024-11-24T08:08:23.907Z,29482,-0.05989533,-0.11583185,-0.026683478
1732435703911,2024-11-24T08:08:23.911Z,29486,-0.05989533,-0.11583185,-0.026683478
1732435703929,2024-11-24T08:08:23.929Z,29504,-0.06260735,-0.12298539,0.011392059
1732435703937,2024-11-24T08:08:23.937Z,29512,-0.06260735,-0.12298539,0.011392059
1732435703962,2024-11-24T08:08:23.962Z,29537,-0.03116269,-0.11940726,0.01176515
1732435703969,2024-11-24T08:08:23.969Z,29544,-0.03116269,-0.11940726,0.01176515
1732435703980,2024-11-24T08:08:23.980Z,29555,-0.050867725,-0.12715207,0.012860123
1732435703983,2024-11-24T08:08:23.983Z,29558,-0.050867725,-0.12715207,0.012860123
1732435703995,2024-11-24T08:08:23.995Z,29570,-0.050411854,-0.12275248,0.014720022
1732435704001,2024-11-24T08:08:24.001Z,29576,-0.050411854,-0.12275248,0.014720022
1732435704014,2024-11-24T08:08:24.014Z,29589,-0.05221636,-0.12150927,0.003971159
1732435704019,2024-11-24T08:08:24.019Z,29594,-0.05221636,-0.12150927,0.003971159
1732435704032,2024-11-24T08:08:24.032Z,29607,-0.04479021,-0.12248924,-0.0041314475
1732435704036,2024-11-24T08:08:24.036Z,29611,-0.04479021,-0.12248924,-0.0041314475
1732435704049,2024-11-24T08:08:24.049Z,29624,-0.033402376,-0.14057109,-0.010051342
1732435704053,2024-11-24T08:08:24.053Z,29628,-0.033402376,-0.14057109,-0.010051342
1732435704064,2024-11-24T08:08:24.064Z,29639,-0.024032973,-0.13195075,0.0054197367
1732435704068,2024-11-24T08:08:24.068Z,29643,-0.024032973,-0.13195075,0.0054197367
1732435704077,2024-11-24T08:08:24.077Z,29652,-0.021048928,-0.1430014,0.05785963
1732435704081,2024-11-24T08:08:24.081Z,29656,-0.021048928,-0.1430014,0.05785963
1732435704092,2024-11-24T08:08:24.092Z,29667,0.010599563,-0.14576119,0.08073706
1732435704096,2024-11-24T08:08:24.096Z,29671,0.010599563,-0.14576119,0.08073706
1732435704110,2024-11-24T08:08:24.110Z,29685,-0.044428784,-0.1641523,-0.036024746
1732435704116,2024-11-24T08:08:24.116Z,29691,-0.044428784,-0.1641523,-0.036024746
1732435704128,2024-11-24T08:08:24.128Z,29703,-0.022508178,-0.14945719,-0.029239057
1732435704131,2024-11-24T08:08:24.131Z,29706,-0.022508178,-0.14945719,-0.029239057
1732435704140,2024-11-24T08:08:24.140Z,29715,-0.00868072,-0.13919853,-0.04251011
1732435704143,2024-11-24T08:08:24.143Z,29718,-0.00868072,-0.13919853,-0.04251011
1732435704153,2024-11-24T08:08:24.153Z,29728,-0.064367436,-0.15630576,-0.09461018
1732435704155,2024-11-24T08:08:24.155Z,29730,-0.064367436,-0.15630576,-0.09461018
1732435704164,2024-11-24T08:08:24.164Z,29739,-0.07362989,-0.12986033,-0.081851654
1732435704167,2024-11-24T08:08:24.167Z,29742,-0.07362989,-0.12986033,-0.081851654
1732435704182,2024-11-24T08:08:24.182Z,29757,-0.01226814,-0.12533714,-0.012434785
1732435704190,2024-11-24T08:08:24.190Z,29765,-0.01226814,-0.12533714,-0.012434785
1732435704214,2024-11-24T08:08:24.214Z,29789,0.006584108,-0.07819942,-0.062254716
1732435704221,2024-11-24T08:08:24.221Z,29796,0.006584108,-0.07819942,-0.062254716
1732435704246,2024-11-24T08:08:24.246Z,29821,-0.027069826,-0.09175662,-0.07701098
1732435704254,2024-11-24T08:08:24.254Z,29829,-0.027069826,-0.09175662,-0.07701098
1732435704278,2024-11-24T08:08:24.278Z,29853,-0.027821016,-0.06683233,-0.1078024
1732435704285,2024-11-24T08:08:24.285Z,29860,-0.027821016,-0.06683233,-0.1078024
1732435704309,2024-11-24T08:08:24.309Z,29884,-0.005519294,-0.04568017,-0.09504702
1732435704313,2024-11-24T08:08:24.313Z,29888,-0.005519294,-0.04568017,-0.09504702
1732435704328,2024-11-24T08:08:24.328Z,29903,0.027377177,-0.024574012,-0.05699686
1732435704333,2024-11-24T08:08:24.333Z,29908,0.027377177,-0.024574012,-0.05699686
1732435704346,2024-11-24T08:08:24.346Z,29921,0.016039893,-0.021387884,-0.02077768
1732435704350,2024-11-24T08:08:24.350Z,29925,0.016039893,-0.021387884,-0.02077768
1732435704370,2024-11-24T08:08:24.370Z,29945,-0.008187772,-0.038346134,0.016648395
1732435704379,2024-11-24T08:08:24.379Z,29954,-0.008187772,-0.038346134,0.016648395
1732435704404,2024-11-24T08:08:24.404Z,29979,0.0015366111,-0.035420146,-0.02928531
1732435704412,2024-11-24T08:08:24.412Z,29987,0.0015366111,-0.035420146,-0.02928531
1732435704430,2024-11-24T08:08:24.430Z,30005,0.011389701,-0.031972032,-0.042265594
1732435704434,2024-11-24T08:08:24.434Z,30009,0.011389701,-0.031972032,-0.042265594
1732435704447,2024-11-24T08:08:24.447Z,30022,0.011841125,0.008829704,-0.013181381
1732435704451,2024-11-24T08:08:24.451Z,30026,0.011841125,0.008829704,-0.013181381
1732435704462,2024-11-24T08:08:24.462Z,30037,0.04089072,0.007211696,0.05032783
1732435704465,2024-11-24T08:08:24.465Z,30040,0.04089072,0.007211696,0.05032783
1732435704475,2024-11-24T08:08:24.475Z,30050,0.041925047,0.006683544,-0.077477716
1732435704478,2024-11-24T08:08:24.478Z,30053,0.041925047,0.006683544,-0.077477716
1732435704490,2024-11-24T08:08:24.490Z,30065,-0.005652037,-0.008264014,-0.13859367
1732435704494,2024-11-24T08:08:24.494Z,30069,-0.005652037,-0.008264014,-0.13859367
1732435704504,2024-11-24T08:08:24.504Z,30079,-0.0057338225,-0.023959892,-0.08839184
1732435704507,2024-11-24T08:08:24.507Z,30082,-0.0057338225,-0.023959892,-0.08839184
1732435704517,2024-11-24T08:08:24.517Z,30092,0.08281314,-0.041071504,0.024444988
1732435704520,2024-11-24T08:08:24.520Z,30095,0.08281314,-0.041071504,0.024444988
1732435704531,2024-11-24T08:08:24.531Z,30106,0.064456366,-0.020275079,-0.017425599
1732435704535,2024-11-24T08:08:24.535Z,30110,0.064456366,-0.020275079,-0.017425599
1732435704549,2024-11-24T08:08:24.549Z,30124,0.1266894,-0.033937898,0.03178239
1732435704552,2024-11-24T08:08:24.552Z,30127,0.1266894,-0.033937898,0.03178239
1732435704562,2024-11-24T08:08:24.562Z,30137,0.030025037,0.011728464,-0.10684037
1732435704564,2024-11-24T08:08:24.564Z,30139,0.030025037,0.011728464,-0.10684037
1732435704575,2024-11-24T08:08:24.575Z,30150,0.13825499,-0.007272476,-0.032383148
1732435704578,2024-11-24T08:08:24.578Z,30153,0.13825499,-0.007272476,-0.032383148
1732435704589,2024-11-24T08:08:24.589Z,30164,0.06520201,-2.1822387E-4,-0.028955726
1732435704592,2024-11-24T08:08:24.592Z,30167,0.06520201,-2.1822387E-4,-0.028955726
1732435704604,2024-11-24T08:08:24.604Z,30179,0.117772475,-0.025275556,-0.0016552169
1732435704607,2024-11-24T08:08:24.607Z,30182,0.117772475,-0.025275556,-0.0016552169
1732435704618,2024-11-24T08:08:24.618Z,30193,0.059203,-0.01706853,0.022334639
1732435704622,2024-11-24T08:08:24.622Z,30197,0.059203,-0.01706853,0.022334639
1732435704632,2024-11-24T08:08:24.632Z,30207,0.07669256,0.012139043,0.047547992
1732435704636,2024-11-24T08:08:24.636Z,30211,0.07669256,0.012139043,0.047547992
1732435704646,2024-11-24T08:08:24.646Z,30221,0.12733674,-0.009735955,0.007074589
1732435704650,2024-11-24T08:08:24.650Z,30225,0.12733674,-0.009735955,0.007074589
1732435704659,2024-11-24T08:08:24.659Z,30234,0.08731556,0.022540173,-0.022047194
1732435704662,2024-11-24T08:08:24.662Z,30237,0.08731556,0.022540173,-0.022047194
1732435704671,2024-11-24T08:08:24.671Z,30246,0.09555962,-0.0069793714,-0.05673027
1732435704674,2024-11-24T08:08:24.674Z,30249,0.09555962,-0.0069793714,-0.05673027
1732435704685,2024-11-24T08:08:24.685Z,30260,0.09871277,-0.014668359,-0.019307524
1732435704689,2024-11-24T08:08:24.689Z,30264,0.09871277,-0.014668359,-0.019307524
1732435704699,2024-11-24T08:08:24.699Z,30274,0.14347683,-0.021452554,0.051955845
1732435704703,2024-11-24T08:08:24.703Z,30278,0.14347683,-0.021452554,0.051955845
1732435704713,2024-11-24T08:08:24.713Z,30288,0.13437228,-0.036953937,0.018022032
1732435704716,2024-11-24T08:08:24.716Z,30291,0.13437228,-0.036953937,0.018022032
1732435704727,2024-11-24T08:08:24.727Z,30302,0.1539396,-0.03923488,0.045438465
1732435704730,2024-11-24T08:08:24.730Z,30305,0.1539396,-0.03923488,0.045438465
1732435704740,2024-11-24T08:08:24.740Z,30315,0.058516722,-0.042361494,-0.1125817
1732435704743,2024-11-24T08:08:24.743Z,30318,0.058516722,-0.042361494,-0.1125817
1732435704755,2024-11-24T08:08:24.755Z,30330,0.05860974,-0.08897184,-0.13322589
1732435704761,2024-11-24T08:08:24.761Z,30336,0.05860974,-0.08897184,-0.13322589
1732435704774,2024-11-24T08:08:24.774Z,30349,0.118387565,-0.025309399,0.0087742545
1732435704777,2024-11-24T08:08:24.777Z,30352,0.118387565,-0.025309399,0.0087742545
1732435704787,2024-11-24T08:08:24.787Z,30362,0.14009055,-0.077122495,-0.0069160145
1732435704791,2024-11-24T08:08:24.791Z,30366,0.14009055,-0.077122495,-0.0069160145
1732435704800,2024-11-24T08:08:24.800Z,30375,0.14673997,-0.05556686,0.039209604
1732435704805,2024-11-24T08:08:24.805Z,30380,0.14673997,-0.05556686,0.039209604
1732435704815,2024-11-24T08:08:24.815Z,30390,0.06125361,-0.027991684,0.046040744
1732435704818,2024-11-24T08:08:24.818Z,30393,0.06125361,-0.027991684,0.046040744
1732435704831,2024-11-24T08:08:24.831Z,30406,0.09407445,-0.039793473,-0.08178686
1732435704838,2024-11-24T08:08:24.838Z,30413,0.09407445,-0.039793473,-0.08178686
1732435704861,2024-11-24T08:08:24.861Z,30436,0.09631426,-0.059327137,-0.07419729
1732435704868,2024-11-24T08:08:24.868Z,30443,0.09631426,-0.059327137,-0.07419729
1732435704892,2024-11-24T08:08:24.892Z,30467,0.11430341,-0.03791183,-0.015336038
1732435704896,2024-11-24T08:08:24.896Z,30471,0.11430341,-0.03791183,-0.015336038
1732435704909,2024-11-24T08:08:24.909Z,30484,0.09595848,-0.043592162,0.032185584
1732435704914,2024-11-24T08:08:24.914Z,30489,0.09595848,-0.043592162,0.032185584
1732435704927,2024-11-24T08:08:24.927Z,30502,0.08529945,-0.009582401,0.054610312
1732435704930,2024-11-24T08:08:24.930Z,30505,0.08529945,-0.009582401,0.054610312
1732435704947,2024-11-24T08:08:24.947Z,30522,0.10201027,-0.013917704,0.009426445
1732435704955,2024-11-24T08:08:24.955Z,30530,0.10201027,-0.013917704,0.009426445
1732435704975,2024-11-24T08:08:24.975Z,30550,0.04968094,-0.06302984,0.018248944
1732435704979,2024-11-24T08:08:24.979Z,30554,0.04968094,-0.06302984,0.018248944
1732435704991,2024-11-24T08:08:24.991Z,30566,0.1182759,-0.02715866,0.030553786
1732435704996,2024-11-24T08:08:24.996Z,30571,0.1182759,-0.02715866,0.030553786
1732435705011,2024-11-24T08:08:25.011Z,30586,0.15720847,-0.056601867,-0.022596568
1732435705019,2024-11-24T08:08:25.019Z,30594,0.15720847,-0.056601867,-0.022596568
1732435705039,2024-11-24T08:08:25.039Z,30614,0.069909945,-0.0639711,-0.06763175
1732435705044,2024-11-24T08:08:25.044Z,30619,0.069909945,-0.0639711,-0.06763175
1732435705065,2024-11-24T08:08:25.065Z,30640,0.1304747,-0.06426664,-0.06282443
1732435705071,2024-11-24T08:08:25.071Z,30646,0.1304747,-0.06426664,-0.06282443
1732435705083,2024-11-24T08:08:25.083Z,30658,0.081336625,-0.100306645,-0.055828836
1732435705086,2024-11-24T08:08:25.086Z,30661,0.081336625,-0.100306645,-0.055828836
1732435705098,2024-11-24T08:08:25.098Z,30673,0.035294745,-0.066699676,-0.0076786857
1732435705102,2024-11-24T08:08:25.102Z,30677,0.035294745,-0.066699676,-0.0076786857
1732435705117,2024-11-24T08:08:25.117Z,30692,0.12554495,-0.05207129,0.047937095
1732435705124,2024-11-24T08:08:25.124Z,30699,0.12554495,-0.05207129,0.047937095
1732435705145,2024-11-24T08:08:25.145Z,30720,0.10293051,-0.030536853,0.0012425189
1732435705151,2024-11-24T08:08:25.151Z,30726,0.10293051,-0.030536853,0.0012425189
1732435705163,2024-11-24T08:08:25.163Z,30738,0.12898266,-0.016781844,-0.08109346
1732435705166,2024-11-24T08:08:25.166Z,30741,0.12898266,-0.016781844,-0.08109346
1732435705178,2024-11-24T08:08:25.178Z,30753,0.057022996,-0.018937534,-0.060549404
1732435705181,2024-11-24T08:08:25.181Z,30756,0.057022996,-0.018937534,-0.060549404
1732435705191,2024-11-24T08:08:25.191Z,30766,0.031066827,0.05013353,-0.086552374
1732435705195,2024-11-24T08:08:25.195Z,30770,0.031066827,0.05013353,-0.086552374
1732435705204,2024-11-24T08:08:25.204Z,30779,0.17608222,0.07795707,-0.076371185
1732435705208,2024-11-24T08:08:25.208Z,30783,0.17608222,0.07795707,-0.076371185
1732435705221,2024-11-24T08:08:25.221Z,30796,0.12519746,0.076317675,-0.118028395
1732435705224,2024-11-24T08:08:25.224Z,30799,0.12519746,0.076317675,-0.118028395
1732435705233,2024-11-24T08:08:25.233Z,30808,0.15460597,0.07252229,-0.09456917
1732435705236,2024-11-24T08:08:25.236Z,30811,0.15460597,0.07252229,-0.09456917
1732435705246,2024-11-24T08:08:25.246Z,30821,0.11535582,0.10295781,-0.07291741
1732435705249,2024-11-24T08:08:25.249Z,30824,0.11535582,0.10295781,-0.07291741
1732435705268,2024-11-24T08:08:25.268Z,30843,0.14778903,0.12085285,-0.036853787
1732435705276,2024-11-24T08:08:25.276Z,30851,0.14778903,0.12085285,-0.036853787
1732435705301,2024-11-24T08:08:25.301Z,30876,0.20250715,0.124585114,0.009587257
1732435705309,2024-11-24T08:08:25.309Z,30884,0.20250715,0.124585114,0.009587257
1732435705322,2024-11-24T08:08:25.322Z,30897,-0.014832295,0.12041377,-0.15065373
1732435705324,2024-11-24T08:08:25.324Z,30899,-0.014832295,0.12041377,-0.15065373
1732435705334,2024-11-24T08:08:25.334Z,30909,0.104393765,0.09145311,-0.061296582
1732435705338,2024-11-24T08:08:25.338Z,30913,0.104393765,0.09145311,-0.061296582
1732435705348,2024-11-24T08:08:25.348Z,30923,0.18630561,0.14384717,-6.2253734E-4
1732435705351,2024-11-24T08:08:25.351Z,30926,0.18630561,0.14384717,-6.2253734E-4
1732435705361,2024-11-24T08:08:25.361Z,30936,0.099646136,0.19696023,0.038672145
1732435705364,2024-11-24T08:08:25.364Z,30939,0.099646136,0.19696023,0.038672145
1732435705373,2024-11-24T08:08:25.373Z,30948,0.034280427,0.19910823,-0.06622323
1732435705376,2024-11-24T08:08:25.376Z,30951,0.034280427,0.19910823,-0.06622323
1732435705387,2024-11-24T08:08:25.387Z,30962,0.057137456,0.20697236,-0.09614291
1732435705390,2024-11-24T08:08:25.390Z,30965,0.057137456,0.20697236,-0.09614291
1732435705400,2024-11-24T08:08:25.400Z,30975,0.07082945,0.24777366,-0.09774798
1732435705403,2024-11-24T08:08:25.403Z,30978,0.07082945,0.24777366,-0.09774798
1732435705415,2024-11-24T08:08:25.415Z,30990,0.06117552,0.27482837,-0.15941055
1732435705423,2024-11-24T08:08:25.423Z,30998,0.06117552,0.27482837,-0.15941055
1732435705435,2024-11-24T08:08:25.435Z,31010,0.09682695,0.23187336,-0.13080302
1732435705439,2024-11-24T08:08:25.439Z,31014,0.09682695,0.23187336,-0.13080302
1732435705449,2024-11-24T08:08:25.449Z,31024,0.04498244,0.20960817,-0.0989802
1732435705453,2024-11-24T08:08:25.453Z,31028,0.04498244,0.20960817,-0.0989802
1732435705470,2024-11-24T08:08:25.470Z,31045,0.0061913487,0.21037456,-0.12139399
1732435705478,2024-11-24T08:08:25.478Z,31053,0.0061913487,0.21037456,-0.12139399
1732435705502,2024-11-24T08:08:25.502Z,31077,-0.031065637,0.21046852,-0.19026762
1732435705509,2024-11-24T08:08:25.509Z,31084,-0.031065637,0.21046852,-0.19026762
1732435705522,2024-11-24T08:08:25.522Z,31097,-0.0029888113,0.17233083,-0.20705512
1732435705526,2024-11-24T08:08:25.526Z,31101,-0.0029888113,0.17233083,-0.20705512
1732435705538,2024-11-24T08:08:25.538Z,31113,-0.015182557,0.0866411,-0.14625546
1732435705542,2024-11-24T08:08:25.542Z,31117,-0.015182557,0.0866411,-0.14625546
1732435705553,2024-11-24T08:08:25.553Z,31128,-0.04391979,0.07812006,-0.16535895
1732435705557,2024-11-24T08:08:25.557Z,31132,-0.04391979,0.07812006,-0.16535895
1732435705569,2024-11-24T08:08:25.569Z,31144,-0.020140974,0.037302278,-0.09979954
1732435705572,2024-11-24T08:08:25.572Z,31147,-0.020140974,0.037302278,-0.09979954
1732435705588,2024-11-24T08:08:25.588Z,31163,-0.05697357,-0.0138896,-0.1879647
1732435705594,2024-11-24T08:08:25.594Z,31169,-0.05697357,-0.0138896,-0.1879647
1732435705613,2024-11-24T08:08:25.613Z,31188,0.0031771557,-0.062279187,-0.13773379
1732435705621,2024-11-24T08:08:25.621Z,31196,0.0031771557,-0.062279187,-0.13773379
1732435705643,2024-11-24T08:08:25.643Z,31218,-0.017500894,-0.057086937,-0.12319829
1732435705650,2024-11-24T08:08:25.650Z,31225,-0.017500894,-0.057086937,-0.12319829
1732435705670,2024-11-24T08:08:25.670Z,31245,0.022990016,-0.022916716,-0.055565003
1732435705675,2024-11-24T08:08:25.675Z,31250,0.022990016,-0.022916716,-0.055565003
1732435705686,2024-11-24T08:08:25.686Z,31261,0.03876695,-0.02552665,-0.057356983
1732435705690,2024-11-24T08:08:25.690Z,31265,0.03876695,-0.02552665,-0.057356983
1732435705700,2024-11-24T08:08:25.700Z,31275,0.04957623,-0.015827065,0.003595175
1732435705703,2024-11-24T08:08:25.703Z,31278,0.04957623,-0.015827065,0.003595175
1732435705714,2024-11-24T08:08:25.714Z,31289,0.051270187,-0.0056431876,-0.044412848
1732435705718,2024-11-24T08:08:25.718Z,31293,0.051270187,-0.0056431876,-0.044412848
1732435705728,2024-11-24T08:08:25.728Z,31303,0.11277501,0.03440391,-0.08162107
1732435705731,2024-11-24T08:08:25.731Z,31306,0.11277501,0.03440391,-0.08162107
1732435705742,2024-11-24T08:08:25.742Z,31317,0.072601445,0.037368603,-0.10310667
1732435705744,2024-11-24T08:08:25.744Z,31319,0.072601445,0.037368603,-0.10310667
1732435705755,2024-11-24T08:08:25.755Z,31330,0.07445373,0.008855183,-0.08460622
1732435705758,2024-11-24T08:08:25.758Z,31333,0.07445373,0.008855183,-0.08460622
1732435705770,2024-11-24T08:08:25.770Z,31345,0.011877958,0.009956513,-0.0616511
1732435705773,2024-11-24T08:08:25.773Z,31348,0.011877958,0.009956513,-0.0616511
1732435705783,2024-11-24T08:08:25.783Z,31358,-0.015011376,-0.009012043,-0.09990039
1732435705787,2024-11-24T08:08:25.787Z,31362,-0.015011376,-0.009012043,-0.09990039
1732435705798,2024-11-24T08:08:25.798Z,31373,0.03187634,-0.010455686,-0.11292686
1732435705801,2024-11-24T08:08:25.801Z,31376,0.03187634,-0.010455686,-0.11292686
1732435705810,2024-11-24T08:08:25.810Z,31385,0.09711463,-0.042005666,-0.05612939
1732435705814,2024-11-24T08:08:25.814Z,31389,0.09711463,-0.042005666,-0.05612939
1732435705824,2024-11-24T08:08:25.824Z,31399,0.0775498,-0.020160813,-0.04416314
1732435705828,2024-11-24T08:08:25.828Z,31403,0.0775498,-0.020160813,-0.04416314
1732435705838,2024-11-24T08:08:25.838Z,31413,0.04428267,-0.030780166,-0.056252748
1732435705842,2024-11-24T08:08:25.842Z,31417,0.04428267,-0.030780166,-0.056252748
1732435705852,2024-11-24T08:08:25.852Z,31427,-0.019838,-0.0433613,-0.069778286
1732435705855,2024-11-24T08:08:25.855Z,31430,-0.019838,-0.0433613,-0.069778286
1732435705865,2024-11-24T08:08:25.865Z,31440,0.06580768,-0.0728081,-0.05230894
1732435705868,2024-11-24T08:08:25.868Z,31443,0.06580768,-0.0728081,-0.05230894
1732435705877,2024-11-24T08:08:25.877Z,31452,0.018789401,-0.034432694,-0.035849337
1732435705880,2024-11-24T08:08:25.880Z,31455,0.018789401,-0.034432694,-0.035849337
1732435705890,2024-11-24T08:08:25.890Z,31465,0.040380094,0.040679984,-0.07916466
1732435705893,2024-11-24T08:08:25.893Z,31468,0.040380094,0.040679984,-0.07916466
1732435705904,2024-11-24T08:08:25.904Z,31479,0.02897559,0.03342501,-0.08414218
1732435705908,2024-11-24T08:08:25.908Z,31483,0.02897559,0.03342501,-0.08414218
1732435705919,2024-11-24T08:08:25.919Z,31494,0.048500694,0.022192804,-0.07141011
1732435705923,2024-11-24T08:08:25.923Z,31498,0.048500694,0.022192804,-0.07141011
1732435705934,2024-11-24T08:08:25.934Z,31509,0.0121872295,0.0074287527,-0.0876317
1732435705939,2024-11-24T08:08:25.939Z,31514,0.0121872295,0.0074287527,-0.0876317
1732435705949,2024-11-24T08:08:25.949Z,31524,0.019388543,6.680918E-5,-0.07192706
1732435705951,2024-11-24T08:08:25.951Z,31526,0.019388543,6.680918E-5,-0.07192706
1732435705962,2024-11-24T08:08:25.962Z,31537,0.02632943,-0.013735948,-0.045869973
1732435705965,2024-11-24T08:08:25.965Z,31540,0.02632943,-0.013735948,-0.045869973
1732435705975,2024-11-24T08:08:25.975Z,31550,0.060262635,-0.008400647,-0.044171333
1732435705978,2024-11-24T08:08:25.978Z,31553,0.060262635,-0.008400647,-0.044171333
1732435705986,2024-11-24T08:08:25.986Z,31561,0.034698058,-0.014678959,-0.0390642
1732435705989,2024-11-24T08:08:25.989Z,31564,0.034698058,-0.014678959,-0.0390642
1732435706000,2024-11-24T08:08:26Z,31575,0.062624805,-0.012056382,-0.024509547
1732435706003,2024-11-24T08:08:26.003Z,31578,0.062624805,-0.012056382,-0.024509547
1732435706024,2024-11-24T08:08:26.024Z,31599,0.027585018,0.025566423,-0.038983047
1732435706030,2024-11-24T08:08:26.030Z,31605,0.027585018,0.025566423,-0.038983047
1732435706049,2024-11-24T08:08:26.049Z,31624,0.09388652,-0.016754614,-0.027360123
1732435706055,2024-11-24T08:08:26.055Z,31630,0.09388652,-0.016754614,-0.027360123
1732435706068,2024-11-24T08:08:26.068Z,31643,0.03672555,0.027728435,-0.04749938
1732435706074,2024-11-24T08:08:26.074Z,31649,0.03672555,0.027728435,-0.04749938
1732435706092,2024-11-24T08:08:26.092Z,31667,0.034474485,0.007187773,-0.054448787
1732435706097,2024-11-24T08:08:26.097Z,31672,0.034474485,0.007187773,-0.054448787
1732435706113,2024-11-24T08:08:26.113Z,31688,0.027103376,0.035905898,-0.05410514
1732435706118,2024-11-24T08:08:26.118Z,31693,0.027103376,0.035905898,-0.05410514
1732435706131,2024-11-24T08:08:26.131Z,31706,0.020511173,0.019445945,-0.07972037
1732435706134,2024-11-24T08:08:26.134Z,31709,0.020511173,0.019445945,-0.07972037
1732435706146,2024-11-24T08:08:26.146Z,31721,0.060794335,0.011258174,-0.04655677
1732435706149,2024-11-24T08:08:26.149Z,31724,0.060794335,0.011258174,-0.04655677
1732435706161,2024-11-24T08:08:26.161Z,31736,0.09588768,-0.02307591,0.00823281
1732435706164,2024-11-24T08:08:26.164Z,31739,0.09588768,-0.02307591,0.00823281
1732435706173,2024-11-24T08:08:26.173Z,31748,0.031098556,0.0171756,-0.00909931
1732435706176,2024-11-24T08:08:26.176Z,31751,0.031098556,0.0171756,-0.00909931
1732435706186,2024-11-24T08:08:26.186Z,31761,-0.012685746,-0.0021480075,-0.035249732
1732435706190,2024-11-24T08:08:26.190Z,31765,-0.012685746,-0.0021480075,-0.035249732
1732435706199,2024-11-24T08:08:26.199Z,31774,0.050922014,0.011761333,-2.621069E-4
1732435706202,2024-11-24T08:08:26.202Z,31777,0.050922014,0.011761333,-2.621069E-4
1732435706215,2024-11-24T08:08:26.215Z,31790,0.01689842,0.04100061,0.0014124744
1732435706218,2024-11-24T08:08:26.218Z,31793,0.01689842,0.04100061,0.0014124744
1732435706231,2024-11-24T08:08:26.231Z,31806,0.01769974,0.03793361,-0.026620297
1732435706234,2024-11-24T08:08:26.234Z,31809,0.01769974,0.03793361,-0.026620297
1732435706244,2024-11-24T08:08:26.244Z,31819,0.0063338894,0.06229173,-0.015333862
1732435706248,2024-11-24T08:08:26.248Z,31823,0.0063338894,0.06229173,-0.015333862
1732435706258,2024-11-24T08:08:26.258Z,31833,0.04091739,0.0466261,-0.028335152
1732435706261,2024-11-24T08:08:26.261Z,31836,0.04091739,0.0466261,-0.028335152
1732435706270,2024-11-24T08:08:26.270Z,31845,0.0066089546,0.011396266,-0.049855888
1732435706274,2024-11-24T08:08:26.274Z,31849,0.0066089546,0.011396266,-0.049855888
1732435706283,2024-11-24T08:08:26.283Z,31858,0.07509661,0.036154754,0.050583515
1732435706288,2024-11-24T08:08:26.288Z,31863,0.07509661,0.036154754,0.050583515
1732435706299,2024-11-24T08:08:26.299Z,31874,0.028073858,0.019979445,0.037950877
1732435706302,2024-11-24T08:08:26.302Z,31877,0.028073858,0.019979445,0.037950877
1732435706312,2024-11-24T08:08:26.312Z,31887,0.0350269,0.015946388,0.047795113
1732435706315,2024-11-24T08:08:26.315Z,31890,0.0350269,0.015946388,0.047795113
1732435706326,2024-11-24T08:08:26.326Z,31901,-0.044796553,0.009122711,-0.065221936
1732435706329,2024-11-24T08:08:26.329Z,31904,-0.044796553,0.009122711,-0.065221936
1732435706338,2024-11-24T08:08:26.338Z,31913,0.03230377,-0.021440106,-0.02974686
1732435706342,2024-11-24T08:08:26.342Z,31917,0.03230377,-0.021440106,-0.02974686
1732435706354,2024-11-24T08:08:26.354Z,31929,0.052462272,-0.010880464,0.0062805736
1732435706357,2024-11-24T08:08:26.357Z,31932,0.052462272,-0.010880464,0.0062805736
1732435706366,2024-11-24T08:08:26.366Z,31941,0.019409452,-0.013494288,0.0015486091
1732435706368,2024-11-24T08:08:26.368Z,31943,0.019409452,-0.013494288,0.0015486091
1732435706377,2024-11-24T08:08:26.377Z,31952,-0.01560291,-0.024355495,-0.045120362
1732435706381,2024-11-24T08:08:26.381Z,31956,-0.01560291,-0.024355495,-0.045120362
1732435706392,2024-11-24T08:08:26.392Z,31967,0.023477787,-0.05093816,-0.02508274
1732435706395,2024-11-24T08:08:26.395Z,31970,0.023477787,-0.05093816,-0.02508274
1732435706405,2024-11-24T08:08:26.405Z,31980,0.090136304,-0.027805164,-0.007730877
1732435706408,2024-11-24T08:08:26.408Z,31983,0.090136304,-0.027805164,-0.007730877
1732435706417,2024-11-24T08:08:26.417Z,31992,0.05521723,-0.026302006,-0.044882677
1732435706420,2024-11-24T08:08:26.420Z,31995,0.05521723,-0.026302006,-0.044882677
1732435706431,2024-11-24T08:08:26.431Z,32006,0.05233962,-0.016669523,-0.03925425
1732435706434,2024-11-24T08:08:26.434Z,32009,0.05233962,-0.016669523,-0.03925425
1732435706445,2024-11-24T08:08:26.445Z,32020,0.030783959,-0.041671716,-0.033469796
1732435706448,2024-11-24T08:08:26.448Z,32023,0.030783959,-0.041671716,-0.033469796
1732435706458,2024-11-24T08:08:26.458Z,32033,0.060059678,0.0045063617,-0.0125606125
1732435706462,2024-11-24T08:08:26.462Z,32037,0.060059678,0.0045063617,-0.0125606125
1732435706471,2024-11-24T08:08:26.471Z,32046,0.024794959,-0.022139804,-0.03743456
1732435706474,2024-11-24T08:08:26.474Z,32049,0.024794959,-0.022139804,-0.03743456
1732435706483,2024-11-24T08:08:26.483Z,32058,0.060739975,-0.023813339,-0.033235755
1732435706487,2024-11-24T08:08:26.487Z,32062,0.060739975,-0.023813339,-0.033235755
1732435706498,2024-11-24T08:08:26.498Z,32073,0.050044354,-0.027470535,-0.05758928
1732435706500,2024-11-24T08:08:26.500Z,32075,0.050044354,-0.027470535,-0.05758928
1732435706512,2024-11-24T08:08:26.512Z,32087,0.04006382,-0.0027729212,-0.03044268
1732435706515,2024-11-24T08:08:26.515Z,32090,0.04006382,-0.0027729212,-0.03044268
1732435706526,2024-11-24T08:08:26.526Z,32101,0.034970522,0.007293773,-0.024929294
1732435706531,2024-11-24T08:08:26.531Z,32106,0.034970522,0.007293773,-0.024929294
1732435706546,2024-11-24T08:08:26.546Z,32121,0.010024635,0.023333617,-0.05975336
1732435706552,2024-11-24T08:08:26.552Z,32127,0.010024635,0.023333617,-0.05975336
1732435706569,2024-11-24T08:08:26.569Z,32144,0.021966897,0.021237735,-0.06561932
1732435706572,2024-11-24T08:08:26.572Z,32147,0.021966897,0.021237735,-0.06561932
1732435706582,2024-11-24T08:08:26.582Z,32157,0.05535758,0.015736723,-0.04899633
1732435706584,2024-11-24T08:08:26.584Z,32159,0.05535758,0.015736723,-0.04899633
1732435706594,2024-11-24T08:08:26.594Z,32169,-0.0130113065,0.0032570204,-0.075857505
1732435706597,2024-11-24T08:08:26.597Z,32172,-0.0130113065,0.0032570204,-0.075857505
1732435706605,2024-11-24T08:08:26.605Z,32180,0.04376828,-0.0016324974,-0.035240676
1732435706608,2024-11-24T08:08:26.608Z,32183,0.04376828,-0.0016324974,-0.035240676
1732435706617,2024-11-24T08:08:26.617Z,32192,0.06350908,0.007409887,-0.02027289
1732435706619,2024-11-24T08:08:26.619Z,32194,0.06350908,0.007409887,-0.02027289
1732435706629,2024-11-24T08:08:26.629Z,32204,0.0030720066,0.019686341,-0.028410604
1732435706631,2024-11-24T08:08:26.631Z,32206,0.0030720066,0.019686341,-0.028410604
1732435706642,2024-11-24T08:08:26.642Z,32217,0.025945934,0.022570612,-0.04930346
1732435706648,2024-11-24T08:08:26.648Z,32223,0.025945934,0.022570612,-0.04930346
1732435706668,2024-11-24T08:08:26.668Z,32243,-0.009981116,0.011134183,-0.06259849
1732435706675,2024-11-24T08:08:26.675Z,32250,-0.009981116,0.011134183,-0.06259849
1732435706690,2024-11-24T08:08:26.690Z,32265,0.029313136,0.02895648,-0.047431502
1732435706693,2024-11-24T08:08:26.693Z,32268,0.029313136,0.02895648,-0.047431502
1732435706705,2024-11-24T08:08:26.705Z,32280,0.038442995,0.020429509,-0.018165715
1732435706711,2024-11-24T08:08:26.711Z,32286,0.038442995,0.020429509,-0.018165715
1732435706733,2024-11-24T08:08:26.733Z,32308,0.0046423627,0.038380854,-0.041745637
1732435706738,2024-11-24T08:08:26.738Z,32313,0.0046423627,0.038380854,-0.041745637
1732435706752,2024-11-24T08:08:26.752Z,32327,0.063376285,0.033507187,-0.030632738
1732435706756,2024-11-24T08:08:26.756Z,32331,0.063376285,0.033507187,-0.030632738
1732435706771,2024-11-24T08:08:26.771Z,32346,0.0019196213,0.015140789,-0.07144313
1732435706778,2024-11-24T08:08:26.778Z,32353,0.0019196213,0.015140789,-0.07144313
1732435706799,2024-11-24T08:08:26.799Z,32374,-0.00582154,0.0063596116,-0.061921448
1732435706804,2024-11-24T08:08:26.804Z,32379,-0.00582154,0.0063596116,-0.061921448
1732435706829,2024-11-24T08:08:26.829Z,32404,0.029938487,-0.008306219,-0.03289084
1732435706836,2024-11-24T08:08:26.836Z,32411,0.029938487,-0.008306219,-0.03289084
1732435706859,2024-11-24T08:08:26.859Z,32434,-0.007208244,-0.007678485,-0.018025884
1732435706867,2024-11-24T08:08:26.867Z,32442,-0.007208244,-0.007678485,-0.018025884
1732435706892,2024-11-24T08:08:26.892Z,32467,0.01663709,-0.0011378955,-0.007737952
1732435706900,2024-11-24T08:08:26.900Z,32475,0.01663709,-0.0011378955,-0.007737952
1732435706924,2024-11-24T08:08:26.924Z,32499,-0.030920202,0.017723104,-0.03389862
1732435706931,2024-11-24T08:08:26.931Z,32506,-0.030920202,0.017723104,-0.03389862
1732435706950,2024-11-24T08:08:26.950Z,32525,-0.03564445,-0.0059638135,-0.062378976
1732435706954,2024-11-24T08:08:26.954Z,32529,-0.03564445,-0.0059638135,-0.062378976
1732435706969,2024-11-24T08:08:26.969Z,32544,0.014110692,-0.0033407507,-0.044403017
1732435706974,2024-11-24T08:08:26.974Z,32549,0.014110692,-0.0033407507,-0.044403017
1732435706988,2024-11-24T08:08:26.988Z,32563,0.04993048,4.1835968E-4,-0.028936034
1732435706992,2024-11-24T08:08:26.992Z,32567,0.04993048,4.1835968E-4,-0.028936034
1732435707005,2024-11-24T08:08:27.005Z,32580,-0.0037427729,0.016405689,-0.03165464
1732435707008,2024-11-24T08:08:27.008Z,32583,-0.0037427729,0.016405689,-0.03165464
1732435707019,2024-11-24T08:08:27.019Z,32594,5.799854E-4,0.01980829,-0.032265794
1732435707023,2024-11-24T08:08:27.023Z,32598,5.799854E-4,0.01980829,-0.032265794
1732435707032,2024-11-24T08:08:27.032Z,32607,0.04506153,0.03192448,-0.031383675
1732435707035,2024-11-24T08:08:27.035Z,32610,0.04506153,0.03192448,-0.031383675
1732435707044,2024-11-24T08:08:27.044Z,32619,0.04020235,0.06119643,-0.04671368
1732435707047,2024-11-24T08:08:27.047Z,32622,0.04020235,0.06119643,-0.04671368
1732435707056,2024-11-24T08:08:27.056Z,32631,0.018257676,0.025925074,-0.0876492
1732435707058,2024-11-24T08:08:27.058Z,32633,0.018257676,0.025925074,-0.0876492
1732435707067,2024-11-24T08:08:27.067Z,32642,0.043832414,0.009057458,-0.051092114
1732435707070,2024-11-24T08:08:27.070Z,32645,0.043832414,0.009057458,-0.051092114
1732435707078,2024-11-24T08:08:27.078Z,32653,0.03894173,0.033605017,-0.02896906
1732435707082,2024-11-24T08:08:27.082Z,32657,0.03894173,0.033605017,-0.02896906
1732435707091,2024-11-24T08:08:27.091Z,32666,-0.0025430764,0.018932866,-0.07508335
1732435707095,2024-11-24T08:08:27.095Z,32670,-0.0025430764,0.018932866,-0.07508335
1732435707105,2024-11-24T08:08:27.105Z,32680,-0.034124516,-0.0015095762,-0.08021889
1732435707109,2024-11-24T08:08:27.109Z,32684,-0.034124516,-0.0015095762,-0.08021889
1732435707119,2024-11-24T08:08:27.119Z,32694,0.005493815,-0.0010125432,-0.023251893
1732435707122,2024-11-24T08:08:27.122Z,32697,0.005493815,-0.0010125432,-0.023251893
1732435707132,2024-11-24T08:08:27.132Z,32707,0.008755309,-0.0053892736,-0.026293315
1732435707134,2024-11-24T08:08:27.134Z,32709,0.008755309,-0.0053892736,-0.026293315
1732435707144,2024-11-24T08:08:27.144Z,32719,-0.006001205,0.015184939,-0.048350155
1732435707147,2024-11-24T08:08:27.147Z,32722,-0.006001205,0.015184939,-0.048350155
1732435707155,2024-11-24T08:08:27.155Z,32730,0.018767156,0.008403175,-0.065402724
1732435707159,2024-11-24T08:08:27.159Z,32734,0.018767156,0.008403175,-0.065402724
1732435707169,2024-11-24T08:08:27.169Z,32744,0.022290975,0.010301061,-0.0401794
1732435707176,2024-11-24T08:08:27.176Z,32751,0.022290975,0.010301061,-0.0401794
1732435707187,2024-11-24T08:08:27.187Z,32762,0.008627088,0.008320709,-0.04066193
1732435707190,2024-11-24T08:08:27.190Z,32765,0.008627088,0.008320709,-0.04066193
1732435707199,2024-11-24T08:08:27.199Z,32774,0.03374588,0.015718829,-0.0391331
1732435707202,2024-11-24T08:08:27.202Z,32777,0.03374588,0.015718829,-0.0391331
1732435707211,2024-11-24T08:08:27.211Z,32786,0.02813498,0.00817474,-0.026036702
1732435707214,2024-11-24T08:08:27.214Z,32789,0.02813498,0.00817474,-0.026036702
1732435707222,2024-11-24T08:08:27.222Z,32797,0.06611473,-0.024215264,-0.013263008
1732435707225,2024-11-24T08:08:27.225Z,32800,0.06611473,-0.024215264,-0.013263008
1732435707234,2024-11-24T08:08:27.234Z,32809,-0.008085905,-0.011877253,-0.04403649
1732435707237,2024-11-24T08:08:27.237Z,32812,-0.008085905,-0.011877253,-0.04403649
1732435707246,2024-11-24T08:08:27.246Z,32821,0.0059946897,-0.019650748,-0.044140432
1732435707249,2024-11-24T08:08:27.249Z,32824,0.0059946897,-0.019650748,-0.044140432
1732435707260,2024-11-24T08:08:27.260Z,32835,0.007233285,-0.02540227,-0.012392434
1732435707266,2024-11-24T08:08:27.266Z,32841,0.007233285,-0.02540227,-0.012392434
1732435707286,2024-11-24T08:08:27.286Z,32861,0.037848666,-0.015987039,-0.04088971
1732435707291,2024-11-24T08:08:27.291Z,32866,0.037848666,-0.015987039,-0.04088971
1732435707304,2024-11-24T08:08:27.304Z,32879,0.00970819,-0.01099327,-0.051845163
1732435707307,2024-11-24T08:08:27.307Z,32882,0.00970819,-0.01099327,-0.051845163
1732435707318,2024-11-24T08:08:27.318Z,32893,-0.05345775,-6.6322944E-4,-0.07773237
1732435707320,2024-11-24T08:08:27.320Z,32895,-0.05345775,-6.6322944E-4,-0.07773237
1732435707330,2024-11-24T08:08:27.330Z,32905,0.023089234,-0.021093613,-0.03317189
1732435707333,2024-11-24T08:08:27.333Z,32908,0.023089234,-0.021093613,-0.03317189
1732435707341,2024-11-24T08:08:27.341Z,32916,0.01490331,0.013182219,-0.034052234
1732435707343,2024-11-24T08:08:27.343Z,32918,0.01490331,0.013182219,-0.034052234
1732435707352,2024-11-24T08:08:27.352Z,32927,0.028724788,-0.014594548,-0.027496304
1732435707355,2024-11-24T08:08:27.355Z,32930,0.028724788,-0.014594548,-0.027496304
1732435707364,2024-11-24T08:08:27.364Z,32939,-0.01629468,0.004685881,-0.022457184
1732435707367,2024-11-24T08:08:27.367Z,32942,-0.01629468,0.004685881,-0.022457184
1732435707380,2024-11-24T08:08:27.380Z,32955,0.017336057,-0.02591107,8.2125695E-4
1732435707385,2024-11-24T08:08:27.385Z,32960,0.017336057,-0.02591107,8.2125695E-4
1732435707402,2024-11-24T08:08:27.402Z,32977,0.047635138,-0.03162836,0.020002894
1732435707405,2024-11-24T08:08:27.405Z,32980,0.047635138,-0.03162836,0.020002894
1732435707416,2024-11-24T08:08:27.416Z,32991,0.014601015,-0.009133408,-0.0056335237
1732435707419,2024-11-24T08:08:27.419Z,32994,0.014601015,-0.009133408,-0.0056335237
1732435707429,2024-11-24T08:08:27.429Z,33004,0.043844424,-0.0066627325,-0.010490099
1732435707432,2024-11-24T08:08:27.432Z,33007,0.043844424,-0.0066627325,-0.010490099
1732435707440,2024-11-24T08:08:27.440Z,33015,-0.016625956,-0.0047733067,-0.05336601
1732435707443,2024-11-24T08:08:27.443Z,33018,-0.016625956,-0.0047733067,-0.05336601
1732435707452,2024-11-24T08:08:27.452Z,33027,0.0028853398,-0.019459657,0.01773487
1732435707454,2024-11-24T08:08:27.454Z,33029,0.0028853398,-0.019459657,0.01773487
1732435707465,2024-11-24T08:08:27.465Z,33040,0.02291302,-0.043325607,-0.014878572
1732435707468,2024-11-24T08:08:27.468Z,33043,0.02291302,-0.043325607,-0.014878572
1732435707478,2024-11-24T08:08:27.478Z,33053,0.0053021885,-0.031534906,-0.0039541405
1732435707481,2024-11-24T08:08:27.481Z,33056,0.0053021885,-0.031534906,-0.0039541405
1732435707489,2024-11-24T08:08:27.489Z,33064,0.023105765,-0.060016524,0.013146068
1732435707492,2024-11-24T08:08:27.492Z,33067,0.023105765,-0.060016524,0.013146068
1732435707500,2024-11-24T08:08:27.500Z,33075,-0.0131938895,-0.058826406,-0.0011780224
1732435707503,2024-11-24T08:08:27.503Z,33078,-0.0131938895,-0.058826406,-0.0011780224
1732435707512,2024-11-24T08:08:27.512Z,33087,0.0077941124,-0.033328056,-0.010099722
1732435707517,2024-11-24T08:08:27.517Z,33092,0.0077941124,-0.033328056,-0.010099722
1732435707524,2024-11-24T08:08:27.524Z,33099,0.0151218735,-0.032555424,0.015498089
1732435707527,2024-11-24T08:08:27.527Z,33102,0.0151218735,-0.032555424,0.015498089
1732435707535,2024-11-24T08:08:27.535Z,33110,0.07004573,-0.05894213,0.03277029
1732435707538,2024-11-24T08:08:27.538Z,33113,0.07004573,-0.05894213,0.03277029
1732435707546,2024-11-24T08:08:27.546Z,33121,0.032434594,-0.05981707,0.026823923
1732435707549,2024-11-24T08:08:27.549Z,33124,0.032434594,-0.05981707,0.026823923
1732435707558,2024-11-24T08:08:27.558Z,33133,0.017469434,-0.037274856,-0.029041631
1732435707561,2024-11-24T08:08:27.561Z,33136,0.017469434,-0.037274856,-0.029041631
1732435707570,2024-11-24T08:08:27.570Z,33145,-0.008620086,-0.030073369,-0.026925351
1732435707572,2024-11-24T08:08:27.572Z,33147,-0.008620086,-0.030073369,-0.026925351
1732435707582,2024-11-24T08:08:27.582Z,33157,-0.028178109,-0.039607048,-0.051065527
1732435707587,2024-11-24T08:08:27.587Z,33162,-0.028178109,-0.039607048,-0.051065527
1732435707608,2024-11-24T08:08:27.608Z,33183,-0.01624348,-0.049088895,-0.004418535
1732435707615,2024-11-24T08:08:27.615Z,33190,-0.01624348,-0.049088895,-0.004418535
1732435707634,2024-11-24T08:08:27.634Z,33209,0.034197595,-0.04269904,0.005612907
1732435707643,2024-11-24T08:08:27.643Z,33218,0.034197595,-0.04269904,0.005612907
1732435707669,2024-11-24T08:08:27.669Z,33244,0.046664122,-0.047115643,-0.0044169184
1732435707674,2024-11-24T08:08:27.674Z,33249,0.046664122,-0.047115643,-0.0044169184
1732435707691,2024-11-24T08:08:27.691Z,33266,-0.020857787,-0.0095033385,-0.043725345
1732435707696,2024-11-24T08:08:27.696Z,33271,-0.020857787,-0.0095033385,-0.043725345
1732435707706,2024-11-24T08:08:27.706Z,33281,0.056840267,-0.020997824,-0.012412553
1732435707709,2024-11-24T08:08:27.709Z,33284,0.056840267,-0.020997824,-0.012412553
1732435707719,2024-11-24T08:08:27.719Z,33294,0.02530259,-0.019423578,-0.016604524
1732435707722,2024-11-24T08:08:27.722Z,33297,0.02530259,-0.019423578,-0.016604524
1732435707732,2024-11-24T08:08:27.732Z,33307,0.086746566,-0.03237386,0.0012060661
1732435707734,2024-11-24T08:08:27.734Z,33309,0.086746566,-0.03237386,0.0012060661
1732435707744,2024-11-24T08:08:27.744Z,33319,0.042057984,-0.032279044,-1.500289E-4
1732435707747,2024-11-24T08:08:27.747Z,33322,0.042057984,-0.032279044,-1.500289E-4
1732435707757,2024-11-24T08:08:27.757Z,33332,-0.0073485235,-0.016188243,-0.02343665
1732435707763,2024-11-24T08:08:27.763Z,33338,-0.0073485235,-0.016188243,-0.02343665
1732435707784,2024-11-24T08:08:27.784Z,33359,0.005939939,-0.0346834,-0.04003612
1732435707787,2024-11-24T08:08:27.787Z,33362,0.005939939,-0.0346834,-0.04003612
1732435707799,2024-11-24T08:08:27.799Z,33374,-0.020502785,-0.021638297,-0.041812092
1732435707802,2024-11-24T08:08:27.802Z,33377,-0.020502785,-0.021638297,-0.041812092
1732435707813,2024-11-24T08:08:27.813Z,33388,0.03821879,-0.04093808,-0.013442418
1732435707816,2024-11-24T08:08:27.816Z,33391,0.03821879,-0.04093808,-0.013442418
1732435707826,2024-11-24T08:08:27.826Z,33401,-0.025783578,-0.02715584,-0.031172791
1732435707830,2024-11-24T08:08:27.830Z,33405,-0.025783578,-0.02715584,-0.031172791
1732435707843,2024-11-24T08:08:27.843Z,33418,0.0032630498,-0.024772689,-0.03823853
1732435707848,2024-11-24T08:08:27.848Z,33423,0.0032630498,-0.024772689,-0.03823853
1732435707864,2024-11-24T08:08:27.864Z,33439,-0.0010901955,-0.036529355,-0.073522374
1732435707866,2024-11-24T08:08:27.866Z,33441,-0.0010901955,-0.036529355,-0.073522374
1732435707878,2024-11-24T08:08:27.878Z,33453,-0.0049751443,-0.050538566,-0.05570957
1732435707882,2024-11-24T08:08:27.882Z,33457,-0.0049751443,-0.050538566,-0.05570957
1732435707893,2024-11-24T08:08:27.893Z,33468,-0.022485277,-0.04439611,-0.034250084
1732435707896,2024-11-24T08:08:27.896Z,33471,-0.022485277,-0.04439611,-0.034250084
1732435707907,2024-11-24T08:08:27.907Z,33482,-0.034113236,-0.020571684,-0.01685771
1732435707910,2024-11-24T08:08:27.910Z,33485,-0.034113236,-0.020571684,-0.01685771
1732435707920,2024-11-24T08:08:27.920Z,33495,-0.03763511,-0.010434242,-0.046761066
1732435707923,2024-11-24T08:08:27.923Z,33498,-0.03763511,-0.010434242,-0.046761066
1732435707933,2024-11-24T08:08:27.933Z,33508,-0.052000735,0.007068207,-0.0888244
1732435707935,2024-11-24T08:08:27.935Z,33510,-0.052000735,0.007068207,-0.0888244
1732435707944,2024-11-24T08:08:27.944Z,33519,-0.04237496,0.018186975,-0.10312419
1732435707947,2024-11-24T08:08:27.947Z,33522,-0.04237496,0.018186975,-0.10312419
1732435707955,2024-11-24T08:08:27.955Z,33530,-0.008301016,0.0025120543,0.010782377
1732435707958,2024-11-24T08:08:27.958Z,33533,-0.008301016,0.0025120543,0.010782377
1732435707967,2024-11-24T08:08:27.967Z,33542,-0.008969157,0.008266201,0.0026481648
1732435707969,2024-11-24T08:08:27.969Z,33544,-0.008969157,0.008266201,0.0026481648
1732435707977,2024-11-24T08:08:27.977Z,33552,-0.050812416,0.0024938204,-0.047868278
1732435707980,2024-11-24T08:08:27.980Z,33555,-0.050812416,0.0024938204,-0.047868278
1732435707987,2024-11-24T08:08:27.987Z,33562,-0.039545637,0.03626309,-0.0276387
1732435707989,2024-11-24T08:08:27.989Z,33564,-0.039545637,0.03626309,-0.0276387
1732435707998,2024-11-24T08:08:27.998Z,33573,-0.025814844,0.02841306,-0.061839774
1732435708000,2024-11-24T08:08:28Z,33575,-0.025814844,0.02841306,-0.061839774
1732435708008,2024-11-24T08:08:28.008Z,33583,0.01652336,0.01878257,-0.047373593
1732435708011,2024-11-24T08:08:28.011Z,33586,0.01652336,0.01878257,-0.047373593
1732435708019,2024-11-24T08:08:28.019Z,33594,-0.051012505,0.05428134,-0.08957031
1732435708022,2024-11-24T08:08:28.022Z,33597,-0.051012505,0.05428134,-0.08957031
1732435708030,2024-11-24T08:08:28.030Z,33605,-0.038578168,0.035752878,-0.08757284
1732435708032,2024-11-24T08:08:28.032Z,33607,-0.038578168,0.035752878,-0.08757284
1732435708039,2024-11-24T08:08:28.039Z,33614,0.034848474,0.04354884,-0.053964034
1732435708042,2024-11-24T08:08:28.042Z,33617,0.034848474,0.04354884,-0.053964034
1732435708050,2024-11-24T08:08:28.050Z,33625,0.024427118,0.0594591,-0.052625712
1732435708053,2024-11-24T08:08:28.053Z,33628,0.024427118,0.0594591,-0.052625712
1732435708061,2024-11-24T08:08:28.061Z,33636,0.0648811,0.06403252,-0.048377395
1732435708063,2024-11-24T08:08:28.063Z,33638,0.0648811,0.06403252,-0.048377395
1732435708071,2024-11-24T08:08:28.071Z,33646,0.016645258,0.06046328,-0.028191043
1732435708073,2024-11-24T08:08:28.073Z,33648,0.016645258,0.06046328,-0.028191043
1732435708082,2024-11-24T08:08:28.082Z,33657,0.007710674,0.054998785,-0.081853025
1732435708085,2024-11-24T08:08:28.085Z,33660,0.007710674,0.054998785,-0.081853025
1732435708095,2024-11-24T08:08:28.095Z,33670,0.03961488,0.056396674,-0.054979116
1732435708101,2024-11-24T08:08:28.101Z,33676,0.03961488,0.056396674,-0.054979116
1732435708109,2024-11-24T08:08:28.109Z,33684,0.00716808,0.06598126,-0.07039093
1732435708112,2024-11-24T08:08:28.112Z,33687,0.00716808,0.06598126,-0.07039093
1732435708121,2024-11-24T08:08:28.121Z,33696,0.015233612,0.053726785,-0.010910914
1732435708124,2024-11-24T08:08:28.124Z,33699,0.015233612,0.053726785,-0.010910914
1732435708139,2024-11-24T08:08:28.139Z,33714,0.0070936373,0.04005823,-0.008793357
1732435708147,2024-11-24T08:08:28.147Z,33722,0.0070936373,0.04005823,-0.008793357
1732435708173,2024-11-24T08:08:28.173Z,33748,-0.032786094,0.04205317,-0.028365893
1732435708179,2024-11-24T08:08:28.179Z,33754,-0.032786094,0.04205317,-0.028365893
1732435708202,2024-11-24T08:08:28.202Z,33777,0.013805334,0.022889826,-0.038059097
1732435708209,2024-11-24T08:08:28.209Z,33784,0.013805334,0.022889826,-0.038059097
1732435708228,2024-11-24T08:08:28.228Z,33803,-0.052242443,0.03896181,-0.06333307
1732435708231,2024-11-24T08:08:28.231Z,33806,-0.052242443,0.03896181,-0.06333307
1732435708245,2024-11-24T08:08:28.245Z,33820,0.024973603,0.03350179,-0.04415631
1732435708249,2024-11-24T08:08:28.249Z,33824,0.024973603,0.03350179,-0.04415631
1732435708262,2024-11-24T08:08:28.262Z,33837,-0.012067177,0.0397731,-0.012704526
1732435708265,2024-11-24T08:08:28.265Z,33840,-0.012067177,0.0397731,-0.012704526
1732435708277,2024-11-24T08:08:28.277Z,33852,0.038248256,0.041735265,-0.022793928
1732435708282,2024-11-24T08:08:28.282Z,33857,0.038248256,0.041735265,-0.022793928
1732435708299,2024-11-24T08:08:28.299Z,33874,0.0088646645,0.04033451,-0.055762265
1732435708303,2024-11-24T08:08:28.303Z,33878,0.0088646645,0.04033451,-0.055762265
1732435708314,2024-11-24T08:08:28.314Z,33889,0.023164649,0.03616132,-0.054772586
1732435708317,2024-11-24T08:08:28.317Z,33892,0.023164649,0.03616132,-0.054772586
1732435708328,2024-11-24T08:08:28.328Z,33903,0.032704115,0.038623825,-0.035323493
1732435708331,2024-11-24T08:08:28.331Z,33906,0.032704115,0.038623825,-0.035323493
1732435708340,2024-11-24T08:08:28.340Z,33915,0.050154,0.033662587,-0.032308195
1732435708343,2024-11-24T08:08:28.343Z,33918,0.050154,0.033662587,-0.032308195
1732435708352,2024-11-24T08:08:28.352Z,33927,0.014325075,0.045934424,-0.103169456
1732435708354,2024-11-24T08:08:28.354Z,33929,0.014325075,0.045934424,-0.103169456
1732435708362,2024-11-24T08:08:28.362Z,33937,0.03622803,0.018464131,-0.055830568
1732435708365,2024-11-24T08:08:28.365Z,33940,0.03622803,0.018464131,-0.055830568
1732435708373,2024-11-24T08:08:28.373Z,33948,4.8142482E-4,3.2733582E-4,-0.056567915
1732435708377,2024-11-24T08:08:28.377Z,33952,4.8142482E-4,3.2733582E-4,-0.056567915
1732435708386,2024-11-24T08:08:28.386Z,33961,0.0042110207,-0.012172983,-0.06539532
1732435708389,2024-11-24T08:08:28.389Z,33964,0.0042110207,-0.012172983,-0.06539532
1732435708399,2024-11-24T08:08:28.399Z,33974,-0.032282352,-0.032439213,-0.039656647
1732435708402,2024-11-24T08:08:28.402Z,33977,-0.032282352,-0.032439213,-0.039656647
1732435708410,2024-11-24T08:08:28.410Z,33985,-0.023681957,-0.016695878,-0.04163278
1732435708412,2024-11-24T08:08:28.412Z,33987,-0.023681957,-0.016695878,-0.04163278
1732435708420,2024-11-24T08:08:28.420Z,33995,-0.017060848,-0.030584212,-0.052283518
1732435708423,2024-11-24T08:08:28.423Z,33998,-0.017060848,-0.030584212,-0.052283518
1732435708432,2024-11-24T08:08:28.432Z,34007,-0.0037690783,-0.026684385,-0.03325558
1732435708435,2024-11-24T08:08:28.435Z,34010,-0.0037690783,-0.026684385,-0.03325558
1732435708442,2024-11-24T08:08:28.442Z,34017,-0.028733928,-0.028125206,-0.05267195
1732435708445,2024-11-24T08:08:28.445Z,34020,-0.028733928,-0.028125206,-0.05267195
1732435708452,2024-11-24T08:08:28.452Z,34027,-0.014768038,-0.030987984,-0.08658802
1732435708454,2024-11-24T08:08:28.454Z,34029,-0.014768038,-0.030987984,-0.08658802
1732435708462,2024-11-24T08:08:28.462Z,34037,-0.017075093,-9.822019E-6,-0.07037438
1732435708464,2024-11-24T08:08:28.464Z,34039,-0.017075093,-9.822019E-6,-0.07037438
1732435708474,2024-11-24T08:08:28.474Z,34049,0.015602569,0.0070764245,-0.05294374
1732435708481,2024-11-24T08:08:28.481Z,34056,0.015602569,0.0070764245,-0.05294374
1732435708507,2024-11-24T08:08:28.507Z,34082,0.032208834,0.0154788215,-0.05414433
1732435708513,2024-11-24T08:08:28.513Z,34088,0.032208834,0.0154788215,-0.05414433
1732435708526,2024-11-24T08:08:28.526Z,34101,0.09419302,-0.008865101,-0.0718619
1732435708530,2024-11-24T08:08:28.530Z,34105,0.09419302,-0.008865101,-0.0718619
1732435708542,2024-11-24T08:08:28.542Z,34117,9.5560466E-4,-0.023475403,-0.043199245
1732435708549,2024-11-24T08:08:28.549Z,34124,9.5560466E-4,-0.023475403,-0.043199245
1732435708560,2024-11-24T08:08:28.560Z,34135,0.0010704543,-0.024158472,-0.04105819
1732435708563,2024-11-24T08:08:28.563Z,34138,0.0010704543,-0.024158472,-0.04105819
1732435708574,2024-11-24T08:08:28.574Z,34149,0.017006535,-0.024964461,-0.050495926
1732435708578,2024-11-24T08:08:28.578Z,34153,0.017006535,-0.024964461,-0.050495926
1732435708587,2024-11-24T08:08:28.587Z,34162,0.08740999,-0.010197687,0.021729732
1732435708590,2024-11-24T08:08:28.590Z,34165,0.08740999,-0.010197687,0.021729732
1732435708598,2024-11-24T08:08:28.598Z,34173,0.04993568,-0.010206731,-0.046642903
1732435708601,2024-11-24T08:08:28.601Z,34176,0.04993568,-0.010206731,-0.046642903
1732435708609,2024-11-24T08:08:28.609Z,34184,0.029783523,-0.0018339946,-0.04008642
1732435708612,2024-11-24T08:08:28.612Z,34187,0.029783523,-0.0018339946,-0.04008642
1732435708620,2024-11-24T08:08:28.620Z,34195,0.024269773,-0.020374952,0.024129475
1732435708622,2024-11-24T08:08:28.622Z,34197,0.024269773,-0.020374952,0.024129475
1732435708630,2024-11-24T08:08:28.630Z,34205,0.033773158,-0.011087017,-0.028783057
1732435708633,2024-11-24T08:08:28.633Z,34208,0.033773158,-0.011087017,-0.028783057
1732435708640,2024-11-24T08:08:28.640Z,34215,0.052349903,-0.03371238,-0.06652385
1732435708643,2024-11-24T08:08:28.643Z,34218,0.052349903,-0.03371238,-0.06652385
1732435708653,2024-11-24T08:08:28.653Z,34228,0.08255492,-0.035512432,-0.011012826
1732435708656,2024-11-24T08:08:28.656Z,34231,0.08255492,-0.035512432,-0.011012826
1732435708666,2024-11-24T08:08:28.666Z,34241,0.078669146,-0.046477113,-0.009763901
1732435708668,2024-11-24T08:08:28.668Z,34243,0.078669146,-0.046477113,-0.009763901
1732435708677,2024-11-24T08:08:28.677Z,34252,0.08129289,-0.050703693,-0.033268843
1732435708681,2024-11-24T08:08:28.681Z,34256,0.08129289,-0.050703693,-0.033268843
1732435708690,2024-11-24T08:08:28.690Z,34265,0.09857524,-0.046683278,0.0024037918
1732435708692,2024-11-24T08:08:28.692Z,34267,0.09857524,-0.046683278,0.0024037918
1732435708705,2024-11-24T08:08:28.705Z,34280,0.028493337,-0.0641831,0.02806687
1732435708713,2024-11-24T08:08:28.713Z,34288,0.028493337,-0.0641831,0.02806687
1732435708738,2024-11-24T08:08:28.738Z,34313,0.029237088,-0.051935434,0.005719062
1732435708743,2024-11-24T08:08:28.743Z,34318,0.029237088,-0.051935434,0.005719062
1732435708754,2024-11-24T08:08:28.754Z,34329,0.023675296,-0.0557102,5.3757016E-4
1732435708757,2024-11-24T08:08:28.757Z,34332,0.023675296,-0.0557102,5.3757016E-4
1732435708766,2024-11-24T08:08:28.766Z,34341,0.033486523,-0.055618595,0.033709463
1732435708769,2024-11-24T08:08:28.769Z,34344,0.033486523,-0.055618595,0.033709463
1732435708777,2024-11-24T08:08:28.777Z,34352,0.048509274,-0.04495869,0.01709705
1732435708779,2024-11-24T08:08:28.779Z,34354,0.048509274,-0.04495869,0.01709705
1732435708787,2024-11-24T08:08:28.787Z,34362,0.089334644,-0.035424132,0.05027943
1732435708789,2024-11-24T08:08:28.789Z,34364,0.089334644,-0.035424132,0.05027943
1732435708798,2024-11-24T08:08:28.798Z,34373,0.09419188,-0.04027028,0.005312646
1732435708800,2024-11-24T08:08:28.800Z,34375,0.09419188,-0.04027028,0.005312646
1732435708809,2024-11-24T08:08:28.809Z,34384,0.0014505956,-0.043670546,-0.021576766
1732435708811,2024-11-24T08:08:28.811Z,34386,0.0014505956,-0.043670546,-0.021576766
1732435708820,2024-11-24T08:08:28.820Z,34395,0.024654118,-0.052448027,0.020984255
1732435708822,2024-11-24T08:08:28.822Z,34397,0.024654118,-0.052448027,0.020984255
1732435708831,2024-11-24T08:08:28.831Z,34406,0.031538237,-0.056757852,0.026494764
1732435708834,2024-11-24T08:08:28.834Z,34409,0.031538237,-0.056757852,0.026494764
1732435708841,2024-11-24T08:08:28.841Z,34416,0.025057308,-0.06558843,0.012298578
1732435708843,2024-11-24T08:08:28.843Z,34418,0.025057308,-0.06558843,0.012298578
1732435708851,2024-11-24T08:08:28.851Z,34426,0.0107747065,-0.03837706,0.0311672
1732435708853,2024-11-24T08:08:28.853Z,34428,0.0107747065,-0.03837706,0.0311672
1732435708862,2024-11-24T08:08:28.862Z,34437,0.036827344,-0.052514546,0.012896262
1732435708865,2024-11-24T08:08:28.865Z,34440,0.036827344,-0.052514546,0.012896262
1732435708872,2024-11-24T08:08:28.872Z,34447,-0.041498467,-0.05595157,0.0031333456
1732435708874,2024-11-24T08:08:28.874Z,34449,-0.041498467,-0.05595157,0.0031333456
1732435708882,2024-11-24T08:08:28.882Z,34457,-0.022872468,-0.03655075,-0.008859875
1732435708885,2024-11-24T08:08:28.885Z,34460,-0.022872468,-0.03655075,-0.008859875
1732435708891,2024-11-24T08:08:28.891Z,34466,-0.022244005,-0.05937294,0.018030576
1732435708894,2024-11-24T08:08:28.894Z,34469,-0.022244005,-0.05937294,0.018030576
1732435708902,2024-11-24T08:08:28.902Z,34477,-0.017760398,-0.030597534,0.017645653
1732435708905,2024-11-24T08:08:28.905Z,34480,-0.017760398,-0.030597534,0.017645653
1732435708915,2024-11-24T08:08:28.915Z,34490,0.026149716,-0.033031646,0.0053026625
1732435708918,2024-11-24T08:08:28.918Z,34493,0.026149716,-0.033031646,0.0053026625
1732435708926,2024-11-24T08:08:28.926Z,34501,0.016221356,-0.034737274,-0.010021717
1732435708929,2024-11-24T08:08:28.929Z,34504,0.016221356,-0.034737274,-0.010021717
1732435708937,2024-11-24T08:08:28.937Z,34512,0.027502554,-0.028697995,0.019528562
1732435708939,2024-11-24T08:08:28.939Z,34514,0.027502554,-0.028697995,0.019528562
1732435708947,2024-11-24T08:08:28.947Z,34522,0.015930707,-0.036350127,0.02112233
1732435708950,2024-11-24T08:08:28.950Z,34525,0.015930707,-0.036350127,0.02112233
1732435708960,2024-11-24T08:08:28.960Z,34535,-0.014008557,-0.027973888,0.037342034
1732435708963,2024-11-24T08:08:28.963Z,34538,-0.014008557,-0.027973888,0.037342034
1732435708971,2024-11-24T08:08:28.971Z,34546,-0.0135662025,-0.0043044756,0.029442785
1732435708974,2024-11-24T08:08:28.974Z,34549,-0.0135662025,-0.0043044756,0.029442785
1732435708983,2024-11-24T08:08:28.983Z,34558,5.262803E-4,-0.017769977,0.027735291
1732435708986,2024-11-24T08:08:28.986Z,34561,5.262803E-4,-0.017769977,0.027735291
1732435708996,2024-11-24T08:08:28.996Z,34571,-0.02572895,-0.010034116,-0.021598134
1732435708998,2024-11-24T08:08:28.998Z,34573,-0.02572895,-0.010034116,-0.021598134
1732435709008,2024-11-24T08:08:29.008Z,34583,-0.03613973,-0.035090283,-0.01933104
1732435709011,2024-11-24T08:08:29.011Z,34586,-0.03613973,-0.035090283,-0.01933104
1732435709019,2024-11-24T08:08:29.019Z,34594,-0.016136872,-0.027718127,0.013171346
1732435709022,2024-11-24T08:08:29.022Z,34597,-0.016136872,-0.027718127,0.013171346
1732435709029,2024-11-24T08:08:29.029Z,34604,0.002540937,-0.016805377,0.01154878
1732435709032,2024-11-24T08:08:29.032Z,34607,0.002540937,-0.016805377,0.01154878
1732435709041,2024-11-24T08:08:29.041Z,34616,-0.027349047,-0.016549228,0.02148514
1732435709044,2024-11-24T08:08:29.044Z,34619,-0.027349047,-0.016549228,0.02148514
1732435709053,2024-11-24T08:08:29.053Z,34628,-0.035384163,-0.025071725,-6.678153E-4
1732435709055,2024-11-24T08:08:29.055Z,34630,-0.035384163,-0.025071725,-6.678153E-4
1732435709062,2024-11-24T08:08:29.062Z,34637,-0.032284904,-0.019113649,-0.0020037922
1732435709065,2024-11-24T08:08:29.065Z,34640,-0.032284904,-0.019113649,-0.0020037922
1732435709072,2024-11-24T08:08:29.072Z,34647,0.013279029,-0.03806003,-0.012738679
1732435709074,2024-11-24T08:08:29.074Z,34649,0.013279029,-0.03806003,-0.012738679
1732435709082,2024-11-24T08:08:29.082Z,34657,-0.028060075,0.0026869543,0.04731643
1732435709086,2024-11-24T08:08:29.086Z,34661,-0.028060075,0.0026869543,0.04731643
1732435709097,2024-11-24T08:08:29.097Z,34672,0.014076072,0.0014651341,0.0057222806
1732435709099,2024-11-24T08:08:29.099Z,34674,0.014076072,0.0014651341,0.0057222806
1732435709107,2024-11-24T08:08:29.107Z,34682,-0.03793519,-0.006650285,-0.010769433
1732435709110,2024-11-24T08:08:29.110Z,34685,-0.03793519,-0.006650285,-0.010769433
1732435709118,2024-11-24T08:08:29.118Z,34693,-0.0049264235,-0.0040591196,0.009237014
1732435709121,2024-11-24T08:08:29.121Z,34696,-0.0049264235,-0.0040591196,0.009237014
1732435709132,2024-11-24T08:08:29.132Z,34707,-0.022165842,0.009516466,-0.016599484
1732435709136,2024-11-24T08:08:29.136Z,34711,-0.022165842,0.009516466,-0.016599484
1732435709150,2024-11-24T08:08:29.150Z,34725,0.019833988,0.0014735946,-0.023850355
1732435709155,2024-11-24T08:08:29.155Z,34730,0.019833988,0.0014735946,-0.023850355
1732435709172,2024-11-24T08:08:29.172Z,34747,0.031839777,0.0067112595,-0.011258246
1732435709177,2024-11-24T08:08:29.177Z,34752,0.031839777,0.0067112595,-0.011258246
1732435709196,2024-11-24T08:08:29.196Z,34771,0.015045315,-0.0049725673,-0.007812714
1732435709202,2024-11-24T08:08:29.202Z,34777,0.015045315,-0.0049725673,-0.007812714
1732435709222,2024-11-24T08:08:29.222Z,34797,-0.011994168,-0.011769599,-0.021975847
1732435709227,2024-11-24T08:08:29.227Z,34802,-0.011994168,-0.011769599,-0.021975847
1732435709238,2024-11-24T08:08:29.238Z,34813,-0.0032453751,4.15734E-4,0.0025164427
1732435709240,2024-11-24T08:08:29.240Z,34815,-0.0032453751,4.15734E-4,0.0025164427
1732435709253,2024-11-24T08:08:29.253Z,34828,0.028169429,-0.017306592,-7.6675566E-4
1732435709255,2024-11-24T08:08:29.255Z,34830,0.028169429,-0.017306592,-7.6675566E-4
1732435709266,2024-11-24T08:08:29.266Z,34841,0.033532616,-0.019529967,-0.017648432
1732435709269,2024-11-24T08:08:29.269Z,34844,0.033532616,-0.019529967,-0.017648432
1732435709279,2024-11-24T08:08:29.279Z,34854,-0.007379059,-0.01983124,-0.050372187
1732435709283,2024-11-24T08:08:29.283Z,34858,-0.007379059,-0.01983124,-0.050372187
1732435709295,2024-11-24T08:08:29.295Z,34870,-0.010463854,-0.021445261,-0.06219551
1732435709301,2024-11-24T08:08:29.301Z,34876,-0.010463854,-0.021445261,-0.06219551
1732435709314,2024-11-24T08:08:29.314Z,34889,-0.009907597,-0.007250498,-0.0290196
1732435709319,2024-11-24T08:08:29.319Z,34894,-0.009907597,-0.007250498,-0.0290196
1732435709335,2024-11-24T08:08:29.335Z,34910,0.024158837,0.0022976717,0.0366989
1732435709341,2024-11-24T08:08:29.341Z,34916,0.024158837,0.0022976717,0.0366989
1732435709356,2024-11-24T08:08:29.356Z,34931,-0.013955898,-0.008487489,-0.00924734
1732435709359,2024-11-24T08:08:29.359Z,34934,-0.013955898,-0.008487489,-0.00924734
1732435709370,2024-11-24T08:08:29.370Z,34945,-0.020849813,-0.015635876,-0.016105149
1732435709373,2024-11-24T08:08:29.373Z,34948,-0.020849813,-0.015635876,-0.016105149
1732435709381,2024-11-24T08:08:29.381Z,34956,-0.009135499,-0.0023002003,-0.023432946
1732435709384,2024-11-24T08:08:29.384Z,34959,-0.009135499,-0.0023002003,-0.023432946
1732435709392,2024-11-24T08:08:29.392Z,34967,-0.013553682,0.008579194,-0.046128068
1732435709395,2024-11-24T08:08:29.395Z,34970,-0.013553682,0.008579194,-0.046128068
1732435709404,2024-11-24T08:08:29.404Z,34979,0.032642215,0.022959115,-0.04100225
1732435709407,2024-11-24T08:08:29.407Z,34982,0.032642215,0.022959115,-0.04100225
1732435709415,2024-11-24T08:08:29.415Z,34990,0.008801234,0.0071634613,-0.029594364
1732435709418,2024-11-24T08:08:29.418Z,34993,0.008801234,0.0071634613,-0.029594364
1732435709427,2024-11-24T08:08:29.427Z,35002,0.009741838,-0.0013103157,0.005204017
1732435709430,2024-11-24T08:08:29.430Z,35005,0.009741838,-0.0013103157,0.005204017
1732435709438,2024-11-24T08:08:29.438Z,35013,0.010959841,-0.016576165,-0.04168988
1732435709440,2024-11-24T08:08:29.440Z,35015,0.010959841,-0.016576165,-0.04168988
1732435709448,2024-11-24T08:08:29.448Z,35023,-0.024215484,-0.005075942,-0.049566716
1732435709450,2024-11-24T08:08:29.450Z,35025,-0.024215484,-0.005075942,-0.049566716
1732435709459,2024-11-24T08:08:29.459Z,35034,-0.017961336,-0.006850907,-0.05865059
1732435709463,2024-11-24T08:08:29.463Z,35038,-0.017961336,-0.006850907,-0.05865059
1732435709481,2024-11-24T08:08:29.481Z,35056,-0.032998532,0.0017554185,0.0057948153
1732435709486,2024-11-24T08:08:29.486Z,35061,-0.032998532,0.0017554185,0.0057948153
1732435709506,2024-11-24T08:08:29.506Z,35081,-0.0072849477,-0.013801882,-0.0019092947
1732435709512,2024-11-24T08:08:29.512Z,35087,-0.0072849477,-0.013801882,-0.0019092947
1732435709525,2024-11-24T08:08:29.525Z,35100,-0.0041902093,-0.0034527802,-0.0010148893
1732435709528,2024-11-24T08:08:29.528Z,35103,-0.0041902093,-0.0034527802,-0.0010148893
1732435709542,2024-11-24T08:08:29.542Z,35117,0.026551714,-0.0061381785,-0.015294166
1732435709545,2024-11-24T08:08:29.545Z,35120,0.026551714,-0.0061381785,-0.015294166
1732435709556,2024-11-24T08:08:29.556Z,35131,0.011148162,-0.0129678855,-0.0016045934
1732435709559,2024-11-24T08:08:29.559Z,35134,0.011148162,-0.0129678855,-0.0016045934
1732435709569,2024-11-24T08:08:29.569Z,35144,0.0045148954,-0.008584251,0.0075538075
1732435709572,2024-11-24T08:08:29.572Z,35147,0.0045148954,-0.008584251,0.0075538075
1732435709583,2024-11-24T08:08:29.583Z,35158,-0.009694552,-0.023865951,-0.013510887
1732435709588,2024-11-24T08:08:29.588Z,35163,-0.009694552,-0.023865951,-0.013510887
1732435709604,2024-11-24T08:08:29.604Z,35179,-0.0377697,-0.021545425,-0.0464789
1732435709609,2024-11-24T08:08:29.609Z,35184,-0.0377697,-0.021545425,-0.0464789
1732435709623,2024-11-24T08:08:29.623Z,35198,-0.017535854,-0.017388377,-0.0698936
1732435709626,2024-11-24T08:08:29.626Z,35201,-0.017535854,-0.017388377,-0.0698936
1732435709637,2024-11-24T08:08:29.637Z,35212,0.014079573,-0.024214778,-0.030892797
1732435709640,2024-11-24T08:08:29.640Z,35215,0.014079573,-0.024214778,-0.030892797
1732435709649,2024-11-24T08:08:29.649Z,35224,0.02221444,-0.018432818,-0.011583655
1732435709652,2024-11-24T08:08:29.652Z,35227,0.02221444,-0.018432818,-0.011583655
1732435709661,2024-11-24T08:08:29.661Z,35236,0.004443102,-0.030727264,-0.005543144
1732435709664,2024-11-24T08:08:29.664Z,35239,0.004443102,-0.030727264,-0.005543144
1732435709672,2024-11-24T08:08:29.672Z,35247,0.018757066,-0.021350542,3.586982E-4
1732435709674,2024-11-24T08:08:29.674Z,35249,0.018757066,-0.021350542,3.586982E-4
1732435709681,2024-11-24T08:08:29.681Z,35256,-0.005798735,-0.02556127,-0.015928507
1732435709684,2024-11-24T08:08:29.684Z,35259,-0.005798735,-0.02556127,-0.015928507
1732435709692,2024-11-24T08:08:29.692Z,35267,-0.0019269635,-0.02347725,-0.023551768
1732435709694,2024-11-24T08:08:29.694Z,35269,-0.0019269635,-0.02347725,-0.023551768
1732435709702,2024-11-24T08:08:29.702Z,35277,0.009390677,-0.03056768,-0.026306776
1732435709705,2024-11-24T08:08:29.705Z,35280,0.009390677,-0.03056768,-0.026306776
1732435709713,2024-11-24T08:08:29.713Z,35288,0.013390159,-0.030955503,-0.013225349
1732435709716,2024-11-24T08:08:29.716Z,35291,0.013390159,-0.030955503,-0.013225349
1732435709725,2024-11-24T08:08:29.725Z,35300,-0.0053919484,-0.030431047,-0.010005027
1732435709728,2024-11-24T08:08:29.728Z,35303,-0.0053919484,-0.030431047,-0.010005027
1732435709737,2024-11-24T08:08:29.737Z,35312,0.033556636,-0.025448851,-0.0016366547
1732435709739,2024-11-24T08:08:29.739Z,35314,0.033556636,-0.025448851,-0.0016366547
1732435709747,2024-11-24T08:08:29.747Z,35322,-0.01114945,-0.021437384,-5.9537485E-4
1732435709750,2024-11-24T08:08:29.750Z,35325,-0.01114945,-0.021437384,-5.9537485E-4
1732435709758,2024-11-24T08:08:29.758Z,35333,0.0070923488,-0.015025063,0.0049202726
1732435709761,2024-11-24T08:08:29.761Z,35336,0.0070923488,-0.015025063,0.0049202726
1732435709769,2024-11-24T08:08:29.769Z,35344,0.015649905,-0.008643182,-0.02470594
1732435709771,2024-11-24T08:08:29.771Z,35346,0.015649905,-0.008643182,-0.02470594
1732435709780,2024-11-24T08:08:29.780Z,35355,-0.0064805145,-0.0019304644,-0.0016322178
1732435709782,2024-11-24T08:08:29.782Z,35357,-0.0064805145,-0.0019304644,-0.0016322178
1732435709790,2024-11-24T08:08:29.790Z,35365,-0.0010544084,-0.0015619928,-0.029314157
1732435709793,2024-11-24T08:08:29.793Z,35368,-0.0010544084,-0.0015619928,-0.029314157
1732435709802,2024-11-24T08:08:29.802Z,35377,0.03147622,0.009151301,-0.024542514
1732435709805,2024-11-24T08:08:29.805Z,35380,0.03147622,0.009151301,-0.024542514
1732435709814,2024-11-24T08:08:29.814Z,35389,0.029053533,0.011728074,-0.03148645
1732435709817,2024-11-24T08:08:29.817Z,35392,0.029053533,0.011728074,-0.03148645
1732435709827,2024-11-24T08:08:29.827Z,35402,0.02486201,-7.324698E-4,-0.032965615
1732435709833,2024-11-24T08:08:29.833Z,35408,0.02486201,-7.324698E-4,-0.032965615
1732435709842,2024-11-24T08:08:29.842Z,35417,0.0061648246,0.0034202994,-0.018030858
1732435709844,2024-11-24T08:08:29.844Z,35419,0.0061648246,0.0034202994,-0.018030858
1732435709853,2024-11-24T08:08:29.853Z,35428,0.022700898,-0.003828059,-0.013739716
1732435709855,2024-11-24T08:08:29.855Z,35430,0.022700898,-0.003828059,-0.013739716
1732435709862,2024-11-24T08:08:29.862Z,35437,0.022300603,-0.002607114,0.01864009
1732435709864,2024-11-24T08:08:29.864Z,35439,0.022300603,-0.002607114,0.01864009
1732435709872,2024-11-24T08:08:29.872Z,35447,0.02138098,-0.0067961565,0.017541105
1732435709874,2024-11-24T08:08:29.874Z,35449,0.02138098,-0.0067961565,0.017541105
1732435709884,2024-11-24T08:08:29.884Z,35459,-0.02764891,-0.009354063,-0.010478113
1732435709887,2024-11-24T08:08:29.887Z,35462,-0.02764891,-0.009354063,-0.010478113
1732435709894,2024-11-24T08:08:29.894Z,35469,0.001851402,-0.009785648,-0.0034523911
1732435709896,2024-11-24T08:08:29.896Z,35471,0.001851402,-0.009785648,-0.0034523911
1732435709904,2024-11-24T08:08:29.904Z,35479,-8.2332344E-4,-0.004844103,-0.011954759
1732435709907,2024-11-24T08:08:29.907Z,35482,-8.2332344E-4,-0.004844103,-0.011954759
1732435709918,2024-11-24T08:08:29.918Z,35493,0.022130249,-0.0026791745,-8.645322E-5
1732435709922,2024-11-24T08:08:29.922Z,35497,0.022130249,-0.0026791745,-8.645322E-5
1732435709929,2024-11-24T08:08:29.929Z,35504,0.019850058,-0.0030440479,0.012672119
1732435709932,2024-11-24T08:08:29.932Z,35507,0.019850058,-0.0030440479,0.012672119
1732435709940,2024-11-24T08:08:29.940Z,35515,-0.010448319,0.009308357,-0.02892107
1732435709944,2024-11-24T08:08:29.944Z,35519,-0.010448319,0.009308357,-0.02892107
1732435709953,2024-11-24T08:08:29.953Z,35528,-0.004376512,0.006584643,-0.022412462
1732435709956,2024-11-24T08:08:29.956Z,35531,-0.004376512,0.006584643,-0.022412462
1732435709963,2024-11-24T08:08:29.963Z,35538,0.014328503,0.009724577,0.0065011675
1732435709966,2024-11-24T08:08:29.966Z,35541,0.014328503,0.009724577,0.0065011675
1732435709973,2024-11-24T08:08:29.973Z,35548,0.014802342,0.01789465,0.002192547
1732435709975,2024-11-24T08:08:29.975Z,35550,0.014802342,0.01789465,0.002192547
1732435709982,2024-11-24T08:08:29.982Z,35557,-0.009263963,0.013603691,0.003411778
1732435709985,2024-11-24T08:08:29.985Z,35560,-0.009263963,0.013603691,0.003411778
1732435709994,2024-11-24T08:08:29.994Z,35569,-0.0024402125,0.015117547,-0.015047224
1732435709997,2024-11-24T08:08:29.997Z,35572,-0.0024402125,0.015117547,-0.015047224
1732435710005,2024-11-24T08:08:30.005Z,35580,0.024853598,0.014690337,5.3E-4
1732435710008,2024-11-24T08:08:30.008Z,35583,0.024853598,0.014690337,5.3E-4
1732435710017,2024-11-24T08:08:30.017Z,35592,0.009985784,0.013279759,-0.010841771
1732435710020,2024-11-24T08:08:30.020Z,35595,0.009985784,0.013279759,-0.010841771
1732435710027,2024-11-24T08:08:30.027Z,35602,-0.010369573,0.007490797,-0.027149009
1732435710030,2024-11-24T08:08:30.030Z,35605,-0.010369573,0.007490797,-0.027149009
1732435710038,2024-11-24T08:08:30.038Z,35613,0.012952423,-0.002457158,-0.015881306
1732435710040,2024-11-24T08:08:30.040Z,35615,0.012952423,-0.002457158,-0.015881306
1732435710048,2024-11-24T08:08:30.048Z,35623,0.011459647,0.002986769,-0.011247306
1732435710051,2024-11-24T08:08:30.051Z,35626,0.011459647,0.002986769,-0.011247306
1732435710058,2024-11-24T08:08:30.058Z,35633,0.0032556346,-0.010647944,-0.010074851
1732435710061,2024-11-24T08:08:30.061Z,35636,0.0032556346,-0.010647944,-0.010074851
1732435710070,2024-11-24T08:08:30.070Z,35645,-0.009703863,-0.020834545,-0.020911042
1732435710072,2024-11-24T08:08:30.072Z,35647,-0.009703863,-0.020834545,-0.020911042
1732435710079,2024-11-24T08:08:30.079Z,35654,0.002135803,-0.03885406,-0.019646177
1732435710082,2024-11-24T08:08:30.082Z,35657,0.002135803,-0.03885406,-0.019646177
1732435710090,2024-11-24T08:08:30.090Z,35665,0.0144313425,-0.03925326,-0.015251688
1732435710092,2024-11-24T08:08:30.092Z,35667,0.0144313425,-0.03925326,-0.015251688
1732435710101,2024-11-24T08:08:30.101Z,35676,-0.006614449,-0.06652288,0.014896514
1732435710103,2024-11-24T08:08:30.103Z,35678,-0.006614449,-0.06652288,0.014896514
1732435710110,2024-11-24T08:08:30.110Z,35685,-0.030514922,-0.072484456,0.03205519
1732435710112,2024-11-24T08:08:30.112Z,35687,-0.030514922,-0.072484456,0.03205519
1732435710120,2024-11-24T08:08:30.120Z,35695,-0.04340122,-0.08045693,0.01749733
1732435710122,2024-11-24T08:08:30.122Z,35697,-0.04340122,-0.08045693,0.01749733
1732435710130,2024-11-24T08:08:30.130Z,35705,-0.033701416,-0.09210924,0.012774898
1732435710132,2024-11-24T08:08:30.132Z,35707,-0.033701416,-0.09210924,0.012774898
1732435710139,2024-11-24T08:08:30.139Z,35714,-0.036217116,-0.10841633,0.0032272383
1732435710141,2024-11-24T08:08:30.141Z,35716,-0.036217116,-0.10841633,0.0032272383
1732435710148,2024-11-24T08:08:30.148Z,35723,-0.043423925,-0.13402972,0.030890202
1732435710150,2024-11-24T08:08:30.150Z,35725,-0.043423925,-0.13402972,0.030890202
1732435710157,2024-11-24T08:08:30.157Z,35732,-0.057730667,-0.15364896,0.056050908
1732435710159,2024-11-24T08:08:30.159Z,35734,-0.057730667,-0.15364896,0.056050908
1732435710169,2024-11-24T08:08:30.169Z,35744,-0.07240469,-0.15998319,0.0897981
1732435710172,2024-11-24T08:08:30.172Z,35747,-0.07240469,-0.15998319,0.0897981
1732435710180,2024-11-24T08:08:30.180Z,35755,-0.0634791,-0.15517993,0.09396767
1732435710183,2024-11-24T08:08:30.183Z,35758,-0.0634791,-0.15517993,0.09396767
1732435710191,2024-11-24T08:08:30.191Z,35766,-0.047178805,-0.16511786,0.09282129
1732435710193,2024-11-24T08:08:30.193Z,35768,-0.047178805,-0.16511786,0.09282129
1732435710199,2024-11-24T08:08:30.199Z,35774,-0.0778271,-0.15603814,0.03963389
1732435710202,2024-11-24T08:08:30.202Z,35777,-0.0778271,-0.15603814,0.03963389
1732435710209,2024-11-24T08:08:30.209Z,35784,-0.06275322,-0.14376752,0.022851426
1732435710212,2024-11-24T08:08:30.212Z,35787,-0.06275322,-0.14376752,0.022851426
1732435710220,2024-11-24T08:08:30.220Z,35795,-0.030294463,-0.13833167,0.051543795
1732435710222,2024-11-24T08:08:30.222Z,35797,-0.030294463,-0.13833167,0.051543795
1732435710229,2024-11-24T08:08:30.229Z,35804,-0.049694456,-0.14316595,0.08150098
1732435710231,2024-11-24T08:08:30.231Z,35806,-0.049694456,-0.14316595,0.08150098
1732435710239,2024-11-24T08:08:30.239Z,35814,-0.058650706,-0.14613414,0.092830114
1732435710241,2024-11-24T08:08:30.241Z,35816,-0.058650706,-0.14613414,0.092830114
1732435710257,2024-11-24T08:08:30.257Z,35832,-0.039766196,-0.14671092,0.12844771
1732435710261,2024-11-24T08:08:30.261Z,35836,-0.039766196,-0.14671092,0.12844771
1732435710274,2024-11-24T08:08:30.274Z,35849,-0.047069427,-0.17184284,0.08261118
1732435710276,2024-11-24T08:08:30.276Z,35851,-0.047069427,-0.17184284,0.08261118
1732435710285,2024-11-24T08:08:30.285Z,35860,-0.07023325,-0.18290506,0.101479866
1732435710290,2024-11-24T08:08:30.290Z,35865,-0.07023325,-0.18290506,0.101479866
1732435710307,2024-11-24T08:08:30.307Z,35882,-0.05855572,-0.19067602,0.14023384
1732435710313,2024-11-24T08:08:30.313Z,35888,-0.05855572,-0.19067602,0.14023384
1732435710327,2024-11-24T08:08:30.327Z,35902,-0.062501006,-0.18236251,0.108963184
1732435710336,2024-11-24T08:08:30.336Z,35911,-0.062501006,-0.18236251,0.108963184
1732435710349,2024-11-24T08:08:30.349Z,35924,-0.088730514,-0.16368376,0.09444103
1732435710351,2024-11-24T08:08:30.351Z,35926,-0.088730514,-0.16368376,0.09444103
1732435710358,2024-11-24T08:08:30.358Z,35933,-0.06363205,-0.17386161,0.083097406
1732435710361,2024-11-24T08:08:30.361Z,35936,-0.06363205,-0.17386161,0.083097406
1732435710368,2024-11-24T08:08:30.368Z,35943,-0.10792359,-0.19464412,0.043677803
1732435710370,2024-11-24T08:08:30.370Z,35945,-0.10792359,-0.19464412,0.043677803
1732435710377,2024-11-24T08:08:30.377Z,35952,-0.06960671,-0.21979578,0.06811393
1732435710379,2024-11-24T08:08:30.379Z,35954,-0.06960671,-0.21979578,0.06811393
1732435710386,2024-11-24T08:08:30.386Z,35961,-0.03182536,-0.22743382,0.10574335
1732435710390,2024-11-24T08:08:30.390Z,35965,-0.03182536,-0.22743382,0.10574335
1732435710399,2024-11-24T08:08:30.399Z,35974,0.019664072,-0.2128026,0.09782008
1732435710402,2024-11-24T08:08:30.402Z,35977,0.019664072,-0.2128026,0.09782008
1732435710409,2024-11-24T08:08:30.409Z,35984,0.04647454,-0.23840618,0.09624909
1732435710411,2024-11-24T08:08:30.411Z,35986,0.04647454,-0.23840618,0.09624909
1732435710437,2024-11-24T08:08:30.437Z,36012,-0.04132488,-0.22747767,0.055945236
1732435710443,2024-11-24T08:08:30.443Z,36018,-0.04132488,-0.22747767,0.055945236
1732435710458,2024-11-24T08:08:30.458Z,36033,0.0024105764,-0.28461674,0.26474068
1732435710463,2024-11-24T08:08:30.463Z,36038,0.0024105764,-0.28461674,0.26474068
1732435710476,2024-11-24T08:08:30.476Z,36051,-0.0071762977,-0.25960267,0.13541256
1732435710479,2024-11-24T08:08:30.479Z,36054,-0.0071762977,-0.25960267,0.13541256
1732435710491,2024-11-24T08:08:30.491Z,36066,0.02658597,-0.23276338,0.10174565
1732435710494,2024-11-24T08:08:30.494Z,36069,0.02658597,-0.23276338,0.10174565
1732435710506,2024-11-24T08:08:30.506Z,36081,0.06555709,-0.21603142,0.08223307
1732435710512,2024-11-24T08:08:30.512Z,36087,0.06555709,-0.21603142,0.08223307
1732435710533,2024-11-24T08:08:30.533Z,36108,-0.022048391,-0.18877484,-0.021360248
1732435710538,2024-11-24T08:08:30.538Z,36113,-0.022048391,-0.18877484,-0.021360248
1732435710550,2024-11-24T08:08:30.550Z,36125,0.0086181415,-0.20268592,-0.020131651
1732435710554,2024-11-24T08:08:30.554Z,36129,0.0086181415,-0.20268592,-0.020131651
1732435710565,2024-11-24T08:08:30.565Z,36140,0.08901183,-0.2131665,-0.001270353
1732435710569,2024-11-24T08:08:30.569Z,36144,0.08901183,-0.2131665,-0.001270353
1732435710579,2024-11-24T08:08:30.579Z,36154,0.07274994,-0.12999724,0.06561076
1732435710582,2024-11-24T08:08:30.582Z,36157,0.07274994,-0.12999724,0.06561076
1732435710591,2024-11-24T08:08:30.591Z,36166,0.094047315,-0.109763496,0.022946674
1732435710593,2024-11-24T08:08:30.593Z,36168,0.094047315,-0.109763496,0.022946674
1732435710602,2024-11-24T08:08:30.602Z,36177,0.08474939,-0.112548284,-0.05168676
1732435710605,2024-11-24T08:08:30.605Z,36180,0.08474939,-0.112548284,-0.05168676
1732435710613,2024-11-24T08:08:30.613Z,36188,0.15402745,-0.07683766,0.015660997
1732435710615,2024-11-24T08:08:30.615Z,36190,0.15402745,-0.07683766,0.015660997
1732435710623,2024-11-24T08:08:30.623Z,36198,0.16636407,-0.033884898,0.038702298
1732435710625,2024-11-24T08:08:30.625Z,36200,0.16636407,-0.033884898,0.038702298
1732435710632,2024-11-24T08:08:30.632Z,36207,0.10585905,-0.039760508,0.039981157
1732435710634,2024-11-24T08:08:30.634Z,36209,0.10585905,-0.039760508,0.039981157
1732435710641,2024-11-24T08:08:30.641Z,36216,0.1884165,0.017410647,0.118783586
1732435710644,2024-11-24T08:08:30.644Z,36219,0.1884165,0.017410647,0.118783586
1732435710651,2024-11-24T08:08:30.651Z,36226,0.122274004,-0.027312119,-0.08808506
1732435710653,2024-11-24T08:08:30.653Z,36228,0.122274004,-0.027312119,-0.08808506
1732435710660,2024-11-24T08:08:30.660Z,36235,0.078741476,-0.060938336,-0.19965817
1732435710663,2024-11-24T08:08:30.663Z,36238,0.078741476,-0.060938336,-0.19965817
1732435710670,2024-11-24T08:08:30.670Z,36245,0.15149026,-0.009174057,-0.03987545
1732435710673,2024-11-24T08:08:30.673Z,36248,0.15149026,-0.009174057,-0.03987545
1732435710679,2024-11-24T08:08:30.679Z,36254,0.17190576,-0.021600565,0.09241738
1732435710682,2024-11-24T08:08:30.682Z,36257,0.17190576,-0.021600565,0.09241738
1732435710690,2024-11-24T08:08:30.690Z,36265,0.1062477,0.024896387,0.044499807
1732435710692,2024-11-24T08:08:30.692Z,36267,0.1062477,0.024896387,0.044499807
1732435710709,2024-11-24T08:08:30.709Z,36284,0.15985735,0.034278847,-0.07916662
1732435710710,2024-11-24T08:08:30.710Z,36285,0.15985735,0.034278847,-0.07916662
1732435710718,2024-11-24T08:08:30.718Z,36293,0.1624142,0.020802842,-0.16513628
1732435710720,2024-11-24T08:08:30.720Z,36295,0.1624142,0.020802842,-0.16513628
1732435710755,2024-11-24T08:08:30.755Z,36330,0.08457313,0.075348355,-0.08833051
1732435710762,2024-11-24T08:08:30.762Z,36337,0.08457313,0.075348355,-0.08833051
1732435710786,2024-11-24T08:08:30.786Z,36361,0.14416365,0.055062823,0.03187676
1732435710793,2024-11-24T08:08:30.793Z,36368,0.14416365,0.055062823,0.03187676
1732435710813,2024-11-24T08:08:30.813Z,36388,0.12571424,0.13355418,0.0018654148
1732435710819,2024-11-24T08:08:30.819Z,36394,0.12571424,0.13355418,0.0018654148
1732435710839,2024-11-24T08:08:30.839Z,36414,0.2018824,0.10911636,0.107776605
1732435710845,2024-11-24T08:08:30.845Z,36420,0.2018824,0.10911636,0.107776605
1732435710858,2024-11-24T08:08:30.858Z,36433,0.068651296,0.119225845,-0.11711317
1732435710862,2024-11-24T08:08:30.862Z,36437,0.068651296,0.119225845,-0.11711317
1732435710874,2024-11-24T08:08:30.874Z,36449,0.16769588,0.12162232,-0.039499365
1732435710878,2024-11-24T08:08:30.878Z,36453,0.16769588,0.12162232,-0.039499365
1732435710889,2024-11-24T08:08:30.889Z,36464,0.15779626,0.09448418,-0.02162323
1732435710892,2024-11-24T08:08:30.892Z,36467,0.15779626,0.09448418,-0.02162323
1732435710902,2024-11-24T08:08:30.902Z,36477,0.22500116,0.12047937,0.045448743
1732435710905,2024-11-24T08:08:30.905Z,36480,0.22500116,0.12047937,0.045448743
1732435710913,2024-11-24T08:08:30.913Z,36488,0.108432755,0.12572335,-0.005700886
1732435710916,2024-11-24T08:08:30.916Z,36491,0.108432755,0.12572335,-0.005700886
1732435710925,2024-11-24T08:08:30.925Z,36500,-0.0021735837,0.121654704,-0.060913324
1732435710934,2024-11-24T08:08:30.934Z,36509,-0.0021735837,0.121654704,-0.060913324
1732435710944,2024-11-24T08:08:30.944Z,36519,0.05358495,0.11438806,-0.077139266
1732435710947,2024-11-24T08:08:30.947Z,36522,0.05358495,0.11438806,-0.077139266
1732435710956,2024-11-24T08:08:30.956Z,36531,0.11914262,0.14502342,-0.0124504
1732435710958,2024-11-24T08:08:30.958Z,36533,0.11914262,0.14502342,-0.0124504
1732435710965,2024-11-24T08:08:30.965Z,36540,0.15721692,0.13104212,-0.008461481
1732435710968,2024-11-24T08:08:30.968Z,36543,0.15721692,0.13104212,-0.008461481
1732435710975,2024-11-24T08:08:30.975Z,36550,0.10849181,0.119646534,-0.043732323
1732435710978,2024-11-24T08:08:30.978Z,36553,0.10849181,0.119646534,-0.043732323
1732435710986,2024-11-24T08:08:30.986Z,36561,0.045579176,0.12226153,-0.06646786
1732435710988,2024-11-24T08:08:30.988Z,36563,0.045579176,0.12226153,-0.06646786
1732435710995,2024-11-24T08:08:30.995Z,36570,0.051361114,0.124700405,-0.06824196
1732435710997,2024-11-24T08:08:30.997Z,36572,0.051361114,0.124700405,-0.06824196
1732435711006,2024-11-24T08:08:31.006Z,36581,0.025006909,0.13295294,-0.08263809
1732435711008,2024-11-24T08:08:31.008Z,36583,0.025006909,0.13295294,-0.08263809
1732435711014,2024-11-24T08:08:31.014Z,36589,0.006623396,0.106748424,-0.14614962
1732435711017,2024-11-24T08:08:31.017Z,36592,0.006623396,0.106748424,-0.14614962
1732435711026,2024-11-24T08:08:31.026Z,36601,0.19820614,0.08929276,-0.088760436
1732435711028,2024-11-24T08:08:31.028Z,36603,0.19820614,0.08929276,-0.088760436
1732435711036,2024-11-24T08:08:31.036Z,36611,0.008545984,0.0382555,-0.13699387
1732435711039,2024-11-24T08:08:31.039Z,36614,0.008545984,0.0382555,-0.13699387
1732435711047,2024-11-24T08:08:31.047Z,36622,0.025966477,0.03314494,-0.14846598
1732435711050,2024-11-24T08:08:31.050Z,36625,0.025966477,0.03314494,-0.14846598
1732435711056,2024-11-24T08:08:31.056Z,36631,0.05360897,0.046813007,-0.0891918
1732435711058,2024-11-24T08:08:31.058Z,36633,0.05360897,0.046813007,-0.0891918
1732435711068,2024-11-24T08:08:31.068Z,36643,0.012934967,0.028235873,-0.12400842
1732435711070,2024-11-24T08:08:31.070Z,36645,0.012934967,0.028235873,-0.12400842
1732435711078,2024-11-24T08:08:31.078Z,36653,0.14593393,0.051665377,-0.058176756
1732435711081,2024-11-24T08:08:31.081Z,36656,0.14593393,0.051665377,-0.058176756
1732435711088,2024-11-24T08:08:31.088Z,36663,0.015391931,0.04439582,-0.12852207
1732435711091,2024-11-24T08:08:31.091Z,36666,0.015391931,0.04439582,-0.12852207
1732435711113,2024-11-24T08:08:31.113Z,36688,0.17028819,0.17981866,-0.12056193
1732435711116,2024-11-24T08:08:31.116Z,36691,0.17028819,0.17981866,-0.12056193
1732435711124,2024-11-24T08:08:31.124Z,36699,-0.042589538,0.15171757,-0.18733434
1732435711126,2024-11-24T08:08:31.126Z,36701,-0.042589538,0.15171757,-0.18733434
1732435711155,2024-11-24T08:08:31.155Z,36730,0.08413943,0.15635434,-0.12499864
1732435711158,2024-11-24T08:08:31.158Z,36733,0.08413943,0.15635434,-0.12499864
1732435711166,2024-11-24T08:08:31.166Z,36741,0.0024608292,0.22856568,-0.1450927
1732435711169,2024-11-24T08:08:31.169Z,36744,0.0024608292,0.22856568,-0.1450927
1732435711178,2024-11-24T08:08:31.178Z,36753,0.13101232,0.19565272,-0.07553322
1732435711180,2024-11-24T08:08:31.180Z,36755,0.13101232,0.19565272,-0.07553322
1732435711188,2024-11-24T08:08:31.188Z,36763,0.07822995,0.23336427,-0.08533541
1732435711190,2024-11-24T08:08:31.190Z,36765,0.07822995,0.23336427,-0.08533541
1732435711203,2024-11-24T08:08:31.203Z,36778,0.028648302,0.25259015,-0.06092805
1732435711206,2024-11-24T08:08:31.206Z,36781,0.028648302,0.25259015,-0.06092805
1732435711214,2024-11-24T08:08:31.214Z,36789,0.008527871,0.23374441,-0.10852421
1732435711217,2024-11-24T08:08:31.217Z,36792,0.008527871,0.23374441,-0.10852421
1732435711246,2024-11-24T08:08:31.246Z,36821,0.0037160052,0.19658281,-0.07636272
1732435711250,2024-11-24T08:08:31.250Z,36825,0.0037160052,0.19658281,-0.07636272
1732435711259,2024-11-24T08:08:31.259Z,36834,-0.002865331,0.1848207,-0.07401115
1732435711261,2024-11-24T08:08:31.261Z,36836,-0.002865331,0.1848207,-0.07401115
1732435711270,2024-11-24T08:08:31.270Z,36845,0.052136738,0.16349067,-0.089878984
1732435711273,2024-11-24T08:08:31.273Z,36848,0.052136738,0.16349067,-0.089878984
1732435711281,2024-11-24T08:08:31.281Z,36856,0.022695428,0.15617283,-0.03472486
1732435711284,2024-11-24T08:08:31.284Z,36859,0.022695428,0.15617283,-0.03472486
1732435711294,2024-11-24T08:08:31.294Z,36869,-0.033453993,0.10039018,-0.08120755
1732435711296,2024-11-24T08:08:31.296Z,36871,-0.033453993,0.10039018,-0.08120755
1732435711304,2024-11-24T08:08:31.304Z,36879,-0.07489273,0.06583301,-0.10478495
1732435711307,2024-11-24T08:08:31.307Z,36882,-0.07489273,0.06583301,-0.10478495
1732435711336,2024-11-24T08:08:31.336Z,36911,0.017594663,0.045903936,-0.04418388
1732435711339,2024-11-24T08:08:31.339Z,36914,0.017594663,0.045903936,-0.04418388
1732435711383,2024-11-24T08:08:31.383Z,36958,-0.045690842,-0.0037481214,-0.057541605
1732435711387,2024-11-24T08:08:31.387Z,36962,-0.045690842,-0.0037481214,-0.057541605
1732435711400,2024-11-24T08:08:31.400Z,36975,-0.028902872,0.005206059,-0.051976565
1732435711406,2024-11-24T08:08:31.406Z,36981,-0.028902872,0.005206059,-0.051976565
1732435711424,2024-11-24T08:08:31.424Z,36999,-0.07179692,-9.1461476E-4,-0.057450052
1732435711430,2024-11-24T08:08:31.430Z,37005,-0.07179692,-9.1461476E-4,-0.057450052
1732435711444,2024-11-24T08:08:31.444Z,37019,-0.021902058,-0.01118125,-0.10284415
1732435711448,2024-11-24T08:08:31.448Z,37023,-0.021902058,-0.01118125,-0.10284415
1732435711459,2024-11-24T08:08:31.459Z,37034,-0.035703477,-0.013106269,-0.09893793
1732435711462,2024-11-24T08:08:31.462Z,37037,-0.035703477,-0.013106269,-0.09893793
1732435711472,2024-11-24T08:08:31.472Z,37047,-6.206106E-4,-0.023352677,-0.05598069
1732435711475,2024-11-24T08:08:31.475Z,37050,-6.206106E-4,-0.023352677,-0.05598069
1732435711523,2024-11-24T08:08:31.523Z,37098,-0.0074246926,-0.0058747344,-0.062794894
1732435711530,2024-11-24T08:08:31.530Z,37105,-0.0074246926,-0.0058747344,-0.062794894
1732435711549,2024-11-24T08:08:31.549Z,37124,0.008934269,0.010646486,-0.040233295
1732435711554,2024-11-24T08:08:31.554Z,37129,0.008934269,0.010646486,-0.040233295
1732435711572,2024-11-24T08:08:31.572Z,37147,-0.021505335,-0.020758303,-0.06318929
1732435711578,2024-11-24T08:08:31.578Z,37153,-0.021505335,-0.020758303,-0.06318929
1732435711597,2024-11-24T08:08:31.597Z,37172,0.023519676,0.003064081,-0.040456004
1732435711603,2024-11-24T08:08:31.603Z,37178,0.023519676,0.003064081,-0.040456004
1732435711622,2024-11-24T08:08:31.622Z,37197,0.015532357,-0.018068625,-0.048010673
1732435711626,2024-11-24T08:08:31.626Z,37201,0.015532357,-0.018068625,-0.048010673
1732435711636,2024-11-24T08:08:31.636Z,37211,0.034362238,-0.021341886,-0.016042598
1732435711639,2024-11-24T08:08:31.639Z,37214,0.034362238,-0.021341886,-0.016042598
1732435711652,2024-11-24T08:08:31.652Z,37227,0.03962565,-0.0021314754,0.009848531
1732435711654,2024-11-24T08:08:31.654Z,37229,0.03962565,-0.0021314754,0.009848531
1732435711663,2024-11-24T08:08:31.663Z,37238,0.006714614,0.050328318,-2.5195666E-4
1732435711665,2024-11-24T08:08:31.665Z,37240,0.006714614,0.050328318,-2.5195666E-4
1732435711673,2024-11-24T08:08:31.673Z,37248,0.01490292,0.06724514,0.050403643
1732435711675,2024-11-24T08:08:31.675Z,37250,0.01490292,0.06724514,0.050403643
1732435711688,2024-11-24T08:08:31.688Z,37263,0.013778713,0.084710635,0.0692895
1732435711690,2024-11-24T08:08:31.690Z,37265,0.013778713,0.084710635,0.0692895
1732435711701,2024-11-24T08:08:31.701Z,37276,-0.075680435,0.087493286,-0.044142727
1732435711703,2024-11-24T08:08:31.703Z,37278,-0.075680435,0.087493286,-0.044142727
1732435711710,2024-11-24T08:08:31.710Z,37285,-0.082325056,0.081481814,-0.091319
1732435711712,2024-11-24T08:08:31.712Z,37287,-0.082325056,0.081481814,-0.091319
1732435711718,2024-11-24T08:08:31.718Z,37293,-0.008736346,0.042661406,-0.031214565
1732435711720,2024-11-24T08:08:31.720Z,37295,-0.008736346,0.042661406,-0.031214565
1732435711728,2024-11-24T08:08:31.728Z,37303,-0.0074329344,0.056296412,0.007888905
1732435711730,2024-11-24T08:08:31.730Z,37305,-0.0074329344,0.056296412,0.007888905
1732435711738,2024-11-24T08:08:31.738Z,37313,-0.008071755,0.08134596,-0.04167649
1732435711741,2024-11-24T08:08:31.741Z,37316,-0.008071755,0.08134596,-0.04167649
1732435711748,2024-11-24T08:08:31.748Z,37323,-0.06980137,0.056593794,-0.053948164
1732435711750,2024-11-24T08:08:31.750Z,37325,-0.06980137,0.056593794,-0.053948164
1732435711787,2024-11-24T08:08:31.787Z,37362,-0.056602035,0.06202245,-0.11531526
1732435711789,2024-11-24T08:08:31.789Z,37364,-0.056602035,0.06202245,-0.11531526
1732435711796,2024-11-24T08:08:31.796Z,37371,-0.08620169,9.0489E-4,-0.09505864
1732435711799,2024-11-24T08:08:31.799Z,37374,-0.08620169,9.0489E-4,-0.09505864
1732435711807,2024-11-24T08:08:31.807Z,37382,0.022970129,-0.023104113,0.011196488
1732435711809,2024-11-24T08:08:31.809Z,37384,0.022970129,-0.023104113,0.011196488
1732435711832,2024-11-24T08:08:31.832Z,37407,-0.034199394,-0.0062980535,-0.009083994
1732435711835,2024-11-24T08:08:31.835Z,37410,-0.034199394,-0.0062980535,-0.009083994
1732435711844,2024-11-24T08:08:31.844Z,37419,0.015235556,0.01702078,0.009237202
1732435711847,2024-11-24T08:08:31.847Z,37422,0.015235556,0.01702078,0.009237202
1732435711856,2024-11-24T08:08:31.856Z,37431,-0.03460183,0.021155948,-0.046152003
1732435711858,2024-11-24T08:08:31.858Z,37433,-0.03460183,0.021155948,-0.046152003
1732435711879,2024-11-24T08:08:31.879Z,37454,-0.021640193,-0.007796641,-0.029718945
1732435711882,2024-11-24T08:08:31.882Z,37457,-0.021640193,-0.007796641,-0.029718945
1732435711892,2024-11-24T08:08:31.892Z,37467,-0.047415093,0.007973437,-0.023229245
1732435711894,2024-11-24T08:08:31.894Z,37469,-0.047415093,0.007973437,-0.023229245
1732435711903,2024-11-24T08:08:31.903Z,37478,-0.060334913,-0.00414674,-0.06327987
1732435711906,2024-11-24T08:08:31.906Z,37481,-0.060334913,-0.00414674,-0.06327987
1732435711922,2024-11-24T08:08:31.922Z,37497,-0.03478602,0.025356855,-0.033932902
1732435711925,2024-11-24T08:08:31.925Z,37500,-0.03478602,0.025356855,-0.033932902
1732435711934,2024-11-24T08:08:31.934Z,37509,-5.3753673E-5,0.047825355,-0.03374864
1732435711936,2024-11-24T08:08:31.936Z,37511,-5.3753673E-5,0.047825355,-0.03374864
1732435711965,2024-11-24T08:08:31.965Z,37540,-0.01698368,0.059468437,-0.092310786
1732435711968,2024-11-24T08:08:31.968Z,37543,-0.01698368,0.059468437,-0.092310786
1732435711977,2024-11-24T08:08:31.977Z,37552,0.05882339,0.02703681,-0.029519204
1732435711979,2024-11-24T08:08:31.979Z,37554,0.05882339,0.02703681,-0.029519204
1732435711988,2024-11-24T08:08:31.988Z,37563,0.02100728,0.070954464,-0.039701518
1732435711990,2024-11-24T08:08:31.990Z,37565,0.02100728,0.070954464,-0.039701518
1732435711998,2024-11-24T08:08:31.998Z,37573,-0.007997263,0.032284297,-0.036643807
1732435712001,2024-11-24T08:08:32.001Z,37576,-0.007997263,0.032284297,-0.036643807
1732435712013,2024-11-24T08:08:32.013Z,37588,0.03481908,0.013054145,-0.03408102
1732435712015,2024-11-24T08:08:32.015Z,37590,0.03481908,0.013054145,-0.03408102
1732435712024,2024-11-24T08:08:32.024Z,37599,0.0029109158,0.038817108,-0.030255169
1732435712027,2024-11-24T08:08:32.027Z,37602,0.0029109158,0.038817108,-0.030255169
1732435712034,2024-11-24T08:08:32.034Z,37609,-0.046058998,0.00207196,-0.050481886
1732435712037,2024-11-24T08:08:32.037Z,37612,-0.046058998,0.00207196,-0.050481886
1732435712055,2024-11-24T08:08:32.055Z,37630,0.057169963,0.018992867,-0.010904404
1732435712058,2024-11-24T08:08:32.058Z,37633,0.057169963,0.018992867,-0.010904404
1732435712064,2024-11-24T08:08:32.064Z,37639,0.01539971,0.028279537,-0.009174136
1732435712067,2024-11-24T08:08:32.067Z,37642,0.01539971,0.028279537,-0.009174136
1732435712074,2024-11-24T08:08:32.074Z,37649,0.030825531,0.038061686,-6.0135557E-4
1732435712077,2024-11-24T08:08:32.077Z,37652,0.030825531,0.038061686,-6.0135557E-4
1732435712104,2024-11-24T08:08:32.104Z,37679,-0.06138096,0.07839197,-0.11559182
1732435712106,2024-11-24T08:08:32.106Z,37681,-0.06138096,0.07839197,-0.11559182
1732435712119,2024-11-24T08:08:32.119Z,37694,-0.053463195,-0.00677943,-0.11378612
1732435712126,2024-11-24T08:08:32.126Z,37701,-0.053463195,-0.00677943,-0.11378612
1732435712146,2024-11-24T08:08:32.146Z,37721,0.15508401,0.026229946,-0.00406084
1732435712152,2024-11-24T08:08:32.152Z,37727,0.15508401,0.026229946,-0.00406084
1732435712169,2024-11-24T08:08:32.169Z,37744,0.08643153,0.050936993,0.011501785
1732435712172,2024-11-24T08:08:32.172Z,37747,0.08643153,0.050936993,0.011501785
1732435712184,2024-11-24T08:08:32.184Z,37759,0.07830039,0.066046074,0.009770928
1732435712187,2024-11-24T08:08:32.187Z,37762,0.07830039,0.066046074,0.009770928
1732435712199,2024-11-24T08:08:32.199Z,37774,0.083023705,0.06985439,0.041529708
1732435712203,2024-11-24T08:08:32.203Z,37778,0.083023705,0.06985439,0.041529708
1732435712216,2024-11-24T08:08:32.216Z,37791,-0.01760062,0.056024507,-0.09560343
1732435712223,2024-11-24T08:08:32.223Z,37798,-0.01760062,0.056024507,-0.09560343
1732435712246,2024-11-24T08:08:32.246Z,37821,0.026080914,0.0060836226,-0.09966136
1732435712252,2024-11-24T08:08:32.252Z,37827,0.026080914,0.0060836226,-0.09966136
1732435712274,2024-11-24T08:08:32.274Z,37849,0.03830106,0.005012439,-0.041481942
1732435712280,2024-11-24T08:08:32.280Z,37855,0.03830106,0.005012439,-0.041481942
1732435712293,2024-11-24T08:08:32.293Z,37868,0.018390905,5.817358E-4,0.0010105071
1732435712295,2024-11-24T08:08:32.295Z,37870,0.018390905,5.817358E-4,0.0010105071
1732435712303,2024-11-24T08:08:32.303Z,37878,0.054421328,0.028947825,0.011657078
1732435712306,2024-11-24T08:08:32.306Z,37881,0.054421328,0.028947825,0.011657078
1732435712319,2024-11-24T08:08:32.319Z,37894,-0.03065146,0.03583841,-0.0544607
1732435712327,2024-11-24T08:08:32.327Z,37902,-0.03065146,0.03583841,-0.0544607
1732435712346,2024-11-24T08:08:32.346Z,37921,0.06832595,0.0028841728,6.0933596E-4
1732435712351,2024-11-24T08:08:32.351Z,37926,0.06832595,0.0028841728,6.0933596E-4
1732435712365,2024-11-24T08:08:32.365Z,37940,0.015176916,0.0062159766,-0.03497142
1732435712369,2024-11-24T08:08:32.369Z,37944,0.015176916,0.0062159766,-0.03497142
1732435712380,2024-11-24T08:08:32.380Z,37955,-0.0018993937,0.0066397823,-0.040221248
1732435712383,2024-11-24T08:08:32.383Z,37958,-0.0018993937,0.0066397823,-0.040221248
1732435712393,2024-11-24T08:08:32.393Z,37968,0.018942395,0.043124985,0.006363386
1732435712396,2024-11-24T08:08:32.396Z,37971,0.018942395,0.043124985,0.006363386
1732435712405,2024-11-24T08:08:32.405Z,37980,0.049027387,0.0629146,0.029431636
1732435712408,2024-11-24T08:08:32.408Z,37983,0.049027387,0.0629146,0.029431636
1732435712417,2024-11-24T08:08:32.417Z,37992,0.08472022,0.08726363,0.021421453
1732435712420,2024-11-24T08:08:32.420Z,37995,0.08472022,0.08726363,0.021421453
1732435712429,2024-11-24T08:08:32.429Z,38004,-0.020464566,0.049196355,-0.07792115
1732435712431,2024-11-24T08:08:32.431Z,38006,-0.020464566,0.049196355,-0.07792115
1732435712438,2024-11-24T08:08:32.438Z,38013,-8.739652E-4,-0.02658733,0.015916454
1732435712441,2024-11-24T08:08:32.441Z,38016,-8.739652E-4,-0.02658733,0.015916454
1732435712448,2024-11-24T08:08:32.448Z,38023,0.09046644,-0.022042945,0.064566724
1732435712450,2024-11-24T08:08:32.450Z,38025,0.09046644,-0.022042945,0.064566724
1732435712457,2024-11-24T08:08:32.457Z,38032,0.030317461,0.034241308,0.058454745
1732435712458,2024-11-24T08:08:32.458Z,38033,0.030317461,0.034241308,0.058454745
1732435712467,2024-11-24T08:08:32.467Z,38042,0.057517987,0.054829232,0.0480473
1732435712470,2024-11-24T08:08:32.470Z,38045,0.057517987,0.054829232,0.0480473
1732435712480,2024-11-24T08:08:32.480Z,38055,-0.023290146,0.04226726,-0.002452709
1732435712485,2024-11-24T08:08:32.485Z,38060,-0.023290146,0.04226726,-0.002452709
1732435712500,2024-11-24T08:08:32.500Z,38075,-0.03484259,0.015938122,-0.08264876
1732435712505,2024-11-24T08:08:32.505Z,38080,-0.03484259,0.015938122,-0.08264876
1732435712520,2024-11-24T08:08:32.520Z,38095,0.04690155,-0.09683567,-0.054721646
1732435712525,2024-11-24T08:08:32.525Z,38100,0.04690155,-0.09683567,-0.054721646
1732435712542,2024-11-24T08:08:32.542Z,38117,0.03529596,-0.089528486,0.036740355
1732435712547,2024-11-24T08:08:32.547Z,38122,0.03529596,-0.089528486,0.036740355
1732435712561,2024-11-24T08:08:32.561Z,38136,-0.0044660526,-0.041945275,0.06847172
1732435712564,2024-11-24T08:08:32.564Z,38139,-0.0044660526,-0.041945275,0.06847172
1732435712574,2024-11-24T08:08:32.574Z,38149,-0.030502962,-0.056409508,0.07159682
1732435712578,2024-11-24T08:08:32.578Z,38153,-0.030502962,-0.056409508,0.07159682
1732435712593,2024-11-24T08:08:32.593Z,38168,-0.051393714,5.5158907E-4,0.043332603
1732435712600,2024-11-24T08:08:32.600Z,38175,-0.051393714,5.5158907E-4,0.043332603
1732435712621,2024-11-24T08:08:32.621Z,38196,0.06389661,-0.038335923,-0.045062665
1732435712626,2024-11-24T08:08:32.626Z,38201,0.06389661,-0.038335923,-0.045062665
1732435712644,2024-11-24T08:08:32.644Z,38219,0.019404614,-0.0666283,0.020578263
1732435712649,2024-11-24T08:08:32.649Z,38224,0.019404614,-0.0666283,0.020578263
1732435712663,2024-11-24T08:08:32.663Z,38238,-0.02893844,-0.07491916,0.1059392
1732435712666,2024-11-24T08:08:32.666Z,38241,-0.02893844,-0.07491916,0.1059392
1732435712678,2024-11-24T08:08:32.678Z,38253,0.002236503,-0.036944505,0.074968114
1732435712681,2024-11-24T08:08:32.681Z,38256,0.002236503,-0.036944505,0.074968114
1732435712691,2024-11-24T08:08:32.691Z,38266,0.03085383,-0.0057452978,0.06657186
1732435712695,2024-11-24T08:08:32.695Z,38270,0.03085383,-0.0057452978,0.06657186
1732435712704,2024-11-24T08:08:32.704Z,38279,-0.06596215,0.007336173,-0.05886212
1732435712707,2024-11-24T08:08:32.707Z,38282,-0.06596215,0.007336173,-0.05886212
1732435712715,2024-11-24T08:08:32.715Z,38290,0.06125794,-0.043489274,-0.025836742
1732435712718,2024-11-24T08:08:32.718Z,38293,0.06125794,-0.043489274,-0.025836742
1732435712726,2024-11-24T08:08:32.726Z,38301,0.03326538,-0.10135449,0.027436044
1732435712729,2024-11-24T08:08:32.729Z,38304,0.03326538,-0.10135449,0.027436044
1732435712738,2024-11-24T08:08:32.738Z,38313,-0.015777372,-0.07176385,0.09940382
1732435712741,2024-11-24T08:08:32.741Z,38316,-0.015777372,-0.07176385,0.09940382
1732435712748,2024-11-24T08:08:32.748Z,38323,0.04337,-0.092320174,0.08786701
1732435712750,2024-11-24T08:08:32.750Z,38325,0.04337,-0.092320174,0.08786701
1732435712757,2024-11-24T08:08:32.757Z,38332,0.01674489,-0.065506645,0.070450924
1732435712759,2024-11-24T08:08:32.759Z,38334,0.01674489,-0.065506645,0.070450924
1732435712766,2024-11-24T08:08:32.766Z,38341,0.0080414135,-0.0063450243,0.017888246
1732435712768,2024-11-24T08:08:32.768Z,38343,0.0080414135,-0.0063450243,0.017888246
1732435712777,2024-11-24T08:08:32.777Z,38352,-0.04780187,-0.008275878,-0.15280405
1732435712779,2024-11-24T08:08:32.779Z,38354,-0.04780187,-0.008275878,-0.15280405
1732435712786,2024-11-24T08:08:32.786Z,38361,0.1005236,-0.009939397,-0.07156829
1732435712789,2024-11-24T08:08:32.789Z,38364,0.1005236,-0.009939397,-0.07156829
1732435712797,2024-11-24T08:08:32.797Z,38372,0.05216985,-0.006994931,-0.03655151
1732435712799,2024-11-24T08:08:32.799Z,38374,0.05216985,-0.006994931,-0.03655151
1732435712806,2024-11-24T08:08:32.806Z,38381,0.004536849,-0.022279937,0.050345622
1732435712808,2024-11-24T08:08:32.808Z,38383,0.004536849,-0.022279937,0.050345622
1732435712815,2024-11-24T08:08:32.815Z,38390,-0.018789863,-0.0052435966,-0.03379921
1732435712817,2024-11-24T08:08:32.817Z,38392,-0.018789863,-0.0052435966,-0.03379921
1732435712823,2024-11-24T08:08:32.823Z,38398,-0.018904032,0.017809656,-0.025310399
1732435712826,2024-11-24T08:08:32.826Z,38401,-0.018904032,0.017809656,-0.025310399
1732435712869,2024-11-24T08:08:32.869Z,38444,0.0039769937,0.011499736,-0.07979345
1732435712872,2024-11-24T08:08:32.872Z,38447,0.0039769937,0.011499736,-0.07979345
1732435712881,2024-11-24T08:08:32.881Z,38456,0.038089693,-0.008509564,-0.008466428
1732435712885,2024-11-24T08:08:32.885Z,38460,0.038089693,-0.008509564,-0.008466428
1732435712895,2024-11-24T08:08:32.895Z,38470,-0.07100299,0.032589458,-0.053517252
1732435712898,2024-11-24T08:08:32.898Z,38473,-0.07100299,0.032589458,-0.053517252
1732435712916,2024-11-24T08:08:32.916Z,38491,-0.12442043,-0.05748507,-0.020863269
1732435712919,2024-11-24T08:08:32.919Z,38494,-0.12442043,-0.05748507,-0.020863269
1732435712928,2024-11-24T08:08:32.928Z,38503,-0.07197303,-0.019736715,-0.009627463
1732435712930,2024-11-24T08:08:32.930Z,38505,-0.07197303,-0.019736715,-0.009627463
1732435712959,2024-11-24T08:08:32.959Z,38534,-0.018620213,-0.013170841,0.006658937
1732435712963,2024-11-24T08:08:32.963Z,38538,-0.018620213,-0.013170841,0.006658937
1732435712979,2024-11-24T08:08:32.979Z,38554,0.012389894,-0.004090531,-0.019779481
1732435712984,2024-11-24T08:08:32.984Z,38559,0.012389894,-0.004090531,-0.019779481
1732435713002,2024-11-24T08:08:33.002Z,38577,0.0036909399,-0.0047614914,0.060480647
1732435713007,2024-11-24T08:08:33.007Z,38582,0.0036909399,-0.0047614914,0.060480647
1732435713022,2024-11-24T08:08:33.022Z,38597,0.032344345,0.004909648,-0.013452325
1732435713028,2024-11-24T08:08:33.028Z,38603,0.032344345,0.004909648,-0.013452325
1732435713044,2024-11-24T08:08:33.044Z,38619,0.004426959,0.028194932,-0.040866468
1732435713049,2024-11-24T08:08:33.049Z,38624,0.004426959,0.028194932,-0.040866468
1732435713065,2024-11-24T08:08:33.065Z,38640,-0.036529742,0.0477832,-0.08594356
1732435713071,2024-11-24T08:08:33.071Z,38646,-0.036529742,0.0477832,-0.08594356
1732435713086,2024-11-24T08:08:33.086Z,38661,0.025112715,-0.0088700615,-0.06778101
1732435713093,2024-11-24T08:08:33.093Z,38668,0.025112715,-0.0088700615,-0.06778101
1732435713110,2024-11-24T08:08:33.110Z,38685,-0.04204174,0.012745966,-0.012652226
1732435713115,2024-11-24T08:08:33.115Z,38690,-0.04204174,0.012745966,-0.012652226
1732435713130,2024-11-24T08:08:33.130Z,38705,-0.013783405,0.006409694,0.018702917
1732435713133,2024-11-24T08:08:33.133Z,38708,-0.013783405,0.006409694,0.018702917
1732435713146,2024-11-24T08:08:33.146Z,38721,-0.014805721,0.0049868627,0.03680861
1732435713151,2024-11-24T08:08:33.151Z,38726,-0.014805721,0.0049868627,0.03680861
1732435713170,2024-11-24T08:08:33.170Z,38745,-0.0063443435,0.044922754,-0.029675402
1732435713176,2024-11-24T08:08:33.176Z,38751,-0.0063443435,0.044922754,-0.029675402
1732435713195,2024-11-24T08:08:33.195Z,38770,-0.031593207,0.05209701,-0.057564028
1732435713202,2024-11-24T08:08:33.202Z,38777,-0.031593207,0.05209701,-0.057564028
1732435713218,2024-11-24T08:08:33.218Z,38793,-0.02088803,0.044710852,-0.06658129
1732435713225,2024-11-24T08:08:33.225Z,38800,-0.02088803,0.044710852,-0.06658129
1732435713245,2024-11-24T08:08:33.245Z,38820,0.0031274864,0.015818119,-0.04546157
1732435713250,2024-11-24T08:08:33.250Z,38825,0.0031274864,0.015818119,-0.04546157
1732435713262,2024-11-24T08:08:33.262Z,38837,-0.0054490813,0.0040673856,0.005632904
1732435713265,2024-11-24T08:08:33.265Z,38840,-0.0054490813,0.0040673856,0.005632904
1732435713279,2024-11-24T08:08:33.279Z,38854,-0.021528602,0.03901938,0.029914794
1732435713284,2024-11-24T08:08:33.284Z,38859,-0.021528602,0.03901938,0.029914794
1732435713301,2024-11-24T08:08:33.301Z,38876,-0.030561602,0.05422129,0.0038659796
1732435713308,2024-11-24T08:08:33.308Z,38883,-0.030561602,0.05422129,0.0038659796
1732435713327,2024-11-24T08:08:33.327Z,38902,-0.030911548,0.06547839,0.008987835
1732435713332,2024-11-24T08:08:33.332Z,38907,-0.030911548,0.06547839,0.008987835
1732435713348,2024-11-24T08:08:33.348Z,38923,0.012980868,0.05933399,-0.0172354
1732435713351,2024-11-24T08:08:33.351Z,38926,0.012980868,0.05933399,-0.0172354
1732435713364,2024-11-24T08:08:33.364Z,38939,-0.0075583356,-0.018087199,-0.052176923
1732435713367,2024-11-24T08:08:33.367Z,38942,-0.0075583356,-0.018087199,-0.052176923
1732435713378,2024-11-24T08:08:33.378Z,38953,-0.022883797,-0.0021450901,-0.032616287
1732435713381,2024-11-24T08:08:33.381Z,38956,-0.022883797,-0.0021450901,-0.032616287
1732435713391,2024-11-24T08:08:33.391Z,38966,-0.059408873,-0.010311953,-0.0054089725
1732435713394,2024-11-24T08:08:33.394Z,38969,-0.059408873,-0.010311953,-0.0054089725
1732435713402,2024-11-24T08:08:33.402Z,38977,-0.020545963,-0.01480791,-0.029518133
1732435713405,2024-11-24T08:08:33.405Z,38980,-0.020545963,-0.01480791,-0.029518133
1732435713413,2024-11-24T08:08:33.413Z,38988,-0.017102664,-0.007974313,-0.057620555
1732435713415,2024-11-24T08:08:33.415Z,38990,-0.017102664,-0.007974313,-0.057620555
1732435713422,2024-11-24T08:08:33.422Z,38997,-0.0019367855,0.010366023,-0.099208295
1732435713425,2024-11-24T08:08:33.425Z,39000,-0.0019367855,0.010366023,-0.099208295
1732435713432,2024-11-24T08:08:33.432Z,39007,0.019953627,-0.017170932,-0.07873251
1732435713434,2024-11-24T08:08:33.434Z,39009,0.019953627,-0.017170932,-0.07873251
1732435713442,2024-11-24T08:08:33.442Z,39017,0.032365642,-0.0067752483,-0.040780276
1732435713444,2024-11-24T08:08:33.444Z,39019,0.032365642,-0.0067752483,-0.040780276
1732435713452,2024-11-24T08:08:33.452Z,39027,-0.028678887,0.008601658,-0.04751477
1732435713455,2024-11-24T08:08:33.455Z,39030,-0.028678887,0.008601658,-0.04751477
1732435713462,2024-11-24T08:08:33.462Z,39037,-0.004688507,0.012074665,-0.056788143
1732435713464,2024-11-24T08:08:33.464Z,39039,-0.004688507,0.012074665,-0.056788143
1732435713495,2024-11-24T08:08:33.495Z,39070,0.049984597,-0.002388015,-0.06274909
1732435713497,2024-11-24T08:08:33.497Z,39072,0.049984597,-0.002388015,-0.06274909
1732435713503,2024-11-24T08:08:33.503Z,39078,0.02355646,-0.009395199,-0.04397625
1732435713506,2024-11-24T08:08:33.506Z,39081,0.02355646,-0.009395199,-0.04397625
1732435713512,2024-11-24T08:08:33.512Z,39087,-0.00897611,-0.018726505,-0.0462479
1732435713514,2024-11-24T08:08:33.514Z,39089,-0.00897611,-0.018726505,-0.0462479
1732435713545,2024-11-24T08:08:33.545Z,39120,0.01166039,0.011041214,-0.031841278
1732435713552,2024-11-24T08:08:33.552Z,39127,0.01166039,0.011041214,-0.031841278
1732435713572,2024-11-24T08:08:33.572Z,39147,-0.03886529,0.0015651047,-0.03904972
1732435713577,2024-11-24T08:08:33.577Z,39152,-0.03886529,0.0015651047,-0.03904972
1732435713595,2024-11-24T08:08:33.595Z,39170,0.021855354,-0.021397706,-0.04058969
1732435713598,2024-11-24T08:08:33.598Z,39173,0.021855354,-0.021397706,-0.04058969
1732435713609,2024-11-24T08:08:33.609Z,39184,0.032841086,-0.023176659,-0.026861371
1732435713612,2024-11-24T08:08:33.612Z,39187,0.032841086,-0.023176659,-0.026861371
1732435713630,2024-11-24T08:08:33.630Z,39205,0.043723132,-0.05103706,-0.0043989457
1732435713634,2024-11-24T08:08:33.634Z,39209,0.043723132,-0.05103706,-0.0043989457
1732435713644,2024-11-24T08:08:33.644Z,39219,0.023753582,-0.0342345,0.024824703
1732435713646,2024-11-24T08:08:33.646Z,39221,0.023753582,-0.0342345,0.024824703
1732435713660,2024-11-24T08:08:33.660Z,39235,0.008767903,-0.018964374,0.014853321
1732435713664,2024-11-24T08:08:33.664Z,39239,0.008767903,-0.018964374,0.014853321
1732435713676,2024-11-24T08:08:33.676Z,39251,0.015136364,-0.0349307,0.0021425146
1732435713679,2024-11-24T08:08:33.679Z,39254,0.015136364,-0.0349307,0.0021425146
1732435713685,2024-11-24T08:08:33.685Z,39260,-0.00149708,-0.014713968,-0.0014768592
1732435713688,2024-11-24T08:08:33.688Z,39263,-0.00149708,-0.014713968,-0.0014768592
1732435713696,2024-11-24T08:08:33.696Z,39271,0.06688863,-0.010654557,0.011221582
1732435713698,2024-11-24T08:08:33.698Z,39273,0.06688863,-0.010654557,0.011221582
1732435713705,2024-11-24T08:08:33.705Z,39280,0.034413755,-0.05470641,-0.0043046223
1732435713707,2024-11-24T08:08:33.707Z,39282,0.034413755,-0.05470641,-0.0043046223
1732435713767,2024-11-24T08:08:33.767Z,39342,0.03842916,-0.039512135,0.027291112
1732435713770,2024-11-24T08:08:33.770Z,39345,0.03842916,-0.039512135,0.027291112
1732435713778,2024-11-24T08:08:33.778Z,39353,0.06571308,-0.026679229,0.012843813
1732435713780,2024-11-24T08:08:33.780Z,39355,0.06571308,-0.026679229,0.012843813
1732435713788,2024-11-24T08:08:33.788Z,39363,0.03264224,-0.025722312,-0.013496105
1732435713791,2024-11-24T08:08:33.791Z,39366,0.03264224,-0.025722312,-0.013496105
1732435713799,2024-11-24T08:08:33.799Z,39374,0.022111261,-0.024313096,-0.03398982
1732435713801,2024-11-24T08:08:33.801Z,39376,0.022111261,-0.024313096,-0.03398982
1732435713812,2024-11-24T08:08:33.812Z,39387,0.0831554,-0.058043953,0.03543728
1732435713814,2024-11-24T08:08:33.814Z,39389,0.0831554,-0.058043953,0.03543728
1732435713822,2024-11-24T08:08:33.822Z,39397,0.020815874,-0.056156956,0.03360399
1732435713825,2024-11-24T08:08:33.825Z,39400,0.020815874,-0.056156956,0.03360399
1732435713862,2024-11-24T08:08:33.862Z,39437,0.025207216,-0.04172919,0.041747473
1732435713868,2024-11-24T08:08:33.868Z,39443,0.025207216,-0.04172919,0.041747473
1732435713888,2024-11-24T08:08:33.888Z,39463,0.03446724,-0.04930041,-6.100015E-4
1732435713893,2024-11-24T08:08:33.893Z,39468,0.03446724,-0.04930041,-6.100015E-4
1732435713912,2024-11-24T08:08:33.912Z,39487,0.047011197,-0.026715212,0.017686306
1732435713917,2024-11-24T08:08:33.917Z,39492,0.047011197,-0.026715212,0.017686306
1732435713933,2024-11-24T08:08:33.933Z,39508,0.048358418,-0.018300172,0.03760484
1732435713939,2024-11-24T08:08:33.939Z,39514,0.048358418,-0.018300172,0.03760484
1732435713954,2024-11-24T08:08:33.954Z,39529,0.003835085,-0.02246607,0.007236564
1732435713958,2024-11-24T08:08:33.958Z,39533,0.003835085,-0.02246607,0.007236564
1732435713972,2024-11-24T08:08:33.972Z,39547,0.04084703,-0.0355596,0.02464723
1732435713979,2024-11-24T08:08:33.979Z,39554,0.04084703,-0.0355596,0.02464723
1732435713999,2024-11-24T08:08:33.999Z,39574,0.033559408,-0.0521309,0.02244332
1732435714004,2024-11-24T08:08:34.004Z,39579,0.033559408,-0.0521309,0.02244332
1732435714019,2024-11-24T08:08:34.019Z,39594,-0.027831761,-0.037673473,0.0037285625
1732435714023,2024-11-24T08:08:34.023Z,39598,-0.027831761,-0.037673473,0.0037285625
1732435714039,2024-11-24T08:08:34.039Z,39614,-0.03161156,-0.033684175,-0.0017425149
1732435714048,2024-11-24T08:08:34.048Z,39623,-0.03161156,-0.033684175,-0.0017425149
1732435714071,2024-11-24T08:08:34.071Z,39646,0.01743068,-0.037544813,0.022032343
1732435714076,2024-11-24T08:08:34.076Z,39651,0.01743068,-0.037544813,0.022032343
1732435714095,2024-11-24T08:08:34.095Z,39670,3.3698764E-4,-0.047073536,0.0024177665
1732435714101,2024-11-24T08:08:34.101Z,39676,3.3698764E-4,-0.047073536,0.0024177665
1732435714117,2024-11-24T08:08:34.117Z,39692,-0.017641999,-0.025313774,0.013727275
1732435714120,2024-11-24T08:08:34.120Z,39695,-0.017641999,-0.025313774,0.013727275
1732435714132,2024-11-24T08:08:34.132Z,39707,-0.010581329,-0.01797906,0.008437212
1732435714135,2024-11-24T08:08:34.135Z,39710,-0.010581329,-0.01797906,0.008437212
1732435714146,2024-11-24T08:08:34.146Z,39721,-0.020712402,-0.023795446,0.0074817166
1732435714149,2024-11-24T08:08:34.149Z,39724,-0.020712402,-0.023795446,0.0074817166
1732435714159,2024-11-24T08:08:34.159Z,39734,-0.05043247,-0.025802542,0.0019247815
1732435714163,2024-11-24T08:08:34.163Z,39738,-0.05043247,-0.025802542,0.0019247815
1732435714173,2024-11-24T08:08:34.173Z,39748,-0.011879587,-0.033734553,-8.365248E-4
1732435714176,2024-11-24T08:08:34.176Z,39751,-0.011879587,-0.033734553,-8.365248E-4
1732435714185,2024-11-24T08:08:34.185Z,39760,-0.013008681,-0.037721027,0.022188148
1732435714188,2024-11-24T08:08:34.188Z,39763,-0.013008681,-0.037721027,0.022188148
1732435714196,2024-11-24T08:08:34.196Z,39771,-0.0325996,-0.028750703,-0.0034537404
1732435714199,2024-11-24T08:08:34.199Z,39774,-0.0325996,-0.028750703,-0.0034537404
1732435714206,2024-11-24T08:08:34.206Z,39781,-0.025608215,-0.022947641,0.00899314
1732435714209,2024-11-24T08:08:34.209Z,39784,-0.025608215,-0.022947641,0.00899314
1732435714217,2024-11-24T08:08:34.217Z,39792,-0.05120773,-0.024989551,-0.03204361
1732435714219,2024-11-24T08:08:34.219Z,39794,-0.05120773,-0.024989551,-0.03204361
1732435714226,2024-11-24T08:08:34.226Z,39801,-0.0020018686,-0.019000258,-0.001552262
1732435714229,2024-11-24T08:08:34.229Z,39804,-0.0020018686,-0.019000258,-0.001552262
1732435714238,2024-11-24T08:08:34.238Z,39813,-0.01493844,-0.014438465,-0.0071414527
1732435714242,2024-11-24T08:08:34.242Z,39817,-0.01493844,-0.014438465,-0.0071414527
1732435714258,2024-11-24T08:08:34.258Z,39833,-0.0060534272,-0.006876483,-0.0032801046
1732435714260,2024-11-24T08:08:34.260Z,39835,-0.0060534272,-0.006876483,-0.0032801046
1732435714267,2024-11-24T08:08:34.267Z,39842,-0.033006847,0.001823881,-0.030306254
1732435714269,2024-11-24T08:08:34.269Z,39844,-0.033006847,0.001823881,-0.030306254
1732435714277,2024-11-24T08:08:34.277Z,39852,-0.021854723,0.0049294867,-0.026275251
1732435714279,2024-11-24T08:08:34.279Z,39854,-0.021854723,0.0049294867,-0.026275251
1732435714286,2024-11-24T08:08:34.286Z,39861,-0.018417282,0.0045839655,-0.011955299
1732435714287,2024-11-24T08:08:34.287Z,39862,-0.018417282,0.0045839655,-0.011955299
1732435714294,2024-11-24T08:08:34.294Z,39869,-0.004998362,-0.00319838,-0.032640614
1732435714296,2024-11-24T08:08:34.296Z,39871,-0.004998362,-0.00319838,-0.032640614
1732435714309,2024-11-24T08:08:34.309Z,39884,-0.010469665,0.0051092003,-0.0061006346
1732435714311,2024-11-24T08:08:34.311Z,39886,-0.010469665,0.0051092003,-0.0061006346
1732435714319,2024-11-24T08:08:34.319Z,39894,-0.025413575,0.0066419216,0.00226059
1732435714321,2024-11-24T08:08:34.321Z,39896,-0.025413575,0.0066419216,0.00226059
1732435714330,2024-11-24T08:08:34.330Z,39905,-0.0074845245,-0.01444537,-0.0011896252
1732435714332,2024-11-24T08:08:34.332Z,39907,-0.0074845245,-0.01444537,-0.0011896252
1732435714351,2024-11-24T08:08:34.351Z,39926,-0.048268612,-6.1460555E-4,-0.026759088
1732435714354,2024-11-24T08:08:34.354Z,39929,-0.048268612,-6.1460555E-4,-0.026759088
1732435714362,2024-11-24T08:08:34.362Z,39937,-0.022817498,-0.0059384317,-0.04933181
1732435714365,2024-11-24T08:08:34.365Z,39940,-0.022817498,-0.0059384317,-0.04933181
1732435714375,2024-11-24T08:08:34.375Z,39950,-0.01603717,-0.017244548,-0.04344324
1732435714378,2024-11-24T08:08:34.378Z,39953,-0.01603717,-0.017244548,-0.04344324
1732435714399,2024-11-24T08:08:34.399Z,39974,-0.003561892,-0.011812874,-0.01657617
1732435714404,2024-11-24T08:08:34.404Z,39979,-0.003561892,-0.011812874,-0.01657617
1732435714418,2024-11-24T08:08:34.418Z,39993,9.0068404E-4,-0.018753346,-0.015386315
1732435714421,2024-11-24T08:08:34.421Z,39996,9.0068404E-4,-0.018753346,-0.015386315
1732435714428,2024-11-24T08:08:34.428Z,40003,0.014762398,-0.01581452,0.0017256121
1732435714430,2024-11-24T08:08:34.430Z,40005,0.014762398,-0.01581452,0.0017256121
