Timestamp (ms),ISO DateTime,Elapsed Time (ms),Acceleration X,Acceleration Y,Acceleration Z
1732371146115,2024-11-23T14:12:26.115Z,22595,-0.0064984327,-0.04606177,-0.2110061
1732371146120,2024-11-23T14:12:26.120Z,22600,-0.0064984327,-0.04606177,-0.2110061
1732371146148,2024-11-23T14:12:26.148Z,22628,-0.02085707,-0.044239152,-0.20035063
1732371146151,2024-11-23T14:12:26.151Z,22631,-0.02085707,-0.044239152,-0.20035063
1732371146192,2024-11-23T14:12:26.192Z,22672,-0.002162473,-0.043550152,-0.18322489
1732371146198,2024-11-23T14:12:26.198Z,22678,-0.002162473,-0.043550152,-0.18322489
1732371146213,2024-11-23T14:12:26.213Z,22693,-0.018855894,-0.037213977,-0.18208103
1732371146218,2024-11-23T14:12:26.218Z,22698,-0.018855894,-0.037213977,-0.18208103
1732371146230,2024-11-23T14:12:26.230Z,22710,-0.015937345,-0.045640007,-0.17476934
1732371146234,2024-11-23T14:12:26.234Z,22714,-0.015937345,-0.045640007,-0.17476934
1732371146247,2024-11-23T14:12:26.247Z,22727,-0.010889252,-0.044893436,-0.18173866
1732371146251,2024-11-23T14:12:26.251Z,22731,-0.010889252,-0.044893436,-0.18173866
1732371146263,2024-11-23T14:12:26.263Z,22743,0.0074747633,-0.030102447,-0.15901257
1732371146267,2024-11-23T14:12:26.267Z,22747,0.0074747633,-0.030102447,-0.15901257
1732371146278,2024-11-23T14:12:26.278Z,22758,-0.0042303,-0.028255615,-0.12562765
1732371146283,2024-11-23T14:12:26.283Z,22763,-0.0042303,-0.028255615,-0.12562765
1732371146296,2024-11-23T14:12:26.296Z,22776,0.014755396,-0.025256399,-0.10672946
1732371146300,2024-11-23T14:12:26.300Z,22780,0.014755396,-0.025256399,-0.10672946
1732371146320,2024-11-23T14:12:26.320Z,22800,0.013153179,-0.020433398,-0.09464798
1732371146323,2024-11-23T14:12:26.323Z,22803,0.013153179,-0.020433398,-0.09464798
1732371146365,2024-11-23T14:12:26.365Z,22845,0.0042036055,-0.023842027,-0.103867516
1732371146369,2024-11-23T14:12:26.369Z,22849,0.0042036055,-0.023842027,-0.103867516
1732371146381,2024-11-23T14:12:26.381Z,22861,-0.001537377,-0.019152354,-0.108127534
1732371146385,2024-11-23T14:12:26.385Z,22865,-0.001537377,-0.019152354,-0.108127534
1732371146399,2024-11-23T14:12:26.399Z,22879,-0.0042491294,-0.021797687,-0.11232771
1732371146403,2024-11-23T14:12:26.403Z,22883,-0.0042491294,-0.021797687,-0.11232771
1732371146461,2024-11-23T14:12:26.461Z,22941,-0.0072707254,-0.021940542,-0.09903105
1732371146469,2024-11-23T14:12:26.469Z,22949,-0.0072707254,-0.021940542,-0.09903105
1732371146494,2024-11-23T14:12:26.494Z,22974,0.0034681817,-0.024753725,-0.07996407
1732371146499,2024-11-23T14:12:26.499Z,22979,0.0034681817,-0.024753725,-0.07996407
1732371146513,2024-11-23T14:12:26.513Z,22993,4.9773813E-4,-0.026742052,-0.07275234
1732371146518,2024-11-23T14:12:26.518Z,22998,4.9773813E-4,-0.026742052,-0.07275234
1732371146531,2024-11-23T14:12:26.531Z,23011,-0.0018754222,-0.02807561,-0.07970682
1732371146535,2024-11-23T14:12:26.535Z,23015,-0.0018754222,-0.02807561,-0.07970682
1732371146641,2024-11-23T14:12:26.641Z,23121,-0.009022436,-0.0075533274,-0.056794852
1732371146648,2024-11-23T14:12:26.648Z,23128,-0.009022436,-0.0075533274,-0.056794852
1732371146779,2024-11-23T14:12:26.779Z,23259,-0.0113448575,-0.009257691,-0.065844774
1732371146789,2024-11-23T14:12:26.789Z,23269,-0.0113448575,-0.009257691,-0.065844774
1732371146823,2024-11-23T14:12:26.823Z,23303,0.0018607378,-0.009929089,-0.07860777
1732371146830,2024-11-23T14:12:26.830Z,23310,0.0018607378,-0.009929089,-0.07860777
1732371146849,2024-11-23T14:12:26.849Z,23329,-0.004400447,-0.0015572277,-0.05449062
1732371146855,2024-11-23T14:12:26.855Z,23335,-0.004400447,-0.0015572277,-0.05449062
1732371146873,2024-11-23T14:12:26.873Z,23353,-0.0031899195,-0.005724487,-0.053603318
1732371146878,2024-11-23T14:12:26.878Z,23358,-0.0031899195,-0.005724487,-0.053603318
1732371146908,2024-11-23T14:12:26.908Z,23388,0.0062448834,-0.009407063,-0.051809937
1732371146912,2024-11-23T14:12:26.912Z,23392,0.0062448834,-0.009407063,-0.051809937
1732371146928,2024-11-23T14:12:26.928Z,23408,0.003625346,-0.023735153,-0.04239548
1732371146932,2024-11-23T14:12:26.932Z,23412,0.003625346,-0.023735153,-0.04239548
1732371146945,2024-11-23T14:12:26.945Z,23425,0.0060778847,-0.014402289,-0.02598916
1732371146949,2024-11-23T14:12:26.949Z,23429,0.0060778847,-0.014402289,-0.02598916
1732371147000,2024-11-23T14:12:27Z,23480,-0.005344868,-0.008132048,-0.03178876
1732371147003,2024-11-23T14:12:27.003Z,23483,-0.005344868,-0.008132048,-0.03178876
1732371147014,2024-11-23T14:12:27.014Z,23494,0.01002224,-0.013060562,-0.042091593
1732371147018,2024-11-23T14:12:27.018Z,23498,0.01002224,-0.013060562,-0.042091593
1732371147095,2024-11-23T14:12:27.095Z,23575,-9.5564115E-4,-0.0018524717,-0.055182327
1732371147104,2024-11-23T14:12:27.104Z,23584,-9.5564115E-4,-0.0018524717,-0.055182327
1732371147137,2024-11-23T14:12:27.137Z,23617,-9.6417463E-4,-3.974514E-4,-0.011408421
1732371147146,2024-11-23T14:12:27.146Z,23626,-9.6417463E-4,-3.974514E-4,-0.011408421
1732371147171,2024-11-23T14:12:27.171Z,23651,-0.009350818,-0.006795962,-0.022565152
1732371147176,2024-11-23T14:12:27.176Z,23656,-0.009350818,-0.006795962,-0.022565152
1732371147225,2024-11-23T14:12:27.225Z,23705,-0.0020702945,0.0077822483,-0.04283668
1732371147234,2024-11-23T14:12:27.234Z,23714,-0.0020702945,0.0077822483,-0.04283668
1732371147251,2024-11-23T14:12:27.251Z,23731,-0.010910501,-3.2821103E-4,-0.038900033
1732371147255,2024-11-23T14:12:27.255Z,23735,-0.010910501,-3.2821103E-4,-0.038900033
1732371147270,2024-11-23T14:12:27.270Z,23750,0.0011738772,8.327322E-4,-0.012592156
1732371147275,2024-11-23T14:12:27.275Z,23755,0.0011738772,8.327322E-4,-0.012592156
1732371147288,2024-11-23T14:12:27.288Z,23768,-0.01099913,-0.016739056,-0.032341916
1732371147292,2024-11-23T14:12:27.292Z,23772,-0.01099913,-0.016739056,-0.032341916
1732371147303,2024-11-23T14:12:27.303Z,23783,-0.0076451777,-0.021975163,-0.021855999
1732371147308,2024-11-23T14:12:27.308Z,23788,-0.0076451777,-0.021975163,-0.021855999
1732371147319,2024-11-23T14:12:27.319Z,23799,0.0021309527,-0.02189824,-0.022378864
1732371147323,2024-11-23T14:12:27.323Z,23803,0.0021309527,-0.02189824,-0.022378864
1732371147334,2024-11-23T14:12:27.334Z,23814,3.976216E-5,-0.011981404,-0.015801417
1732371147338,2024-11-23T14:12:27.338Z,23818,3.976216E-5,-0.011981404,-0.015801417
1732371147351,2024-11-23T14:12:27.351Z,23831,-8.066333E-4,-0.0059127584,-0.020720413
1732371147355,2024-11-23T14:12:27.355Z,23835,-8.066333E-4,-0.0059127584,-0.020720413
1732371147366,2024-11-23T14:12:27.366Z,23846,0.002143048,-0.007910713,-0.03023829
1732371147370,2024-11-23T14:12:27.370Z,23850,0.002143048,-0.007910713,-0.03023829
1732371147382,2024-11-23T14:12:27.382Z,23862,0.0072709564,-0.004065538,-0.025442567
1732371147386,2024-11-23T14:12:27.386Z,23866,0.0072709564,-0.004065538,-0.025442567
1732371147397,2024-11-23T14:12:27.397Z,23877,0.008251104,0.0081027765,-0.013455862
1732371147401,2024-11-23T14:12:27.401Z,23881,0.008251104,0.0081027765,-0.013455862
1732371147413,2024-11-23T14:12:27.413Z,23893,0.0029053849,-2.168624E-4,-8.4581197E-4
1732371147418,2024-11-23T14:12:27.418Z,23898,0.0029053849,-2.168624E-4,-8.4581197E-4
1732371147429,2024-11-23T14:12:27.429Z,23909,-0.011855955,-0.0031172754,0.004101702
1732371147433,2024-11-23T14:12:27.433Z,23913,-0.011855955,-0.0031172754,0.004101702
1732371147444,2024-11-23T14:12:27.444Z,23924,-0.012458672,-0.008458411,-0.01145617
1732371147448,2024-11-23T14:12:27.448Z,23928,-0.012458672,-0.008458411,-0.01145617
1732371147461,2024-11-23T14:12:27.461Z,23941,-0.009117253,-0.025493877,-0.015608745
1732371147466,2024-11-23T14:12:27.466Z,23946,-0.009117253,-0.025493877,-0.015608745
1732371147479,2024-11-23T14:12:27.479Z,23959,-0.019823339,-0.043999046,-0.0065004383
1732371147483,2024-11-23T14:12:27.483Z,23963,-0.019823339,-0.043999046,-0.0065004383
1732371147496,2024-11-23T14:12:27.496Z,23976,-0.027076803,-0.044002064,0.010147969
1732371147500,2024-11-23T14:12:27.500Z,23980,-0.027076803,-0.044002064,0.010147969
1732371147511,2024-11-23T14:12:27.511Z,23991,-0.039681774,-0.040124796,0.025689637
1732371147515,2024-11-23T14:12:27.515Z,23995,-0.039681774,-0.040124796,0.025689637
1732371147527,2024-11-23T14:12:27.527Z,24007,-0.047195397,-0.051437233,0.025981782
1732371147531,2024-11-23T14:12:27.531Z,24011,-0.047195397,-0.051437233,0.025981782
1732371147542,2024-11-23T14:12:27.542Z,24022,-0.044633456,-0.079740405,0.040351044
1732371147547,2024-11-23T14:12:27.547Z,24027,-0.044633456,-0.079740405,0.040351044
1732371147559,2024-11-23T14:12:27.559Z,24039,-0.032011457,-0.08172056,0.04058051
1732371147563,2024-11-23T14:12:27.563Z,24043,-0.032011457,-0.08172056,0.04058051
1732371147575,2024-11-23T14:12:27.575Z,24055,-0.083519146,-0.10927774,0.01751362
1732371147580,2024-11-23T14:12:27.580Z,24060,-0.083519146,-0.10927774,0.01751362
1732371147591,2024-11-23T14:12:27.591Z,24071,-0.060952764,-0.1138797,0.013429192
1732371147594,2024-11-23T14:12:27.594Z,24074,-0.060952764,-0.1138797,0.013429192
1732371147605,2024-11-23T14:12:27.605Z,24085,-0.06067032,-0.11073111,0.016488738
1732371147608,2024-11-23T14:12:27.608Z,24088,-0.06067032,-0.11073111,0.016488738
1732371147622,2024-11-23T14:12:27.622Z,24102,-0.06863434,-0.12112096,0.053234566
1732371147626,2024-11-23T14:12:27.626Z,24106,-0.06863434,-0.12112096,0.053234566
1732371147638,2024-11-23T14:12:27.638Z,24118,-0.079191685,-0.11977563,0.015722184
1732371147642,2024-11-23T14:12:27.642Z,24122,-0.079191685,-0.11977563,0.015722184
1732371147678,2024-11-23T14:12:27.678Z,24158,-0.0812258,-0.12163044,-0.025568174
1732371147687,2024-11-23T14:12:27.687Z,24167,-0.0812258,-0.12163044,-0.025568174
1732371147713,2024-11-23T14:12:27.713Z,24193,-0.064884074,-0.11101974,-0.004321397
1732371147721,2024-11-23T14:12:27.721Z,24201,-0.064884074,-0.11101974,-0.004321397
1732371147743,2024-11-23T14:12:27.743Z,24223,-0.070486374,-0.09012481,0.021640182
1732371147753,2024-11-23T14:12:27.753Z,24233,-0.070486374,-0.09012481,0.021640182
1732371147779,2024-11-23T14:12:27.779Z,24259,-0.051092647,-0.09376868,0.018813202
1732371147786,2024-11-23T14:12:27.786Z,24266,-0.051092647,-0.09376868,0.018813202
1732371147814,2024-11-23T14:12:27.814Z,24294,-0.044719603,-0.0657167,0.0047687604
1732371147821,2024-11-23T14:12:27.821Z,24301,-0.044719603,-0.0657167,0.0047687604
1732371147846,2024-11-23T14:12:27.846Z,24326,-0.029447593,-0.08110245,-0.015324769
1732371147856,2024-11-23T14:12:27.856Z,24336,-0.029447593,-0.08110245,-0.015324769
1732371147882,2024-11-23T14:12:27.882Z,24362,-0.015327115,-0.062070105,0.020109357
1732371147888,2024-11-23T14:12:27.888Z,24368,-0.015327115,-0.062070105,0.020109357
1732371147912,2024-11-23T14:12:27.912Z,24392,-0.013249588,-0.04054374,0.019669918
1732371147920,2024-11-23T14:12:27.920Z,24400,-0.013249588,-0.04054374,0.019669918
1732371147947,2024-11-23T14:12:27.947Z,24427,-0.013399398,-0.038446203,0.037465096
1732371147955,2024-11-23T14:12:27.955Z,24435,-0.013399398,-0.038446203,0.037465096
1732371147977,2024-11-23T14:12:27.977Z,24457,-0.006697085,-0.043662377,0.022220617
1732371147982,2024-11-23T14:12:27.982Z,24462,-0.006697085,-0.043662377,0.022220617
1732371147999,2024-11-23T14:12:27.999Z,24479,-0.0050586318,-0.06429348,-0.0073103053
1732371148004,2024-11-23T14:12:28.004Z,24484,-0.0050586318,-0.06429348,-0.0073103053
1732371148019,2024-11-23T14:12:28.019Z,24499,0.022767732,-0.067691214,-0.03985621
1732371148023,2024-11-23T14:12:28.023Z,24503,0.022767732,-0.067691214,-0.03985621
1732371148036,2024-11-23T14:12:28.036Z,24516,0.032480445,-0.07251461,0.0020580047
1732371148040,2024-11-23T14:12:28.040Z,24520,0.032480445,-0.07251461,0.0020580047
1732371148053,2024-11-23T14:12:28.053Z,24533,-0.025426485,-0.08562885,-0.006925581
1732371148057,2024-11-23T14:12:28.057Z,24537,-0.025426485,-0.08562885,-0.006925581
1732371148071,2024-11-23T14:12:28.071Z,24551,-0.020779552,-0.094976395,0.025251742
1732371148076,2024-11-23T14:12:28.076Z,24556,-0.020779552,-0.094976395,0.025251742
1732371148086,2024-11-23T14:12:28.086Z,24566,-0.011435164,-0.099568725,0.031907268
1732371148090,2024-11-23T14:12:28.090Z,24570,-0.011435164,-0.099568725,0.031907268
1732371148101,2024-11-23T14:12:28.101Z,24581,0.028904816,-0.107225135,0.011980444
1732371148105,2024-11-23T14:12:28.105Z,24585,0.028904816,-0.107225135,0.011980444
1732371148116,2024-11-23T14:12:28.116Z,24596,0.042835478,-0.10592542,0.023226121
1732371148119,2024-11-23T14:12:28.119Z,24599,0.042835478,-0.10592542,0.023226121
1732371148129,2024-11-23T14:12:28.129Z,24609,0.023044037,-0.116472326,-0.0063730194
1732371148133,2024-11-23T14:12:28.133Z,24613,0.023044037,-0.116472326,-0.0063730194
1732371148144,2024-11-23T14:12:28.144Z,24624,0.011851044,-0.09494168,-0.028008424
1732371148148,2024-11-23T14:12:28.148Z,24628,0.011851044,-0.09494168,-0.028008424
1732371148162,2024-11-23T14:12:28.162Z,24642,0.045102663,-0.079796806,0.0038580114
1732371148174,2024-11-23T14:12:28.174Z,24654,0.045102663,-0.079796806,0.0038580114
1732371148203,2024-11-23T14:12:28.203Z,24683,0.011889286,-0.0748997,0.003584417
1732371148211,2024-11-23T14:12:28.211Z,24691,0.011889286,-0.0748997,0.003584417
1732371148229,2024-11-23T14:12:28.229Z,24709,0.022573067,-0.0689568,-0.023542408
1732371148233,2024-11-23T14:12:28.233Z,24713,0.022573067,-0.0689568,-0.023542408
1732371148246,2024-11-23T14:12:28.246Z,24726,0.05568353,-0.07273448,-0.03260265
1732371148252,2024-11-23T14:12:28.252Z,24732,0.05568353,-0.07273448,-0.03260265
1732371148264,2024-11-23T14:12:28.264Z,24744,0.08389395,-0.09533009,0.028609037
1732371148267,2024-11-23T14:12:28.267Z,24747,0.08389395,-0.09533009,0.028609037
1732371148278,2024-11-23T14:12:28.278Z,24758,0.04481661,-0.059369437,0.023932809
1732371148281,2024-11-23T14:12:28.281Z,24761,0.04481661,-0.059369437,0.023932809
1732371148304,2024-11-23T14:12:28.304Z,24784,0.020192249,-0.092068106,-0.033236023
1732371148311,2024-11-23T14:12:28.311Z,24791,0.020192249,-0.092068106,-0.033236023
1732371148337,2024-11-23T14:12:28.337Z,24817,0.02840489,-0.08941402,-0.093884856
1732371148345,2024-11-23T14:12:28.345Z,24825,0.02840489,-0.08941402,-0.093884856
1732371148362,2024-11-23T14:12:28.362Z,24842,0.08204544,-0.057585623,-0.042039275
1732371148366,2024-11-23T14:12:28.366Z,24846,0.08204544,-0.057585623,-0.042039275
1732371148379,2024-11-23T14:12:28.379Z,24859,0.019672776,-0.033002373,0.026788985
1732371148383,2024-11-23T14:12:28.383Z,24863,0.019672776,-0.033002373,0.026788985
1732371148395,2024-11-23T14:12:28.395Z,24875,0.021159256,-0.074378066,-0.04903209
1732371148399,2024-11-23T14:12:28.399Z,24879,0.021159256,-0.074378066,-0.04903209
1732371148410,2024-11-23T14:12:28.410Z,24890,0.0011511212,-0.085835986,-0.070070796
1732371148413,2024-11-23T14:12:28.413Z,24893,0.0011511212,-0.085835986,-0.070070796
1732371148424,2024-11-23T14:12:28.424Z,24904,0.005542974,-0.07149039,-0.09303116
1732371148427,2024-11-23T14:12:28.427Z,24907,0.005542974,-0.07149039,-0.09303116
1732371148482,2024-11-23T14:12:28.482Z,24962,0.043630626,-0.0687481,-0.08035793
1732371148486,2024-11-23T14:12:28.486Z,24966,0.043630626,-0.0687481,-0.08035793
1732371148578,2024-11-23T14:12:28.578Z,25058,0.06293554,-0.030587323,-0.011103149
1732371148586,2024-11-23T14:12:28.586Z,25066,0.06293554,-0.030587323,-0.011103149
1732371148615,2024-11-23T14:12:28.615Z,25095,0.007276998,-0.010470856,-0.007328147
1732371148621,2024-11-23T14:12:28.621Z,25101,0.007276998,-0.010470856,-0.007328147
1732371148638,2024-11-23T14:12:28.638Z,25118,0.081199996,0.01552375,0.006859398
1732371148643,2024-11-23T14:12:28.643Z,25123,0.081199996,0.01552375,0.006859398
1732371148659,2024-11-23T14:12:28.659Z,25139,0.07157916,-0.016752183,-0.004444713
1732371148664,2024-11-23T14:12:28.664Z,25144,0.07157916,-0.016752183,-0.004444713
1732371148677,2024-11-23T14:12:28.677Z,25157,0.03214995,0.0090796305,-0.0388675
1732371148681,2024-11-23T14:12:28.681Z,25161,0.03214995,0.0090796305,-0.0388675
1732371148708,2024-11-23T14:12:28.708Z,25188,0.0074306494,0.15008244,-0.16526581
1732371148711,2024-11-23T14:12:28.711Z,25191,0.0074306494,0.15008244,-0.16526581
1732371148723,2024-11-23T14:12:28.723Z,25203,0.040190656,0.08839866,0.017970448
1732371148727,2024-11-23T14:12:28.727Z,25207,0.040190656,0.08839866,0.017970448
1732371148739,2024-11-23T14:12:28.739Z,25219,-0.06305946,0.12810943,-0.027153429
1732371148742,2024-11-23T14:12:28.742Z,25222,-0.06305946,0.12810943,-0.027153429
1732371148753,2024-11-23T14:12:28.753Z,25233,-0.025475157,0.10395868,-0.080310635
1732371148756,2024-11-23T14:12:28.756Z,25236,-0.025475157,0.10395868,-0.080310635
1732371148767,2024-11-23T14:12:28.767Z,25247,0.07049377,0.12473308,0.03002751
1732371148771,2024-11-23T14:12:28.771Z,25251,0.07049377,0.12473308,0.03002751
1732371148780,2024-11-23T14:12:28.780Z,25260,0.033574652,0.10912964,-0.08494394
1732371148783,2024-11-23T14:12:28.783Z,25263,0.033574652,0.10912964,-0.08494394
1732371148842,2024-11-23T14:12:28.842Z,25322,0.066584565,0.06296605,-0.081736505
1732371148845,2024-11-23T14:12:28.845Z,25325,0.066584565,0.06296605,-0.081736505
1732371148855,2024-11-23T14:12:28.855Z,25335,-0.051272593,0.023744585,0.016171224
1732371148858,2024-11-23T14:12:28.858Z,25338,-0.051272593,0.023744585,0.016171224
1732371148869,2024-11-23T14:12:28.869Z,25349,-0.038371954,0.029003061,-0.08926984
1732371148874,2024-11-23T14:12:28.874Z,25354,-0.038371954,0.029003061,-0.08926984
1732371148934,2024-11-23T14:12:28.934Z,25414,0.084130384,0.013973816,0.036714915
1732371148939,2024-11-23T14:12:28.939Z,25419,0.084130384,0.013973816,0.036714915
1732371148951,2024-11-23T14:12:28.951Z,25431,0.041067347,0.09816418,-0.120381854
1732371148955,2024-11-23T14:12:28.955Z,25435,0.041067347,0.09816418,-0.120381854
1732371148966,2024-11-23T14:12:28.966Z,25446,-0.0206268,0.11653077,-0.118188076
1732371148971,2024-11-23T14:12:28.971Z,25451,-0.0206268,0.11653077,-0.118188076
1732371149022,2024-11-23T14:12:29.022Z,25502,0.011078824,0.13498698,-0.09042915
1732371149026,2024-11-23T14:12:29.026Z,25506,0.011078824,0.13498698,-0.09042915
1732371149083,2024-11-23T14:12:29.083Z,25563,-0.026409756,0.20526426,-0.12059855
1732371149093,2024-11-23T14:12:29.093Z,25573,-0.026409756,0.20526426,-0.12059855
1732371149121,2024-11-23T14:12:29.121Z,25601,-0.07011341,0.21607684,-0.19438355
1732371149130,2024-11-23T14:12:29.130Z,25610,-0.07011341,0.21607684,-0.19438355
1732371149152,2024-11-23T14:12:29.152Z,25632,-0.0056957984,0.21094634,-0.13905165
1732371149157,2024-11-23T14:12:29.157Z,25637,-0.0056957984,0.21094634,-0.13905165
1732371149173,2024-11-23T14:12:29.173Z,25653,-0.10996903,0.24327284,-0.13172732
1732371149178,2024-11-23T14:12:29.178Z,25658,-0.10996903,0.24327284,-0.13172732
1732371149192,2024-11-23T14:12:29.192Z,25672,-0.12208184,0.23338848,-0.13778183
1732371149196,2024-11-23T14:12:29.196Z,25676,-0.12208184,0.23338848,-0.13778183
1732371149210,2024-11-23T14:12:29.210Z,25690,-0.06165308,0.20740624,-0.14807855
1732371149215,2024-11-23T14:12:29.215Z,25695,-0.06165308,0.20740624,-0.14807855
1732371149227,2024-11-23T14:12:29.227Z,25707,-0.12088049,0.32314044,-0.11614477
1732371149230,2024-11-23T14:12:29.230Z,25710,-0.12088049,0.32314044,-0.11614477
1732371149241,2024-11-23T14:12:29.241Z,25721,-0.08099961,0.23283209,-0.10134433
1732371149244,2024-11-23T14:12:29.244Z,25724,-0.08099961,0.23283209,-0.10134433
1732371149255,2024-11-23T14:12:29.255Z,25735,0.078385815,0.14567469,-0.06546941
1732371149259,2024-11-23T14:12:29.259Z,25739,0.078385815,0.14567469,-0.06546941
1732371149270,2024-11-23T14:12:29.270Z,25750,-0.10600171,0.11200671,0.032175183
1732371149273,2024-11-23T14:12:29.273Z,25753,-0.10600171,0.11200671,0.032175183
1732371149282,2024-11-23T14:12:29.282Z,25762,-0.11818053,0.17202601,-0.038880162
1732371149286,2024-11-23T14:12:29.286Z,25766,-0.11818053,0.17202601,-0.038880162
1732371149300,2024-11-23T14:12:29.300Z,25780,0.01752535,0.1045835,-0.13429561
1732371149305,2024-11-23T14:12:29.305Z,25785,0.01752535,0.1045835,-0.13429561
1732371149325,2024-11-23T14:12:29.325Z,25805,-0.032762367,0.23629312,-0.11179777
1732371149331,2024-11-23T14:12:29.331Z,25811,-0.032762367,0.23629312,-0.11179777
1732371149353,2024-11-23T14:12:29.353Z,25833,-0.1096909,0.19991553,-0.032865044
1732371149361,2024-11-23T14:12:29.361Z,25841,-0.1096909,0.19991553,-0.032865044
1732371149386,2024-11-23T14:12:29.386Z,25866,0.0245921,0.12485532,-0.06657236
1732371149392,2024-11-23T14:12:29.392Z,25872,0.0245921,0.12485532,-0.06657236
1732371149412,2024-11-23T14:12:29.412Z,25892,0.1053678,0.08266454,-0.17333362
1732371149419,2024-11-23T14:12:29.419Z,25899,0.1053678,0.08266454,-0.17333362
1732371149443,2024-11-23T14:12:29.443Z,25923,0.124901436,0.090189576,-0.075454414
1732371149451,2024-11-23T14:12:29.451Z,25931,0.124901436,0.090189576,-0.075454414
1732371149472,2024-11-23T14:12:29.472Z,25952,0.035395008,0.16717272,0.07241145
1732371149476,2024-11-23T14:12:29.476Z,25956,0.035395008,0.16717272,0.07241145
1732371149491,2024-11-23T14:12:29.491Z,25971,0.022191636,0.13420919,-0.01353108
1732371149496,2024-11-23T14:12:29.496Z,25976,0.022191636,0.13420919,-0.01353108
1732371149509,2024-11-23T14:12:29.509Z,25989,0.101960145,0.07282687,-0.013934725
1732371149514,2024-11-23T14:12:29.514Z,25994,0.101960145,0.07282687,-0.013934725
1732371149527,2024-11-23T14:12:29.527Z,26007,0.082979724,0.077432424,-0.09470771
1732371149530,2024-11-23T14:12:29.530Z,26010,0.082979724,0.077432424,-0.09470771
1732371149541,2024-11-23T14:12:29.541Z,26021,-0.06770347,0.04878373,-0.053251255
1732371149544,2024-11-23T14:12:29.544Z,26024,-0.06770347,0.04878373,-0.053251255
1732371149556,2024-11-23T14:12:29.556Z,26036,0.010734592,0.07152297,0.025498545
1732371149560,2024-11-23T14:12:29.560Z,26040,0.010734592,0.07152297,0.025498545
1732371149569,2024-11-23T14:12:29.569Z,26049,0.0990989,-0.049647875,0.050652567
1732371149572,2024-11-23T14:12:29.572Z,26052,0.0990989,-0.049647875,0.050652567
1732371149582,2024-11-23T14:12:29.582Z,26062,-0.029023873,-0.052475937,-0.13117425
1732371149584,2024-11-23T14:12:29.584Z,26064,-0.029023873,-0.052475937,-0.13117425
1732371149594,2024-11-23T14:12:29.594Z,26074,0.014158125,0.014488548,-0.061431766
1732371149597,2024-11-23T14:12:29.597Z,26077,0.014158125,0.014488548,-0.061431766
1732371149608,2024-11-23T14:12:29.608Z,26088,-0.014113658,-0.07050703,-0.077434056
1732371149613,2024-11-23T14:12:29.613Z,26093,-0.014113658,-0.07050703,-0.077434056
1732371149626,2024-11-23T14:12:29.626Z,26106,0.1729168,-0.107368186,-0.08474382
1732371149630,2024-11-23T14:12:29.630Z,26110,0.1729168,-0.107368186,-0.08474382
1732371149644,2024-11-23T14:12:29.644Z,26124,0.20198941,-0.18124717,0.024486719
1732371149649,2024-11-23T14:12:29.649Z,26129,0.20198941,-0.18124717,0.024486719
1732371149661,2024-11-23T14:12:29.661Z,26141,-0.03958291,-0.047127992,-0.12537915
1732371149665,2024-11-23T14:12:29.665Z,26145,-0.03958291,-0.047127992,-0.12537915
1732371149676,2024-11-23T14:12:29.676Z,26156,0.15557857,-0.049070515,-0.04721662
1732371149679,2024-11-23T14:12:29.679Z,26159,0.15557857,-0.049070515,-0.04721662
1732371149690,2024-11-23T14:12:29.690Z,26170,0.06903112,-0.07911539,0.062292334
1732371149693,2024-11-23T14:12:29.693Z,26173,0.06903112,-0.07911539,0.062292334
1732371149744,2024-11-23T14:12:29.744Z,26224,0.13359559,-0.133087,-0.06545224
1732371149748,2024-11-23T14:12:29.748Z,26228,0.13359559,-0.133087,-0.06545224
1732371149758,2024-11-23T14:12:29.758Z,26238,0.15539575,-0.13704664,0.025091387
1732371149761,2024-11-23T14:12:29.761Z,26241,0.15539575,-0.13704664,0.025091387
1732371149771,2024-11-23T14:12:29.771Z,26251,0.045884583,-0.1386023,0.0060795564
1732371149774,2024-11-23T14:12:29.774Z,26254,0.045884583,-0.1386023,0.0060795564
1732371149878,2024-11-23T14:12:29.878Z,26358,0.09885693,-0.16292405,-0.08574921
1732371149884,2024-11-23T14:12:29.884Z,26364,0.09885693,-0.16292405,-0.08574921
1732371149897,2024-11-23T14:12:29.897Z,26377,0.08930344,-0.14232592,-0.0593447
1732371149902,2024-11-23T14:12:29.902Z,26382,0.08930344,-0.14232592,-0.0593447
1732371149917,2024-11-23T14:12:29.917Z,26397,0.047851928,-0.11438597,-0.011443637
1732371149921,2024-11-23T14:12:29.921Z,26401,0.047851928,-0.11438597,-0.011443637
1732371150198,2024-11-23T14:12:30.198Z,26678,0.11227493,-0.14511634,-0.07093548
1732371150205,2024-11-23T14:12:30.205Z,26685,0.11227493,-0.14511634,-0.07093548
1732371150241,2024-11-23T14:12:30.241Z,26721,0.12447034,-0.13927224,-0.0076008025
1732371150248,2024-11-23T14:12:30.248Z,26728,0.12447034,-0.13927224,-0.0076008025
1732371150265,2024-11-23T14:12:30.265Z,26745,0.058537703,-0.15850814,-0.03608923
1732371150270,2024-11-23T14:12:30.270Z,26750,0.058537703,-0.15850814,-0.03608923
1732371150285,2024-11-23T14:12:30.285Z,26765,0.07520272,-0.14865422,0.029957293
1732371150289,2024-11-23T14:12:30.289Z,26769,0.07520272,-0.14865422,0.029957293
1732371150330,2024-11-23T14:12:30.330Z,26810,-0.042361226,-0.11336458,0.024460474
1732371150335,2024-11-23T14:12:30.335Z,26815,-0.042361226,-0.11336458,0.024460474
1732371150351,2024-11-23T14:12:30.351Z,26831,-0.041735362,-0.09974582,-0.017296193
1732371150356,2024-11-23T14:12:30.356Z,26836,-0.041735362,-0.09974582,-0.017296193
1732371150371,2024-11-23T14:12:30.371Z,26851,0.023701128,-0.13506375,-0.07731559
1732371150376,2024-11-23T14:12:30.376Z,26856,0.023701128,-0.13506375,-0.07731559
1732371150389,2024-11-23T14:12:30.389Z,26869,0.04563851,-5.200808E-4,0.034138385
1732371150393,2024-11-23T14:12:30.393Z,26873,0.04563851,-5.200808E-4,0.034138385
1732371150405,2024-11-23T14:12:30.405Z,26885,0.041471444,0.021175398,-0.037354805
1732371150409,2024-11-23T14:12:30.409Z,26889,0.041471444,0.021175398,-0.037354805
1732371150465,2024-11-23T14:12:30.465Z,26945,-0.05900103,0.03335266,0.011976421
1732371150469,2024-11-23T14:12:30.469Z,26949,-0.05900103,0.03335266,0.011976421
1732371150481,2024-11-23T14:12:30.481Z,26961,-0.019636769,-0.028809052,0.001906821
1732371150484,2024-11-23T14:12:30.484Z,26964,-0.019636769,-0.028809052,0.001906821
1732371150497,2024-11-23T14:12:30.497Z,26977,-0.03086623,-0.02223073,-0.0031853125
1732371150501,2024-11-23T14:12:30.501Z,26981,-0.03086623,-0.02223073,-0.0031853125
1732371150514,2024-11-23T14:12:30.514Z,26994,-0.04749835,-0.061340746,-0.0048737396
1732371150518,2024-11-23T14:12:30.518Z,26998,-0.04749835,-0.061340746,-0.0048737396
1732371150529,2024-11-23T14:12:30.529Z,27009,-0.044673778,-0.04297104,0.05196473
1732371150532,2024-11-23T14:12:30.532Z,27012,-0.044673778,-0.04297104,0.05196473
1732371150542,2024-11-23T14:12:30.542Z,27022,-0.045240305,-0.055401344,0.058817096
1732371150546,2024-11-23T14:12:30.546Z,27026,-0.045240305,-0.055401344,0.058817096
1732371150598,2024-11-23T14:12:30.598Z,27078,-0.032954745,-0.049474385,0.01472148
1732371150602,2024-11-23T14:12:30.602Z,27082,-0.032954745,-0.049474385,0.01472148
1732371150613,2024-11-23T14:12:30.613Z,27093,-0.063305564,-0.04894254,0.0293956
1732371150617,2024-11-23T14:12:30.617Z,27097,-0.063305564,-0.04894254,0.0293956
1732371150630,2024-11-23T14:12:30.630Z,27110,-0.040422022,-0.034550168,0.053335875
1732371150633,2024-11-23T14:12:30.633Z,27113,-0.040422022,-0.034550168,0.053335875
1732371150645,2024-11-23T14:12:30.645Z,27125,-0.020094806,-0.048689306,0.055159148
1732371150649,2024-11-23T14:12:30.649Z,27129,-0.020094806,-0.048689306,0.055159148
1732371150659,2024-11-23T14:12:30.659Z,27139,-0.0386981,-0.019171122,0.018878384
1732371150663,2024-11-23T14:12:30.663Z,27143,-0.0386981,-0.019171122,0.018878384
1732371150673,2024-11-23T14:12:30.673Z,27153,-0.024544982,-0.03952896,0.04927972
1732371150677,2024-11-23T14:12:30.677Z,27157,-0.024544982,-0.03952896,0.04927972
1732371150687,2024-11-23T14:12:30.687Z,27167,-0.007194143,-0.034496684,0.0130287865
1732371150690,2024-11-23T14:12:30.690Z,27170,-0.007194143,-0.034496684,0.0130287865
1732371150701,2024-11-23T14:12:30.701Z,27181,-0.020313285,-0.0698011,-0.028932508
1732371150704,2024-11-23T14:12:30.704Z,27184,-0.020313285,-0.0698011,-0.028932508
1732371150713,2024-11-23T14:12:30.713Z,27193,0.028516797,-0.038583905,-0.010568942
1732371150717,2024-11-23T14:12:30.717Z,27197,0.028516797,-0.038583905,-0.010568942
1732371150782,2024-11-23T14:12:30.782Z,27262,1.7683281E-4,-0.0412907,-0.054433763
1732371150786,2024-11-23T14:12:30.786Z,27266,1.7683281E-4,-0.0412907,-0.054433763
1732371150802,2024-11-23T14:12:30.802Z,27282,-0.03309887,-0.023914866,-0.06135825
1732371150806,2024-11-23T14:12:30.806Z,27286,-0.03309887,-0.023914866,-0.06135825
1732371150916,2024-11-23T14:12:30.916Z,27396,-0.0077391556,-0.010828047,-0.038905017
1732371150924,2024-11-23T14:12:30.924Z,27404,-0.0077391556,-0.010828047,-0.038905017
1732371150951,2024-11-23T14:12:30.951Z,27431,-0.0013872386,-0.010378762,-0.005359674
1732371150959,2024-11-23T14:12:30.959Z,27439,-0.0013872386,-0.010378762,-0.005359674
1732371150974,2024-11-23T14:12:30.974Z,27454,0.016735371,-0.010839911,-0.042251933
1732371150978,2024-11-23T14:12:30.978Z,27458,0.016735371,-0.010839911,-0.042251933
1732371150991,2024-11-23T14:12:30.991Z,27471,0.026416369,-0.009802764,-0.044450823
1732371150998,2024-11-23T14:12:30.998Z,27478,0.026416369,-0.009802764,-0.044450823
1732371151015,2024-11-23T14:12:31.015Z,27495,0.009331185,-0.03701384,-0.027075527
1732371151019,2024-11-23T14:12:31.019Z,27499,0.009331185,-0.03701384,-0.027075527
1732371151033,2024-11-23T14:12:31.033Z,27513,-0.030135438,-0.072074465,0.021541681
1732371151037,2024-11-23T14:12:31.037Z,27517,-0.030135438,-0.072074465,0.021541681
1732371151049,2024-11-23T14:12:31.049Z,27529,-0.027885733,-0.09539116,-0.001898397
1732371151053,2024-11-23T14:12:31.053Z,27533,-0.027885733,-0.09539116,-0.001898397
1732371151064,2024-11-23T14:12:31.064Z,27544,-0.15074655,-0.2374301,0.090701714
1732371151067,2024-11-23T14:12:31.067Z,27547,-0.15074655,-0.2374301,0.090701714
1732371151077,2024-11-23T14:12:31.077Z,27557,-0.12715627,-0.23380548,0.072936125
1732371151080,2024-11-23T14:12:31.080Z,27560,-0.12715627,-0.23380548,0.072936125
1732371151137,2024-11-23T14:12:31.137Z,27617,-0.06743947,-0.18044527,0.08191033
1732371151141,2024-11-23T14:12:31.141Z,27621,-0.06743947,-0.18044527,0.08191033
1732371151155,2024-11-23T14:12:31.155Z,27635,-0.037476886,-0.15461755,0.07462584
1732371151159,2024-11-23T14:12:31.159Z,27639,-0.037476886,-0.15461755,0.07462584
1732371151172,2024-11-23T14:12:31.172Z,27652,-0.02442279,-0.13280304,0.064966686
1732371151176,2024-11-23T14:12:31.176Z,27656,-0.02442279,-0.13280304,0.064966686
1732371151193,2024-11-23T14:12:31.193Z,27673,0.022125702,-0.11257814,0.08299058
1732371151197,2024-11-23T14:12:31.197Z,27677,0.022125702,-0.11257814,0.08299058
1732371151209,2024-11-23T14:12:31.209Z,27689,-0.023594508,-0.08976178,0.121736184
1732371151212,2024-11-23T14:12:31.212Z,27692,-0.023594508,-0.08976178,0.121736184
1732371151220,2024-11-23T14:12:31.220Z,27700,-0.048348717,-0.10773432,0.109065935
1732371151223,2024-11-23T14:12:31.223Z,27703,-0.048348717,-0.10773432,0.109065935
1732371151280,2024-11-23T14:12:31.280Z,27760,0.036790438,-0.01694026,0.047749467
1732371151284,2024-11-23T14:12:31.284Z,27764,0.036790438,-0.01694026,0.047749467
1732371151363,2024-11-23T14:12:31.363Z,27843,0.025710205,0.005641826,0.027124552
1732371151367,2024-11-23T14:12:31.367Z,27847,0.025710205,0.005641826,0.027124552
1732371151411,2024-11-23T14:12:31.411Z,27891,-0.0029313136,-0.020190278,0.01311524
1732371151418,2024-11-23T14:12:31.418Z,27898,-0.0029313136,-0.020190278,0.01311524
1732371151441,2024-11-23T14:12:31.441Z,27921,0.029076653,0.0032146205,-0.0077495486
1732371151446,2024-11-23T14:12:31.446Z,27926,0.029076653,0.0032146205,-0.0077495486
1732371151463,2024-11-23T14:12:31.463Z,27943,0.053374555,0.013690436,-0.0221337
1732371151467,2024-11-23T14:12:31.467Z,27947,0.053374555,0.013690436,-0.0221337
1732371151480,2024-11-23T14:12:31.480Z,27960,0.036463153,0.020073192,-0.008205884
1732371151484,2024-11-23T14:12:31.484Z,27964,0.036463153,0.020073192,-0.008205884
1732371151495,2024-11-23T14:12:31.495Z,27975,0.05022871,-0.006360973,-0.029382814
1732371151498,2024-11-23T14:12:31.498Z,27978,0.05022871,-0.006360973,-0.029382814
1732371151511,2024-11-23T14:12:31.511Z,27991,0.03105314,-0.10818215,-0.065948114
1732371151516,2024-11-23T14:12:31.516Z,27996,0.03105314,-0.10818215,-0.065948114
1732371151534,2024-11-23T14:12:31.534Z,28014,0.04235782,-0.04292242,-0.022300566
1732371151537,2024-11-23T14:12:31.537Z,28017,0.04235782,-0.04292242,-0.022300566
1732371151550,2024-11-23T14:12:31.550Z,28030,0.028686227,-0.06806523,-0.004286102
1732371151554,2024-11-23T14:12:31.554Z,28034,0.028686227,-0.06806523,-0.004286102
1732371151677,2024-11-23T14:12:31.677Z,28157,0.0779137,-0.086839095,-0.029934792
1732371151681,2024-11-23T14:12:31.681Z,28161,0.0779137,-0.086839095,-0.029934792
1732371151776,2024-11-23T14:12:31.776Z,28256,-0.021314753,-0.09378725,-0.13896035
1732371151783,2024-11-23T14:12:31.783Z,28263,-0.021314753,-0.09378725,-0.13896035
1732371151805,2024-11-23T14:12:31.805Z,28285,0.08015643,-0.06140454,-4.9888686E-4
1732371151813,2024-11-23T14:12:31.813Z,28293,0.08015643,-0.06140454,-4.9888686E-4
1732371151829,2024-11-23T14:12:31.829Z,28309,0.051237315,-0.07562293,0.032623503
1732371151834,2024-11-23T14:12:31.834Z,28314,0.051237315,-0.07562293,0.032623503
1732371151848,2024-11-23T14:12:31.848Z,28328,0.093248524,-0.031390686,0.011259596
1732371151853,2024-11-23T14:12:31.853Z,28333,0.093248524,-0.031390686,0.011259596
1732371151867,2024-11-23T14:12:31.867Z,28347,0.049324017,-0.018321859,-0.0022040221
1732371151870,2024-11-23T14:12:31.870Z,28350,0.049324017,-0.018321859,-0.0022040221
1732371151882,2024-11-23T14:12:31.882Z,28362,0.011154167,-0.05795001,-0.094377056
1732371151885,2024-11-23T14:12:31.885Z,28365,0.011154167,-0.05795001,-0.094377056
1732371151895,2024-11-23T14:12:31.895Z,28375,0.12952459,0.05416659,-0.080601685
1732371151898,2024-11-23T14:12:31.898Z,28378,0.12952459,0.05416659,-0.080601685
1732371151908,2024-11-23T14:12:31.908Z,28388,0.07662884,0.092344,-0.050454307
1732371151911,2024-11-23T14:12:31.911Z,28391,0.07662884,0.092344,-0.050454307
1732371151920,2024-11-23T14:12:31.920Z,28400,0.12794466,0.09342811,-0.09414667
1732371151923,2024-11-23T14:12:31.923Z,28403,0.12794466,0.09342811,-0.09414667
1732371151933,2024-11-23T14:12:31.933Z,28413,0.08916264,0.026217109,-0.084297344
1732371151936,2024-11-23T14:12:31.936Z,28416,0.08916264,0.026217109,-0.084297344
1732371151950,2024-11-23T14:12:31.950Z,28430,0.13486296,0.10598882,0.09206924
1732371151956,2024-11-23T14:12:31.956Z,28436,0.13486296,0.10598882,0.09206924
1732371151977,2024-11-23T14:12:31.977Z,28457,0.025321286,0.23403728,-0.0840067
1732371151980,2024-11-23T14:12:31.980Z,28460,0.025321286,0.23403728,-0.0840067
1732371151989,2024-11-23T14:12:31.989Z,28469,0.0047801626,0.2487249,-0.100426316
1732371151992,2024-11-23T14:12:31.992Z,28472,0.0047801626,0.2487249,-0.100426316
1732371152002,2024-11-23T14:12:32.002Z,28482,0.06748653,0.311118,-0.01686781
1732371152005,2024-11-23T14:12:32.005Z,28485,0.06748653,0.311118,-0.01686781
1732371152036,2024-11-23T14:12:32.036Z,28516,-0.02264824,0.314719,-0.23619321
1732371152039,2024-11-23T14:12:32.039Z,28519,-0.02264824,0.314719,-0.23619321
1732371152050,2024-11-23T14:12:32.050Z,28530,0.08295308,0.3337707,-0.208725
1732371152053,2024-11-23T14:12:32.053Z,28533,0.08295308,0.3337707,-0.208725
1732371152063,2024-11-23T14:12:32.063Z,28543,0.0076057436,0.41012406,-0.20595399
1732371152066,2024-11-23T14:12:32.066Z,28546,0.0076057436,0.41012406,-0.20595399
1732371152131,2024-11-23T14:12:32.131Z,28611,0.04574603,0.3629221,-0.06694035
1732371152139,2024-11-23T14:12:32.139Z,28619,0.04574603,0.3629221,-0.06694035
1732371152162,2024-11-23T14:12:32.162Z,28642,-0.0472073,0.3820408,-0.113065034
1732371152166,2024-11-23T14:12:32.166Z,28646,-0.0472073,0.3820408,-0.113065034
1732371152179,2024-11-23T14:12:32.179Z,28659,-0.10636119,0.28767425,-0.088308424
1732371152184,2024-11-23T14:12:32.184Z,28664,-0.10636119,0.28767425,-0.088308424
1732371152217,2024-11-23T14:12:32.217Z,28697,-0.08981174,0.25370425,-0.19575956
1732371152223,2024-11-23T14:12:32.223Z,28703,-0.08981174,0.25370425,-0.19575956
1732371152239,2024-11-23T14:12:32.239Z,28719,-0.09847386,0.20607325,-0.2584944
1732371152243,2024-11-23T14:12:32.243Z,28723,-0.09847386,0.20607325,-0.2584944
1732371152260,2024-11-23T14:12:32.260Z,28740,-0.005936438,0.09991794,-0.1518697
1732371152263,2024-11-23T14:12:32.263Z,28743,-0.005936438,0.09991794,-0.1518697
1732371152276,2024-11-23T14:12:32.276Z,28756,-0.114213064,0.09142268,-0.16674651
1732371152282,2024-11-23T14:12:32.282Z,28762,-0.114213064,0.09142268,-0.16674651
1732371152294,2024-11-23T14:12:32.294Z,28774,-0.07613929,0.018585011,-0.124251366
1732371152296,2024-11-23T14:12:32.296Z,28776,-0.07613929,0.018585011,-0.124251366
1732371152305,2024-11-23T14:12:32.305Z,28785,-0.046742067,0.046562206,-0.107208624
1732371152307,2024-11-23T14:12:32.307Z,28787,-0.046742067,0.046562206,-0.107208624
1732371152355,2024-11-23T14:12:32.355Z,28835,0.086080246,0.14314266,-0.026050974
1732371152359,2024-11-23T14:12:32.359Z,28839,0.086080246,0.14314266,-0.026050974
1732371152370,2024-11-23T14:12:32.370Z,28850,0.043278757,0.19959792,-0.0029990224
1732371152377,2024-11-23T14:12:32.377Z,28857,0.043278757,0.19959792,-0.0029990224
1732371152402,2024-11-23T14:12:32.402Z,28882,0.094277404,0.22560191,0.0030378362
1732371152410,2024-11-23T14:12:32.410Z,28890,0.094277404,0.22560191,0.0030378362
1732371152424,2024-11-23T14:12:32.424Z,28904,0.038325105,0.068182126,-0.19422232
1732371152429,2024-11-23T14:12:32.429Z,28909,0.038325105,0.068182126,-0.19422232
1732371152443,2024-11-23T14:12:32.443Z,28923,0.102014095,0.04318392,-0.17660959
1732371152448,2024-11-23T14:12:32.448Z,28928,0.102014095,0.04318392,-0.17660959
1732371152460,2024-11-23T14:12:32.460Z,28940,0.14426696,0.15917608,-0.08824622
1732371152463,2024-11-23T14:12:32.463Z,28943,0.14426696,0.15917608,-0.08824622
1732371152473,2024-11-23T14:12:32.473Z,28953,0.044242725,0.18619038,0.018828543
1732371152477,2024-11-23T14:12:32.477Z,28957,0.044242725,0.18619038,0.018828543
1732371152489,2024-11-23T14:12:32.489Z,28969,0.13757418,0.18486771,-0.12018301
1732371152496,2024-11-23T14:12:32.496Z,28976,0.13757418,0.18486771,-0.12018301
1732371152515,2024-11-23T14:12:32.515Z,28995,0.15053025,0.12861249,-0.10514645
1732371152522,2024-11-23T14:12:32.522Z,29002,0.15053025,0.12861249,-0.10514645
1732371152547,2024-11-23T14:12:32.547Z,29027,0.14457504,0.14259087,-0.008951628
1732371152554,2024-11-23T14:12:32.554Z,29034,0.14457504,0.14259087,-0.008951628
1732371152567,2024-11-23T14:12:32.567Z,29047,0.13741654,0.1278589,-0.12886201
1732371152571,2024-11-23T14:12:32.571Z,29051,0.13741654,0.1278589,-0.12886201
1732371152585,2024-11-23T14:12:32.585Z,29065,0.16317661,0.09382498,-0.112266324
1732371152588,2024-11-23T14:12:32.588Z,29068,0.16317661,0.09382498,-0.112266324
1732371152599,2024-11-23T14:12:32.599Z,29079,0.13903277,0.05813799,-0.040529694
1732371152602,2024-11-23T14:12:32.602Z,29082,0.13903277,0.05813799,-0.040529694
1732371152613,2024-11-23T14:12:32.613Z,29093,0.029619053,-4.56967E-4,0.017937876
1732371152616,2024-11-23T14:12:32.616Z,29096,0.029619053,-4.56967E-4,0.017937876
1732371152629,2024-11-23T14:12:32.629Z,29109,0.04689421,-0.06611444,0.13059199
1732371152634,2024-11-23T14:12:32.634Z,29114,0.04689421,-0.06611444,0.13059199
1732371152653,2024-11-23T14:12:32.653Z,29133,-0.012641911,0.048995342,0.047278497
1732371152658,2024-11-23T14:12:32.658Z,29138,-0.012641911,0.048995342,0.047278497
1732371152679,2024-11-23T14:12:32.679Z,29159,0.06752154,-0.027077945,0.0024640139
1732371152685,2024-11-23T14:12:32.685Z,29165,0.06752154,-0.027077945,0.0024640139
1732371152706,2024-11-23T14:12:32.706Z,29186,0.009150864,-0.07971385,-0.083584145
1732371152712,2024-11-23T14:12:32.712Z,29192,0.009150864,-0.07971385,-0.083584145
1732371152726,2024-11-23T14:12:32.726Z,29206,0.08236906,0.019234626,-0.05460217
1732371152730,2024-11-23T14:12:32.730Z,29210,0.08236906,0.019234626,-0.05460217
1732371152742,2024-11-23T14:12:32.742Z,29222,0.08691206,-0.12966096,0.02304101
1732371152746,2024-11-23T14:12:32.746Z,29226,0.08691206,-0.12966096,0.02304101
1732371152757,2024-11-23T14:12:32.757Z,29237,0.050617557,-0.04141819,-0.050759695
1732371152760,2024-11-23T14:12:32.760Z,29240,0.050617557,-0.04141819,-0.050759695
1732371152803,2024-11-23T14:12:32.803Z,29283,0.08154853,-0.036551427,0.030845346
1732371152807,2024-11-23T14:12:32.807Z,29287,0.08154853,-0.036551427,0.030845346
1732371152941,2024-11-23T14:12:32.941Z,29421,0.12593983,-0.1074949,0.07844037
1732371152949,2024-11-23T14:12:32.949Z,29429,0.12593983,-0.1074949,0.07844037
1732371152989,2024-11-23T14:12:32.989Z,29469,0.03132981,-0.12911054,0.013450307
1732371152996,2024-11-23T14:12:32.996Z,29476,0.03132981,-0.12911054,0.013450307
1732371153019,2024-11-23T14:12:33.019Z,29499,-0.012498859,-0.035328735,-0.048630584
1732371153026,2024-11-23T14:12:33.026Z,29506,-0.012498859,-0.035328735,-0.048630584
1732371153041,2024-11-23T14:12:33.041Z,29521,0.07949055,-0.15791735,-0.013937968
1732371153046,2024-11-23T14:12:33.046Z,29526,0.07949055,-0.15791735,-0.013937968
1732371153059,2024-11-23T14:12:33.059Z,29539,-0.08083135,-0.12228706,-0.024956487
1732371153063,2024-11-23T14:12:33.063Z,29543,-0.08083135,-0.12228706,-0.024956487
1732371153077,2024-11-23T14:12:33.077Z,29557,0.07054553,-0.08832086,0.113630444
1732371153081,2024-11-23T14:12:33.081Z,29561,0.07054553,-0.08832086,0.113630444
1732371153098,2024-11-23T14:12:33.098Z,29578,0.10943969,-0.112635314,-0.027274659
1732371153105,2024-11-23T14:12:33.105Z,29585,0.10943969,-0.112635314,-0.027274659
1732371153166,2024-11-23T14:12:33.166Z,29646,0.08281505,-0.151079,-0.0073306663
1732371153171,2024-11-23T14:12:33.171Z,29651,0.08281505,-0.151079,-0.0073306663
1732371153211,2024-11-23T14:12:33.211Z,29691,0.0085043,-0.15346098,0.045243114
1732371153218,2024-11-23T14:12:33.218Z,29698,0.0085043,-0.15346098,0.045243114
1732371153238,2024-11-23T14:12:33.238Z,29718,-0.011443029,-0.12705676,0.02127363
1732371153243,2024-11-23T14:12:33.243Z,29723,-0.011443029,-0.12705676,0.02127363
1732371153258,2024-11-23T14:12:33.258Z,29738,0.026904406,-0.10340855,0.09129149
1732371153263,2024-11-23T14:12:33.263Z,29743,0.026904406,-0.10340855,0.09129149
1732371153277,2024-11-23T14:12:33.277Z,29757,-0.070997484,-0.10769105,0.061389856
1732371153282,2024-11-23T14:12:33.282Z,29762,-0.070997484,-0.10769105,0.061389856
1732371153294,2024-11-23T14:12:33.294Z,29774,0.00912079,-0.1129751,0.01709548
1732371153298,2024-11-23T14:12:33.298Z,29778,0.00912079,-0.1129751,0.01709548
1732371153312,2024-11-23T14:12:33.312Z,29792,0.029427888,-0.102653034,0.08192909
1732371153321,2024-11-23T14:12:33.321Z,29801,0.029427888,-0.102653034,0.08192909
1732371153333,2024-11-23T14:12:33.333Z,29813,0.04352059,-0.10556823,-0.0229694
1732371153336,2024-11-23T14:12:33.336Z,29816,0.04352059,-0.10556823,-0.0229694
1732371153436,2024-11-23T14:12:33.436Z,29916,0.03685822,-0.02305646,-0.017408641
1732371153442,2024-11-23T14:12:33.442Z,29922,0.03685822,-0.02305646,-0.017408641
1732371153466,2024-11-23T14:12:33.466Z,29946,-0.039652973,-0.058108427,-0.06222768
1732371153473,2024-11-23T14:12:33.473Z,29953,-0.039652973,-0.058108427,-0.06222768
1732371153497,2024-11-23T14:12:33.497Z,29977,0.015718501,-0.05110737,-0.07254585
1732371153502,2024-11-23T14:12:33.502Z,29982,0.015718501,-0.05110737,-0.07254585
1732371153517,2024-11-23T14:12:33.517Z,29997,-0.004973649,-0.032472372,-0.03923689
1732371153522,2024-11-23T14:12:33.522Z,30002,-0.004973649,-0.032472372,-0.03923689
1732371153536,2024-11-23T14:12:33.536Z,30016,0.022036357,-0.02744136,0.003848627
1732371153541,2024-11-23T14:12:33.541Z,30021,0.022036357,-0.02744136,0.003848627
1732371153553,2024-11-23T14:12:33.553Z,30033,-0.024920639,-0.028840171,-6.302989E-4
1732371153557,2024-11-23T14:12:33.557Z,30037,-0.024920639,-0.028840171,-6.302989E-4
1732371153569,2024-11-23T14:12:33.569Z,30049,-0.031873316,-0.079924785,-0.07206242
1732371153572,2024-11-23T14:12:33.572Z,30052,-0.031873316,-0.079924785,-0.07206242
1732371153581,2024-11-23T14:12:33.581Z,30061,-0.053157303,-0.071837276,-0.027131226
1732371153585,2024-11-23T14:12:33.585Z,30065,-0.053157303,-0.071837276,-0.027131226
1732371153613,2024-11-23T14:12:33.613Z,30093,-0.06452099,-0.042464577,0.014643244
1732371153617,2024-11-23T14:12:33.617Z,30097,-0.06452099,-0.042464577,0.014643244
1732371153629,2024-11-23T14:12:33.629Z,30109,-0.016374107,-0.010327124,0.049959153
1732371153633,2024-11-23T14:12:33.633Z,30113,-0.016374107,-0.010327124,0.049959153
1732371153657,2024-11-23T14:12:33.657Z,30137,0.005959121,-8.635597E-5,0.024714608
1732371153659,2024-11-23T14:12:33.659Z,30139,0.005959121,-8.635597E-5,0.024714608
1732371153670,2024-11-23T14:12:33.670Z,30150,-0.039310735,8.666716E-4,0.048107218
1732371153673,2024-11-23T14:12:33.673Z,30153,-0.039310735,8.666716E-4,0.048107218
1732371153753,2024-11-23T14:12:33.753Z,30233,-0.062432062,-0.022547174,0.015478675
1732371153760,2024-11-23T14:12:33.760Z,30240,-0.062432062,-0.022547174,0.015478675
1732371153786,2024-11-23T14:12:33.786Z,30266,-0.03924638,-0.022533754,0.038406868
1732371153794,2024-11-23T14:12:33.794Z,30274,-0.03924638,-0.022533754,0.038406868
1732371153817,2024-11-23T14:12:33.817Z,30297,-0.011414961,-0.030362,0.030489273
1732371153823,2024-11-23T14:12:33.823Z,30303,-0.011414961,-0.030362,0.030489273
1732371153843,2024-11-23T14:12:33.843Z,30323,-0.030785076,-0.02134529,0.03784915
1732371153847,2024-11-23T14:12:33.847Z,30327,-0.030785076,-0.02134529,0.03784915
1732371153861,2024-11-23T14:12:33.861Z,30341,-0.010137296,-0.04158711,0.06882775
1732371153865,2024-11-23T14:12:33.865Z,30345,-0.010137296,-0.04158711,0.06882775
1732371153879,2024-11-23T14:12:33.879Z,30359,-0.026000539,-0.024767049,-0.029440043
1732371153884,2024-11-23T14:12:33.884Z,30364,-0.026000539,-0.024767049,-0.029440043
1732371153895,2024-11-23T14:12:33.895Z,30375,-0.019684736,-0.011051619,0.025081595
1732371153899,2024-11-23T14:12:33.899Z,30379,-0.019684736,-0.011051619,0.025081595
1732371153909,2024-11-23T14:12:33.909Z,30389,0.07041126,0.111156374,-0.05498026
1732371153912,2024-11-23T14:12:33.912Z,30392,0.07041126,0.111156374,-0.05498026
1732371153922,2024-11-23T14:12:33.922Z,30402,-0.010961641,0.065155774,0.009477701
1732371153925,2024-11-23T14:12:33.925Z,30405,-0.010961641,0.065155774,0.009477701
1732371153934,2024-11-23T14:12:33.934Z,30414,-0.033413365,0.03496318,-0.033279795
1732371153936,2024-11-23T14:12:33.936Z,30416,-0.033413365,0.03496318,-0.033279795
1732371153944,2024-11-23T14:12:33.944Z,30424,-0.040628564,-0.0015963212,-0.07021111
1732371153946,2024-11-23T14:12:33.946Z,30426,-0.040628564,-0.0015963212,-0.07021111
1732371153955,2024-11-23T14:12:33.955Z,30435,-0.06792507,-0.020304643,0.016367033
1732371153957,2024-11-23T14:12:33.957Z,30437,-0.06792507,-0.020304643,0.016367033
1732371153965,2024-11-23T14:12:33.965Z,30445,-0.0567455,-0.05870854,-0.0074596168
1732371153967,2024-11-23T14:12:33.967Z,30447,-0.0567455,-0.05870854,-0.0074596168
1732371154066,2024-11-23T14:12:34.066Z,30546,0.010620253,-0.09656085,0.021355987
1732371154068,2024-11-23T14:12:34.068Z,30548,0.010620253,-0.09656085,0.021355987
1732371154077,2024-11-23T14:12:34.077Z,30557,-0.123807184,-0.22518224,-0.005218616
1732371154080,2024-11-23T14:12:34.080Z,30560,-0.123807184,-0.22518224,-0.005218616
1732371154109,2024-11-23T14:12:34.109Z,30589,-0.123401806,-0.27246067,0.048057366
1732371154112,2024-11-23T14:12:34.112Z,30592,-0.123401806,-0.27246067,0.048057366
1732371154122,2024-11-23T14:12:34.122Z,30602,-0.14081168,-0.31068963,0.08547776
1732371154126,2024-11-23T14:12:34.126Z,30606,-0.14081168,-0.31068963,0.08547776
1732371154152,2024-11-23T14:12:34.152Z,30632,-0.12184801,-0.31557283,0.049535044
1732371154157,2024-11-23T14:12:34.157Z,30637,-0.12184801,-0.31557283,0.049535044
1732371154169,2024-11-23T14:12:34.169Z,30649,-0.15313861,-0.35083446,0.09420124
1732371154173,2024-11-23T14:12:34.173Z,30653,-0.15313861,-0.35083446,0.09420124
1732371154189,2024-11-23T14:12:34.189Z,30669,-0.16161352,-0.34523872,0.064414226
1732371154198,2024-11-23T14:12:34.198Z,30678,-0.16161352,-0.34523872,0.064414226
1732371154220,2024-11-23T14:12:34.220Z,30700,-0.06478054,-0.18497322,0.053027064
1732371154226,2024-11-23T14:12:34.226Z,30706,-0.06478054,-0.18497322,0.053027064
1732371154241,2024-11-23T14:12:34.241Z,30721,-0.018497463,-0.17942631,0.08453973
1732371154245,2024-11-23T14:12:34.245Z,30725,-0.018497463,-0.17942631,0.08453973
1732371154259,2024-11-23T14:12:34.259Z,30739,0.022019072,-0.06260409,0.05990712
1732371154263,2024-11-23T14:12:34.263Z,30743,0.022019072,-0.06260409,0.05990712
1732371154276,2024-11-23T14:12:34.276Z,30756,-0.060685225,-0.05786492,0.009132861
1732371154280,2024-11-23T14:12:34.280Z,30760,-0.060685225,-0.05786492,0.009132861
1732371154383,2024-11-23T14:12:34.383Z,30863,0.05050881,-0.048992135,0.011769484
1732371154393,2024-11-23T14:12:34.393Z,30873,0.05050881,-0.048992135,0.011769484
1732371154425,2024-11-23T14:12:34.425Z,30905,0.0879563,-0.009377888,0.034461327
1732371154432,2024-11-23T14:12:34.432Z,30912,0.0879563,-0.009377888,0.034461327
1732371154470,2024-11-23T14:12:34.470Z,30950,0.10528074,0.0033405563,0.022189807
1732371154478,2024-11-23T14:12:34.478Z,30958,0.10528074,0.0033405563,0.022189807
1732371154504,2024-11-23T14:12:34.504Z,30984,0.06758962,0.017828617,0.029626017
1732371154508,2024-11-23T14:12:34.508Z,30988,0.06758962,0.017828617,0.029626017
1732371154518,2024-11-23T14:12:34.518Z,30998,0.07616108,0.03372959,0.06447011
1732371154523,2024-11-23T14:12:34.523Z,31003,0.07616108,0.03372959,0.06447011
1732371154534,2024-11-23T14:12:34.534Z,31014,0.06601666,0.055521443,0.07063904
1732371154537,2024-11-23T14:12:34.537Z,31017,0.06601666,0.055521443,0.07063904
1732371154546,2024-11-23T14:12:34.546Z,31026,0.10936537,0.013910994,-0.003588076
1732371154548,2024-11-23T14:12:34.548Z,31028,0.10936537,0.013910994,-0.003588076
1732371154557,2024-11-23T14:12:34.557Z,31037,0.073188335,-0.0013216936,0.007960442
1732371154560,2024-11-23T14:12:34.560Z,31040,0.073188335,-0.0013216936,0.007960442
1732371154648,2024-11-23T14:12:34.648Z,31128,-0.075408354,0.037633795,0.00644133
1732371154651,2024-11-23T14:12:34.651Z,31131,-0.075408354,0.037633795,0.00644133
1732371154663,2024-11-23T14:12:34.663Z,31143,-0.034040637,-0.036056925,-0.106846474
1732371154671,2024-11-23T14:12:34.671Z,31151,-0.034040637,-0.036056925,-0.106846474
1732371154695,2024-11-23T14:12:34.695Z,31175,0.025390746,-0.021318449,-0.05295222
1732371154702,2024-11-23T14:12:34.702Z,31182,0.025390746,-0.021318449,-0.05295222
1732371154720,2024-11-23T14:12:34.720Z,31200,0.057462458,-0.04781534,-0.058412127
1732371154726,2024-11-23T14:12:34.726Z,31206,0.057462458,-0.04781534,-0.058412127
1732371154746,2024-11-23T14:12:34.746Z,31226,-0.02774273,-0.0755994,-0.09059196
1732371154751,2024-11-23T14:12:34.751Z,31231,-0.02774273,-0.0755994,-0.09059196
1732371154764,2024-11-23T14:12:34.764Z,31244,-0.038319197,-0.059533205,-0.020615872
1732371154768,2024-11-23T14:12:34.768Z,31248,-0.038319197,-0.059533205,-0.020615872
1732371154779,2024-11-23T14:12:34.779Z,31259,0.005757454,-0.006351151,0.050137945
1732371154783,2024-11-23T14:12:34.783Z,31263,0.005757454,-0.006351151,0.050137945
1732371154798,2024-11-23T14:12:34.798Z,31278,0.05392816,0.010032171,0.03730011
1732371154804,2024-11-23T14:12:34.804Z,31284,0.05392816,0.010032171,0.03730011
1732371154825,2024-11-23T14:12:34.825Z,31305,0.10186404,-0.0061695897,0.033460442
1732371154833,2024-11-23T14:12:34.833Z,31313,0.10186404,-0.0061695897,0.033460442
1732371154852,2024-11-23T14:12:34.852Z,31332,0.12273544,0.019821709,-0.0068073217
1732371154858,2024-11-23T14:12:34.858Z,31338,0.12273544,0.019821709,-0.0068073217
1732371154874,2024-11-23T14:12:34.874Z,31354,0.040111814,0.018707348,-0.02569085
1732371154878,2024-11-23T14:12:34.878Z,31358,0.040111814,0.018707348,-0.02569085
1732371154891,2024-11-23T14:12:34.891Z,31371,-0.011747962,0.032189675,-0.06581202
1732371154895,2024-11-23T14:12:34.895Z,31375,-0.011747962,0.032189675,-0.06581202
1732371154906,2024-11-23T14:12:34.906Z,31386,0.047961794,0.08141238,0.01694539
1732371154911,2024-11-23T14:12:34.911Z,31391,0.047961794,0.08141238,0.01694539
1732371154921,2024-11-23T14:12:34.921Z,31401,0.015444493,0.024418902,-0.024378859
1732371154924,2024-11-23T14:12:34.924Z,31404,0.015444493,0.024418902,-0.024378859
1732371154963,2024-11-23T14:12:34.963Z,31443,0.04219785,0.026856512,-0.049448423
1732371154967,2024-11-23T14:12:34.967Z,31447,0.04219785,0.026856512,-0.049448423
1732371154981,2024-11-23T14:12:34.981Z,31461,0.05585369,0.031263974,-0.06391364
1732371154984,2024-11-23T14:12:34.984Z,31464,0.05585369,0.031263974,-0.06391364
1732371154994,2024-11-23T14:12:34.994Z,31474,0.041240618,0.011264981,-0.054383237
1732371154998,2024-11-23T14:12:34.998Z,31478,0.041240618,0.011264981,-0.054383237
1732371155009,2024-11-23T14:12:35.009Z,31489,0.10285208,0.099829935,-0.08292152
1732371155011,2024-11-23T14:12:35.011Z,31491,0.10285208,0.099829935,-0.08292152
1732371155022,2024-11-23T14:12:35.022Z,31502,0.029754689,0.110345036,-0.15129343
1732371155025,2024-11-23T14:12:35.025Z,31505,0.029754689,0.110345036,-0.15129343
1732371155100,2024-11-23T14:12:35.100Z,31580,0.09959445,0.092810884,-0.051416628
1732371155103,2024-11-23T14:12:35.103Z,31583,0.09959445,0.092810884,-0.051416628
1732371155239,2024-11-23T14:12:35.239Z,31719,0.14636365,0.20821017,-0.1663295
1732371155245,2024-11-23T14:12:35.245Z,31725,0.14636365,0.20821017,-0.1663295
1732371155375,2024-11-23T14:12:35.375Z,31855,0.08643275,0.21986118,-0.089858696
1732371155382,2024-11-23T14:12:35.382Z,31862,0.08643275,0.21986118,-0.089858696
1732371155415,2024-11-23T14:12:35.415Z,31895,0.057192937,0.20032057,-0.027636755
1732371155422,2024-11-23T14:12:35.422Z,31902,0.057192937,0.20032057,-0.027636755
1732371155450,2024-11-23T14:12:35.450Z,31930,-0.06717673,0.22171988,-0.13250896
1732371155457,2024-11-23T14:12:35.457Z,31937,-0.06717673,0.22171988,-0.13250896
1732371155479,2024-11-23T14:12:35.479Z,31959,-0.10463118,0.06699026,-0.0501863
1732371155486,2024-11-23T14:12:35.486Z,31966,-0.10463118,0.06699026,-0.0501863
1732371155509,2024-11-23T14:12:35.509Z,31989,-0.14528576,0.2312343,-0.099322364
1732371155515,2024-11-23T14:12:35.515Z,31995,-0.14528576,0.2312343,-0.099322364
1732371155537,2024-11-23T14:12:35.537Z,32017,-0.07907382,0.20734793,-0.12651847
1732371155543,2024-11-23T14:12:35.543Z,32023,-0.07907382,0.20734793,-0.12651847
1732371155565,2024-11-23T14:12:35.565Z,32045,0.18834138,0.2555067,-0.2215512
1732371155573,2024-11-23T14:12:35.573Z,32053,0.18834138,0.2555067,-0.2215512
1732371155691,2024-11-23T14:12:35.691Z,32171,0.23998035,0.108614415,-0.05318446
1732371155698,2024-11-23T14:12:35.698Z,32178,0.23998035,0.108614415,-0.05318446
1732371155723,2024-11-23T14:12:35.723Z,32203,0.13365102,0.13278873,-0.025016123
1732371155730,2024-11-23T14:12:35.730Z,32210,0.13365102,0.13278873,-0.025016123
1732371155752,2024-11-23T14:12:35.752Z,32232,0.12189921,0.08538675,-0.014979345
1732371155760,2024-11-23T14:12:35.760Z,32240,0.12189921,0.08538675,-0.014979345
1732371155784,2024-11-23T14:12:35.784Z,32264,0.030435374,0.11040018,0.048031278
1732371155792,2024-11-23T14:12:35.792Z,32272,0.030435374,0.11040018,0.048031278
1732371155806,2024-11-23T14:12:35.806Z,32286,0.21784723,-0.034596555,0.08715428
1732371155810,2024-11-23T14:12:35.810Z,32290,0.21784723,-0.034596555,0.08715428
1732371155830,2024-11-23T14:12:35.830Z,32310,0.07722971,0.008496435,-0.015362501
1732371155834,2024-11-23T14:12:35.834Z,32314,0.07722971,0.008496435,-0.015362501
1732371155847,2024-11-23T14:12:35.847Z,32327,0.0061690547,-0.12365611,0.059972886
1732371155850,2024-11-23T14:12:35.850Z,32330,0.0061690547,-0.12365611,0.059972886
1732371155861,2024-11-23T14:12:35.861Z,32341,-0.06503528,-0.103582725,0.26138207
1732371155864,2024-11-23T14:12:35.864Z,32344,-0.06503528,-0.103582725,0.26138207
1732371155874,2024-11-23T14:12:35.874Z,32354,-0.08580681,-0.0627344,0.19368897
1732371155877,2024-11-23T14:12:35.877Z,32357,-0.08580681,-0.0627344,0.19368897
1732371155955,2024-11-23T14:12:35.955Z,32435,0.13669372,-0.06852181,0.09091288
1732371155958,2024-11-23T14:12:35.958Z,32438,0.13669372,-0.06852181,0.09091288
1732371156002,2024-11-23T14:12:36.002Z,32482,0.09561563,-0.012825417,0.03724641
1732371156009,2024-11-23T14:12:36.009Z,32489,0.09561563,-0.012825417,0.03724641
1732371156030,2024-11-23T14:12:36.030Z,32510,0.036679868,-0.057936005,-0.026000367
1732371156036,2024-11-23T14:12:36.036Z,32516,0.036679868,-0.057936005,-0.026000367
1732371156050,2024-11-23T14:12:36.050Z,32530,-0.05759858,-0.1321363,0.14534597
1732371156054,2024-11-23T14:12:36.054Z,32534,-0.05759858,-0.1321363,0.14534597
1732371156066,2024-11-23T14:12:36.066Z,32546,-0.075954184,-0.15208745,0.08975329
1732371156070,2024-11-23T14:12:36.070Z,32550,-0.075954184,-0.15208745,0.08975329
1732371156082,2024-11-23T14:12:36.082Z,32562,-0.10170645,-0.15686718,-0.015767744
1732371156086,2024-11-23T14:12:36.086Z,32566,-0.10170645,-0.15686718,-0.015767744
1732371156097,2024-11-23T14:12:36.097Z,32577,0.14092526,-0.21416105,0.0722615
1732371156100,2024-11-23T14:12:36.100Z,32580,0.14092526,-0.21416105,0.0722615
1732371156109,2024-11-23T14:12:36.109Z,32589,-0.0114493985,-0.08059823,0.1528143
1732371156112,2024-11-23T14:12:36.112Z,32592,-0.0114493985,-0.08059823,0.1528143
1732371156120,2024-11-23T14:12:36.120Z,32600,0.028990528,-0.08942813,0.17370348
1732371156123,2024-11-23T14:12:36.123Z,32603,0.028990528,-0.08942813,0.17370348
1732371156131,2024-11-23T14:12:36.131Z,32611,-0.00911887,-0.10125879,0.27874213
1732371156134,2024-11-23T14:12:36.134Z,32614,-0.00911887,-0.10125879,0.27874213
1732371156143,2024-11-23T14:12:36.143Z,32623,0.043198552,-0.14874719,0.0202734
1732371156146,2024-11-23T14:12:36.146Z,32626,0.043198552,-0.14874719,0.0202734
1732371156156,2024-11-23T14:12:36.156Z,32636,0.15573734,-0.14335704,0.05990306
1732371156158,2024-11-23T14:12:36.158Z,32638,0.15573734,-0.14335704,0.05990306
1732371156175,2024-11-23T14:12:36.175Z,32655,0.0014918043,-0.102707885,0.17410584
1732371156177,2024-11-23T14:12:36.177Z,32657,0.0014918043,-0.102707885,0.17410584
1732371156186,2024-11-23T14:12:36.186Z,32666,0.02855495,-0.0592119,0.10352345
1732371156188,2024-11-23T14:12:36.188Z,32668,0.02855495,-0.0592119,0.10352345
1732371156196,2024-11-23T14:12:36.196Z,32676,0.07790756,-0.05824321,0.08810699
1732371156198,2024-11-23T14:12:36.198Z,32678,0.07790756,-0.05824321,0.08810699
1732371156221,2024-11-23T14:12:36.221Z,32701,0.03608058,-0.084415585,0.14640202
1732371156224,2024-11-23T14:12:36.224Z,32704,0.03608058,-0.084415585,0.14640202
1732371156232,2024-11-23T14:12:36.232Z,32712,0.13315411,-0.10213451,-0.020046303
1732371156235,2024-11-23T14:12:36.235Z,32715,0.13315411,-0.10213451,-0.020046303
1732371156243,2024-11-23T14:12:36.243Z,32723,0.09823208,-0.123262934,0.10525628
1732371156246,2024-11-23T14:12:36.246Z,32726,0.09823208,-0.123262934,0.10525628
1732371156267,2024-11-23T14:12:36.267Z,32747,-0.007647135,-0.11522201,0.14152822
1732371156270,2024-11-23T14:12:36.270Z,32750,-0.007647135,-0.11522201,0.14152822
1732371156278,2024-11-23T14:12:36.278Z,32758,0.022587726,-0.11606145,0.070953466
1732371156280,2024-11-23T14:12:36.280Z,32760,0.022587726,-0.11606145,0.070953466
1732371156289,2024-11-23T14:12:36.289Z,32769,0.005194274,-0.15054822,0.0037604962
1732371156292,2024-11-23T14:12:36.292Z,32772,0.005194274,-0.15054822,0.0037604962
1732371156358,2024-11-23T14:12:36.358Z,32838,0.05073225,-0.14686699,0.068734564
1732371156360,2024-11-23T14:12:36.360Z,32840,0.05073225,-0.14686699,0.068734564
1732371156369,2024-11-23T14:12:36.369Z,32849,0.07082724,-0.1427965,0.0027973305
1732371156371,2024-11-23T14:12:36.371Z,32851,0.07082724,-0.1427965,0.0027973305
1732371156378,2024-11-23T14:12:36.378Z,32858,0.08618849,-0.115148686,0.09560518
1732371156381,2024-11-23T14:12:36.381Z,32861,0.08618849,-0.115148686,0.09560518
1732371156401,2024-11-23T14:12:36.401Z,32881,0.069518656,-0.03990025,0.1511025
1732371156404,2024-11-23T14:12:36.404Z,32884,0.069518656,-0.03990025,0.1511025
1732371156414,2024-11-23T14:12:36.414Z,32894,0.012351207,-0.069662236,-0.015393
1732371156417,2024-11-23T14:12:36.417Z,32897,0.012351207,-0.069662236,-0.015393
1732371156426,2024-11-23T14:12:36.426Z,32906,0.05270697,-0.061197598,0.034959167
1732371156429,2024-11-23T14:12:36.429Z,32909,0.05270697,-0.061197598,0.034959167
1732371156445,2024-11-23T14:12:36.445Z,32925,0.004332817,-0.07583727,0.0019095076
1732371156448,2024-11-23T14:12:36.448Z,32928,0.004332817,-0.07583727,0.0019095076
1732371156457,2024-11-23T14:12:36.457Z,32937,0.028300103,-0.09152479,-0.05814334
1732371156459,2024-11-23T14:12:36.459Z,32939,0.028300103,-0.09152479,-0.05814334
1732371156467,2024-11-23T14:12:36.467Z,32947,0.03364272,-0.07369043,0.015185352
1732371156469,2024-11-23T14:12:36.469Z,32949,0.03364272,-0.07369043,0.015185352
1732371156537,2024-11-23T14:12:36.537Z,33017,0.013016831,-0.05879762,0.026251875
1732371156540,2024-11-23T14:12:36.540Z,33020,0.013016831,-0.05879762,0.026251875
1732371156547,2024-11-23T14:12:36.547Z,33027,8.015886E-4,-0.08430161,0.054790992
1732371156550,2024-11-23T14:12:36.550Z,33030,8.015886E-4,-0.08430161,0.054790992
1732371156557,2024-11-23T14:12:36.557Z,33037,-0.06461457,-0.11883962,-0.005667548
1732371156561,2024-11-23T14:12:36.561Z,33041,-0.06461457,-0.11883962,-0.005667548
1732371156570,2024-11-23T14:12:36.570Z,33050,-8.121035E-4,-0.11774063,-0.035398923
1732371156574,2024-11-23T14:12:36.574Z,33054,-8.121035E-4,-0.11774063,-0.035398923
1732371156584,2024-11-23T14:12:36.584Z,33064,0.002109315,-0.104520485,-0.009675345
1732371156587,2024-11-23T14:12:36.587Z,33067,0.002109315,-0.104520485,-0.009675345
1732371156599,2024-11-23T14:12:36.599Z,33079,0.020753944,-0.065047145,0.0238368
1732371156602,2024-11-23T14:12:36.602Z,33082,0.020753944,-0.065047145,0.0238368
1732371156625,2024-11-23T14:12:36.625Z,33105,-0.0052572843,-0.046113603,0.040824346
1732371156628,2024-11-23T14:12:36.628Z,33108,-0.0052572843,-0.046113603,0.040824346
1732371156637,2024-11-23T14:12:36.637Z,33117,-0.011192762,-0.05085832,0.033380594
1732371156640,2024-11-23T14:12:36.640Z,33120,-0.011192762,-0.05085832,0.033380594
1732371156650,2024-11-23T14:12:36.650Z,33130,-0.017655263,-0.06049907,-0.0141422
1732371156652,2024-11-23T14:12:36.652Z,33132,-0.017655263,-0.06049907,-0.0141422
1732371156661,2024-11-23T14:12:36.661Z,33141,-0.08479591,-0.040425193,0.026937349
1732371156664,2024-11-23T14:12:36.664Z,33144,-0.08479591,-0.040425193,0.026937349
1732371156722,2024-11-23T14:12:36.722Z,33202,-0.028328734,-0.025777841,0.04315997
1732371156728,2024-11-23T14:12:36.728Z,33208,-0.028328734,-0.025777841,0.04315997
1732371156751,2024-11-23T14:12:36.751Z,33231,-0.038229767,0.009031298,-0.0477893
1732371156758,2024-11-23T14:12:36.758Z,33238,-0.038229767,0.009031298,-0.0477893
1732371156771,2024-11-23T14:12:36.771Z,33251,-0.028928217,0.011285403,-0.0673742
1732371156775,2024-11-23T14:12:36.775Z,33255,-0.028928217,0.011285403,-0.0673742
1732371156787,2024-11-23T14:12:36.787Z,33267,0.013108785,0.0351533,-0.06801781
1732371156791,2024-11-23T14:12:36.791Z,33271,0.013108785,0.0351533,-0.06801781
1732371156809,2024-11-23T14:12:36.809Z,33289,-0.02618599,0.11580345,-0.03906939
1732371156813,2024-11-23T14:12:36.813Z,33293,-0.02618599,0.11580345,-0.03906939
1732371156823,2024-11-23T14:12:36.823Z,33303,0.046487484,0.113883786,-0.030634586
1732371156826,2024-11-23T14:12:36.826Z,33306,0.046487484,0.113883786,-0.030634586
1732371156836,2024-11-23T14:12:36.836Z,33316,0.016707037,0.13840625,-0.012453956
1732371156840,2024-11-23T14:12:36.840Z,33320,0.016707037,0.13840625,-0.012453956
1732371156852,2024-11-23T14:12:36.852Z,33332,0.024177874,0.12733538,-0.087354064
1732371156855,2024-11-23T14:12:36.855Z,33335,0.024177874,0.12733538,-0.087354064
1732371156950,2024-11-23T14:12:36.950Z,33430,0.05792019,0.1098552,-0.026227564
1732371156956,2024-11-23T14:12:36.956Z,33436,0.05792019,0.1098552,-0.026227564
1732371156975,2024-11-23T14:12:36.975Z,33455,0.027943876,0.10849791,0.0093448
1732371156979,2024-11-23T14:12:36.979Z,33459,0.027943876,0.10849791,0.0093448
1732371156992,2024-11-23T14:12:36.992Z,33472,-0.026732206,-0.06520168,-0.011501608
1732371156996,2024-11-23T14:12:36.996Z,33476,-0.026732206,-0.06520168,-0.011501608
1732371157008,2024-11-23T14:12:37.008Z,33488,-0.07851012,-0.113495864,0.059058536
1732371157011,2024-11-23T14:12:37.011Z,33491,-0.07851012,-0.113495864,0.059058536
1732371157023,2024-11-23T14:12:37.023Z,33503,-0.07890349,-0.14226796,0.008137641
1732371157026,2024-11-23T14:12:37.026Z,33506,-0.07890349,-0.14226796,0.008137641
1732371157039,2024-11-23T14:12:37.039Z,33519,-0.08828342,-0.18600142,0.049497943
1732371157042,2024-11-23T14:12:37.042Z,33522,-0.08828342,-0.18600142,0.049497943
1732371157056,2024-11-23T14:12:37.056Z,33536,-0.1118489,-0.30888617,0.1083511
1732371157061,2024-11-23T14:12:37.061Z,33541,-0.1118489,-0.30888617,0.1083511
1732371157077,2024-11-23T14:12:37.077Z,33557,-0.15194578,-0.28838217,0.09376868
1732371157082,2024-11-23T14:12:37.082Z,33562,-0.15194578,-0.28838217,0.09376868
1732371157094,2024-11-23T14:12:37.094Z,33574,-0.15496108,-0.29937232,0.10413176
1732371157097,2024-11-23T14:12:37.097Z,33577,-0.15496108,-0.29937232,0.10413176
1732371157106,2024-11-23T14:12:37.106Z,33586,-0.07765289,-0.22145094,0.09077221
1732371157109,2024-11-23T14:12:37.109Z,33589,-0.07765289,-0.22145094,0.09077221
1732371157117,2024-11-23T14:12:37.117Z,33597,-0.08476364,-0.18786566,0.10705162
1732371157120,2024-11-23T14:12:37.120Z,33600,-0.08476364,-0.18786566,0.10705162
1732371157128,2024-11-23T14:12:37.128Z,33608,-0.06911281,-0.17041981,0.08914888
1732371157131,2024-11-23T14:12:37.131Z,33611,-0.06911281,-0.17041981,0.08914888
1732371157138,2024-11-23T14:12:37.138Z,33618,-0.062485836,-0.16063027,0.058463745
1732371157141,2024-11-23T14:12:37.141Z,33621,-0.062485836,-0.16063027,0.058463745
1732371157148,2024-11-23T14:12:37.148Z,33628,0.028621703,-0.12088115,0.0089274375
1732371157150,2024-11-23T14:12:37.150Z,33630,0.028621703,-0.12088115,0.0089274375
1732371157158,2024-11-23T14:12:37.158Z,33638,-0.0072123525,-0.13045101,0.034508936
1732371157160,2024-11-23T14:12:37.160Z,33640,-0.0072123525,-0.13045101,0.034508936
1732371157219,2024-11-23T14:12:37.219Z,33699,0.010453619,-0.13357703,0.03868869
1732371157225,2024-11-23T14:12:37.225Z,33705,0.010453619,-0.13357703,0.03868869
1732371157260,2024-11-23T14:12:37.260Z,33740,-0.011000954,-0.084619515,0.08350995
1732371157267,2024-11-23T14:12:37.267Z,33747,-0.011000954,-0.084619515,0.08350995
1732371157286,2024-11-23T14:12:37.286Z,33766,-0.08624231,-0.10990772,0.05825731
1732371157290,2024-11-23T14:12:37.290Z,33770,-0.08624231,-0.10990772,0.05825731
1732371157302,2024-11-23T14:12:37.302Z,33782,-0.01025606,-0.079973996,0.0901317
1732371157306,2024-11-23T14:12:37.306Z,33786,-0.01025606,-0.079973996,0.0901317
1732371157318,2024-11-23T14:12:37.318Z,33798,-0.056281142,-0.07178622,0.0950217
1732371157322,2024-11-23T14:12:37.322Z,33802,-0.056281142,-0.07178622,0.0950217
1732371157333,2024-11-23T14:12:37.333Z,33813,-0.09548354,-0.09894041,0.090102606
1732371157336,2024-11-23T14:12:37.336Z,33816,-0.09548354,-0.09894041,0.090102606
1732371157346,2024-11-23T14:12:37.346Z,33826,-0.018676473,-0.08421263,0.07681141
1732371157349,2024-11-23T14:12:37.349Z,33829,-0.018676473,-0.08421263,0.07681141
1732371157358,2024-11-23T14:12:37.358Z,33838,0.0013884542,-0.03928983,-0.020470547
1732371157361,2024-11-23T14:12:37.361Z,33841,0.0013884542,-0.03928983,-0.020470547
1732371157370,2024-11-23T14:12:37.370Z,33850,0.03687762,-0.03540089,-0.009791836
1732371157372,2024-11-23T14:12:37.372Z,33852,0.03687762,-0.03540089,-0.009791836
1732371157380,2024-11-23T14:12:37.380Z,33860,0.021387788,0.0053809104,-0.024941863
1732371157382,2024-11-23T14:12:37.382Z,33862,0.021387788,0.0053809104,-0.024941863
1732371157390,2024-11-23T14:12:37.390Z,33870,0.037368286,-0.015273239,0.0061737346
1732371157393,2024-11-23T14:12:37.393Z,33873,0.037368286,-0.015273239,0.0061737346
1732371157486,2024-11-23T14:12:37.486Z,33966,-0.011944645,-0.0033171196,0.00202567
1732371157489,2024-11-23T14:12:37.489Z,33969,-0.011944645,-0.0033171196,0.00202567
1732371157499,2024-11-23T14:12:37.499Z,33979,0.063792236,-0.010966917,0.013430943
1732371157502,2024-11-23T14:12:37.502Z,33982,0.063792236,-0.010966917,0.013430943
1732371157513,2024-11-23T14:12:37.513Z,33993,0.09209684,0.0029112075,0.017178359
1732371157516,2024-11-23T14:12:37.516Z,33996,0.09209684,0.0029112075,0.017178359
1732371157527,2024-11-23T14:12:37.527Z,34007,0.10604171,0.009321972,-0.0011471462
1732371157531,2024-11-23T14:12:37.531Z,34011,0.10604171,0.009321972,-0.0011471462
1732371157541,2024-11-23T14:12:37.541Z,34021,0.04233329,0.013216937,0.0026145657
1732371157545,2024-11-23T14:12:37.545Z,34025,0.04233329,0.013216937,0.0026145657
1732371157553,2024-11-23T14:12:37.553Z,34033,0.087142654,0.0129389055,0.013508863
1732371157556,2024-11-23T14:12:37.556Z,34036,0.087142654,0.0129389055,0.013508863
1732371157576,2024-11-23T14:12:37.576Z,34056,0.056962095,0.008710381,-0.07344221
1732371157586,2024-11-23T14:12:37.586Z,34066,0.056962095,0.008710381,-0.07344221
1732371157610,2024-11-23T14:12:37.610Z,34090,0.04439888,0.02644603,-0.031269036
1732371157613,2024-11-23T14:12:37.613Z,34093,0.04439888,0.02644603,-0.031269036
1732371157625,2024-11-23T14:12:37.625Z,34105,0.033018615,-0.044080637,-0.1391815
1732371157628,2024-11-23T14:12:37.628Z,34108,0.033018615,-0.044080637,-0.1391815
1732371157638,2024-11-23T14:12:37.638Z,34118,0.055199966,-0.0066480483,0.027473161
1732371157641,2024-11-23T14:12:37.641Z,34121,0.055199966,-0.0066480483,0.027473161
1732371157650,2024-11-23T14:12:37.650Z,34130,-0.018096048,-0.035970666,0.012374018
1732371157653,2024-11-23T14:12:37.653Z,34133,-0.018096048,-0.035970666,0.012374018
1732371157662,2024-11-23T14:12:37.662Z,34142,0.0039502024,-0.033166915,0.10696867
1732371157665,2024-11-23T14:12:37.665Z,34145,0.0039502024,-0.033166915,0.10696867
1732371157674,2024-11-23T14:12:37.674Z,34154,0.13049884,0.007959336,-0.0036746874
1732371157677,2024-11-23T14:12:37.677Z,34157,0.13049884,0.007959336,-0.0036746874
1732371157685,2024-11-23T14:12:37.685Z,34165,0.04719575,9.179212E-4,-0.039386217
1732371157687,2024-11-23T14:12:37.687Z,34167,0.04719575,9.179212E-4,-0.039386217
1732371157756,2024-11-23T14:12:37.756Z,34236,0.044835936,0.03245273,-0.016230535
1732371157762,2024-11-23T14:12:37.762Z,34242,0.044835936,0.03245273,-0.016230535
1732371157784,2024-11-23T14:12:37.784Z,34264,-0.003583481,0.018380499,0.024211375
1732371157790,2024-11-23T14:12:37.790Z,34270,-0.003583481,0.018380499,0.024211375
1732371157808,2024-11-23T14:12:37.808Z,34288,-0.0064618187,0.0019530258,0.056014672
1732371157812,2024-11-23T14:12:37.812Z,34292,-0.0064618187,0.0019530258,0.056014672
1732371157825,2024-11-23T14:12:37.825Z,34305,0.059355143,6.684808E-4,0.07092192
1732371157829,2024-11-23T14:12:37.829Z,34309,0.059355143,6.684808E-4,0.07092192
1732371157842,2024-11-23T14:12:37.842Z,34322,0.108557574,0.03530802,-0.1000237
1732371157846,2024-11-23T14:12:37.846Z,34326,0.108557574,0.03530802,-0.1000237
1732371157856,2024-11-23T14:12:37.856Z,34336,0.15700318,0.053862788,0.010137892
1732371157860,2024-11-23T14:12:37.860Z,34340,0.15700318,0.053862788,0.010137892
1732371157870,2024-11-23T14:12:37.870Z,34350,0.06369696,0.03328799,0.011064067
1732371157873,2024-11-23T14:12:37.873Z,34353,0.06369696,0.03328799,0.011064067
1732371157884,2024-11-23T14:12:37.884Z,34364,0.08368414,0.0036570004,-0.084087275
1732371157887,2024-11-23T14:12:37.887Z,34367,0.08368414,0.0036570004,-0.084087275
1732371157895,2024-11-23T14:12:37.895Z,34375,0.013758899,-0.036848813,-0.03166021
1732371157897,2024-11-23T14:12:37.897Z,34377,0.013758899,-0.036848813,-0.03166021
1732371157932,2024-11-23T14:12:37.932Z,34412,0.01796209,-0.050812904,-0.0018437194
1732371157935,2024-11-23T14:12:37.935Z,34415,0.01796209,-0.050812904,-0.0018437194
1732371158075,2024-11-23T14:12:38.075Z,34555,0.055661894,-0.018193977,-0.013421242
1732371158082,2024-11-23T14:12:38.082Z,34562,0.055661894,-0.018193977,-0.013421242
1732371158102,2024-11-23T14:12:38.102Z,34582,0.005329904,0.0071553895,-0.15088513
1732371158108,2024-11-23T14:12:38.108Z,34588,0.005329904,0.0071553895,-0.15088513
1732371158124,2024-11-23T14:12:38.124Z,34604,0.1301267,0.062045015,-0.065188706
1732371158129,2024-11-23T14:12:38.129Z,34609,0.1301267,0.062045015,-0.065188706
1732371158144,2024-11-23T14:12:38.144Z,34624,0.029495476,0.12155084,-0.0756953
1732371158151,2024-11-23T14:12:38.151Z,34631,0.029495476,0.12155084,-0.0756953
1732371158174,2024-11-23T14:12:38.174Z,34654,0.07023818,0.12175195,-0.09189668
1732371158180,2024-11-23T14:12:38.180Z,34660,0.07023818,0.12175195,-0.09189668
1732371158201,2024-11-23T14:12:38.201Z,34681,0.16507438,0.09097261,-0.014830349
1732371158207,2024-11-23T14:12:38.207Z,34687,0.16507438,0.09097261,-0.014830349
1732371158230,2024-11-23T14:12:38.230Z,34710,-0.0090301065,0.20670313,0.068633325
1732371158236,2024-11-23T14:12:38.236Z,34716,-0.0090301065,0.20670313,0.068633325
1732371158257,2024-11-23T14:12:38.257Z,34737,-0.060393795,0.21340097,-0.10056374
1732371158262,2024-11-23T14:12:38.262Z,34742,-0.060393795,0.21340097,-0.10056374
1732371158281,2024-11-23T14:12:38.281Z,34761,-0.057070088,0.18517356,-0.21179551
1732371158286,2024-11-23T14:12:38.286Z,34766,-0.057070088,0.18517356,-0.21179551
1732371158300,2024-11-23T14:12:38.300Z,34780,-0.03657044,0.18108934,-0.11901833
1732371158304,2024-11-23T14:12:38.304Z,34784,-0.03657044,0.18108934,-0.11901833
1732371158315,2024-11-23T14:12:38.315Z,34795,-0.02182336,0.16549787,-0.102719896
1732371158318,2024-11-23T14:12:38.318Z,34798,-0.02182336,0.16549787,-0.102719896
1732371158328,2024-11-23T14:12:38.328Z,34808,-0.0015127611,0.16847335,-0.009901203
1732371158332,2024-11-23T14:12:38.332Z,34812,-0.0015127611,0.16847335,-0.009901203
1732371158343,2024-11-23T14:12:38.343Z,34823,-0.038539123,0.2225691,-0.1422209
1732371158346,2024-11-23T14:12:38.346Z,34826,-0.038539123,0.2225691,-0.1422209
1732371158355,2024-11-23T14:12:38.355Z,34835,-0.006787234,0.22300462,-0.13882937
1732371158358,2024-11-23T14:12:38.358Z,34838,-0.006787234,0.22300462,-0.13882937
1732371158367,2024-11-23T14:12:38.367Z,34847,-0.005112118,0.29548144,-0.20116484
1732371158369,2024-11-23T14:12:38.369Z,34849,-0.005112118,0.29548144,-0.20116484
1732371158379,2024-11-23T14:12:38.379Z,34859,0.17231074,0.3875088,-0.33766443
1732371158382,2024-11-23T14:12:38.382Z,34862,0.17231074,0.3875088,-0.33766443
1732371158390,2024-11-23T14:12:38.390Z,34870,0.17780077,0.28828666,-0.16615158
1732371158393,2024-11-23T14:12:38.393Z,34873,0.17780077,0.28828666,-0.16615158
1732371158401,2024-11-23T14:12:38.401Z,34881,-5.365643E-4,0.16199295,0.034277145
1732371158404,2024-11-23T14:12:38.404Z,34884,-5.365643E-4,0.16199295,0.034277145
1732371158413,2024-11-23T14:12:38.413Z,34893,0.0153343845,0.2634444,-0.007244201
1732371158415,2024-11-23T14:12:38.415Z,34895,0.0153343845,0.2634444,-0.007244201
1732371158473,2024-11-23T14:12:38.473Z,34953,0.15499224,0.29526857,-0.16105796
1732371158476,2024-11-23T14:12:38.476Z,34956,0.15499224,0.29526857,-0.16105796
1732371158486,2024-11-23T14:12:38.486Z,34966,0.1571421,0.31917793,-0.23494795
1732371158490,2024-11-23T14:12:38.490Z,34970,0.1571421,0.31917793,-0.23494795
1732371158499,2024-11-23T14:12:38.499Z,34979,0.22373037,0.25925487,-0.15092687
1732371158502,2024-11-23T14:12:38.502Z,34982,0.22373037,0.25925487,-0.15092687
1732371158565,2024-11-23T14:12:38.565Z,35045,0.032908116,0.11108417,0.13323185
1732371158571,2024-11-23T14:12:38.571Z,35051,0.032908116,0.11108417,0.13323185
1732371158591,2024-11-23T14:12:38.591Z,35071,0.07623584,0.122050114,0.13463646
1732371158597,2024-11-23T14:12:38.597Z,35077,0.07623584,0.122050114,0.13463646
1732371158617,2024-11-23T14:12:38.617Z,35097,0.0061849547,0.06437283,0.024958225
1732371158623,2024-11-23T14:12:38.623Z,35103,0.0061849547,0.06437283,0.024958225
1732371158645,2024-11-23T14:12:38.645Z,35125,-0.004962551,0.17067285,0.11099543
1732371158651,2024-11-23T14:12:38.651Z,35131,-0.004962551,0.17067285,0.11099543
1732371158677,2024-11-23T14:12:38.677Z,35157,-0.027719684,0.13087632,0.14717913
1732371158681,2024-11-23T14:12:38.681Z,35161,-0.027719684,0.13087632,0.14717913
1732371158743,2024-11-23T14:12:38.743Z,35223,0.063468695,0.062305443,0.15952352
1732371158750,2024-11-23T14:12:38.750Z,35230,0.063468695,0.062305443,0.15952352
1732371158791,2024-11-23T14:12:38.791Z,35271,-0.071856774,0.055752795,0.10882351
1732371158797,2024-11-23T14:12:38.797Z,35277,-0.071856774,0.055752795,0.10882351
1732371158818,2024-11-23T14:12:38.818Z,35298,-0.057203487,-0.05340154,0.11940073
1732371158822,2024-11-23T14:12:38.822Z,35302,-0.057203487,-0.05340154,0.11940073
1732371158834,2024-11-23T14:12:38.834Z,35314,0.063779816,-0.05983127,0.01748636
1732371158838,2024-11-23T14:12:38.838Z,35318,0.063779816,-0.05983127,0.01748636
1732371158881,2024-11-23T14:12:38.881Z,35361,0.03041009,-0.05640533,-0.012190275
1732371158887,2024-11-23T14:12:38.887Z,35367,0.03041009,-0.05640533,-0.012190275
1732371158907,2024-11-23T14:12:38.907Z,35387,-0.038379636,0.019072222,0.042564068
1732371158911,2024-11-23T14:12:38.911Z,35391,-0.038379636,0.019072222,0.042564068
1732371158926,2024-11-23T14:12:38.926Z,35406,-0.07754751,-0.021352876,-0.0059129284
1732371158930,2024-11-23T14:12:38.930Z,35410,-0.07754751,-0.021352876,-0.0059129284
1732371158942,2024-11-23T14:12:38.942Z,35422,-0.08889423,-0.22308071,0.1627043
1732371158946,2024-11-23T14:12:38.946Z,35426,-0.08889423,-0.22308071,0.1627043
1732371158959,2024-11-23T14:12:38.959Z,35439,-0.157845,-0.1977082,0.03776236
1732371158963,2024-11-23T14:12:38.963Z,35443,-0.157845,-0.1977082,0.03776236
1732371158974,2024-11-23T14:12:38.974Z,35454,-0.15415467,-0.22075056,0.008154099
1732371158978,2024-11-23T14:12:38.978Z,35458,-0.15415467,-0.22075056,0.008154099
1732371158987,2024-11-23T14:12:38.987Z,35467,-0.092343,-0.21326141,0.1739722
1732371158991,2024-11-23T14:12:38.991Z,35471,-0.092343,-0.21326141,0.1739722
1732371159000,2024-11-23T14:12:39Z,35480,-0.1804413,-0.22104377,0.057305064
1732371159002,2024-11-23T14:12:39.002Z,35482,-0.1804413,-0.22104377,0.057305064
1732371159011,2024-11-23T14:12:39.011Z,35491,-0.0936249,-0.20572248,-0.08940991
1732371159013,2024-11-23T14:12:39.013Z,35493,-0.0936249,-0.20572248,-0.08940991
1732371159021,2024-11-23T14:12:39.021Z,35501,-0.040003162,-0.21900098,-0.042952925
1732371159023,2024-11-23T14:12:39.023Z,35503,-0.040003162,-0.21900098,-0.042952925
1732371159032,2024-11-23T14:12:39.032Z,35512,0.005540081,-0.19516517,0.043606397
1732371159035,2024-11-23T14:12:39.035Z,35515,0.005540081,-0.19516517,0.043606397
1732371159042,2024-11-23T14:12:39.042Z,35522,-0.058885753,-0.17840259,0.076105565
1732371159045,2024-11-23T14:12:39.045Z,35525,-0.058885753,-0.17840259,0.076105565
1732371159058,2024-11-23T14:12:39.058Z,35538,-0.1100823,-0.1547818,-0.02291059
1732371159061,2024-11-23T14:12:39.061Z,35541,-0.1100823,-0.1547818,-0.02291059
1732371159069,2024-11-23T14:12:39.069Z,35549,-0.01851436,-0.10642226,0.045134183
1732371159071,2024-11-23T14:12:39.071Z,35551,-0.01851436,-0.10642226,0.045134183
1732371159078,2024-11-23T14:12:39.078Z,35558,-0.021912243,-0.14613394,0.011641548
1732371159081,2024-11-23T14:12:39.081Z,35561,-0.021912243,-0.14613394,0.011641548
1732371159102,2024-11-23T14:12:39.102Z,35582,0.0059105703,-0.1016827,0.027225543
1732371159104,2024-11-23T14:12:39.104Z,35584,0.0059105703,-0.1016827,0.027225543
1732371159113,2024-11-23T14:12:39.113Z,35593,-0.0016070185,-0.078348786,0.05616515
1732371159116,2024-11-23T14:12:39.116Z,35596,-0.0016070185,-0.078348786,0.05616515
1732371159127,2024-11-23T14:12:39.127Z,35607,0.0058385096,-0.076066285,0.055111434
1732371159132,2024-11-23T14:12:39.132Z,35612,0.0058385096,-0.076066285,0.055111434
1732371159197,2024-11-23T14:12:39.197Z,35677,0.004898732,-0.03231269,0.07940915
1732371159204,2024-11-23T14:12:39.204Z,35684,0.004898732,-0.03231269,0.07940915
1732371159226,2024-11-23T14:12:39.226Z,35706,-0.009660612,-0.058604877,-0.028422492
1732371159233,2024-11-23T14:12:39.233Z,35713,-0.009660612,-0.058604877,-0.028422492
1732371159255,2024-11-23T14:12:39.255Z,35735,0.14685334,-0.06003714,-0.15035285
1732371159262,2024-11-23T14:12:39.262Z,35742,0.14685334,-0.06003714,-0.15035285
1732371159282,2024-11-23T14:12:39.282Z,35762,0.05723592,-0.053835556,0.012890258
1732371159286,2024-11-23T14:12:39.286Z,35766,0.05723592,-0.053835556,0.012890258
1732371159298,2024-11-23T14:12:39.298Z,35778,0.09396505,-0.021990139,-0.0059410576
1732371159301,2024-11-23T14:12:39.301Z,35781,0.09396505,-0.021990139,-0.0059410576
1732371159313,2024-11-23T14:12:39.313Z,35793,0.07098478,-0.008103263,0.087033935
1732371159317,2024-11-23T14:12:39.317Z,35797,0.07098478,-0.008103263,0.087033935
1732371159375,2024-11-23T14:12:39.375Z,35855,-0.09108537,-0.02233002,0.025953542
1732371159382,2024-11-23T14:12:39.382Z,35862,-0.09108537,-0.02233002,0.025953542
1732371159401,2024-11-23T14:12:39.401Z,35881,0.014345132,-0.029587714,-0.05062383
1732371159406,2024-11-23T14:12:39.406Z,35886,0.014345132,-0.029587714,-0.05062383
1732371159420,2024-11-23T14:12:39.420Z,35900,0.064868234,-0.04499963,-0.025674576
1732371159422,2024-11-23T14:12:39.422Z,35902,0.064868234,-0.04499963,-0.025674576
1732371159462,2024-11-23T14:12:39.462Z,35942,0.023685373,-0.052591663,0.01703306
1732371159465,2024-11-23T14:12:39.465Z,35945,0.023685373,-0.052591663,0.01703306
1732371159475,2024-11-23T14:12:39.475Z,35955,-0.0756171,-0.14277734,-0.005617016
1732371159478,2024-11-23T14:12:39.478Z,35958,-0.0756171,-0.14277734,-0.005617016
1732371159512,2024-11-23T14:12:39.512Z,35992,-0.06251555,-0.13184126,0.058987997
1732371159518,2024-11-23T14:12:39.518Z,35998,-0.06251555,-0.13184126,0.058987997
1732371159535,2024-11-23T14:12:39.535Z,36015,-0.106101826,-0.11319673,0.09239016
1732371159539,2024-11-23T14:12:39.539Z,36019,-0.106101826,-0.11319673,0.09239016
1732371159553,2024-11-23T14:12:39.553Z,36033,-0.075961135,-0.0055499272,0.04886294
1732371159557,2024-11-23T14:12:39.557Z,36037,-0.075961135,-0.0055499272,0.04886294
1732371159569,2024-11-23T14:12:39.569Z,36049,-0.04861982,0.011837576,0.058111917
1732371159572,2024-11-23T14:12:39.572Z,36052,-0.04861982,0.011837576,0.058111917
1732371159584,2024-11-23T14:12:39.584Z,36064,-0.038301792,0.019137476,-0.015235374
1732371159587,2024-11-23T14:12:39.587Z,36067,-0.038301792,0.019137476,-0.015235374
1732371159642,2024-11-23T14:12:39.642Z,36122,0.019750234,0.053070508,0.035884067
1732371159646,2024-11-23T14:12:39.646Z,36126,0.019750234,0.053070508,0.035884067
1732371159658,2024-11-23T14:12:39.658Z,36138,0.027761767,0.08499158,0.0506571
1732371159662,2024-11-23T14:12:39.662Z,36142,0.027761767,0.08499158,0.0506571
1732371159674,2024-11-23T14:12:39.674Z,36154,0.0014512034,0.05796518,-0.016483877
1732371159678,2024-11-23T14:12:39.678Z,36158,0.0014512034,0.05796518,-0.016483877
1732371159690,2024-11-23T14:12:39.690Z,36170,-0.028342457,0.052092876,-0.0019143821
1732371159693,2024-11-23T14:12:39.693Z,36173,-0.028342457,0.052092876,-0.0019143821
1732371159708,2024-11-23T14:12:39.708Z,36188,-0.004214643,-0.013183775,0.018145597
1732371159714,2024-11-23T14:12:39.714Z,36194,-0.004214643,-0.013183775,0.018145597
1732371159782,2024-11-23T14:12:39.782Z,36262,-0.06008472,-0.019806636,0.04753422
1732371159787,2024-11-23T14:12:39.787Z,36267,-0.06008472,-0.019806636,0.04753422
1732371159807,2024-11-23T14:12:39.807Z,36287,-0.03488261,-0.03770479,-0.0018939965
1732371159814,2024-11-23T14:12:39.814Z,36294,-0.03488261,-0.03770479,-0.0018939965
1732371159837,2024-11-23T14:12:39.837Z,36317,-0.031030992,-0.04567142,0.010501379
1732371159843,2024-11-23T14:12:39.843Z,36323,-0.031030992,-0.04567142,0.010501379
1732371159864,2024-11-23T14:12:39.864Z,36344,-0.04136862,-0.043900926,-0.02891335
1732371159870,2024-11-23T14:12:39.870Z,36350,-0.04136862,-0.043900926,-0.02891335
1732371159888,2024-11-23T14:12:39.888Z,36368,-0.015880285,-0.04593807,-0.033592887
1732371159892,2024-11-23T14:12:39.892Z,36372,-0.015880285,-0.04593807,-0.033592887
1732371159904,2024-11-23T14:12:39.904Z,36384,-0.013074348,-0.013618375,-5.844709E-4
1732371159908,2024-11-23T14:12:39.908Z,36388,-0.013074348,-0.013618375,-5.844709E-4
1732371159926,2024-11-23T14:12:39.926Z,36406,0.05072013,0.11602187,0.011419155
1732371159932,2024-11-23T14:12:39.932Z,36412,0.05072013,0.11602187,0.011419155
1732371159952,2024-11-23T14:12:39.952Z,36432,0.057434525,0.1180808,0.008347464
1732371159958,2024-11-23T14:12:39.958Z,36438,0.057434525,0.1180808,0.008347464
1732371159978,2024-11-23T14:12:39.978Z,36458,0.0769791,0.123624116,0.015390338
1732371159985,2024-11-23T14:12:39.985Z,36465,0.0769791,0.123624116,0.015390338
1732371160008,2024-11-23T14:12:40.008Z,36488,0.04143363,0.10829311,-0.03185761
1732371160014,2024-11-23T14:12:40.014Z,36494,0.04143363,0.10829311,-0.03185761
1732371160033,2024-11-23T14:12:40.033Z,36513,0.03600667,0.09330646,-0.046153873
1732371160039,2024-11-23T14:12:40.039Z,36519,0.03600667,0.09330646,-0.046153873
1732371160058,2024-11-23T14:12:40.058Z,36538,0.010828582,0.08315302,-0.058053397
1732371160063,2024-11-23T14:12:40.063Z,36543,0.010828582,0.08315302,-0.058053397
1732371160076,2024-11-23T14:12:40.076Z,36556,0.030508285,0.035398655,-0.0013127956
1732371160080,2024-11-23T14:12:40.080Z,36560,0.030508285,0.035398655,-0.0013127956
1732371160097,2024-11-23T14:12:40.097Z,36577,0.04336544,0.019572562,-0.011397359
1732371160105,2024-11-23T14:12:40.105Z,36585,0.04336544,0.019572562,-0.011397359
1732371160129,2024-11-23T14:12:40.129Z,36609,-0.09966612,-0.112054944,-0.010605678
1732371160137,2024-11-23T14:12:40.137Z,36617,-0.09966612,-0.112054944,-0.010605678
1732371160160,2024-11-23T14:12:40.160Z,36640,-0.083935186,-0.16336994,0.037110906
1732371160167,2024-11-23T14:12:40.167Z,36647,-0.083935186,-0.16336994,0.037110906
1732371160187,2024-11-23T14:12:40.187Z,36667,-0.09780093,-0.20804963,0.054368366
1732371160191,2024-11-23T14:12:40.191Z,36671,-0.09780093,-0.20804963,0.054368366
1732371160203,2024-11-23T14:12:40.203Z,36683,-0.14338502,-0.31163108,0.090027556
1732371160206,2024-11-23T14:12:40.206Z,36686,-0.14338502,-0.31163108,0.090027556
1732371160220,2024-11-23T14:12:40.220Z,36700,-0.14205146,-0.27916628,0.11357509
1732371160223,2024-11-23T14:12:40.223Z,36703,-0.14205146,-0.27916628,0.11357509
1732371160235,2024-11-23T14:12:40.235Z,36715,-0.13233727,-0.2538432,0.113715544
1732371160239,2024-11-23T14:12:40.239Z,36719,-0.13233727,-0.2538432,0.113715544
1732371160250,2024-11-23T14:12:40.250Z,36730,-0.06741323,-0.16463737,0.0866079
1732371160253,2024-11-23T14:12:40.253Z,36733,-0.06741323,-0.16463737,0.0866079
1732371160263,2024-11-23T14:12:40.263Z,36743,-0.025476689,-0.1848401,0.01014662
1732371160266,2024-11-23T14:12:40.266Z,36746,-0.025476689,-0.1848401,0.01014662
1732371160274,2024-11-23T14:12:40.274Z,36754,-0.04651086,-0.16892736,-0.028477097
1732371160277,2024-11-23T14:12:40.277Z,36757,-0.04651086,-0.16892736,-0.028477097
1732371160286,2024-11-23T14:12:40.286Z,36766,-0.05800729,-0.1216497,0.058428094
1732371160288,2024-11-23T14:12:40.288Z,36768,-0.05800729,-0.1216497,0.058428094
1732371160296,2024-11-23T14:12:40.296Z,36776,-0.047923405,-0.13981566,0.058231104
1732371160299,2024-11-23T14:12:40.299Z,36779,-0.047923405,-0.13981566,0.058231104
1732371160306,2024-11-23T14:12:40.306Z,36786,-0.08150445,-0.13712637,0.09961326
1732371160309,2024-11-23T14:12:40.309Z,36789,-0.08150445,-0.13712637,0.09961326
1732371160320,2024-11-23T14:12:40.320Z,36800,-0.0541343,-0.099330954,0.009324889
1732371160322,2024-11-23T14:12:40.322Z,36802,-0.0541343,-0.099330954,0.009324889
1732371160331,2024-11-23T14:12:40.331Z,36811,0.018847628,-0.057052802,0.032842472
1732371160334,2024-11-23T14:12:40.334Z,36814,0.018847628,-0.057052802,0.032842472
1732371160342,2024-11-23T14:12:40.342Z,36822,0.042361714,0.0060501695,0.053669155
1732371160345,2024-11-23T14:12:40.345Z,36825,0.042361714,0.0060501695,0.053669155
1732371160406,2024-11-23T14:12:40.406Z,36886,0.005052675,-0.00398774,0.0629828
1732371160409,2024-11-23T14:12:40.409Z,36889,0.005052675,-0.00398774,0.0629828
1732371160422,2024-11-23T14:12:40.422Z,36902,0.0037098788,-0.014527155,0.09031731
1732371160429,2024-11-23T14:12:40.429Z,36909,0.0037098788,-0.014527155,0.09031731
1732371160455,2024-11-23T14:12:40.455Z,36935,-0.017779361,-0.023431351,-0.026616529
1732371160462,2024-11-23T14:12:40.462Z,36942,-0.017779361,-0.023431351,-0.026616529
1732371160484,2024-11-23T14:12:40.484Z,36964,0.045462843,0.015974201,-0.052467633
1732371160491,2024-11-23T14:12:40.491Z,36971,0.045462843,0.015974201,-0.052467633
1732371160511,2024-11-23T14:12:40.511Z,36991,0.040885054,0.013709107,0.0478825
1732371160517,2024-11-23T14:12:40.517Z,36997,0.040885054,0.013709107,0.0478825
1732371160542,2024-11-23T14:12:40.542Z,37022,0.05180116,0.04473035,0.040217314
1732371160546,2024-11-23T14:12:40.546Z,37026,0.05180116,0.04473035,0.040217314
1732371160558,2024-11-23T14:12:40.558Z,37038,0.0880493,0.055255372,0.05946355
1732371160562,2024-11-23T14:12:40.562Z,37042,0.0880493,0.055255372,0.05946355
1732371160574,2024-11-23T14:12:40.574Z,37054,0.13130467,0.036217384,0.0040318416
1732371160577,2024-11-23T14:12:40.577Z,37057,0.13130467,0.036217384,0.0040318416
1732371160588,2024-11-23T14:12:40.588Z,37068,0.029043298,0.05104659,0.027495442
1732371160591,2024-11-23T14:12:40.591Z,37071,0.029043298,0.05104659,0.027495442
1732371160601,2024-11-23T14:12:40.601Z,37081,0.06850409,0.039693307,0.04922724
1732371160604,2024-11-23T14:12:40.604Z,37084,0.06850409,0.039693307,0.04922724
1732371160614,2024-11-23T14:12:40.614Z,37094,0.032410014,-0.015457719,0.06264336
1732371160617,2024-11-23T14:12:40.617Z,37097,0.032410014,-0.015457719,0.06264336
1732371160633,2024-11-23T14:12:40.633Z,37113,-0.030770732,-0.036645174,-0.062448047
1732371160636,2024-11-23T14:12:40.636Z,37116,-0.030770732,-0.036645174,-0.062448047
1732371160644,2024-11-23T14:12:40.644Z,37124,-0.020105625,-0.034948688,0.0104554845
1732371160647,2024-11-23T14:12:40.647Z,37127,-0.020105625,-0.034948688,0.0104554845
1732371160655,2024-11-23T14:12:40.655Z,37135,0.039187644,-0.023344995,0.026528338
1732371160657,2024-11-23T14:12:40.657Z,37137,0.039187644,-0.023344995,0.026528338
1732371160681,2024-11-23T14:12:40.681Z,37161,0.033034053,-0.014207307,0.021807162
1732371160683,2024-11-23T14:12:40.683Z,37163,0.033034053,-0.014207307,0.021807162
1732371160690,2024-11-23T14:12:40.690Z,37170,0.06452235,-0.009340643,-0.02542135
1732371160692,2024-11-23T14:12:40.692Z,37172,0.06452235,-0.009340643,-0.02542135
1732371160701,2024-11-23T14:12:40.701Z,37181,0.027032895,-0.031544145,-0.061704807
1732371160704,2024-11-23T14:12:40.704Z,37184,0.027032895,-0.031544145,-0.061704807
1732371160712,2024-11-23T14:12:40.712Z,37192,0.055553485,-0.020407336,-0.14037468
1732371160715,2024-11-23T14:12:40.715Z,37195,0.055553485,-0.020407336,-0.14037468
1732371160767,2024-11-23T14:12:40.767Z,37247,-0.003931774,0.008169975,0.021945478
1732371160771,2024-11-23T14:12:40.771Z,37251,-0.003931774,0.008169975,0.021945478
1732371160812,2024-11-23T14:12:40.812Z,37292,0.038287908,-0.040966474,0.038436282
1732371160815,2024-11-23T14:12:40.815Z,37295,0.038287908,-0.040966474,0.038436282
1732371160827,2024-11-23T14:12:40.827Z,37307,0.00231858,-0.016565565,0.0032260471
1732371160831,2024-11-23T14:12:40.831Z,37311,0.00231858,-0.016565565,0.0032260471
1732371160842,2024-11-23T14:12:40.842Z,37322,0.07337148,-0.027811095,0.02218996
1732371160845,2024-11-23T14:12:40.845Z,37325,0.07337148,-0.027811095,0.02218996
1732371160903,2024-11-23T14:12:40.903Z,37383,0.060568698,-3.756679E-4,0.04660672
1732371160907,2024-11-23T14:12:40.907Z,37387,0.060568698,-3.756679E-4,0.04660672
1732371160918,2024-11-23T14:12:40.918Z,37398,0.011778035,0.0015934038,-0.002273287
1732371160922,2024-11-23T14:12:40.922Z,37402,0.011778035,0.0015934038,-0.002273287
1732371160933,2024-11-23T14:12:40.933Z,37413,0.05640455,-0.0014596882,-0.012605103
1732371160936,2024-11-23T14:12:40.936Z,37416,0.05640455,-0.0014596882,-0.012605103
1732371160946,2024-11-23T14:12:40.946Z,37426,0.116007306,0.034096606,0.027367318
1732371160950,2024-11-23T14:12:40.950Z,37430,0.116007306,0.034096606,0.027367318
1732371160960,2024-11-23T14:12:40.960Z,37440,0.07421248,0.019901259,0.019751083
1732371160963,2024-11-23T14:12:40.963Z,37443,0.07421248,0.019901259,0.019751083
1732371160972,2024-11-23T14:12:40.972Z,37452,-2.1642479E-4,0.010804707,-0.017080272
1732371160976,2024-11-23T14:12:40.976Z,37456,-2.1642479E-4,0.010804707,-0.017080272
1732371160993,2024-11-23T14:12:40.993Z,37473,0.07692301,0.04328982,-0.097435564
1732371160996,2024-11-23T14:12:40.996Z,37476,0.07692301,0.04328982,-0.097435564
1732371161004,2024-11-23T14:12:41.004Z,37484,0.06556453,0.09264265,-0.001170121
1732371161007,2024-11-23T14:12:41.007Z,37487,0.06556453,0.09264265,-0.001170121
1732371161037,2024-11-23T14:12:41.037Z,37517,0.07565296,0.11985572,0.047012303
1732371161040,2024-11-23T14:12:41.040Z,37520,0.07565296,0.11985572,0.047012303
1732371161049,2024-11-23T14:12:41.049Z,37529,0.071751624,0.06480413,-0.03732625
1732371161051,2024-11-23T14:12:41.051Z,37531,0.071751624,0.06480413,-0.03732625
1732371161059,2024-11-23T14:12:41.059Z,37539,0.08588765,0.1275734,-0.065013535
1732371161062,2024-11-23T14:12:41.062Z,37542,0.08588765,0.1275734,-0.065013535
1732371161080,2024-11-23T14:12:41.080Z,37560,0.07081669,0.10058759,-0.008474105
1732371161083,2024-11-23T14:12:41.083Z,37563,0.07081669,0.10058759,-0.008474105
1732371161092,2024-11-23T14:12:41.092Z,37572,0.09012508,0.16680998,-0.12341297
1732371161094,2024-11-23T14:12:41.094Z,37574,0.09012508,0.16680998,-0.12341297
1732371161103,2024-11-23T14:12:41.103Z,37583,0.071226485,0.14127083,6.9223356E-4
1732371161105,2024-11-23T14:12:41.105Z,37585,0.071226485,0.14127083,6.9223356E-4
1732371161115,2024-11-23T14:12:41.115Z,37595,0.06479231,0.15251987,-0.014553485
1732371161118,2024-11-23T14:12:41.118Z,37598,0.06479231,0.15251987,-0.014553485
1732371161133,2024-11-23T14:12:41.133Z,37613,-0.03573693,0.07578621,0.035686217
1732371161136,2024-11-23T14:12:41.136Z,37616,-0.03573693,0.07578621,0.035686217
1732371161148,2024-11-23T14:12:41.148Z,37628,-0.07174523,0.06055615,-0.03316039
1732371161154,2024-11-23T14:12:41.154Z,37634,-0.07174523,0.06055615,-0.03316039
1732371161178,2024-11-23T14:12:41.178Z,37658,-0.012853911,0.06543945,-0.07020795
1732371161185,2024-11-23T14:12:41.185Z,37665,-0.012853911,0.06543945,-0.07020795
1732371161205,2024-11-23T14:12:41.205Z,37685,0.04985482,0.14352931,-0.027995441
1732371161210,2024-11-23T14:12:41.210Z,37690,0.04985482,0.14352931,-0.027995441
1732371161224,2024-11-23T14:12:41.224Z,37704,0.05391885,0.17248428,-0.11195608
1732371161227,2024-11-23T14:12:41.227Z,37707,0.05391885,0.17248428,-0.11195608
1732371161239,2024-11-23T14:12:41.239Z,37719,0.05449971,0.14904258,-0.13447443
1732371161242,2024-11-23T14:12:41.242Z,37722,0.05449971,0.14904258,-0.13447443
1732371161254,2024-11-23T14:12:41.254Z,37734,0.055154286,0.19350214,-0.13660364
1732371161257,2024-11-23T14:12:41.257Z,37737,0.055154286,0.19350214,-0.13660364
1732371161269,2024-11-23T14:12:41.269Z,37749,0.047184568,0.23158322,-0.09362877
1732371161272,2024-11-23T14:12:41.272Z,37752,0.047184568,0.23158322,-0.09362877
1732371161282,2024-11-23T14:12:41.282Z,37762,0.047267035,0.24496178,-0.053639226
1732371161285,2024-11-23T14:12:41.285Z,37765,0.047267035,0.24496178,-0.053639226
1732371161293,2024-11-23T14:12:41.293Z,37773,-0.021458583,0.3530636,-0.062213745
1732371161295,2024-11-23T14:12:41.295Z,37775,-0.021458583,0.3530636,-0.062213745
1732371161306,2024-11-23T14:12:41.306Z,37786,-0.021715755,0.37988496,-0.14125258
1732371161311,2024-11-23T14:12:41.311Z,37791,-0.021715755,0.37988496,-0.14125258
1732371161359,2024-11-23T14:12:41.359Z,37839,0.07060916,0.31940463,-0.15758477
1732371161365,2024-11-23T14:12:41.365Z,37845,0.07060916,0.31940463,-0.15758477
1732371161382,2024-11-23T14:12:41.382Z,37862,0.11150637,0.23149629,-0.17098661
1732371161386,2024-11-23T14:12:41.386Z,37866,0.11150637,0.23149629,-0.17098661
1732371161397,2024-11-23T14:12:41.397Z,37877,0.050845433,0.22706918,-0.07628607
1732371161401,2024-11-23T14:12:41.401Z,37881,0.050845433,0.22706918,-0.07628607
1732371161412,2024-11-23T14:12:41.412Z,37892,0.010064652,0.2898367,0.114529364
1732371161416,2024-11-23T14:12:41.416Z,37896,0.010064652,0.2898367,0.114529364
1732371161430,2024-11-23T14:12:41.430Z,37910,-0.05986535,0.16790791,0.020976964
1732371161437,2024-11-23T14:12:41.437Z,37917,-0.05986535,0.16790791,0.020976964
1732371161457,2024-11-23T14:12:41.457Z,37937,-0.018117541,0.22142881,0.05987278
1732371161463,2024-11-23T14:12:41.463Z,37943,-0.018117541,0.22142881,0.05987278
1732371161475,2024-11-23T14:12:41.475Z,37955,-0.008423597,0.19397977,0.08570793
1732371161479,2024-11-23T14:12:41.479Z,37959,-0.008423597,0.19397977,0.08570793
1732371161490,2024-11-23T14:12:41.490Z,37970,-0.059357524,0.22414042,0.004284506
1732371161493,2024-11-23T14:12:41.493Z,37973,-0.059357524,0.22414042,0.004284506
1732371161504,2024-11-23T14:12:41.504Z,37984,0.12674071,0.25108582,-0.08391942
1732371161507,2024-11-23T14:12:41.507Z,37987,0.12674071,0.25108582,-0.08391942
1732371161518,2024-11-23T14:12:41.518Z,37998,0.010217088,0.20154652,-0.13290738
1732371161521,2024-11-23T14:12:41.521Z,38001,0.010217088,0.20154652,-0.13290738
1732371161531,2024-11-23T14:12:41.531Z,38011,0.047008574,0.17671928,-0.15383631
1732371161534,2024-11-23T14:12:41.534Z,38014,0.047008574,0.17671928,-0.15383631
1732371161543,2024-11-23T14:12:41.543Z,38023,-0.08936827,0.19883788,0.016115194
1732371161545,2024-11-23T14:12:41.545Z,38025,-0.08936827,0.19883788,0.016115194
1732371161553,2024-11-23T14:12:41.553Z,38033,0.020718724,0.17579173,0.07090995
1732371161555,2024-11-23T14:12:41.555Z,38035,0.020718724,0.17579173,0.07090995
1732371161576,2024-11-23T14:12:41.576Z,38056,0.0014946487,0.12338673,0.082461804
1732371161579,2024-11-23T14:12:41.579Z,38059,0.0014946487,0.12338673,0.082461804
1732371161588,2024-11-23T14:12:41.588Z,38068,0.12765275,0.11965505,-0.113652125
1732371161590,2024-11-23T14:12:41.590Z,38070,0.12765275,0.11965505,-0.113652125
1732371161598,2024-11-23T14:12:41.598Z,38078,0.13819762,0.08053604,-0.09491443
1732371161601,2024-11-23T14:12:41.601Z,38081,0.13819762,0.08053604,-0.09491443
1732371161621,2024-11-23T14:12:41.621Z,38101,0.094955005,0.07008968,0.07067845
1732371161623,2024-11-23T14:12:41.623Z,38103,0.094955005,0.07008968,0.07067845
1732371161631,2024-11-23T14:12:41.631Z,38111,0.10626414,0.12392918,-0.005819227
1732371161634,2024-11-23T14:12:41.634Z,38114,0.10626414,0.12392918,-0.005819227
1732371161641,2024-11-23T14:12:41.641Z,38121,0.030073613,0.0038204738,0.057947814
1732371161643,2024-11-23T14:12:41.643Z,38123,0.030073613,0.0038204738,0.057947814
1732371161667,2024-11-23T14:12:41.667Z,38147,-0.012360622,-0.117831066,-0.09015497
1732371161669,2024-11-23T14:12:41.669Z,38149,-0.012360622,-0.117831066,-0.09015497
1732371161677,2024-11-23T14:12:41.677Z,38157,0.1264623,-0.034530137,0.030932194
1732371161680,2024-11-23T14:12:41.680Z,38160,0.1264623,-0.034530137,0.030932194
1732371161688,2024-11-23T14:12:41.688Z,38168,0.14539562,-0.097131014,-0.030821849
1732371161690,2024-11-23T14:12:41.690Z,38170,0.14539562,-0.097131014,-0.030821849
1732371161756,2024-11-23T14:12:41.756Z,38236,0.18154259,-0.012710374,0.020280391
1732371161758,2024-11-23T14:12:41.758Z,38238,0.18154259,-0.012710374,0.020280391
1732371161766,2024-11-23T14:12:41.766Z,38246,0.058938775,-0.08266396,0.08880768
1732371161768,2024-11-23T14:12:41.768Z,38248,0.058938775,-0.08266396,0.08880768
1732371161775,2024-11-23T14:12:41.775Z,38255,0.092042625,-0.15768863,0.2087503
1732371161777,2024-11-23T14:12:41.777Z,38257,0.092042625,-0.15768863,0.2087503
1732371161801,2024-11-23T14:12:41.801Z,38281,-0.009164965,-0.24037388,0.10812273
1732371161804,2024-11-23T14:12:41.804Z,38284,-0.009164965,-0.24037388,0.10812273
1732371161815,2024-11-23T14:12:41.815Z,38295,-0.010296296,-0.14671743,-0.09608914
1732371161819,2024-11-23T14:12:41.819Z,38299,-0.010296296,-0.14671743,-0.09608914
1732371161831,2024-11-23T14:12:41.831Z,38311,-0.005625683,-0.1931327,-0.11320572
1732371161835,2024-11-23T14:12:41.835Z,38315,-0.005625683,-0.1931327,-0.11320572
1732371161845,2024-11-23T14:12:41.845Z,38325,0.058521487,-0.2002377,0.011868354
1732371161850,2024-11-23T14:12:41.850Z,38330,0.058521487,-0.2002377,0.011868354
1732371161890,2024-11-23T14:12:41.890Z,38370,-0.14079116,-0.28993988,-0.02710774
1732371161891,2024-11-23T14:12:41.891Z,38371,-0.14079116,-0.28993988,-0.02710774
1732371161898,2024-11-23T14:12:41.898Z,38378,-0.249699,-0.30342355,-0.048650563
1732371161901,2024-11-23T14:12:41.901Z,38381,-0.249699,-0.30342355,-0.048650563
1732371161910,2024-11-23T14:12:41.910Z,38390,-0.13981652,-0.34831536,0.014221882
1732371161913,2024-11-23T14:12:41.913Z,38393,-0.13981652,-0.34831536,0.014221882
1732371161935,2024-11-23T14:12:41.935Z,38415,-0.17358817,-0.32743374,-0.02996867
1732371161937,2024-11-23T14:12:41.937Z,38417,-0.17358817,-0.32743374,-0.02996867
1732371161943,2024-11-23T14:12:41.943Z,38423,-0.059059486,-0.26015243,-0.072158255
1732371161945,2024-11-23T14:12:41.945Z,38425,-0.059059486,-0.26015243,-0.072158255
1732371161981,2024-11-23T14:12:41.981Z,38461,-0.028660093,-0.18097723,0.14241284
1732371161984,2024-11-23T14:12:41.984Z,38464,-0.028660093,-0.18097723,0.14241284
1732371161995,2024-11-23T14:12:41.995Z,38475,-0.06718324,-0.14251214,-0.016066246
1732371161999,2024-11-23T14:12:41.999Z,38479,-0.06718324,-0.14251214,-0.016066246
1732371162009,2024-11-23T14:12:42.009Z,38489,0.06054915,-0.112219684,-0.010380221
1732371162012,2024-11-23T14:12:42.012Z,38492,0.06054915,-0.112219684,-0.010380221
1732371162026,2024-11-23T14:12:42.026Z,38506,0.031016551,-0.11434736,-0.002879359
1732371162028,2024-11-23T14:12:42.028Z,38508,0.031016551,-0.11434736,-0.002879359
1732371162035,2024-11-23T14:12:42.035Z,38515,-0.2657968,-0.98319405,-0.6350166
1732371162038,2024-11-23T14:12:42.038Z,38518,-0.2657968,-0.98319405,-0.6350166
