Timestamp (ms),ISO DateTime,Elapsed Time (ms),Acceleration X,Acceleration Y,Acceleration Z
1734275452892,2024-12-15T15:10:52.892Z,28665,0.009866234,-0.008547199,-0.13843317
1734275452899,2024-12-15T15:10:52.899Z,28672,0.009866234,-0.008547199,-0.13843317
1734275453062,2024-12-15T15:10:53.062Z,28835,0.003879962,-0.008866852,-0.13396938
1734275453070,2024-12-15T15:10:53.070Z,28843,0.003879962,-0.008866852,-0.13396938
1734275453091,2024-12-15T15:10:53.091Z,28864,0.0024340982,-0.0038741545,-0.12962542
1734275453098,2024-12-15T15:10:53.098Z,28871,0.0024340982,-0.0038741545,-0.12962542
1734275453113,2024-12-15T15:10:53.113Z,28886,0.0048618815,-0.0023499911,-0.124922894
1734275453118,2024-12-15T15:10:53.118Z,28891,0.0048618815,-0.0023499911,-0.124922894
1734275453134,2024-12-15T15:10:53.134Z,28907,0.009187776,-0.005746562,-0.12226599
1734275453140,2024-12-15T15:10:53.140Z,28913,0.009187776,-0.005746562,-0.12226599
1734275453156,2024-12-15T15:10:53.156Z,28929,0.010535827,-0.003288626,-0.12836988
1734275453160,2024-12-15T15:10:53.160Z,28933,0.010535827,-0.003288626,-0.12836988
1734275453169,2024-12-15T15:10:53.169Z,28942,0.007494678,0.0025606295,-0.12475114
1734275453172,2024-12-15T15:10:53.172Z,28945,0.007494678,0.0025606295,-0.12475114
1734275453184,2024-12-15T15:10:53.184Z,28957,0.007687541,-9.235616E-4,-0.11302571
1734275453188,2024-12-15T15:10:53.188Z,28961,0.007687541,-9.235616E-4,-0.11302571
1734275453201,2024-12-15T15:10:53.201Z,28974,0.010745952,-4.9596336E-5,-0.114586644
1734275453205,2024-12-15T15:10:53.205Z,28978,0.010745952,-4.9596336E-5,-0.114586644
1734275453219,2024-12-15T15:10:53.219Z,28992,0.008405114,0.004677323,-0.10557237
1734275453224,2024-12-15T15:10:53.224Z,28997,0.008405114,0.004677323,-0.10557237
1734275453236,2024-12-15T15:10:53.236Z,29009,0.007971699,0.0010487194,-0.101136714
1734275453240,2024-12-15T15:10:53.240Z,29013,0.007971699,0.0010487194,-0.101136714
1734275453252,2024-12-15T15:10:53.252Z,29025,0.008959739,3.0419085E-4,-0.098807216
1734275453256,2024-12-15T15:10:53.256Z,29029,0.008959739,3.0419085E-4,-0.098807216
1734275453269,2024-12-15T15:10:53.269Z,29042,0.009972608,0.0019278387,-0.09136677
1734275453273,2024-12-15T15:10:53.273Z,29046,0.009972608,0.0019278387,-0.09136677
1734275453284,2024-12-15T15:10:53.284Z,29057,0.010046576,0.0054213656,-0.0837436
1734275453287,2024-12-15T15:10:53.287Z,29060,0.010046576,0.0054213656,-0.0837436
1734275453299,2024-12-15T15:10:53.299Z,29072,0.0052999337,0.004460461,-0.08610309
1734275453304,2024-12-15T15:10:53.304Z,29077,0.0052999337,0.004460461,-0.08610309
1734275453318,2024-12-15T15:10:53.318Z,29091,0.0049806754,0.0049323067,-0.08564337
1734275453321,2024-12-15T15:10:53.321Z,29094,0.0049806754,0.0049323067,-0.08564337
1734275453335,2024-12-15T15:10:53.335Z,29108,0.0109618325,0.0043836352,-0.07266602
1734275453340,2024-12-15T15:10:53.340Z,29113,0.0109618325,0.0043836352,-0.07266602
1734275453350,2024-12-15T15:10:53.350Z,29123,0.011630146,0.0062197694,-0.06771793
1734275453353,2024-12-15T15:10:53.353Z,29126,0.011630146,0.0062197694,-0.06771793
1734275453365,2024-12-15T15:10:53.365Z,29138,0.009473173,0.0050927657,-0.07606822
1734275453368,2024-12-15T15:10:53.368Z,29141,0.009473173,0.0050927657,-0.07606822
1734275453381,2024-12-15T15:10:53.381Z,29154,0.0072639394,0.011269259,-0.07230098
1734275453386,2024-12-15T15:10:53.386Z,29159,0.0072639394,0.011269259,-0.07230098
1734275453403,2024-12-15T15:10:53.403Z,29176,0.007893488,0.009155386,-0.068983786
1734275453408,2024-12-15T15:10:53.408Z,29181,0.007893488,0.009155386,-0.068983786
1734275453420,2024-12-15T15:10:53.420Z,29193,0.009439295,0.0065652905,-0.07342962
1734275453424,2024-12-15T15:10:53.424Z,29197,0.009439295,0.0065652905,-0.07342962
1734275453433,2024-12-15T15:10:53.433Z,29206,0.015293606,0.005509764,-0.086359836
1734275453437,2024-12-15T15:10:53.437Z,29210,0.015293606,0.005509764,-0.086359836
1734275453448,2024-12-15T15:10:53.448Z,29221,0.020072585,0.0039880313,-0.07819685
1734275453452,2024-12-15T15:10:53.452Z,29225,0.020072585,0.0039880313,-0.07819685
1734275453466,2024-12-15T15:10:53.466Z,29239,0.010334545,0.0048258207,-0.063038014
1734275453469,2024-12-15T15:10:53.469Z,29242,0.010334545,0.0048258207,-0.063038014
1734275453482,2024-12-15T15:10:53.482Z,29255,0.0071270177,0.010478635,-0.06718693
1734275453487,2024-12-15T15:10:53.487Z,29260,0.0071270177,0.010478635,-0.06718693
1734275453503,2024-12-15T15:10:53.503Z,29276,0.0054179803,0.014181926,-0.06300208
1734275453507,2024-12-15T15:10:53.507Z,29280,0.0054179803,0.014181926,-0.06300208
1734275453518,2024-12-15T15:10:53.518Z,29291,0.006583096,0.008115225,-0.054934822
1734275453522,2024-12-15T15:10:53.522Z,29295,0.006583096,0.008115225,-0.054934822
1734275453534,2024-12-15T15:10:53.534Z,29307,0.0048732776,0.0034870114,-0.047947172
1734275453537,2024-12-15T15:10:53.537Z,29310,0.0048732776,0.0034870114,-0.047947172
1734275453549,2024-12-15T15:10:53.549Z,29322,-0.0020765,0.0046675988,-0.04116434
1734275453553,2024-12-15T15:10:53.553Z,29326,-0.0020765,0.0046675988,-0.04116434
1734275453565,2024-12-15T15:10:53.565Z,29338,-0.0030174204,0.0077979052,-0.04510715
1734275453570,2024-12-15T15:10:53.570Z,29343,-0.0030174204,0.0077979052,-0.04510715
1734275453582,2024-12-15T15:10:53.582Z,29355,-0.0033005783,0.0036011802,-0.044146292
1734275453586,2024-12-15T15:10:53.586Z,29359,-0.0033005783,0.0036011802,-0.044146292
1734275453597,2024-12-15T15:10:53.597Z,29370,-0.008900806,0.0018318552,-0.036887214
1734275453601,2024-12-15T15:10:53.601Z,29374,-0.008900806,0.0018318552,-0.036887214
1734275453615,2024-12-15T15:10:53.615Z,29388,-0.0031189136,0.0024860406,-0.033100046
1734275453620,2024-12-15T15:10:53.620Z,29393,-0.0031189136,0.0024860406,-0.033100046
1734275453631,2024-12-15T15:10:53.631Z,29404,-7.521503E-4,-0.0046719746,-0.039558947
1734275453635,2024-12-15T15:10:53.635Z,29408,-7.521503E-4,-0.0046719746,-0.039558947
1734275453654,2024-12-15T15:10:53.654Z,29427,1.1308998E-4,-0.0020788645,-0.04901781
1734275453659,2024-12-15T15:10:53.659Z,29432,1.1308998E-4,-0.0020788645,-0.04901781
1734275453671,2024-12-15T15:10:53.671Z,29444,-0.007259089,1.5267891E-5,-0.041912865
1734275453675,2024-12-15T15:10:53.675Z,29448,-0.007259089,1.5267891E-5,-0.041912865
1734275453686,2024-12-15T15:10:53.686Z,29459,-9.6777885E-4,-0.0032233729,-0.056104068
1734275453690,2024-12-15T15:10:53.690Z,29463,-9.6777885E-4,-0.0032233729,-0.056104068
1734275453703,2024-12-15T15:10:53.703Z,29476,0.007595487,-0.0074269054,-0.05317939
1734275453707,2024-12-15T15:10:53.707Z,29480,0.007595487,-0.0074269054,-0.05317939
1734275453719,2024-12-15T15:10:53.719Z,29492,0.004514318,-0.0072440794,-0.05124839
1734275453723,2024-12-15T15:10:53.723Z,29496,0.004514318,-0.0072440794,-0.05124839
1734275453736,2024-12-15T15:10:53.736Z,29509,-0.0017284717,-0.006075162,-0.06044372
1734275453739,2024-12-15T15:10:53.739Z,29512,-0.0017284717,-0.006075162,-0.06044372
1734275453751,2024-12-15T15:10:53.751Z,29524,-0.0053750514,-0.009290658,-0.05050684
1734275453756,2024-12-15T15:10:53.756Z,29529,-0.0053750514,-0.009290658,-0.05050684
1734275453769,2024-12-15T15:10:53.769Z,29542,0.0051244106,-0.0052194796,-0.030981772
1734275453774,2024-12-15T15:10:53.774Z,29547,0.0051244106,-0.0052194796,-0.030981772
1734275453787,2024-12-15T15:10:53.787Z,29560,0.013140342,-0.0016505854,-0.02617692
1734275453791,2024-12-15T15:10:53.791Z,29564,0.013140342,-0.0016505854,-0.02617692
1734275453804,2024-12-15T15:10:53.804Z,29577,0.008530405,-0.008828731,-0.01746868
1734275453807,2024-12-15T15:10:53.807Z,29580,0.008530405,-0.008828731,-0.01746868
1734275453818,2024-12-15T15:10:53.818Z,29591,-0.00902673,-0.018995201,-0.008501274
1734275453822,2024-12-15T15:10:53.822Z,29595,-0.00902673,-0.018995201,-0.008501274
1734275453837,2024-12-15T15:10:53.837Z,29610,-0.01807936,-0.021846991,-0.01612767
1734275453840,2024-12-15T15:10:53.840Z,29613,-0.01807936,-0.021846991,-0.01612767
1734275453852,2024-12-15T15:10:53.852Z,29625,-0.019063454,-0.022230536,0.006726965
1734275453855,2024-12-15T15:10:53.855Z,29628,-0.019063454,-0.022230536,0.006726965
1734275453870,2024-12-15T15:10:53.870Z,29643,-0.013445423,-0.034792703,0.015157879
1734275453874,2024-12-15T15:10:53.874Z,29647,-0.013445423,-0.034792703,0.015157879
1734275453884,2024-12-15T15:10:53.884Z,29657,-0.02748779,-0.049818546,0.023106737
1734275453887,2024-12-15T15:10:53.887Z,29660,-0.02748779,-0.049818546,0.023106737
1734275453896,2024-12-15T15:10:53.896Z,29669,-0.043090947,-0.057057664,0.032527782
1734275453900,2024-12-15T15:10:53.900Z,29673,-0.043090947,-0.057057664,0.032527782
1734275453915,2024-12-15T15:10:53.915Z,29688,-0.039809227,-0.065282874,0.036179226
1734275453920,2024-12-15T15:10:53.920Z,29693,-0.039809227,-0.065282874,0.036179226
1734275453934,2024-12-15T15:10:53.934Z,29707,-0.048429053,-0.07838953,0.06000285
1734275453938,2024-12-15T15:10:53.938Z,29711,-0.048429053,-0.07838953,0.06000285
1734275453949,2024-12-15T15:10:53.949Z,29722,-0.06983538,-0.10373297,0.041874744
1734275453952,2024-12-15T15:10:53.952Z,29725,-0.06983538,-0.10373297,0.041874744
1734275453964,2024-12-15T15:10:53.964Z,29737,-0.07060839,-0.11933899,0.057591252
1734275453968,2024-12-15T15:10:53.968Z,29741,-0.07060839,-0.11933899,0.057591252
1734275453980,2024-12-15T15:10:53.980Z,29753,-0.07532243,-0.12960339,0.08515276
1734275453984,2024-12-15T15:10:53.984Z,29757,-0.07532243,-0.12960339,0.08515276
1734275453997,2024-12-15T15:10:53.997Z,29770,-0.08099024,-0.1477647,0.08184436
1734275454001,2024-12-15T15:10:54.001Z,29774,-0.08099024,-0.1477647,0.08184436
1734275454014,2024-12-15T15:10:54.014Z,29787,-0.0987072,-0.1640777,0.07744536
1734275454018,2024-12-15T15:10:54.018Z,29791,-0.0987072,-0.1640777,0.07744536
1734275454029,2024-12-15T15:10:54.029Z,29802,-0.101264656,-0.17364115,0.09548454
1734275454032,2024-12-15T15:10:54.032Z,29805,-0.101264656,-0.17364115,0.09548454
1734275454046,2024-12-15T15:10:54.046Z,29819,-0.08677898,-0.17647183,0.09389237
1734275454050,2024-12-15T15:10:54.050Z,29823,-0.08677898,-0.17647183,0.09389237
1734275454064,2024-12-15T15:10:54.064Z,29837,-0.08832072,-0.18627031,0.09119301
1734275454069,2024-12-15T15:10:54.069Z,29842,-0.08832072,-0.18627031,0.09119301
1734275454081,2024-12-15T15:10:54.081Z,29854,-0.086333275,-0.17667663,0.08596557
1734275454086,2024-12-15T15:10:54.086Z,29859,-0.086333275,-0.17667663,0.08596557
1734275454099,2024-12-15T15:10:54.099Z,29872,-0.073323965,-0.15643802,0.08807111
1734275454103,2024-12-15T15:10:54.103Z,29876,-0.073323965,-0.15643802,0.08807111
1734275454114,2024-12-15T15:10:54.114Z,29887,-0.09433625,-0.16702498,0.06932977
1734275454117,2024-12-15T15:10:54.117Z,29890,-0.09433625,-0.16702498,0.06932977
1734275454128,2024-12-15T15:10:54.128Z,29901,-0.092505366,-0.18061799,0.055265937
1734275454132,2024-12-15T15:10:54.132Z,29905,-0.092505366,-0.18061799,0.055265937
1734275454145,2024-12-15T15:10:54.145Z,29918,-0.06726803,-0.18113446,0.06341068
1734275454149,2024-12-15T15:10:54.149Z,29922,-0.06726803,-0.18113446,0.06341068
1734275454161,2024-12-15T15:10:54.161Z,29934,-0.034309115,-0.17884448,0.07954214
1734275454165,2024-12-15T15:10:54.165Z,29938,-0.034309115,-0.17884448,0.07954214
1734275454178,2024-12-15T15:10:54.178Z,29951,-0.011677323,-0.17427987,0.062971935
1734275454182,2024-12-15T15:10:54.182Z,29955,-0.011677323,-0.17427987,0.062971935
1734275454192,2024-12-15T15:10:54.192Z,29965,-0.022889584,-0.17331508,0.04827198
1734275454196,2024-12-15T15:10:54.196Z,29969,-0.022889584,-0.17331508,0.04827198
1734275454208,2024-12-15T15:10:54.208Z,29981,-0.023197835,-0.16415958,0.041110158
1734275454213,2024-12-15T15:10:54.213Z,29986,-0.023197835,-0.16415958,0.041110158
1734275454226,2024-12-15T15:10:54.226Z,29999,0.0015668917,-0.1629016,0.03095114
1734275454231,2024-12-15T15:10:54.231Z,30004,0.0015668917,-0.1629016,0.03095114
1734275454245,2024-12-15T15:10:54.245Z,30018,-0.0023255576,-0.16371983,0.064955495
1734275454249,2024-12-15T15:10:54.249Z,30022,-0.0023255576,-0.16371983,0.064955495
1734275454260,2024-12-15T15:10:54.260Z,30033,-0.021157043,-0.1505667,0.049074586
1734275454264,2024-12-15T15:10:54.264Z,30037,-0.021157043,-0.1505667,0.049074586
1734275454275,2024-12-15T15:10:54.275Z,30048,-0.0068872776,-0.15475583,0.053550243
1734275454279,2024-12-15T15:10:54.279Z,30052,-0.0068872776,-0.15475583,0.053550243
1734275454290,2024-12-15T15:10:54.290Z,30063,0.0026337355,-0.15818994,0.05140716
1734275454295,2024-12-15T15:10:54.295Z,30068,0.0026337355,-0.15818994,0.05140716
1734275454311,2024-12-15T15:10:54.311Z,30084,0.008971612,-0.15247849,0.03966559
1734275454315,2024-12-15T15:10:54.315Z,30088,0.008971612,-0.15247849,0.03966559
1734275454325,2024-12-15T15:10:54.325Z,30098,0.022144983,-0.14108776,0.046234287
1734275454329,2024-12-15T15:10:54.329Z,30102,0.022144983,-0.14108776,0.046234287
1734275454341,2024-12-15T15:10:54.341Z,30114,0.027533114,-0.13474712,0.018518798
1734275454345,2024-12-15T15:10:54.345Z,30118,0.027533114,-0.13474712,0.018518798
1734275454356,2024-12-15T15:10:54.356Z,30129,0.009082888,-0.15837705,-0.0136807235
1734275454360,2024-12-15T15:10:54.360Z,30133,0.009082888,-0.15837705,-0.0136807235
1734275454370,2024-12-15T15:10:54.370Z,30143,9.635303E-4,-0.16995643,-0.003292297
1734275454373,2024-12-15T15:10:54.373Z,30146,9.635303E-4,-0.16995643,-0.003292297
1734275454383,2024-12-15T15:10:54.383Z,30156,0.02579999,-0.15180436,-0.035265207
1734275454387,2024-12-15T15:10:54.387Z,30160,0.02579999,-0.15180436,-0.035265207
1734275454396,2024-12-15T15:10:54.396Z,30169,0.02943985,-0.16009375,-0.03350811
1734275454399,2024-12-15T15:10:54.399Z,30172,0.02943985,-0.16009375,-0.03350811
1734275454409,2024-12-15T15:10:54.409Z,30182,0.036386933,-0.16995312,-0.033705622
1734275454413,2024-12-15T15:10:54.413Z,30186,0.036386933,-0.16995312,-0.033705622
1734275454424,2024-12-15T15:10:54.424Z,30197,0.08907125,-0.15400547,-0.059696317
1734275454428,2024-12-15T15:10:54.428Z,30201,0.08907125,-0.15400547,-0.059696317
1734275454439,2024-12-15T15:10:54.439Z,30212,0.10475585,-0.14730063,-0.056655727
1734275454441,2024-12-15T15:10:54.441Z,30214,0.10475585,-0.14730063,-0.056655727
1734275454451,2024-12-15T15:10:54.451Z,30224,0.085092455,-0.15264313,-0.05683929
1734275454454,2024-12-15T15:10:54.454Z,30227,0.085092455,-0.15264313,-0.05683929
1734275454464,2024-12-15T15:10:54.464Z,30237,0.080676,-0.16716552,-0.11271071
1734275454467,2024-12-15T15:10:54.467Z,30240,0.080676,-0.16716552,-0.11271071
1734275454477,2024-12-15T15:10:54.477Z,30250,0.08049023,-0.19385894,-0.106455505
1734275454480,2024-12-15T15:10:54.480Z,30253,0.08049023,-0.19385894,-0.106455505
1734275454490,2024-12-15T15:10:54.490Z,30263,0.07353269,-0.1935987,-0.08579588
1734275454494,2024-12-15T15:10:54.494Z,30267,0.07353269,-0.1935987,-0.08579588
1734275454503,2024-12-15T15:10:54.503Z,30276,0.07053078,-0.1600288,-0.088882685
1734275454506,2024-12-15T15:10:54.506Z,30279,0.07053078,-0.1600288,-0.088882685
1734275454519,2024-12-15T15:10:54.519Z,30292,0.031989563,-0.17667674,-0.098276526
1734275454522,2024-12-15T15:10:54.522Z,30295,0.031989563,-0.17667674,-0.098276526
1734275454534,2024-12-15T15:10:54.534Z,30307,0.12266097,-0.14321758,-0.112991124
1734275454538,2024-12-15T15:10:54.538Z,30311,0.12266097,-0.14321758,-0.112991124
1734275454549,2024-12-15T15:10:54.549Z,30322,0.08051204,-0.0981421,-0.1653686
1734275454554,2024-12-15T15:10:54.554Z,30327,0.08051204,-0.0981421,-0.1653686
1734275454564,2024-12-15T15:10:54.564Z,30337,0.1478412,-0.107539244,-0.14043175
1734275454567,2024-12-15T15:10:54.567Z,30340,0.1478412,-0.107539244,-0.14043175
1734275454578,2024-12-15T15:10:54.578Z,30351,0.24217075,-0.106938645,-0.07788425
1734275454581,2024-12-15T15:10:54.581Z,30354,0.24217075,-0.106938645,-0.07788425
1734275454591,2024-12-15T15:10:54.591Z,30364,0.25440773,-0.05380191,-0.11942169
1734275454593,2024-12-15T15:10:54.593Z,30366,0.25440773,-0.05380191,-0.11942169
1734275454603,2024-12-15T15:10:54.603Z,30376,0.17629737,-0.050897703,-0.16783164
1734275454606,2024-12-15T15:10:54.606Z,30379,0.17629737,-0.050897703,-0.16783164
1734275454616,2024-12-15T15:10:54.616Z,30389,0.12757957,-0.0631302,-0.1118145
1734275454619,2024-12-15T15:10:54.619Z,30392,0.12757957,-0.0631302,-0.1118145
1734275454629,2024-12-15T15:10:54.629Z,30402,0.11386964,0.018725436,-0.12629925
1734275454632,2024-12-15T15:10:54.632Z,30405,0.11386964,0.018725436,-0.12629925
1734275454642,2024-12-15T15:10:54.642Z,30415,0.13094424,0.052061174,-0.11932409
1734275454646,2024-12-15T15:10:54.646Z,30419,0.13094424,0.052061174,-0.11932409
1734275454656,2024-12-15T15:10:54.656Z,30429,0.12141139,0.019708514,-0.09868318
1734275454659,2024-12-15T15:10:54.659Z,30432,0.12141139,0.019708514,-0.09868318
1734275454668,2024-12-15T15:10:54.668Z,30441,0.15134402,0.24473657,-0.0114144385
1734275454672,2024-12-15T15:10:54.672Z,30445,0.15134402,0.24473657,-0.0114144385
1734275454684,2024-12-15T15:10:54.684Z,30457,0.18208766,0.27686715,-0.03860236
1734275454688,2024-12-15T15:10:54.688Z,30461,0.18208766,0.27686715,-0.03860236
1734275454698,2024-12-15T15:10:54.698Z,30471,0.016018838,0.22344407,-0.06247205
1734275454701,2024-12-15T15:10:54.701Z,30474,0.016018838,0.22344407,-0.06247205
1734275454710,2024-12-15T15:10:54.710Z,30483,0.15651532,0.27940056,-0.05918684
1734275454713,2024-12-15T15:10:54.713Z,30486,0.15651532,0.27940056,-0.05918684
1734275454724,2024-12-15T15:10:54.724Z,30497,0.074513555,0.23018062,-0.054971665
1734275454727,2024-12-15T15:10:54.727Z,30500,0.074513555,0.23018062,-0.054971665
1734275454740,2024-12-15T15:10:54.740Z,30513,0.0498033,0.22333667,-0.04717692
1734275454742,2024-12-15T15:10:54.742Z,30515,0.0498033,0.22333667,-0.04717692
1734275454752,2024-12-15T15:10:54.752Z,30525,0.026027014,0.1263096,-0.029068423
1734275454755,2024-12-15T15:10:54.755Z,30528,0.026027014,0.1263096,-0.029068423
1734275454766,2024-12-15T15:10:54.766Z,30539,-0.04401524,0.08485632,0.00616621
1734275454770,2024-12-15T15:10:54.770Z,30543,-0.04401524,0.08485632,0.00616621
1734275454780,2024-12-15T15:10:54.780Z,30553,-0.036639415,0.08364976,0.0077510197
1734275454783,2024-12-15T15:10:54.783Z,30556,-0.036639415,0.08364976,0.0077510197
1734275454792,2024-12-15T15:10:54.792Z,30565,0.007675592,0.07310811,-0.030530883
1734275454795,2024-12-15T15:10:54.795Z,30568,0.007675592,0.07310811,-0.030530883
1734275454804,2024-12-15T15:10:54.804Z,30577,0.024215847,0.06890137,-0.027262837
1734275454807,2024-12-15T15:10:54.807Z,30580,0.024215847,0.06890137,-0.027262837
1734275454817,2024-12-15T15:10:54.817Z,30590,0.031017305,0.08034023,-0.014559113
1734275454820,2024-12-15T15:10:54.820Z,30593,0.031017305,0.08034023,-0.014559113
1734275454831,2024-12-15T15:10:54.831Z,30604,-0.019904954,0.041538097,-0.028084217
1734275454834,2024-12-15T15:10:54.834Z,30607,-0.019904954,0.041538097,-0.028084217
1734275454854,2024-12-15T15:10:54.854Z,30627,0.049497712,0.03344903,0.033640027
1734275454857,2024-12-15T15:10:54.857Z,30630,0.049497712,0.03344903,0.033640027
1734275454868,2024-12-15T15:10:54.868Z,30641,0.011891451,0.045384437,0.0054803463
1734275454872,2024-12-15T15:10:54.872Z,30645,0.011891451,0.045384437,0.0054803463
1734275454883,2024-12-15T15:10:54.883Z,30656,-0.04410916,0.036732603,-0.0013408515
1734275454887,2024-12-15T15:10:54.887Z,30660,-0.04410916,0.036732603,-0.0013408515
1734275454896,2024-12-15T15:10:54.896Z,30669,-0.009570682,0.0363015,0.012248204
1734275454899,2024-12-15T15:10:54.899Z,30672,-0.009570682,0.0363015,0.012248204
1734275454909,2024-12-15T15:10:54.909Z,30682,-0.02414053,0.032511175,-0.035225894
1734275454914,2024-12-15T15:10:54.914Z,30687,-0.02414053,0.032511175,-0.035225894
1734275454924,2024-12-15T15:10:54.924Z,30697,0.015007875,0.02918365,0.030844009
1734275454927,2024-12-15T15:10:54.927Z,30700,0.015007875,0.02918365,0.030844009
1734275454938,2024-12-15T15:10:54.938Z,30711,0.018767934,0.023964852,0.040531244
1734275454942,2024-12-15T15:10:54.942Z,30715,0.018767934,0.023964852,0.040531244
1734275454953,2024-12-15T15:10:54.953Z,30726,-0.028320942,0.027029905,0.03448411
1734275454956,2024-12-15T15:10:54.956Z,30729,-0.028320942,0.027029905,0.03448411
1734275454968,2024-12-15T15:10:54.968Z,30741,0.036502805,0.026002774,0.02646762
1734275454972,2024-12-15T15:10:54.972Z,30745,0.036502805,0.026002774,0.02646762
1734275454986,2024-12-15T15:10:54.986Z,30759,0.0329024,0.037999738,0.029978845
1734275454989,2024-12-15T15:10:54.989Z,30762,0.0329024,0.037999738,0.029978845
1734275454998,2024-12-15T15:10:54.998Z,30771,0.005755849,0.050016835,0.022280011
1734275455001,2024-12-15T15:10:55.001Z,30774,0.005755849,0.050016835,0.022280011
1734275455013,2024-12-15T15:10:55.013Z,30786,0.025505232,0.03618568,0.029903501
1734275455016,2024-12-15T15:10:55.016Z,30789,0.025505232,0.03618568,0.029903501
1734275455027,2024-12-15T15:10:55.027Z,30800,0.034182962,0.037934974,0.042897962
1734275455030,2024-12-15T15:10:55.030Z,30803,0.034182962,0.037934974,0.042897962
1734275455040,2024-12-15T15:10:55.040Z,30813,-0.014054702,0.055245258,0.025093412
1734275455044,2024-12-15T15:10:55.044Z,30817,-0.014054702,0.055245258,0.025093412
1734275455056,2024-12-15T15:10:55.056Z,30829,-0.010823816,0.05010533,0.012908759
1734275455059,2024-12-15T15:10:55.059Z,30832,-0.010823816,0.05010533,0.012908759
1734275455072,2024-12-15T15:10:55.072Z,30845,0.050102606,0.04738084,0.019265793
1734275455075,2024-12-15T15:10:55.075Z,30848,0.050102606,0.04738084,0.019265793
1734275455086,2024-12-15T15:10:55.086Z,30859,0.04067443,0.056882426,0.008594924
1734275455089,2024-12-15T15:10:55.089Z,30862,0.04067443,0.056882426,0.008594924
1734275455099,2024-12-15T15:10:55.099Z,30872,0.043397,0.048815824,0.005674161
1734275455103,2024-12-15T15:10:55.103Z,30876,0.043397,0.048815824,0.005674161
1734275455113,2024-12-15T15:10:55.113Z,30886,0.017512113,0.037632823,0.016448917
1734275455116,2024-12-15T15:10:55.116Z,30889,0.017512113,0.037632823,0.016448917
1734275455127,2024-12-15T15:10:55.127Z,30900,0.02612623,0.041567758,0.008698808
1734275455131,2024-12-15T15:10:55.131Z,30904,0.02612623,0.041567758,0.008698808
1734275455141,2024-12-15T15:10:55.141Z,30914,0.019330025,0.035214175,-0.00731473
1734275455145,2024-12-15T15:10:55.145Z,30918,0.019330025,0.035214175,-0.00731473
1734275455156,2024-12-15T15:10:55.156Z,30929,0.01183963,0.009286671,0.0011473772
1734275455160,2024-12-15T15:10:55.160Z,30933,0.01183963,0.009286671,0.0011473772
1734275455169,2024-12-15T15:10:55.169Z,30942,0.02502704,0.008728177,0.008684415
1734275455172,2024-12-15T15:10:55.172Z,30945,0.02502704,0.008728177,0.008684415
1734275455181,2024-12-15T15:10:55.181Z,30954,0.02704504,0.012074179,0.0016160625
1734275455184,2024-12-15T15:10:55.184Z,30957,0.02704504,0.012074179,0.0016160625
1734275455195,2024-12-15T15:10:55.195Z,30968,0.029680282,-0.0016578791,-0.014089589
1734275455199,2024-12-15T15:10:55.199Z,30972,0.029680282,-0.0016578791,-0.014089589
1734275455209,2024-12-15T15:10:55.209Z,30982,0.047034502,-0.012968956,0.007777435
1734275455213,2024-12-15T15:10:55.213Z,30986,0.047034502,-0.012968956,0.007777435
1734275455223,2024-12-15T15:10:55.223Z,30996,0.038233183,-0.007695309,0.019496173
1734275455226,2024-12-15T15:10:55.226Z,30999,0.038233183,-0.007695309,0.019496173
1734275455238,2024-12-15T15:10:55.238Z,31011,-0.02101382,0.0028240737,0.008045157
1734275455241,2024-12-15T15:10:55.241Z,31014,-0.02101382,0.0028240737,0.008045157
1734275455251,2024-12-15T15:10:55.251Z,31024,0.0028642127,0.026029712,0.0054462855
1734275455255,2024-12-15T15:10:55.255Z,31028,0.0028642127,0.026029712,0.0054462855
1734275455266,2024-12-15T15:10:55.266Z,31039,0.03301572,0.02287704,-0.009871129
1734275455269,2024-12-15T15:10:55.269Z,31042,0.03301572,0.02287704,-0.009871129
1734275455280,2024-12-15T15:10:55.280Z,31053,0.06263531,0.04461978,-0.010598494
1734275455283,2024-12-15T15:10:55.283Z,31056,0.06263531,0.04461978,-0.010598494
1734275455293,2024-12-15T15:10:55.293Z,31066,0.06701588,0.052770305,-0.0049400865
1734275455296,2024-12-15T15:10:55.296Z,31069,0.06701588,0.052770305,-0.0049400865
1734275455307,2024-12-15T15:10:55.307Z,31080,0.01433954,0.025736025,0.0011546464
1734275455310,2024-12-15T15:10:55.310Z,31083,0.01433954,0.025736025,0.0011546464
1734275455319,2024-12-15T15:10:55.319Z,31092,0.012117928,0.013323131,0.007768026
1734275455322,2024-12-15T15:10:55.322Z,31095,0.012117928,0.013323131,0.007768026
1734275455332,2024-12-15T15:10:55.332Z,31105,0.020567903,0.013169674,0.0067172158
1734275455336,2024-12-15T15:10:55.336Z,31109,0.020567903,0.013169674,0.0067172158
1734275455347,2024-12-15T15:10:55.347Z,31120,0.03322688,0.021759177,0.034061085
1734275455350,2024-12-15T15:10:55.350Z,31123,0.03322688,0.021759177,0.034061085
1734275455360,2024-12-15T15:10:55.360Z,31133,0.030315017,0.009804223,0.020781083
1734275455364,2024-12-15T15:10:55.364Z,31137,0.030315017,0.009804223,0.020781083
1734275455374,2024-12-15T15:10:55.374Z,31147,0.021490335,-0.0060809967,0.012250683
1734275455378,2024-12-15T15:10:55.378Z,31151,0.021490335,-0.0060809967,0.012250683
1734275455390,2024-12-15T15:10:55.390Z,31163,0.03692164,-0.0028385636,0.018160379
1734275455400,2024-12-15T15:10:55.400Z,31173,0.03692164,-0.0028385636,0.018160379
1734275455414,2024-12-15T15:10:55.414Z,31187,0.047694657,0.0014094111,0.012732692
1734275455418,2024-12-15T15:10:55.418Z,31191,0.047694657,0.0014094111,0.012732692
1734275455435,2024-12-15T15:10:55.435Z,31208,0.012743377,-0.0070967493,0.0018512318
1734275455438,2024-12-15T15:10:55.438Z,31211,0.012743377,-0.0070967493,0.0018512318
1734275455449,2024-12-15T15:10:55.449Z,31222,-0.0017314956,0.003420202,0.024072044
1734275455453,2024-12-15T15:10:55.453Z,31226,-0.0017314956,0.003420202,0.024072044
1734275455462,2024-12-15T15:10:55.462Z,31235,0.005843117,-0.015849141,0.032195777
1734275455466,2024-12-15T15:10:55.466Z,31239,0.005843117,-0.015849141,0.032195777
1734275455477,2024-12-15T15:10:55.477Z,31250,0.010762368,-0.0077877915,0.026340345
1734275455481,2024-12-15T15:10:55.481Z,31254,0.010762368,-0.0077877915,0.026340345
1734275455492,2024-12-15T15:10:55.492Z,31265,0.0062731463,0.0110572595,0.011746259
1734275455496,2024-12-15T15:10:55.496Z,31269,0.0062731463,0.0110572595,0.011746259
1734275455506,2024-12-15T15:10:55.506Z,31279,0.013647124,-0.0022126772,-0.012957578
1734275455509,2024-12-15T15:10:55.509Z,31282,0.013647124,-0.0022126772,-0.012957578
1734275455518,2024-12-15T15:10:55.518Z,31291,0.023344971,2.4214681E-4,3.0445828E-4
1734275455521,2024-12-15T15:10:55.521Z,31294,0.023344971,2.4214681E-4,3.0445828E-4
1734275455531,2024-12-15T15:10:55.531Z,31304,-0.0023488484,0.008081382,0.0031704458
1734275455535,2024-12-15T15:10:55.535Z,31308,-0.0023488484,0.008081382,0.0031704458
1734275455544,2024-12-15T15:10:55.544Z,31317,-0.061932474,-0.009439252,-0.006212792
1734275455547,2024-12-15T15:10:55.547Z,31320,-0.061932474,-0.009439252,-0.006212792
1734275455556,2024-12-15T15:10:55.556Z,31329,-0.073184654,-0.0030657342,-0.0030213164
1734275455559,2024-12-15T15:10:55.559Z,31332,-0.073184654,-0.0030657342,-0.0030213164
1734275455568,2024-12-15T15:10:55.568Z,31341,-0.06726199,0.01459095,0.0033741554
1734275455572,2024-12-15T15:10:55.572Z,31345,-0.06726199,0.01459095,0.0033741554
1734275455584,2024-12-15T15:10:55.584Z,31357,-0.04843838,0.03570265,0.0066614687
1734275455588,2024-12-15T15:10:55.588Z,31361,-0.04843838,0.03570265,0.0066614687
1734275455596,2024-12-15T15:10:55.596Z,31369,-0.025435371,0.034868944,-0.030254347
1734275455599,2024-12-15T15:10:55.599Z,31372,-0.025435371,0.034868944,-0.030254347
1734275455610,2024-12-15T15:10:55.610Z,31383,-0.05884853,0.021345582,-0.05524938
1734275455613,2024-12-15T15:10:55.613Z,31386,-0.05884853,0.021345582,-0.05524938
1734275455624,2024-12-15T15:10:55.624Z,31397,-0.093682915,0.047425084,-0.027275043
1734275455627,2024-12-15T15:10:55.627Z,31400,-0.093682915,0.047425084,-0.027275043
1734275455638,2024-12-15T15:10:55.638Z,31411,-0.09516906,0.053575907,-0.022759855
1734275455642,2024-12-15T15:10:55.642Z,31415,-0.09516906,0.053575907,-0.022759855
1734275455654,2024-12-15T15:10:55.654Z,31427,-0.07377016,0.052866094,-0.03703278
1734275455658,2024-12-15T15:10:55.658Z,31431,-0.07377016,0.052866094,-0.03703278
1734275455671,2024-12-15T15:10:55.671Z,31444,-0.13003337,0.06586364,-0.03848571
1734275455674,2024-12-15T15:10:55.674Z,31447,-0.13003337,0.06586364,-0.03848571
1734275455686,2024-12-15T15:10:55.686Z,31459,-0.13647395,0.08763225,-0.009710938
1734275455690,2024-12-15T15:10:55.690Z,31463,-0.13647395,0.08763225,-0.009710938
1734275455702,2024-12-15T15:10:55.702Z,31475,-0.065852575,0.0928103,-0.05037151
1734275455707,2024-12-15T15:10:55.707Z,31480,-0.065852575,0.0928103,-0.05037151
1734275455718,2024-12-15T15:10:55.718Z,31491,-0.06468066,0.06584439,-0.059608545
1734275455722,2024-12-15T15:10:55.722Z,31495,-0.06468066,0.06584439,-0.059608545
1734275455732,2024-12-15T15:10:55.732Z,31505,-0.038420893,0.071866155,-0.101386994
1734275455736,2024-12-15T15:10:55.736Z,31509,-0.038420893,0.071866155,-0.101386994
1734275455747,2024-12-15T15:10:55.747Z,31520,-0.015523263,0.0894044,-0.10785822
1734275455751,2024-12-15T15:10:55.751Z,31524,-0.015523263,0.0894044,-0.10785822
1734275455762,2024-12-15T15:10:55.762Z,31535,-0.074134074,0.12457607,-0.1271694
1734275455766,2024-12-15T15:10:55.766Z,31539,-0.074134074,0.12457607,-0.1271694
1734275455776,2024-12-15T15:10:55.776Z,31549,-0.071335256,0.14158893,-0.07757101
1734275455780,2024-12-15T15:10:55.780Z,31553,-0.071335256,0.14158893,-0.07757101
1734275455791,2024-12-15T15:10:55.791Z,31564,-0.037147705,0.13256545,-0.0049640583
1734275455794,2024-12-15T15:10:55.794Z,31567,-0.037147705,0.13256545,-0.0049640583
1734275455804,2024-12-15T15:10:55.804Z,31577,-0.046432987,0.11472964,-0.082239605
1734275455807,2024-12-15T15:10:55.807Z,31580,-0.046432987,0.11472964,-0.082239605
1734275455816,2024-12-15T15:10:55.816Z,31589,0.05643979,0.15926632,-0.047293983
1734275455819,2024-12-15T15:10:55.819Z,31592,0.05643979,0.15926632,-0.047293983
1734275455829,2024-12-15T15:10:55.829Z,31602,0.12977448,0.19469012,-0.1719624
1734275455832,2024-12-15T15:10:55.832Z,31605,0.12977448,0.19469012,-0.1719624
1734275455842,2024-12-15T15:10:55.842Z,31615,0.041783005,0.14771008,-0.13802968
1734275455845,2024-12-15T15:10:55.845Z,31618,0.041783005,0.14771008,-0.13802968
1734275455854,2024-12-15T15:10:55.854Z,31627,0.02510411,0.24940543,-0.073224664
1734275455857,2024-12-15T15:10:55.857Z,31630,0.02510411,0.24940543,-0.073224664
1734275455866,2024-12-15T15:10:55.866Z,31639,0.042038195,0.3347424,-0.16839622
1734275455869,2024-12-15T15:10:55.869Z,31642,0.042038195,0.3347424,-0.16839622
1734275455878,2024-12-15T15:10:55.878Z,31651,-0.032155104,0.21830274,-0.13204624
1734275455880,2024-12-15T15:10:55.880Z,31653,-0.032155104,0.21830274,-0.13204624
1734275455890,2024-12-15T15:10:55.890Z,31663,0.03770909,0.104672775,-0.06300413
1734275455894,2024-12-15T15:10:55.894Z,31667,0.03770909,0.104672775,-0.06300413
1734275455905,2024-12-15T15:10:55.905Z,31678,0.24991266,0.17710516,-0.07789472
1734275455909,2024-12-15T15:10:55.909Z,31682,0.24991266,0.17710516,-0.07789472
1734275455922,2024-12-15T15:10:55.922Z,31695,0.079140335,0.14434327,-0.042681634
1734275455924,2024-12-15T15:10:55.924Z,31697,0.079140335,0.14434327,-0.042681634
1734275455933,2024-12-15T15:10:55.933Z,31706,0.078385234,0.16033089,-0.0551405
1734275455936,2024-12-15T15:10:55.936Z,31709,0.078385234,0.16033089,-0.0551405
1734275455948,2024-12-15T15:10:55.948Z,31721,0.13068165,0.2240618,-0.120917514
1734275455952,2024-12-15T15:10:55.952Z,31725,0.13068165,0.2240618,-0.120917514
1734275455968,2024-12-15T15:10:55.968Z,31741,-0.0027647768,0.1130086,-0.13722807
1734275455971,2024-12-15T15:10:55.971Z,31744,-0.0027647768,0.1130086,-0.13722807
1734275455982,2024-12-15T15:10:55.982Z,31755,0.062648214,0.03812898,-0.021399384
1734275455986,2024-12-15T15:10:55.986Z,31759,0.062648214,0.03812898,-0.021399384
1734275455995,2024-12-15T15:10:55.995Z,31768,0.24530998,0.20417644,-0.028334325
1734275455998,2024-12-15T15:10:55.998Z,31771,0.24530998,0.20417644,-0.028334325
1734275456006,2024-12-15T15:10:56.006Z,31779,0.038352214,0.05572965,-0.004798105
1734275456009,2024-12-15T15:10:56.009Z,31782,0.038352214,0.05572965,-0.004798105
1734275456018,2024-12-15T15:10:56.018Z,31791,0.25122985,0.1688446,0.040614013
1734275456021,2024-12-15T15:10:56.021Z,31794,0.25122985,0.1688446,0.040614013
1734275456031,2024-12-15T15:10:56.031Z,31804,0.24300641,0.28271884,-0.035436563
1734275456035,2024-12-15T15:10:56.035Z,31808,0.24300641,0.28271884,-0.035436563
1734275456045,2024-12-15T15:10:56.045Z,31818,0.20445524,0.0022331965,-0.15592217
1734275456048,2024-12-15T15:10:56.048Z,31821,0.20445524,0.0022331965,-0.15592217
1734275456057,2024-12-15T15:10:56.057Z,31830,0.17620797,-0.016504882,-0.17542273
1734275456059,2024-12-15T15:10:56.059Z,31832,0.17620797,-0.016504882,-0.17542273
1734275456069,2024-12-15T15:10:56.069Z,31842,0.19933735,-0.05018595,-0.17989826
1734275456072,2024-12-15T15:10:56.072Z,31845,0.19933735,-0.05018595,-0.17989826
1734275456082,2024-12-15T15:10:56.082Z,31855,0.19023257,-0.1048591,-0.16247545
1734275456086,2024-12-15T15:10:56.086Z,31859,0.19023257,-0.1048591,-0.16247545
1734275456097,2024-12-15T15:10:56.097Z,31870,0.13267,-0.13830133,-0.044638988
1734275456101,2024-12-15T15:10:56.101Z,31874,0.13267,-0.13830133,-0.044638988
1734275456110,2024-12-15T15:10:56.110Z,31883,0.22103271,-0.051919,0.030944698
1734275456112,2024-12-15T15:10:56.112Z,31885,0.22103271,-0.051919,0.030944698
1734275456125,2024-12-15T15:10:56.125Z,31898,0.23022123,-0.031246468,4.079967E-4
1734275456127,2024-12-15T15:10:56.127Z,31900,0.23022123,-0.031246468,4.079967E-4
1734275456138,2024-12-15T15:10:56.138Z,31911,0.19489278,-0.057969265,-0.043974932
1734275456141,2024-12-15T15:10:56.141Z,31914,0.19489278,-0.057969265,-0.043974932
1734275456151,2024-12-15T15:10:56.151Z,31924,0.11023532,-0.09691678,-0.09432888
1734275456155,2024-12-15T15:10:56.155Z,31928,0.11023532,-0.09691678,-0.09432888
1734275456165,2024-12-15T15:10:56.165Z,31938,0.09847715,-0.14547081,-0.07619253
1734275456168,2024-12-15T15:10:56.168Z,31941,0.09847715,-0.14547081,-0.07619253
1734275456178,2024-12-15T15:10:56.178Z,31951,0.18347931,-0.10184218,-0.023248494
1734275456182,2024-12-15T15:10:56.182Z,31955,0.18347931,-0.10184218,-0.023248494
1734275456193,2024-12-15T15:10:56.193Z,31966,0.13789748,-0.056267235,0.0030763159
1734275456196,2024-12-15T15:10:56.196Z,31969,0.13789748,-0.056267235,0.0030763159
1734275456207,2024-12-15T15:10:56.207Z,31980,0.13314201,-0.10636945,0.0012937714
1734275456210,2024-12-15T15:10:56.210Z,31983,0.13314201,-0.10636945,0.0012937714
1734275456222,2024-12-15T15:10:56.222Z,31995,0.21176633,-0.1298503,-0.002652018
1734275456225,2024-12-15T15:10:56.225Z,31998,0.21176633,-0.1298503,-0.002652018
1734275456237,2024-12-15T15:10:56.237Z,32010,0.19517976,-0.1073076,-0.0012708817
1734275456240,2024-12-15T15:10:56.240Z,32013,0.19517976,-0.1073076,-0.0012708817
1734275456249,2024-12-15T15:10:56.249Z,32022,0.16370243,-0.10453536,-0.08078786
1734275456253,2024-12-15T15:10:56.253Z,32026,0.16370243,-0.10453536,-0.08078786
1734275456263,2024-12-15T15:10:56.263Z,32036,-0.0025606053,-0.2036479,-0.09445518
1734275456266,2024-12-15T15:10:56.266Z,32039,-0.0025606053,-0.2036479,-0.09445518
1734275456276,2024-12-15T15:10:56.276Z,32049,0.049960405,-0.16793232,-0.025673123
1734275456279,2024-12-15T15:10:56.279Z,32052,0.049960405,-0.16793232,-0.025673123
1734275456291,2024-12-15T15:10:56.291Z,32064,0.16179824,-0.13272427,-0.020761257
1734275456294,2024-12-15T15:10:56.294Z,32067,0.16179824,-0.13272427,-0.020761257
1734275456304,2024-12-15T15:10:56.304Z,32077,0.09499677,-0.21977322,-0.026611144
1734275456308,2024-12-15T15:10:56.308Z,32081,0.09499677,-0.21977322,-0.026611144
1734275456319,2024-12-15T15:10:56.319Z,32092,0.1300944,-0.20701258,-0.02592325
1734275456322,2024-12-15T15:10:56.322Z,32095,0.1300944,-0.20701258,-0.02592325
1734275456331,2024-12-15T15:10:56.331Z,32104,0.12663758,-0.18702321,0.0051373052
1734275456335,2024-12-15T15:10:56.335Z,32108,0.12663758,-0.18702321,0.0051373052
1734275456344,2024-12-15T15:10:56.344Z,32117,0.054478876,-0.20774037,-0.0020106938
1734275456347,2024-12-15T15:10:56.347Z,32120,0.054478876,-0.20774037,-0.0020106938
1734275456357,2024-12-15T15:10:56.357Z,32130,0.025672205,-0.20998086,-0.040520716
1734275456360,2024-12-15T15:10:56.360Z,32133,0.025672205,-0.20998086,-0.040520716
1734275456369,2024-12-15T15:10:56.369Z,32142,0.032319088,-0.22738208,0.02793443
1734275456372,2024-12-15T15:10:56.372Z,32145,0.032319088,-0.22738208,0.02793443
1734275456384,2024-12-15T15:10:56.384Z,32157,0.06995361,-0.20132163,0.02077605
1734275456387,2024-12-15T15:10:56.387Z,32160,0.06995361,-0.20132163,0.02077605
1734275456396,2024-12-15T15:10:56.396Z,32169,0.03845629,-0.21285123,-0.022441017
1734275456399,2024-12-15T15:10:56.399Z,32172,0.03845629,-0.21285123,-0.022441017
1734275456409,2024-12-15T15:10:56.409Z,32182,0.060945824,-0.20237406,0.011380681
1734275456412,2024-12-15T15:10:56.412Z,32185,0.060945824,-0.20237406,0.011380681
1734275456424,2024-12-15T15:10:56.424Z,32197,0.0890598,-0.17851287,0.013820468
1734275456427,2024-12-15T15:10:56.427Z,32200,0.0890598,-0.17851287,0.013820468
1734275456438,2024-12-15T15:10:56.438Z,32211,0.03871957,-0.20688683,0.018348906
1734275456441,2024-12-15T15:10:56.441Z,32214,0.03871957,-0.20688683,0.018348906
1734275456450,2024-12-15T15:10:56.450Z,32223,0.03569538,-0.20901267,0.08064945
1734275456453,2024-12-15T15:10:56.453Z,32226,0.03569538,-0.20901267,0.08064945
1734275456463,2024-12-15T15:10:56.463Z,32236,4.4741243E-4,-0.23092325,0.123540774
1734275456467,2024-12-15T15:10:56.467Z,32240,4.4741243E-4,-0.23092325,0.123540774
1734275456476,2024-12-15T15:10:56.476Z,32249,0.0045668255,-0.21240583,0.13396516
1734275456479,2024-12-15T15:10:56.479Z,32252,0.0045668255,-0.21240583,0.13396516
1734275456489,2024-12-15T15:10:56.489Z,32262,0.02130408,-0.15457544,0.0851323
1734275456492,2024-12-15T15:10:56.492Z,32265,0.02130408,-0.15457544,0.0851323
1734275456506,2024-12-15T15:10:56.506Z,32279,0.0036957413,-0.04227047,0.08195923
1734275456511,2024-12-15T15:10:56.511Z,32284,0.0036957413,-0.04227047,0.08195923
1734275456523,2024-12-15T15:10:56.523Z,32296,0.039245058,-0.028142516,0.07031056
1734275456527,2024-12-15T15:10:56.527Z,32300,0.039245058,-0.028142516,0.07031056
1734275456538,2024-12-15T15:10:56.538Z,32311,0.05710217,-0.01938322,0.07083453
1734275456542,2024-12-15T15:10:56.542Z,32315,0.05710217,-0.01938322,0.07083453
1734275456554,2024-12-15T15:10:56.554Z,32327,0.01607748,-0.012559251,0.054189052
1734275456556,2024-12-15T15:10:56.556Z,32329,0.01607748,-0.012559251,0.054189052
1734275456564,2024-12-15T15:10:56.564Z,32337,0.009360858,-0.006237468,0.042484343
1734275456567,2024-12-15T15:10:56.567Z,32340,0.009360858,-0.006237468,0.042484343
1734275456575,2024-12-15T15:10:56.575Z,32348,0.0500578,0.010736148,0.048371743
1734275456578,2024-12-15T15:10:56.578Z,32351,0.0500578,0.010736148,0.048371743
1734275456587,2024-12-15T15:10:56.587Z,32360,0.053389475,0.0135045955,0.055224206
1734275456590,2024-12-15T15:10:56.590Z,32363,0.053389475,0.0135045955,0.055224206
1734275456598,2024-12-15T15:10:56.598Z,32371,0.049538285,0.0020787672,0.05472506
1734275456601,2024-12-15T15:10:56.601Z,32374,0.049538285,0.0020787672,0.05472506
1734275456609,2024-12-15T15:10:56.609Z,32382,0.041727718,-0.004079833,0.066800915
1734275456611,2024-12-15T15:10:56.611Z,32384,0.041727718,-0.004079833,0.066800915
1734275456620,2024-12-15T15:10:56.620Z,32393,0.013389576,-0.011834756,0.054740615
1734275456623,2024-12-15T15:10:56.623Z,32396,0.013389576,-0.011834756,0.054740615
1734275456633,2024-12-15T15:10:56.633Z,32406,-0.008779378,-0.013875207,0.048679605
1734275456636,2024-12-15T15:10:56.636Z,32409,-0.008779378,-0.013875207,0.048679605
1734275456648,2024-12-15T15:10:56.648Z,32421,0.04795089,-0.023458969,0.015518474
1734275456651,2024-12-15T15:10:56.651Z,32424,0.04795089,-0.023458969,0.015518474
1734275456659,2024-12-15T15:10:56.659Z,32432,0.010617615,-0.03648637,-0.00991934
1734275456661,2024-12-15T15:10:56.661Z,32434,0.010617615,-0.03648637,-0.00991934
1734275456669,2024-12-15T15:10:56.669Z,32442,0.025350789,-0.03641207,-0.022424838
1734275456672,2024-12-15T15:10:56.672Z,32445,0.025350789,-0.03641207,-0.022424838
1734275456682,2024-12-15T15:10:56.682Z,32455,0.009721757,-0.028057035,-0.028019717
1734275456685,2024-12-15T15:10:56.685Z,32458,0.009721757,-0.028057035,-0.028019717
1734275456694,2024-12-15T15:10:56.694Z,32467,-0.0028081979,-0.024619328,-0.035105478
1734275456696,2024-12-15T15:10:56.696Z,32469,-0.0028081979,-0.024619328,-0.035105478
1734275456705,2024-12-15T15:10:56.705Z,32478,0.033519622,-0.025516829,-0.030221963
1734275456707,2024-12-15T15:10:56.707Z,32480,0.033519622,-0.025516829,-0.030221963
1734275456715,2024-12-15T15:10:56.715Z,32488,0.04893518,-0.011290265,-0.021906141
1734275456718,2024-12-15T15:10:56.718Z,32491,0.04893518,-0.011290265,-0.021906141
1734275456727,2024-12-15T15:10:56.727Z,32500,0.033485256,-4.8380738E-4,-0.02340417
1734275456730,2024-12-15T15:10:56.730Z,32503,0.033485256,-4.8380738E-4,-0.02340417
1734275456740,2024-12-15T15:10:56.740Z,32513,0.020589687,-0.0051686186,-0.018717
1734275456744,2024-12-15T15:10:56.744Z,32517,0.020589687,-0.0051686186,-0.018717
1734275456755,2024-12-15T15:10:56.755Z,32528,0.017757481,-1.7066974E-4,-0.0195359
1734275456758,2024-12-15T15:10:56.758Z,32531,0.017757481,-1.7066974E-4,-0.0195359
1734275456768,2024-12-15T15:10:56.768Z,32541,-0.015550955,-0.0055508995,-0.020174427
1734275456772,2024-12-15T15:10:56.772Z,32545,-0.015550955,-0.0055508995,-0.020174427
1734275456780,2024-12-15T15:10:56.780Z,32553,0.017001806,0.0012620809,-0.018442981
1734275456783,2024-12-15T15:10:56.783Z,32556,0.017001806,0.0012620809,-0.018442981
1734275456791,2024-12-15T15:10:56.791Z,32564,0.046576615,0.01631554,-0.021845823
1734275456794,2024-12-15T15:10:56.794Z,32567,0.046576615,0.01631554,-0.021845823
1734275456804,2024-12-15T15:10:56.804Z,32577,0.012138763,0.0065296977,-0.037004627
1734275456806,2024-12-15T15:10:56.806Z,32579,0.012138763,0.0065296977,-0.037004627
1734275456814,2024-12-15T15:10:56.814Z,32587,0.018642606,0.0045659747,-0.04434154
1734275456817,2024-12-15T15:10:56.817Z,32590,0.018642606,0.0045659747,-0.04434154
1734275456826,2024-12-15T15:10:56.826Z,32599,0.032935824,0.01528209,-0.03709158
1734275456829,2024-12-15T15:10:56.829Z,32602,0.032935824,0.01528209,-0.03709158
1734275456837,2024-12-15T15:10:56.837Z,32610,0.042689327,0.017668063,-0.028565107
1734275456840,2024-12-15T15:10:56.840Z,32613,0.042689327,0.017668063,-0.028565107
1734275456848,2024-12-15T15:10:56.848Z,32621,0.03914239,0.016612925,-0.033857424
1734275456850,2024-12-15T15:10:56.850Z,32623,0.03914239,0.016612925,-0.033857424
1734275456860,2024-12-15T15:10:56.860Z,32633,0.025351191,0.0116411345,-0.047477186
1734275456862,2024-12-15T15:10:56.862Z,32635,0.025351191,0.0116411345,-0.047477186
1734275456872,2024-12-15T15:10:56.872Z,32645,0.03485596,0.020390317,-0.051684365
1734275456874,2024-12-15T15:10:56.874Z,32647,0.03485596,0.020390317,-0.051684365
1734275456882,2024-12-15T15:10:56.882Z,32655,0.0338202,0.02236182,-0.055304192
1734275456884,2024-12-15T15:10:56.884Z,32657,0.0338202,0.02236182,-0.055304192
1734275456894,2024-12-15T15:10:56.894Z,32667,0.023384094,0.01507184,-0.0559774
1734275456898,2024-12-15T15:10:56.898Z,32671,0.023384094,0.01507184,-0.0559774
1734275456909,2024-12-15T15:10:56.909Z,32682,0.025762081,0.017507117,-0.043062747
1734275456912,2024-12-15T15:10:56.912Z,32685,0.025762081,0.017507117,-0.043062747
1734275456922,2024-12-15T15:10:56.922Z,32695,0.023380812,0.0042754957,-0.04049662
1734275456925,2024-12-15T15:10:56.925Z,32698,0.023380812,0.0042754957,-0.04049662
1734275456934,2024-12-15T15:10:56.934Z,32707,0.026468592,-0.014340245,-0.04036072
1734275456936,2024-12-15T15:10:56.936Z,32709,0.026468592,-0.014340245,-0.04036072
1734275456946,2024-12-15T15:10:56.946Z,32719,9.5971336E-4,-0.032179072,-0.044365745
1734275456950,2024-12-15T15:10:56.950Z,32723,9.5971336E-4,-0.032179072,-0.044365745
1734275456960,2024-12-15T15:10:56.960Z,32733,-0.0038636152,-0.03338096,-0.04739844
1734275456963,2024-12-15T15:10:56.963Z,32736,-0.0038636152,-0.03338096,-0.04739844
1734275456975,2024-12-15T15:10:56.975Z,32748,0.0018685419,-0.020897951,-0.03288294
1734275456977,2024-12-15T15:10:56.977Z,32750,0.0018685419,-0.020897951,-0.03288294
1734275456986,2024-12-15T15:10:56.986Z,32759,-0.011236573,-0.013814718,-0.044499777
1734275456989,2024-12-15T15:10:56.989Z,32762,-0.011236573,-0.013814718,-0.044499777
1734275456997,2024-12-15T15:10:56.997Z,32770,-0.019170891,-0.018480372,-0.052422073
1734275457001,2024-12-15T15:10:57.001Z,32774,-0.019170891,-0.018480372,-0.052422073
1734275457011,2024-12-15T15:10:57.011Z,32784,-0.011326064,-0.028413156,-0.04027587
1734275457014,2024-12-15T15:10:57.014Z,32787,-0.011326064,-0.028413156,-0.04027587
1734275457027,2024-12-15T15:10:57.027Z,32800,-0.014763929,-0.036465947,-0.03235569
1734275457030,2024-12-15T15:10:57.030Z,32803,-0.014763929,-0.036465947,-0.03235569
1734275457039,2024-12-15T15:10:57.039Z,32812,-0.023386605,-0.05288846,-0.032437716
1734275457041,2024-12-15T15:10:57.041Z,32814,-0.023386605,-0.05288846,-0.032437716
1734275457049,2024-12-15T15:10:57.049Z,32822,-0.035334263,-0.0699674,-0.016088394
1734275457052,2024-12-15T15:10:57.052Z,32825,-0.035334263,-0.0699674,-0.016088394
1734275457060,2024-12-15T15:10:57.060Z,32833,-0.052422546,-0.0909447,-0.012283481
1734275457063,2024-12-15T15:10:57.063Z,32836,-0.052422546,-0.0909447,-0.012283481
1734275457072,2024-12-15T15:10:57.072Z,32845,-0.035295464,-0.11141894,-0.0018215713
1734275457075,2024-12-15T15:10:57.075Z,32848,-0.035295464,-0.11141894,-0.0018215713
1734275457082,2024-12-15T15:10:57.082Z,32855,-0.037120607,-0.13090874,0.009911268
1734275457085,2024-12-15T15:10:57.085Z,32858,-0.037120607,-0.13090874,0.009911268
1734275457094,2024-12-15T15:10:57.094Z,32867,-0.047733966,-0.15375097,0.032395378
1734275457097,2024-12-15T15:10:57.097Z,32870,-0.047733966,-0.15375097,0.032395378
1734275457108,2024-12-15T15:10:57.108Z,32881,-0.042490333,-0.17848855,0.056430515
1734275457110,2024-12-15T15:10:57.110Z,32883,-0.042490333,-0.17848855,0.056430515
1734275457119,2024-12-15T15:10:57.119Z,32892,-0.038388062,-0.20661502,0.06925484
1734275457122,2024-12-15T15:10:57.122Z,32895,-0.038388062,-0.20661502,0.06925484
1734275457131,2024-12-15T15:10:57.131Z,32904,-0.053451877,-0.23668723,0.0898677
1734275457135,2024-12-15T15:10:57.135Z,32908,-0.053451877,-0.23668723,0.0898677
1734275457144,2024-12-15T15:10:57.144Z,32917,-0.06644079,-0.26287913,0.12268181
1734275457146,2024-12-15T15:10:57.146Z,32919,-0.06644079,-0.26287913,0.12268181
1734275457155,2024-12-15T15:10:57.155Z,32928,-0.06396945,-0.27400622,0.14667496
1734275457157,2024-12-15T15:10:57.157Z,32930,-0.06396945,-0.27400622,0.14667496
1734275457165,2024-12-15T15:10:57.165Z,32938,-0.06886839,-0.2876845,0.1642932
1734275457168,2024-12-15T15:10:57.168Z,32941,-0.06886839,-0.2876845,0.1642932
1734275457176,2024-12-15T15:10:57.176Z,32949,-0.0604511,-0.29276618,0.17932372
1734275457178,2024-12-15T15:10:57.178Z,32951,-0.0604511,-0.29276618,0.17932372
1734275457186,2024-12-15T15:10:57.186Z,32959,-0.06963799,-0.3010337,0.18375109
1734275457189,2024-12-15T15:10:57.189Z,32962,-0.06963799,-0.3010337,0.18375109
1734275457196,2024-12-15T15:10:57.196Z,32969,-0.059502374,-0.3090893,0.18878277
1734275457199,2024-12-15T15:10:57.199Z,32972,-0.059502374,-0.3090893,0.18878277
1734275457207,2024-12-15T15:10:57.207Z,32980,-0.046816375,-0.30864275,0.17930488
1734275457210,2024-12-15T15:10:57.210Z,32983,-0.046816375,-0.30864275,0.17930488
1734275457219,2024-12-15T15:10:57.219Z,32992,-0.05711672,-0.31779757,0.15130405
1734275457222,2024-12-15T15:10:57.222Z,32995,-0.05711672,-0.31779757,0.15130405
1734275457231,2024-12-15T15:10:57.231Z,33004,-0.09437761,-0.3199201,0.15585388
1734275457234,2024-12-15T15:10:57.234Z,33007,-0.09437761,-0.3199201,0.15585388
1734275457241,2024-12-15T15:10:57.241Z,33014,-0.05998622,-0.3125413,0.1342182
1734275457244,2024-12-15T15:10:57.244Z,33017,-0.05998622,-0.3125413,0.1342182
1734275457252,2024-12-15T15:10:57.252Z,33025,-0.0044370485,-0.3163262,0.12914623
1734275457254,2024-12-15T15:10:57.254Z,33027,-0.0044370485,-0.3163262,0.12914623
1734275457264,2024-12-15T15:10:57.264Z,33037,-0.0048169713,-0.31078726,0.12712787
1734275457267,2024-12-15T15:10:57.267Z,33040,-0.0048169713,-0.31078726,0.12712787
1734275457276,2024-12-15T15:10:57.276Z,33049,-0.018216271,-0.28705844,0.10067958
1734275457279,2024-12-15T15:10:57.279Z,33052,-0.018216271,-0.28705844,0.10067958
1734275457287,2024-12-15T15:10:57.287Z,33060,-0.02103738,-0.26568174,0.11731911
1734275457290,2024-12-15T15:10:57.290Z,33063,-0.02103738,-0.26568174,0.11731911
1734275457297,2024-12-15T15:10:57.297Z,33070,-0.016237233,-0.26080135,0.11913267
1734275457300,2024-12-15T15:10:57.300Z,33073,-0.016237233,-0.26080135,0.11913267
1734275457308,2024-12-15T15:10:57.308Z,33081,0.006580583,-0.2675901,0.10036826
1734275457311,2024-12-15T15:10:57.311Z,33084,0.006580583,-0.2675901,0.10036826
1734275457323,2024-12-15T15:10:57.323Z,33096,0.021200173,-0.25786796,0.09536952
1734275457326,2024-12-15T15:10:57.326Z,33099,0.021200173,-0.25786796,0.09536952
1734275457336,2024-12-15T15:10:57.336Z,33109,0.043774307,-0.24469304,0.09686896
1734275457338,2024-12-15T15:10:57.338Z,33111,0.043774307,-0.24469304,0.09686896
1734275457347,2024-12-15T15:10:57.347Z,33120,0.05519372,-0.22983739,0.07938569
1734275457349,2024-12-15T15:10:57.349Z,33122,0.05519372,-0.22983739,0.07938569
1734275457358,2024-12-15T15:10:57.358Z,33131,0.044868514,-0.21611467,0.038726203
1734275457360,2024-12-15T15:10:57.360Z,33133,0.044868514,-0.21611467,0.038726203
1734275457370,2024-12-15T15:10:57.370Z,33143,0.03626788,-0.20856708,0.020936303
1734275457374,2024-12-15T15:10:57.374Z,33147,0.03626788,-0.20856708,0.020936303
1734275457384,2024-12-15T15:10:57.384Z,33157,0.08331061,-0.18703915,0.03237966
1734275457387,2024-12-15T15:10:57.387Z,33160,0.08331061,-0.18703915,0.03237966
1734275457395,2024-12-15T15:10:57.395Z,33168,0.11451021,-0.15629467,0.017898083
1734275457397,2024-12-15T15:10:57.397Z,33170,0.11451021,-0.15629467,0.017898083
1734275457405,2024-12-15T15:10:57.405Z,33178,0.109048605,-0.16397822,1.3822547E-4
1734275457408,2024-12-15T15:10:57.408Z,33181,0.109048605,-0.16397822,1.3822547E-4
1734275457416,2024-12-15T15:10:57.416Z,33189,0.104331456,-0.17355731,-0.0051681935
1734275457419,2024-12-15T15:10:57.419Z,33192,0.104331456,-0.17355731,-0.0051681935
1734275457428,2024-12-15T15:10:57.428Z,33201,0.07990954,-0.16700195,-0.022812126
1734275457431,2024-12-15T15:10:57.431Z,33204,0.07990954,-0.16700195,-0.022812126
1734275457439,2024-12-15T15:10:57.439Z,33212,0.03753747,-0.16714023,-0.001270201
1734275457442,2024-12-15T15:10:57.442Z,33215,0.03753747,-0.16714023,-0.001270201
1734275457450,2024-12-15T15:10:57.450Z,33223,0.06571111,-0.14957787,0.010602681
1734275457453,2024-12-15T15:10:57.453Z,33226,0.06571111,-0.14957787,0.010602681
1734275457461,2024-12-15T15:10:57.461Z,33234,0.12211439,-0.12852257,0.01582807
1734275457464,2024-12-15T15:10:57.464Z,33237,0.12211439,-0.12852257,0.01582807
1734275457473,2024-12-15T15:10:57.473Z,33246,0.1126422,-0.1257233,0.019051582
1734275457476,2024-12-15T15:10:57.476Z,33249,0.1126422,-0.1257233,0.019051582
1734275457484,2024-12-15T15:10:57.484Z,33257,0.13291533,-0.11325819,0.029900318
1734275457487,2024-12-15T15:10:57.487Z,33260,0.13291533,-0.11325819,0.029900318
1734275457497,2024-12-15T15:10:57.497Z,33270,0.11687595,-0.087398954,0.0076310374
1734275457501,2024-12-15T15:10:57.501Z,33274,0.11687595,-0.087398954,0.0076310374
1734275457510,2024-12-15T15:10:57.510Z,33283,0.061418254,-0.09829128,-0.011118499
1734275457513,2024-12-15T15:10:57.513Z,33286,0.061418254,-0.09829128,-0.011118499
1734275457524,2024-12-15T15:10:57.524Z,33297,0.08537231,-0.114745006,-0.035791725
1734275457527,2024-12-15T15:10:57.527Z,33300,0.08537231,-0.114745006,-0.035791725
1734275457540,2024-12-15T15:10:57.540Z,33313,0.1380458,-0.10505924,-0.024482548
1734275457543,2024-12-15T15:10:57.543Z,33316,0.1380458,-0.10505924,-0.024482548
1734275457552,2024-12-15T15:10:57.552Z,33325,0.14880711,-0.08706335,-0.023952484
1734275457555,2024-12-15T15:10:57.555Z,33328,0.14880711,-0.08706335,-0.023952484
1734275457562,2024-12-15T15:10:57.562Z,33335,0.13130654,-0.070948236,-0.056215253
1734275457564,2024-12-15T15:10:57.564Z,33337,0.13130654,-0.070948236,-0.056215253
1734275457573,2024-12-15T15:10:57.573Z,33346,0.15324737,-0.078387104,-0.042513847
1734275457575,2024-12-15T15:10:57.575Z,33348,0.15324737,-0.078387104,-0.042513847
1734275457582,2024-12-15T15:10:57.582Z,33355,0.14034723,-0.08297282,-0.03394362
1734275457585,2024-12-15T15:10:57.585Z,33358,0.14034723,-0.08297282,-0.03394362
1734275457593,2024-12-15T15:10:57.593Z,33366,0.17452331,-0.030421613,-0.042828824
1734275457596,2024-12-15T15:10:57.596Z,33369,0.17452331,-0.030421613,-0.042828824
1734275457606,2024-12-15T15:10:57.606Z,33379,0.12695174,-0.026744677,-0.08056328
1734275457609,2024-12-15T15:10:57.609Z,33382,0.12695174,-0.026744677,-0.08056328
1734275457617,2024-12-15T15:10:57.617Z,33390,0.10272281,-0.047603924,-0.07061898
1734275457620,2024-12-15T15:10:57.620Z,33393,0.10272281,-0.047603924,-0.07061898
1734275457628,2024-12-15T15:10:57.628Z,33401,0.13383493,-0.009680815,-0.0456866
1734275457631,2024-12-15T15:10:57.631Z,33404,0.13383493,-0.009680815,-0.0456866
1734275457639,2024-12-15T15:10:57.639Z,33412,0.13097818,-0.005410279,-0.066168964
1734275457641,2024-12-15T15:10:57.641Z,33414,0.13097818,-0.005410279,-0.066168964
1734275457649,2024-12-15T15:10:57.649Z,33422,0.1582709,-0.034860484,-0.07910669
1734275457651,2024-12-15T15:10:57.651Z,33424,0.1582709,-0.034860484,-0.07910669
1734275457659,2024-12-15T15:10:57.659Z,33432,0.121582836,-0.04392543,-0.080953054
1734275457661,2024-12-15T15:10:57.661Z,33434,0.121582836,-0.04392543,-0.080953054
1734275457669,2024-12-15T15:10:57.669Z,33442,0.08502095,-0.03384308,-0.08407795
1734275457671,2024-12-15T15:10:57.671Z,33444,0.08502095,-0.03384308,-0.08407795
1734275457680,2024-12-15T15:10:57.680Z,33453,0.14505601,0.004467852,-0.083536446
1734275457683,2024-12-15T15:10:57.683Z,33456,0.14505601,0.004467852,-0.083536446
1734275457693,2024-12-15T15:10:57.693Z,33466,0.17305793,0.032700177,-0.029057264
1734275457696,2024-12-15T15:10:57.696Z,33469,0.17305793,0.032700177,-0.029057264
1734275457707,2024-12-15T15:10:57.707Z,33480,0.15403073,0.09453431,-0.027181508
1734275457709,2024-12-15T15:10:57.709Z,33482,0.15403073,0.09453431,-0.027181508
1734275457717,2024-12-15T15:10:57.717Z,33490,0.061814487,0.05578484,-0.1253318
1734275457720,2024-12-15T15:10:57.720Z,33493,0.061814487,0.05578484,-0.1253318
1734275457729,2024-12-15T15:10:57.729Z,33502,0.14349851,0.08065176,-0.03329125
1734275457732,2024-12-15T15:10:57.732Z,33505,0.14349851,0.08065176,-0.03329125
1734275457743,2024-12-15T15:10:57.743Z,33516,0.24358828,0.15514721,0.07412742
1734275457746,2024-12-15T15:10:57.746Z,33519,0.24358828,0.15514721,0.07412742
1734275457755,2024-12-15T15:10:57.755Z,33528,0.19596484,0.18313286,-0.028947532
1734275457757,2024-12-15T15:10:57.757Z,33530,0.19596484,0.18313286,-0.028947532
1734275457765,2024-12-15T15:10:57.765Z,33538,0.018735306,0.086153455,-0.024073958
1734275457768,2024-12-15T15:10:57.768Z,33541,0.018735306,0.086153455,-0.024073958
1734275457777,2024-12-15T15:10:57.777Z,33550,0.0441827,0.08643032,-1.9550133E-4
1734275457780,2024-12-15T15:10:57.780Z,33553,0.0441827,0.08643032,-1.9550133E-4
1734275457788,2024-12-15T15:10:57.788Z,33561,0.034496196,0.15248102,-0.06460321
1734275457791,2024-12-15T15:10:57.791Z,33564,0.034496196,0.15248102,-0.06460321
1734275457798,2024-12-15T15:10:57.798Z,33571,0.037635546,0.13978182,-0.029984357
1734275457801,2024-12-15T15:10:57.801Z,33574,0.037635546,0.13978182,-0.029984357
1734275457810,2024-12-15T15:10:57.810Z,33583,0.103506185,0.15201558,-0.056018945
1734275457813,2024-12-15T15:10:57.813Z,33586,0.103506185,0.15201558,-0.056018945
1734275457823,2024-12-15T15:10:57.823Z,33596,0.13371632,0.16511232,-0.0036934926
1734275457826,2024-12-15T15:10:57.826Z,33599,0.13371632,0.16511232,-0.0036934926
1734275457834,2024-12-15T15:10:57.834Z,33607,0.14341626,0.22575682,-0.038866993
1734275457837,2024-12-15T15:10:57.837Z,33610,0.14341626,0.22575682,-0.038866993
1734275457846,2024-12-15T15:10:57.846Z,33619,0.12654056,0.2364218,-0.037738293
1734275457848,2024-12-15T15:10:57.848Z,33621,0.12654056,0.2364218,-0.037738293
1734275457858,2024-12-15T15:10:57.858Z,33631,0.114410356,0.22858635,-0.012279341
1734275457860,2024-12-15T15:10:57.860Z,33633,0.114410356,0.22858635,-0.012279341
1734275457869,2024-12-15T15:10:57.869Z,33642,0.0749961,0.21857873,-0.03197687
1734275457871,2024-12-15T15:10:57.871Z,33644,0.0749961,0.21857873,-0.03197687
1734275457881,2024-12-15T15:10:57.881Z,33654,0.009392549,0.15460777,-0.024583943
1734275457884,2024-12-15T15:10:57.884Z,33657,0.009392549,0.15460777,-0.024583943
1734275457893,2024-12-15T15:10:57.893Z,33666,0.1413687,0.17892568,-0.002126455
1734275457895,2024-12-15T15:10:57.895Z,33668,0.1413687,0.17892568,-0.002126455
1734275457903,2024-12-15T15:10:57.903Z,33676,0.06895106,0.13745755,-0.053967107
1734275457906,2024-12-15T15:10:57.906Z,33679,0.06895106,0.13745755,-0.053967107
1734275457913,2024-12-15T15:10:57.913Z,33686,0.009583081,0.07062868,-0.019319152
1734275457915,2024-12-15T15:10:57.915Z,33688,0.009583081,0.07062868,-0.019319152
1734275457924,2024-12-15T15:10:57.924Z,33697,0.014859062,0.081879266,-0.016036743
1734275457927,2024-12-15T15:10:57.927Z,33700,0.014859062,0.081879266,-0.016036743
1734275457935,2024-12-15T15:10:57.935Z,33708,0.04148077,0.050667908,0.03506401
1734275457938,2024-12-15T15:10:57.938Z,33711,0.04148077,0.050667908,0.03506401
1734275457946,2024-12-15T15:10:57.946Z,33719,0.053860232,0.086140275,0.004725692
1734275457950,2024-12-15T15:10:57.950Z,33723,0.053860232,0.086140275,0.004725692
1734275457959,2024-12-15T15:10:57.959Z,33732,-0.048838362,0.03474097,0.04044687
1734275457961,2024-12-15T15:10:57.961Z,33734,-0.048838362,0.03474097,0.04044687
1734275457969,2024-12-15T15:10:57.969Z,33742,0.037440978,0.08125698,0.041192856
1734275457972,2024-12-15T15:10:57.972Z,33745,0.037440978,0.08125698,0.041192856
1734275457979,2024-12-15T15:10:57.979Z,33752,-0.07174999,0.030142415,0.036542434
1734275457982,2024-12-15T15:10:57.982Z,33755,-0.07174999,0.030142415,0.036542434
1734275457991,2024-12-15T15:10:57.991Z,33764,0.010977929,0.035483647,0.07681728
1734275457998,2024-12-15T15:10:57.998Z,33771,0.010977929,0.035483647,0.07681728
1734275458008,2024-12-15T15:10:58.008Z,33781,0.04442808,0.070090905,0.015038812
1734275458010,2024-12-15T15:10:58.010Z,33783,0.04442808,0.070090905,0.015038812
1734275458017,2024-12-15T15:10:58.017Z,33790,-0.020086175,0.054963436,0.071376234
1734275458020,2024-12-15T15:10:58.020Z,33793,-0.020086175,0.054963436,0.071376234
1734275458028,2024-12-15T15:10:58.028Z,33801,0.06601542,0.10716776,0.04302555
1734275458031,2024-12-15T15:10:58.031Z,33804,0.06601542,0.10716776,0.04302555
1734275458040,2024-12-15T15:10:58.040Z,33813,-0.02669569,0.07982306,-0.020281643
1734275458043,2024-12-15T15:10:58.043Z,33816,-0.02669569,0.07982306,-0.020281643
1734275458052,2024-12-15T15:10:58.052Z,33825,0.0035203185,0.07481588,0.06634029
1734275458055,2024-12-15T15:10:58.055Z,33828,0.0035203185,0.07481588,0.06634029
1734275458063,2024-12-15T15:10:58.063Z,33836,0.020200344,0.07370637,0.045372635
1734275458066,2024-12-15T15:10:58.066Z,33839,0.020200344,0.07370637,0.045372635
1734275458075,2024-12-15T15:10:58.075Z,33848,-0.019617392,0.043721795,0.057038084
1734275458077,2024-12-15T15:10:58.077Z,33850,-0.019617392,0.043721795,0.057038084
1734275458085,2024-12-15T15:10:58.085Z,33858,0.03734028,0.09716642,0.019199215
1734275458088,2024-12-15T15:10:58.088Z,33861,0.03734028,0.09716642,0.019199215
1734275458095,2024-12-15T15:10:58.095Z,33868,-0.013889867,0.07838448,-0.009545398
1734275458098,2024-12-15T15:10:58.098Z,33871,-0.013889867,0.07838448,-0.009545398
1734275458107,2024-12-15T15:10:58.107Z,33880,0.037812002,0.07711724,0.069602534
1734275458110,2024-12-15T15:10:58.110Z,33883,0.037812002,0.07711724,0.069602534
1734275458117,2024-12-15T15:10:58.117Z,33890,0.01581384,0.07253211,0.012866735
1734275458120,2024-12-15T15:10:58.120Z,33893,0.01581384,0.07253211,0.012866735
1734275458127,2024-12-15T15:10:58.127Z,33900,-0.056301516,0.048362553,0.03772989
1734275458129,2024-12-15T15:10:58.129Z,33902,-0.056301516,0.048362553,0.03772989
1734275458137,2024-12-15T15:10:58.137Z,33910,-0.037231117,0.056816686,0.03781413
1734275458139,2024-12-15T15:10:58.139Z,33912,-0.037231117,0.056816686,0.03781413
1734275458150,2024-12-15T15:10:58.150Z,33923,-0.024857756,0.04177723,0.028557679
1734275458152,2024-12-15T15:10:58.152Z,33925,-0.024857756,0.04177723,0.028557679
1734275458160,2024-12-15T15:10:58.160Z,33933,0.018191205,0.062379837,0.042638443
1734275458163,2024-12-15T15:10:58.163Z,33936,0.018191205,0.062379837,0.042638443
1734275458171,2024-12-15T15:10:58.171Z,33944,0.058392826,0.073795356,-0.023385426
1734275458175,2024-12-15T15:10:58.175Z,33948,0.058392826,0.073795356,-0.023385426
1734275458184,2024-12-15T15:10:58.184Z,33957,0.024088357,0.04471683,0.044212118
1734275458187,2024-12-15T15:10:58.187Z,33960,0.024088357,0.04471683,0.044212118
1734275458196,2024-12-15T15:10:58.196Z,33969,0.014179787,0.06492228,0.035986334
1734275458199,2024-12-15T15:10:58.199Z,33972,0.014179787,0.06492228,0.035986334
1734275458207,2024-12-15T15:10:58.207Z,33980,-0.034090698,0.037198905,0.025745943
1734275458210,2024-12-15T15:10:58.210Z,33983,-0.034090698,0.037198905,0.025745943
1734275458220,2024-12-15T15:10:58.220Z,33993,-0.03381726,0.03335334,0.023415608
1734275458223,2024-12-15T15:10:58.223Z,33996,-0.03381726,0.03335334,0.023415608
1734275458231,2024-12-15T15:10:58.231Z,34004,-0.022219425,0.033396225,0.04121013
1734275458234,2024-12-15T15:10:58.234Z,34007,-0.022219425,0.033396225,0.04121013
1734275458242,2024-12-15T15:10:58.242Z,34015,-0.022586657,0.040221557,0.022477617
1734275458245,2024-12-15T15:10:58.245Z,34018,-0.022586657,0.040221557,0.022477617
1734275458252,2024-12-15T15:10:58.252Z,34025,0.024590604,0.034302477,0.022314424
1734275458255,2024-12-15T15:10:58.255Z,34028,0.024590604,0.034302477,0.022314424
1734275458263,2024-12-15T15:10:58.263Z,34036,0.048640497,0.04159051,0.027959203
1734275458269,2024-12-15T15:10:58.269Z,34042,0.048640497,0.04159051,0.027959203
1734275458278,2024-12-15T15:10:58.278Z,34051,0.02174961,0.038615122,0.05731469
1734275458281,2024-12-15T15:10:58.281Z,34054,0.02174961,0.038615122,0.05731469
1734275458290,2024-12-15T15:10:58.290Z,34063,0.008143572,0.03998437,0.043116234
1734275458292,2024-12-15T15:10:58.292Z,34065,0.008143572,0.03998437,0.043116234
1734275458300,2024-12-15T15:10:58.300Z,34073,-0.020534195,0.040847737,0.023105327
1734275458302,2024-12-15T15:10:58.302Z,34075,-0.020534195,0.040847737,0.023105327
1734275458311,2024-12-15T15:10:58.311Z,34084,-0.016693179,0.036784142,0.0442838
1734275458313,2024-12-15T15:10:58.313Z,34086,-0.016693179,0.036784142,0.0442838
1734275458321,2024-12-15T15:10:58.321Z,34094,-0.021499598,0.029996155,0.046585523
1734275458324,2024-12-15T15:10:58.324Z,34097,-0.021499598,0.029996155,0.046585523
1734275458331,2024-12-15T15:10:58.331Z,34104,-0.014140134,0.042283986,0.022215791
1734275458333,2024-12-15T15:10:58.333Z,34106,-0.014140134,0.042283986,0.022215791
1734275458341,2024-12-15T15:10:58.341Z,34114,0.024386287,0.043984752,0.0210358
1734275458344,2024-12-15T15:10:58.344Z,34117,0.024386287,0.043984752,0.0210358
1734275458352,2024-12-15T15:10:58.352Z,34125,0.007954353,0.053057283,0.017907377
1734275458355,2024-12-15T15:10:58.355Z,34128,0.007954353,0.053057283,0.017907377
1734275458364,2024-12-15T15:10:58.364Z,34137,0.011818685,0.056338906,0.014979163
1734275458367,2024-12-15T15:10:58.367Z,34140,0.011818685,0.056338906,0.014979163
1734275458376,2024-12-15T15:10:58.376Z,34149,0.01351043,0.041068878,0.035813075
1734275458378,2024-12-15T15:10:58.378Z,34151,0.01351043,0.041068878,0.035813075
1734275458387,2024-12-15T15:10:58.387Z,34160,-0.010316038,0.044360127,0.030738799
1734275458389,2024-12-15T15:10:58.389Z,34162,-0.010316038,0.044360127,0.030738799
1734275458398,2024-12-15T15:10:58.398Z,34171,-0.028519144,0.030517597,0.016981214
1734275458400,2024-12-15T15:10:58.400Z,34173,-0.028519144,0.030517597,0.016981214
1734275458410,2024-12-15T15:10:58.410Z,34183,-0.03571646,0.026740495,0.023070477
1734275458413,2024-12-15T15:10:58.413Z,34186,-0.03571646,0.026740495,0.023070477
1734275458423,2024-12-15T15:10:58.423Z,34196,-0.013326328,0.039496478,0.037923377
1734275458426,2024-12-15T15:10:58.426Z,34199,-0.013326328,0.039496478,0.037923377
1734275458434,2024-12-15T15:10:58.434Z,34207,-0.004009426,0.022460915,0.029452832
1734275458437,2024-12-15T15:10:58.437Z,34210,-0.004009426,0.022460915,0.029452832
1734275458446,2024-12-15T15:10:58.446Z,34219,0.008713675,0.03860958,0.035067573
1734275458449,2024-12-15T15:10:58.449Z,34222,0.008713675,0.03860958,0.035067573
1734275458457,2024-12-15T15:10:58.457Z,34230,0.012141244,0.043136362,0.035833437
1734275458460,2024-12-15T15:10:58.460Z,34233,0.012141244,0.043136362,0.035833437
1734275458469,2024-12-15T15:10:58.469Z,34242,-0.0041872556,0.032965224,0.025388606
1734275458472,2024-12-15T15:10:58.472Z,34245,-0.0041872556,0.032965224,0.025388606
1734275458482,2024-12-15T15:10:58.482Z,34255,-0.03842684,0.03301657,0.03106199
1734275458486,2024-12-15T15:10:58.486Z,34259,-0.03842684,0.03301657,0.03106199
1734275458497,2024-12-15T15:10:58.497Z,34270,-0.030006353,0.03158528,0.05342951
1734275458500,2024-12-15T15:10:58.500Z,34273,-0.030006353,0.03158528,0.05342951
1734275458514,2024-12-15T15:10:58.514Z,34287,-0.017021656,0.027921667,0.036903612
1734275458518,2024-12-15T15:10:58.518Z,34291,-0.017021656,0.027921667,0.036903612
1734275458528,2024-12-15T15:10:58.528Z,34301,-0.0099349115,0.036006063,0.03223031
1734275458531,2024-12-15T15:10:58.531Z,34304,-0.0099349115,0.036006063,0.03223031
1734275458539,2024-12-15T15:10:58.539Z,34312,0.017949484,0.042690385,0.032605883
1734275458541,2024-12-15T15:10:58.541Z,34314,0.017949484,0.042690385,0.032605883
1734275458549,2024-12-15T15:10:58.549Z,34322,0.021321245,0.04995197,0.048979126
1734275458551,2024-12-15T15:10:58.551Z,34324,0.021321245,0.04995197,0.048979126
1734275458561,2024-12-15T15:10:58.561Z,34334,3.0651264E-4,0.039631654,0.018982036
1734275458563,2024-12-15T15:10:58.563Z,34336,3.0651264E-4,0.039631654,0.018982036
1734275458571,2024-12-15T15:10:58.571Z,34344,-0.011467256,0.036157187,0.044677556
1734275458575,2024-12-15T15:10:58.575Z,34348,-0.011467256,0.036157187,0.044677556
1734275458582,2024-12-15T15:10:58.582Z,34355,-0.020640342,0.019975264,0.06167297
1734275458584,2024-12-15T15:10:58.584Z,34357,-0.020640342,0.019975264,0.06167297
1734275458592,2024-12-15T15:10:58.592Z,34365,-0.040311,0.010605349,0.053374153
1734275458595,2024-12-15T15:10:58.595Z,34368,-0.040311,0.010605349,0.053374153
1734275458603,2024-12-15T15:10:58.603Z,34376,-0.019700248,0.02269713,0.05103306
1734275458606,2024-12-15T15:10:58.606Z,34379,-0.019700248,0.02269713,0.05103306
1734275458612,2024-12-15T15:10:58.612Z,34385,0.018135726,0.030888889,0.04200208
1734275458615,2024-12-15T15:10:58.615Z,34388,0.018135726,0.030888889,0.04200208
1734275458622,2024-12-15T15:10:58.622Z,34395,0.042764015,0.0503219,0.03446943
1734275458625,2024-12-15T15:10:58.625Z,34398,0.042764015,0.0503219,0.03446943
1734275458633,2024-12-15T15:10:58.633Z,34406,0.03106977,0.04782808,0.032864988
1734275458636,2024-12-15T15:10:58.636Z,34409,0.03106977,0.04782808,0.032864988
1734275458644,2024-12-15T15:10:58.644Z,34417,0.009003813,0.0336303,0.039537482
1734275458647,2024-12-15T15:10:58.647Z,34420,0.009003813,0.0336303,0.039537482
1734275458655,2024-12-15T15:10:58.655Z,34428,-0.019467534,0.020422507,0.06527501
1734275458657,2024-12-15T15:10:58.657Z,34430,-0.019467534,0.020422507,0.06527501
1734275458665,2024-12-15T15:10:58.665Z,34438,-0.025251377,0.01888609,0.08950757
1734275458667,2024-12-15T15:10:58.667Z,34440,-0.025251377,0.01888609,0.08950757
1734275458675,2024-12-15T15:10:58.675Z,34448,-0.012137548,0.012884739,0.07852979
1734275458678,2024-12-15T15:10:58.678Z,34451,-0.012137548,0.012884739,0.07852979
1734275458686,2024-12-15T15:10:58.686Z,34459,-0.038216226,0.009267902,0.050970446
1734275458690,2024-12-15T15:10:58.690Z,34463,-0.038216226,0.009267902,0.050970446
1734275458698,2024-12-15T15:10:58.698Z,34471,-0.06047738,0.015421737,0.037426196
1734275458700,2024-12-15T15:10:58.700Z,34473,-0.06047738,0.015421737,0.037426196
1734275458711,2024-12-15T15:10:58.711Z,34484,-0.06157525,0.013255933,0.04336397
1734275458713,2024-12-15T15:10:58.713Z,34486,-0.06157525,0.013255933,0.04336397
1734275458720,2024-12-15T15:10:58.720Z,34493,-0.057521477,0.014481935,0.02978447
1734275458723,2024-12-15T15:10:58.723Z,34496,-0.057521477,0.014481935,0.02978447
1734275458730,2024-12-15T15:10:58.730Z,34503,-0.0494146,0.037687864,0.03290335
1734275458732,2024-12-15T15:10:58.732Z,34505,-0.0494146,0.037687864,0.03290335
1734275458740,2024-12-15T15:10:58.740Z,34513,-0.030427873,0.05748857,-0.0048423647
1734275458742,2024-12-15T15:10:58.742Z,34515,-0.030427873,0.05748857,-0.0048423647
1734275458749,2024-12-15T15:10:58.749Z,34522,-0.066171356,0.055801224,-0.028467847
1734275458752,2024-12-15T15:10:58.752Z,34525,-0.066171356,0.055801224,-0.028467847
1734275458762,2024-12-15T15:10:58.762Z,34535,-0.03036921,0.08486818,-0.018103622
1734275458765,2024-12-15T15:10:58.765Z,34538,-0.03036921,0.08486818,-0.018103622
1734275458774,2024-12-15T15:10:58.774Z,34547,0.007889658,0.10029633,-0.04504084
1734275458776,2024-12-15T15:10:58.776Z,34549,0.007889658,0.10029633,-0.04504084
1734275458782,2024-12-15T15:10:58.782Z,34555,-0.037691657,0.10788526,-0.009339695
1734275458785,2024-12-15T15:10:58.785Z,34558,-0.037691657,0.10788526,-0.009339695
1734275458792,2024-12-15T15:10:58.792Z,34565,-0.07715075,0.08265521,0.08629999
1734275458794,2024-12-15T15:10:58.794Z,34567,-0.07715075,0.08265521,0.08629999
1734275458803,2024-12-15T15:10:58.803Z,34576,0.013328674,0.07495435,0.05152935
1734275458806,2024-12-15T15:10:58.806Z,34579,0.013328674,0.07495435,0.05152935
1734275458815,2024-12-15T15:10:58.815Z,34588,0.011638314,0.08050282,0.010498997
1734275458819,2024-12-15T15:10:58.819Z,34592,0.011638314,0.08050282,0.010498997
1734275458828,2024-12-15T15:10:58.828Z,34601,-0.03291281,0.13532983,-0.001656007
1734275458830,2024-12-15T15:10:58.830Z,34603,-0.03291281,0.13532983,-0.001656007
1734275458837,2024-12-15T15:10:58.837Z,34610,-0.010457533,0.1577624,-0.013752492
1734275458839,2024-12-15T15:10:58.839Z,34612,-0.010457533,0.1577624,-0.013752492
1734275458849,2024-12-15T15:10:58.849Z,34622,0.016319359,0.17616147,-0.0071081757
1734275458852,2024-12-15T15:10:58.852Z,34625,0.016319359,0.17616147,-0.0071081757
1734275458860,2024-12-15T15:10:58.860Z,34633,0.019844977,0.18710466,-0.029266043
1734275458862,2024-12-15T15:10:58.862Z,34635,0.019844977,0.18710466,-0.029266043
1734275458870,2024-12-15T15:10:58.870Z,34643,0.024257543,0.13545264,-0.014357397
1734275458872,2024-12-15T15:10:58.872Z,34645,0.024257543,0.13545264,-0.014357397
1734275458880,2024-12-15T15:10:58.880Z,34653,0.17757568,0.16931094,-0.010081658
1734275458882,2024-12-15T15:10:58.882Z,34655,0.17757568,0.16931094,-0.010081658
1734275458891,2024-12-15T15:10:58.891Z,34664,0.1600146,0.20137152,-0.066431455
1734275458893,2024-12-15T15:10:58.893Z,34666,0.1600146,0.20137152,-0.066431455
1734275458901,2024-12-15T15:10:58.901Z,34674,0.053164512,0.22896333,-0.050954126
1734275458904,2024-12-15T15:10:58.904Z,34677,0.053164512,0.22896333,-0.050954126
1734275458912,2024-12-15T15:10:58.912Z,34685,0.017327549,0.23343478,-0.063717976
1734275458914,2024-12-15T15:10:58.914Z,34687,0.017327549,0.23343478,-0.063717976
1734275458921,2024-12-15T15:10:58.921Z,34694,0.096421294,0.20926026,-0.0710351
1734275458924,2024-12-15T15:10:58.924Z,34697,0.096421294,0.20926026,-0.0710351
1734275458933,2024-12-15T15:10:58.933Z,34706,0.08236379,0.16188638,-0.08740625
1734275458936,2024-12-15T15:10:58.936Z,34709,0.08236379,0.16188638,-0.08740625
1734275458949,2024-12-15T15:10:58.949Z,34722,0.1053335,0.13002244,-0.025299545
1734275458952,2024-12-15T15:10:58.952Z,34725,0.1053335,0.13002244,-0.025299545
1734275458961,2024-12-15T15:10:58.961Z,34734,0.21359058,0.1874072,-0.050412472
1734275458964,2024-12-15T15:10:58.964Z,34737,0.21359058,0.1874072,-0.050412472
1734275458973,2024-12-15T15:10:58.973Z,34746,0.1707312,0.18479726,-0.04911923
1734275458975,2024-12-15T15:10:58.975Z,34748,0.1707312,0.18479726,-0.04911923
1734275458983,2024-12-15T15:10:58.983Z,34756,0.12249621,0.1835132,-0.02430686
1734275458986,2024-12-15T15:10:58.986Z,34759,0.12249621,0.1835132,-0.02430686
1734275458994,2024-12-15T15:10:58.994Z,34767,0.098873645,0.1854671,-0.08222872
1734275458996,2024-12-15T15:10:58.996Z,34769,0.098873645,0.1854671,-0.08222872
1734275459003,2024-12-15T15:10:59.003Z,34776,0.06279613,0.14573635,-0.06843197
1734275459006,2024-12-15T15:10:59.006Z,34779,0.06279613,0.14573635,-0.06843197
1734275459014,2024-12-15T15:10:59.014Z,34787,0.09981962,0.08105198,-0.053694513
1734275459016,2024-12-15T15:10:59.016Z,34789,0.09981962,0.08105198,-0.053694513
1734275459023,2024-12-15T15:10:59.023Z,34796,0.21805228,0.13696538,-0.08325967
1734275459026,2024-12-15T15:10:59.026Z,34799,0.21805228,0.13696538,-0.08325967
1734275459034,2024-12-15T15:10:59.034Z,34807,0.112154886,0.10130557,-0.09926569
1734275459037,2024-12-15T15:10:59.037Z,34810,0.112154886,0.10130557,-0.09926569
1734275459050,2024-12-15T15:10:59.050Z,34823,0.117159694,0.052519504,-0.018546045
1734275459053,2024-12-15T15:10:59.053Z,34826,0.117159694,0.052519504,-0.018546045
1734275459064,2024-12-15T15:10:59.064Z,34837,0.21933244,0.17958114,-0.042623393
1734275459066,2024-12-15T15:10:59.066Z,34839,0.21933244,0.17958114,-0.042623393
1734275459076,2024-12-15T15:10:59.076Z,34849,0.08068084,0.1407812,-0.043647494
1734275459078,2024-12-15T15:10:59.078Z,34851,0.08068084,0.1407812,-0.043647494
1734275459086,2024-12-15T15:10:59.086Z,34859,0.07758999,0.098225735,-0.054788712
1734275459089,2024-12-15T15:10:59.089Z,34862,0.07758999,0.098225735,-0.054788712
1734275459097,2024-12-15T15:10:59.097Z,34870,0.07470871,0.07037992,-0.098703474
1734275459099,2024-12-15T15:10:59.099Z,34872,0.07470871,0.07037992,-0.098703474
1734275459124,2024-12-15T15:10:59.124Z,34897,0.15335359,0.068274215,-0.002155453
1734275459128,2024-12-15T15:10:59.128Z,34901,0.15335359,0.068274215,-0.002155453
1734275459139,2024-12-15T15:10:59.139Z,34912,0.24415578,0.15910071,-0.011549588
1734275459143,2024-12-15T15:10:59.143Z,34916,0.24415578,0.15910071,-0.011549588
1734275459154,2024-12-15T15:10:59.154Z,34927,0.10639177,0.12216428,0.003444046
1734275459156,2024-12-15T15:10:59.156Z,34929,0.10639177,0.12216428,0.003444046
1734275459164,2024-12-15T15:10:59.164Z,34937,0.18336397,0.1861117,0.03334826
1734275459166,2024-12-15T15:10:59.166Z,34939,0.18336397,0.1861117,0.03334826
1734275459173,2024-12-15T15:10:59.173Z,34946,0.15437885,0.18996145,-0.01664883
1734275459176,2024-12-15T15:10:59.176Z,34949,0.15437885,0.18996145,-0.01664883
1734275459185,2024-12-15T15:10:59.185Z,34958,0.0605686,0.09072512,0.0067410474
1734275459188,2024-12-15T15:10:59.188Z,34961,0.0605686,0.09072512,0.0067410474
1734275459196,2024-12-15T15:10:59.196Z,34969,0.18251985,0.15536183,-0.012567256
1734275459199,2024-12-15T15:10:59.199Z,34972,0.18251985,0.15536183,-0.012567256
1734275459206,2024-12-15T15:10:59.206Z,34979,0.12666313,0.15332332,-0.031923525
1734275459208,2024-12-15T15:10:59.208Z,34981,0.12666313,0.15332332,-0.031923525
1734275459216,2024-12-15T15:10:59.216Z,34989,0.14269894,0.13433921,-0.031298485
1734275459218,2024-12-15T15:10:59.218Z,34991,0.14269894,0.13433921,-0.031298485
1734275459226,2024-12-15T15:10:59.226Z,34999,0.18188938,0.1271635,0.009993673
1734275459228,2024-12-15T15:10:59.228Z,35001,0.18188938,0.1271635,0.009993673
1734275459235,2024-12-15T15:10:59.235Z,35008,0.17079847,0.1830238,0.010082601
1734275459237,2024-12-15T15:10:59.237Z,35010,0.17079847,0.1830238,0.010082601
1734275459245,2024-12-15T15:10:59.245Z,35018,0.10099788,0.1313961,-0.054247107
1734275459248,2024-12-15T15:10:59.248Z,35021,0.10099788,0.1313961,-0.054247107
1734275459257,2024-12-15T15:10:59.257Z,35030,-0.014555454,-0.010625966,-0.046855446
1734275459260,2024-12-15T15:10:59.260Z,35033,-0.014555454,-0.010625966,-0.046855446
1734275459270,2024-12-15T15:10:59.270Z,35043,0.22109069,0.06136253,0.026362268
1734275459273,2024-12-15T15:10:59.273Z,35046,0.22109069,0.06136253,0.026362268
1734275459280,2024-12-15T15:10:59.280Z,35053,0.24376367,0.099868394,-0.014901756
1734275459282,2024-12-15T15:10:59.282Z,35055,0.24376367,0.099868394,-0.014901756
1734275459289,2024-12-15T15:10:59.289Z,35062,0.104891315,-0.015287438,0.0062461537
1734275459291,2024-12-15T15:10:59.291Z,35064,0.104891315,-0.015287438,0.0062461537
1734275459298,2024-12-15T15:10:59.298Z,35071,0.10770439,0.037182566,0.010955721
1734275459300,2024-12-15T15:10:59.300Z,35073,0.10770439,0.037182566,0.010955721
1734275459309,2024-12-15T15:10:59.309Z,35082,0.10380481,0.09391372,-0.0412454
1734275459312,2024-12-15T15:10:59.312Z,35085,0.10380481,0.09391372,-0.0412454
1734275459319,2024-12-15T15:10:59.319Z,35092,0.014820892,-0.007533683,-0.06233238
1734275459321,2024-12-15T15:10:59.321Z,35094,0.014820892,-0.007533683,-0.06233238
1734275459330,2024-12-15T15:10:59.330Z,35103,0.11668974,-0.037192486,-0.047222294
1734275459334,2024-12-15T15:10:59.334Z,35107,0.11668974,-0.037192486,-0.047222294
1734275459343,2024-12-15T15:10:59.343Z,35116,0.19106643,-0.0028411893,-0.02142173
1734275459345,2024-12-15T15:10:59.345Z,35118,0.19106643,-0.0028411893,-0.02142173
1734275459352,2024-12-15T15:10:59.352Z,35125,0.14446862,-0.022756452,-0.010621426
1734275459354,2024-12-15T15:10:59.354Z,35127,0.14446862,-0.022756452,-0.010621426
1734275459361,2024-12-15T15:10:59.361Z,35134,0.18180937,0.013967884,-0.03213477
1734275459363,2024-12-15T15:10:59.363Z,35136,0.18180937,0.013967884,-0.03213477
1734275459370,2024-12-15T15:10:59.370Z,35143,0.16735682,0.037473533,-0.027187113
1734275459373,2024-12-15T15:10:59.373Z,35146,0.16735682,0.037473533,-0.027187113
1734275459380,2024-12-15T15:10:59.380Z,35153,0.12990583,0.028257268,-0.028378062
1734275459382,2024-12-15T15:10:59.382Z,35155,0.12990583,0.028257268,-0.028378062
1734275459389,2024-12-15T15:10:59.389Z,35162,0.113226414,-0.0035170608,-0.020857094
1734275459391,2024-12-15T15:10:59.391Z,35164,0.113226414,-0.0035170608,-0.020857094
1734275459398,2024-12-15T15:10:59.398Z,35171,0.088469796,-0.03314319,-0.017527284
1734275459400,2024-12-15T15:10:59.400Z,35173,0.088469796,-0.03314319,-0.017527284
1734275459408,2024-12-15T15:10:59.408Z,35181,0.14400588,-0.037213102,0.018335693
1734275459410,2024-12-15T15:10:59.410Z,35183,0.14400588,-0.037213102,0.018335693
1734275459420,2024-12-15T15:10:59.420Z,35193,0.14895739,-0.028462267,3.0783156E-4
1734275459424,2024-12-15T15:10:59.424Z,35197,0.14895739,-0.028462267,3.0783156E-4
1734275459434,2024-12-15T15:10:59.434Z,35207,0.1815999,-0.009644347,0.03341248
1734275459439,2024-12-15T15:10:59.439Z,35212,0.1815999,-0.009644347,0.03341248
1734275459452,2024-12-15T15:10:59.452Z,35225,0.2078359,-0.00959903,0.08652785
1734275459456,2024-12-15T15:10:59.456Z,35229,0.2078359,-0.00959903,0.08652785
1734275459465,2024-12-15T15:10:59.465Z,35238,0.1406499,-0.043117207,0.03808585
1734275459468,2024-12-15T15:10:59.468Z,35241,0.1406499,-0.043117207,0.03808585
1734275459476,2024-12-15T15:10:59.476Z,35249,0.13304368,-0.048972197,0.014354881
1734275459478,2024-12-15T15:10:59.478Z,35251,0.13304368,-0.048972197,0.014354881
1734275459487,2024-12-15T15:10:59.487Z,35260,0.09840202,-0.10496238,0.029317098
1734275459489,2024-12-15T15:10:59.489Z,35262,0.09840202,-0.10496238,0.029317098
1734275459497,2024-12-15T15:10:59.497Z,35270,0.09389831,-0.14405693,0.009469095
1734275459500,2024-12-15T15:10:59.500Z,35273,0.09389831,-0.14405693,0.009469095
1734275459509,2024-12-15T15:10:59.509Z,35282,0.10222011,-0.1417399,-0.002740708
1734275459512,2024-12-15T15:10:59.512Z,35285,0.10222011,-0.1417399,-0.002740708
1734275459520,2024-12-15T15:10:59.520Z,35293,0.12879731,-0.14365122,0.05458321
1734275459525,2024-12-15T15:10:59.525Z,35298,0.12879731,-0.14365122,0.05458321
1734275459532,2024-12-15T15:10:59.532Z,35305,0.20244224,-0.13955776,0.08950516
1734275459535,2024-12-15T15:10:59.535Z,35308,0.20244224,-0.13955776,0.08950516
1734275459543,2024-12-15T15:10:59.543Z,35316,0.0588779,-0.20583947,0.064232856
1734275459546,2024-12-15T15:10:59.546Z,35319,0.0588779,-0.20583947,0.064232856
1734275459552,2024-12-15T15:10:59.552Z,35325,-0.010727881,-0.22148459,0.06512582
1734275459555,2024-12-15T15:10:59.555Z,35328,-0.010727881,-0.22148459,0.06512582
1734275459562,2024-12-15T15:10:59.562Z,35335,0.13161248,-0.16614889,0.07539012
1734275459564,2024-12-15T15:10:59.564Z,35337,0.13161248,-0.16614889,0.07539012
1734275459572,2024-12-15T15:10:59.572Z,35345,0.049254533,-0.20384872,0.0393897
1734275459574,2024-12-15T15:10:59.574Z,35347,0.049254533,-0.20384872,0.0393897
1734275459582,2024-12-15T15:10:59.582Z,35355,0.022940444,-0.22933277,0.07752349
1734275459585,2024-12-15T15:10:59.585Z,35358,0.022940444,-0.22933277,0.07752349
1734275459593,2024-12-15T15:10:59.593Z,35366,0.112298355,-0.1945035,0.055049025
1734275459595,2024-12-15T15:10:59.595Z,35368,0.112298355,-0.1945035,0.055049025
1734275459603,2024-12-15T15:10:59.603Z,35376,0.013438467,-0.24848445,0.07771512
1734275459605,2024-12-15T15:10:59.605Z,35378,0.013438467,-0.24848445,0.07771512
1734275459616,2024-12-15T15:10:59.616Z,35389,0.01799795,-0.22076117,0.083096325
1734275459619,2024-12-15T15:10:59.619Z,35392,0.01799795,-0.22076117,0.083096325
1734275459627,2024-12-15T15:10:59.627Z,35400,0.12168137,-0.1560219,0.052851178
1734275459629,2024-12-15T15:10:59.629Z,35402,0.12168137,-0.1560219,0.052851178
1734275459636,2024-12-15T15:10:59.636Z,35409,0.11201699,-0.18923753,0.07462255
1734275459638,2024-12-15T15:10:59.638Z,35411,0.11201699,-0.18923753,0.07462255
1734275459646,2024-12-15T15:10:59.646Z,35419,0.057060946,-0.19669828,0.051591396
1734275459648,2024-12-15T15:10:59.648Z,35421,0.057060946,-0.19669828,0.051591396
1734275459655,2024-12-15T15:10:59.655Z,35428,0.0956457,-0.15735556,0.06437119
1734275459658,2024-12-15T15:10:59.658Z,35431,0.0956457,-0.15735556,0.06437119
1734275459666,2024-12-15T15:10:59.666Z,35439,0.08874141,-0.1806248,0.096398205
1734275459668,2024-12-15T15:10:59.668Z,35441,0.08874141,-0.1806248,0.096398205
1734275459675,2024-12-15T15:10:59.675Z,35448,-0.012337015,-0.23108138,0.08109059
1734275459678,2024-12-15T15:10:59.678Z,35451,-0.012337015,-0.23108138,0.08109059
1734275459686,2024-12-15T15:10:59.686Z,35459,0.043191917,-0.20998943,0.086013414
1734275459689,2024-12-15T15:10:59.689Z,35462,0.043191917,-0.20998943,0.086013414
1734275459698,2024-12-15T15:10:59.698Z,35471,0.06800992,-0.17338888,0.08955538
1734275459700,2024-12-15T15:10:59.700Z,35473,0.06800992,-0.17338888,0.08955538
1734275459710,2024-12-15T15:10:59.710Z,35483,0.0624801,-0.16035506,0.090402156
1734275459712,2024-12-15T15:10:59.712Z,35485,0.0624801,-0.16035506,0.090402156
1734275459719,2024-12-15T15:10:59.719Z,35492,0.07028452,-0.15941186,0.09336909
1734275459721,2024-12-15T15:10:59.721Z,35494,0.07028452,-0.15941186,0.09336909
1734275459729,2024-12-15T15:10:59.729Z,35502,0.03013872,-0.15814452,0.087304816
1734275459731,2024-12-15T15:10:59.731Z,35504,0.03013872,-0.15814452,0.087304816
1734275459740,2024-12-15T15:10:59.740Z,35513,0.010868502,-0.15069544,0.065739945
1734275459743,2024-12-15T15:10:59.743Z,35516,0.010868502,-0.15069544,0.065739945
1734275459751,2024-12-15T15:10:59.751Z,35524,0.018434908,-0.15469982,0.06417145
1734275459753,2024-12-15T15:10:59.753Z,35526,0.018434908,-0.15469982,0.06417145
1734275459760,2024-12-15T15:10:59.760Z,35533,-0.030604998,-0.17539403,0.058938313
1734275459763,2024-12-15T15:10:59.763Z,35536,-0.030604998,-0.17539403,0.058938313
1734275459770,2024-12-15T15:10:59.770Z,35543,0.0071542226,-0.16049063,0.034338776
1734275459772,2024-12-15T15:10:59.772Z,35545,0.0071542226,-0.16049063,0.034338776
1734275459781,2024-12-15T15:10:59.781Z,35554,0.038239114,-0.1481637,0.069583476
1734275459783,2024-12-15T15:10:59.783Z,35556,0.038239114,-0.1481637,0.069583476
1734275459791,2024-12-15T15:10:59.791Z,35564,-2.3777066E-4,-0.12508108,0.041660897
1734275459794,2024-12-15T15:10:59.794Z,35567,-2.3777066E-4,-0.12508108,0.041660897
1734275459804,2024-12-15T15:10:59.804Z,35577,0.002145163,-0.11758669,0.025566412
1734275459806,2024-12-15T15:10:59.806Z,35579,0.002145163,-0.11758669,0.025566412
1734275459814,2024-12-15T15:10:59.814Z,35587,0.03452036,-0.10385414,0.034880213
1734275459817,2024-12-15T15:10:59.817Z,35590,0.03452036,-0.10385414,0.034880213
1734275459824,2024-12-15T15:10:59.824Z,35597,0.0042014173,-0.09207034,0.0103731705
1734275459826,2024-12-15T15:10:59.826Z,35599,0.0042014173,-0.09207034,0.0103731705
1734275459835,2024-12-15T15:10:59.835Z,35608,-0.040188543,-0.11437605,0.025878625
1734275459837,2024-12-15T15:10:59.837Z,35610,-0.040188543,-0.11437605,0.025878625
1734275459845,2024-12-15T15:10:59.845Z,35618,-0.028346226,-0.1045586,0.04611247
1734275459848,2024-12-15T15:10:59.848Z,35621,-0.028346226,-0.1045586,0.04611247
1734275459858,2024-12-15T15:10:59.858Z,35631,0.007067016,-0.07338021,0.006120273
1734275459860,2024-12-15T15:10:59.860Z,35633,0.007067016,-0.07338021,0.006120273
1734275459866,2024-12-15T15:10:59.866Z,35639,0.0074242796,-0.08262389,0.012635286
1734275459868,2024-12-15T15:10:59.868Z,35641,0.0074242796,-0.08262389,0.012635286
1734275459877,2024-12-15T15:10:59.877Z,35650,-0.014735047,-0.087820426,0.02313996
1734275459879,2024-12-15T15:10:59.879Z,35652,-0.014735047,-0.087820426,0.02313996
1734275459893,2024-12-15T15:10:59.893Z,35666,-0.031267572,-0.074894354,0.014782784
1734275459896,2024-12-15T15:10:59.896Z,35669,-0.031267572,-0.074894354,0.014782784
1734275459903,2024-12-15T15:10:59.903Z,35676,0.0018912979,-0.061081678,0.007274129
1734275459906,2024-12-15T15:10:59.906Z,35679,0.0018912979,-0.061081678,0.007274129
1734275459914,2024-12-15T15:10:59.914Z,35687,0.052891888,-0.055167366,0.0028776815
1734275459917,2024-12-15T15:10:59.917Z,35690,0.052891888,-0.055167366,0.0028776815
1734275459927,2024-12-15T15:10:59.927Z,35700,0.061853632,-0.059534855,0.03755658
1734275459930,2024-12-15T15:10:59.930Z,35703,0.061853632,-0.059534855,0.03755658
1734275459936,2024-12-15T15:10:59.936Z,35709,0.033502374,-0.0385487,0.034907017
1734275459939,2024-12-15T15:10:59.939Z,35712,0.033502374,-0.0385487,0.034907017
1734275459946,2024-12-15T15:10:59.946Z,35719,-0.0139480205,-0.041517675,0.01860147
1734275459948,2024-12-15T15:10:59.948Z,35721,-0.0139480205,-0.041517675,0.01860147
1734275459955,2024-12-15T15:10:59.955Z,35728,-0.004451344,-0.05967645,0.011417829
1734275459957,2024-12-15T15:10:59.957Z,35730,-0.004451344,-0.05967645,0.011417829
1734275459964,2024-12-15T15:10:59.964Z,35737,0.03380581,-0.051085588,0.026429182
1734275459966,2024-12-15T15:10:59.966Z,35739,0.03380581,-0.051085588,0.026429182
1734275459974,2024-12-15T15:10:59.974Z,35747,0.035661027,-0.044904035,0.0048157554
1734275459976,2024-12-15T15:10:59.976Z,35749,0.035661027,-0.044904035,0.0048157554
1734275459987,2024-12-15T15:10:59.987Z,35760,0.058107346,-0.035088044,0.017973274
1734275459990,2024-12-15T15:10:59.990Z,35763,0.058107346,-0.035088044,0.017973274
1734275459998,2024-12-15T15:10:59.998Z,35771,0.03949131,-0.03684045,0.031142706
1734275460000,2024-12-15T15:11:00Z,35773,0.03949131,-0.03684045,0.031142706
1734275460007,2024-12-15T15:11:00.007Z,35780,0.06661394,-0.023603577,0.02840562
1734275460010,2024-12-15T15:11:00.010Z,35783,0.06661394,-0.023603577,0.02840562
1734275460020,2024-12-15T15:11:00.020Z,35793,0.030263197,-0.030186176,-6.736592E-4
1734275460023,2024-12-15T15:11:00.023Z,35796,0.030263197,-0.030186176,-6.736592E-4
1734275460030,2024-12-15T15:11:00.030Z,35803,0.03754722,-0.03724033,-0.0016516795
1734275460033,2024-12-15T15:11:00.033Z,35806,0.03754722,-0.03724033,-0.0016516795
1734275460040,2024-12-15T15:11:00.040Z,35813,0.05755955,-0.035472367,0.010772567
1734275460042,2024-12-15T15:11:00.042Z,35815,0.05755955,-0.035472367,0.010772567
1734275460053,2024-12-15T15:11:00.053Z,35826,0.06705645,-0.039925925,0.024199778
1734275460056,2024-12-15T15:11:00.056Z,35829,0.06705645,-0.039925925,0.024199778
1734275460063,2024-12-15T15:11:00.063Z,35836,0.07926708,-0.043622017,0.028447656
1734275460065,2024-12-15T15:11:00.065Z,35838,0.07926708,-0.043622017,0.028447656
1734275460072,2024-12-15T15:11:00.072Z,35845,0.038972665,-0.04889625,0.02269256
1734275460074,2024-12-15T15:11:00.074Z,35847,0.038972665,-0.04889625,0.02269256
1734275460082,2024-12-15T15:11:00.082Z,35855,0.016216677,-0.054653216,0.020393722
1734275460085,2024-12-15T15:11:00.085Z,35858,0.016216677,-0.054653216,0.020393722
1734275460092,2024-12-15T15:11:00.092Z,35865,0.05952367,-0.04521727,0.01764691
1734275460095,2024-12-15T15:11:00.095Z,35868,0.05952367,-0.04521727,0.01764691
1734275460102,2024-12-15T15:11:00.102Z,35875,0.07143989,-0.036267854,0.009011775
1734275460104,2024-12-15T15:11:00.104Z,35877,0.07143989,-0.036267854,0.009011775
1734275460111,2024-12-15T15:11:00.111Z,35884,0.06744454,-0.036585756,0.018850084
1734275460114,2024-12-15T15:11:00.114Z,35887,0.06744454,-0.036585756,0.018850084
1734275460122,2024-12-15T15:11:00.122Z,35895,0.062449813,-0.02385399,0.005858737
1734275460124,2024-12-15T15:11:00.124Z,35897,0.062449813,-0.02385399,0.005858737
1734275460132,2024-12-15T15:11:00.132Z,35905,0.06930873,-0.015544366,0.0099691795
1734275460134,2024-12-15T15:11:00.134Z,35907,0.06930873,-0.015544366,0.0099691795
1734275460143,2024-12-15T15:11:00.143Z,35916,0.057256836,-0.026317468,0.016477361
1734275460146,2024-12-15T15:11:00.146Z,35919,0.057256836,-0.026317468,0.016477361
1734275460156,2024-12-15T15:11:00.156Z,35929,0.098450884,-0.004561404,0.01026666
1734275460158,2024-12-15T15:11:00.158Z,35931,0.098450884,-0.004561404,0.01026666
1734275460165,2024-12-15T15:11:00.165Z,35938,0.079228334,-0.0032774424,0.016196582
1734275460167,2024-12-15T15:11:00.167Z,35940,0.079228334,-0.0032774424,0.016196582
1734275460206,2024-12-15T15:11:00.206Z,35979,0.07373626,-0.004924138,0.014848268
1734275460209,2024-12-15T15:11:00.209Z,35982,0.07373626,-0.004924138,0.014848268
1734275460217,2024-12-15T15:11:00.217Z,35990,0.05431169,-0.009082742,0.002613119
1734275460220,2024-12-15T15:11:00.220Z,35993,0.05431169,-0.009082742,0.002613119
1734275460229,2024-12-15T15:11:00.229Z,36002,0.05115363,-0.011831838,0.004412056
1734275460231,2024-12-15T15:11:00.231Z,36004,0.05115363,-0.011831838,0.004412056
1734275460239,2024-12-15T15:11:00.239Z,36012,0.06474468,-0.0037514279,-0.0021486639
1734275460243,2024-12-15T15:11:00.243Z,36016,0.06474468,-0.0037514279,-0.0021486639
1734275460251,2024-12-15T15:11:00.251Z,36024,0.07382356,0.0018986644,-0.0028354758
1734275460253,2024-12-15T15:11:00.253Z,36026,0.07382356,0.0018986644,-0.0028354758
1734275460262,2024-12-15T15:11:00.262Z,36035,0.1091322,0.0059345416,0.016571254
1734275460264,2024-12-15T15:11:00.264Z,36037,0.1091322,0.0059345416,0.016571254
1734275460272,2024-12-15T15:11:00.272Z,36045,0.1002237,0.02064423,0.014333633
1734275460274,2024-12-15T15:11:00.274Z,36047,0.1002237,0.02064423,0.014333633
1734275460283,2024-12-15T15:11:00.283Z,36056,0.06410312,0.017207691,6.165262E-4
1734275460285,2024-12-15T15:11:00.285Z,36058,0.06410312,0.017207691,6.165262E-4
1734275460292,2024-12-15T15:11:00.292Z,36065,0.03756173,-0.04302764,-0.012744459
1734275460294,2024-12-15T15:11:00.294Z,36067,0.03756173,-0.04302764,-0.012744459
1734275460301,2024-12-15T15:11:00.301Z,36074,0.02670666,-0.061865203,-0.0056374012
1734275460303,2024-12-15T15:11:00.303Z,36076,0.02670666,-0.061865203,-0.0056374012
1734275460311,2024-12-15T15:11:00.311Z,36084,0.02586571,-0.0708717,0.003800927
1734275460313,2024-12-15T15:11:00.313Z,36086,0.02586571,-0.0708717,0.003800927
1734275460320,2024-12-15T15:11:00.320Z,36093,0.021730343,-0.087140955,0.013059444
1734275460322,2024-12-15T15:11:00.322Z,36095,0.021730343,-0.087140955,0.013059444
1734275460330,2024-12-15T15:11:00.330Z,36103,0.02465455,-0.08970489,0.048445724
1734275460332,2024-12-15T15:11:00.332Z,36105,0.02465455,-0.08970489,0.048445724
1734275460338,2024-12-15T15:11:00.338Z,36111,0.0019565998,-0.09912411,0.06240381
1734275460341,2024-12-15T15:11:00.341Z,36114,0.0019565998,-0.09912411,0.06240381
1734275460349,2024-12-15T15:11:00.349Z,36122,-0.023144847,-0.14473309,0.077863865
1734275460351,2024-12-15T15:11:00.351Z,36124,-0.023144847,-0.14473309,0.077863865
1734275460359,2024-12-15T15:11:00.359Z,36132,-0.03935175,-0.20258537,0.08518723
1734275460362,2024-12-15T15:11:00.362Z,36135,-0.03935175,-0.20258537,0.08518723
1734275460369,2024-12-15T15:11:00.369Z,36142,-0.03935451,-0.24872786,0.09670743
1734275460372,2024-12-15T15:11:00.372Z,36145,-0.03935451,-0.24872786,0.09670743
1734275460380,2024-12-15T15:11:00.380Z,36153,-0.04255644,-0.27583128,0.12572357
1734275460383,2024-12-15T15:11:00.383Z,36156,-0.04255644,-0.27583128,0.12572357
1734275460391,2024-12-15T15:11:00.391Z,36164,-0.091510415,-0.32253128,0.12683572
1734275460396,2024-12-15T15:11:00.396Z,36169,-0.091510415,-0.32253128,0.12683572
1734275460406,2024-12-15T15:11:00.406Z,36179,-0.02181186,-0.4434743,0.22015409
1734275460409,2024-12-15T15:11:00.409Z,36182,-0.02181186,-0.4434743,0.22015409
1734275460417,2024-12-15T15:11:00.417Z,36190,-0.06266679,-0.4506103,0.19246985
1734275460419,2024-12-15T15:11:00.419Z,36192,-0.06266679,-0.4506103,0.19246985
1734275460426,2024-12-15T15:11:00.426Z,36199,-0.10111299,-0.4426285,0.17531122
1734275460428,2024-12-15T15:11:00.428Z,36201,-0.10111299,-0.4426285,0.17531122
1734275460437,2024-12-15T15:11:00.437Z,36210,-0.034561716,-0.2912884,0.118440755
1734275460440,2024-12-15T15:11:00.440Z,36213,-0.034561716,-0.2912884,0.118440755
1734275460448,2024-12-15T15:11:00.448Z,36221,-0.078027554,-0.3178418,0.114238605
1734275460450,2024-12-15T15:11:00.450Z,36223,-0.078027554,-0.3178418,0.114238605
1734275460457,2024-12-15T15:11:00.457Z,36230,0.022706976,-0.30271113,0.10681147
1734275460460,2024-12-15T15:11:00.460Z,36233,0.022706976,-0.30271113,0.10681147
1734275460467,2024-12-15T15:11:00.467Z,36240,0.10211246,-0.24765375,0.121630035
1734275460469,2024-12-15T15:11:00.469Z,36242,0.10211246,-0.24765375,0.121630035
1734275460479,2024-12-15T15:11:00.479Z,36252,0.029214963,-0.21950841,0.10496248
1734275460482,2024-12-15T15:11:00.482Z,36255,0.029214963,-0.21950841,0.10496248
1734275460491,2024-12-15T15:11:00.491Z,36264,0.004562717,-0.21197571,0.04227487
1734275460493,2024-12-15T15:11:00.493Z,36266,0.004562717,-0.21197571,0.04227487
1734275460501,2024-12-15T15:11:00.501Z,36274,0.11241724,-0.17703587,0.030325387
1734275460504,2024-12-15T15:11:00.504Z,36277,0.11241724,-0.17703587,0.030325387
1734275460513,2024-12-15T15:11:00.513Z,36286,0.12488474,-0.14061183,5.780161E-4
1734275460516,2024-12-15T15:11:00.516Z,36289,0.12488474,-0.14061183,5.780161E-4
1734275460523,2024-12-15T15:11:00.523Z,36296,0.10365009,-0.12576346,-0.027615372
1734275460526,2024-12-15T15:11:00.526Z,36299,0.10365009,-0.12576346,-0.027615372
1734275460533,2024-12-15T15:11:00.533Z,36306,0.17861627,-0.12550703,-0.009428914
1734275460535,2024-12-15T15:11:00.535Z,36308,0.17861627,-0.12550703,-0.009428914
1734275460544,2024-12-15T15:11:00.544Z,36317,0.20587127,-0.1042618,-0.006034847
1734275460546,2024-12-15T15:11:00.546Z,36319,0.20587127,-0.1042618,-0.006034847
1734275460554,2024-12-15T15:11:00.554Z,36327,0.17965385,-0.07156255,-0.012385731
1734275460557,2024-12-15T15:11:00.557Z,36330,0.17965385,-0.07156255,-0.012385731
1734275460565,2024-12-15T15:11:00.565Z,36338,0.1587112,-0.04748042,-0.017145155
1734275460567,2024-12-15T15:11:00.567Z,36340,0.1587112,-0.04748042,-0.017145155
1734275460574,2024-12-15T15:11:00.574Z,36347,0.14761262,-0.025774438,-0.03413799
1734275460577,2024-12-15T15:11:00.577Z,36350,0.14761262,-0.025774438,-0.03413799
1734275460583,2024-12-15T15:11:00.583Z,36356,0.16129094,-0.017551364,-0.02061668
1734275460586,2024-12-15T15:11:00.586Z,36359,0.16129094,-0.017551364,-0.02061668
1734275460595,2024-12-15T15:11:00.595Z,36368,0.21969402,0.015288702,0.02095729
1734275460597,2024-12-15T15:11:00.597Z,36370,0.21969402,0.015288702,0.02095729
1734275460606,2024-12-15T15:11:00.606Z,36379,0.30800927,0.09349648,-3.1885094E-4
1734275460609,2024-12-15T15:11:00.609Z,36382,0.30800927,0.09349648,-3.1885094E-4
1734275460617,2024-12-15T15:11:00.617Z,36390,0.18231204,0.09519316,-0.060577862
1734275460619,2024-12-15T15:11:00.619Z,36392,0.18231204,0.09519316,-0.060577862
1734275460626,2024-12-15T15:11:00.626Z,36399,0.11210794,-0.0044244793,-0.057455063
1734275460629,2024-12-15T15:11:00.629Z,36402,0.11210794,-0.0044244793,-0.057455063
1734275460636,2024-12-15T15:11:00.636Z,36409,0.15685874,-0.0315987,-0.050870176
1734275460638,2024-12-15T15:11:00.638Z,36411,0.15685874,-0.0315987,-0.050870176
1734275460645,2024-12-15T15:11:00.645Z,36418,0.17850178,0.02852222,-0.07983833
1734275460648,2024-12-15T15:11:00.648Z,36421,0.17850178,0.02852222,-0.07983833
1734275460654,2024-12-15T15:11:00.654Z,36427,0.1859037,0.05075363,-0.076482266
1734275460656,2024-12-15T15:11:00.656Z,36429,0.1859037,0.05075363,-0.076482266
1734275460664,2024-12-15T15:11:00.664Z,36437,0.23846813,0.04757188,-0.038823754
1734275460667,2024-12-15T15:11:00.667Z,36440,0.23846813,0.04757188,-0.038823754
1734275460674,2024-12-15T15:11:00.674Z,36447,0.3210515,0.10794555,-0.048862036
1734275460677,2024-12-15T15:11:00.677Z,36450,0.3210515,0.10794555,-0.048862036
1734275460700,2024-12-15T15:11:00.700Z,36473,0.27310252,0.1578859,-0.06002432
1734275460702,2024-12-15T15:11:00.702Z,36475,0.27310252,0.1578859,-0.06002432
1734275460710,2024-12-15T15:11:00.710Z,36483,0.15178457,0.11519449,-0.05355185
1734275460712,2024-12-15T15:11:00.712Z,36485,0.15178457,0.11519449,-0.05355185
1734275460750,2024-12-15T15:11:00.750Z,36523,0.12500954,0.05256876,-0.058091756
1734275460753,2024-12-15T15:11:00.753Z,36526,0.12500954,0.05256876,-0.058091756
1734275460760,2024-12-15T15:11:00.760Z,36533,0.07452827,0.023963101,-0.049174696
1734275460763,2024-12-15T15:11:00.763Z,36536,0.07452827,0.023963101,-0.049174696
1734275460771,2024-12-15T15:11:00.771Z,36544,0.18150948,0.07412187,-0.0020243267
1734275460774,2024-12-15T15:11:00.774Z,36547,0.18150948,0.07412187,-0.0020243267
1734275460782,2024-12-15T15:11:00.782Z,36555,0.27148414,0.16353656,-0.041263282
1734275460785,2024-12-15T15:11:00.785Z,36558,0.27148414,0.16353656,-0.041263282
1734275460794,2024-12-15T15:11:00.794Z,36567,0.2355436,0.15691599,-0.053734243
1734275460796,2024-12-15T15:11:00.796Z,36569,0.2355436,0.15691599,-0.053734243
1734275460803,2024-12-15T15:11:00.803Z,36576,0.24534588,0.1639597,0.032327887
1734275460806,2024-12-15T15:11:00.806Z,36579,0.24534588,0.1639597,0.032327887
1734275460813,2024-12-15T15:11:00.813Z,36586,0.18093584,0.17703417,-0.015489398
1734275460816,2024-12-15T15:11:00.816Z,36589,0.18093584,0.17703417,-0.015489398
1734275460824,2024-12-15T15:11:00.824Z,36597,0.08652978,0.13209479,3.967646E-4
1734275460827,2024-12-15T15:11:00.827Z,36600,0.08652978,0.13209479,3.967646E-4
1734275460834,2024-12-15T15:11:00.834Z,36607,0.16012931,0.09600698,0.01717651
1734275460836,2024-12-15T15:11:00.836Z,36609,0.16012931,0.09600698,0.01717651
1734275460843,2024-12-15T15:11:00.843Z,36616,0.14771199,0.08911143,-0.019336164
1734275460845,2024-12-15T15:11:00.845Z,36618,0.14771199,0.08911143,-0.019336164
1734275460852,2024-12-15T15:11:00.852Z,36625,0.15019302,0.1544743,0.031890903
1734275460855,2024-12-15T15:11:00.855Z,36628,0.15019302,0.1544743,0.031890903
1734275460863,2024-12-15T15:11:00.863Z,36636,0.21130423,0.21628305,0.026819948
1734275460868,2024-12-15T15:11:00.868Z,36641,0.21130423,0.21628305,0.026819948
1734275460876,2024-12-15T15:11:00.876Z,36649,0.12050718,0.19838277,0.033803523
1734275460879,2024-12-15T15:11:00.879Z,36652,0.12050718,0.19838277,0.033803523
1734275460885,2024-12-15T15:11:00.885Z,36658,0.06841518,0.15542208,0.06764602
1734275460887,2024-12-15T15:11:00.887Z,36660,0.06841518,0.15542208,0.06764602
1734275460893,2024-12-15T15:11:00.893Z,36666,0.14314613,0.17108206,0.06924879
1734275460896,2024-12-15T15:11:00.896Z,36669,0.14314613,0.17108206,0.06924879
1734275460903,2024-12-15T15:11:00.903Z,36676,0.19796595,0.20299998,0.022579733
1734275460905,2024-12-15T15:11:00.905Z,36678,0.19796595,0.20299998,0.022579733
1734275460913,2024-12-15T15:11:00.913Z,36686,0.07926362,0.13358009,9.790657E-4
1734275460916,2024-12-15T15:11:00.916Z,36689,0.07926362,0.13358009,9.790657E-4
1734275460923,2024-12-15T15:11:00.923Z,36696,0.028142102,0.10834723,0.021348773
1734275460925,2024-12-15T15:11:00.925Z,36698,0.028142102,0.10834723,0.021348773
1734275460934,2024-12-15T15:11:00.934Z,36707,0.1444347,0.23562552,0.029165119
1734275460936,2024-12-15T15:11:00.936Z,36709,0.1444347,0.23562552,0.029165119
1734275460947,2024-12-15T15:11:00.947Z,36720,0.0950523,0.24008851,0.030117575
1734275460950,2024-12-15T15:11:00.950Z,36723,0.0950523,0.24008851,0.030117575
1734275460956,2024-12-15T15:11:00.956Z,36729,0.094657205,0.14339268,0.011360588
1734275460958,2024-12-15T15:11:00.958Z,36731,0.094657205,0.14339268,0.011360588
1734275460965,2024-12-15T15:11:00.965Z,36738,0.11656089,0.19834197,-0.0016891928
1734275460967,2024-12-15T15:11:00.967Z,36740,0.11656089,0.19834197,-0.0016891928
1734275460974,2024-12-15T15:11:00.974Z,36747,0.14965448,0.20329295,0.021658337
1734275460976,2024-12-15T15:11:00.976Z,36749,0.14965448,0.20329295,0.021658337
1734275460982,2024-12-15T15:11:00.982Z,36755,0.116958626,0.2037923,0.0011544824
1734275460984,2024-12-15T15:11:00.984Z,36757,0.116958626,0.2037923,0.0011544824
1734275460991,2024-12-15T15:11:00.991Z,36764,0.04250265,0.1828449,-0.037222534
1734275460993,2024-12-15T15:11:00.993Z,36766,0.04250265,0.1828449,-0.037222534
1734275460999,2024-12-15T15:11:00.999Z,36772,0.0039487192,0.15638994,-0.0041898508
1734275461001,2024-12-15T15:11:01.001Z,36774,0.0039487192,0.15638994,-0.0041898508
1734275461008,2024-12-15T15:11:01.008Z,36781,0.07853526,0.20840622,-0.03974208
1734275461011,2024-12-15T15:11:01.011Z,36784,0.07853526,0.20840622,-0.03974208
1734275461020,2024-12-15T15:11:01.020Z,36793,0.112540685,0.18961082,0.03286806
1734275461023,2024-12-15T15:11:01.023Z,36796,0.112540685,0.18961082,0.03286806
1734275461032,2024-12-15T15:11:01.032Z,36805,0.1278745,0.1931165,0.032764554
1734275461034,2024-12-15T15:11:01.034Z,36807,0.1278745,0.1931165,0.032764554
1734275461042,2024-12-15T15:11:01.042Z,36815,0.0553526,0.17409651,0.015522012
1734275461045,2024-12-15T15:11:01.045Z,36818,0.0553526,0.17409651,0.015522012
1734275461052,2024-12-15T15:11:01.052Z,36825,0.04788018,0.1583238,0.05726123
1734275461055,2024-12-15T15:11:01.055Z,36828,0.04788018,0.1583238,0.05726123
1734275461062,2024-12-15T15:11:01.062Z,36835,0.036390312,0.1307798,0.022118056
1734275461065,2024-12-15T15:11:01.065Z,36838,0.036390312,0.1307798,0.022118056
1734275461072,2024-12-15T15:11:01.072Z,36845,0.082892105,0.13973787,0.020779783
1734275461075,2024-12-15T15:11:01.075Z,36848,0.082892105,0.13973787,0.020779783
1734275461083,2024-12-15T15:11:01.083Z,36856,0.069650926,0.1409418,0.040761415
1734275461085,2024-12-15T15:11:01.085Z,36858,0.069650926,0.1409418,0.040761415
1734275461092,2024-12-15T15:11:01.092Z,36865,0.029478554,0.13435453,0.027780438
1734275461094,2024-12-15T15:11:01.094Z,36867,0.029478554,0.13435453,0.027780438
1734275461103,2024-12-15T15:11:01.103Z,36876,0.0122163305,0.09785697,0.026174514
1734275461105,2024-12-15T15:11:01.105Z,36878,0.0122163305,0.09785697,0.026174514
1734275461113,2024-12-15T15:11:01.113Z,36886,0.028066639,0.06725486,0.054162055
1734275461115,2024-12-15T15:11:01.115Z,36888,0.028066639,0.06725486,0.054162055
1734275461122,2024-12-15T15:11:01.122Z,36895,0.074479885,0.08059754,0.03311845
1734275461125,2024-12-15T15:11:01.125Z,36898,0.074479885,0.08059754,0.03311845
1734275461132,2024-12-15T15:11:01.132Z,36905,0.0050504627,0.045097753,0.059300125
1734275461134,2024-12-15T15:11:01.134Z,36907,0.0050504627,0.045097753,0.059300125
1734275461141,2024-12-15T15:11:01.141Z,36914,0.023457462,0.052059423,0.052732754
1734275461143,2024-12-15T15:11:01.143Z,36916,0.023457462,0.052059423,0.052732754
1734275461151,2024-12-15T15:11:01.151Z,36924,0.007561326,0.05168142,0.04213379
1734275461153,2024-12-15T15:11:01.153Z,36926,0.007561326,0.05168142,0.04213379
1734275461160,2024-12-15T15:11:01.160Z,36933,0.0024759024,0.031690694,0.07909479
1734275461162,2024-12-15T15:11:01.162Z,36935,0.0024759024,0.031690694,0.07909479
1734275461168,2024-12-15T15:11:01.168Z,36941,0.062334314,0.08682286,0.068844624
1734275461170,2024-12-15T15:11:01.170Z,36943,0.062334314,0.08682286,0.068844624
1734275461177,2024-12-15T15:11:01.177Z,36950,-0.04339565,0.0725996,0.04246059
1734275461179,2024-12-15T15:11:01.179Z,36952,-0.04339565,0.0725996,0.04246059
1734275461187,2024-12-15T15:11:01.187Z,36960,-0.049456663,0.04893855,0.08333057
1734275461190,2024-12-15T15:11:01.190Z,36963,-0.049456663,0.04893855,0.08333057
1734275461198,2024-12-15T15:11:01.198Z,36971,0.03965127,0.056989007,0.08505635
1734275461201,2024-12-15T15:11:01.201Z,36974,0.03965127,0.056989007,0.08505635
1734275461207,2024-12-15T15:11:01.207Z,36980,0.0023635207,0.042115457,0.10167986
1734275461209,2024-12-15T15:11:01.209Z,36982,0.0023635207,0.042115457,0.10167986
1734275461216,2024-12-15T15:11:01.216Z,36989,-0.0050694263,0.08721418,0.0735606
1734275461219,2024-12-15T15:11:01.219Z,36992,-0.0050694263,0.08721418,0.0735606
1734275461225,2024-12-15T15:11:01.225Z,36998,-0.040486436,0.07863013,0.03443675
1734275461228,2024-12-15T15:11:01.228Z,37001,-0.040486436,0.07863013,0.03443675
1734275461235,2024-12-15T15:11:01.235Z,37008,0.014469803,0.07831096,0.06467204
1734275461238,2024-12-15T15:11:01.238Z,37011,0.014469803,0.07831096,0.06467204
1734275461246,2024-12-15T15:11:01.246Z,37019,-0.016087264,0.06428405,0.036201812
1734275461249,2024-12-15T15:11:01.249Z,37022,-0.016087264,0.06428405,0.036201812
1734275461255,2024-12-15T15:11:01.255Z,37028,-0.028679993,0.077049464,0.04743633
1734275461257,2024-12-15T15:11:01.257Z,37030,-0.028679993,0.077049464,0.04743633
1734275461264,2024-12-15T15:11:01.264Z,37037,0.012152561,0.114699885,0.028687188
1734275461266,2024-12-15T15:11:01.266Z,37039,0.012152561,0.114699885,0.028687188
1734275461273,2024-12-15T15:11:01.273Z,37046,-0.0336123,0.10888428,0.027046753
1734275461275,2024-12-15T15:11:01.275Z,37048,-0.0336123,0.10888428,0.027046753
1734275461283,2024-12-15T15:11:01.283Z,37056,-0.030091932,0.10447935,0.01259257
1734275461286,2024-12-15T15:11:01.286Z,37059,-0.030091932,0.10447935,0.01259257
1734275461295,2024-12-15T15:11:01.295Z,37068,-0.020733954,0.09224879,0.054381456
1734275461297,2024-12-15T15:11:01.297Z,37070,-0.020733954,0.09224879,0.054381456
1734275461307,2024-12-15T15:11:01.307Z,37080,-0.021357957,0.07700852,0.044278562
1734275461312,2024-12-15T15:11:01.312Z,37085,-0.021357957,0.07700852,0.044278562
1734275461320,2024-12-15T15:11:01.320Z,37093,-0.019359613,0.07007709,0.056633897
1734275461328,2024-12-15T15:11:01.328Z,37101,-0.019359613,0.07007709,0.056633897
1734275461337,2024-12-15T15:11:01.337Z,37110,-0.01515636,0.07583989,0.033641268
1734275461339,2024-12-15T15:11:01.339Z,37112,-0.01515636,0.07583989,0.033641268
1734275461349,2024-12-15T15:11:01.349Z,37122,-0.026466185,0.06944031,0.019383293
1734275461351,2024-12-15T15:11:01.351Z,37124,-0.026466185,0.06944031,0.019383293
1734275461358,2024-12-15T15:11:01.358Z,37131,0.0036448808,0.0806627,0.026860962
1734275461360,2024-12-15T15:11:01.360Z,37133,0.0036448808,0.0806627,0.026860962
1734275461367,2024-12-15T15:11:01.367Z,37140,-0.010110674,0.07919232,0.015907975
1734275461369,2024-12-15T15:11:01.369Z,37142,-0.010110674,0.07919232,0.015907975
1734275461375,2024-12-15T15:11:01.375Z,37148,-0.05604782,0.048371598,0.011928927
1734275461377,2024-12-15T15:11:01.377Z,37150,-0.05604782,0.048371598,0.011928927
1734275461384,2024-12-15T15:11:01.384Z,37157,-0.04065865,0.04240613,0.034779977
1734275461386,2024-12-15T15:11:01.386Z,37159,-0.04065865,0.04240613,0.034779977
1734275461393,2024-12-15T15:11:01.393Z,37166,-0.015124147,0.029301612,0.035828877
1734275461395,2024-12-15T15:11:01.395Z,37168,-0.015124147,0.029301612,0.035828877
1734275461403,2024-12-15T15:11:01.403Z,37176,-0.014276779,0.034197938,0.050837703
1734275461405,2024-12-15T15:11:01.405Z,37178,-0.014276779,0.034197938,0.050837703
1734275461413,2024-12-15T15:11:01.413Z,37186,-0.008911343,0.062488854,0.032019638
1734275461415,2024-12-15T15:11:01.415Z,37188,-0.008911343,0.062488854,0.032019638
1734275461421,2024-12-15T15:11:01.421Z,37194,-0.026287042,0.041958597,0.015360228
1734275461423,2024-12-15T15:11:01.423Z,37196,-0.026287042,0.041958597,0.015360228
1734275461430,2024-12-15T15:11:01.430Z,37203,0.005274315,0.0442057,0.053819973
1734275461433,2024-12-15T15:11:01.433Z,37206,0.005274315,0.0442057,0.053819973
1734275461439,2024-12-15T15:11:01.439Z,37212,-0.004275836,0.029779293,0.055053305
1734275461442,2024-12-15T15:11:01.442Z,37215,-0.004275836,0.029779293,0.055053305
1734275461450,2024-12-15T15:11:01.450Z,37223,-0.02433055,0.021807605,0.072199926
1734275461452,2024-12-15T15:11:01.452Z,37225,-0.02433055,0.021807605,0.072199926
1734275461459,2024-12-15T15:11:01.459Z,37232,-0.021669867,0.029925456,0.07425828
1734275461461,2024-12-15T15:11:01.461Z,37234,-0.021669867,0.029925456,0.07425828
1734275461469,2024-12-15T15:11:01.469Z,37242,6.726746E-4,0.043388333,0.08067239
1734275461471,2024-12-15T15:11:01.471Z,37244,6.726746E-4,0.043388333,0.08067239
1734275461479,2024-12-15T15:11:01.479Z,37252,-0.008264184,0.02805577,0.061267093
1734275461482,2024-12-15T15:11:01.482Z,37255,-0.008264184,0.02805577,0.061267093
1734275461490,2024-12-15T15:11:01.490Z,37263,-0.003140785,0.031326406,0.07966264
1734275461492,2024-12-15T15:11:01.492Z,37265,-0.003140785,0.031326406,0.07966264
1734275461500,2024-12-15T15:11:01.500Z,37273,0.009753812,0.023885109,0.07622554
1734275461503,2024-12-15T15:11:01.503Z,37276,0.009753812,0.023885109,0.07622554
1734275461513,2024-12-15T15:11:01.513Z,37286,0.0127923535,0.024939565,0.07503981
1734275461515,2024-12-15T15:11:01.515Z,37288,0.0127923535,0.024939565,0.07503981
1734275461522,2024-12-15T15:11:01.522Z,37295,-0.0013150566,0.031306375,0.093550086
1734275461524,2024-12-15T15:11:01.524Z,37297,-0.0013150566,0.031306375,0.093550086
1734275461532,2024-12-15T15:11:01.532Z,37305,0.010586216,0.023539588,0.08302214
1734275461535,2024-12-15T15:11:01.535Z,37308,0.010586216,0.023539588,0.08302214
1734275461542,2024-12-15T15:11:01.542Z,37315,0.025311824,0.038245387,0.07837432
1734275461544,2024-12-15T15:11:01.544Z,37317,0.025311824,0.038245387,0.07837432
1734275461551,2024-12-15T15:11:01.551Z,37324,0.038126554,0.048062835,0.08027502
1734275461553,2024-12-15T15:11:01.553Z,37326,0.038126554,0.048062835,0.08027502
1734275461559,2024-12-15T15:11:01.559Z,37332,0.018126184,0.029671445,0.06220455
1734275461561,2024-12-15T15:11:01.561Z,37334,0.018126184,0.029671445,0.06220455
1734275461568,2024-12-15T15:11:01.568Z,37341,-0.023084491,0.012784476,0.06698593
1734275461570,2024-12-15T15:11:01.570Z,37343,-0.023084491,0.012784476,0.06698593
1734275461577,2024-12-15T15:11:01.577Z,37350,-0.015845798,0.009480777,0.08605443
1734275461580,2024-12-15T15:11:01.580Z,37353,-0.015845798,0.009480777,0.08605443
1734275461587,2024-12-15T15:11:01.587Z,37360,0.0070759626,0.005556443,0.08545969
1734275461590,2024-12-15T15:11:01.590Z,37363,0.0070759626,0.005556443,0.08545969
1734275461597,2024-12-15T15:11:01.597Z,37370,-0.0022897096,0.012330913,0.09028209
1734275461599,2024-12-15T15:11:01.599Z,37372,-0.0022897096,0.012330913,0.09028209
1734275461605,2024-12-15T15:11:01.605Z,37378,0.0062502567,0.037131026,0.095596485
1734275461607,2024-12-15T15:11:01.607Z,37380,0.0062502567,0.037131026,0.095596485
1734275461614,2024-12-15T15:11:01.614Z,37387,0.021630706,0.014202932,0.08152695
1734275461616,2024-12-15T15:11:01.616Z,37389,0.021630706,0.014202932,0.08152695
1734275461624,2024-12-15T15:11:01.624Z,37397,0.018851846,0.022601146,0.06926188
1734275461626,2024-12-15T15:11:01.626Z,37399,0.018851846,0.022601146,0.06926188
1734275461634,2024-12-15T15:11:01.634Z,37407,0.02416193,0.035934,0.06494358
1734275461636,2024-12-15T15:11:01.636Z,37409,0.02416193,0.035934,0.06494358
1734275461644,2024-12-15T15:11:01.644Z,37417,0.009353638,0.03173329,0.062743105
1734275461646,2024-12-15T15:11:01.646Z,37419,0.009353638,0.03173329,0.062743105
1734275461652,2024-12-15T15:11:01.652Z,37425,-0.013803487,0.02513659,0.057323165
1734275461654,2024-12-15T15:11:01.654Z,37427,-0.013803487,0.02513659,0.057323165
1734275461660,2024-12-15T15:11:01.660Z,37433,-0.022787984,0.0148915425,0.057543963
1734275461662,2024-12-15T15:11:01.662Z,37435,-0.022787984,0.0148915425,0.057543963
1734275461672,2024-12-15T15:11:01.672Z,37445,-0.015483234,0.03146576,0.061608154
1734275461675,2024-12-15T15:11:01.675Z,37448,-0.015483234,0.03146576,0.061608154
1734275461682,2024-12-15T15:11:01.682Z,37455,-0.005572683,0.035835296,0.042349156
1734275461685,2024-12-15T15:11:01.685Z,37458,-0.005572683,0.035835296,0.042349156
1734275461691,2024-12-15T15:11:01.691Z,37464,-0.024356822,0.024593072,0.033968978
1734275461693,2024-12-15T15:11:01.693Z,37466,-0.024356822,0.024593072,0.033968978
1734275461700,2024-12-15T15:11:01.700Z,37473,-0.01386908,0.04284005,0.06840308
1734275461702,2024-12-15T15:11:01.702Z,37475,-0.01386908,0.04284005,0.06840308
1734275461709,2024-12-15T15:11:01.709Z,37482,-0.008677633,0.045979887,0.04932737
1734275461711,2024-12-15T15:11:01.711Z,37484,-0.008677633,0.045979887,0.04932737
1734275461725,2024-12-15T15:11:01.725Z,37498,-0.060893357,0.044523213,0.01680517
1734275461729,2024-12-15T15:11:01.729Z,37502,-0.060893357,0.044523213,0.01680517
1734275461736,2024-12-15T15:11:01.736Z,37509,-0.07016659,0.04993709,0.024480313
1734275461738,2024-12-15T15:11:01.738Z,37511,-0.07016659,0.04993709,0.024480313
1734275461745,2024-12-15T15:11:01.745Z,37518,-0.090937264,0.03141811,0.0044420687
1734275461748,2024-12-15T15:11:01.748Z,37521,-0.090937264,0.03141811,0.0044420687
1734275461754,2024-12-15T15:11:01.754Z,37527,-0.118230894,0.046545673,-0.0014328357
1734275461756,2024-12-15T15:11:01.756Z,37529,-0.118230894,0.046545673,-0.0014328357
1734275461764,2024-12-15T15:11:01.764Z,37537,-0.07292275,0.0646107,0.0051820874
1734275461766,2024-12-15T15:11:01.766Z,37539,-0.07292275,0.0646107,0.0051820874
1734275461772,2024-12-15T15:11:01.772Z,37545,-0.054288562,0.06361683,-0.00976096
1734275461775,2024-12-15T15:11:01.775Z,37548,-0.054288562,0.06361683,-0.00976096
1734275461783,2024-12-15T15:11:01.783Z,37556,-0.0623334,0.09430296,0.0144603215
1734275461785,2024-12-15T15:11:01.785Z,37558,-0.0623334,0.09430296,0.0144603215
1734275461794,2024-12-15T15:11:01.794Z,37567,-0.12595986,0.13713688,0.007430054
1734275461797,2024-12-15T15:11:01.797Z,37570,-0.12595986,0.13713688,0.007430054
1734275461803,2024-12-15T15:11:01.803Z,37576,-0.1392196,0.1377687,0.014351599
1734275461805,2024-12-15T15:11:01.805Z,37578,-0.1392196,0.1377687,0.014351599
1734275461811,2024-12-15T15:11:01.811Z,37584,-0.009148445,0.12938692,0.054757394
1734275461814,2024-12-15T15:11:01.814Z,37587,-0.009148445,0.12938692,0.054757394
1734275461821,2024-12-15T15:11:01.821Z,37594,0.06117377,0.12683524,-0.022336038
1734275461823,2024-12-15T15:11:01.823Z,37596,0.06117377,0.12683524,-0.022336038
1734275461830,2024-12-15T15:11:01.830Z,37603,-0.029485397,0.15460928,-0.04282924
1734275461833,2024-12-15T15:11:01.833Z,37606,-0.029485397,0.15460928,-0.04282924
1734275461839,2024-12-15T15:11:01.839Z,37612,-0.046437256,0.22280152,-0.024463063
1734275461841,2024-12-15T15:11:01.841Z,37614,-0.046437256,0.22280152,-0.024463063
1734275461847,2024-12-15T15:11:01.847Z,37620,-0.087825745,0.23068927,-0.054800447
1734275461850,2024-12-15T15:11:01.850Z,37623,-0.087825745,0.23068927,-0.054800447
1734275461857,2024-12-15T15:11:01.857Z,37630,-0.22349866,0.12208546,0.050164867
1734275461859,2024-12-15T15:11:01.859Z,37632,-0.22349866,0.12208546,0.050164867
1734275461866,2024-12-15T15:11:01.866Z,37639,0.011875757,0.12539889,0.08585306
1734275461868,2024-12-15T15:11:01.868Z,37641,0.011875757,0.12539889,0.08585306
1734275461875,2024-12-15T15:11:01.875Z,37648,0.04848901,0.10084277,-0.0969075
1734275461877,2024-12-15T15:11:01.877Z,37650,0.04848901,0.10084277,-0.0969075
1734275461884,2024-12-15T15:11:01.884Z,37657,0.0016396937,0.10455812,-0.010677993
1734275461887,2024-12-15T15:11:01.887Z,37660,0.0016396937,0.10455812,-0.010677993
1734275461896,2024-12-15T15:11:01.896Z,37669,0.09570487,0.24823335,-0.040558547
1734275461898,2024-12-15T15:11:01.898Z,37671,0.09570487,0.24823335,-0.040558547
1734275461904,2024-12-15T15:11:01.904Z,37677,-0.037651177,0.21372014,-0.11179762
1734275461906,2024-12-15T15:11:01.906Z,37679,-0.037651177,0.21372014,-0.11179762
1734275461913,2024-12-15T15:11:01.913Z,37686,-0.038850486,0.12782414,-0.065992005
1734275461916,2024-12-15T15:11:01.916Z,37689,-0.038850486,0.12782414,-0.065992005
1734275462054,2024-12-15T15:11:02.054Z,37827,0.097528845,0.15140618,-0.113795884
1734275462057,2024-12-15T15:11:02.057Z,37830,0.097528845,0.15140618,-0.113795884
1734275462064,2024-12-15T15:11:02.064Z,37837,0.05127473,0.11581211,-0.10854631
1734275462066,2024-12-15T15:11:02.066Z,37839,0.05127473,0.11581211,-0.10854631
1734275462073,2024-12-15T15:11:02.073Z,37846,0.13815145,0.1856615,-0.087328225
1734275462075,2024-12-15T15:11:02.075Z,37848,0.13815145,0.1856615,-0.087328225
1734275462085,2024-12-15T15:11:02.085Z,37858,0.03946378,0.15262431,-0.15566109
1734275462088,2024-12-15T15:11:02.088Z,37861,0.03946378,0.15262431,-0.15566109
1734275462096,2024-12-15T15:11:02.096Z,37869,0.089298435,0.10794127,-0.032129046
1734275462098,2024-12-15T15:11:02.098Z,37871,0.089298435,0.10794127,-0.032129046
1734275462105,2024-12-15T15:11:02.105Z,37878,0.25044313,0.20152497,-0.059232235
1734275462107,2024-12-15T15:11:02.107Z,37880,0.25044313,0.20152497,-0.059232235
1734275462115,2024-12-15T15:11:02.115Z,37888,0.052917223,0.10394828,-0.10507479
1734275462117,2024-12-15T15:11:02.117Z,37890,0.052917223,0.10394828,-0.10507479
1734275462124,2024-12-15T15:11:02.124Z,37897,0.048074458,0.07298032,-7.355574E-5
1734275462126,2024-12-15T15:11:02.126Z,37899,0.048074458,0.07298032,-7.355574E-5
1734275462134,2024-12-15T15:11:02.134Z,37907,0.22888859,0.20742646,-8.660638E-4
1734275462136,2024-12-15T15:11:02.136Z,37909,0.22888859,0.20742646,-8.660638E-4
1734275462143,2024-12-15T15:11:02.143Z,37916,0.055928767,0.118483014,-0.059512496
1734275462146,2024-12-15T15:11:02.146Z,37919,0.055928767,0.118483014,-0.059512496
1734275462152,2024-12-15T15:11:02.152Z,37925,0.10021513,0.12338819,-0.013543525
1734275462155,2024-12-15T15:11:02.155Z,37928,0.10021513,0.12338819,-0.013543525
1734275462162,2024-12-15T15:11:02.162Z,37935,0.11943444,0.16374128,-0.06611683
1734275462164,2024-12-15T15:11:02.164Z,37937,0.11943444,0.16374128,-0.06611683
1734275462170,2024-12-15T15:11:02.170Z,37943,0.06528091,0.08365657,-0.042107884
1734275462172,2024-12-15T15:11:02.172Z,37945,0.06528091,0.08365657,-0.042107884
1734275462179,2024-12-15T15:11:02.179Z,37952,0.24627942,0.12595582,0.031856928
1734275462181,2024-12-15T15:11:02.181Z,37954,0.24627942,0.12595582,0.031856928
1734275462189,2024-12-15T15:11:02.189Z,37962,0.22227749,0.15105794,-0.021033252
1734275462192,2024-12-15T15:11:02.192Z,37965,0.22227749,0.15105794,-0.021033252
1734275462200,2024-12-15T15:11:02.200Z,37973,0.012877275,0.06669238,-0.037324015
1734275462202,2024-12-15T15:11:02.202Z,37975,0.012877275,0.06669238,-0.037324015
1734275462209,2024-12-15T15:11:02.209Z,37982,0.16611575,0.14603859,-0.010683597
1734275462213,2024-12-15T15:11:02.213Z,37986,0.16611575,0.14603859,-0.010683597
1734275462220,2024-12-15T15:11:02.220Z,37993,0.1424256,0.13457932,-0.09294358
1734275462222,2024-12-15T15:11:02.222Z,37995,0.1424256,0.13457932,-0.09294358
1734275462229,2024-12-15T15:11:02.229Z,38002,0.070114195,0.07549175,-0.064646594
1734275462231,2024-12-15T15:11:02.231Z,38004,0.070114195,0.07549175,-0.064646594
1734275462278,2024-12-15T15:11:02.278Z,38051,0.1873503,0.103722274,-0.005689526
1734275462280,2024-12-15T15:11:02.280Z,38053,0.1873503,0.103722274,-0.005689526
