Timestamp (ms),ISO DateTime,Elapsed Time (ms),Acceleration X,Acceleration Y,Acceleration Z
1732439487025,2024-11-24T09:11:27.025Z,20568,0.27509892,0.661895,-0.7152564
1732439487031,2024-11-24T09:11:27.031Z,20574,0.27509892,0.661895,-0.7152564
1732439487055,2024-11-24T09:11:27.055Z,20598,0.28885382,0.66094047,-0.7255748
1732439487062,2024-11-24T09:11:27.062Z,20605,0.28885382,0.66094047,-0.7255748
1732439487082,2024-11-24T09:11:27.082Z,20625,0.30296782,0.66133654,-0.73633623
1732439487089,2024-11-24T09:11:27.089Z,20632,0.30296782,0.66133654,-0.73633623
1732439487110,2024-11-24T09:11:27.110Z,20653,0.29493478,0.6410177,-0.73686606
1732439487118,2024-11-24T09:11:27.118Z,20661,0.29493478,0.6410177,-0.73686606
1732439487133,2024-11-24T09:11:27.133Z,20676,0.28218964,0.6166932,-0.73044753
1732439487137,2024-11-24T09:11:27.137Z,20680,0.28218964,0.6166932,-0.73044753
1732439487153,2024-11-24T09:11:27.153Z,20696,0.26688832,0.58990043,-0.71911454
1732439487157,2024-11-24T09:11:27.157Z,20700,0.26688832,0.58990043,-0.71911454
1732439487169,2024-11-24T09:11:27.169Z,20712,0.24916948,0.5611957,-0.69855416
1732439487173,2024-11-24T09:11:27.173Z,20716,0.24916948,0.5611957,-0.69855416
1732439487186,2024-11-24T09:11:27.186Z,20729,0.23111975,0.54320383,-0.6868834
1732439487191,2024-11-24T09:11:27.191Z,20734,0.23111975,0.54320383,-0.6868834
1732439487204,2024-11-24T09:11:27.204Z,20747,0.21904965,0.52514845,-0.683635
1732439487208,2024-11-24T09:11:27.208Z,20751,0.21904965,0.52514845,-0.683635
1732439487223,2024-11-24T09:11:27.223Z,20766,0.2145599,0.50949305,-0.67997617
1732439487226,2024-11-24T09:11:27.226Z,20769,0.2145599,0.50949305,-0.67997617
1732439487239,2024-11-24T09:11:27.239Z,20782,0.21238087,0.49582186,-0.67012835
1732439487243,2024-11-24T09:11:27.243Z,20786,0.21238087,0.49582186,-0.67012835
1732439487254,2024-11-24T09:11:27.254Z,20797,0.2022918,0.48171976,-0.65756416
1732439487258,2024-11-24T09:11:27.258Z,20801,0.2022918,0.48171976,-0.65756416
1732439487271,2024-11-24T09:11:27.271Z,20814,0.1915452,0.4608475,-0.64523214
1732439487276,2024-11-24T09:11:27.276Z,20819,0.1915452,0.4608475,-0.64523214
1732439487288,2024-11-24T09:11:27.288Z,20831,0.18488514,0.44054884,-0.63264674
1732439487293,2024-11-24T09:11:27.293Z,20836,0.18488514,0.44054884,-0.63264674
1732439487305,2024-11-24T09:11:27.305Z,20848,0.17757438,0.41692153,-0.619398
1732439487309,2024-11-24T09:11:27.309Z,20852,0.17757438,0.41692153,-0.619398
1732439487321,2024-11-24T09:11:27.321Z,20864,0.16960278,0.39781216,-0.6050503
1732439487325,2024-11-24T09:11:27.325Z,20868,0.16960278,0.39781216,-0.6050503
1732439487338,2024-11-24T09:11:27.338Z,20881,0.15616013,0.38071537,-0.5915858
1732439487346,2024-11-24T09:11:27.346Z,20889,0.15616013,0.38071537,-0.5915858
1732439487358,2024-11-24T09:11:27.358Z,20901,0.13281825,0.35286182,-0.57757723
1732439487362,2024-11-24T09:11:27.362Z,20905,0.13281825,0.35286182,-0.57757723
1732439487374,2024-11-24T09:11:27.374Z,20917,0.12615518,0.34105766,-0.57063615
1732439487377,2024-11-24T09:11:27.377Z,20920,0.12615518,0.34105766,-0.57063615
1732439487391,2024-11-24T09:11:27.391Z,20934,0.12164933,0.33067462,-0.56017727
1732439487395,2024-11-24T09:11:27.395Z,20938,0.12164933,0.33067462,-0.56017727
1732439487407,2024-11-24T09:11:27.407Z,20950,0.107686184,0.30671287,-0.5400639
1732439487410,2024-11-24T09:11:27.410Z,20953,0.107686184,0.30671287,-0.5400639
1732439487423,2024-11-24T09:11:27.423Z,20966,0.10184194,0.29348934,-0.52849525
1732439487427,2024-11-24T09:11:27.427Z,20970,0.10184194,0.29348934,-0.52849525
1732439487440,2024-11-24T09:11:27.440Z,20983,0.094358265,0.28321573,-0.5082354
1732439487443,2024-11-24T09:11:27.443Z,20986,0.094358265,0.28321573,-0.5082354
1732439487460,2024-11-24T09:11:27.460Z,21003,0.07088556,0.21345606,-0.42656067
1732439487469,2024-11-24T09:11:27.469Z,21012,0.07088556,0.21345606,-0.42656067
1732439487491,2024-11-24T09:11:27.491Z,21034,0.07012051,0.20505308,-0.4175507
1732439487496,2024-11-24T09:11:27.496Z,21039,0.07012051,0.20505308,-0.4175507
1732439487511,2024-11-24T09:11:27.511Z,21054,0.072835356,0.19754565,-0.40526783
1732439487516,2024-11-24T09:11:27.516Z,21059,0.072835356,0.19754565,-0.40526783
1732439487526,2024-11-24T09:11:27.526Z,21069,0.055820845,0.1802501,-0.37593612
1732439487529,2024-11-24T09:11:27.529Z,21072,0.055820845,0.1802501,-0.37593612
1732439487540,2024-11-24T09:11:27.540Z,21083,0.054180834,0.17231035,-0.3650242
1732439487543,2024-11-24T09:11:27.543Z,21086,0.054180834,0.17231035,-0.3650242
1732439487553,2024-11-24T09:11:27.553Z,21096,0.055467445,0.16179118,-0.35720837
1732439487556,2024-11-24T09:11:27.556Z,21099,0.055467445,0.16179118,-0.35720837
1732439487567,2024-11-24T09:11:27.567Z,21110,0.05356037,0.14706242,-0.3404996
1732439487570,2024-11-24T09:11:27.570Z,21113,0.05356037,0.14706242,-0.3404996
1732439487582,2024-11-24T09:11:27.582Z,21125,0.035313245,0.10445601,-0.30610126
1732439487585,2024-11-24T09:11:27.585Z,21128,0.035313245,0.10445601,-0.30610126
1732439487601,2024-11-24T09:11:27.601Z,21144,0.033787917,0.095365144,-0.29954675
1732439487605,2024-11-24T09:11:27.605Z,21148,0.033787917,0.095365144,-0.29954675
1732439487617,2024-11-24T09:11:27.617Z,21160,0.02856817,0.08573218,-0.28307402
1732439487621,2024-11-24T09:11:27.621Z,21164,0.02856817,0.08573218,-0.28307402
1732439487632,2024-11-24T09:11:27.632Z,21175,0.028352572,0.0801398,-0.27158847
1732439487635,2024-11-24T09:11:27.635Z,21178,0.028352572,0.0801398,-0.27158847
1732439487645,2024-11-24T09:11:27.645Z,21188,0.028727995,0.078155026,-0.25495547
1732439487649,2024-11-24T09:11:27.649Z,21192,0.028727995,0.078155026,-0.25495547
1732439487659,2024-11-24T09:11:27.659Z,21202,0.030841285,0.082367696,-0.23877239
1732439487662,2024-11-24T09:11:27.662Z,21205,0.030841285,0.082367696,-0.23877239
1732439487674,2024-11-24T09:11:27.674Z,21217,0.03300247,0.083214775,-0.23238544
1732439487677,2024-11-24T09:11:27.677Z,21220,0.03300247,0.083214775,-0.23238544
1732439487689,2024-11-24T09:11:27.689Z,21232,0.030846877,0.08174385,-0.22809605
1732439487692,2024-11-24T09:11:27.692Z,21235,0.030846877,0.08174385,-0.22809605
1732439487703,2024-11-24T09:11:27.703Z,21246,0.026439562,0.065598935,-0.2084349
1732439487707,2024-11-24T09:11:27.707Z,21250,0.026439562,0.065598935,-0.2084349
1732439487717,2024-11-24T09:11:27.717Z,21260,0.02664077,0.06235791,-0.20036907
1732439487721,2024-11-24T09:11:27.721Z,21264,0.02664077,0.06235791,-0.20036907
1732439487731,2024-11-24T09:11:27.731Z,21274,0.026824858,0.059779044,-0.19493988
1732439487736,2024-11-24T09:11:27.736Z,21279,0.026824858,0.059779044,-0.19493988
1732439487747,2024-11-24T09:11:27.747Z,21290,0.027083585,0.051211815,-0.17923021
1732439487750,2024-11-24T09:11:27.750Z,21293,0.027083585,0.051211815,-0.17923021
1732439487760,2024-11-24T09:11:27.760Z,21303,0.022400184,0.04907567,-0.17241159
1732439487763,2024-11-24T09:11:27.763Z,21306,0.022400184,0.04907567,-0.17241159
1732439487773,2024-11-24T09:11:27.773Z,21316,0.016394068,0.047982022,-0.16773826
1732439487776,2024-11-24T09:11:27.776Z,21319,0.016394068,0.047982022,-0.16773826
1732439487790,2024-11-24T09:11:27.790Z,21333,0.0054026456,0.060892288,-0.16145958
1732439487793,2024-11-24T09:11:27.793Z,21336,0.0054026456,0.060892288,-0.16145958
1732439487804,2024-11-24T09:11:27.804Z,21347,0.008698273,0.056374695,-0.1594652
1732439487807,2024-11-24T09:11:27.807Z,21350,0.008698273,0.056374695,-0.1594652
1732439487820,2024-11-24T09:11:27.820Z,21363,0.008160007,0.053843092,-0.15510468
1732439487825,2024-11-24T09:11:27.825Z,21368,0.008160007,0.053843092,-0.15510468
1732439487837,2024-11-24T09:11:27.837Z,21380,0.009204399,0.04657874,-0.14101438
1732439487840,2024-11-24T09:11:27.840Z,21383,0.009204399,0.04657874,-0.14101438
1732439487851,2024-11-24T09:11:27.851Z,21394,0.005538306,0.045193054,-0.13470425
1732439487854,2024-11-24T09:11:27.854Z,21397,0.005538306,0.045193054,-0.13470425
1732439487866,2024-11-24T09:11:27.866Z,21409,-0.0018463451,0.04818887,-0.13194369
1732439487871,2024-11-24T09:11:27.871Z,21414,-0.0018463451,0.04818887,-0.13194369
1732439487884,2024-11-24T09:11:27.884Z,21427,0.008868214,0.04262319,-0.122818075
1732439487887,2024-11-24T09:11:27.887Z,21430,0.008868214,0.04262319,-0.122818075
1732439487899,2024-11-24T09:11:27.899Z,21442,0.008891845,0.040467594,-0.11658501
1732439487904,2024-11-24T09:11:27.904Z,21447,0.008891845,0.040467594,-0.11658501
1732439487915,2024-11-24T09:11:27.915Z,21458,0.010864806,0.034484915,-0.11390102
1732439487919,2024-11-24T09:11:27.919Z,21462,0.010864806,0.034484915,-0.11390102
1732439487930,2024-11-24T09:11:27.930Z,21473,0.01235576,0.03394198,-0.10841231
1732439487934,2024-11-24T09:11:27.934Z,21477,0.01235576,0.03394198,-0.10841231
1732439487949,2024-11-24T09:11:27.949Z,21492,0.015847001,0.033009958,-0.10551773
1732439487956,2024-11-24T09:11:27.956Z,21499,0.015847001,0.033009958,-0.10551773
1732439487980,2024-11-24T09:11:27.980Z,21523,0.020689791,0.03510088,-0.099800445
1732439487987,2024-11-24T09:11:27.987Z,21530,0.020689791,0.03510088,-0.099800445
1732439488010,2024-11-24T09:11:28.010Z,21553,0.02065561,0.039189566,-0.09904687
1732439488017,2024-11-24T09:11:28.017Z,21560,0.02065561,0.039189566,-0.09904687
1732439488040,2024-11-24T09:11:28.040Z,21583,0.02204742,0.042629022,-0.090467215
1732439488050,2024-11-24T09:11:28.050Z,21593,0.02204742,0.042629022,-0.090467215
1732439488070,2024-11-24T09:11:28.070Z,21613,0.022513187,0.038115367,-0.08179928
1732439488073,2024-11-24T09:11:28.073Z,21616,0.022513187,0.038115367,-0.08179928
1732439488086,2024-11-24T09:11:28.086Z,21629,0.022469327,0.033197746,-0.07866217
1732439488091,2024-11-24T09:11:28.091Z,21634,0.022469327,0.033197746,-0.07866217
1732439488104,2024-11-24T09:11:28.104Z,21647,0.02254416,0.027027668,-0.066843726
1732439488108,2024-11-24T09:11:28.108Z,21651,0.02254416,0.027027668,-0.066843726
1732439488119,2024-11-24T09:11:28.119Z,21662,0.02384091,0.030837152,-0.067022055
1732439488127,2024-11-24T09:11:28.127Z,21670,0.02384091,0.030837152,-0.067022055
1732439488139,2024-11-24T09:11:28.139Z,21682,0.026922349,0.031831607,-0.06384499
1732439488143,2024-11-24T09:11:28.143Z,21686,0.026922349,0.031831607,-0.06384499
1732439488154,2024-11-24T09:11:28.154Z,21697,0.008369868,0.035483066,-0.055811435
1732439488157,2024-11-24T09:11:28.157Z,21700,0.008369868,0.035483066,-0.055811435
1732439488169,2024-11-24T09:11:28.169Z,21712,-0.008681109,0.03510798,-0.054855492
1732439488174,2024-11-24T09:11:28.174Z,21717,-0.008681109,0.03510798,-0.054855492
1732439488185,2024-11-24T09:11:28.185Z,21728,-0.005716658,0.03571053,-0.057310607
1732439488189,2024-11-24T09:11:28.189Z,21732,-0.005716658,0.03571053,-0.057310607
1732439488200,2024-11-24T09:11:28.200Z,21743,0.013624356,0.017339753,-0.049956832
1732439488203,2024-11-24T09:11:28.203Z,21746,0.013624356,0.017339753,-0.049956832
1732439488213,2024-11-24T09:11:28.213Z,21756,0.013873554,0.014435742,-0.060712527
1732439488217,2024-11-24T09:11:28.217Z,21760,0.013873554,0.014435742,-0.060712527
1732439488229,2024-11-24T09:11:28.229Z,21772,0.02359001,0.013929568,-0.07579961
1732439488232,2024-11-24T09:11:28.232Z,21775,0.02359001,0.013929568,-0.07579961
1732439488243,2024-11-24T09:11:28.243Z,21786,0.006688406,0.028552318,-0.06423401
1732439488249,2024-11-24T09:11:28.249Z,21792,0.006688406,0.028552318,-0.06423401
1732439488261,2024-11-24T09:11:28.261Z,21804,-0.005943051,0.029782891,-0.06979809
1732439488264,2024-11-24T09:11:28.264Z,21807,-0.005943051,0.029782891,-0.06979809
1732439488275,2024-11-24T09:11:28.275Z,21818,0.0024986342,0.027749732,-0.074696116
1732439488279,2024-11-24T09:11:28.279Z,21822,0.0024986342,0.027749732,-0.074696116
1732439488292,2024-11-24T09:11:28.292Z,21835,0.015584822,0.029819261,-0.06759412
1732439488295,2024-11-24T09:11:28.295Z,21838,0.015584822,0.029819261,-0.06759412
1732439488307,2024-11-24T09:11:28.307Z,21850,0.021623662,0.025240352,-0.061652377
1732439488311,2024-11-24T09:11:28.311Z,21854,0.021623662,0.025240352,-0.061652377
1732439488322,2024-11-24T09:11:28.322Z,21865,0.036957294,0.024188716,-0.054008245
1732439488325,2024-11-24T09:11:28.325Z,21868,0.036957294,0.024188716,-0.054008245
1732439488337,2024-11-24T09:11:28.337Z,21880,0.06403645,0.01442028,-0.06954843
1732439488340,2024-11-24T09:11:28.340Z,21883,0.06403645,0.01442028,-0.06954843
1732439488349,2024-11-24T09:11:28.349Z,21892,-0.027082078,0.025738748,-0.066389024
1732439488352,2024-11-24T09:11:28.352Z,21895,-0.027082078,0.025738748,-0.066389024
1732439488362,2024-11-24T09:11:28.362Z,21905,-0.027089227,0.015429906,-0.08199689
1732439488365,2024-11-24T09:11:28.365Z,21908,-0.027089227,0.015429906,-0.08199689
1732439488377,2024-11-24T09:11:28.377Z,21920,0.00738504,0.02791554,-0.07813139
1732439488380,2024-11-24T09:11:28.380Z,21923,0.00738504,0.02791554,-0.07813139
1732439488390,2024-11-24T09:11:28.390Z,21933,-0.0035509516,0.022819469,-0.0825115
1732439488393,2024-11-24T09:11:28.393Z,21936,-0.0035509516,0.022819469,-0.0825115
1732439488403,2024-11-24T09:11:28.403Z,21946,-0.0070574125,0.02085944,-0.07660548
1732439488406,2024-11-24T09:11:28.406Z,21949,-0.0070574125,0.02085944,-0.07660548
1732439488419,2024-11-24T09:11:28.419Z,21962,-0.036372688,0.025138145,-0.0687281
1732439488423,2024-11-24T09:11:28.423Z,21966,-0.036372688,0.025138145,-0.0687281
1732439488433,2024-11-24T09:11:28.433Z,21976,-0.028445346,0.024510508,-0.069331564
1732439488436,2024-11-24T09:11:28.436Z,21979,-0.028445346,0.024510508,-0.069331564
1732439488448,2024-11-24T09:11:28.448Z,21991,-0.010040389,0.021490967,-0.07210923
1732439488452,2024-11-24T09:11:28.452Z,21995,-0.010040389,0.021490967,-0.07210923
1732439488463,2024-11-24T09:11:28.463Z,22006,-0.0052232235,0.02171279,-0.0755411
1732439488466,2024-11-24T09:11:28.466Z,22009,-0.0052232235,0.02171279,-0.0755411
1732439488476,2024-11-24T09:11:28.476Z,22019,-0.0026360939,0.019130278,-0.07199299
1732439488480,2024-11-24T09:11:28.480Z,22023,-0.0026360939,0.019130278,-0.07199299
1732439488491,2024-11-24T09:11:28.491Z,22034,0.004262319,0.018562157,-0.0699489
1732439488494,2024-11-24T09:11:28.494Z,22037,0.004262319,0.018562157,-0.0699489
1732439488509,2024-11-24T09:11:28.509Z,22052,-0.00985095,0.023585586,-0.036960453
1732439488513,2024-11-24T09:11:28.513Z,22056,-0.00985095,0.023585586,-0.036960453
1732439488536,2024-11-24T09:11:28.536Z,22079,-0.008393694,0.021490967,-0.03460893
1732439488544,2024-11-24T09:11:28.544Z,22087,-0.008393694,0.021490967,-0.03460893
1732439488584,2024-11-24T09:11:28.584Z,22127,-0.0065878034,0.01947084,-0.03177389
1732439488587,2024-11-24T09:11:28.587Z,22130,-0.0065878034,0.01947084,-0.03177389
1732439488601,2024-11-24T09:11:28.601Z,22144,0.0034795231,0.02397127,-0.027695468
1732439488605,2024-11-24T09:11:28.605Z,22148,0.0034795231,0.02397127,-0.027695468
1732439488616,2024-11-24T09:11:28.616Z,22159,0.003957155,0.022686044,-0.021149676
1732439488620,2024-11-24T09:11:28.620Z,22163,0.003957155,0.022686044,-0.021149676
1732439488632,2024-11-24T09:11:28.632Z,22175,0.003787993,0.014674389,-0.016642999
1732439488636,2024-11-24T09:11:28.636Z,22179,0.003787993,0.014674389,-0.016642999
1732439488647,2024-11-24T09:11:28.647Z,22190,0.0031757213,0.012947269,-0.026661409
1732439488652,2024-11-24T09:11:28.652Z,22195,0.0031757213,0.012947269,-0.026661409
1732439488663,2024-11-24T09:11:28.663Z,22206,0.0061680824,0.019180654,-0.026895631
1732439488669,2024-11-24T09:11:28.669Z,22212,0.0061680824,0.019180654,-0.026895631
1732439488693,2024-11-24T09:11:28.693Z,22236,0.004786046,0.020560695,-0.024810348
1732439488701,2024-11-24T09:11:28.701Z,22244,0.004786046,0.020560695,-0.024810348
1732439488718,2024-11-24T09:11:28.718Z,22261,-0.0011890965,2.938826E-4,-0.022679748
1732439488721,2024-11-24T09:11:28.721Z,22264,-0.0011890965,2.938826E-4,-0.022679748
1732439488732,2024-11-24T09:11:28.732Z,22275,-0.0014833194,0.0021653175,-0.019802673
1732439488736,2024-11-24T09:11:28.736Z,22279,-0.0014833194,0.0021653175,-0.019802673
1732439488747,2024-11-24T09:11:28.747Z,22290,-7.6533953E-4,0.0030506607,-0.024277186
1732439488751,2024-11-24T09:11:28.751Z,22294,-7.6533953E-4,0.0030506607,-0.024277186
1732439488767,2024-11-24T09:11:28.767Z,22310,-0.004154471,0.0032981562,-0.03069359
1732439488774,2024-11-24T09:11:28.774Z,22317,-0.004154471,0.0032981562,-0.03069359
1732439488795,2024-11-24T09:11:28.795Z,22338,-0.0044017234,0.0065610115,-0.03596189
1732439488801,2024-11-24T09:11:28.801Z,22344,-0.0044017234,0.0065610115,-0.03596189
1732439488829,2024-11-24T09:11:28.829Z,22372,-0.0032146205,0.013725639,-0.033845924
1732439488834,2024-11-24T09:11:28.834Z,22377,-0.0032146205,0.013725639,-0.033845924
1732439488846,2024-11-24T09:11:28.846Z,22389,0.010015688,0.00931954,-0.036553886
1732439488849,2024-11-24T09:11:28.849Z,22392,0.010015688,0.00931954,-0.036553886
1732439488863,2024-11-24T09:11:28.863Z,22406,0.009192,0.00866234,-0.038221803
1732439488866,2024-11-24T09:11:28.866Z,22409,0.009192,0.00866234,-0.038221803
1732439488879,2024-11-24T09:11:28.879Z,22422,0.0064535527,0.004564905,-0.037439227
1732439488886,2024-11-24T09:11:28.886Z,22429,0.0064535527,0.004564905,-0.037439227
1732439488904,2024-11-24T09:11:28.904Z,22447,0.010797366,0.009039175,-0.034900963
1732439488911,2024-11-24T09:11:28.911Z,22454,0.010797366,0.009039175,-0.034900963
1732439488923,2024-11-24T09:11:28.923Z,22466,0.0075944145,0.005905951,-0.036556825
1732439488927,2024-11-24T09:11:28.927Z,22470,0.0075944145,0.005905951,-0.036556825
1732439488946,2024-11-24T09:11:28.946Z,22489,0.0063629667,0.004722349,-0.035300557
1732439488953,2024-11-24T09:11:28.953Z,22496,0.0063629667,0.004722349,-0.035300557
1732439488976,2024-11-24T09:11:28.976Z,22519,0.0077645006,0.0066712904,-0.03540313
1732439488980,2024-11-24T09:11:28.980Z,22523,0.0077645006,0.0066712904,-0.03540313
1732439488994,2024-11-24T09:11:28.994Z,22537,0.008479952,0.0069078943,-0.03301718
1732439488998,2024-11-24T09:11:28.998Z,22541,0.008479952,0.0069078943,-0.03301718
1732439489011,2024-11-24T09:11:29.011Z,22554,0.00821539,0.0086072,-0.035500642
1732439489015,2024-11-24T09:11:29.015Z,22558,0.00821539,0.0086072,-0.035500642
1732439489025,2024-11-24T09:11:29.025Z,22568,0.005473199,0.0088422485,-0.04329884
1732439489029,2024-11-24T09:11:29.029Z,22572,0.005473199,0.0088422485,-0.04329884
1732439489039,2024-11-24T09:11:29.039Z,22582,0.008193995,-0.0028766845,-0.039752774
1732439489042,2024-11-24T09:11:29.042Z,22585,0.008193995,-0.0028766845,-0.039752774
1732439489053,2024-11-24T09:11:29.053Z,22596,0.012690729,-0.006967799,-0.02858543
1732439489056,2024-11-24T09:11:29.056Z,22599,0.012690729,-0.006967799,-0.02858543
1732439489067,2024-11-24T09:11:29.067Z,22610,0.013316567,-0.008581916,-0.017099114
1732439489071,2024-11-24T09:11:29.071Z,22614,0.013316567,-0.008581916,-0.017099114
1732439489082,2024-11-24T09:11:29.082Z,22625,0.016738374,-0.0035897049,-0.020094465
1732439489088,2024-11-24T09:11:29.088Z,22631,0.016738374,-0.0035897049,-0.020094465
1732439489099,2024-11-24T09:11:29.099Z,22642,0.012049527,1.7747708E-4,-0.027771832
1732439489103,2024-11-24T09:11:29.103Z,22646,0.012049527,1.7747708E-4,-0.027771832
1732439489116,2024-11-24T09:11:29.116Z,22659,0.008262457,5.95156E-5,-0.031003568
1732439489124,2024-11-24T09:11:29.124Z,22667,0.008262457,5.95156E-5,-0.031003568
1732439489147,2024-11-24T09:11:29.147Z,22690,-0.0012180277,0.014924899,-0.039085217
1732439489153,2024-11-24T09:11:29.153Z,22696,-0.0012180277,0.014924899,-0.039085217
1732439489169,2024-11-24T09:11:29.169Z,22712,-0.002349116,0.011899133,-0.03755043
1732439489172,2024-11-24T09:11:29.172Z,22715,-0.002349116,0.011899133,-0.03755043
1732439489182,2024-11-24T09:11:29.182Z,22725,8.779037E-4,0.009383918,-0.028703442
1732439489185,2024-11-24T09:11:29.185Z,22728,8.779037E-4,0.009383918,-0.028703442
1732439489202,2024-11-24T09:11:29.202Z,22745,0.0063311667,0.0077614374,-0.028511498
1732439489208,2024-11-24T09:11:29.208Z,22751,0.0063311667,0.0077614374,-0.028511498
1732439489226,2024-11-24T09:11:29.226Z,22769,0.0120250685,0.009606907,-0.029846223
1732439489229,2024-11-24T09:11:29.229Z,22772,0.0120250685,0.009606907,-0.029846223
1732439489241,2024-11-24T09:11:29.241Z,22784,0.012105104,0.008451313,-0.022069931
1732439489244,2024-11-24T09:11:29.244Z,22787,0.012105104,0.008451313,-0.022069931
1732439489258,2024-11-24T09:11:29.258Z,22801,0.0045343693,0.0024344993,-0.016270345
1732439489267,2024-11-24T09:11:29.267Z,22810,0.0045343693,0.0024344993,-0.016270345
1732439489286,2024-11-24T09:11:29.286Z,22829,0.0042495793,0.01683815,-0.024590543
1732439489289,2024-11-24T09:11:29.289Z,22832,0.0042495793,0.01683815,-0.024590543
1732439489304,2024-11-24T09:11:29.304Z,22847,0.00442798,0.025403729,-0.024637854
1732439489310,2024-11-24T09:11:29.310Z,22853,0.00442798,0.025403729,-0.024637854
1732439489329,2024-11-24T09:11:29.329Z,22872,0.0065455004,0.023140872,-0.01851701
1732439489334,2024-11-24T09:11:29.334Z,22877,0.0065455004,0.023140872,-0.01851701
1732439489347,2024-11-24T09:11:29.347Z,22890,0.007540831,0.020103535,-0.015263199
1732439489352,2024-11-24T09:11:29.352Z,22895,0.007540831,0.020103535,-0.015263199
1732439489365,2024-11-24T09:11:29.365Z,22908,0.010997258,0.017076213,-0.0057262857
1732439489368,2024-11-24T09:11:29.368Z,22911,0.010997258,0.017076213,-0.0057262857
1732439489379,2024-11-24T09:11:29.379Z,22922,0.017428929,0.0076766373,-0.0010665887
1732439489382,2024-11-24T09:11:29.382Z,22925,0.017428929,0.0076766373,-0.0010665887
1732439489392,2024-11-24T09:11:29.392Z,22935,0.012030174,0.003776615,-0.0039705513
1732439489396,2024-11-24T09:11:29.396Z,22939,0.012030174,0.003776615,-0.0039705513
1732439489410,2024-11-24T09:11:29.410Z,22953,0.00663492,-0.0011012331,-0.006876702
1732439489413,2024-11-24T09:11:29.413Z,22956,0.00663492,-0.0011012331,-0.006876702
1732439489423,2024-11-24T09:11:29.423Z,22966,0.005150725,-0.005002617,-0.004907776
1732439489427,2024-11-24T09:11:29.427Z,22970,0.005150725,-0.005002617,-0.004907776
1732439489439,2024-11-24T09:11:29.439Z,22982,-0.0054575903,-0.00485412,-0.0043267454
1732439489443,2024-11-24T09:11:29.443Z,22986,-0.0054575903,-0.00485412,-0.0043267454
1732439489455,2024-11-24T09:11:29.455Z,22998,-0.0042368886,-8.362331E-4,-0.009664259
1732439489458,2024-11-24T09:11:29.458Z,23001,-0.0042368886,-8.362331E-4,-0.009664259
1732439489468,2024-11-24T09:11:29.468Z,23011,-8.144496E-5,0.0022157892,-0.011139944
1732439489472,2024-11-24T09:11:29.472Z,23015,-8.144496E-5,0.0022157892,-0.011139944
1732439489484,2024-11-24T09:11:29.484Z,23027,-0.0043250923,-0.00144549,-0.012368256
1732439489488,2024-11-24T09:11:29.488Z,23031,-0.0043250923,-0.00144549,-0.012368256
1732439489498,2024-11-24T09:11:29.498Z,23041,-0.0024885691,-0.004264215,-0.015960878
1732439489501,2024-11-24T09:11:29.501Z,23044,-0.0024885691,-0.004264215,-0.015960878
1732439489511,2024-11-24T09:11:29.511Z,23054,-0.0045535755,-0.0022076203,-0.017094422
1732439489514,2024-11-24T09:11:29.514Z,23057,-0.0045535755,-0.0022076203,-0.017094422
1732439489524,2024-11-24T09:11:29.524Z,23067,0.0027185113,0.0076259715,-0.027486775
1732439489528,2024-11-24T09:11:29.528Z,23071,0.0027185113,0.0076259715,-0.027486775
1732439489540,2024-11-24T09:11:29.540Z,23083,0.00514314,0.013942405,-0.027355904
1732439489546,2024-11-24T09:11:29.546Z,23089,0.00514314,0.013942405,-0.027355904
1732439489567,2024-11-24T09:11:29.567Z,23110,0.006102683,0.018289182,-0.029611832
1732439489573,2024-11-24T09:11:29.573Z,23116,0.006102683,0.018289182,-0.029611832
1732439489583,2024-11-24T09:11:29.583Z,23126,0.013685719,0.01533859,-0.03160446
1732439489587,2024-11-24T09:11:29.587Z,23130,0.013685719,0.01533859,-0.03160446
1732439489603,2024-11-24T09:11:29.603Z,23146,0.008157819,0.011398016,-0.038555242
1732439489606,2024-11-24T09:11:29.606Z,23149,0.008157819,0.011398016,-0.038555242
1732439489616,2024-11-24T09:11:29.616Z,23159,0.0104287965,0.0059803454,-0.034212403
1732439489619,2024-11-24T09:11:29.619Z,23162,0.0104287965,0.0059803454,-0.034212403
1732439489631,2024-11-24T09:11:29.631Z,23174,0.0052061076,0.009683733,-0.030529413
1732439489634,2024-11-24T09:11:29.634Z,23177,0.0052061076,0.009683733,-0.030529413
1732439489644,2024-11-24T09:11:29.644Z,23187,0.010007568,0.0056778076,-0.029572617
1732439489646,2024-11-24T09:11:29.646Z,23189,0.010007568,0.0056778076,-0.029572617
1732439489659,2024-11-24T09:11:29.659Z,23202,0.007769412,-0.0019822002,-0.00736384
1732439489667,2024-11-24T09:11:29.667Z,23210,0.007769412,-0.0019822002,-0.00736384
1732439489690,2024-11-24T09:11:29.690Z,23233,0.010320997,-0.004618002,-0.007373881
1732439489696,2024-11-24T09:11:29.696Z,23239,0.010320997,-0.004618002,-0.007373881
1732439489709,2024-11-24T09:11:29.709Z,23252,0.0055855685,-0.0014179689,-0.012247718
1732439489713,2024-11-24T09:11:29.713Z,23256,0.0055855685,-0.0014179689,-0.012247718
1732439489725,2024-11-24T09:11:29.725Z,23268,0.0062101902,0.01188367,-0.014132208
1732439489728,2024-11-24T09:11:29.728Z,23271,0.0062101902,0.01188367,-0.014132208
1732439489739,2024-11-24T09:11:29.739Z,23282,0.0057081976,0.016121143,-0.017958054
1732439489741,2024-11-24T09:11:29.741Z,23284,0.0057081976,0.016121143,-0.017958054
1732439489752,2024-11-24T09:11:29.752Z,23295,0.00618865,0.0154937,-0.011113177
1732439489755,2024-11-24T09:11:29.755Z,23298,0.00618865,0.0154937,-0.011113177
1732439489766,2024-11-24T09:11:29.766Z,23309,0.0075195823,0.008377502,-0.011364416
1732439489771,2024-11-24T09:11:29.771Z,23314,0.0075195823,0.008377502,-0.011364416
1732439489781,2024-11-24T09:11:29.781Z,23324,0.010277187,0.007869382,-0.0056240056
1732439489785,2024-11-24T09:11:29.785Z,23328,0.010277187,0.007869382,-0.0056240056
1732439489796,2024-11-24T09:11:29.796Z,23339,0.009092369,0.008361164,-0.005271531
1732439489798,2024-11-24T09:11:29.798Z,23341,0.009092369,0.008361164,-0.005271531
1732439489809,2024-11-24T09:11:29.809Z,23352,-0.0012147698,0.009934827,-0.0017717561
1732439489813,2024-11-24T09:11:29.813Z,23356,-0.0012147698,0.009934827,-0.0017717561
1732439489825,2024-11-24T09:11:29.825Z,23368,-0.008379495,0.015404914,-5.6462025E-4
1732439489828,2024-11-24T09:11:29.828Z,23371,-0.008379495,0.015404914,-5.6462025E-4
1732439489837,2024-11-24T09:11:29.837Z,23380,-0.009748791,0.014553898,-0.0017782961
1732439489841,2024-11-24T09:11:29.841Z,23384,-0.009748791,0.014553898,-0.0017782961
1732439489850,2024-11-24T09:11:29.850Z,23393,-0.014260015,0.007163753,0.0011087212
1732439489854,2024-11-24T09:11:29.854Z,23397,-0.014260015,0.007163753,0.0011087212
1732439489863,2024-11-24T09:11:29.863Z,23406,-0.014513784,0.0062720887,0.004190331
1732439489866,2024-11-24T09:11:29.866Z,23409,-0.014513784,0.0062720887,0.004190331
1732439489876,2024-11-24T09:11:29.876Z,23419,-0.016641514,0.008751419,-0.0014929469
1732439489880,2024-11-24T09:11:29.880Z,23423,-0.016641514,0.008751419,-0.0014929469
1732439489888,2024-11-24T09:11:29.888Z,23431,0.0016689167,0.01567079,-0.0048958873
1732439489891,2024-11-24T09:11:29.891Z,23434,0.0016689167,0.01567079,-0.0048958873
1732439489901,2024-11-24T09:11:29.901Z,23444,0.00685752,0.015009212,5.8202757E-5
1732439489904,2024-11-24T09:11:29.904Z,23447,0.00685752,0.015009212,5.8202757E-5
1732439489914,2024-11-24T09:11:29.914Z,23457,0.009009758,0.013626447,-0.0011863249
1732439489917,2024-11-24T09:11:29.917Z,23460,0.009009758,0.013626447,-0.0011863249
1732439489928,2024-11-24T09:11:29.928Z,23471,0.011535816,0.016517524,-0.0016871506
1732439489931,2024-11-24T09:11:29.931Z,23474,0.011535816,0.016517524,-0.0016871506
1732439489943,2024-11-24T09:11:29.943Z,23486,0.008639924,0.015037998,-0.001207306
1732439489949,2024-11-24T09:11:29.949Z,23492,0.008639924,0.015037998,-0.001207306
1732439489965,2024-11-24T09:11:29.965Z,23508,0.011061441,0.013580352,-0.004616033
1732439489968,2024-11-24T09:11:29.968Z,23511,0.011061441,0.013580352,-0.004616033
1732439489978,2024-11-24T09:11:29.978Z,23521,0.012004939,0.009681399,-0.0011646872
1732439489981,2024-11-24T09:11:29.981Z,23524,0.012004939,0.009681399,-0.0011646872
1732439489991,2024-11-24T09:11:29.991Z,23534,0.010540923,0.004306712,0.0012878758
1732439489994,2024-11-24T09:11:29.994Z,23537,0.010540923,0.004306712,0.0012878758
1732439490006,2024-11-24T09:11:30.006Z,23549,0.0045428784,-0.0072726705,-0.0053092632
1732439490009,2024-11-24T09:11:30.009Z,23552,0.0045428784,-0.0072726705,-0.0053092632
1732439490021,2024-11-24T09:11:30.021Z,23564,0.0021200487,-0.006262364,-0.008391238
1732439490024,2024-11-24T09:11:30.024Z,23567,0.0021200487,-0.006262364,-0.008391238
1732439490033,2024-11-24T09:11:30.033Z,23576,6.717872E-4,-0.005249432,-0.010014667
1732439490036,2024-11-24T09:11:30.036Z,23579,6.717872E-4,-0.005249432,-0.010014667
1732439490046,2024-11-24T09:11:30.046Z,23589,0.0011208286,0.0016656589,-0.01657388
1732439490048,2024-11-24T09:11:30.048Z,23591,0.0011208286,0.0016656589,-0.01657388
1732439490060,2024-11-24T09:11:30.060Z,23603,-8.705615E-4,-2.3893763E-4,-0.014724884
1732439490063,2024-11-24T09:11:30.063Z,23606,-8.705615E-4,-2.3893763E-4,-0.014724884
1732439490072,2024-11-24T09:11:30.072Z,23615,-0.0014012423,-0.007015839,-0.0158356
1732439490075,2024-11-24T09:11:30.075Z,23618,-0.0014012423,-0.007015839,-0.0158356
1732439490085,2024-11-24T09:11:30.085Z,23628,0.007939693,8.7386795E-4,-0.024033435
1732439490088,2024-11-24T09:11:30.088Z,23631,0.007939693,8.7386795E-4,-0.024033435
1732439490099,2024-11-24T09:11:30.099Z,23642,0.0068985582,0.0091867,-0.03275082
1732439490106,2024-11-24T09:11:30.106Z,23649,0.0068985582,0.0091867,-0.03275082
1732439490127,2024-11-24T09:11:30.127Z,23670,0.0068364656,0.011628298,-0.032641634
1732439490132,2024-11-24T09:11:30.132Z,23675,0.0068364656,0.011628298,-0.032641634
1732439490147,2024-11-24T09:11:30.147Z,23690,0.0056904987,0.008679748,-0.033251256
1732439490151,2024-11-24T09:11:30.151Z,23694,0.0056904987,0.008679748,-0.033251256
1732439490174,2024-11-24T09:11:30.174Z,23717,0.008976985,0.006214421,-0.030491583
1732439490181,2024-11-24T09:11:30.181Z,23724,0.008976985,0.006214421,-0.030491583
1732439490200,2024-11-24T09:11:30.200Z,23743,0.014676187,0.006169103,-0.029068874
1732439490207,2024-11-24T09:11:30.207Z,23750,0.014676187,0.006169103,-0.029068874
1732439490219,2024-11-24T09:11:30.219Z,23762,0.013111229,0.008554201,-0.030257314
1732439490223,2024-11-24T09:11:30.223Z,23766,0.013111229,0.008554201,-0.030257314
1732439490238,2024-11-24T09:11:30.238Z,23781,0.009924956,0.009535819,-0.028837958
1732439490244,2024-11-24T09:11:30.244Z,23787,0.009924956,0.009535819,-0.028837958
1732439490266,2024-11-24T09:11:30.266Z,23809,0.0042779758,0.011014957,-0.026439855
1732439490270,2024-11-24T09:11:30.270Z,23813,0.0042779758,0.011014957,-0.026439855
1732439490283,2024-11-24T09:11:30.283Z,23826,0.0027037296,0.013480867,-0.02642478
1732439490287,2024-11-24T09:11:30.287Z,23830,0.0027037296,0.013480867,-0.02642478
1732439490298,2024-11-24T09:11:30.298Z,23841,0.0014292983,0.015923535,-0.025889505
1732439490302,2024-11-24T09:11:30.302Z,23845,0.0014292983,0.015923535,-0.025889505
1732439490313,2024-11-24T09:11:30.313Z,23856,-0.0013098294,0.012519671,-0.024422232
1732439490315,2024-11-24T09:11:30.315Z,23858,-0.0013098294,0.012519671,-0.024422232
1732439490325,2024-11-24T09:11:30.325Z,23868,-0.00795462,0.0042725783,-0.017808901
1732439490328,2024-11-24T09:11:30.328Z,23871,-0.00795462,0.0042725783,-0.017808901
1732439490340,2024-11-24T09:11:30.340Z,23883,-0.0072697042,0.0033426958,-0.014025163
1732439490343,2024-11-24T09:11:30.343Z,23886,-0.0072697042,0.0033426958,-0.014025163
1732439490354,2024-11-24T09:11:30.354Z,23897,-0.013844476,9.092661E-4,-0.011757662
1732439490357,2024-11-24T09:11:30.357Z,23900,-0.013844476,9.092661E-4,-0.011757662
1732439490366,2024-11-24T09:11:30.366Z,23909,-0.012024825,0.0032829857,-0.009797051
1732439490369,2024-11-24T09:11:30.369Z,23912,-0.012024825,0.0032829857,-0.009797051
1732439490377,2024-11-24T09:11:30.377Z,23920,-0.005235671,0.0061056977,-0.006387935
1732439490380,2024-11-24T09:11:30.380Z,23923,-0.005235671,0.0061056977,-0.006387935
1732439490390,2024-11-24T09:11:30.390Z,23933,-0.007100931,0.0067894463,-0.0025418121
1732439490393,2024-11-24T09:11:30.393Z,23936,-0.007100931,0.0067894463,-0.0025418121
1732439490403,2024-11-24T09:11:30.403Z,23946,-0.0012531341,0.004858204,0.005050074
1732439490406,2024-11-24T09:11:30.406Z,23949,-0.0012531341,0.004858204,0.005050074
1732439490414,2024-11-24T09:11:30.414Z,23957,0.0018968653,0.007097138,0.0058800587
1732439490417,2024-11-24T09:11:30.417Z,23960,0.0018968653,0.007097138,0.0058800587
1732439490426,2024-11-24T09:11:30.426Z,23969,0.0040697684,0.010808694,0.0066818176
1732439490430,2024-11-24T09:11:30.430Z,23973,0.0040697684,0.010808694,0.0066818176
1732439490439,2024-11-24T09:11:30.439Z,23982,0.010392669,0.010437014,0.01061877
1732439490442,2024-11-24T09:11:30.442Z,23985,0.010392669,0.010437014,0.01061877
1732439490451,2024-11-24T09:11:30.451Z,23994,0.009142257,0.008816283,0.008357736
1732439490454,2024-11-24T09:11:30.454Z,23997,0.009142257,0.008816283,0.008357736
1732439490464,2024-11-24T09:11:30.464Z,24007,0.005925449,0.009164236,0.0114349695
1732439490467,2024-11-24T09:11:30.467Z,24010,0.005925449,0.009164236,0.0114349695
1732439490476,2024-11-24T09:11:30.476Z,24019,0.006678195,0.0030885874,0.0068657375
1732439490480,2024-11-24T09:11:30.480Z,24023,0.006678195,0.0030885874,0.0068657375
1732439490491,2024-11-24T09:11:30.491Z,24034,0.010575738,0.008439935,0.005979616
1732439490495,2024-11-24T09:11:30.495Z,24038,0.010575738,0.008439935,0.005979616
1732439490502,2024-11-24T09:11:30.502Z,24045,0.009104477,0.00991032,0.0059720795
1732439490505,2024-11-24T09:11:30.505Z,24048,0.009104477,0.00991032,0.0059720795
1732439490514,2024-11-24T09:11:30.514Z,24057,0.004695217,-0.001307301,0.007904124
1732439490516,2024-11-24T09:11:30.516Z,24059,0.004695217,-0.001307301,0.007904124
1732439490526,2024-11-24T09:11:30.526Z,24069,0.0061504804,-0.0012997157,0.003987302
1732439490529,2024-11-24T09:11:30.529Z,24072,0.0061504804,-0.0012997157,0.003987302
1732439490539,2024-11-24T09:11:30.539Z,24082,0.009556971,0.0035899966,7.689863E-5
1732439490541,2024-11-24T09:11:30.541Z,24084,0.009556971,0.0035899966,7.689863E-5
1732439490550,2024-11-24T09:11:30.550Z,24093,0.0061222785,0.009519481,-0.0040614777
1732439490553,2024-11-24T09:11:30.553Z,24096,0.0061222785,0.009519481,-0.0040614777
1732439490563,2024-11-24T09:11:30.563Z,24106,0.007091984,0.010049482,-0.0046940013
1732439490567,2024-11-24T09:11:30.567Z,24110,0.007091984,0.010049482,-0.0046940013
1732439490582,2024-11-24T09:11:30.582Z,24125,0.0085489005,0.011067762,-0.0048353267
1732439490588,2024-11-24T09:11:30.588Z,24131,0.0085489005,0.011067762,-0.0048353267
1732439490605,2024-11-24T09:11:30.605Z,24148,0.014351721,0.004389762,-0.008249281
1732439490608,2024-11-24T09:11:30.608Z,24151,0.014351721,0.004389762,-0.008249281
1732439490617,2024-11-24T09:11:30.617Z,24160,7.684514E-4,-8.400258E-4,-0.013329501
1732439490620,2024-11-24T09:11:30.620Z,24163,7.684514E-4,-8.400258E-4,-0.013329501
1732439490630,2024-11-24T09:11:30.630Z,24173,9.536111E-4,7.98112E-4,-0.016336497
1732439490632,2024-11-24T09:11:30.632Z,24175,9.536111E-4,7.98112E-4,-0.016336497
1732439490641,2024-11-24T09:11:30.641Z,24184,-0.0027894534,0.0043922905,-0.016871044
1732439490644,2024-11-24T09:11:30.644Z,24187,-0.0027894534,0.0043922905,-0.016871044
1732439490652,2024-11-24T09:11:30.652Z,24195,-2.0752662E-4,0.003859081,-0.022322314
1732439490655,2024-11-24T09:11:30.655Z,24198,-2.0752662E-4,0.003859081,-0.022322314
1732439490664,2024-11-24T09:11:30.664Z,24207,-0.0018842231,0.0015262057,-0.022816211
1732439490666,2024-11-24T09:11:30.666Z,24209,-0.0018842231,0.0015262057,-0.022816211
1732439490675,2024-11-24T09:11:30.675Z,24218,-0.0010709404,0.0040346133,-0.02471062
1732439490678,2024-11-24T09:11:30.678Z,24221,-0.0010709404,0.0040346133,-0.02471062
1732439490690,2024-11-24T09:11:30.690Z,24233,0.0032449132,0.006418544,-0.023860384
1732439490701,2024-11-24T09:11:30.701Z,24244,0.0032449132,0.006418544,-0.023860384
1732439490725,2024-11-24T09:11:30.725Z,24268,0.004686173,0.0063706003,-0.02705531
1732439490730,2024-11-24T09:11:30.730Z,24273,0.004686173,0.0063706003,-0.02705531
1732439490752,2024-11-24T09:11:30.752Z,24295,0.0085523045,0.008279768,-0.025838621
1732439490760,2024-11-24T09:11:30.760Z,24303,0.0085523045,0.008279768,-0.025838621
1732439490780,2024-11-24T09:11:30.780Z,24323,0.008347015,0.0115979565,-0.021169929
1732439490787,2024-11-24T09:11:30.787Z,24330,0.008347015,0.0115979565,-0.021169929
1732439490810,2024-11-24T09:11:30.810Z,24353,0.0057332874,0.01257374,-0.02230515
1732439490818,2024-11-24T09:11:30.818Z,24361,0.0057332874,0.01257374,-0.02230515
1732439490834,2024-11-24T09:11:30.834Z,24377,0.0030828498,0.008694821,-0.018591817
1732439490838,2024-11-24T09:11:30.838Z,24381,0.0030828498,0.008694821,-0.018591817
1732439490852,2024-11-24T09:11:30.852Z,24395,0.0021081846,0.004420784,-0.011282242
1732439490856,2024-11-24T09:11:30.856Z,24399,0.0021081846,0.004420784,-0.011282242
1732439490868,2024-11-24T09:11:30.868Z,24411,0.0037539077,0.002568604,-0.013028374
1732439490872,2024-11-24T09:11:30.872Z,24415,0.0037539077,0.002568604,-0.013028374
1732439490883,2024-11-24T09:11:30.883Z,24426,-0.0018956984,0.0041281655,-0.0128524285
1732439490886,2024-11-24T09:11:30.886Z,24429,-0.0018956984,0.0041281655,-0.0128524285
1732439490898,2024-11-24T09:11:30.898Z,24441,-0.0024745653,0.0019162662,-0.015536587
1732439490901,2024-11-24T09:11:30.901Z,24444,-0.0024745653,0.0019162662,-0.015536587
1732439490910,2024-11-24T09:11:30.910Z,24453,-0.0037297902,0.0054370225,-0.0149009265
1732439490913,2024-11-24T09:11:30.913Z,24456,-0.0037297902,0.0054370225,-0.0149009265
1732439490921,2024-11-24T09:11:30.921Z,24464,-0.005939404,0.0060104923,-0.011800524
1732439490925,2024-11-24T09:11:30.925Z,24468,-0.005939404,0.0060104923,-0.011800524
1732439490942,2024-11-24T09:11:30.942Z,24485,-0.0017149148,0.005182039,-0.013532384
1732439490945,2024-11-24T09:11:30.945Z,24488,-0.0017149148,0.005182039,-0.013532384
1732439490953,2024-11-24T09:11:30.953Z,24496,0.0029660552,0.0037574572,-0.012805093
1732439490956,2024-11-24T09:11:30.956Z,24499,0.0029660552,0.0037574572,-0.012805093
1732439490967,2024-11-24T09:11:30.967Z,24510,0.0072785052,0.007649505,-0.013569217
1732439490970,2024-11-24T09:11:30.970Z,24513,0.0072785052,0.007649505,-0.013569217
1732439490981,2024-11-24T09:11:30.981Z,24524,0.0032791928,0.0046718773,-0.008812174
1732439490984,2024-11-24T09:11:30.984Z,24527,0.0032791928,0.0046718773,-0.008812174
1732439490993,2024-11-24T09:11:30.993Z,24536,0.004736158,0.0012190974,-0.005245153
1732439490996,2024-11-24T09:11:30.996Z,24539,0.004736158,0.0012190974,-0.005245153
1732439491005,2024-11-24T09:11:31.005Z,24548,0.0036485884,-0.0021840865,-0.0060622767
1732439491008,2024-11-24T09:11:31.008Z,24551,0.0036485884,-0.0021840865,-0.0060622767
1732439491017,2024-11-24T09:11:31.017Z,24560,0.0060736546,0.007677804,-0.007888127
1732439491020,2024-11-24T09:11:31.020Z,24563,0.0060736546,0.007677804,-0.007888127
1732439491030,2024-11-24T09:11:31.030Z,24573,0.0024440782,0.008733428,-0.00777583
1732439491032,2024-11-24T09:11:31.032Z,24575,0.0024440782,0.008733428,-0.00777583
1732439491041,2024-11-24T09:11:31.041Z,24584,-0.0055367015,0.0078081163,-0.008619527
1732439491043,2024-11-24T09:11:31.043Z,24586,-0.0055367015,0.0078081163,-0.008619527
1732439491051,2024-11-24T09:11:31.051Z,24594,0.0028333121,0.00922521,0.003127997
1732439491054,2024-11-24T09:11:31.054Z,24597,0.0028333121,0.00922521,0.003127997
1732439491063,2024-11-24T09:11:31.063Z,24606,8.821826E-4,0.010649694,-0.0011156987
1732439491066,2024-11-24T09:11:31.066Z,24609,8.821826E-4,0.010649694,-0.0011156987
1732439491075,2024-11-24T09:11:31.075Z,24618,0.0013731377,0.010118625,9.966432E-4
1732439491078,2024-11-24T09:11:31.078Z,24621,0.0013731377,0.010118625,9.966432E-4
1732439491086,2024-11-24T09:11:31.086Z,24629,-0.009125677,0.009220445,0.0021551552
1732439491088,2024-11-24T09:11:31.088Z,24631,-0.009125677,0.009220445,0.0021551552
1732439491097,2024-11-24T09:11:31.097Z,24640,-0.00754015,0.008674594,-7.9128036E-4
1732439491099,2024-11-24T09:11:31.099Z,24642,-0.00754015,0.008674594,-7.9128036E-4
1732439491108,2024-11-24T09:11:31.108Z,24651,-0.006383486,0.0051660906,-0.0032390296
1732439491111,2024-11-24T09:11:31.111Z,24654,-0.006383486,0.0051660906,-0.0032390296
1732439491118,2024-11-24T09:11:31.118Z,24661,0.0057350383,0.007100931,-1.0959817E-4
1732439491121,2024-11-24T09:11:31.121Z,24664,0.0057350383,0.007100931,-1.0959817E-4
1732439491135,2024-11-24T09:11:31.135Z,24678,0.009519579,0.006424184,-0.0030338613
1732439491143,2024-11-24T09:11:31.143Z,24686,0.009519579,0.006424184,-0.0030338613
1732439491205,2024-11-24T09:11:31.205Z,24748,0.01035941,0.0062421365,-0.0044884197
1732439491211,2024-11-24T09:11:31.211Z,24754,0.01035941,0.0062421365,-0.0044884197
1732439491233,2024-11-24T09:11:31.233Z,24776,0.011998715,0.003501404,-0.0046359687
1732439491240,2024-11-24T09:11:31.240Z,24783,0.011998715,0.003501404,-0.0046359687
1732439491261,2024-11-24T09:11:31.261Z,24804,0.009345943,0.0024088258,-0.004244109
1732439491268,2024-11-24T09:11:31.268Z,24811,0.009345943,0.0024088258,-0.004244109
1732439491288,2024-11-24T09:11:31.288Z,24831,0.008095873,0.003784881,-0.008716143
1732439491293,2024-11-24T09:11:31.293Z,24836,0.008095873,0.003784881,-0.008716143
1732439491307,2024-11-24T09:11:31.307Z,24850,0.010509561,0.006531254,-0.009400572
1732439491310,2024-11-24T09:11:31.310Z,24853,0.010509561,0.006531254,-0.009400572
1732439491323,2024-11-24T09:11:31.323Z,24866,0.00920367,0.004516184,-0.006054278
1732439491327,2024-11-24T09:11:31.327Z,24870,0.00920367,0.004516184,-0.006054278
1732439491339,2024-11-24T09:11:31.339Z,24882,0.007451217,0.0015061726,-0.0036957292
1732439491343,2024-11-24T09:11:31.343Z,24886,0.007451217,0.0015061726,-0.0036957292
1732439491355,2024-11-24T09:11:31.355Z,24898,0.011202548,0.0070535713,-0.010932612
1732439491360,2024-11-24T09:11:31.360Z,24903,0.011202548,0.0070535713,-0.010932612
1732439491373,2024-11-24T09:11:31.373Z,24916,0.013710517,0.0045913565,-0.008052597
1732439491382,2024-11-24T09:11:31.382Z,24925,0.013710517,0.0045913565,-0.008052597
1732439491393,2024-11-24T09:11:31.393Z,24936,0.0057196245,0.0017362607,-0.014827334
1732439491396,2024-11-24T09:11:31.396Z,24939,0.0057196245,0.0017362607,-0.014827334
1732439491404,2024-11-24T09:11:31.404Z,24947,0.012014809,0.0071122115,-0.01425547
1732439491406,2024-11-24T09:11:31.406Z,24949,0.012014809,0.0071122115,-0.01425547
1732439491415,2024-11-24T09:11:31.415Z,24958,0.018155467,0.0052340664,-0.017560165
1732439491419,2024-11-24T09:11:31.419Z,24962,0.018155467,0.0052340664,-0.017560165
1732439491429,2024-11-24T09:11:31.429Z,24972,7.944652E-4,0.0043746885,-0.01748103
1732439491432,2024-11-24T09:11:31.432Z,24975,7.944652E-4,0.0043746885,-0.01748103
1732439491441,2024-11-24T09:11:31.441Z,24984,-2.0635965E-4,0.0028899102,-0.020286893
1732439491443,2024-11-24T09:11:31.443Z,24986,-2.0635965E-4,0.0028899102,-0.020286893
1732439491451,2024-11-24T09:11:31.451Z,24994,0.0070836693,-0.0029770443,-0.013355029
1732439491453,2024-11-24T09:11:31.453Z,24996,0.0070836693,-0.0029770443,-0.013355029
1732439491461,2024-11-24T09:11:31.461Z,25004,0.0075250766,-1.0220735E-4,-0.013540067
1732439491464,2024-11-24T09:11:31.464Z,25007,0.0075250766,-1.0220735E-4,-0.013540067
1732439491471,2024-11-24T09:11:31.471Z,25014,0.0050099106,-0.0010665157,-0.011002801
1732439491474,2024-11-24T09:11:31.474Z,25017,0.0050099106,-0.0010665157,-0.011002801
1732439491483,2024-11-24T09:11:31.483Z,25026,3.0584408E-5,-5.524643E-4,-0.012866408
1732439491486,2024-11-24T09:11:31.486Z,25029,3.0584408E-5,-5.524643E-4,-0.012866408
1732439491495,2024-11-24T09:11:31.495Z,25038,-0.0012290652,2.8201837E-5,-0.0048564295
1732439491498,2024-11-24T09:11:31.498Z,25041,-0.0012290652,2.8201837E-5,-0.0048564295
1732439491508,2024-11-24T09:11:31.508Z,25051,1.1329359E-4,-8.8933035E-4,-0.004356041
1732439491511,2024-11-24T09:11:31.511Z,25054,1.1329359E-4,-8.8933035E-4,-0.004356041
1732439491525,2024-11-24T09:11:31.525Z,25068,0.0014823956,-0.0027960662,-0.0048345244
1732439491531,2024-11-24T09:11:31.531Z,25074,0.0014823956,-0.0027960662,-0.0048345244
1732439491548,2024-11-24T09:11:31.548Z,25091,-9.3372393E-4,0.0025387488,-0.00962694
1732439491554,2024-11-24T09:11:31.554Z,25097,-9.3372393E-4,0.0025387488,-0.00962694
1732439491575,2024-11-24T09:11:31.575Z,25118,-0.0033268929,0.002007679,-0.009556533
1732439491582,2024-11-24T09:11:31.582Z,25125,-0.0033268929,0.002007679,-0.009556533
1732439491602,2024-11-24T09:11:31.602Z,25145,-0.0032703434,0.0014723304,-0.007044211
1732439491609,2024-11-24T09:11:31.609Z,25152,-0.0032703434,0.0014723304,-0.007044211
1732439491630,2024-11-24T09:11:31.630Z,25173,-5.074872E-4,0.001743846,-0.004884023
1732439491636,2024-11-24T09:11:31.636Z,25179,-5.074872E-4,0.001743846,-0.004884023
1732439491654,2024-11-24T09:11:31.654Z,25197,0.007963712,0.004552068,-0.0052358415
1732439491658,2024-11-24T09:11:31.658Z,25201,0.007963712,0.004552068,-0.0052358415
1732439491671,2024-11-24T09:11:31.671Z,25214,0.0027743315,0.004428369,-0.0070668943
1732439491675,2024-11-24T09:11:31.675Z,25218,0.0027743315,0.004428369,-0.0070668943
1732439491688,2024-11-24T09:11:31.688Z,25231,0.0053731794,0.00646143,8.569955E-5
1732439491692,2024-11-24T09:11:31.692Z,25235,0.0053731794,0.00646143,8.569955E-5
1732439491704,2024-11-24T09:11:31.704Z,25247,0.0030987985,0.0063497894,-0.0017619584
1732439491707,2024-11-24T09:11:31.707Z,25250,0.0030987985,0.0063497894,-0.0017619584
1732439491717,2024-11-24T09:11:31.717Z,25260,0.0031572443,0.0067821527,-0.0036126797
1732439491719,2024-11-24T09:11:31.719Z,25262,0.0031572443,0.0067821527,-0.0036126797
1732439491728,2024-11-24T09:11:31.728Z,25271,0.00226947,0.002776714,-0.0019366639
1732439491731,2024-11-24T09:11:31.731Z,25274,0.00226947,0.002776714,-0.0019366639
1732439491739,2024-11-24T09:11:31.739Z,25282,0.0018160038,0.005169494,-0.003280919
1732439491742,2024-11-24T09:11:31.742Z,25285,0.0018160038,0.005169494,-0.003280919
1732439491750,2024-11-24T09:11:31.750Z,25293,-0.0010865973,0.005129817,-0.0026917923
1732439491753,2024-11-24T09:11:31.753Z,25296,-0.0010865973,0.005129817,-0.0026917923
1732439491763,2024-11-24T09:11:31.763Z,25306,-0.0035196866,0.0025960277,-0.008206419
1732439491765,2024-11-24T09:11:31.765Z,25308,-0.0035196866,0.0025960277,-0.008206419
1732439491773,2024-11-24T09:11:31.773Z,25316,-0.0035196866,0.002107747,-0.010647822
1732439491776,2024-11-24T09:11:31.776Z,25319,-0.0035196866,0.002107747,-0.010647822
1732439491788,2024-11-24T09:11:31.788Z,25331,-0.0053522224,0.0025351506,-0.011624384
1732439491791,2024-11-24T09:11:31.791Z,25334,-0.0053522224,0.0025351506,-0.011624384
1732439491799,2024-11-24T09:11:31.799Z,25342,7.887762E-4,-0.0048548975,-0.0056045074
1732439491802,2024-11-24T09:11:31.802Z,25345,7.887762E-4,-0.0048548975,-0.0056045074
1732439491810,2024-11-24T09:11:31.810Z,25353,0.0030144847,0.0017978185,-0.005912831
1732439491812,2024-11-24T09:11:31.812Z,25355,0.0030144847,0.0017978185,-0.005912831
1732439491831,2024-11-24T09:11:31.831Z,25374,0.0018316121,0.008445964,-0.0032913245
1732439491834,2024-11-24T09:11:31.834Z,25377,0.0018316121,0.008445964,-0.0032913245
1732439491850,2024-11-24T09:11:31.850Z,25393,0.0016942497,0.00939306,-0.0038892764
1732439491852,2024-11-24T09:11:31.852Z,25395,0.0016942497,0.00939306,-0.0038892764
1732439491862,2024-11-24T09:11:31.862Z,25405,4.088294E-4,0.0092761675,0.0011000176
1732439491866,2024-11-24T09:11:31.866Z,25409,4.088294E-4,0.0092761675,0.0011000176
1732439491877,2024-11-24T09:11:31.877Z,25420,0.0015339855,0.0067202062,0.0041874624
1732439491881,2024-11-24T09:11:31.881Z,25424,0.0015339855,0.0067202062,0.0041874624
1732439491891,2024-11-24T09:11:31.891Z,25434,0.0057002236,0.006998237,0.006944508
1732439491894,2024-11-24T09:11:31.894Z,25437,0.0057002236,0.006998237,0.006944508
1732439491921,2024-11-24T09:11:31.921Z,25464,0.007325865,0.011775823,0.0065536452
1732439491930,2024-11-24T09:11:31.930Z,25473,0.007325865,0.011775823,0.0065536452
1732439491946,2024-11-24T09:11:31.946Z,25489,0.008010246,0.014597951,0.0075673065
1732439491952,2024-11-24T09:11:31.952Z,25495,0.008010246,0.014597951,0.0075673065
1732439491972,2024-11-24T09:11:31.972Z,25515,0.0047706813,0.0094397385,0.011734444
1732439491979,2024-11-24T09:11:31.979Z,25522,0.0047706813,0.0094397385,0.011734444
1732439491994,2024-11-24T09:11:31.994Z,25537,-8.662826E-4,0.014243289,0.011121006
1732439491998,2024-11-24T09:11:31.998Z,25541,-8.662826E-4,0.014243289,0.011121006
1732439492009,2024-11-24T09:11:32.009Z,25552,-0.010983352,0.014731667,0.016711509
1732439492012,2024-11-24T09:11:32.012Z,25555,-0.010983352,0.014731667,0.016711509
1732439492024,2024-11-24T09:11:32.024Z,25567,0.009324694,0.0035722002,0.022703039
1732439492027,2024-11-24T09:11:32.027Z,25570,0.009324694,0.0035722002,0.022703039
1732439492036,2024-11-24T09:11:32.036Z,25579,0.018055983,0.0051147435,0.02153417
1732439492039,2024-11-24T09:11:32.039Z,25582,0.018055983,0.0051147435,0.02153417
1732439492049,2024-11-24T09:11:32.049Z,25592,0.015486115,0.009127476,0.015507898
1732439492052,2024-11-24T09:11:32.052Z,25595,0.015486115,0.009127476,0.015507898
1732439492061,2024-11-24T09:11:32.061Z,25604,0.011231576,0.0019234625,0.02013672
1732439492064,2024-11-24T09:11:32.064Z,25607,0.011231576,0.0019234625,0.02013672
1732439492072,2024-11-24T09:11:32.072Z,25615,0.005534173,-4.6075968E-4,0.020086857
1732439492075,2024-11-24T09:11:32.075Z,25618,0.005534173,-4.6075968E-4,0.020086857
1732439492083,2024-11-24T09:11:32.083Z,25626,0.0022692268,5.802771E-4,0.012703615
1732439492085,2024-11-24T09:11:32.085Z,25628,0.0022692268,5.802771E-4,0.012703615
1732439492093,2024-11-24T09:11:32.093Z,25636,0.0161704,0.0040676775,0.006657773
1732439492095,2024-11-24T09:11:32.095Z,25638,0.0161704,0.0040676775,0.006657773
1732439492103,2024-11-24T09:11:32.103Z,25646,0.018893821,0.0065134573,0.009519263
1732439492106,2024-11-24T09:11:32.106Z,25649,0.018893821,0.0065134573,0.009519263
1732439492115,2024-11-24T09:11:32.115Z,25658,0.01579789,0.004558292,0.009888343
1732439492118,2024-11-24T09:11:32.118Z,25661,0.01579789,0.004558292,0.009888343
1732439492128,2024-11-24T09:11:32.128Z,25671,0.02804099,0.0037165158,0.011795953
1732439492130,2024-11-24T09:11:32.130Z,25673,0.02804099,0.0037165158,0.011795953
1732439492147,2024-11-24T09:11:32.147Z,25690,0.017980227,0.0043472648,0.009425103
1732439492149,2024-11-24T09:11:32.149Z,25692,0.017980227,0.0043472648,0.009425103
1732439492157,2024-11-24T09:11:32.157Z,25700,0.010376185,1.1951744E-4,-3.870702E-4
1732439492159,2024-11-24T09:11:32.159Z,25702,0.010376185,1.1951744E-4,-3.870702E-4
1732439492167,2024-11-24T09:11:32.167Z,25710,0.0018609322,-0.0018911763,-0.017106626
1732439492169,2024-11-24T09:11:32.169Z,25712,0.0018609322,-0.0018911763,-0.017106626
1732439492191,2024-11-24T09:11:32.191Z,25734,-0.0012987918,-0.0025100608,-0.018986935
1732439492193,2024-11-24T09:11:32.193Z,25736,-0.0012987918,-0.0025100608,-0.018986935
1732439492202,2024-11-24T09:11:32.202Z,25745,0.003615038,-0.00846376,-0.013099729
1732439492204,2024-11-24T09:11:32.204Z,25747,0.003615038,-0.00846376,-0.013099729
1732439492212,2024-11-24T09:11:32.212Z,25755,0.0036833545,-0.0068294154,-0.017262977
1732439492215,2024-11-24T09:11:32.215Z,25758,0.0036833545,-0.0068294154,-0.017262977
1732439492237,2024-11-24T09:11:32.237Z,25780,0.0037645563,-0.0013138166,-0.021356571
1732439492240,2024-11-24T09:11:32.240Z,25783,0.0037645563,-0.0013138166,-0.021356571
1732439492251,2024-11-24T09:11:32.251Z,25794,0.0029220507,-0.0037078608,-0.024119355
1732439492254,2024-11-24T09:11:32.254Z,25797,0.0029220507,-0.0037078608,-0.024119355
1732439492263,2024-11-24T09:11:32.263Z,25806,-0.0012772515,-0.009080797,-0.024463708
1732439492266,2024-11-24T09:11:32.266Z,25809,-0.0012772515,-0.009080797,-0.024463708
1732439492281,2024-11-24T09:11:32.281Z,25824,7.897001E-4,-0.0076178997,-0.026615167
1732439492284,2024-11-24T09:11:32.284Z,25827,7.897001E-4,-0.0076178997,-0.026615167
1732439492294,2024-11-24T09:11:32.294Z,25837,0.013816664,0.0061221328,-0.02560316
1732439492298,2024-11-24T09:11:32.298Z,25841,0.013816664,0.0061221328,-0.02560316
1732439492310,2024-11-24T09:11:32.310Z,25853,0.012296195,0.012496818,-0.022670995
1732439492317,2024-11-24T09:11:32.317Z,25860,0.012296195,0.012496818,-0.022670995
1732439492336,2024-11-24T09:11:32.336Z,25879,0.0053444915,0.009151594,-0.020773036
1732439492345,2024-11-24T09:11:32.345Z,25888,0.0053444915,0.009151594,-0.020773036
1732439492365,2024-11-24T09:11:32.365Z,25908,0.0026946368,-1.9449542E-5,-0.016874619
1732439492371,2024-11-24T09:11:32.371Z,25914,0.0026946368,-1.9449542E-5,-0.016874619
1732439492383,2024-11-24T09:11:32.383Z,25926,0.001648446,1.2447707E-5,-0.011494072
1732439492386,2024-11-24T09:11:32.386Z,25929,0.001648446,1.2447707E-5,-0.011494072
1732439492398,2024-11-24T09:11:32.398Z,25941,0.0031503884,0.0019551653,-0.011035209
1732439492401,2024-11-24T09:11:32.401Z,25944,0.0031503884,0.0019551653,-0.011035209
1732439492413,2024-11-24T09:11:32.413Z,25956,-0.0060188067,-0.009235129,-0.009421528
1732439492416,2024-11-24T09:11:32.416Z,25959,-0.0060188067,-0.009235129,-0.009421528
1732439492426,2024-11-24T09:11:32.426Z,25969,-0.007550799,-0.008190883,-0.010032512
1732439492429,2024-11-24T09:11:32.429Z,25972,-0.007550799,-0.008190883,-0.010032512
1732439492439,2024-11-24T09:11:32.439Z,25982,-0.006711016,-0.0046833525,-0.009622565
1732439492441,2024-11-24T09:11:32.441Z,25984,-0.006711016,-0.0046833525,-0.009622565
1732439492449,2024-11-24T09:11:32.449Z,25992,-0.0069949795,-0.005018371,-0.006247169
1732439492452,2024-11-24T09:11:32.452Z,25995,-0.0069949795,-0.005018371,-0.006247169
1732439492460,2024-11-24T09:11:32.460Z,26003,-0.0051830113,-0.0059282207,-0.010627231
1732439492463,2024-11-24T09:11:32.463Z,26006,-0.0051830113,-0.0059282207,-0.010627231
1732439492471,2024-11-24T09:11:32.471Z,26014,-0.007242183,-0.006366808,-0.007685852
1732439492474,2024-11-24T09:11:32.474Z,26017,-0.007242183,-0.006366808,-0.007685852
1732439492484,2024-11-24T09:11:32.484Z,26027,-0.005623155,-0.003944562,-0.006917692
1732439492487,2024-11-24T09:11:32.487Z,26030,-0.005623155,-0.003944562,-0.006917692
1732439492498,2024-11-24T09:11:32.498Z,26041,-0.008028382,-5.366129E-4,-0.010365026
1732439492501,2024-11-24T09:11:32.501Z,26044,-0.008028382,-5.366129E-4,-0.010365026
1732439492513,2024-11-24T09:11:32.513Z,26056,-0.008962447,0.0019176276,-0.005115838
1732439492516,2024-11-24T09:11:32.516Z,26059,-0.008962447,0.0019176276,-0.005115838
1732439492523,2024-11-24T09:11:32.523Z,26066,0.011544422,-1.3225689E-5,-0.003729304
1732439492525,2024-11-24T09:11:32.525Z,26068,0.011544422,-1.3225689E-5,-0.003729304
1732439492533,2024-11-24T09:11:32.533Z,26076,0.015289626,0.002483901,-0.005106064
1732439492535,2024-11-24T09:11:32.535Z,26078,0.015289626,0.002483901,-0.005106064
1732439492552,2024-11-24T09:11:32.552Z,26095,0.016544316,0.0059751915,-0.007433834
1732439492557,2024-11-24T09:11:32.557Z,26100,0.016544316,0.0059751915,-0.007433834
1732439492571,2024-11-24T09:11:32.571Z,26114,-0.022514937,0.010260412,0.0028173393
1732439492573,2024-11-24T09:11:32.573Z,26116,-0.022514937,0.010260412,0.0028173393
1732439492582,2024-11-24T09:11:32.582Z,26125,-0.016897958,0.0031058004,-0.007611092
1732439492584,2024-11-24T09:11:32.584Z,26127,-0.016897958,0.0031058004,-0.007611092
1732439492598,2024-11-24T09:11:32.598Z,26141,0.0020903882,-0.0029696533,-0.021283368
1732439492604,2024-11-24T09:11:32.604Z,26147,0.0020903882,-0.0029696533,-0.021283368
1732439492621,2024-11-24T09:11:32.621Z,26164,0.002467758,4.3994866E-4,-0.01616325
1732439492627,2024-11-24T09:11:32.627Z,26170,0.002467758,4.3994866E-4,-0.01616325
1732439492644,2024-11-24T09:11:32.644Z,26187,-0.0022012508,0.009839232,-0.025383038
1732439492648,2024-11-24T09:11:32.648Z,26191,-0.0022012508,0.009839232,-0.025383038
1732439492662,2024-11-24T09:11:32.662Z,26205,0.017366935,0.0070977216,-0.025731405
1732439492667,2024-11-24T09:11:32.667Z,26210,0.017366935,0.0070977216,-0.025731405
1732439492685,2024-11-24T09:11:32.685Z,26228,0.01890486,0.0033083672,-0.029287584
1732439492689,2024-11-24T09:11:32.689Z,26232,0.01890486,0.0033083672,-0.029287584
1732439492700,2024-11-24T09:11:32.700Z,26243,0.010135011,0.0069475714,-0.029230596
1732439492704,2024-11-24T09:11:32.704Z,26247,0.010135011,0.0069475714,-0.029230596
1732439492715,2024-11-24T09:11:32.715Z,26258,0.0033796984,0.004249336,-0.029808175
1732439492718,2024-11-24T09:11:32.718Z,26261,0.0033796984,0.004249336,-0.029808175
1732439492729,2024-11-24T09:11:32.729Z,26272,-3.374982E-4,-0.0026288002,-0.014836647
1732439492732,2024-11-24T09:11:32.732Z,26275,-3.374982E-4,-0.0026288002,-0.014836647
1732439492740,2024-11-24T09:11:32.740Z,26283,-0.007725942,-0.008013406,-0.008323942
1732439492743,2024-11-24T09:11:32.743Z,26286,-0.007725942,-0.008013406,-0.008323942
1732439492751,2024-11-24T09:11:32.751Z,26294,-0.008304809,-0.010952719,-0.0105652595
1732439492754,2024-11-24T09:11:32.754Z,26297,-0.008304809,-0.010952719,-0.0105652595
1732439492762,2024-11-24T09:11:32.762Z,26305,-9.1053033E-4,-0.003881837,-0.001969558
1732439492765,2024-11-24T09:11:32.765Z,26308,-9.1053033E-4,-0.003881837,-0.001969558
1732439492782,2024-11-24T09:11:32.782Z,26325,0.0026552517,0.002260815,-0.0034552598
1732439492788,2024-11-24T09:11:32.788Z,26331,0.0026552517,0.002260815,-0.0034552598
1732439492803,2024-11-24T09:11:32.803Z,26346,0.0067353765,5.7813764E-4,-0.0044505903
1732439492806,2024-11-24T09:11:32.806Z,26349,0.0067353765,5.7813764E-4,-0.0044505903
1732439492821,2024-11-24T09:11:32.821Z,26364,3.8393398E-4,0.0011590956,-0.0025432708
1732439492827,2024-11-24T09:11:32.827Z,26370,3.8393398E-4,0.0011590956,-0.0025432708
1732439492846,2024-11-24T09:11:32.846Z,26389,0.008050992,0.0057020225,-0.009258955
1732439492852,2024-11-24T09:11:32.852Z,26395,0.008050992,0.0057020225,-0.009258955
1732439492866,2024-11-24T09:11:32.866Z,26409,6.486422E-5,0.015625179,-0.006676712
1732439492870,2024-11-24T09:11:32.870Z,26413,6.486422E-5,0.015625179,-0.006676712
1732439492882,2024-11-24T09:11:32.882Z,26425,0.0028729893,0.008523665,-0.0064667542
1732439492886,2024-11-24T09:11:32.886Z,26429,0.0028729893,0.008523665,-0.0064667542
1732439492897,2024-11-24T09:11:32.897Z,26440,0.016994622,0.0027128223,0.010781125
1732439492900,2024-11-24T09:11:32.900Z,26443,0.016994622,0.0027128223,0.010781125
1732439492910,2024-11-24T09:11:32.910Z,26453,0.014709154,0.008843512,0.014718369
1732439492913,2024-11-24T09:11:32.913Z,26456,0.014709154,0.008843512,0.014718369
1732439492921,2024-11-24T09:11:32.921Z,26464,0.0144056445,0.00912981,0.012688006
1732439492924,2024-11-24T09:11:32.924Z,26467,0.0144056445,0.00912981,0.012688006
1732439492932,2024-11-24T09:11:32.932Z,26475,0.009370304,0.012229484,0.014230282
1732439492936,2024-11-24T09:11:32.936Z,26479,0.009370304,0.012229484,0.014230282
1732439492944,2024-11-24T09:11:32.944Z,26487,0.008532806,0.012113953,0.014891494
1732439492947,2024-11-24T09:11:32.947Z,26490,0.008532806,0.012113953,0.014891494
1732439492956,2024-11-24T09:11:32.956Z,26499,0.010126842,0.012023805,0.020847138
1732439492961,2024-11-24T09:11:32.961Z,26504,0.010126842,0.012023805,0.020847138
1732439492970,2024-11-24T09:11:32.970Z,26513,0.011718496,0.015786903,0.02114817
1732439492973,2024-11-24T09:11:32.973Z,26516,0.011718496,0.015786903,0.02114817
1732439492982,2024-11-24T09:11:32.982Z,26525,0.018591916,0.014286273,0.025119206
1732439492984,2024-11-24T09:11:32.984Z,26527,0.018591916,0.014286273,0.025119206
1732439492991,2024-11-24T09:11:32.991Z,26534,0.018606551,0.011822794,0.026151272
1732439492994,2024-11-24T09:11:32.994Z,26537,0.018606551,0.011822794,0.026151272
1732439493003,2024-11-24T09:11:33.003Z,26546,0.008161271,-0.0021018148,0.030994574
1732439493005,2024-11-24T09:11:33.005Z,26548,0.008161271,-0.0021018148,0.030994574
1732439493013,2024-11-24T09:11:33.013Z,26556,0.0021761607,-0.0014236093,0.025633743
1732439493015,2024-11-24T09:11:33.015Z,26558,0.0021761607,-0.0014236093,0.025633743
1732439493022,2024-11-24T09:11:33.022Z,26565,-9.1646245E-4,-0.0031582168,0.02365473
1732439493025,2024-11-24T09:11:33.025Z,26568,-9.1646245E-4,-0.0031582168,0.02365473
1732439493053,2024-11-24T09:11:33.053Z,26596,0.005251717,-0.004534661,0.021282103
1732439493059,2024-11-24T09:11:33.059Z,26602,0.005251717,-0.004534661,0.021282103
1732439493079,2024-11-24T09:11:33.079Z,26622,2.34367E-5,-0.004731004,0.020350907
1732439493086,2024-11-24T09:11:33.086Z,26629,2.34367E-5,-0.004731004,0.020350907
1732439493104,2024-11-24T09:11:33.104Z,26647,-0.0022060159,-0.005428076,0.017875321
1732439493109,2024-11-24T09:11:33.109Z,26652,-0.0022060159,-0.005428076,0.017875321
1732439493128,2024-11-24T09:11:33.128Z,26671,-0.004479327,-0.00598832,0.013590781
1732439493133,2024-11-24T09:11:33.133Z,26676,-0.004479327,-0.00598832,0.013590781
1732439493163,2024-11-24T09:11:33.163Z,26706,-0.009119744,-0.0052017802,0.012461419
1732439493169,2024-11-24T09:11:33.169Z,26712,-0.009119744,-0.0052017802,0.012461419
1732439493184,2024-11-24T09:11:33.184Z,26727,-0.005481027,-0.0073465784,0.004057369
1732439493187,2024-11-24T09:11:33.187Z,26730,-0.005481027,-0.0073465784,0.004057369
1732439493199,2024-11-24T09:11:33.199Z,26742,-0.0011990643,-0.0023611744,-0.010664014
1732439493202,2024-11-24T09:11:33.202Z,26745,-0.0011990643,-0.0023611744,-0.010664014
1732439493213,2024-11-24T09:11:33.213Z,26756,4.016817E-4,0.0038239746,-0.013153045
1732439493217,2024-11-24T09:11:33.217Z,26760,4.016817E-4,0.0038239746,-0.013153045
1732439493226,2024-11-24T09:11:33.226Z,26769,-0.0028245111,-0.0017229378,-0.013254207
1732439493229,2024-11-24T09:11:33.229Z,26772,-0.0028245111,-0.0017229378,-0.013254207
1732439493238,2024-11-24T09:11:33.238Z,26781,-0.010264886,-2.1715414E-4,-0.023712128
1732439493241,2024-11-24T09:11:33.241Z,26784,-0.010264886,-2.1715414E-4,-0.023712128
1732439493249,2024-11-24T09:11:33.249Z,26792,-0.010197444,0.0064773783,-0.021259567
1732439493251,2024-11-24T09:11:33.251Z,26794,-0.010197444,0.0064773783,-0.021259567
1732439493258,2024-11-24T09:11:33.258Z,26801,-0.011999882,0.013587159,-0.032365546
1732439493261,2024-11-24T09:11:33.261Z,26804,-0.011999882,0.013587159,-0.032365546
1732439493270,2024-11-24T09:11:33.270Z,26813,-0.01371504,0.011161704,-0.031844396
1732439493273,2024-11-24T09:11:33.273Z,26816,-0.01371504,0.011161704,-0.031844396
1732439493281,2024-11-24T09:11:33.281Z,26824,-0.012699239,0.012406377,-0.027099486
1732439493284,2024-11-24T09:11:33.284Z,26827,-0.012699239,0.012406377,-0.027099486
1732439493293,2024-11-24T09:11:33.293Z,26836,-0.018947648,0.01799744,-0.028150441
1732439493296,2024-11-24T09:11:33.296Z,26839,-0.018947648,0.01799744,-0.028150441
1732439493304,2024-11-24T09:11:33.304Z,26847,-0.015875252,0.02621001,-0.03440099
1732439493306,2024-11-24T09:11:33.306Z,26849,-0.015875252,0.02621001,-0.03440099
1732439493315,2024-11-24T09:11:33.315Z,26858,-0.023227131,0.021540757,-0.039099988
1732439493318,2024-11-24T09:11:33.318Z,26861,-0.023227131,0.021540757,-0.039099988
1732439493326,2024-11-24T09:11:33.326Z,26869,-0.027133863,0.01585089,-0.038320135
1732439493328,2024-11-24T09:11:33.328Z,26871,-0.027133863,0.01585089,-0.038320135
1732439493336,2024-11-24T09:11:33.336Z,26879,-0.026374407,0.022146417,-0.034336247
1732439493338,2024-11-24T09:11:33.338Z,26881,-0.026374407,0.022146417,-0.034336247
1732439493346,2024-11-24T09:11:33.346Z,26889,-0.02882432,0.02029657,-0.024506982
1732439493348,2024-11-24T09:11:33.348Z,26891,-0.02882432,0.02029657,-0.024506982
1732439493364,2024-11-24T09:11:33.364Z,26907,-0.023939032,0.017487764,-0.021594949
1732439493367,2024-11-24T09:11:33.367Z,26910,-0.023939032,0.017487764,-0.021594949
1732439493377,2024-11-24T09:11:33.377Z,26920,-0.019872278,-1.11348636E-4,-0.022791874
1732439493380,2024-11-24T09:11:33.380Z,26923,-0.019872278,-1.11348636E-4,-0.022791874
1732439493387,2024-11-24T09:11:33.387Z,26930,-0.027297433,-0.0028248515,-0.016605947
1732439493390,2024-11-24T09:11:33.390Z,26933,-0.027297433,-0.0028248515,-0.016605947
1732439493406,2024-11-24T09:11:33.406Z,26949,-0.030654473,-7.441395E-4,-0.016749898
1732439493408,2024-11-24T09:11:33.408Z,26951,-0.030654473,-7.441395E-4,-0.016749898
1732439493456,2024-11-24T09:11:33.456Z,26999,-0.04135751,0.003023237,-0.029067585
1732439493460,2024-11-24T09:11:33.460Z,27003,-0.04135751,0.003023237,-0.029067585
1732439493471,2024-11-24T09:11:33.471Z,27014,-0.03880636,-0.0040229433,-0.029486286
1732439493474,2024-11-24T09:11:33.474Z,27017,-0.03880636,-0.0040229433,-0.029486286
1732439493485,2024-11-24T09:11:33.485Z,27028,-0.033270292,-0.012563919,-0.027457066
1732439493488,2024-11-24T09:11:33.488Z,27031,-0.033270292,-0.012563919,-0.027457066
1732439493501,2024-11-24T09:11:33.501Z,27044,-0.027286543,-0.012222871,-0.020434735
1732439493504,2024-11-24T09:11:33.504Z,27047,-0.027286543,-0.012222871,-0.020434735
1732439493514,2024-11-24T09:11:33.514Z,27057,-0.016119296,-0.013077873,-0.015502696
1732439493517,2024-11-24T09:11:33.517Z,27060,-0.016119296,-0.013077873,-0.015502696
1732439493531,2024-11-24T09:11:33.531Z,27074,-0.00829241,-0.013474643,-0.018418157
1732439493537,2024-11-24T09:11:33.537Z,27080,-0.00829241,-0.013474643,-0.018418157
1732439493596,2024-11-24T09:11:33.596Z,27139,0.020339409,-0.0155146085,-0.030127695
1732439493605,2024-11-24T09:11:33.605Z,27148,0.020339409,-0.0155146085,-0.030127695
1732439493632,2024-11-24T09:11:33.632Z,27175,0.028913252,-0.013780293,-0.02499676
1732439493639,2024-11-24T09:11:33.639Z,27182,0.028913252,-0.013780293,-0.02499676
1732439493662,2024-11-24T09:11:33.662Z,27205,0.03504715,-0.013534548,-0.02220626
1732439493669,2024-11-24T09:11:33.669Z,27212,0.03504715,-0.013534548,-0.02220626
1732439493728,2024-11-24T09:11:33.728Z,27271,0.027844986,-0.014039847,-0.020535156
1732439493734,2024-11-24T09:11:33.734Z,27277,0.027844986,-0.014039847,-0.020535156
1732439493753,2024-11-24T09:11:33.753Z,27296,0.03577092,-0.020097407,-0.023421273
1732439493758,2024-11-24T09:11:33.758Z,27301,0.03577092,-0.020097407,-0.023421273
1732439493771,2024-11-24T09:11:33.771Z,27314,0.043523703,-0.022202432,-0.02173563
1732439493775,2024-11-24T09:11:33.775Z,27318,0.043523703,-0.022202432,-0.02173563
1732439493788,2024-11-24T09:11:33.788Z,27331,0.04193754,-0.025256788,-0.013673114
1732439493792,2024-11-24T09:11:33.792Z,27335,0.04193754,-0.025256788,-0.013673114
1732439493803,2024-11-24T09:11:33.803Z,27346,0.037488654,0.0033743011,0.004534442
1732439493806,2024-11-24T09:11:33.806Z,27349,0.037488654,0.0033743011,0.004534442
1732439493817,2024-11-24T09:11:33.817Z,27360,0.047871355,-2.1345873E-4,0.010422329
1732439493820,2024-11-24T09:11:33.820Z,27363,0.047871355,-2.1345873E-4,0.010422329
1732439493829,2024-11-24T09:11:33.829Z,27372,0.053218376,-0.0012673322,0.018206304
1732439493832,2024-11-24T09:11:33.832Z,27375,0.053218376,-0.0012673322,0.018206304
1732439493840,2024-11-24T09:11:33.840Z,27383,0.056085575,3.360881E-4,0.02981368
1732439493842,2024-11-24T09:11:33.842Z,27385,0.056085575,3.360881E-4,0.02981368
1732439493860,2024-11-24T09:11:33.860Z,27403,0.035840258,-0.0053797434,0.0481886
1732439493863,2024-11-24T09:11:33.863Z,27406,0.035840258,-0.0053797434,0.0481886
1732439493872,2024-11-24T09:11:33.872Z,27415,0.030002963,-0.010299506,0.047812324
1732439493876,2024-11-24T09:11:33.876Z,27419,0.030002963,-0.010299506,0.047812324
1732439493885,2024-11-24T09:11:33.885Z,27428,0.029402554,-0.0151391355,0.043480646
1732439493888,2024-11-24T09:11:33.888Z,27431,0.029402554,-0.0151391355,0.043480646
1732439493905,2024-11-24T09:11:33.905Z,27448,0.012918727,-0.021738462,0.04328429
1732439493912,2024-11-24T09:11:33.912Z,27455,0.012918727,-0.021738462,0.04328429
1732439493931,2024-11-24T09:11:33.931Z,27474,-7.750157E-4,-0.0037105838,0.033758756
1732439493936,2024-11-24T09:11:33.936Z,27479,-7.750157E-4,-0.0037105838,0.033758756
1732439493951,2024-11-24T09:11:33.951Z,27494,-0.0022723873,0.0017914001,0.030875469
1732439493954,2024-11-24T09:11:33.954Z,27497,-0.0022723873,0.0017914001,0.030875469
1732439493963,2024-11-24T09:11:33.963Z,27506,-0.0018210607,0.0024196203,0.026993912
1732439493966,2024-11-24T09:11:33.966Z,27509,-0.0018210607,0.0024196203,0.026993912
1732439493980,2024-11-24T09:11:33.980Z,27523,-0.008249426,0.005621307,0.0202814
1732439493983,2024-11-24T09:11:33.983Z,27526,-0.008249426,0.005621307,0.0202814
1732439493996,2024-11-24T09:11:33.996Z,27539,-0.0073506143,0.006260905,0.017443396
1732439494001,2024-11-24T09:11:34.001Z,27544,-0.0073506143,0.006260905,0.017443396
1732439494018,2024-11-24T09:11:34.018Z,27561,-0.009470128,0.0049909474,0.009742932
1732439494024,2024-11-24T09:11:34.024Z,27567,-0.009470128,0.0049909474,0.009742932
1732439494043,2024-11-24T09:11:34.043Z,27586,-0.012391547,0.0054663913,6.8446586E-4
1732439494048,2024-11-24T09:11:34.048Z,27591,-0.012391547,0.0054663913,6.8446586E-4
1732439494062,2024-11-24T09:11:34.062Z,27605,-0.010714704,0.003288626,2.913906E-4
1732439494065,2024-11-24T09:11:34.065Z,27608,-0.010714704,0.003288626,2.913906E-4
1732439494074,2024-11-24T09:11:34.074Z,27617,-0.010479025,0.003544582,-0.0010859531
1732439494077,2024-11-24T09:11:34.077Z,27620,-0.010479025,0.003544582,-0.0010859531
1732439494087,2024-11-24T09:11:34.087Z,27630,-0.016857551,-0.0024411122,-0.011432113
1732439494089,2024-11-24T09:11:34.089Z,27632,-0.016857551,-0.0024411122,-0.011432113
1732439494098,2024-11-24T09:11:34.098Z,27641,-0.016988836,0.0033250938,-0.015608477
1732439494101,2024-11-24T09:11:34.101Z,27644,-0.016988836,0.0033250938,-0.015608477
1732439494112,2024-11-24T09:11:34.112Z,27655,-0.019293023,0.0050082575,-0.01866609
1732439494118,2024-11-24T09:11:34.118Z,27661,-0.019293023,0.0050082575,-0.01866609
1732439494141,2024-11-24T09:11:34.141Z,27684,-0.010366169,0.0020917011,-0.022943081
1732439494148,2024-11-24T09:11:34.148Z,27691,-0.010366169,0.0020917011,-0.022943081
1732439494170,2024-11-24T09:11:34.170Z,27713,-0.0079596285,0.014067757,-0.020064574
1732439494177,2024-11-24T09:11:34.177Z,27720,-0.0079596285,0.014067757,-0.020064574
1732439494196,2024-11-24T09:11:34.196Z,27739,-8.981313E-4,0.031245107,-0.025355944
1732439494201,2024-11-24T09:11:34.201Z,27744,-8.981313E-4,0.031245107,-0.025355944
1732439494214,2024-11-24T09:11:34.214Z,27757,0.009509514,0.021147294,-0.036900368
1732439494219,2024-11-24T09:11:34.219Z,27762,0.009509514,0.021147294,-0.036900368
1732439494232,2024-11-24T09:11:34.232Z,27775,0.035206445,6.102294E-4,-0.03207722
1732439494235,2024-11-24T09:11:34.235Z,27778,0.035206445,6.102294E-4,-0.03207722
1732439494247,2024-11-24T09:11:34.247Z,27790,0.032133903,0.0063729347,-0.029869027
1732439494250,2024-11-24T09:11:34.250Z,27793,0.032133903,0.0063729347,-0.029869027
1732439494261,2024-11-24T09:11:34.261Z,27804,0.026046244,0.0058610225,-0.028755201
1732439494264,2024-11-24T09:11:34.264Z,27807,0.026046244,0.0058610225,-0.028755201
1732439494275,2024-11-24T09:11:34.275Z,27818,0.014545584,-8.4109546E-4,-0.030521974
1732439494277,2024-11-24T09:11:34.277Z,27820,0.014545584,-8.4109546E-4,-0.030521974
1732439494287,2024-11-24T09:11:34.287Z,27830,0.010601605,-0.0031234021,-0.030976862
1732439494290,2024-11-24T09:11:34.290Z,27833,0.010601605,-0.0031234021,-0.030976862
1732439494299,2024-11-24T09:11:34.299Z,27842,0.008984668,-0.0033885967,-0.028511912
1732439494301,2024-11-24T09:11:34.301Z,27844,0.008984668,-0.0033885967,-0.028511912
1732439494309,2024-11-24T09:11:34.309Z,27852,0.0019215662,-0.0045922315,-0.03140773
1732439494312,2024-11-24T09:11:34.312Z,27855,0.0019215662,-0.0045922315,-0.03140773
1732439494320,2024-11-24T09:11:34.320Z,27863,-0.00792705,-0.012280733,-0.033401076
1732439494323,2024-11-24T09:11:34.323Z,27866,-0.00792705,-0.012280733,-0.033401076
1732439494331,2024-11-24T09:11:34.331Z,27874,-0.0111882035,-0.015846904,-0.03589688
1732439494333,2024-11-24T09:11:34.333Z,27876,-0.0111882035,-0.015846904,-0.03589688
1732439494341,2024-11-24T09:11:34.341Z,27884,-0.014940167,-0.012099269,-0.036383484
1732439494343,2024-11-24T09:11:34.343Z,27886,-0.014940167,-0.012099269,-0.036383484
1732439494398,2024-11-24T09:11:34.398Z,27941,-0.01149502,0.0045018885,-0.03463099
1732439494401,2024-11-24T09:11:34.401Z,27944,-0.01149502,0.0045018885,-0.03463099
1732439494414,2024-11-24T09:11:34.414Z,27957,-0.0077345483,0.015428156,-0.032949433
1732439494420,2024-11-24T09:11:34.420Z,27963,-0.0077345483,0.015428156,-0.032949433
1732439494438,2024-11-24T09:11:34.438Z,27981,-0.003548715,0.025980407,-0.030160965
1732439494445,2024-11-24T09:11:34.445Z,27988,-0.003548715,0.025980407,-0.030160965
1732439494462,2024-11-24T09:11:34.462Z,28005,-1.5219268E-4,0.042459324,-0.02919374
1732439494467,2024-11-24T09:11:34.467Z,28010,-1.5219268E-4,0.042459324,-0.02919374
1732439494478,2024-11-24T09:11:34.478Z,28021,-0.014583462,0.049123906,-0.028617779
1732439494481,2024-11-24T09:11:34.481Z,28024,-0.014583462,0.049123906,-0.028617779
1732439494491,2024-11-24T09:11:34.491Z,28034,-0.019858664,0.051841296,-0.03011921
1732439494494,2024-11-24T09:11:34.494Z,28037,-0.019858664,0.051841296,-0.03011921
1732439494503,2024-11-24T09:11:34.503Z,28046,-0.017968412,0.047301874,-0.031519674
1732439494506,2024-11-24T09:11:34.506Z,28049,-0.017968412,0.047301874,-0.031519674
1732439494516,2024-11-24T09:11:34.516Z,28059,-0.038006302,0.038109142,-0.0076821563
1732439494522,2024-11-24T09:11:34.522Z,28065,-0.038006302,0.038109142,-0.0076821563
1732439494540,2024-11-24T09:11:34.540Z,28083,-0.04563388,0.031313766,-0.0065766927
1732439494545,2024-11-24T09:11:34.545Z,28088,-0.04563388,0.031313766,-0.0065766927
1732439494561,2024-11-24T09:11:34.561Z,28104,-0.05581795,0.023355108,-0.009971538
1732439494568,2024-11-24T09:11:34.568Z,28111,-0.05581795,0.023355108,-0.009971538
1732439494591,2024-11-24T09:11:34.591Z,28134,-0.061222203,0.00395487,-4.175209E-4
1732439494595,2024-11-24T09:11:34.595Z,28138,-0.061222203,0.00395487,-4.175209E-4
1732439494607,2024-11-24T09:11:34.607Z,28150,-0.06034814,-0.006827762,0.0027161774
1732439494610,2024-11-24T09:11:34.610Z,28153,-0.06034814,-0.006827762,0.0027161774
1732439494622,2024-11-24T09:11:34.622Z,28165,-0.058284737,-0.012804509,0.0034755724
1732439494626,2024-11-24T09:11:34.626Z,28169,-0.058284737,-0.012804509,0.0034755724
1732439494636,2024-11-24T09:11:34.636Z,28179,-0.051243808,-0.004986474,0.00785747
1732439494639,2024-11-24T09:11:34.639Z,28182,-0.051243808,-0.004986474,0.00785747
1732439494648,2024-11-24T09:11:34.648Z,28191,-0.04525437,-9.6557254E-4,-7.82443E-4
1732439494651,2024-11-24T09:11:34.651Z,28194,-0.04525437,-9.6557254E-4,-7.82443E-4
1732439494659,2024-11-24T09:11:34.659Z,28202,-0.03960486,0.0061275787,-0.0074929
1732439494662,2024-11-24T09:11:34.662Z,28205,-0.03960486,0.0061275787,-0.0074929
1732439494670,2024-11-24T09:11:34.670Z,28213,-0.03162977,0.027104106,-0.013583281
1732439494674,2024-11-24T09:11:34.674Z,28217,-0.03162977,0.027104106,-0.013583281
1732439494686,2024-11-24T09:11:34.686Z,28229,-0.025877908,0.036124416,-0.015520905
1732439494690,2024-11-24T09:11:34.690Z,28233,-0.025877908,0.036124416,-0.015520905
1732439494714,2024-11-24T09:11:34.714Z,28257,-0.0011612836,0.027338471,-1.6218488E-4
1732439494717,2024-11-24T09:11:34.717Z,28260,-0.0011612836,0.027338471,-1.6218488E-4
1732439494724,2024-11-24T09:11:34.724Z,28267,0.0023909323,0.023245802,0.0015452054
1732439494727,2024-11-24T09:11:34.727Z,28270,0.0023909323,0.023245802,0.0015452054
1732439494735,2024-11-24T09:11:34.735Z,28278,0.011314091,0.01720312,0.0022947665
1732439494737,2024-11-24T09:11:34.737Z,28280,0.011314091,0.01720312,0.0022947665
1732439494757,2024-11-24T09:11:34.757Z,28300,0.039141037,-0.0020660276,0.004392108
1732439494760,2024-11-24T09:11:34.760Z,28303,0.039141037,-0.0020660276,0.004392108
1732439494769,2024-11-24T09:11:34.769Z,28312,0.044554383,-0.008528625,0.0065974793
1732439494772,2024-11-24T09:11:34.772Z,28315,0.044554383,-0.008528625,0.0065974793
1732439494780,2024-11-24T09:11:34.780Z,28323,0.03486175,-0.0071832025,0.0053596376
1732439494783,2024-11-24T09:11:34.783Z,28326,0.03486175,-0.0071832025,0.0053596376
1732439494849,2024-11-24T09:11:34.849Z,28392,0.053804778,-0.0131762875,0.014741914
1732439494852,2024-11-24T09:11:34.852Z,28395,0.053804778,-0.0131762875,0.014741914
1732439494860,2024-11-24T09:11:34.860Z,28403,0.04228131,-0.027948605,0.008377392
1732439494863,2024-11-24T09:11:34.863Z,28406,0.04228131,-0.027948605,0.008377392
1732439494872,2024-11-24T09:11:34.872Z,28415,0.039522786,-0.02782899,0.0027002774
1732439494875,2024-11-24T09:11:34.875Z,28418,0.039522786,-0.02782899,0.0027002774
1732439494893,2024-11-24T09:11:34.893Z,28436,0.04006664,-0.031055085,-6.011246E-4
1732439494896,2024-11-24T09:11:34.896Z,28439,0.04006664,-0.031055085,-6.011246E-4
1732439494905,2024-11-24T09:11:34.905Z,28448,0.055411212,-0.027806137,-0.0027158977
1732439494908,2024-11-24T09:11:34.908Z,28451,0.055411212,-0.027806137,-0.0027158977
1732439494919,2024-11-24T09:11:34.919Z,28462,0.04909225,-0.025416566,-0.005943756
1732439494922,2024-11-24T09:11:34.922Z,28465,0.04909225,-0.025416566,-0.005943756
1732439494932,2024-11-24T09:11:34.932Z,28475,0.039904676,-0.027946172,-0.012072514
1732439494935,2024-11-24T09:11:34.935Z,28478,0.039904676,-0.027946172,-0.012072514
1732439494944,2024-11-24T09:11:34.944Z,28487,0.031823196,-0.02517257,-0.010861998
1732439494947,2024-11-24T09:11:34.947Z,28490,0.031823196,-0.02517257,-0.010861998
1732439494956,2024-11-24T09:11:34.956Z,28499,0.040538292,-0.025569245,-0.0135253705
1732439494958,2024-11-24T09:11:34.958Z,28501,0.040538292,-0.025569245,-0.0135253705
1732439494966,2024-11-24T09:11:34.966Z,28509,0.046829004,-0.02123472,-0.012090747
1732439494968,2024-11-24T09:11:34.968Z,28511,0.046829004,-0.02123472,-0.012090747
1732439494988,2024-11-24T09:11:34.988Z,28531,0.042703416,-0.007041318,-0.010910489
1732439494994,2024-11-24T09:11:34.994Z,28537,0.042703416,-0.007041318,-0.010910489
1732439495008,2024-11-24T09:11:35.008Z,28551,0.03771777,-0.006780208,-0.0024304148
1732439495011,2024-11-24T09:11:35.011Z,28554,0.03771777,-0.006780208,-0.0024304148
1732439495021,2024-11-24T09:11:35.021Z,28564,0.039038636,-0.014279271,5.1647046E-4
1732439495027,2024-11-24T09:11:35.027Z,28570,0.039038636,-0.014279271,5.1647046E-4
1732439495043,2024-11-24T09:11:35.043Z,28586,0.04194542,-0.021596676,-0.008736054
1732439495048,2024-11-24T09:11:35.048Z,28591,0.04194542,-0.021596676,-0.008736054
1732439495067,2024-11-24T09:11:35.067Z,28610,0.039873995,-0.013234734,-0.010700799
1732439495074,2024-11-24T09:11:35.074Z,28617,0.039873995,-0.013234734,-0.010700799
1732439495090,2024-11-24T09:11:35.090Z,28633,0.03870853,-0.010688399,-0.0131974025
1732439495094,2024-11-24T09:11:35.094Z,28637,0.03870853,-0.010688399,-0.0131974025
1732439495110,2024-11-24T09:11:35.110Z,28653,0.02488812,-0.019025445,-0.01780281
1732439495118,2024-11-24T09:11:35.118Z,28661,0.02488812,-0.019025445,-0.01780281
1732439495137,2024-11-24T09:11:35.137Z,28680,0.034392625,-0.010072432,-0.015535408
1732439495140,2024-11-24T09:11:35.140Z,28683,0.034392625,-0.010072432,-0.015535408
1732439495150,2024-11-24T09:11:35.150Z,28693,0.0409903,0.0042114095,-0.029720312
1732439495153,2024-11-24T09:11:35.153Z,28696,0.0409903,0.0042114095,-0.029720312
1732439495164,2024-11-24T09:11:35.164Z,28707,0.029958617,0.02461184,-0.035049148
1732439495168,2024-11-24T09:11:35.168Z,28711,0.029958617,0.02461184,-0.035049148
1732439495179,2024-11-24T09:11:35.179Z,28722,0.02847739,0.03609203,-0.043336257
1732439495182,2024-11-24T09:11:35.182Z,28725,0.02847739,0.03609203,-0.043336257
1732439495192,2024-11-24T09:11:35.192Z,28735,0.03853606,0.0096027255,-0.05387476
1732439495195,2024-11-24T09:11:35.195Z,28738,0.03853606,0.0096027255,-0.05387476
1732439495204,2024-11-24T09:11:35.204Z,28747,0.040271446,0.004250211,-0.04770675
1732439495206,2024-11-24T09:11:35.206Z,28749,0.040271446,0.004250211,-0.04770675
1732439495300,2024-11-24T09:11:35.300Z,28843,0.027981134,0.005161909,-0.045332048
1732439495304,2024-11-24T09:11:35.304Z,28847,0.027981134,0.005161909,-0.045332048
1732439495313,2024-11-24T09:11:35.313Z,28856,0.055387437,-0.0053017507,-0.018716903
1732439495316,2024-11-24T09:11:35.316Z,28859,0.055387437,-0.0053017507,-0.018716903
1732439495326,2024-11-24T09:11:35.326Z,28869,0.060931966,-0.0073622353,-0.0064805513
1732439495329,2024-11-24T09:11:35.329Z,28872,0.060931966,-0.0073622353,-0.0064805513
1732439495341,2024-11-24T09:11:35.341Z,28884,0.06342394,-0.011704832,0.003809509
1732439495344,2024-11-24T09:11:35.344Z,28887,0.06342394,-0.011704832,0.003809509
1732439495355,2024-11-24T09:11:35.355Z,28898,0.06585479,-0.023377378,0.011553637
1732439495359,2024-11-24T09:11:35.359Z,28902,0.06585479,-0.023377378,0.011553637
1732439495369,2024-11-24T09:11:35.369Z,28912,0.059475195,-0.031207668,0.014860058
1732439495372,2024-11-24T09:11:35.372Z,28915,0.059475195,-0.031207668,0.014860058
1732439495383,2024-11-24T09:11:35.383Z,28926,0.053644903,-0.031716466,0.023415597
1732439495386,2024-11-24T09:11:35.386Z,28929,0.053644903,-0.031716466,0.023415597
1732439495396,2024-11-24T09:11:35.396Z,28939,0.057347707,0.010338599,0.013440874
1732439495398,2024-11-24T09:11:35.398Z,28941,0.057347707,0.010338599,0.013440874
1732439495407,2024-11-24T09:11:35.407Z,28950,0.054919917,0.014558858,0.022482153
1732439495409,2024-11-24T09:11:35.409Z,28952,0.054919917,0.014558858,0.022482153
1732439495432,2024-11-24T09:11:35.432Z,28975,0.06696064,0.02328655,0.02015933
1732439495434,2024-11-24T09:11:35.434Z,28977,0.06696064,0.02328655,0.02015933
1732439495443,2024-11-24T09:11:35.443Z,28986,0.0780499,0.023616802,0.009271974
1732439495445,2024-11-24T09:11:35.445Z,28988,0.0780499,0.023616802,0.009271974
1732439495454,2024-11-24T09:11:35.454Z,28997,0.07915556,0.017099844,-1.3293762E-4
1732439495457,2024-11-24T09:11:35.457Z,29000,0.07915556,0.017099844,-1.3293762E-4
1732439495483,2024-11-24T09:11:35.483Z,29026,0.06897746,0.00818641,-0.0047211456
1732439495490,2024-11-24T09:11:35.490Z,29033,0.06897746,0.00818641,-0.0047211456
1732439495512,2024-11-24T09:11:35.512Z,29055,0.06509913,0.0021857396,-0.014034158
1732439495520,2024-11-24T09:11:35.520Z,29063,0.06509913,0.0021857396,-0.014034158
1732439495537,2024-11-24T09:11:35.537Z,29080,0.06177734,0.0016188828,-0.016831769
1732439495539,2024-11-24T09:11:35.539Z,29082,0.06177734,0.0016188828,-0.016831769
1732439495547,2024-11-24T09:11:35.547Z,29090,0.05906199,0.0020051505,-0.019746842
1732439495550,2024-11-24T09:11:35.550Z,29093,0.05906199,0.0020051505,-0.019746842
1732439495560,2024-11-24T09:11:35.560Z,29103,0.053921524,-0.0019785047,-0.022285638
1732439495563,2024-11-24T09:11:35.563Z,29106,0.053921524,-0.0019785047,-0.022285638
1732439495572,2024-11-24T09:11:35.572Z,29115,0.029720068,-0.010967792,-0.037323635
1732439495574,2024-11-24T09:11:35.574Z,29117,0.029720068,-0.010967792,-0.037323635
1732439495582,2024-11-24T09:11:35.582Z,29125,0.02392143,-0.0054068756,-0.045363735
1732439495585,2024-11-24T09:11:35.585Z,29128,0.02392143,-0.0054068756,-0.045363735
1732439495592,2024-11-24T09:11:35.592Z,29135,0.025055192,0.004506751,-0.054346666
1732439495595,2024-11-24T09:11:35.595Z,29138,0.025055192,0.004506751,-0.054346666
1732439495617,2024-11-24T09:11:35.617Z,29160,0.033501595,0.024213612,-0.067425594
1732439495622,2024-11-24T09:11:35.622Z,29165,0.033501595,0.024213612,-0.067425594
1732439495640,2024-11-24T09:11:35.640Z,29183,0.068082884,0.08288938,-0.091548905
1732439495642,2024-11-24T09:11:35.642Z,29185,0.068082884,0.08288938,-0.091548905
1732439495654,2024-11-24T09:11:35.654Z,29197,0.080183364,0.098142974,-0.091704085
1732439495657,2024-11-24T09:11:35.657Z,29200,0.080183364,0.098142974,-0.091704085
1732439495667,2024-11-24T09:11:35.667Z,29210,0.074682206,0.09484832,-0.08498255
1732439495670,2024-11-24T09:11:35.670Z,29213,0.074682206,0.09484832,-0.08498255
1732439495679,2024-11-24T09:11:35.679Z,29222,0.07768731,0.03294169,-0.08286705
1732439495682,2024-11-24T09:11:35.682Z,29225,0.07768731,0.03294169,-0.08286705
1732439495692,2024-11-24T09:11:35.692Z,29235,0.07715352,-0.0070286756,-0.08442231
1732439495695,2024-11-24T09:11:35.695Z,29238,0.07715352,-0.0070286756,-0.08442231
1732439495704,2024-11-24T09:11:35.704Z,29247,0.06694917,-0.024849514,-0.080061056
1732439495707,2024-11-24T09:11:35.707Z,29250,0.06694917,-0.024849514,-0.080061056
1732439495715,2024-11-24T09:11:35.715Z,29258,0.03040299,-0.030735431,-0.057027373
1732439495718,2024-11-24T09:11:35.718Z,29261,0.03040299,-0.030735431,-0.057027373
1732439495726,2024-11-24T09:11:35.726Z,29269,0.024449145,-0.010654654,-0.052631825
1732439495728,2024-11-24T09:11:35.728Z,29271,0.024449145,-0.010654654,-0.052631825
1732439495736,2024-11-24T09:11:35.736Z,29279,0.01687102,0.012484564,-0.05081588
1732439495739,2024-11-24T09:11:35.739Z,29282,0.01687102,0.012484564,-0.05081588
1732439495748,2024-11-24T09:11:35.748Z,29291,-0.013465502,0.044818167,-0.055531837
1732439495750,2024-11-24T09:11:35.750Z,29293,-0.013465502,0.044818167,-0.055531837
1732439495758,2024-11-24T09:11:35.758Z,29301,-0.027242124,0.052441414,-0.060549416
1732439495760,2024-11-24T09:11:35.760Z,29303,-0.027242124,0.052441414,-0.060549416
1732439495770,2024-11-24T09:11:35.770Z,29313,-0.040463097,0.04931947,-0.06561644
1732439495773,2024-11-24T09:11:35.773Z,29316,-0.040463097,0.04931947,-0.06561644
1732439495791,2024-11-24T09:11:35.791Z,29334,-0.064600974,0.039157666,-0.05236887
1732439495794,2024-11-24T09:11:35.794Z,29337,-0.064600974,0.039157666,-0.05236887
1732439495802,2024-11-24T09:11:35.802Z,29345,-0.06926444,0.0267686,-0.047154468
1732439495804,2024-11-24T09:11:35.804Z,29347,-0.06926444,0.0267686,-0.047154468
1732439495811,2024-11-24T09:11:35.811Z,29354,-0.06189462,0.013915176,-0.0494898
1732439495815,2024-11-24T09:11:35.815Z,29358,-0.06189462,0.013915176,-0.0494898
1732439495823,2024-11-24T09:11:35.823Z,29366,-0.058078937,0.009398214,-0.053617407
1732439495825,2024-11-24T09:11:35.825Z,29368,-0.058078937,0.009398214,-0.053617407
1732439495838,2024-11-24T09:11:35.838Z,29381,-0.076007746,-0.01173459,-0.056417387
1732439495840,2024-11-24T09:11:35.840Z,29383,-0.076007746,-0.01173459,-0.056417387
1732439495847,2024-11-24T09:11:35.847Z,29390,-0.08401011,-0.017643556,-0.05021094
1732439495850,2024-11-24T09:11:35.850Z,29393,-0.08401011,-0.017643556,-0.05021094
1732439495883,2024-11-24T09:11:35.883Z,29426,-0.08811392,-0.025993342,-0.04150343
1732439495886,2024-11-24T09:11:35.886Z,29429,-0.08811392,-0.025993342,-0.04150343
1732439495892,2024-11-24T09:11:35.892Z,29435,-0.088944316,-0.020297445,-0.030668866
1732439495895,2024-11-24T09:11:35.895Z,29438,-0.088944316,-0.020297445,-0.030668866
1732439495902,2024-11-24T09:11:35.902Z,29445,-0.08542808,-0.0068647163,-0.022714246
1732439495904,2024-11-24T09:11:35.904Z,29447,-0.08542808,-0.0068647163,-0.022714246
1732439495912,2024-11-24T09:11:35.912Z,29455,-0.0880458,0.015761618,-0.025571262
1732439495914,2024-11-24T09:11:35.914Z,29457,-0.0880458,0.015761618,-0.025571262
1732439496025,2024-11-24T09:11:36.025Z,29568,-0.10443179,0.03221739,-0.03248346
1732439496032,2024-11-24T09:11:36.032Z,29575,-0.10443179,0.03221739,-0.03248346
1732439496053,2024-11-24T09:11:36.053Z,29596,-0.118491404,0.037185,-0.03368396
1732439496059,2024-11-24T09:11:36.059Z,29602,-0.118491404,0.037185,-0.03368396
1732439496072,2024-11-24T09:11:36.072Z,29615,-0.115211874,0.039016366,-0.02979101
1732439496076,2024-11-24T09:11:36.076Z,29619,-0.115211874,0.039016366,-0.02979101
1732439496088,2024-11-24T09:11:36.088Z,29631,-0.103989944,0.04574902,-0.025134936
1732439496092,2024-11-24T09:11:36.092Z,29635,-0.103989944,0.04574902,-0.025134936
1732439496106,2024-11-24T09:11:36.106Z,29649,-0.10504776,0.036766056,-0.023116779
1732439496110,2024-11-24T09:11:36.110Z,29653,-0.10504776,0.036766056,-0.023116779
1732439496120,2024-11-24T09:11:36.120Z,29663,-0.09609946,0.024502242,-0.01716906
1732439496123,2024-11-24T09:11:36.123Z,29666,-0.09609946,0.024502242,-0.01716906
1732439496132,2024-11-24T09:11:36.132Z,29675,-0.065561615,0.045376755,-0.0011758951
1732439496135,2024-11-24T09:11:36.135Z,29678,-0.065561615,0.045376755,-0.0011758951
1732439496143,2024-11-24T09:11:36.143Z,29686,-0.053335827,0.01913553,0.008388296
1732439496146,2024-11-24T09:11:36.146Z,29689,-0.053335827,0.01913553,0.008388296
1732439496154,2024-11-24T09:11:36.154Z,29697,-0.054443914,0.004157048,0.012405089
1732439496156,2024-11-24T09:11:36.156Z,29699,-0.054443914,0.004157048,0.012405089
1732439496164,2024-11-24T09:11:36.164Z,29707,-0.055255108,-0.005911397,0.014222308
1732439496166,2024-11-24T09:11:36.166Z,29709,-0.055255108,-0.005911397,0.014222308
1732439496177,2024-11-24T09:11:36.177Z,29720,-0.05446176,-0.009265568,0.02158785
1732439496181,2024-11-24T09:11:36.181Z,29724,-0.05446176,-0.009265568,0.02158785
1732439496191,2024-11-24T09:11:36.191Z,29734,-0.048476893,-0.0212001,0.031808827
1732439496194,2024-11-24T09:11:36.194Z,29737,-0.048476893,-0.0212001,0.031808827
1732439496202,2024-11-24T09:11:36.202Z,29745,-0.04093373,-0.026780756,0.038507883
1732439496204,2024-11-24T09:11:36.204Z,29747,-0.04093373,-0.026780756,0.038507883
1732439496211,2024-11-24T09:11:36.211Z,29754,-0.035200633,-0.03338971,0.04860273
1732439496213,2024-11-24T09:11:36.213Z,29756,-0.035200633,-0.03338971,0.04860273
1732439496220,2024-11-24T09:11:36.220Z,29763,-0.04196397,-0.04418343,0.054296315
1732439496223,2024-11-24T09:11:36.223Z,29766,-0.04196397,-0.04418343,0.054296315
1732439496231,2024-11-24T09:11:36.231Z,29774,-0.035183568,-0.04829895,0.05545004
1732439496234,2024-11-24T09:11:36.234Z,29777,-0.035183568,-0.04829895,0.05545004
1732439496242,2024-11-24T09:11:36.242Z,29785,-0.028985873,-0.048949733,0.06250213
1732439496244,2024-11-24T09:11:36.244Z,29787,-0.028985873,-0.048949733,0.06250213
1732439496252,2024-11-24T09:11:36.252Z,29795,-0.028126737,-0.0568179,0.05906933
1732439496254,2024-11-24T09:11:36.254Z,29797,-0.028126737,-0.0568179,0.05906933
1732439496261,2024-11-24T09:11:36.261Z,29804,-0.028898155,-0.058058783,0.05912695
1732439496264,2024-11-24T09:11:36.264Z,29807,-0.028898155,-0.058058783,0.05912695
1732439496272,2024-11-24T09:11:36.272Z,29815,-0.02496959,-0.058716614,0.061623495
1732439496275,2024-11-24T09:11:36.275Z,29818,-0.02496959,-0.058716614,0.061623495
1732439496288,2024-11-24T09:11:36.288Z,29831,-0.017340848,-0.05077838,0.07160206
1732439496291,2024-11-24T09:11:36.291Z,29834,-0.017340848,-0.05077838,0.07160206
1732439496300,2024-11-24T09:11:36.300Z,29843,-0.020454526,-0.05049364,0.07565415
1732439496303,2024-11-24T09:11:36.303Z,29846,-0.020454526,-0.05049364,0.07565415
1732439496332,2024-11-24T09:11:36.332Z,29875,-0.018390685,-0.040806696,0.08252322
1732439496335,2024-11-24T09:11:36.335Z,29878,-0.018390685,-0.040806696,0.08252322
1732439496347,2024-11-24T09:11:36.347Z,29890,-0.03515257,0.03984881,0.07259746
1732439496353,2024-11-24T09:11:36.353Z,29896,-0.03515257,0.03984881,0.07259746
1732439496369,2024-11-24T09:11:36.369Z,29912,-0.026817638,0.10075982,0.08860633
1732439496376,2024-11-24T09:11:36.376Z,29919,-0.026817638,0.10075982,0.08860633
1732439496388,2024-11-24T09:11:36.388Z,29931,-0.01877603,0.18161789,0.08502164
1732439496391,2024-11-24T09:11:36.391Z,29934,-0.01877603,0.18161789,0.08502164
1732439496401,2024-11-24T09:11:36.401Z,29944,-0.060659695,0.14867745,0.04924413
1732439496405,2024-11-24T09:11:36.405Z,29948,-0.060659695,0.14867745,0.04924413
1732439496414,2024-11-24T09:11:36.414Z,29957,-0.07206435,0.096077144,0.04080852
1732439496417,2024-11-24T09:11:36.417Z,29960,-0.07206435,0.096077144,0.04080852
1732439496427,2024-11-24T09:11:36.427Z,29970,-0.084500335,0.09960004,0.029154086
1732439496430,2024-11-24T09:11:36.430Z,29973,-0.084500335,0.09960004,0.029154086
1732439496438,2024-11-24T09:11:36.438Z,29981,-0.06394876,0.12956488,0.012191071
1732439496441,2024-11-24T09:11:36.441Z,29984,-0.06394876,0.12956488,0.012191071
1732439496448,2024-11-24T09:11:36.448Z,29991,-0.05593127,0.10149831,0.007362746
1732439496451,2024-11-24T09:11:36.451Z,29994,-0.05593127,0.10149831,0.007362746
1732439496459,2024-11-24T09:11:36.459Z,30002,-0.06466134,0.07458375,-0.0041520884
1732439496461,2024-11-24T09:11:36.461Z,30004,-0.06466134,0.07458375,-0.0041520884
1732439496469,2024-11-24T09:11:36.469Z,30012,-0.07888441,0.062922575,-0.011924053
1732439496471,2024-11-24T09:11:36.471Z,30014,-0.07888441,0.062922575,-0.011924053
1732439496479,2024-11-24T09:11:36.479Z,30022,-0.079441294,0.049157746,-0.025148015
1732439496481,2024-11-24T09:11:36.481Z,30024,-0.079441294,0.049157746,-0.025148015
1732439496490,2024-11-24T09:11:36.490Z,30033,-0.07183793,0.03862465,-0.03306286
1732439496493,2024-11-24T09:11:36.493Z,30036,-0.07183793,0.03862465,-0.03306286
1732439496511,2024-11-24T09:11:36.511Z,30054,-0.0700053,0.031027565,-0.04402737
1732439496513,2024-11-24T09:11:36.513Z,30056,-0.0700053,0.031027565,-0.04402737
1732439496520,2024-11-24T09:11:36.520Z,30063,-0.06983412,0.030363362,-0.060240608
1732439496522,2024-11-24T09:11:36.522Z,30065,-0.06983412,0.030363362,-0.060240608
1732439496529,2024-11-24T09:11:36.529Z,30072,-0.070569895,0.03341597,-0.06842673
1732439496531,2024-11-24T09:11:36.531Z,30074,-0.070569895,0.03341597,-0.06842673
1732439496539,2024-11-24T09:11:36.539Z,30082,-0.08058809,0.034564756,-0.08355456
1732439496542,2024-11-24T09:11:36.542Z,30085,-0.08058809,0.034564756,-0.08355456
1732439496558,2024-11-24T09:11:36.558Z,30101,-0.091331236,0.026086506,-0.12112419
1732439496561,2024-11-24T09:11:36.561Z,30104,-0.091331236,0.026086506,-0.12112419
1732439496568,2024-11-24T09:11:36.568Z,30111,-0.10630058,0.01912386,-0.1255384
1732439496571,2024-11-24T09:11:36.571Z,30114,-0.10630058,0.01912386,-0.1255384
1732439496579,2024-11-24T09:11:36.579Z,30122,-0.11407614,0.011653972,-0.13746326
1732439496581,2024-11-24T09:11:36.581Z,30124,-0.11407614,0.011653972,-0.13746326
1732439496607,2024-11-24T09:11:36.607Z,30150,-0.10841547,-5.261101E-4,-0.14708278
1732439496613,2024-11-24T09:11:36.613Z,30156,-0.10841547,-5.261101E-4,-0.14708278
1732439496631,2024-11-24T09:11:36.631Z,30174,-0.10545365,-0.0058190115,-0.15517941
1732439496637,2024-11-24T09:11:36.637Z,30180,-0.10545365,-0.0058190115,-0.15517941
1732439496656,2024-11-24T09:11:36.656Z,30199,-0.1031868,-0.011309715,-0.15480766
1732439496659,2024-11-24T09:11:36.659Z,30202,-0.1031868,-0.011309715,-0.15480766
1732439496672,2024-11-24T09:11:36.672Z,30215,-0.101698816,-0.032619167,-0.15827398
1732439496675,2024-11-24T09:11:36.675Z,30218,-0.101698816,-0.032619167,-0.15827398
1732439496687,2024-11-24T09:11:36.687Z,30230,-0.10238242,-0.040605832,-0.15594523
1732439496691,2024-11-24T09:11:36.691Z,30234,-0.10238242,-0.040605832,-0.15594523
1732439496702,2024-11-24T09:11:36.702Z,30245,-0.090724535,-0.037704058,-0.15360507
1732439496705,2024-11-24T09:11:36.705Z,30248,-0.090724535,-0.037704058,-0.15360507
1732439496716,2024-11-24T09:11:36.716Z,30259,-0.08083799,0.0013049671,-0.16537215
1732439496719,2024-11-24T09:11:36.719Z,30262,-0.08083799,0.0013049671,-0.16537215
1732439496728,2024-11-24T09:11:36.728Z,30271,-0.08602071,0.020832114,-0.17465137
1732439496730,2024-11-24T09:11:36.730Z,30273,-0.08602071,0.020832114,-0.17465137
1732439496739,2024-11-24T09:11:36.739Z,30282,-0.08144044,0.033240046,-0.17260899
1732439496742,2024-11-24T09:11:36.742Z,30285,-0.08144044,0.033240046,-0.17260899
1732439496751,2024-11-24T09:11:36.751Z,30294,-0.06329436,0.07970782,-0.16396686
1732439496754,2024-11-24T09:11:36.754Z,30297,-0.06329436,0.07970782,-0.16396686
1732439496763,2024-11-24T09:11:36.763Z,30306,-0.051282246,0.10888827,-0.15379241
1732439496766,2024-11-24T09:11:36.766Z,30309,-0.051282246,0.10888827,-0.15379241
1732439496776,2024-11-24T09:11:36.776Z,30319,-0.036647145,0.13592517,-0.1510843
1732439496779,2024-11-24T09:11:36.779Z,30322,-0.036647145,0.13592517,-0.1510843
1732439496792,2024-11-24T09:11:36.792Z,30335,-0.02147638,0.15994284,-0.1446946
1732439496795,2024-11-24T09:11:36.795Z,30338,-0.02147638,0.15994284,-0.1446946
1732439496803,2024-11-24T09:11:36.803Z,30346,0.0059560337,0.1603008,-0.14274935
1732439496806,2024-11-24T09:11:36.806Z,30349,0.0059560337,0.1603008,-0.14274935
1732439496814,2024-11-24T09:11:36.814Z,30357,0.017802652,0.15391882,-0.14374295
1732439496816,2024-11-24T09:11:36.816Z,30359,0.017802652,0.15391882,-0.14374295
1732439496826,2024-11-24T09:11:36.826Z,30369,0.02997826,0.15216798,-0.1410319
1732439496829,2024-11-24T09:11:36.829Z,30372,0.02997826,0.15216798,-0.1410319
1732439496837,2024-11-24T09:11:36.837Z,30380,0.041455872,0.114077404,-0.12266491
1732439496839,2024-11-24T09:11:36.839Z,30382,0.041455872,0.114077404,-0.12266491
1732439496847,2024-11-24T09:11:36.847Z,30390,0.0484156,0.08658071,-0.11477576
1732439496849,2024-11-24T09:11:36.849Z,30392,0.0484156,0.08658071,-0.11477576
1732439496856,2024-11-24T09:11:36.856Z,30399,0.052961398,0.07750779,-0.10996685
1732439496859,2024-11-24T09:11:36.859Z,30402,0.052961398,0.07750779,-0.10996685
1732439496876,2024-11-24T09:11:36.876Z,30419,0.03594572,0.04198816,-0.091917895
1732439496880,2024-11-24T09:11:36.880Z,30423,0.03594572,0.04198816,-0.091917895
1732439496897,2024-11-24T09:11:36.897Z,30440,0.03030827,0.023337118,-0.080548435
1732439496902,2024-11-24T09:11:36.902Z,30445,0.03030827,0.023337118,-0.080548435
1732439496921,2024-11-24T09:11:36.921Z,30464,0.022204328,0.0027962609,-0.06779013
1732439496926,2024-11-24T09:11:36.926Z,30469,0.022204328,0.0027962609,-0.06779013
1732439496936,2024-11-24T09:11:36.936Z,30479,-0.015405545,-0.013923928,-0.058916982
1732439496938,2024-11-24T09:11:36.938Z,30481,-0.015405545,-0.013923928,-0.058916982
1732439496948,2024-11-24T09:11:36.948Z,30491,-0.027728241,-0.018943174,-0.05110162
1732439496950,2024-11-24T09:11:36.950Z,30493,-0.027728241,-0.018943174,-0.05110162
1732439496960,2024-11-24T09:11:36.960Z,30503,-0.036393985,-0.015734583,-0.046815075
1732439496963,2024-11-24T09:11:36.963Z,30506,-0.036393985,-0.015734583,-0.046815075
1732439496972,2024-11-24T09:11:36.972Z,30515,-0.0804648,0.006888347,-0.040228754
1732439496975,2024-11-24T09:11:36.975Z,30518,-0.0804648,0.006888347,-0.040228754
1732439496983,2024-11-24T09:11:36.983Z,30526,-0.09672961,0.00868354,-0.03643298
1732439496986,2024-11-24T09:11:36.986Z,30529,-0.09672961,0.00868354,-0.03643298
1732439496995,2024-11-24T09:11:36.995Z,30538,-0.1083668,0.0044991653,-0.03360154
1732439496998,2024-11-24T09:11:36.998Z,30541,-0.1083668,0.0044991653,-0.03360154
1732439497011,2024-11-24T09:11:37.011Z,30554,-0.12184203,0.0011770864,-0.028194156
1732439497016,2024-11-24T09:11:37.016Z,30559,-0.12184203,0.0011770864,-0.028194156
1732439497030,2024-11-24T09:11:37.030Z,30573,-0.12911355,-0.0072156833,-0.027043715
1732439497033,2024-11-24T09:11:37.033Z,30576,-0.12911355,-0.0072156833,-0.027043715
1732439497042,2024-11-24T09:11:37.042Z,30585,-0.1284688,-0.018168304,-0.017826308
1732439497044,2024-11-24T09:11:37.044Z,30587,-0.1284688,-0.018168304,-0.017826308
1732439497103,2024-11-24T09:11:37.103Z,30646,-0.08297637,-0.025946079,-1.7054818E-4
1732439497108,2024-11-24T09:11:37.108Z,30651,-0.08297637,-0.025946079,-1.7054818E-4
1732439497127,2024-11-24T09:11:37.127Z,30670,-0.07424121,-0.025659977,0.0050397413
1732439497134,2024-11-24T09:11:37.134Z,30677,-0.07424121,-0.025659977,0.0050397413
1732439497154,2024-11-24T09:11:37.154Z,30697,-0.0666821,-0.021093223,0.015502477
1732439497160,2024-11-24T09:11:37.160Z,30703,-0.0666821,-0.021093223,0.015502477
1732439497179,2024-11-24T09:11:37.179Z,30722,-0.05841347,-0.013174926,0.022867119
1732439497185,2024-11-24T09:11:37.185Z,30728,-0.05841347,-0.013174926,0.022867119
1732439497199,2024-11-24T09:11:37.199Z,30742,-0.049921166,-0.0024055194,0.018384462
1732439497202,2024-11-24T09:11:37.202Z,30745,-0.049921166,-0.0024055194,0.018384462
1732439497215,2024-11-24T09:11:37.215Z,30758,-0.04561978,0.013166368,0.016752986
1732439497217,2024-11-24T09:11:37.217Z,30760,-0.04561978,0.013166368,0.016752986
1732439497227,2024-11-24T09:11:37.227Z,30770,-0.038658787,0.029625155,0.016028855
1732439497230,2024-11-24T09:11:37.230Z,30773,-0.038658787,0.029625155,0.016028855
1732439497239,2024-11-24T09:11:37.239Z,30782,0.028565835,0.13538156,0.039896253
1732439497242,2024-11-24T09:11:37.242Z,30785,0.028565835,0.13538156,0.039896253
1732439497250,2024-11-24T09:11:37.250Z,30793,0.031205382,0.13704664,0.036909275
1732439497252,2024-11-24T09:11:37.252Z,30795,0.031205382,0.13704664,0.036909275
1732439497261,2024-11-24T09:11:37.261Z,30804,0.03523241,0.13048115,0.041144524
1732439497263,2024-11-24T09:11:37.263Z,30806,0.03523241,0.13048115,0.041144524
1732439497271,2024-11-24T09:11:37.271Z,30814,0.0457003,0.10011292,0.05226869
1732439497274,2024-11-24T09:11:37.274Z,30817,0.0457003,0.10011292,0.05226869
1732439497282,2024-11-24T09:11:37.282Z,30825,0.04531194,0.07973427,0.05421571
1732439497284,2024-11-24T09:11:37.284Z,30827,0.04531194,0.07973427,0.05421571
1732439497294,2024-11-24T09:11:37.294Z,30837,0.04476439,0.06678292,0.053138983
1732439497298,2024-11-24T09:11:37.298Z,30841,0.04476439,0.06678292,0.053138983
1732439497314,2024-11-24T09:11:37.314Z,30857,0.037648335,-0.0027966497,0.05669588
1732439497319,2024-11-24T09:11:37.319Z,30862,0.037648335,-0.0027966497,0.05669588
1732439497336,2024-11-24T09:11:37.336Z,30879,0.03105742,-0.021842323,0.06660307
1732439497341,2024-11-24T09:11:37.341Z,30884,0.03105742,-0.021842323,0.06660307
1732439497357,2024-11-24T09:11:37.357Z,30900,0.020624053,-0.028211756,0.07401676
1732439497362,2024-11-24T09:11:37.362Z,30905,0.020624053,-0.028211756,0.07401676
1732439497380,2024-11-24T09:11:37.380Z,30923,0.012692188,-0.030743893,0.06459321
1732439497385,2024-11-24T09:11:37.385Z,30928,0.012692188,-0.030743893,0.06459321
1732439497401,2024-11-24T09:11:37.401Z,30944,0.004879404,-0.043924265,0.060732413
1732439497407,2024-11-24T09:11:37.407Z,30950,0.004879404,-0.043924265,0.060732413
1732439497421,2024-11-24T09:11:37.421Z,30964,-9.477276E-4,-0.057575412,0.06257339
1732439497424,2024-11-24T09:11:37.424Z,30967,-9.477276E-4,-0.057575412,0.06257339
1732439497434,2024-11-24T09:11:37.434Z,30977,-8.9701294E-4,-0.055188563,0.07889806
1732439497438,2024-11-24T09:11:37.438Z,30981,-8.9701294E-4,-0.055188563,0.07889806
1732439497451,2024-11-24T09:11:37.451Z,30994,0.0023164405,-0.053743076,0.079887
1732439497456,2024-11-24T09:11:37.456Z,30999,0.0023164405,-0.053743076,0.079887
1732439497470,2024-11-24T09:11:37.470Z,31013,0.008902834,-0.04760295,0.07488423
1732439497474,2024-11-24T09:11:37.474Z,31017,0.008902834,-0.04760295,0.07488423
1732439497484,2024-11-24T09:11:37.484Z,31027,0.014040868,-0.025268748,0.061957102
1732439497486,2024-11-24T09:11:37.486Z,31029,0.014040868,-0.025268748,0.061957102
1732439497494,2024-11-24T09:11:37.494Z,31037,0.015995644,-0.021744978,0.05540325
1732439497496,2024-11-24T09:11:37.496Z,31039,0.015995644,-0.021744978,0.05540325
1732439497503,2024-11-24T09:11:37.503Z,31046,0.024604158,-0.01714487,0.051950432
1732439497506,2024-11-24T09:11:37.506Z,31049,0.024604158,-0.01714487,0.051950432
1732439497513,2024-11-24T09:11:37.513Z,31056,0.04047635,-8.644349E-4,0.04137043
1732439497515,2024-11-24T09:11:37.515Z,31058,0.04047635,-8.644349E-4,0.04137043
1732439497523,2024-11-24T09:11:37.523Z,31066,0.047723442,0.0064325472,0.03422711
1732439497525,2024-11-24T09:11:37.525Z,31068,0.047723442,0.0064325472,0.03422711
1732439497531,2024-11-24T09:11:37.531Z,31074,0.055266704,0.0075051896,0.0289098
1732439497533,2024-11-24T09:11:37.533Z,31076,0.055266704,0.0075051896,0.0289098
1732439497543,2024-11-24T09:11:37.543Z,31086,0.06617989,0.025473941,-0.0012974547
1732439497545,2024-11-24T09:11:37.545Z,31088,0.06617989,0.025473941,-0.0012974547
1732439497553,2024-11-24T09:11:37.553Z,31096,0.075301826,0.05726315,-0.014509882
1732439497557,2024-11-24T09:11:37.557Z,31100,0.075301826,0.05726315,-0.014509882
1732439497566,2024-11-24T09:11:37.566Z,31109,0.07694857,0.10273112,-0.020107983
1732439497570,2024-11-24T09:11:37.570Z,31113,0.07694857,0.10273112,-0.020107983
1732439497585,2024-11-24T09:11:37.585Z,31128,0.07196389,0.12447211,-0.04118612
1732439497591,2024-11-24T09:11:37.591Z,31134,0.07196389,0.12447211,-0.04118612
1732439497609,2024-11-24T09:11:37.609Z,31152,0.06950955,0.075477354,-0.05137767
1732439497614,2024-11-24T09:11:37.614Z,31157,0.06950955,0.075477354,-0.05137767
1732439497632,2024-11-24T09:11:37.632Z,31175,0.06704977,0.02128101,-0.05786791
1732439497639,2024-11-24T09:11:37.639Z,31182,0.06704977,0.02128101,-0.05786791
1732439497654,2024-11-24T09:11:37.654Z,31197,0.08927374,-0.06334342,-0.04316008
1732439497657,2024-11-24T09:11:37.657Z,31200,0.08927374,-0.06334342,-0.04316008
1732439497667,2024-11-24T09:11:37.667Z,31210,0.08422221,-0.079830214,-0.031212408
1732439497671,2024-11-24T09:11:37.671Z,31214,0.08422221,-0.079830214,-0.031212408
1732439497682,2024-11-24T09:11:37.682Z,31225,0.06823274,-0.08739161,-0.027178062
1732439497685,2024-11-24T09:11:37.685Z,31228,0.06823274,-0.08739161,-0.027178062
1732439497695,2024-11-24T09:11:37.695Z,31238,0.063858196,-0.072440065,-0.024981467
1732439497698,2024-11-24T09:11:37.698Z,31241,0.063858196,-0.072440065,-0.024981467
1732439497707,2024-11-24T09:11:37.707Z,31250,0.04359683,-0.045669373,-0.01866902
1732439497709,2024-11-24T09:11:37.709Z,31252,0.04359683,-0.045669373,-0.01866902
1732439497717,2024-11-24T09:11:37.717Z,31260,0.01727489,-0.025293741,-0.02000834
1732439497720,2024-11-24T09:11:37.720Z,31263,0.01727489,-0.025293741,-0.02000834
1732439497729,2024-11-24T09:11:37.729Z,31272,-0.027520228,0.009615562,-0.02197808
1732439497732,2024-11-24T09:11:37.732Z,31275,-0.027520228,0.009615562,-0.02197808
1732439497739,2024-11-24T09:11:37.739Z,31282,-0.050112695,0.021992376,-0.025078459
1732439497742,2024-11-24T09:11:37.742Z,31285,-0.050112695,0.021992376,-0.025078459
1732439497754,2024-11-24T09:11:37.754Z,31297,-0.05088178,0.035664335,-0.027696343
1732439497759,2024-11-24T09:11:37.759Z,31302,-0.05088178,0.035664335,-0.027696343
1732439497775,2024-11-24T09:11:37.775Z,31318,-0.06135239,0.0401281,-0.03342658
1732439497778,2024-11-24T09:11:37.778Z,31321,-0.06135239,0.0401281,-0.03342658
1732439497797,2024-11-24T09:11:37.797Z,31340,-0.07319622,0.029528685,-0.034982715
1732439497803,2024-11-24T09:11:37.803Z,31346,-0.07319622,0.029528685,-0.034982715
1732439497818,2024-11-24T09:11:37.818Z,31361,-0.08214315,0.024758782,-0.041233823
1732439497822,2024-11-24T09:11:37.822Z,31365,-0.08214315,0.024758782,-0.041233823
1732439497833,2024-11-24T09:11:37.833Z,31376,-0.08937172,0.026992854,-0.053799722
1732439497837,2024-11-24T09:11:37.837Z,31380,-0.08937172,0.026992854,-0.053799722
1732439497847,2024-11-24T09:11:37.847Z,31390,-0.082371876,0.026187254,-0.056057423
1732439497850,2024-11-24T09:11:37.850Z,31393,-0.082371876,0.026187254,-0.056057423
1732439497858,2024-11-24T09:11:37.858Z,31401,-0.07021779,0.023953376,-0.051682334
1732439497861,2024-11-24T09:11:37.861Z,31404,-0.07021779,0.023953376,-0.051682334
1732439497869,2024-11-24T09:11:37.869Z,31412,-0.046503518,0.013181831,-0.0326825
1732439497872,2024-11-24T09:11:37.872Z,31415,-0.046503518,0.013181831,-0.0326825
1732439497880,2024-11-24T09:11:37.880Z,31423,-0.037089307,0.01296808,-0.036758468
1732439497882,2024-11-24T09:11:37.882Z,31425,-0.037089307,0.01296808,-0.036758468
1732439497889,2024-11-24T09:11:37.889Z,31432,-0.026649958,0.01420157,-0.039390687
1732439497891,2024-11-24T09:11:37.891Z,31434,-0.026649958,0.01420157,-0.039390687
1732439497897,2024-11-24T09:11:37.897Z,31440,-0.050714392,0.02821409,-0.050771244
1732439497899,2024-11-24T09:11:37.899Z,31442,-0.050714392,0.02821409,-0.050771244
1732439497906,2024-11-24T09:11:37.906Z,31449,-0.050149284,0.027317077,-0.04664838
1732439497909,2024-11-24T09:11:37.909Z,31452,-0.050149284,0.027317077,-0.04664838
1732439497915,2024-11-24T09:11:37.915Z,31458,-0.053390794,0.03578142,-0.042918514
1732439497917,2024-11-24T09:11:37.917Z,31460,-0.053390794,0.03578142,-0.042918514
1732439497924,2024-11-24T09:11:37.924Z,31467,-0.059076067,0.054774288,-0.035045255
1732439497927,2024-11-24T09:11:37.927Z,31470,-0.059076067,0.054774288,-0.035045255
1732439497935,2024-11-24T09:11:37.935Z,31478,-0.058045726,0.056814548,-0.034835856
1732439497937,2024-11-24T09:11:37.937Z,31480,-0.058045726,0.056814548,-0.034835856
1732439497951,2024-11-24T09:11:37.951Z,31494,-0.059827354,0.053908005,-0.034611154
1732439497954,2024-11-24T09:11:37.954Z,31497,-0.059827354,0.053908005,-0.034611154
1732439497962,2024-11-24T09:11:37.962Z,31505,-0.05663651,0.042331543,-0.026979798
1732439497964,2024-11-24T09:11:37.964Z,31507,-0.05663651,0.042331543,-0.026979798
1732439497971,2024-11-24T09:11:37.971Z,31514,-0.05753537,0.035612017,-0.0273578
1732439497975,2024-11-24T09:11:37.975Z,31518,-0.05753537,0.035612017,-0.0273578
1732439497996,2024-11-24T09:11:37.996Z,31539,-0.056548744,0.032357328,-0.021902058
1732439497999,2024-11-24T09:11:37.999Z,31542,-0.056548744,0.032357328,-0.021902058
1732439498006,2024-11-24T09:11:38.006Z,31549,-0.04956971,0.018971084,-0.013599266
1732439498009,2024-11-24T09:11:38.009Z,31552,-0.04956971,0.018971084,-0.013599266
1732439498017,2024-11-24T09:11:38.017Z,31560,-0.046071857,0.016507702,-0.014271662
1732439498020,2024-11-24T09:11:38.020Z,31563,-0.046071857,0.016507702,-0.014271662
1732439498043,2024-11-24T09:11:38.043Z,31586,-0.04986632,0.0130734965,-0.0116053475
1732439498045,2024-11-24T09:11:38.045Z,31588,-0.04986632,0.0130734965,-0.0116053475
1732439498059,2024-11-24T09:11:38.059Z,31602,-0.05562163,0.007985594,-0.017564664
1732439498064,2024-11-24T09:11:38.064Z,31607,-0.05562163,0.007985594,-0.017564664
1732439498083,2024-11-24T09:11:38.083Z,31626,-0.056588273,0.007309722,-0.0154850455
1732439498090,2024-11-24T09:11:38.090Z,31633,-0.056588273,0.007309722,-0.0154850455
1732439498108,2024-11-24T09:11:38.108Z,31651,-0.056092992,0.00858921,-0.014864678
1732439498113,2024-11-24T09:11:38.113Z,31656,-0.056092992,0.00858921,-0.014864678
1732439498130,2024-11-24T09:11:38.130Z,31673,-0.055665296,0.016769396,-0.013015318
1732439498133,2024-11-24T09:11:38.133Z,31676,-0.055665296,0.016769396,-0.013015318
1732439498144,2024-11-24T09:11:38.144Z,31687,-0.051921308,0.019327983,-0.016676573
1732439498147,2024-11-24T09:11:38.147Z,31690,-0.051921308,0.019327983,-0.016676573
1732439498159,2024-11-24T09:11:38.159Z,31702,-0.046732415,0.022383993,-0.017878847
1732439498163,2024-11-24T09:11:38.163Z,31706,-0.046732415,0.022383993,-0.017878847
1732439498181,2024-11-24T09:11:38.181Z,31724,-0.04397097,0.01696253,-0.022887262
1732439498187,2024-11-24T09:11:38.187Z,31730,-0.04397097,0.01696253,-0.022887262
1732439498197,2024-11-24T09:11:38.197Z,31740,-0.042361323,0.009379639,-0.024612509
1732439498199,2024-11-24T09:11:38.199Z,31742,-0.042361323,0.009379639,-0.024612509
1732439498212,2024-11-24T09:11:38.212Z,31755,-0.03841078,0.010123098,-0.02915946
1732439498219,2024-11-24T09:11:38.219Z,31762,-0.03841078,0.010123098,-0.02915946
1732439498238,2024-11-24T09:11:38.238Z,31781,-0.030736865,0.01166253,-0.035047054
1732439498243,2024-11-24T09:11:38.243Z,31786,-0.030736865,0.01166253,-0.035047054
1732439498255,2024-11-24T09:11:38.255Z,31798,-0.028895918,0.008527166,-0.032035146
1732439498258,2024-11-24T09:11:38.258Z,31801,-0.028895918,0.008527166,-0.032035146
1732439498268,2024-11-24T09:11:38.268Z,31811,-0.021227766,0.0029820038,-0.02809822
1732439498272,2024-11-24T09:11:38.272Z,31815,-0.021227766,0.0029820038,-0.02809822
1732439498283,2024-11-24T09:11:38.283Z,31826,-0.0130981,0.0057384903,-0.031810652
1732439498285,2024-11-24T09:11:38.285Z,31828,-0.0130981,0.0057384903,-0.031810652
1732439498294,2024-11-24T09:11:38.294Z,31837,-0.0070970897,0.013693256,-0.033561148
1732439498297,2024-11-24T09:11:38.297Z,31840,-0.0070970897,0.013693256,-0.033561148
1732439498305,2024-11-24T09:11:38.305Z,31848,-0.00975487,0.014257195,-0.034304652
1732439498307,2024-11-24T09:11:38.307Z,31850,-0.00975487,0.014257195,-0.034304652
1732439498315,2024-11-24T09:11:38.315Z,31858,-0.0064698905,0.009389461,-0.024544375
1732439498317,2024-11-24T09:11:38.317Z,31860,-0.0064698905,0.009389461,-0.024544375
1732439498325,2024-11-24T09:11:38.325Z,31868,8.086148E-4,0.004028195,-0.019442273
1732439498328,2024-11-24T09:11:38.328Z,31871,8.086148E-4,0.004028195,-0.019442273
1732439498334,2024-11-24T09:11:38.334Z,31877,0.00905172,0.0025740499,-0.016738228
1732439498337,2024-11-24T09:11:38.337Z,31880,0.00905172,0.0025740499,-0.016738228
1732439498345,2024-11-24T09:11:38.345Z,31888,0.018711677,0.0045870775,-0.008267308
1732439498347,2024-11-24T09:11:38.347Z,31890,0.018711677,0.0045870775,-0.008267308
1732439498356,2024-11-24T09:11:38.356Z,31899,0.025840955,0.0066551473,-0.0051609483
1732439498358,2024-11-24T09:11:38.358Z,31901,0.025840955,0.0066551473,-0.0051609483
1732439498366,2024-11-24T09:11:38.366Z,31909,0.025529275,0.009264984,-0.003983291
1732439498368,2024-11-24T09:11:38.368Z,31911,0.025529275,0.009264984,-0.003983291
1732439498376,2024-11-24T09:11:38.376Z,31919,0.028545413,0.007794015,0.0041876202
1732439498378,2024-11-24T09:11:38.378Z,31921,0.028545413,0.007794015,0.0041876202
1732439498384,2024-11-24T09:11:38.384Z,31927,0.035642017,0.008174838,0.0072566
1732439498386,2024-11-24T09:11:38.386Z,31929,0.035642017,0.008174838,0.0072566
1732439498393,2024-11-24T09:11:38.393Z,31936,0.033874687,0.010572285,0.014111142
1732439498396,2024-11-24T09:11:38.396Z,31939,0.033874687,0.010572285,0.014111142
1732439498406,2024-11-24T09:11:38.406Z,31949,0.033401866,0.002895259,0.014884127
1732439498409,2024-11-24T09:11:38.409Z,31952,0.033401866,0.002895259,0.014884127
1732439498415,2024-11-24T09:11:38.415Z,31958,0.032257795,0.0011143616,0.01468105
1732439498418,2024-11-24T09:11:38.418Z,31961,0.032257795,0.0011143616,0.01468105
1732439498425,2024-11-24T09:11:38.425Z,31968,0.030570937,-1.450936E-4,0.015911853
1732439498428,2024-11-24T09:11:38.428Z,31971,0.030570937,-1.450936E-4,0.015911853
1732439498448,2024-11-24T09:11:38.448Z,31991,0.032036945,-0.00274929,0.02034207
1732439498451,2024-11-24T09:11:38.451Z,31994,0.032036945,-0.00274929,0.02034207
1732439498460,2024-11-24T09:11:38.460Z,32003,0.030178154,1.7310093E-5,0.021880992
1732439498462,2024-11-24T09:11:38.462Z,32005,0.030178154,1.7310093E-5,0.021880992
1732439498469,2024-11-24T09:11:38.469Z,32012,0.029760232,-1.21073404E-4,0.023847084
1732439498472,2024-11-24T09:11:38.472Z,32015,0.029760232,-1.21073404E-4,0.023847084
1732439498492,2024-11-24T09:11:38.492Z,32035,0.028807156,-0.0056283087,0.029812345
1732439498495,2024-11-24T09:11:38.495Z,32038,0.028807156,-0.0056283087,0.029812345
1732439498504,2024-11-24T09:11:38.504Z,32047,0.028711123,-0.0075689843,0.028010368
1732439498507,2024-11-24T09:11:38.507Z,32050,0.028711123,-0.0075689843,0.028010368
1732439498515,2024-11-24T09:11:38.515Z,32058,0.027051155,-0.009938814,0.028097562
1732439498518,2024-11-24T09:11:38.518Z,32061,0.027051155,-0.009938814,0.028097562
1732439498540,2024-11-24T09:11:38.540Z,32083,0.019791272,-0.008025076,0.02698922
1732439498542,2024-11-24T09:11:38.542Z,32085,0.019791272,-0.008025076,0.02698922
1732439498551,2024-11-24T09:11:38.551Z,32094,0.019843688,-0.0058239712,0.029210612
1732439498554,2024-11-24T09:11:38.554Z,32097,0.019843688,-0.0058239712,0.029210612
1732439498563,2024-11-24T09:11:38.563Z,32106,0.019833282,-0.006025663,0.02211154
1732439498566,2024-11-24T09:11:38.566Z,32109,0.019833282,-0.006025663,0.02211154
1732439498586,2024-11-24T09:11:38.586Z,32129,0.014362175,-0.0034426663,0.020521918
1732439498589,2024-11-24T09:11:38.589Z,32132,0.014362175,-0.0034426663,0.020521918
1732439498599,2024-11-24T09:11:38.599Z,32142,0.011894222,0.007123979,0.017247867
1732439498601,2024-11-24T09:11:38.601Z,32144,0.011894222,0.007123979,0.017247867
1732439498627,2024-11-24T09:11:38.627Z,32170,0.0138101475,0.0113594085,0.015388722
1732439498630,2024-11-24T09:11:38.630Z,32173,0.0138101475,0.0113594085,0.015388722
1732439498642,2024-11-24T09:11:38.642Z,32185,0.010148334,0.017849818,0.0060832943
1732439498651,2024-11-24T09:11:38.651Z,32194,0.010148334,0.017849818,0.0060832943
1732439498662,2024-11-24T09:11:38.662Z,32205,0.0066304463,0.022145249,0.0026295297
1732439498666,2024-11-24T09:11:38.666Z,32209,0.0066304463,0.022145249,0.0026295297
1732439498676,2024-11-24T09:11:38.676Z,32219,0.005602052,0.017160138,0.0039720465
1732439498679,2024-11-24T09:11:38.679Z,32222,0.005602052,0.017160138,0.0039720465
1732439498687,2024-11-24T09:11:38.687Z,32230,0.004551047,0.0028075415,0.0031343424
1732439498690,2024-11-24T09:11:38.690Z,32233,0.004551047,0.0028075415,0.0031343424
1732439498698,2024-11-24T09:11:38.698Z,32241,0.0055323252,0.008550797,-0.0028932411
1732439498700,2024-11-24T09:11:38.700Z,32243,0.0055323252,0.008550797,-0.0028932411
1732439498721,2024-11-24T09:11:38.721Z,32264,0.0021906993,0.01670852,-0.009925612
1732439498729,2024-11-24T09:11:38.729Z,32272,0.0021906993,0.01670852,-0.009925612
1732439498751,2024-11-24T09:11:38.751Z,32294,-0.0037559012,0.022658134,-0.01228551
1732439498757,2024-11-24T09:11:38.757Z,32300,-0.0037559012,0.022658134,-0.01228551
1732439498776,2024-11-24T09:11:38.776Z,32319,-0.004889226,0.017507797,-0.010991192
1732439498779,2024-11-24T09:11:38.779Z,32322,-0.004889226,0.017507797,-0.010991192
1732439498789,2024-11-24T09:11:38.789Z,32332,-0.0020147294,0.018166164,-0.009683235
1732439498793,2024-11-24T09:11:38.793Z,32336,-0.0020147294,0.018166164,-0.009683235
1732439498804,2024-11-24T09:11:38.804Z,32347,0.011773343,0.013145751,-0.011494205
1732439498808,2024-11-24T09:11:38.808Z,32351,0.011773343,0.013145751,-0.011494205
1732439498819,2024-11-24T09:11:38.819Z,32362,0.011430496,0.0117541365,-0.009195902
1732439498822,2024-11-24T09:11:38.822Z,32365,0.011430496,0.0117541365,-0.009195902
1732439498832,2024-11-24T09:11:38.832Z,32375,0.0071851476,0.013282774,-0.007837291
1732439498835,2024-11-24T09:11:38.835Z,32378,0.0071851476,0.013282774,-0.007837291
1732439498848,2024-11-24T09:11:38.848Z,32391,0.011677895,0.00909519,-0.00944155
1732439498854,2024-11-24T09:11:38.854Z,32397,0.011677895,0.00909519,-0.00944155
1732439498870,2024-11-24T09:11:38.870Z,32413,0.010677264,0.009703669,-0.00991703
1732439498876,2024-11-24T09:11:38.876Z,32419,0.010677264,0.009703669,-0.00991703
1732439498895,2024-11-24T09:11:38.895Z,32438,0.005778848,0.009820852,-0.007955604
1732439498900,2024-11-24T09:11:38.900Z,32443,0.005778848,0.009820852,-0.007955604
1732439498917,2024-11-24T09:11:38.917Z,32460,0.012626935,-0.002073613,-0.0039686183
1732439498923,2024-11-24T09:11:38.923Z,32466,0.012626935,-0.002073613,-0.0039686183
1732439498942,2024-11-24T09:11:38.942Z,32485,0.0074545722,-0.0049788887,-0.0025293522
1732439498947,2024-11-24T09:11:38.947Z,32490,0.0074545722,-0.0049788887,-0.0025293522
1732439498965,2024-11-24T09:11:38.965Z,32508,0.0043234387,-0.0054888553,-0.0025359895
1732439498971,2024-11-24T09:11:38.971Z,32514,0.0043234387,-0.0054888553,-0.0025359895
1732439498987,2024-11-24T09:11:38.987Z,32530,0.009461231,-0.010997258,-0.0063910102
1732439498992,2024-11-24T09:11:38.992Z,32535,0.009461231,-0.010997258,-0.0063910102
1732439499004,2024-11-24T09:11:39.004Z,32547,0.009399381,-0.011104619,-0.009238715
1732439499008,2024-11-24T09:11:39.008Z,32551,0.009399381,-0.011104619,-0.009238715
1732439499018,2024-11-24T09:11:39.018Z,32561,0.013756662,-0.007331408,-0.008606411
1732439499021,2024-11-24T09:11:39.021Z,32564,0.013756662,-0.007331408,-0.008606411
1732439499031,2024-11-24T09:11:39.031Z,32574,0.02683434,-0.0039059545,-0.009780603
1732439499034,2024-11-24T09:11:39.034Z,32577,0.02683434,-0.0039059545,-0.009780603
1732439499043,2024-11-24T09:11:39.043Z,32586,0.02674492,-0.0045369947,-6.9451885E-4
1732439499046,2024-11-24T09:11:39.046Z,32589,0.02674492,-0.0045369947,-6.9451885E-4
1732439499053,2024-11-24T09:11:39.053Z,32596,0.026677432,-0.0027273123,0.0024910488
1732439499056,2024-11-24T09:11:39.056Z,32599,0.026677432,-0.0027273123,0.0024910488
1732439499064,2024-11-24T09:11:39.064Z,32607,0.037900984,-0.0038555802,-7.5432623E-4
1732439499066,2024-11-24T09:11:39.066Z,32609,0.037900984,-0.0038555802,-7.5432623E-4
1732439499073,2024-11-24T09:11:39.073Z,32616,0.036097575,-0.006321296,-0.0014385368
1732439499075,2024-11-24T09:11:39.075Z,32618,0.036097575,-0.006321296,-0.0014385368
1732439499082,2024-11-24T09:11:39.082Z,32625,0.03473416,-0.008270821,7.8464317E-4
1732439499084,2024-11-24T09:11:39.084Z,32627,0.03473416,-0.008270821,7.8464317E-4
1732439499091,2024-11-24T09:11:39.091Z,32634,0.033757113,-0.010104912,0.0056536417
1732439499094,2024-11-24T09:11:39.094Z,32637,0.033757113,-0.010104912,0.0056536417
1732439499101,2024-11-24T09:11:39.101Z,32644,0.028802829,-0.010974599,0.005342911
1732439499103,2024-11-24T09:11:39.103Z,32646,0.028802829,-0.010974599,0.005342911
