Timestamp (ms),ISO DateTime,Elapsed Time (ms),Acceleration X,Acceleration Y,Acceleration Z
1732437413028,2024-11-24T08:36:53.028Z,34864,0.7238575,-0.1450295,-1.4670972
1732437413034,2024-11-24T08:36:53.034Z,34870,0.7238575,-0.1450295,-1.4670972
1732437413066,2024-11-24T08:36:53.066Z,34902,0.71647096,-0.11001795,-1.47496
1732437413073,2024-11-24T08:36:53.073Z,34909,0.71647096,-0.11001795,-1.47496
1732437413096,2024-11-24T08:36:53.096Z,34932,0.70192844,-0.08910633,-1.4706078
1732437413102,2024-11-24T08:36:53.102Z,34938,0.70192844,-0.08910633,-1.4706078
1732437413120,2024-11-24T08:36:53.120Z,34956,0.7046628,-0.083371446,-1.4808033
1732437413124,2024-11-24T08:36:53.124Z,34960,0.7046628,-0.083371446,-1.4808033
1732437413141,2024-11-24T08:36:53.141Z,34977,0.70344245,-0.08997029,-1.4953443
1732437413144,2024-11-24T08:36:53.144Z,34980,0.70344245,-0.08997029,-1.4953443
1732437413158,2024-11-24T08:36:53.158Z,34994,0.66162956,-0.0756783,-1.4932249
1732437413161,2024-11-24T08:36:53.161Z,34997,0.66162956,-0.0756783,-1.4932249
1732437413171,2024-11-24T08:36:53.171Z,35007,0.5954992,-0.041818682,-1.4816847
1732437413175,2024-11-24T08:36:53.175Z,35011,0.5954992,-0.041818682,-1.4816847
1732437413185,2024-11-24T08:36:53.185Z,35021,0.5652438,-0.024484707,-1.4420799
1732437413188,2024-11-24T08:36:53.188Z,35024,0.5652438,-0.024484707,-1.4420799
1732437413200,2024-11-24T08:36:53.200Z,35036,0.57989043,-0.029801125,-1.338763
1732437413204,2024-11-24T08:36:53.204Z,35040,0.57989043,-0.029801125,-1.338763
1732437413216,2024-11-24T08:36:53.216Z,35052,0.6322058,0.0018372282,-1.3115886
1732437413220,2024-11-24T08:36:53.220Z,35056,0.6322058,0.0018372282,-1.3115886
1732437413232,2024-11-24T08:36:53.232Z,35068,0.6422979,0.05987613,-1.2708557
1732437413235,2024-11-24T08:36:53.235Z,35071,0.6422979,0.05987613,-1.2708557
1732437413249,2024-11-24T08:36:53.249Z,35085,0.7124077,0.032427687,-1.4455713
1732437413253,2024-11-24T08:36:53.253Z,35089,0.7124077,0.032427687,-1.4455713
1732437413264,2024-11-24T08:36:53.264Z,35100,0.71914357,0.036569577,-1.5357249
1732437413267,2024-11-24T08:36:53.267Z,35103,0.71914357,0.036569577,-1.5357249
1732437413279,2024-11-24T08:36:53.279Z,35115,0.70806926,0.08422721,-1.5645041
1732437413282,2024-11-24T08:36:53.282Z,35118,0.70806926,0.08422721,-1.5645041
1732437413295,2024-11-24T08:36:53.295Z,35131,0.70661384,-0.00531511,-1.4910052
1732437413299,2024-11-24T08:36:53.299Z,35135,0.70661384,-0.00531511,-1.4910052
1732437413312,2024-11-24T08:36:53.312Z,35148,0.7465154,-0.01691985,-1.4449046
1732437413317,2024-11-24T08:36:53.317Z,35153,0.7465154,-0.01691985,-1.4449046
1732437413332,2024-11-24T08:36:53.332Z,35168,0.7610256,-0.03010351,-1.4273596
1732437413335,2024-11-24T08:36:53.335Z,35171,0.7610256,-0.03010351,-1.4273596
1732437413348,2024-11-24T08:36:53.348Z,35184,0.6470962,-0.027461102,-1.4397861
1732437413353,2024-11-24T08:36:53.353Z,35189,0.6470962,-0.027461102,-1.4397861
1732437413366,2024-11-24T08:36:53.366Z,35202,0.6733168,-0.05323431,-1.5173732
1732437413369,2024-11-24T08:36:53.369Z,35205,0.6733168,-0.05323431,-1.5173732
1732437413421,2024-11-24T08:36:53.421Z,35257,0.61414015,-0.08639208,-1.5292915
1732437413425,2024-11-24T08:36:53.425Z,35261,0.61414015,-0.08639208,-1.5292915
1732437413468,2024-11-24T08:36:53.468Z,35304,0.5774404,-0.085095346,-1.5072511
1732437413472,2024-11-24T08:36:53.472Z,35308,0.5774404,-0.085095346,-1.5072511
1732437413487,2024-11-24T08:36:53.487Z,35323,0.62549466,-0.09513983,-1.4918661
1732437413491,2024-11-24T08:36:53.491Z,35327,0.62549466,-0.09513983,-1.4918661
1732437413505,2024-11-24T08:36:53.505Z,35341,0.61743164,-0.11436836,-1.4725695
1732437413509,2024-11-24T08:36:53.509Z,35345,0.61743164,-0.11436836,-1.4725695
1732437413566,2024-11-24T08:36:53.566Z,35402,0.67945176,-0.13489373,-1.4852755
1732437413579,2024-11-24T08:36:53.579Z,35415,0.67945176,-0.13489373,-1.4852755
1732437413613,2024-11-24T08:36:53.613Z,35449,0.6546582,-0.14777355,-1.4997054
1732437413623,2024-11-24T08:36:53.623Z,35459,0.6546582,-0.14777355,-1.4997054
1732437413654,2024-11-24T08:36:53.654Z,35490,0.6605111,-0.14498647,-1.4765003
1732437413660,2024-11-24T08:36:53.660Z,35496,0.6605111,-0.14498647,-1.4765003
1732437413692,2024-11-24T08:36:53.692Z,35528,0.6473792,-0.14005369,-1.4418153
1732437413696,2024-11-24T08:36:53.696Z,35532,0.6473792,-0.14005369,-1.4418153
1732437413706,2024-11-24T08:36:53.706Z,35542,0.6558813,-0.13919714,-1.4412878
1732437413710,2024-11-24T08:36:53.710Z,35546,0.6558813,-0.13919714,-1.4412878
1732437413724,2024-11-24T08:36:53.724Z,35560,0.6118141,-0.1278113,-1.437035
1732437413728,2024-11-24T08:36:53.728Z,35564,0.6118141,-0.1278113,-1.437035
1732437413751,2024-11-24T08:36:53.751Z,35587,0.58346844,-0.12195104,-1.3861717
1732437413766,2024-11-24T08:36:53.766Z,35602,0.58346844,-0.12195104,-1.3861717
1732437413800,2024-11-24T08:36:53.800Z,35636,0.57108265,-0.11743453,-1.3845059
1732437413808,2024-11-24T08:36:53.808Z,35644,0.57108265,-0.11743453,-1.3845059
1732437413829,2024-11-24T08:36:53.829Z,35665,0.5211538,-0.123241425,-1.4109788
1732437413833,2024-11-24T08:36:53.833Z,35669,0.5211538,-0.123241425,-1.4109788
1732437413845,2024-11-24T08:36:53.845Z,35681,0.55185854,-0.12301673,-1.410456
1732437413849,2024-11-24T08:36:53.849Z,35685,0.55185854,-0.12301673,-1.410456
1732437413861,2024-11-24T08:36:53.861Z,35697,0.52090144,-0.14292626,-1.4490181
1732437413865,2024-11-24T08:36:53.865Z,35701,0.52090144,-0.14292626,-1.4490181
1732437413878,2024-11-24T08:36:53.878Z,35714,0.52893233,-0.15452096,-1.45555
1732437413883,2024-11-24T08:36:53.883Z,35719,0.52893233,-0.15452096,-1.45555
1732437413899,2024-11-24T08:36:53.899Z,35735,0.5061631,-0.15231118,-1.4485582
1732437413905,2024-11-24T08:36:53.905Z,35741,0.5061631,-0.15231118,-1.4485582
1732437413918,2024-11-24T08:36:53.918Z,35754,0.49432424,-0.17530976,-1.4320868
1732437413922,2024-11-24T08:36:53.922Z,35758,0.49432424,-0.17530976,-1.4320868
1732437413936,2024-11-24T08:36:53.936Z,35772,0.44148332,-0.17556216,-1.4275392
1732437413964,2024-11-24T08:36:53.964Z,35800,0.44148332,-0.17556216,-1.4275392
1732437413979,2024-11-24T08:36:53.979Z,35815,0.42353076,-0.15916294,-1.4040803
1732437413984,2024-11-24T08:36:53.984Z,35820,0.42353076,-0.15916294,-1.4040803
1732437413995,2024-11-24T08:36:53.995Z,35831,0.35365683,-0.1442177,-1.3612024
1732437413999,2024-11-24T08:36:53.999Z,35835,0.35365683,-0.1442177,-1.3612024
1732437414013,2024-11-24T08:36:54.013Z,35849,0.32934144,-0.13800533,-1.3484831
1732437414017,2024-11-24T08:36:54.017Z,35853,0.32934144,-0.13800533,-1.3484831
1732437414028,2024-11-24T08:36:54.028Z,35864,0.32673234,-0.13701722,-1.3226477
1732437414031,2024-11-24T08:36:54.031Z,35867,0.32673234,-0.13701722,-1.3226477
1732437414044,2024-11-24T08:36:54.044Z,35880,0.35487908,-0.13730346,-1.2926462
1732437414049,2024-11-24T08:36:54.049Z,35885,0.35487908,-0.13730346,-1.2926462
1732437414063,2024-11-24T08:36:54.063Z,35899,0.32787973,-0.12625985,-1.2744915
1732437414067,2024-11-24T08:36:54.067Z,35903,0.32787973,-0.12625985,-1.2744915
1732437414078,2024-11-24T08:36:54.078Z,35914,0.28984904,-0.1093768,-1.2751809
1732437414082,2024-11-24T08:36:54.082Z,35918,0.28984904,-0.1093768,-1.2751809
1732437414097,2024-11-24T08:36:54.097Z,35933,0.32179207,-0.12580277,-1.3016646
1732437414100,2024-11-24T08:36:54.100Z,35936,0.32179207,-0.12580277,-1.3016646
1732437414111,2024-11-24T08:36:54.111Z,35947,0.31120884,-0.1314968,-1.3168774
1732437414114,2024-11-24T08:36:54.114Z,35950,0.31120884,-0.1314968,-1.3168774
1732437414129,2024-11-24T08:36:54.129Z,35965,0.3004264,-0.13879812,-1.3337299
1732437414137,2024-11-24T08:36:54.137Z,35973,0.3004264,-0.13879812,-1.3337299
1732437414155,2024-11-24T08:36:54.155Z,35991,0.32268766,-0.12509793,-1.2990738
1732437414160,2024-11-24T08:36:54.160Z,35996,0.32268766,-0.12509793,-1.2990738
1732437414174,2024-11-24T08:36:54.174Z,36010,0.31903344,-0.115771994,-1.3037413
1732437414178,2024-11-24T08:36:54.178Z,36014,0.31903344,-0.115771994,-1.3037413
1732437414191,2024-11-24T08:36:54.191Z,36027,0.28091967,-0.11020381,-1.3069731
1732437414195,2024-11-24T08:36:54.195Z,36031,0.28091967,-0.11020381,-1.3069731
1732437414207,2024-11-24T08:36:54.207Z,36043,0.2384562,-0.09559549,-1.2871896
1732437414212,2024-11-24T08:36:54.212Z,36048,0.2384562,-0.09559549,-1.2871896
1732437414223,2024-11-24T08:36:54.223Z,36059,0.25202626,-0.09675924,-1.2922022
1732437414228,2024-11-24T08:36:54.228Z,36064,0.25202626,-0.09675924,-1.2922022
1732437414241,2024-11-24T08:36:54.241Z,36077,0.18879734,-0.078748874,-1.2195556
1732437414245,2024-11-24T08:36:54.245Z,36081,0.18879734,-0.078748874,-1.2195556
1732437414255,2024-11-24T08:36:54.255Z,36091,0.2091441,-0.07053462,-1.198714
1732437414259,2024-11-24T08:36:54.259Z,36095,0.2091441,-0.07053462,-1.198714
1732437414269,2024-11-24T08:36:54.269Z,36105,0.23709133,-0.06354846,-1.1991894
1732437414273,2024-11-24T08:36:54.273Z,36109,0.23709133,-0.06354846,-1.1991894
1732437414284,2024-11-24T08:36:54.284Z,36120,0.22822706,-0.07533482,-1.2178253
1732437414287,2024-11-24T08:36:54.287Z,36123,0.22822706,-0.07533482,-1.2178253
1732437414298,2024-11-24T08:36:54.298Z,36134,0.19438972,-0.07432621,-1.2242849
1732437414301,2024-11-24T08:36:54.301Z,36137,0.19438972,-0.07432621,-1.2242849
1732437414312,2024-11-24T08:36:54.312Z,36148,0.19837046,-0.07111427,-1.2246364
1732437414316,2024-11-24T08:36:54.316Z,36152,0.19837046,-0.07111427,-1.2246364
1732437414330,2024-11-24T08:36:54.330Z,36166,0.19758417,-0.054591842,-1.1692195
1732437414335,2024-11-24T08:36:54.335Z,36171,0.19758417,-0.054591842,-1.1692195
1732437414348,2024-11-24T08:36:54.348Z,36184,0.27218333,-0.05926235,-1.1766484
1732437414352,2024-11-24T08:36:54.352Z,36188,0.27218333,-0.05926235,-1.1766484
1732437414365,2024-11-24T08:36:54.365Z,36201,0.3069399,-0.08326229,-1.2036827
1732437414369,2024-11-24T08:36:54.369Z,36205,0.3069399,-0.08326229,-1.2036827
1732437414382,2024-11-24T08:36:54.382Z,36218,0.2185919,-0.0678053,-1.2191569
1732437414385,2024-11-24T08:36:54.385Z,36221,0.2185919,-0.0678053,-1.2191569
1732437414397,2024-11-24T08:36:54.397Z,36233,0.23278293,-0.06875179,-1.2132827
1732437414400,2024-11-24T08:36:54.400Z,36236,0.23278293,-0.06875179,-1.2132827
1732437414415,2024-11-24T08:36:54.415Z,36251,0.22805995,-0.08149109,-1.2202203
1732437414419,2024-11-24T08:36:54.419Z,36255,0.22805995,-0.08149109,-1.2202203
1732437414430,2024-11-24T08:36:54.430Z,36266,0.17700377,-0.07437571,-1.223202
1732437414434,2024-11-24T08:36:54.434Z,36270,0.17700377,-0.07437571,-1.223202
1732437414449,2024-11-24T08:36:54.449Z,36285,0.20713656,-0.068641886,-1.222563
1732437414458,2024-11-24T08:36:54.458Z,36294,0.20713656,-0.068641886,-1.222563
1732437414481,2024-11-24T08:36:54.481Z,36317,0.23014566,-0.059610296,-1.2275465
1732437414487,2024-11-24T08:36:54.487Z,36323,0.23014566,-0.059610296,-1.2275465
1732437414502,2024-11-24T08:36:54.502Z,36338,0.23868324,-0.06705204,-1.2188373
1732437414506,2024-11-24T08:36:54.506Z,36342,0.23868324,-0.06705204,-1.2188373
1732437414518,2024-11-24T08:36:54.518Z,36354,0.22495453,-0.065429784,-1.2182181
1732437414521,2024-11-24T08:36:54.521Z,36357,0.22495453,-0.065429784,-1.2182181
1732437414532,2024-11-24T08:36:54.532Z,36368,0.23754315,-0.04932593,-1.2200116
1732437414536,2024-11-24T08:36:54.536Z,36372,0.23754315,-0.04932593,-1.2200116
1732437414548,2024-11-24T08:36:54.548Z,36384,0.21912351,-0.05092878,-1.1682459
1732437414552,2024-11-24T08:36:54.552Z,36388,0.21912351,-0.05092878,-1.1682459
1732437414566,2024-11-24T08:36:54.566Z,36402,0.18334389,-0.055394553,-1.1372546
1732437414573,2024-11-24T08:36:54.573Z,36409,0.18334389,-0.055394553,-1.1372546
1732437414592,2024-11-24T08:36:54.592Z,36428,0.15565543,-0.04495608,-1.1064464
1732437414595,2024-11-24T08:36:54.595Z,36431,0.15565543,-0.04495608,-1.1064464
1732437414604,2024-11-24T08:36:54.604Z,36440,0.10835433,-0.036774084,-1.1183178
1732437414607,2024-11-24T08:36:54.607Z,36443,0.10835433,-0.036774084,-1.1183178
1732437414618,2024-11-24T08:36:54.618Z,36454,0.09183233,-0.03362329,-1.1374571
1732437414622,2024-11-24T08:36:54.622Z,36458,0.09183233,-0.03362329,-1.1374571
1732437414633,2024-11-24T08:36:54.633Z,36469,0.1110461,-0.02153276,-1.1322277
1732437414637,2024-11-24T08:36:54.637Z,36473,0.1110461,-0.02153276,-1.1322277
1732437414651,2024-11-24T08:36:54.651Z,36487,0.14757472,-0.023021415,-1.1247526
1732437414655,2024-11-24T08:36:54.655Z,36491,0.14757472,-0.023021415,-1.1247526
1732437414672,2024-11-24T08:36:54.672Z,36508,0.11157469,-0.038555443,-1.1050326
1732437414681,2024-11-24T08:36:54.681Z,36517,0.11157469,-0.038555443,-1.1050326
1732437414703,2024-11-24T08:36:54.703Z,36539,0.017368637,0.0085003255,-0.9383572
1732437414711,2024-11-24T08:36:54.711Z,36547,0.017368637,0.0085003255,-0.9383572
1732437414724,2024-11-24T08:36:54.724Z,36560,0.0304892,0.0066036545,-0.9451455
1732437414728,2024-11-24T08:36:54.728Z,36564,0.0304892,0.0066036545,-0.9451455
1732437414739,2024-11-24T08:36:54.739Z,36575,-0.013484854,0.01586582,-0.9231667
1732437414742,2024-11-24T08:36:54.742Z,36578,-0.013484854,0.01586582,-0.9231667
1732437414753,2024-11-24T08:36:54.753Z,36589,-0.037995946,0.01526636,-0.9108855
1732437414757,2024-11-24T08:36:54.757Z,36593,-0.037995946,0.01526636,-0.9108855
1732437414769,2024-11-24T08:36:54.769Z,36605,-0.04214969,0.009376697,-0.8933885
1732437414772,2024-11-24T08:36:54.772Z,36608,-0.04214969,0.009376697,-0.8933885
1732437414788,2024-11-24T08:36:54.788Z,36624,-0.0347293,0.012977076,-0.8723152
1732437414792,2024-11-24T08:36:54.792Z,36628,-0.0347293,0.012977076,-0.8723152
1732437414803,2024-11-24T08:36:54.803Z,36639,-0.027959885,0.019391304,-0.8665016
1732437414807,2024-11-24T08:36:54.807Z,36643,-0.027959885,0.019391304,-0.8665016
1732437414821,2024-11-24T08:36:54.821Z,36657,-0.03339292,0.021820953,-0.8587646
1732437414824,2024-11-24T08:36:54.824Z,36660,-0.03339292,0.021820953,-0.8587646
1732437414836,2024-11-24T08:36:54.836Z,36672,-0.0027916902,0.040224317,-0.8637952
1732437414839,2024-11-24T08:36:54.839Z,36675,-0.0027916902,0.040224317,-0.8637952
1732437414854,2024-11-24T08:36:54.854Z,36690,-0.015775427,0.045416687,-0.84640664
1732437414862,2024-11-24T08:36:54.862Z,36698,-0.015775427,0.045416687,-0.84640664
1732437414883,2024-11-24T08:36:54.883Z,36719,-0.041294686,0.04296353,-0.83582455
1732437414888,2024-11-24T08:36:54.888Z,36724,-0.041294686,0.04296353,-0.83582455
1732437414899,2024-11-24T08:36:54.899Z,36735,-0.057403866,0.035808578,-0.7807196
1732437414903,2024-11-24T08:36:54.903Z,36739,-0.057403866,0.035808578,-0.7807196
1732437414915,2024-11-24T08:36:54.915Z,36751,-0.07798975,0.05589572,-0.76389116
1732437414918,2024-11-24T08:36:54.918Z,36754,-0.07798975,0.05589572,-0.76389116
1732437414928,2024-11-24T08:36:54.928Z,36764,-0.09114513,0.04745023,-0.7392823
1732437414932,2024-11-24T08:36:54.932Z,36768,-0.09114513,0.04745023,-0.7392823
1732437414942,2024-11-24T08:36:54.942Z,36778,-0.03365549,0.074501045,-0.69390535
1732437414947,2024-11-24T08:36:54.947Z,36783,-0.03365549,0.074501045,-0.69390535
1732437414956,2024-11-24T08:36:54.956Z,36792,-0.016903792,0.09373996,-0.69585276
1732437414959,2024-11-24T08:36:54.959Z,36795,-0.016903792,0.09373996,-0.69585276
1732437414968,2024-11-24T08:36:54.968Z,36804,-0.045967437,0.067290395,-0.70917624
1732437414971,2024-11-24T08:36:54.971Z,36807,-0.045967437,0.067290395,-0.70917624
1732437414986,2024-11-24T08:36:54.986Z,36822,-0.13849019,0.080973156,-0.68136185
1732437414993,2024-11-24T08:36:54.993Z,36829,-0.13849019,0.080973156,-0.68136185
1732437415011,2024-11-24T08:36:55.011Z,36847,-0.123002894,0.079948686,-0.6646867
1732437415014,2024-11-24T08:36:55.014Z,36850,-0.123002894,0.079948686,-0.6646867
1732437415026,2024-11-24T08:36:55.026Z,36862,-0.13157918,0.10893225,-0.6788954
1732437415030,2024-11-24T08:36:55.030Z,36866,-0.13157918,0.10893225,-0.6788954
1732437415043,2024-11-24T08:36:55.043Z,36879,-0.08106696,0.13798523,-0.64547634
1732437415046,2024-11-24T08:36:55.046Z,36882,-0.08106696,0.13798523,-0.64547634
1732437415056,2024-11-24T08:36:55.056Z,36892,-0.06454769,0.12431487,-0.66529447
1732437415059,2024-11-24T08:36:55.059Z,36895,-0.06454769,0.12431487,-0.66529447
1732437415069,2024-11-24T08:36:55.069Z,36905,-0.040234685,0.1267331,-0.71677107
1732437415072,2024-11-24T08:36:55.072Z,36908,-0.040234685,0.1267331,-0.71677107
1732437415083,2024-11-24T08:36:55.083Z,36919,-0.10482827,0.14368275,-0.67029023
1732437415087,2024-11-24T08:36:55.087Z,36923,-0.10482827,0.14368275,-0.67029023
1732437415097,2024-11-24T08:36:55.097Z,36933,-0.114267424,0.14151375,-0.67829144
1732437415102,2024-11-24T08:36:55.102Z,36938,-0.114267424,0.14151375,-0.67829144
1732437415111,2024-11-24T08:36:55.111Z,36947,-0.11918223,0.13047855,-0.69368654
1732437415115,2024-11-24T08:36:55.115Z,36951,-0.11918223,0.13047855,-0.69368654
1732437415127,2024-11-24T08:36:55.127Z,36963,-0.10390636,0.14756349,-0.6976981
1732437415131,2024-11-24T08:36:55.131Z,36967,-0.10390636,0.14756349,-0.6976981
1732437415142,2024-11-24T08:36:55.142Z,36978,-0.10225354,0.15464517,-0.67565495
1732437415145,2024-11-24T08:36:55.145Z,36981,-0.10225354,0.15464517,-0.67565495
1732437415155,2024-11-24T08:36:55.155Z,36991,-0.109038025,0.14908391,-0.6588568
1732437415158,2024-11-24T08:36:55.158Z,36994,-0.109038025,0.14908391,-0.6588568
1732437415167,2024-11-24T08:36:55.167Z,37003,-0.111841775,0.16987129,-0.69296783
1732437415170,2024-11-24T08:36:55.170Z,37006,-0.111841775,0.16987129,-0.69296783
1732437415179,2024-11-24T08:36:55.179Z,37015,-0.12585352,0.17066082,-0.7260163
1732437415182,2024-11-24T08:36:55.182Z,37018,-0.12585352,0.17066082,-0.7260163
1732437415192,2024-11-24T08:36:55.192Z,37028,-0.13217306,0.16355383,-0.73273724
1732437415196,2024-11-24T08:36:55.196Z,37032,-0.13217306,0.16355383,-0.73273724
1732437415206,2024-11-24T08:36:55.206Z,37042,-0.055719927,0.14394575,-0.7146892
1732437415209,2024-11-24T08:36:55.209Z,37045,-0.055719927,0.14394575,-0.7146892
1732437415218,2024-11-24T08:36:55.218Z,37054,-0.055726733,0.1473493,-0.72541255
1732437415224,2024-11-24T08:36:55.224Z,37060,-0.055726733,0.1473493,-0.72541255
1732437415236,2024-11-24T08:36:55.236Z,37072,-0.04452934,0.17416726,-0.71991843
1732437415239,2024-11-24T08:36:55.239Z,37075,-0.04452934,0.17416726,-0.71991843
1732437415251,2024-11-24T08:36:55.251Z,37087,-0.04454198,0.1253867,-0.71932745
1732437415254,2024-11-24T08:36:55.254Z,37090,-0.04454198,0.1253867,-0.71932745
1732437415265,2024-11-24T08:36:55.265Z,37101,-0.06211766,0.14621972,-0.7478055
1732437415268,2024-11-24T08:36:55.268Z,37104,-0.06211766,0.14621972,-0.7478055
1732437415277,2024-11-24T08:36:55.277Z,37113,-0.09737355,0.17355058,-0.76096606
1732437415280,2024-11-24T08:36:55.280Z,37116,-0.09737355,0.17355058,-0.76096606
1732437415289,2024-11-24T08:36:55.289Z,37125,-0.10555724,0.16787341,-0.7778708
1732437415291,2024-11-24T08:36:55.291Z,37127,-0.10555724,0.16787341,-0.7778708
1732437415301,2024-11-24T08:36:55.301Z,37137,-0.1077424,0.15861073,-0.7571709
1732437415305,2024-11-24T08:36:55.305Z,37141,-0.1077424,0.15861073,-0.7571709
1732437415316,2024-11-24T08:36:55.316Z,37152,-0.11635738,0.16441974,-0.66978246
1732437415319,2024-11-24T08:36:55.319Z,37155,-0.11635738,0.16441974,-0.66978246
1732437415329,2024-11-24T08:36:55.329Z,37165,-0.0012275579,0.20004186,-0.6058343
1732437415332,2024-11-24T08:36:55.332Z,37168,-0.0012275579,0.20004186,-0.6058343
1732437415341,2024-11-24T08:36:55.341Z,37177,-0.024998497,0.19316895,-0.6270767
1732437415345,2024-11-24T08:36:55.345Z,37181,-0.024998497,0.19316895,-0.6270767
1732437415355,2024-11-24T08:36:55.355Z,37191,-0.043831684,0.19202042,-0.64968073
1732437415358,2024-11-24T08:36:55.358Z,37194,-0.043831684,0.19202042,-0.64968073
1732437415369,2024-11-24T08:36:55.369Z,37205,-0.040859405,0.21506335,-0.74320126
1732437415372,2024-11-24T08:36:55.372Z,37208,-0.040859405,0.21506335,-0.74320126
1732437415382,2024-11-24T08:36:55.382Z,37218,-0.10254431,0.22628213,-0.7153741
1732437415385,2024-11-24T08:36:55.385Z,37221,-0.10254431,0.22628213,-0.7153741
1732437415399,2024-11-24T08:36:55.399Z,37235,-0.11594427,0.22762236,-0.6611268
1732437415406,2024-11-24T08:36:55.406Z,37242,-0.11594427,0.22762236,-0.6611268
1732437415418,2024-11-24T08:36:55.418Z,37254,-0.11285753,0.29425058,-0.6475138
1732437415421,2024-11-24T08:36:55.421Z,37257,-0.11285753,0.29425058,-0.6475138
1732437415430,2024-11-24T08:36:55.430Z,37266,-0.1448426,0.16926727,-0.7068879
1732437415435,2024-11-24T08:36:55.435Z,37271,-0.1448426,0.16926727,-0.7068879
1732437415445,2024-11-24T08:36:55.445Z,37281,-0.21336626,0.25063485,-0.731743
1732437415448,2024-11-24T08:36:55.448Z,37284,-0.21336626,0.25063485,-0.731743
1732437415458,2024-11-24T08:36:55.458Z,37294,-0.11646124,0.2789366,-0.7075548
1732437415461,2024-11-24T08:36:55.461Z,37297,-0.11646124,0.2789366,-0.7075548
1732437415471,2024-11-24T08:36:55.471Z,37307,0.13942249,0.24181332,-0.68959844
1732437415475,2024-11-24T08:36:55.475Z,37311,0.13942249,0.24181332,-0.68959844
1732437415485,2024-11-24T08:36:55.485Z,37321,0.13094658,0.22516683,-0.71460295
1732437415489,2024-11-24T08:36:55.489Z,37325,0.13094658,0.22516683,-0.71460295
1732437415499,2024-11-24T08:36:55.499Z,37335,0.070887454,0.22530796,-0.7085911
1732437415502,2024-11-24T08:36:55.502Z,37338,0.070887454,0.22530796,-0.7085911
1732437415513,2024-11-24T08:36:55.513Z,37349,-0.027037004,0.21231663,-0.642602
1732437415517,2024-11-24T08:36:55.517Z,37353,-0.027037004,0.21231663,-0.642602
1732437415525,2024-11-24T08:36:55.525Z,37361,-0.06797294,0.21229137,-0.6171114
1732437415528,2024-11-24T08:36:55.528Z,37364,-0.06797294,0.21229137,-0.6171114
1732437415539,2024-11-24T08:36:55.539Z,37375,-0.112337545,0.20853391,-0.6075109
1732437415542,2024-11-24T08:36:55.542Z,37378,-0.112337545,0.20853391,-0.6075109
1732437415555,2024-11-24T08:36:55.555Z,37391,-0.14688568,0.2186892,-0.63045603
1732437415558,2024-11-24T08:36:55.558Z,37394,-0.14688568,0.2186892,-0.63045603
1732437415568,2024-11-24T08:36:55.568Z,37404,-0.1434609,0.22211981,-0.6322917
1732437415572,2024-11-24T08:36:55.572Z,37408,-0.1434609,0.22211981,-0.6322917
1732437415583,2024-11-24T08:36:55.583Z,37419,-0.094761476,0.2312289,-0.63066006
1732437415586,2024-11-24T08:36:55.586Z,37422,-0.094761476,0.2312289,-0.63066006
1732437415600,2024-11-24T08:36:55.600Z,37436,-0.08789638,0.23358527,-0.63337594
1732437415606,2024-11-24T08:36:55.606Z,37442,-0.08789638,0.23358527,-0.63337594
1732437415632,2024-11-24T08:36:55.632Z,37468,-0.09851116,0.227813,-0.63657606
1732437415638,2024-11-24T08:36:55.638Z,37474,-0.09851116,0.227813,-0.63657606
1732437415660,2024-11-24T08:36:55.660Z,37496,-0.105788596,0.23179759,-0.6319981
1732437415665,2024-11-24T08:36:55.665Z,37501,-0.105788596,0.23179759,-0.6319981
1732437415676,2024-11-24T08:36:55.676Z,37512,-0.031998873,0.23570313,-0.62372535
1732437415680,2024-11-24T08:36:55.680Z,37516,-0.031998873,0.23570313,-0.62372535
1732437415691,2024-11-24T08:36:55.691Z,37527,-0.01629969,0.23468776,-0.63164985
1732437415694,2024-11-24T08:36:55.694Z,37530,-0.01629969,0.23468776,-0.63164985
1732437415704,2024-11-24T08:36:55.704Z,37540,-0.014213921,0.24122898,-0.6290753
1732437415707,2024-11-24T08:36:55.707Z,37543,-0.014213921,0.24122898,-0.6290753
1732437415716,2024-11-24T08:36:55.716Z,37552,-0.09093644,0.23696147,-0.61359626
1732437415719,2024-11-24T08:36:55.719Z,37555,-0.09093644,0.23696147,-0.61359626
1732437415732,2024-11-24T08:36:55.732Z,37568,-0.10432239,0.24687137,-0.6091227
1732437415735,2024-11-24T08:36:55.735Z,37571,-0.10432239,0.24687137,-0.6091227
1732437415750,2024-11-24T08:36:55.750Z,37586,-0.09912469,0.25050887,-0.61448276
1732437415755,2024-11-24T08:36:55.755Z,37591,-0.09912469,0.25050887,-0.61448276
1732437415766,2024-11-24T08:36:55.766Z,37602,-0.1522288,0.23546074,-0.6292283
1732437415769,2024-11-24T08:36:55.769Z,37605,-0.1522288,0.23546074,-0.6292283
1732437415783,2024-11-24T08:36:55.783Z,37619,-0.12467721,0.23666729,-0.62802553
1732437415787,2024-11-24T08:36:55.787Z,37623,-0.12467721,0.23666729,-0.62802553
1732437415798,2024-11-24T08:36:55.798Z,37634,-0.08006297,0.24320905,-0.62035394
1732437415802,2024-11-24T08:36:55.802Z,37638,-0.08006297,0.24320905,-0.62035394
1732437415814,2024-11-24T08:36:55.814Z,37650,-0.07058842,0.23946737,-0.614289
1732437415817,2024-11-24T08:36:55.817Z,37653,-0.07058842,0.23946737,-0.614289
1732437415829,2024-11-24T08:36:55.829Z,37665,-0.07013797,0.22529818,-0.6154605
1732437415832,2024-11-24T08:36:55.832Z,37668,-0.07013797,0.22529818,-0.6154605
1732437415844,2024-11-24T08:36:55.844Z,37680,-0.04313607,0.22445428,-0.61644393
1732437415848,2024-11-24T08:36:55.848Z,37684,-0.04313607,0.22445428,-0.61644393
1732437415859,2024-11-24T08:36:55.859Z,37695,-0.031782497,0.22200741,-0.6121096
1732437415864,2024-11-24T08:36:55.864Z,37700,-0.031782497,0.22200741,-0.6121096
1732437415878,2024-11-24T08:36:55.878Z,37714,-0.09739592,0.2187413,-0.6096303
1732437415884,2024-11-24T08:36:55.884Z,37720,-0.09739592,0.2187413,-0.6096303
1732437415905,2024-11-24T08:36:55.905Z,37741,-0.10498941,0.21765183,-0.6245817
1732437415911,2024-11-24T08:36:55.911Z,37747,-0.10498941,0.21765183,-0.6245817
1732437415923,2024-11-24T08:36:55.923Z,37759,-0.087179564,0.21952222,-0.64102644
1732437415926,2024-11-24T08:36:55.926Z,37762,-0.087179564,0.21952222,-0.64102644
1732437415936,2024-11-24T08:36:55.936Z,37772,-0.1285006,0.22663553,-0.6356446
1732437415940,2024-11-24T08:36:55.940Z,37776,-0.1285006,0.22663553,-0.6356446
1732437415951,2024-11-24T08:36:55.951Z,37787,-0.1176249,0.22982179,-0.6233781
1732437415954,2024-11-24T08:36:55.954Z,37790,-0.1176249,0.22982179,-0.6233781
1732437415964,2024-11-24T08:36:55.964Z,37800,-0.09263711,0.22711618,-0.6211241
1732437415967,2024-11-24T08:36:55.967Z,37803,-0.09263711,0.22711618,-0.6211241
1732437415977,2024-11-24T08:36:55.977Z,37813,-0.066675656,0.22650541,-0.6240269
1732437415980,2024-11-24T08:36:55.980Z,37816,-0.066675656,0.22650541,-0.6240269
1732437415989,2024-11-24T08:36:55.989Z,37825,-0.05834824,0.223241,-0.62445605
1732437415992,2024-11-24T08:36:55.992Z,37828,-0.05834824,0.223241,-0.62445605
1732437416002,2024-11-24T08:36:56.002Z,37838,-0.05686424,0.22879258,-0.6213848
1732437416005,2024-11-24T08:36:56.005Z,37841,-0.05686424,0.22879258,-0.6213848
1732437416015,2024-11-24T08:36:56.015Z,37851,-0.07419777,0.22329475,-0.62963843
1732437416018,2024-11-24T08:36:56.018Z,37854,-0.07419777,0.22329475,-0.62963843
1732437416029,2024-11-24T08:36:56.029Z,37865,-0.08836861,0.21674752,-0.6157734
1732437416034,2024-11-24T08:36:56.034Z,37870,-0.08836861,0.21674752,-0.6157734
1732437416045,2024-11-24T08:36:56.045Z,37881,-0.11362394,0.22521064,-0.6090855
1732437416050,2024-11-24T08:36:56.050Z,37886,-0.11362394,0.22521064,-0.6090855
1732437416064,2024-11-24T08:36:56.064Z,37900,-0.102940984,0.20959887,-0.60721403
1732437416070,2024-11-24T08:36:56.070Z,37906,-0.102940984,0.20959887,-0.60721403
1732437416091,2024-11-24T08:36:56.091Z,37927,-0.08152159,0.21978468,-0.61275166
1732437416095,2024-11-24T08:36:56.095Z,37931,-0.08152159,0.21978468,-0.61275166
1732437416106,2024-11-24T08:36:56.106Z,37942,-0.078668244,0.22154965,-0.61595595
1732437416110,2024-11-24T08:36:56.110Z,37946,-0.078668244,0.22154965,-0.61595595
1732437416121,2024-11-24T08:36:56.121Z,37957,-0.07051675,0.21564865,-0.61676127
1732437416124,2024-11-24T08:36:56.124Z,37960,-0.07051675,0.21564865,-0.61676127
1732437416137,2024-11-24T08:36:56.137Z,37973,-0.0764119,0.21736036,-0.6066409
1732437416144,2024-11-24T08:36:56.144Z,37980,-0.0764119,0.21736036,-0.6066409
1732437416164,2024-11-24T08:36:56.164Z,38000,-0.062263917,0.21957761,-0.59908974
1732437416169,2024-11-24T08:36:56.169Z,38005,-0.062263917,0.21957761,-0.59908974
1732437416192,2024-11-24T08:36:56.192Z,38028,-0.06346483,0.2097426,-0.57701933
1732437416196,2024-11-24T08:36:56.196Z,38032,-0.06346483,0.2097426,-0.57701933
1732437416209,2024-11-24T08:36:56.209Z,38045,-0.104211524,0.19489078,-0.5497504
1732437416213,2024-11-24T08:36:56.213Z,38049,-0.104211524,0.19489078,-0.5497504
1732437416225,2024-11-24T08:36:56.225Z,38061,-0.09691853,0.18812907,-0.5447246
1732437416228,2024-11-24T08:36:56.228Z,38064,-0.09691853,0.18812907,-0.5447246
1732437416240,2024-11-24T08:36:56.240Z,38076,-0.09418723,0.18150702,-0.53787696
1732437416243,2024-11-24T08:36:56.243Z,38079,-0.09418723,0.18150702,-0.53787696
1732437416254,2024-11-24T08:36:56.254Z,38090,-0.11711017,0.17591083,-0.5008333
1732437416257,2024-11-24T08:36:56.257Z,38093,-0.11711017,0.17591083,-0.5008333
1732437416266,2024-11-24T08:36:56.266Z,38102,-0.1144769,0.16907252,-0.48093697
1732437416269,2024-11-24T08:36:56.269Z,38105,-0.1144769,0.16907252,-0.48093697
1732437416280,2024-11-24T08:36:56.280Z,38116,-0.11693493,0.15897064,-0.46560004
1732437416283,2024-11-24T08:36:56.283Z,38119,-0.11693493,0.15897064,-0.46560004
1732437416295,2024-11-24T08:36:56.295Z,38131,-0.0897116,0.15272076,-0.420855
1732437416299,2024-11-24T08:36:56.299Z,38135,-0.0897116,0.15272076,-0.420855
1732437416310,2024-11-24T08:36:56.310Z,38146,-0.102989316,0.14243527,-0.40870482
1732437416313,2024-11-24T08:36:56.313Z,38149,-0.102989316,0.14243527,-0.40870482
1732437416326,2024-11-24T08:36:56.326Z,38162,-0.111689486,0.13812318,-0.38524786
1732437416333,2024-11-24T08:36:56.333Z,38169,-0.111689486,0.13812318,-0.38524786
1732437416354,2024-11-24T08:36:56.354Z,38190,-0.09978627,0.13700797,-0.36843258
1732437416359,2024-11-24T08:36:56.359Z,38195,-0.09978627,0.13700797,-0.36843258
1732437416375,2024-11-24T08:36:56.375Z,38211,-0.08995774,0.13391815,-0.36356398
1732437416378,2024-11-24T08:36:56.378Z,38214,-0.08995774,0.13391815,-0.36356398
1732437416388,2024-11-24T08:36:56.388Z,38224,-0.10005214,0.1254469,-0.35332116
1732437416390,2024-11-24T08:36:56.390Z,38226,-0.10005214,0.1254469,-0.35332116
1732437416400,2024-11-24T08:36:56.400Z,38236,-0.094939835,0.112844914,-0.3293942
1732437416403,2024-11-24T08:36:56.403Z,38239,-0.094939835,0.112844914,-0.3293942
1732437416411,2024-11-24T08:36:56.411Z,38247,-0.078752175,0.115286484,-0.33196375
1732437416414,2024-11-24T08:36:56.414Z,38250,-0.078752175,0.115286484,-0.33196375
1732437416423,2024-11-24T08:36:56.423Z,38259,-0.08598614,0.11574112,-0.3185223
1732437416425,2024-11-24T08:36:56.425Z,38261,-0.08598614,0.11574112,-0.3185223
1732437416434,2024-11-24T08:36:56.434Z,38270,-0.10799436,0.11034854,-0.26539984
1732437416438,2024-11-24T08:36:56.438Z,38274,-0.10799436,0.11034854,-0.26539984
1732437416449,2024-11-24T08:36:56.449Z,38285,-0.08516498,0.107239164,-0.25772065
1732437416452,2024-11-24T08:36:56.452Z,38288,-0.08516498,0.107239164,-0.25772065
1732437416462,2024-11-24T08:36:56.462Z,38298,-0.06765271,0.10177968,-0.25714347
1732437416466,2024-11-24T08:36:56.466Z,38302,-0.06765271,0.10177968,-0.25714347
1732437416476,2024-11-24T08:36:56.476Z,38312,-0.07021159,0.09880342,-0.2528553
1732437416479,2024-11-24T08:36:56.479Z,38315,-0.07021159,0.09880342,-0.2528553
1732437416489,2024-11-24T08:36:56.489Z,38325,-0.07613835,0.097912714,-0.24669248
1732437416492,2024-11-24T08:36:56.492Z,38328,-0.07613835,0.097912714,-0.24669248
1732437416503,2024-11-24T08:36:56.503Z,38339,-0.07572592,0.096407734,-0.23836514
1732437416505,2024-11-24T08:36:56.505Z,38341,-0.07572592,0.096407734,-0.23836514
1732437416514,2024-11-24T08:36:56.514Z,38350,-0.083643146,0.09386187,-0.23235445
1732437416516,2024-11-24T08:36:56.516Z,38352,-0.083643146,0.09386187,-0.23235445
1732437416527,2024-11-24T08:36:56.527Z,38363,-0.0906831,0.092074454,-0.2143384
1732437416530,2024-11-24T08:36:56.530Z,38366,-0.0906831,0.092074454,-0.2143384
1732437416540,2024-11-24T08:36:56.540Z,38376,-0.0882807,0.097151645,-0.19860916
1732437416543,2024-11-24T08:36:56.543Z,38379,-0.0882807,0.097151645,-0.19860916
1732437416553,2024-11-24T08:36:56.553Z,38389,-0.07997098,0.092483856,-0.19364792
1732437416557,2024-11-24T08:36:56.557Z,38393,-0.07997098,0.092483856,-0.19364792
1732437416569,2024-11-24T08:36:56.569Z,38405,-0.050464563,0.08148092,-0.19200246
1732437416573,2024-11-24T08:36:56.573Z,38409,-0.050464563,0.08148092,-0.19200246
1732437416585,2024-11-24T08:36:56.585Z,38421,-0.046454165,0.08005759,-0.1868626
1732437416589,2024-11-24T08:36:56.589Z,38425,-0.046454165,0.08005759,-0.1868626
1732437416601,2024-11-24T08:36:56.601Z,38437,-0.05714752,0.08241736,-0.17617176
1732437416604,2024-11-24T08:36:56.604Z,38440,-0.05714752,0.08241736,-0.17617176
1732437416616,2024-11-24T08:36:56.616Z,38452,-0.084069096,0.06581308,-0.15505372
1732437416620,2024-11-24T08:36:56.620Z,38456,-0.084069096,0.06581308,-0.15505372
1732437416631,2024-11-24T08:36:56.631Z,38467,-0.08570188,0.06567322,-0.15457106
1732437416635,2024-11-24T08:36:56.635Z,38471,-0.08570188,0.06567322,-0.15457106
1732437416644,2024-11-24T08:36:56.644Z,38480,-0.069754034,0.06510113,-0.1663016
1732437416646,2024-11-24T08:36:56.646Z,38482,-0.069754034,0.06510113,-0.1663016
1732437416655,2024-11-24T08:36:56.655Z,38491,-0.086084746,0.056404695,-0.15561682
1732437416658,2024-11-24T08:36:56.658Z,38494,-0.086084746,0.056404695,-0.15561682
1732437416669,2024-11-24T08:36:56.669Z,38505,-0.08309885,0.05461208,-0.15053768
1732437416676,2024-11-24T08:36:56.676Z,38512,-0.08309885,0.05461208,-0.15053768
1732437416690,2024-11-24T08:36:56.690Z,38526,-0.07184039,0.056639634,-0.1495294
1732437416692,2024-11-24T08:36:56.692Z,38528,-0.07184039,0.056639634,-0.1495294
1732437416704,2024-11-24T08:36:56.704Z,38540,-0.07186811,0.04733406,-0.14301497
1732437416708,2024-11-24T08:36:56.708Z,38544,-0.07186811,0.04733406,-0.14301497
1732437416717,2024-11-24T08:36:56.717Z,38553,-0.07383377,0.0478892,-0.12830171
1732437416719,2024-11-24T08:36:56.719Z,38555,-0.07383377,0.0478892,-0.12830171
1732437416729,2024-11-24T08:36:56.729Z,38565,-0.066067085,0.0419302,-0.13032871
1732437416732,2024-11-24T08:36:56.732Z,38568,-0.066067085,0.0419302,-0.13032871
1732437416743,2024-11-24T08:36:56.743Z,38579,-0.05763736,0.04314673,-0.124081716
1732437416747,2024-11-24T08:36:56.747Z,38583,-0.05763736,0.04314673,-0.124081716
1732437416757,2024-11-24T08:36:56.757Z,38593,-0.03742131,0.038863596,-0.12253051
1732437416760,2024-11-24T08:36:56.760Z,38596,-0.03742131,0.038863596,-0.12253051
1732437416769,2024-11-24T08:36:56.769Z,38605,-0.019672435,0.03734025,-0.120717525
1732437416772,2024-11-24T08:36:56.772Z,38608,-0.019672435,0.03734025,-0.120717525
1732437416783,2024-11-24T08:36:56.783Z,38619,-0.016358525,0.036601465,-0.12857087
1732437416787,2024-11-24T08:36:56.787Z,38623,-0.016358525,0.036601465,-0.12857087
1732437416798,2024-11-24T08:36:56.798Z,38634,0.006301555,0.041470855,-0.12897271
1732437416801,2024-11-24T08:36:56.801Z,38637,0.006301555,0.041470855,-0.12897271
1732437416810,2024-11-24T08:36:56.810Z,38646,-0.024981188,0.039764713,-0.11383076
1732437416813,2024-11-24T08:36:56.813Z,38649,-0.024981188,0.039764713,-0.11383076
1732437416826,2024-11-24T08:36:56.826Z,38662,-0.068552345,0.04086986,-0.04718182
1732437416830,2024-11-24T08:36:56.830Z,38666,-0.068552345,0.04086986,-0.04718182
1732437416847,2024-11-24T08:36:56.847Z,38683,-0.008985105,0.0906006,-0.081687644
1732437416853,2024-11-24T08:36:56.853Z,38689,-0.008985105,0.0906006,-0.081687644
1732437416875,2024-11-24T08:36:56.875Z,38711,-0.03060337,0.06367378,-0.081388265
1732437416882,2024-11-24T08:36:56.882Z,38718,-0.03060337,0.06367378,-0.081388265
1732437416896,2024-11-24T08:36:56.896Z,38732,-0.15854125,-0.012218625,-0.12834884
1732437416900,2024-11-24T08:36:56.900Z,38736,-0.15854125,-0.012218625,-0.12834884
1732437416919,2024-11-24T08:36:56.919Z,38755,-0.17137668,0.09386127,-0.12427139
1732437416926,2024-11-24T08:36:56.926Z,38762,-0.17137668,0.09386127,-0.12427139
1732437416949,2024-11-24T08:36:56.949Z,38785,-0.083800495,0.07153986,-0.13075301
1732437416953,2024-11-24T08:36:56.953Z,38789,-0.083800495,0.07153986,-0.13075301
1732437416966,2024-11-24T08:36:56.966Z,38802,-0.05669289,0.06540646,-0.14733146
1732437416969,2024-11-24T08:36:56.969Z,38805,-0.05669289,0.06540646,-0.14733146
1732437416979,2024-11-24T08:36:56.979Z,38815,0.05104844,0.03786544,-0.14149635
1732437416983,2024-11-24T08:36:56.983Z,38819,0.05104844,0.03786544,-0.14149635
1732437416993,2024-11-24T08:36:56.993Z,38829,0.027522659,0.028562846,-0.1219589
1732437416996,2024-11-24T08:36:56.996Z,38832,0.027522659,0.028562846,-0.1219589
1732437417006,2024-11-24T08:36:57.006Z,38842,0.007216753,0.027880935,-0.10245168
1732437417008,2024-11-24T08:36:57.008Z,38844,0.007216753,0.027880935,-0.10245168
1732437417017,2024-11-24T08:36:57.017Z,38853,-0.06445102,0.020393504,-0.089054935
1732437417020,2024-11-24T08:36:57.020Z,38856,-0.06445102,0.020393504,-0.089054935
1732437417034,2024-11-24T08:36:57.034Z,38870,-0.07026556,0.024941042,-0.099692985
1732437417041,2024-11-24T08:36:57.041Z,38877,-0.07026556,0.024941042,-0.099692985
1732437417061,2024-11-24T08:36:57.061Z,38897,-0.055122048,0.0375814,-0.109484226
1732437417071,2024-11-24T08:36:57.071Z,38907,-0.055122048,0.0375814,-0.109484226
1732437417092,2024-11-24T08:36:57.092Z,38928,-0.018024184,0.026743948,-0.12734017
1732437417100,2024-11-24T08:36:57.100Z,38936,-0.018024184,0.026743948,-0.12734017
1732437417120,2024-11-24T08:36:57.120Z,38956,-0.014201181,0.02737869,-0.13403384
1732437417127,2024-11-24T08:36:57.127Z,38963,-0.014201181,0.02737869,-0.13403384
1732437417147,2024-11-24T08:36:57.147Z,38983,-0.0045548882,0.029672232,-0.13010822
1732437417154,2024-11-24T08:36:57.154Z,38990,-0.0045548882,0.029672232,-0.13010822
1732437417171,2024-11-24T08:36:57.171Z,39007,-0.028182874,0.030487565,-0.108978584
1732437417175,2024-11-24T08:36:57.175Z,39011,-0.028182874,0.030487565,-0.108978584
1732437417186,2024-11-24T08:36:57.186Z,39022,-0.047284074,0.027894674,-0.10539408
1732437417190,2024-11-24T08:36:57.190Z,39026,-0.047284074,0.027894674,-0.10539408
1732437417200,2024-11-24T08:36:57.200Z,39036,-0.05659992,0.030352429,-0.098365724
1732437417204,2024-11-24T08:36:57.204Z,39040,-0.05659992,0.030352429,-0.098365724
1732437417213,2024-11-24T08:36:57.213Z,39049,-0.05230099,0.041870102,-0.1006685
1732437417216,2024-11-24T08:36:57.216Z,39052,-0.05230099,0.041870102,-0.1006685
1732437417226,2024-11-24T08:36:57.226Z,39062,-0.031797472,0.039373163,-0.10884635
1732437417230,2024-11-24T08:36:57.230Z,39066,-0.031797472,0.039373163,-0.10884635
1732437417241,2024-11-24T08:36:57.241Z,39077,-0.020537453,0.036302026,-0.11449374
1732437417244,2024-11-24T08:36:57.244Z,39080,-0.020537453,0.036302026,-0.11449374
1732437417254,2024-11-24T08:36:57.254Z,39090,-0.025221875,0.0340219,-0.11493221
1732437417257,2024-11-24T08:36:57.257Z,39093,-0.025221875,0.0340219,-0.11493221
1732437417269,2024-11-24T08:36:57.269Z,39105,-0.06836437,0.0343984,-0.09580784
1732437417274,2024-11-24T08:36:57.274Z,39110,-0.06836437,0.0343984,-0.09580784
1732437417294,2024-11-24T08:36:57.294Z,39130,-0.049268514,0.036246434,-0.101768345
1732437417298,2024-11-24T08:36:57.298Z,39134,-0.049268514,0.036246434,-0.101768345
1732437417310,2024-11-24T08:36:57.310Z,39146,-0.04440389,0.030200452,-0.105015375
1732437417317,2024-11-24T08:36:57.317Z,39153,-0.04440389,0.030200452,-0.105015375
1732437417335,2024-11-24T08:36:57.335Z,39171,-0.041822743,0.027917583,-0.10420509
1732437417337,2024-11-24T08:36:57.337Z,39173,-0.041822743,0.027917583,-0.10420509
1732437417349,2024-11-24T08:36:57.349Z,39185,-0.020693244,0.02907531,-0.10700103
1732437417353,2024-11-24T08:36:57.353Z,39189,-0.020693244,0.02907531,-0.10700103
1732437417366,2024-11-24T08:36:57.366Z,39202,-0.035303157,0.022464577,-0.10713331
1732437417370,2024-11-24T08:36:57.370Z,39206,-0.035303157,0.022464577,-0.10713331
1732437417386,2024-11-24T08:36:57.386Z,39222,-0.023364056,0.028233077,-0.10109056
1732437417389,2024-11-24T08:36:57.389Z,39225,-0.023364056,0.028233077,-0.10109056
1732437417399,2024-11-24T08:36:57.399Z,39235,-0.04035002,0.024914695,-0.0918491
1732437417402,2024-11-24T08:36:57.402Z,39238,-0.04035002,0.024914695,-0.0918491
1732437417411,2024-11-24T08:36:57.411Z,39247,-0.044589147,0.024931967,-0.082002774
1732437417416,2024-11-24T08:36:57.416Z,39252,-0.044589147,0.024931967,-0.082002774
1732437417427,2024-11-24T08:36:57.427Z,39263,-0.05100448,0.034073327,-0.08152954
1732437417430,2024-11-24T08:36:57.430Z,39266,-0.05100448,0.034073327,-0.08152954
1732437417439,2024-11-24T08:36:57.439Z,39275,-0.07433314,0.034881916,-0.07956127
1732437417441,2024-11-24T08:36:57.441Z,39277,-0.07433314,0.034881916,-0.07956127
1732437417449,2024-11-24T08:36:57.449Z,39285,-0.07282133,0.02902051,-0.07572784
1732437417452,2024-11-24T08:36:57.452Z,39288,-0.07282133,0.02902051,-0.07572784
1732437417461,2024-11-24T08:36:57.461Z,39297,-0.0726173,0.042247973,-0.061245613
1732437417463,2024-11-24T08:36:57.463Z,39299,-0.0726173,0.042247973,-0.061245613
1732437417476,2024-11-24T08:36:57.476Z,39312,-0.058593497,0.047940567,-0.061237346
1732437417478,2024-11-24T08:36:57.478Z,39314,-0.058593497,0.047940567,-0.061237346
1732437417486,2024-11-24T08:36:57.486Z,39322,-0.053004187,0.047604073,-0.06293245
1732437417489,2024-11-24T08:36:57.489Z,39325,-0.053004187,0.047604073,-0.06293245
1732437417498,2024-11-24T08:36:57.498Z,39334,-0.037479755,0.038065057,-0.070449986
1732437417501,2024-11-24T08:36:57.501Z,39337,-0.037479755,0.038065057,-0.070449986
1732437417512,2024-11-24T08:36:57.512Z,39348,-0.025708405,0.043416303,-0.06319062
1732437417515,2024-11-24T08:36:57.515Z,39351,-0.025708405,0.043416303,-0.06319062
1732437417524,2024-11-24T08:36:57.524Z,39360,-0.019733215,0.03839132,-0.06748206
1732437417529,2024-11-24T08:36:57.529Z,39365,-0.019733215,0.03839132,-0.06748206
1732437417537,2024-11-24T08:36:57.537Z,39373,0.0063596116,0.03849889,-0.07609082
1732437417540,2024-11-24T08:36:57.540Z,39376,0.0063596116,0.03849889,-0.07609082
1732437417551,2024-11-24T08:36:57.551Z,39387,-0.001969558,0.03002082,-0.08168993
1732437417560,2024-11-24T08:36:57.560Z,39396,-0.001969558,0.03002082,-0.08168993
1732437417580,2024-11-24T08:36:57.580Z,39416,-0.036125094,0.03232284,-0.07643471
1732437417586,2024-11-24T08:36:57.586Z,39422,-0.036125094,0.03232284,-0.07643471
1732437417602,2024-11-24T08:36:57.602Z,39438,-0.05901108,0.026560344,-0.051995922
1732437417605,2024-11-24T08:36:57.605Z,39441,-0.05901108,0.026560344,-0.051995922
1732437417615,2024-11-24T08:36:57.615Z,39451,-0.038706634,0.06810941,0.06119142
1732437417618,2024-11-24T08:36:57.618Z,39454,-0.038706634,0.06810941,0.06119142
1732437417628,2024-11-24T08:36:57.628Z,39464,-0.059622087,0.049186125,0.035805173
1732437417630,2024-11-24T08:36:57.630Z,39466,-0.059622087,0.049186125,0.035805173
1732437417639,2024-11-24T08:36:57.639Z,39475,-0.033380765,0.023116201,0.0026315232
1732437417641,2024-11-24T08:36:57.641Z,39477,-0.033380765,0.023116201,0.0026315232
1732437417650,2024-11-24T08:36:57.650Z,39486,-0.006770094,0.037415534,-0.08471073
1732437417653,2024-11-24T08:36:57.653Z,39489,-0.006770094,0.037415534,-0.08471073
1732437417661,2024-11-24T08:36:57.661Z,39497,-0.06401914,0.017523613,-0.12015067
1732437417663,2024-11-24T08:36:57.663Z,39499,-0.06401914,0.017523613,-0.12015067
1732437417672,2024-11-24T08:36:57.672Z,39508,-0.062396176,-0.009251576,-0.13151658
1732437417674,2024-11-24T08:36:57.674Z,39510,-0.062396176,-0.009251576,-0.13151658
1732437417685,2024-11-24T08:36:57.685Z,39521,-0.056978505,-0.0031951102,-0.08925551
1732437417692,2024-11-24T08:36:57.692Z,39528,-0.056978505,-0.0031951102,-0.08925551
1732437417712,2024-11-24T08:36:57.712Z,39548,-0.03970274,0.005325388,-0.08135019
1732437417718,2024-11-24T08:36:57.718Z,39554,-0.03970274,0.005325388,-0.08135019
1732437417738,2024-11-24T08:36:57.738Z,39574,-0.038965505,0.0062746108,-0.05848818
1732437417745,2024-11-24T08:36:57.745Z,39581,-0.038965505,0.0062746108,-0.05848818
1732437417761,2024-11-24T08:36:57.761Z,39597,-0.060432453,-0.0019770702,-0.029969024
1732437417765,2024-11-24T08:36:57.765Z,39601,-0.060432453,-0.0019770702,-0.029969024
1732437417778,2024-11-24T08:36:57.778Z,39614,-0.06308479,-0.0138789145,-0.049693678
1732437417782,2024-11-24T08:36:57.782Z,39618,-0.06308479,-0.0138789145,-0.049693678
1732437417793,2024-11-24T08:36:57.793Z,39629,-0.05742633,-0.012077206,-0.054891422
1732437417796,2024-11-24T08:36:57.796Z,39632,-0.05742633,-0.012077206,-0.054891422
1732437417807,2024-11-24T08:36:57.807Z,39643,-0.099463455,-0.019451294,-0.09007093
1732437417810,2024-11-24T08:36:57.810Z,39646,-0.099463455,-0.019451294,-0.09007093
1732437417820,2024-11-24T08:36:57.820Z,39656,-0.08990167,-0.0010451212,-0.08917445
1732437417824,2024-11-24T08:36:57.824Z,39660,-0.08990167,-0.0010451212,-0.08917445
1732437417833,2024-11-24T08:36:57.833Z,39669,-0.071981736,0.016047295,-0.07727391
1732437417835,2024-11-24T08:36:57.835Z,39671,-0.071981736,0.016047295,-0.07727391
1732437417845,2024-11-24T08:36:57.845Z,39681,-0.036819834,0.03951913,-0.07498655
1732437417848,2024-11-24T08:36:57.848Z,39684,-0.036819834,0.03951913,-0.07498655
1732437417857,2024-11-24T08:36:57.857Z,39693,-0.0060483217,0.03644309,-0.07812682
1732437417860,2024-11-24T08:36:57.860Z,39696,-0.0060483217,0.03644309,-0.07812682
1732437417871,2024-11-24T08:36:57.871Z,39707,0.0024176755,0.034952313,-0.078119285
1732437417874,2024-11-24T08:36:57.874Z,39710,0.0024176755,0.034952313,-0.078119285
1732437417883,2024-11-24T08:36:57.883Z,39719,-0.005494301,0.031178808,-0.07326093
1732437417885,2024-11-24T08:36:57.885Z,39721,-0.005494301,0.031178808,-0.07326093
1732437417894,2024-11-24T08:36:57.894Z,39730,-0.02358753,0.021995572,-0.061756335
1732437417897,2024-11-24T08:36:57.897Z,39733,-0.02358753,0.021995572,-0.061756335
1732437417905,2024-11-24T08:36:57.905Z,39741,-0.06472443,0.031064093,-0.04268134
1732437417908,2024-11-24T08:36:57.908Z,39744,-0.06472443,0.031064093,-0.04268134
1732437417917,2024-11-24T08:36:57.917Z,39753,-0.0751526,0.03406947,-0.059273746
1732437417920,2024-11-24T08:36:57.920Z,39756,-0.0751526,0.03406947,-0.059273746
1732437417929,2024-11-24T08:36:57.929Z,39765,-0.056944128,0.03268481,-0.061672993
1732437417932,2024-11-24T08:36:57.932Z,39768,-0.056944128,0.03268481,-0.061672993
1732437417947,2024-11-24T08:36:57.947Z,39783,-0.03905361,0.032815937,-0.061548807
1732437417953,2024-11-24T08:36:57.953Z,39789,-0.03905361,0.032815937,-0.061548807
1732437417963,2024-11-24T08:36:57.963Z,39799,-0.013577726,0.028465683,-0.05785067
1732437417966,2024-11-24T08:36:57.966Z,39802,-0.013577726,0.028465683,-0.05785067
1732437417976,2024-11-24T08:36:57.976Z,39812,-0.005808509,0.02507993,-0.04997312
1732437417979,2024-11-24T08:36:57.979Z,39815,-0.005808509,0.02507993,-0.04997312
1732437417988,2024-11-24T08:36:57.988Z,39824,-0.018574702,0.029561883,-0.033089217
1732437417990,2024-11-24T08:36:57.990Z,39826,-0.018574702,0.029561883,-0.033089217
1732437417998,2024-11-24T08:36:57.998Z,39834,-0.01176639,0.031077852,-0.027992755
1732437418000,2024-11-24T08:36:58Z,39836,-0.01176639,0.031077852,-0.027992755
1732437418009,2024-11-24T08:36:58.009Z,39845,-0.03778589,0.034962267,-0.03577471
1732437418012,2024-11-24T08:36:58.012Z,39848,-0.03778589,0.034962267,-0.03577471
1732437418023,2024-11-24T08:36:58.023Z,39859,-0.049651716,0.02718493,-0.06321408
1732437418026,2024-11-24T08:36:58.026Z,39862,-0.049651716,0.02718493,-0.06321408
1732437418034,2024-11-24T08:36:58.034Z,39870,-0.051956587,0.023565395,-0.058888547
1732437418036,2024-11-24T08:36:58.036Z,39872,-0.051956587,0.023565395,-0.058888547
1732437418045,2024-11-24T08:36:58.045Z,39881,-0.040809516,0.03024647,-0.056061264
1732437418048,2024-11-24T08:36:58.048Z,39884,-0.040809516,0.03024647,-0.056061264
1732437418062,2024-11-24T08:36:58.062Z,39898,-0.0047097066,0.022769555,-0.03981754
1732437418067,2024-11-24T08:36:58.067Z,39903,-0.0047097066,0.022769555,-0.03981754
1732437418084,2024-11-24T08:36:58.084Z,39920,-0.009350465,0.02367954,-0.027398426
1732437418089,2024-11-24T08:36:58.089Z,39925,-0.009350465,0.02367954,-0.027398426
1732437418100,2024-11-24T08:36:58.100Z,39936,-0.022919828,0.024922827,-0.023970686
1732437418104,2024-11-24T08:36:58.104Z,39940,-0.022919828,0.024922827,-0.023970686
1732437418112,2024-11-24T08:36:58.112Z,39948,-0.015724761,0.016870717,-0.025188131
1732437418116,2024-11-24T08:36:58.116Z,39952,-0.015724761,0.016870717,-0.025188131
1732437418124,2024-11-24T08:36:58.124Z,39960,-0.024695862,0.016389389,-0.02268794
1732437418127,2024-11-24T08:36:58.127Z,39963,-0.024695862,0.016389389,-0.02268794
1732437418136,2024-11-24T08:36:58.136Z,39972,-0.033140074,0.0154977115,-0.02453939
1732437418139,2024-11-24T08:36:58.139Z,39975,-0.033140074,0.0154977115,-0.02453939
1732437418148,2024-11-24T08:36:58.148Z,39984,-0.059451077,0.012004939,-0.034058046
1732437418151,2024-11-24T08:36:58.151Z,39987,-0.059451077,0.012004939,-0.034058046
1732437418159,2024-11-24T08:36:58.159Z,39995,-0.054893367,0.007886887,-0.037378863
1732437418161,2024-11-24T08:36:58.161Z,39997,-0.054893367,0.007886887,-0.037378863
1732437418169,2024-11-24T08:36:58.169Z,40005,-0.038455054,0.0038246796,-0.057518035
1732437418172,2024-11-24T08:36:58.172Z,40008,-0.038455054,0.0038246796,-0.057518035
1732437418179,2024-11-24T08:36:58.179Z,40015,-0.02643504,0.0066575906,-0.06635858
1732437418182,2024-11-24T08:36:58.182Z,40018,-0.02643504,0.0066575906,-0.06635858
1732437418195,2024-11-24T08:36:58.195Z,40031,-0.032399632,0.0075183543,-0.061993618
1732437418203,2024-11-24T08:36:58.203Z,40039,-0.032399632,0.0075183543,-0.061993618
1732437418219,2024-11-24T08:36:58.219Z,40055,-0.03306364,0.008866037,-0.05629009
1732437418225,2024-11-24T08:36:58.225Z,40061,-0.03306364,0.008866037,-0.05629009
1732437418239,2024-11-24T08:36:58.239Z,40075,-0.03874563,0.006946234,-0.035941444
1732437418242,2024-11-24T08:36:58.242Z,40078,-0.03874563,0.006946234,-0.035941444
1732437418255,2024-11-24T08:36:58.255Z,40091,-0.045058366,0.005712282,-0.030320914
1732437418259,2024-11-24T08:36:58.259Z,40095,-0.045058366,0.005712282,-0.030320914
1732437418278,2024-11-24T08:36:58.278Z,40114,-0.030437756,0.007966994,-0.027271954
1732437418284,2024-11-24T08:36:58.284Z,40120,-0.030437756,0.007966994,-0.027271954
1732437418304,2024-11-24T08:36:58.304Z,40140,-0.07193992,-6.6104135E-4,-0.029875664
1732437418310,2024-11-24T08:36:58.310Z,40146,-0.07193992,-6.6104135E-4,-0.029875664
1732437418322,2024-11-24T08:36:58.322Z,40158,-0.06670556,0.005371417,-0.02380697
1732437418327,2024-11-24T08:36:58.327Z,40163,-0.06670556,0.005371417,-0.02380697
1732437418338,2024-11-24T08:36:58.338Z,40174,-0.061256383,0.011430144,-0.029457645
1732437418341,2024-11-24T08:36:58.341Z,40177,-0.061256383,0.011430144,-0.029457645
1732437418351,2024-11-24T08:36:58.351Z,40187,-0.041050106,0.012786457,-0.050717846
1732437418354,2024-11-24T08:36:58.354Z,40190,-0.041050106,0.012786457,-0.050717846
1732437418362,2024-11-24T08:36:58.362Z,40198,-0.04730586,0.0028456748,-0.04150941
1732437418365,2024-11-24T08:36:58.365Z,40201,-0.04730586,0.0028456748,-0.04150941
1732437418375,2024-11-24T08:36:58.375Z,40211,-0.040723454,0.0027098684,-0.042340584
1732437418378,2024-11-24T08:36:58.378Z,40214,-0.040723454,0.0027098684,-0.042340584
1732437418386,2024-11-24T08:36:58.386Z,40222,-5.558679E-4,0.018787159,-0.043132618
1732437418389,2024-11-24T08:36:58.389Z,40225,-5.558679E-4,0.018787159,-0.043132618
1732437418397,2024-11-24T08:36:58.397Z,40233,0.00652503,0.015182915,-0.032619413
1732437418400,2024-11-24T08:36:58.400Z,40236,0.00652503,0.015182915,-0.032619413
1732437418408,2024-11-24T08:36:58.408Z,40244,0.013906423,0.01312818,-0.02635807
1732437418410,2024-11-24T08:36:58.410Z,40246,0.013906423,0.01312818,-0.02635807
1732437418418,2024-11-24T08:36:58.418Z,40254,-0.06485416,0.009303032,-0.04426969
1732437418421,2024-11-24T08:36:58.421Z,40257,-0.06485416,0.009303032,-0.04426969
1732437418430,2024-11-24T08:36:58.430Z,40266,-0.045076795,0.00494095,-0.05338778
1732437418432,2024-11-24T08:36:58.432Z,40268,-0.045076795,0.00494095,-0.05338778
1732437418441,2024-11-24T08:36:58.441Z,40277,-0.044320013,0.0073900362,-0.05271035
1732437418444,2024-11-24T08:36:58.444Z,40280,-0.044320013,0.0073900362,-0.05271035
1732437418455,2024-11-24T08:36:58.455Z,40291,-0.028672809,0.013741655,-0.058756582
1732437418458,2024-11-24T08:36:58.458Z,40294,-0.028672809,0.013741655,-0.058756582
1732437418468,2024-11-24T08:36:58.468Z,40304,-0.03420246,0.008837417,-0.055569142
1732437418472,2024-11-24T08:36:58.472Z,40308,-0.03420246,0.008837417,-0.055569142
1732437418483,2024-11-24T08:36:58.483Z,40319,-0.028856704,0.008308426,-0.05754969
1732437418489,2024-11-24T08:36:58.489Z,40325,-0.028856704,0.008308426,-0.05754969
1732437418512,2024-11-24T08:36:58.512Z,40348,-0.033717386,0.0026696322,-0.052267
1732437418518,2024-11-24T08:36:58.518Z,40354,-0.033717386,0.0026696322,-0.052267
1732437418530,2024-11-24T08:36:58.530Z,40366,-0.03267402,0.003089803,-0.05340008
1732437418533,2024-11-24T08:36:58.533Z,40369,-0.03267402,0.003089803,-0.05340008
1732437418543,2024-11-24T08:36:58.543Z,40379,-0.03288193,0.0010804707,-0.049615834
1732437418546,2024-11-24T08:36:58.546Z,40382,-0.03288193,0.0010804707,-0.049615834
1732437418556,2024-11-24T08:36:58.556Z,40392,-0.01826565,-9.350489E-4,-0.039180472
1732437418558,2024-11-24T08:36:58.558Z,40394,-0.01826565,-9.350489E-4,-0.039180472
1732437418567,2024-11-24T08:36:58.567Z,40403,-0.03634366,0.0034200866,-0.040794298
1732437418569,2024-11-24T08:36:58.569Z,40405,-0.03634366,0.0034200866,-0.040794298
1732437418577,2024-11-24T08:36:58.577Z,40413,-0.049662024,0.012706423,-0.042353567
1732437418579,2024-11-24T08:36:58.579Z,40415,-0.049662024,0.012706423,-0.042353567
1732437418587,2024-11-24T08:36:58.587Z,40423,0.0020201267,0.0016091579,-0.044329934
1732437418590,2024-11-24T08:36:58.590Z,40426,0.0020201267,0.0016091579,-0.044329934
1732437418600,2024-11-24T08:36:58.600Z,40436,0.018443612,0.0060299966,-0.03557414
1732437418603,2024-11-24T08:36:58.603Z,40439,0.018443612,0.0060299966,-0.03557414
1732437418614,2024-11-24T08:36:58.614Z,40450,0.015319821,0.005579545,-0.025138048
1732437418619,2024-11-24T08:36:58.619Z,40455,0.015319821,0.005579545,-0.025138048
1732437418636,2024-11-24T08:36:58.636Z,40472,-0.027585724,0.0018422364,-0.020681283
1732437418642,2024-11-24T08:36:58.642Z,40478,-0.027585724,0.0018422364,-0.020681283
1732437418661,2024-11-24T08:36:58.661Z,40497,-0.04775743,-0.0024846669,-0.01750245
1732437418667,2024-11-24T08:36:58.667Z,40503,-0.04775743,-0.0024846669,-0.01750245
1732437418688,2024-11-24T08:36:58.688Z,40524,-0.035982773,6.121622E-4,-0.026239378
1732437418694,2024-11-24T08:36:58.694Z,40530,-0.035982773,6.121622E-4,-0.026239378
1732437418714,2024-11-24T08:36:58.714Z,40550,-0.05355874,8.7857235E-4,-0.040208817
1732437418722,2024-11-24T08:36:58.722Z,40558,-0.05355874,8.7857235E-4,-0.040208817
1732437418744,2024-11-24T08:36:58.744Z,40580,-0.040371854,0.004444275,-0.04976151
1732437418750,2024-11-24T08:36:58.750Z,40586,-0.040371854,0.004444275,-0.04976151
1732437418768,2024-11-24T08:36:58.768Z,40604,-0.02816143,0.00215287,-0.0563851
1732437418775,2024-11-24T08:36:58.775Z,40611,-0.02816143,0.00215287,-0.0563851
1732437418789,2024-11-24T08:36:58.789Z,40625,-0.040408418,0.0020823532,-0.037410855
1732437418793,2024-11-24T08:36:58.793Z,40629,-0.040408418,0.0020823532,-0.037410855
1732437418810,2024-11-24T08:36:58.810Z,40646,-0.042013492,0.0033152779,-0.037600975
1732437418818,2024-11-24T08:36:58.818Z,40654,-0.042013492,0.0033152779,-0.037600975
1732437418840,2024-11-24T08:36:58.840Z,40676,-0.035796348,1.00420424E-4,-0.03679494
1732437418848,2024-11-24T08:36:58.848Z,40684,-0.035796348,1.00420424E-4,-0.03679494
1732437418870,2024-11-24T08:36:58.870Z,40706,-0.036277726,0.0044581452,-0.032595247
1732437418875,2024-11-24T08:36:58.875Z,40711,-0.036277726,0.0044581452,-0.032595247
1732437418888,2024-11-24T08:36:58.888Z,40724,-0.017089,0.008040204,-0.04089145
1732437418892,2024-11-24T08:36:58.892Z,40728,-0.017089,0.008040204,-0.04089145
1732437418903,2024-11-24T08:36:58.903Z,40739,-0.019038234,0.0012631384,-0.039610744
1732437418907,2024-11-24T08:36:58.907Z,40743,-0.019038234,0.0012631384,-0.039610744
1732437418919,2024-11-24T08:36:58.919Z,40755,-0.020824868,0.008010915,-0.040782675
1732437418923,2024-11-24T08:36:58.923Z,40759,-0.020824868,0.008010915,-0.040782675
1732437418934,2024-11-24T08:36:58.934Z,40770,0.0050653415,0.004380566,-0.037094556
1732437418937,2024-11-24T08:36:58.937Z,40773,0.0050653415,0.004380566,-0.037094556
1732437418946,2024-11-24T08:36:58.946Z,40782,0.013598439,-0.004577462,-0.034776658
1732437418948,2024-11-24T08:36:58.948Z,40784,0.013598439,-0.004577462,-0.034776658
1732437418958,2024-11-24T08:36:58.958Z,40794,-0.0041799983,0.007484123,-0.027930079
1732437418960,2024-11-24T08:36:58.960Z,40796,-0.0041799983,0.007484123,-0.027930079
1732437418968,2024-11-24T08:36:58.968Z,40804,4.7797253E-4,0.011927821,-0.03021613
1732437418971,2024-11-24T08:36:58.971Z,40807,4.7797253E-4,0.011927821,-0.03021613
1732437418980,2024-11-24T08:36:58.980Z,40816,-0.00456967,0.011917914,-0.029476123
1732437418982,2024-11-24T08:36:58.982Z,40818,-0.00456967,0.011917914,-0.029476123
1732437418991,2024-11-24T08:36:58.991Z,40827,-0.022413021,0.010685956,-0.023553833
1732437418993,2024-11-24T08:36:58.993Z,40829,-0.022413021,0.010685956,-0.023553833
1732437419002,2024-11-24T08:36:59.002Z,40838,-0.03562072,0.00832771,-0.022138588
1732437419004,2024-11-24T08:36:59.004Z,40840,-0.03562072,0.00832771,-0.022138588
1732437419012,2024-11-24T08:36:59.012Z,40848,-0.036235616,0.0046503674,-0.023339694
1732437419014,2024-11-24T08:36:59.014Z,40850,-0.036235616,0.0046503674,-0.023339694
1732437419021,2024-11-24T08:36:59.021Z,40857,-0.032156173,0.00979682,-0.021979539
1732437419024,2024-11-24T08:36:59.024Z,40860,-0.032156173,0.00979682,-0.021979539
1732437419032,2024-11-24T08:36:59.032Z,40868,-0.032653302,0.0087618735,-0.026864486
1732437419035,2024-11-24T08:36:59.035Z,40871,-0.032653302,0.0087618735,-0.026864486
1732437419043,2024-11-24T08:36:59.043Z,40879,-0.034523766,0.010053943,-0.027201597
1732437419046,2024-11-24T08:36:59.046Z,40882,-0.034523766,0.010053943,-0.027201597
1732437419054,2024-11-24T08:36:59.054Z,40890,-0.029225126,-0.0010080942,-0.024100512
1732437419056,2024-11-24T08:36:59.056Z,40892,-0.029225126,-0.0010080942,-0.024100512
1732437419066,2024-11-24T08:36:59.066Z,40902,-0.019772746,0.004270068,-0.025783237
1732437419070,2024-11-24T08:36:59.070Z,40906,-0.019772746,0.004270068,-0.025783237
1732437419078,2024-11-24T08:36:59.078Z,40914,-0.020599157,0.0046134377,-0.024563655
1732437419081,2024-11-24T08:36:59.081Z,40917,-0.020599157,0.0046134377,-0.024563655
1732437419091,2024-11-24T08:36:59.091Z,40927,-0.018931456,-0.006227221,-0.049828123
1732437419094,2024-11-24T08:36:59.094Z,40930,-0.018931456,-0.006227221,-0.049828123
1732437419101,2024-11-24T08:36:59.101Z,40937,-0.012639626,-0.011254253,-0.04136728
1732437419104,2024-11-24T08:36:59.104Z,40940,-0.012639626,-0.011254253,-0.04136728
1732437419118,2024-11-24T08:36:59.118Z,40954,-0.005416941,-0.010339316,-0.04128919
1732437419127,2024-11-24T08:36:59.127Z,40963,-0.005416941,-0.010339316,-0.04128919
1732437419147,2024-11-24T08:36:59.147Z,40983,0.0011944937,-0.005442116,-0.033588875
1732437419154,2024-11-24T08:36:59.154Z,40990,0.0011944937,-0.005442116,-0.033588875
1732437419174,2024-11-24T08:36:59.174Z,41010,-0.014070626,-0.0063721505,-0.020598087
1732437419181,2024-11-24T08:36:59.181Z,41017,-0.014070626,-0.0063721505,-0.020598087
1732437419196,2024-11-24T08:36:59.196Z,41032,-0.014716934,0.0015679979,-0.018894356
1732437419200,2024-11-24T08:36:59.200Z,41036,-0.014716934,0.0015679979,-0.018894356
1732437419214,2024-11-24T08:36:59.214Z,41050,-0.020986592,0.0042226054,-0.012686208
1732437419218,2024-11-24T08:36:59.218Z,41054,-0.020986592,0.0042226054,-0.012686208
1732437419232,2024-11-24T08:36:59.232Z,41068,-0.01571421,0.002445689,-0.015789868
1732437419240,2024-11-24T08:36:59.240Z,41076,-0.01571421,0.002445689,-0.015789868
1732437419264,2024-11-24T08:36:59.264Z,41100,-0.0069483006,0.0051039066,-0.02123292
1732437419272,2024-11-24T08:36:59.272Z,41108,-0.0069483006,0.0051039066,-0.02123292
1732437419290,2024-11-24T08:36:59.290Z,41126,-0.031233681,0.0017236732,-0.013057353
1732437419297,2024-11-24T08:36:59.297Z,41133,-0.031233681,0.0017236732,-0.013057353
1732437419316,2024-11-24T08:36:59.316Z,41152,-0.018446287,0.0039639445,-0.023718912
1732437419320,2024-11-24T08:36:59.320Z,41156,-0.018446287,0.0039639445,-0.023718912
1732437419334,2024-11-24T08:36:59.334Z,41170,-0.006139783,3.1526494E-4,-0.030458422
1732437419338,2024-11-24T08:36:59.338Z,41174,-0.006139783,3.1526494E-4,-0.030458422
1732437419350,2024-11-24T08:36:59.350Z,41186,-0.0049270554,0.002683411,-0.024061758
1732437419354,2024-11-24T08:36:59.354Z,41190,-0.0049270554,0.002683411,-0.024061758
1732437419365,2024-11-24T08:36:59.365Z,41201,-0.009115369,8.696985E-4,-0.024494026
1732437419369,2024-11-24T08:36:59.369Z,41205,-0.009115369,8.696985E-4,-0.024494026
1732437419379,2024-11-24T08:36:59.379Z,41215,-0.016227774,-0.0014734974,-0.02344691
1732437419382,2024-11-24T08:36:59.382Z,41218,-0.016227774,-0.0014734974,-0.02344691
1732437419391,2024-11-24T08:36:59.391Z,41227,-0.015256075,0.0015358697,-0.023686772
1732437419394,2024-11-24T08:36:59.394Z,41230,-0.015256075,0.0015358697,-0.023686772
1732437419404,2024-11-24T08:36:59.404Z,41240,-0.030109107,4.71773E-5,-0.017142389
1732437419407,2024-11-24T08:36:59.407Z,41243,-0.030109107,4.71773E-5,-0.017142389
1732437419416,2024-11-24T08:36:59.416Z,41252,-0.023461448,0.0026026042,-0.011577438
1732437419419,2024-11-24T08:36:59.419Z,41255,-0.023461448,0.0026026042,-0.011577438
1732437419431,2024-11-24T08:36:59.431Z,41267,-0.022971418,0.008175548,-0.016227094
1732437419437,2024-11-24T08:36:59.437Z,41273,-0.022971418,0.008175548,-0.016227094
1732437419455,2024-11-24T08:36:59.455Z,41291,-0.02707741,0.008356745,-0.01313311
1732437419460,2024-11-24T08:36:59.460Z,41296,-0.02707741,0.008356745,-0.01313311
1732437419467,2024-11-24T08:36:59.467Z,41303,-0.018966563,0.010968885,-0.009535235
1732437419470,2024-11-24T08:36:59.470Z,41306,-0.018966563,0.010968885,-0.009535235
1732437419480,2024-11-24T08:36:59.480Z,41316,-0.021949733,0.008861765,-0.006613817
1732437419483,2024-11-24T08:36:59.483Z,41319,-0.021949733,0.008861765,-0.006613817
1732437419492,2024-11-24T08:36:59.492Z,41328,-0.025231162,0.0072495923,-0.0022179773
1732437419494,2024-11-24T08:36:59.494Z,41330,-0.025231162,0.0072495923,-0.0022179773
1732437419502,2024-11-24T08:36:59.502Z,41338,-0.033329953,0.0042098355,0.0027545416
1732437419505,2024-11-24T08:36:59.505Z,41341,-0.033329953,0.0042098355,0.0027545416
1732437419515,2024-11-24T08:36:59.515Z,41351,-0.009197008,0.011890818,-0.013746354
1732437419518,2024-11-24T08:36:59.518Z,41354,-0.009197008,0.011890818,-0.013746354
1732437419527,2024-11-24T08:36:59.527Z,41363,-0.003859859,0.004938573,-0.02354022
1732437419529,2024-11-24T08:36:59.529Z,41365,-0.003859859,0.004938573,-0.02354022
1732437419537,2024-11-24T08:36:59.537Z,41373,9.957193E-4,-5.1346794E-4,-0.029424436
1732437419541,2024-11-24T08:36:59.541Z,41377,9.957193E-4,-5.1346794E-4,-0.029424436
1732437419549,2024-11-24T08:36:59.549Z,41385,-0.009347548,-0.004571141,-0.030503448
1732437419551,2024-11-24T08:36:59.551Z,41387,-0.009347548,-0.004571141,-0.030503448
1732437419559,2024-11-24T08:36:59.559Z,41395,-0.0059893895,-0.011955427,-0.02667393
1732437419561,2024-11-24T08:36:59.561Z,41397,-0.0059893895,-0.011955427,-0.02667393
1732437419569,2024-11-24T08:36:59.569Z,41405,-0.008072533,-0.007643123,-0.027826462
1732437419572,2024-11-24T08:36:59.572Z,41408,-0.008072533,-0.007643123,-0.027826462
1732437419580,2024-11-24T08:36:59.580Z,41416,-0.01516369,-0.002932602,-0.014727194
1732437419583,2024-11-24T08:36:59.583Z,41419,-0.01516369,-0.002932602,-0.014727194
1732437419592,2024-11-24T08:36:59.592Z,41428,-0.016594205,0.0019579856,-0.0036782976
1732437419594,2024-11-24T08:36:59.594Z,41430,-0.016594205,0.0019579856,-0.0036782976
1732437419602,2024-11-24T08:36:59.602Z,41438,-0.026919674,0.003942027,-0.004510495
1732437419604,2024-11-24T08:36:59.604Z,41440,-0.026919674,0.003942027,-0.004510495
1732437419611,2024-11-24T08:36:59.611Z,41447,-0.011698803,0.012271324,-0.016090753
1732437419614,2024-11-24T08:36:59.614Z,41450,-0.011698803,0.012271324,-0.016090753
1732437419621,2024-11-24T08:36:59.621Z,41457,-0.0017507506,0.011217342,-0.021413218
1732437419623,2024-11-24T08:36:59.623Z,41459,-0.0017507506,0.011217342,-0.021413218
1732437419632,2024-11-24T08:36:59.632Z,41468,-0.0020549414,0.0067254878,-0.028682193
1732437419635,2024-11-24T08:36:59.635Z,41471,-0.0020549414,0.0067254878,-0.028682193
1732437419645,2024-11-24T08:36:59.645Z,41481,5.30389E-4,0.0031094896,-0.034768052
1732437419647,2024-11-24T08:36:59.647Z,41483,5.30389E-4,0.0031094896,-0.034768052
1732437419655,2024-11-24T08:36:59.655Z,41491,-0.012748786,0.0029913215,-0.025363516
1732437419658,2024-11-24T08:36:59.658Z,41494,-0.012748786,0.0029913215,-0.025363516
1732437419667,2024-11-24T08:36:59.667Z,41503,-0.013577045,0.0019148865,-0.013400881
1732437419669,2024-11-24T08:36:59.669Z,41505,-0.013577045,0.0019148865,-0.013400881
1732437419677,2024-11-24T08:36:59.677Z,41513,-0.042675167,-0.0021273303,-0.0050334446
1732437419680,2024-11-24T08:36:59.680Z,41516,-0.042675167,-0.0021273303,-0.0050334446
1732437419687,2024-11-24T08:36:59.687Z,41523,-0.033374395,0.005142672,-0.00988523
1732437419690,2024-11-24T08:36:59.690Z,41526,-0.033374395,0.005142672,-0.00988523
1732437419699,2024-11-24T08:36:59.699Z,41535,-0.0039205416,-9.2475285E-4,-0.022323115
1732437419704,2024-11-24T08:36:59.704Z,41540,-0.0039205416,-9.2475285E-4,-0.022323115
1732437419714,2024-11-24T08:36:59.714Z,41550,-0.089400314,-0.012820725,-0.0043955483
1732437419716,2024-11-24T08:36:59.716Z,41552,-0.089400314,-0.012820725,-0.0043955483
1732437419724,2024-11-24T08:36:59.724Z,41560,-0.14478604,0.0138879465,0.017370095
1732437419726,2024-11-24T08:36:59.726Z,41562,-0.14478604,0.0138879465,0.017370095
1732437419736,2024-11-24T08:36:59.736Z,41572,-0.053473648,0.029305326,0.025001513
1732437419738,2024-11-24T08:36:59.738Z,41574,-0.053473648,0.029305326,0.025001513
1732437419746,2024-11-24T08:36:59.746Z,41582,-0.00902488,0.011413727,-0.045545723
1732437419748,2024-11-24T08:36:59.748Z,41584,-0.00902488,0.011413727,-0.045545723
1732437419755,2024-11-24T08:36:59.755Z,41591,-0.030314106,0.018308675,-0.030698624
1732437419757,2024-11-24T08:36:59.757Z,41593,-0.030314106,0.018308675,-0.030698624
1732437419767,2024-11-24T08:36:59.767Z,41603,-0.03048001,0.00531384,-0.01861044
1732437419771,2024-11-24T08:36:59.771Z,41607,-0.03048001,0.00531384,-0.01861044
1732437419779,2024-11-24T08:36:59.779Z,41615,-0.022001566,0.005252817,-0.04600663
1732437419781,2024-11-24T08:36:59.781Z,41617,-0.022001566,0.005252817,-0.04600663
1732437419788,2024-11-24T08:36:59.788Z,41624,0.018906025,0.002080238,-0.06053928
1732437419790,2024-11-24T08:36:59.790Z,41626,0.018906025,0.002080238,-0.06053928
1732437419797,2024-11-24T08:36:59.797Z,41633,0.033375125,0.009204235,-0.054198533
1732437419799,2024-11-24T08:36:59.799Z,41635,0.033375125,0.009204235,-0.054198533
1732437419807,2024-11-24T08:36:59.807Z,41643,0.012268577,0.002028794,0.0117075555
1732437419810,2024-11-24T08:36:59.810Z,41646,0.012268577,0.002028794,0.0117075555
1732437419817,2024-11-24T08:36:59.817Z,41653,-0.007424377,0.013514995,0.046232875
1732437419820,2024-11-24T08:36:59.820Z,41656,-0.007424377,0.013514995,0.046232875
1732437419830,2024-11-24T08:36:59.830Z,41666,0.031043319,-3.3915142E-6,0.04326366
1732437419832,2024-11-24T08:36:59.832Z,41668,0.031043319,-3.3915142E-6,0.04326366
1732437419840,2024-11-24T08:36:59.840Z,41676,-0.002854415,-0.0019435443,0.0024662507
1732437419843,2024-11-24T08:36:59.843Z,41679,-0.002854415,-0.0019435443,0.0024662507
1732437419850,2024-11-24T08:36:59.850Z,41686,-0.029162887,0.0052281953,-0.0014330909
1732437419853,2024-11-24T08:36:59.853Z,41689,-0.029162887,0.0052281953,-0.0014330909
1732437419865,2024-11-24T08:36:59.865Z,41701,-0.051574014,0.006984951,-0.010225889
1732437419871,2024-11-24T08:36:59.871Z,41707,-0.051574014,0.006984951,-0.010225889
1732437419886,2024-11-24T08:36:59.886Z,41722,-0.038703665,0.011653139,-0.011863686
1732437419892,2024-11-24T08:36:59.892Z,41728,-0.038703665,0.011653139,-0.011863686
1732437419905,2024-11-24T08:36:59.905Z,41741,-0.0505321,0.011143573,-0.003238203
1732437419907,2024-11-24T08:36:59.907Z,41743,-0.0505321,0.011143573,-0.003238203
1732437419917,2024-11-24T08:36:59.917Z,41753,-0.06664537,0.0130040925,-0.0022425323
1732437419920,2024-11-24T08:36:59.920Z,41756,-0.06664537,0.0130040925,-0.0022425323
1732437419929,2024-11-24T08:36:59.929Z,41765,-0.0020667084,0.012454448,-0.024139605
1732437419932,2024-11-24T08:36:59.932Z,41768,-0.0020667084,0.012454448,-0.024139605
1732437419942,2024-11-24T08:36:59.942Z,41778,-0.0056842263,0.008110155,-0.021914335
1732437419946,2024-11-24T08:36:59.946Z,41782,-0.0056842263,0.008110155,-0.021914335
1732437419955,2024-11-24T08:36:59.955Z,41791,-0.030972376,0.012352521,-0.018956253
1732437419958,2024-11-24T08:36:59.958Z,41794,-0.030972376,0.012352521,-0.018956253
1732437419966,2024-11-24T08:36:59.966Z,41802,-0.025384523,0.013207024,-0.023447882
1732437419968,2024-11-24T08:36:59.968Z,41804,-0.025384523,0.013207024,-0.023447882
1732437419979,2024-11-24T08:36:59.979Z,41815,-0.03158708,0.010182668,-0.018715274
1732437419981,2024-11-24T08:36:59.981Z,41817,-0.03158708,0.010182668,-0.018715274
1732437419989,2024-11-24T08:36:59.989Z,41825,-0.022111164,0.011108965,-0.018793363
1732437419992,2024-11-24T08:36:59.992Z,41828,-0.022111164,0.011108965,-0.018793363
1732437419999,2024-11-24T08:36:59.999Z,41835,-0.0052806484,0.0026914764,-0.02213533
1732437420001,2024-11-24T08:37:00.001Z,41837,-0.0052806484,0.0026914764,-0.02213533
1732437420009,2024-11-24T08:37:00.009Z,41845,0.004935224,0.0051857647,-0.021620259
1732437420012,2024-11-24T08:37:00.012Z,41848,0.004935224,0.0051857647,-0.021620259
1732437420019,2024-11-24T08:37:00.019Z,41855,0.0014857505,0.0072339354,-0.022080386
1732437420022,2024-11-24T08:37:00.022Z,41858,0.0014857505,0.0072339354,-0.022080386
1732437420030,2024-11-24T08:37:00.030Z,41866,0.03528565,-0.0041234978,-0.014960296
1732437420036,2024-11-24T08:37:00.036Z,41872,0.03528565,-0.0041234978,-0.014960296
1732437420052,2024-11-24T08:37:00.052Z,41888,0.023230242,-0.0031469238,-0.01205648
1732437420057,2024-11-24T08:37:00.057Z,41893,0.023230242,-0.0031469238,-0.01205648
1732437420072,2024-11-24T08:37:00.072Z,41908,0.008554298,0.0066186734,-0.010892668
1732437420075,2024-11-24T08:37:00.075Z,41911,0.008554298,0.0066186734,-0.010892668
1732437420086,2024-11-24T08:37:00.086Z,41922,-3.6283123E-4,-0.0011947004,0.0035257158
1732437420091,2024-11-24T08:37:00.091Z,41927,-3.6283123E-4,-0.0011947004,0.0035257158
1732437420106,2024-11-24T08:37:00.106Z,41942,-0.031638134,-0.0032517326,0.012520498
1732437420112,2024-11-24T08:37:00.112Z,41948,-0.031638134,-0.0032517326,0.012520498
1732437420129,2024-11-24T08:37:00.129Z,41965,-0.048042558,-0.0038031272,0.013548746
1732437420134,2024-11-24T08:37:00.134Z,41970,-0.048042558,-0.0038031272,0.013548746
1732437420148,2024-11-24T08:37:00.148Z,41984,-0.014785835,-0.0057328744,-0.0034630396
1732437420152,2024-11-24T08:37:00.152Z,41988,-0.014785835,-0.0057328744,-0.0034630396
1732437420163,2024-11-24T08:37:00.163Z,41999,-0.009883188,-0.0077442853,-0.0063508106
1732437420167,2024-11-24T08:37:00.167Z,42003,-0.009883188,-0.0077442853,-0.0063508106
1732437420178,2024-11-24T08:37:00.178Z,42014,-0.005963716,-0.007356814,-0.009728759
1732437420181,2024-11-24T08:37:00.181Z,42017,-0.005963716,-0.007356814,-0.009728759
1732437420192,2024-11-24T08:37:00.192Z,42028,-0.0072295894,-0.0034883486,-0.012832857
1732437420195,2024-11-24T08:37:00.195Z,42031,-0.0072295894,-0.0034883486,-0.012832857
1732437420209,2024-11-24T08:37:00.209Z,42045,0.0054865214,-0.00691723,-0.025493974
1732437420212,2024-11-24T08:37:00.212Z,42048,0.0054865214,-0.00691723,-0.025493974
1732437420220,2024-11-24T08:37:00.220Z,42056,0.009330237,-0.0069382717,-0.022168152
1732437420223,2024-11-24T08:37:00.223Z,42059,0.009330237,-0.0069382717,-0.022168152
1732437420230,2024-11-24T08:37:00.230Z,42066,-0.013454416,-0.010038299,-0.014822351
1732437420232,2024-11-24T08:37:00.232Z,42068,-0.013454416,-0.010038299,-0.014822351
1732437420239,2024-11-24T08:37:00.239Z,42075,-0.012168217,-0.005432829,-0.010255938
1732437420242,2024-11-24T08:37:00.242Z,42078,-0.012168217,-0.005432829,-0.010255938
1732437420250,2024-11-24T08:37:00.250Z,42086,-5.9953216E-4,-0.0018319282,-0.019312229
1732437420252,2024-11-24T08:37:00.252Z,42088,-5.9953216E-4,-0.0018319282,-0.019312229
1732437420261,2024-11-24T08:37:00.261Z,42097,-0.007339188,4.252521E-4,-0.018293219
1732437420264,2024-11-24T08:37:00.264Z,42100,-0.007339188,4.252521E-4,-0.018293219
1732437420271,2024-11-24T08:37:00.271Z,42107,-0.013820262,0.0024590543,-3.8446885E-4
1732437420274,2024-11-24T08:37:00.274Z,42110,-0.013820262,0.0024590543,-3.8446885E-4
1732437420282,2024-11-24T08:37:00.282Z,42118,-0.008853335,-3.554161E-4,-0.0034806903
1732437420284,2024-11-24T08:37:00.284Z,42120,-0.008853335,-3.554161E-4,-0.0034806903
1732437420291,2024-11-24T08:37:00.291Z,42127,-0.007890387,0.003208664,-8.778065E-4
1732437420294,2024-11-24T08:37:00.294Z,42130,-0.007890387,0.003208664,-8.778065E-4
1732437420302,2024-11-24T08:37:00.302Z,42138,-0.033285122,0.007545578,0.0024758782
1732437420304,2024-11-24T08:37:00.304Z,42140,-0.033285122,0.007545578,0.0024758782
1732437420313,2024-11-24T08:37:00.313Z,42149,-0.017987423,0.0065479255,-0.008289395
1732437420315,2024-11-24T08:37:00.315Z,42151,-0.017987423,0.0065479255,-0.008289395
1732437420322,2024-11-24T08:37:00.322Z,42158,-0.007021188,0.007982609,-0.014071063
1732437420324,2024-11-24T08:37:00.324Z,42160,-0.007021188,0.007982609,-0.014071063
1732437420335,2024-11-24T08:37:00.335Z,42171,-0.009052206,0.0062999562,-0.012480917
1732437420341,2024-11-24T08:37:00.341Z,42177,-0.009052206,0.0062999562,-0.012480917
1732437420358,2024-11-24T08:37:00.358Z,42194,-0.007252151,0.00923629,-0.01663072
1732437420363,2024-11-24T08:37:00.363Z,42199,-0.007252151,0.00923629,-0.01663072
1732437420381,2024-11-24T08:37:00.381Z,42217,-0.0035054884,0.008178247,-0.015890617
1732437420387,2024-11-24T08:37:00.387Z,42223,-0.0035054884,0.008178247,-0.015890617
1732437420401,2024-11-24T08:37:00.401Z,42237,-0.021163145,0.0058811465,-0.01525768
1732437420404,2024-11-24T08:37:00.404Z,42240,-0.021163145,0.0058811465,-0.01525768
1732437420415,2024-11-24T08:37:00.415Z,42251,-0.03738285,0.011065247,-0.0202725
1732437420418,2024-11-24T08:37:00.418Z,42254,-0.03738285,0.011065247,-0.0202725
1732437420428,2024-11-24T08:37:00.428Z,42264,-0.021705592,0.0021714198,-0.019192517
1732437420432,2024-11-24T08:37:00.432Z,42268,-0.021705592,0.0021714198,-0.019192517
1732437420441,2024-11-24T08:37:00.441Z,42277,-0.016425334,0.0125154285,-0.0050980654
1732437420444,2024-11-24T08:37:00.444Z,42280,-0.016425334,0.0125154285,-0.0050980654
1732437420453,2024-11-24T08:37:00.453Z,42289,-0.011590469,0.010383697,-0.012951597
1732437420455,2024-11-24T08:37:00.455Z,42291,-0.011590469,0.010383697,-0.012951597
1732437420464,2024-11-24T08:37:00.464Z,42300,-0.0017808002,0.0106486855,-0.017720576
1732437420466,2024-11-24T08:37:00.466Z,42302,-0.0017808002,0.0106486855,-0.017720576
1732437420474,2024-11-24T08:37:00.474Z,42310,0.010893009,-0.0018944341,-0.019641705
1732437420477,2024-11-24T08:37:00.477Z,42313,0.010893009,-0.0018944341,-0.019641705
1732437420484,2024-11-24T08:37:00.484Z,42320,0.007722052,-0.005409635,-0.008775537
1732437420486,2024-11-24T08:37:00.486Z,42322,0.007722052,-0.005409635,-0.008775537
1732437420493,2024-11-24T08:37:00.493Z,42329,-0.008339186,0.002400566,-0.0011683827
1732437420496,2024-11-24T08:37:00.496Z,42332,-0.008339186,0.002400566,-0.0011683827
1732437420502,2024-11-24T08:37:00.502Z,42338,-0.0388049,0.005063123,0.0070761815
1732437420504,2024-11-24T08:37:00.504Z,42340,-0.0388049,0.005063123,0.0070761815
1732437420512,2024-11-24T08:37:00.512Z,42348,-0.027511086,0.0063459785,0.008677608
1732437420514,2024-11-24T08:37:00.514Z,42350,-0.027511086,0.0063459785,0.008677608
1732437420521,2024-11-24T08:37:00.521Z,42357,-0.018627994,0.00458791,0.0025371928
1732437420524,2024-11-24T08:37:00.524Z,42360,-0.018627994,0.00458791,0.0025371928
1732437420532,2024-11-24T08:37:00.532Z,42368,-0.016060265,-0.0061078435,-1.1280735E-5
1732437420535,2024-11-24T08:37:00.535Z,42371,-0.016060265,-0.0061078435,-1.1280735E-5
1732437420542,2024-11-24T08:37:00.542Z,42378,-0.01453688,-0.004259243,-0.012011406
1732437420545,2024-11-24T08:37:00.545Z,42381,-0.01453688,-0.004259243,-0.012011406
1732437420552,2024-11-24T08:37:00.552Z,42388,-0.022234134,-0.007686502,-0.021009786
1732437420555,2024-11-24T08:37:00.555Z,42391,-0.022234134,-0.007686502,-0.021009786
1732437420563,2024-11-24T08:37:00.563Z,42399,-0.017835036,-1.3756297E-4,-0.012271155
1732437420566,2024-11-24T08:37:00.566Z,42402,-0.017835036,-1.3756297E-4,-0.012271155
1732437420576,2024-11-24T08:37:00.576Z,42412,-0.019889297,8.930926E-4,-0.0042516217
1732437420578,2024-11-24T08:37:00.578Z,42414,-0.019889297,8.930926E-4,-0.0042516217
1732437420586,2024-11-24T08:37:00.586Z,42422,-0.028089711,4.934835E-4,0.0016379432
1732437420588,2024-11-24T08:37:00.588Z,42424,-0.028089711,4.934835E-4,0.0016379432
1732437420598,2024-11-24T08:37:00.598Z,42434,0.011006594,-0.016983973,-0.02769683
1732437420600,2024-11-24T08:37:00.600Z,42436,0.011006594,-0.016983973,-0.02769683
1732437420610,2024-11-24T08:37:00.610Z,42446,0.005466586,-0.010601934,-0.026137074
1732437420615,2024-11-24T08:37:00.615Z,42451,0.005466586,-0.010601934,-0.026137074
1732437420633,2024-11-24T08:37:00.633Z,42469,-0.003604292,-0.0109947845,-0.011583272
1732437420637,2024-11-24T08:37:00.637Z,42473,-0.003604292,-0.0109947845,-0.011583272
1732437420657,2024-11-24T08:37:00.657Z,42493,0.004551971,-0.0052234847,-0.012406474
1732437420664,2024-11-24T08:37:00.664Z,42500,0.004551971,-0.0052234847,-0.012406474
1732437420685,2024-11-24T08:37:00.685Z,42521,-0.0031210682,-0.0039712503,-0.01361609
1732437420691,2024-11-24T08:37:00.691Z,42527,-0.0031210682,-0.0039712503,-0.01361609
1732437420702,2024-11-24T08:37:00.702Z,42538,-0.007851391,-0.0012208418,-0.010904532
1732437420706,2024-11-24T08:37:00.706Z,42542,-0.007851391,-0.0012208418,-0.010904532
1732437420718,2024-11-24T08:37:00.718Z,42554,0.005251863,-0.00485429,-0.012184166
1732437420721,2024-11-24T08:37:00.721Z,42557,0.005251863,-0.00485429,-0.012184166
1732437420732,2024-11-24T08:37:00.732Z,42568,0.0032872646,-0.0069271005,-0.008762505
1732437420735,2024-11-24T08:37:00.735Z,42571,0.0032872646,-0.0069271005,-0.008762505
1732437420745,2024-11-24T08:37:00.745Z,42581,-0.0013911285,-0.0051729647,-0.009657135
1732437420748,2024-11-24T08:37:00.748Z,42584,-0.0013911285,-0.0051729647,-0.009657135
1732437420758,2024-11-24T08:37:00.758Z,42594,-0.0345191,-0.0011230226,0.010481067
1732437420761,2024-11-24T08:37:00.761Z,42597,-0.0345191,-0.0011230226,0.010481067
1732437420770,2024-11-24T08:37:00.770Z,42606,-0.021182692,0.0057214964,0.0065364563
1732437420773,2024-11-24T08:37:00.773Z,42609,-0.021182692,0.0057214964,0.0065364563
1732437420785,2024-11-24T08:37:00.785Z,42621,0.0073265457,0.007658586,6.991624E-4
1732437420791,2024-11-24T08:37:00.791Z,42627,0.0073265457,0.007658586,6.991624E-4
1732437420809,2024-11-24T08:37:00.809Z,42645,0.0017137965,-0.005280241,0.0044054673
1732437420813,2024-11-24T08:37:00.813Z,42649,0.0017137965,-0.005280241,0.0044054673
1732437420830,2024-11-24T08:37:00.830Z,42666,-0.006409694,-0.004342749,0.011937303
1732437420835,2024-11-24T08:37:00.835Z,42671,-0.006409694,-0.004342749,0.011937303
1732437420848,2024-11-24T08:37:00.848Z,42684,-0.0028990516,-9.226863E-4,0.002721915
1732437420851,2024-11-24T08:37:00.851Z,42687,-0.0028990516,-9.226863E-4,0.002721915
1732437420862,2024-11-24T08:37:00.862Z,42698,-0.019884726,-2.4248718E-4,-0.0036817498
1732437420865,2024-11-24T08:37:00.865Z,42701,-0.019884726,-2.4248718E-4,-0.0036817498
1732437420875,2024-11-24T08:37:00.875Z,42711,-0.014388577,-0.0036584286,-0.0016310873
1732437420878,2024-11-24T08:37:00.878Z,42714,-0.014388577,-0.0036584286,-0.0016310873
1732437420886,2024-11-24T08:37:00.886Z,42722,-0.0065190005,-0.008971831,-0.014354055
1732437420889,2024-11-24T08:37:00.889Z,42725,-0.0065190005,-0.008971831,-0.014354055
1732437420898,2024-11-24T08:37:00.898Z,42734,-0.0056321016,-0.0039806105,-0.029404888
1732437420900,2024-11-24T08:37:00.900Z,42736,-0.0056321016,-0.0039806105,-0.029404888
1732437420911,2024-11-24T08:37:00.911Z,42747,-0.01342777,-0.003477475,-0.021208365
1732437420916,2024-11-24T08:37:00.916Z,42752,-0.01342777,-0.003477475,-0.021208365
1732437420935,2024-11-24T08:37:00.935Z,42771,-0.025510214,3.7132215E-4,-0.01282848
1732437420940,2024-11-24T08:37:00.940Z,42776,-0.025510214,3.7132215E-4,-0.01282848
1732437420956,2024-11-24T08:37:00.956Z,42792,0.0028970095,-0.0016969604,0.0015256708
1732437420961,2024-11-24T08:37:00.961Z,42797,0.0028970095,-0.0016969604,0.0015256708
1732437420971,2024-11-24T08:37:00.971Z,42807,0.022018924,0.0022311178,0.0037749133
1732437420975,2024-11-24T08:37:00.975Z,42811,0.022018924,0.0022311178,0.0037749133
1732437420985,2024-11-24T08:37:00.985Z,42821,0.039937206,7.5589435E-4,0.0017458396
1732437420989,2024-11-24T08:37:00.989Z,42825,0.039937206,7.5589435E-4,0.0017458396
1732437420998,2024-11-24T08:37:00.998Z,42834,0.03466852,0.0056382404,-0.009478589
1732437421001,2024-11-24T08:37:01.001Z,42837,0.03466852,0.0056382404,-0.009478589
1732437421010,2024-11-24T08:37:01.010Z,42846,-0.001986868,0.0069126836,-0.0031755269
1732437421013,2024-11-24T08:37:01.013Z,42849,-0.001986868,0.0069126836,-0.0031755269
1732437421022,2024-11-24T08:37:01.022Z,42858,-0.026768893,0.0036828865,-0.017113652
1732437421025,2024-11-24T08:37:01.025Z,42861,-0.026768893,0.0036828865,-0.017113652
1732437421034,2024-11-24T08:37:01.034Z,42870,-0.068956554,-0.009643928,-0.008711499
1732437421036,2024-11-24T08:37:01.036Z,42872,-0.068956554,-0.009643928,-0.008711499
1732437421044,2024-11-24T08:37:01.044Z,42880,-0.043783642,-0.0058724675,-0.004177324
1732437421047,2024-11-24T08:37:01.047Z,42883,-0.043783642,-0.0058724675,-0.004177324
1732437421055,2024-11-24T08:37:01.055Z,42891,-0.0067030904,-0.00253371,0.007506697
1732437421057,2024-11-24T08:37:01.057Z,42893,-0.0067030904,-0.00253371,0.007506697
1732437421065,2024-11-24T08:37:01.065Z,42901,0.004844395,0.006435349,0.003987059
1732437421067,2024-11-24T08:37:01.067Z,42903,0.004844395,0.006435349,0.003987059
1732437421074,2024-11-24T08:37:01.074Z,42910,0.002220846,0.008577832,-0.004439358
1732437421076,2024-11-24T08:37:01.076Z,42912,0.002220846,0.008577832,-0.004439358
1732437421084,2024-11-24T08:37:01.084Z,42920,9.2949363E-4,0.0077282335,-0.015529682
1732437421086,2024-11-24T08:37:01.086Z,42922,9.2949363E-4,0.0077282335,-0.015529682
1732437421095,2024-11-24T08:37:01.095Z,42931,-0.033354506,-5.1365636E-4,-0.024042359
1732437421097,2024-11-24T08:37:01.097Z,42933,-0.033354506,-5.1365636E-4,-0.024042359
1732437421104,2024-11-24T08:37:01.104Z,42940,-0.033842787,-0.004209252,-0.02456983
1732437421106,2024-11-24T08:37:01.106Z,42942,-0.033842787,-0.004209252,-0.02456983
1732437421113,2024-11-24T08:37:01.113Z,42949,-0.010613226,-0.0043920777,-0.01192962
1732437421115,2024-11-24T08:37:01.115Z,42951,-0.010613226,-0.0043920777,-0.01192962
1732437421122,2024-11-24T08:37:01.122Z,42958,-0.028364046,0.006121434,0.010545202
1732437421124,2024-11-24T08:37:01.124Z,42960,-0.028364046,0.006121434,0.010545202
1732437421131,2024-11-24T08:37:01.131Z,42967,-0.026165664,0.014795553,0.0070881913
1732437421134,2024-11-24T08:37:01.134Z,42970,-0.026165664,0.014795553,0.0070881913
1732437421144,2024-11-24T08:37:01.144Z,42980,0.017639278,0.010734173,-0.0025314554
1732437421146,2024-11-24T08:37:01.146Z,42982,0.017639278,0.010734173,-0.0025314554
1732437421153,2024-11-24T08:37:01.153Z,42989,0.004534272,0.0054042684,-0.0011182515
1732437421155,2024-11-24T08:37:01.155Z,42991,0.004534272,0.0054042684,-0.0011182515
1732437421164,2024-11-24T08:37:01.164Z,43000,0.0056199455,0.01678695,-0.0012293083
1732437421167,2024-11-24T08:37:01.167Z,43003,0.0056199455,0.01678695,-0.0012293083
1732437421176,2024-11-24T08:37:01.176Z,43012,0.0075994227,0.029020105,-0.013181295
1732437421179,2024-11-24T08:37:01.179Z,43015,0.0075994227,0.029020105,-0.013181295
1732437421190,2024-11-24T08:37:01.190Z,43026,-0.03740254,-0.032730483,-0.05872075
1732437421193,2024-11-24T08:37:01.193Z,43029,-0.03740254,-0.032730483,-0.05872075
1732437421205,2024-11-24T08:37:01.205Z,43041,-0.04174407,-0.018172948,-0.051463246
1732437421208,2024-11-24T08:37:01.208Z,43044,-0.04174407,-0.018172948,-0.051463246
1732437421216,2024-11-24T08:37:01.216Z,43052,-0.03517158,-6.916014E-4,-0.04439402
1732437421218,2024-11-24T08:37:01.218Z,43054,-0.03517158,-6.916014E-4,-0.04439402
1732437421227,2024-11-24T08:37:01.227Z,43063,-0.0035411783,-0.005095665,-0.0069035664
1732437421229,2024-11-24T08:37:01.229Z,43065,-0.0035411783,-0.005095665,-0.0069035664
1732437421237,2024-11-24T08:37:01.237Z,43073,-0.020057147,-0.010042492,0.002908825
1732437421240,2024-11-24T08:37:01.240Z,43076,-0.020057147,-0.010042492,0.002908825
1732437421249,2024-11-24T08:37:01.249Z,43085,-0.027386123,-0.0032482804,-0.0128443325
1732437421252,2024-11-24T08:37:01.252Z,43088,-0.027386123,-0.0032482804,-0.0128443325
1732437421260,2024-11-24T08:37:01.260Z,43096,-0.0022706368,0.017386626,0.05682855
1732437421263,2024-11-24T08:37:01.263Z,43099,-0.0022706368,0.017386626,0.05682855
1732437421271,2024-11-24T08:37:01.271Z,43107,0.025249105,0.0013368765,0.06340376
1732437421274,2024-11-24T08:37:01.274Z,43110,0.025249105,0.0013368765,0.06340376
1732437421294,2024-11-24T08:37:01.294Z,43130,0.06248506,-0.0074942126,0.029691672
1732437421296,2024-11-24T08:37:01.296Z,43132,0.06248506,-0.0074942126,0.029691672
1732437421305,2024-11-24T08:37:01.305Z,43141,0.01458103,-0.01765051,-0.015704243
1732437421307,2024-11-24T08:37:01.307Z,43143,0.01458103,-0.01765051,-0.015704243
1732437421315,2024-11-24T08:37:01.315Z,43151,0.024855446,-0.0068783187,-0.017317727
1732437421317,2024-11-24T08:37:01.317Z,43153,0.024855446,-0.0068783187,-0.017317727
1732437421343,2024-11-24T08:37:01.343Z,43179,0.0075480756,-0.006036263,-0.03300471
1732437421349,2024-11-24T08:37:01.349Z,43185,0.0075480756,-0.006036263,-0.03300471
1732437421366,2024-11-24T08:37:01.366Z,43202,-0.05120617,0.010282219,-0.064345166
1732437421369,2024-11-24T08:37:01.369Z,43205,-0.05120617,0.010282219,-0.064345166
1732437421378,2024-11-24T08:37:01.378Z,43214,-0.08349587,0.0064229686,-0.070999146
1732437421381,2024-11-24T08:37:01.381Z,43217,-0.08349587,0.0064229686,-0.070999146
1732437421392,2024-11-24T08:37:01.392Z,43228,-0.0696509,0.009488399,-0.047077034
1732437421397,2024-11-24T08:37:01.397Z,43233,-0.0696509,0.009488399,-0.047077034
1732437421413,2024-11-24T08:37:01.413Z,43249,0.006463861,0.00385527,0.07292548
1732437421418,2024-11-24T08:37:01.418Z,43254,0.006463861,0.00385527,0.07292548
1732437421434,2024-11-24T08:37:01.434Z,43270,-0.0034436388,0.03993162,0.07809867
1732437421438,2024-11-24T08:37:01.438Z,43274,-0.0034436388,0.03993162,0.07809867
1732437421449,2024-11-24T08:37:01.449Z,43285,-0.009022643,0.046474274,0.07110534
1732437421453,2024-11-24T08:37:01.453Z,43289,-0.009022643,0.046474274,0.07110534
1732437421461,2024-11-24T08:37:01.461Z,43297,-0.065351,0.020579178,0.03210074
1732437421463,2024-11-24T08:37:01.463Z,43299,-0.065351,0.020579178,0.03210074
1732437421472,2024-11-24T08:37:01.472Z,43308,-0.037551425,0.02123382,0.016389448
1732437421475,2024-11-24T08:37:01.475Z,43311,-0.037551425,0.02123382,0.016389448
1732437421484,2024-11-24T08:37:01.484Z,43320,-0.013830083,0.025762906,0.0018498946
1732437421487,2024-11-24T08:37:01.487Z,43323,-0.013830083,0.025762906,0.0018498946
1732437421495,2024-11-24T08:37:01.495Z,43331,-0.04527552,0.03284237,-0.012119253
1732437421498,2024-11-24T08:37:01.498Z,43334,-0.04527552,0.03284237,-0.012119253
1732437421506,2024-11-24T08:37:01.506Z,43342,-0.056683116,0.03527329,-0.007181306
1732437421510,2024-11-24T08:37:01.510Z,43346,-0.056683116,0.03527329,-0.007181306
1732437421519,2024-11-24T08:37:01.519Z,43355,-0.04536664,0.020759337,-0.0037885278
1732437421522,2024-11-24T08:37:01.522Z,43358,-0.04536664,0.020759337,-0.0037885278
1732437421531,2024-11-24T08:37:01.531Z,43367,-0.050195333,0.025514562,0.024326613
1732437421533,2024-11-24T08:37:01.533Z,43369,-0.050195333,0.025514562,0.024326613
1732437421540,2024-11-24T08:37:01.540Z,43376,0.015031968,0.037260648,0.095727295
1732437421543,2024-11-24T08:37:01.543Z,43379,0.015031968,0.037260648,0.095727295
1732437421553,2024-11-24T08:37:01.553Z,43389,0.003029169,0.05518744,0.086396426
1732437421558,2024-11-24T08:37:01.558Z,43394,0.003029169,0.05518744,0.086396426
1732437421575,2024-11-24T08:37:01.575Z,43411,-0.030239955,0.055653628,0.09473707
1732437421579,2024-11-24T08:37:01.579Z,43415,-0.030239955,0.055653628,0.09473707
1732437421592,2024-11-24T08:37:01.592Z,43428,0.041105635,0.04421053,0.124153145
1732437421594,2024-11-24T08:37:01.594Z,43430,0.041105635,0.04421053,0.124153145
1732437421605,2024-11-24T08:37:01.605Z,43441,0.0138101475,0.03994485,0.11384785
1732437421610,2024-11-24T08:37:01.610Z,43446,0.0138101475,0.03994485,0.11384785
1732437421620,2024-11-24T08:37:01.620Z,43456,-0.022801867,0.028781397,0.090730466
1732437421623,2024-11-24T08:37:01.623Z,43459,-0.022801867,0.028781397,0.090730466
1732437421631,2024-11-24T08:37:01.631Z,43467,-0.034088485,0.01048097,0.024201164
1732437421633,2024-11-24T08:37:01.633Z,43469,-0.034088485,0.01048097,0.024201164
1732437421640,2024-11-24T08:37:01.640Z,43476,-0.023664793,0.016433043,0.008475722
1732437421642,2024-11-24T08:37:01.642Z,43478,-0.023664793,0.016433043,0.008475722
1732437421650,2024-11-24T08:37:01.650Z,43486,-0.038754623,0.033399463,0.009848422
1732437421652,2024-11-24T08:37:01.652Z,43488,-0.038754623,0.033399463,0.009848422
1732437421660,2024-11-24T08:37:01.660Z,43496,-0.018614234,-0.03244263,0.080803566
1732437421663,2024-11-24T08:37:01.663Z,43499,-0.018614234,-0.03244263,0.080803566
1732437421669,2024-11-24T08:37:01.669Z,43505,0.02804347,-0.03288646,0.11707244
1732437421671,2024-11-24T08:37:01.671Z,43507,0.02804347,-0.03288646,0.11707244
1732437421699,2024-11-24T08:37:01.699Z,43535,0.022475941,-0.006277084,0.10029901
1732437421702,2024-11-24T08:37:01.702Z,43538,0.022475941,-0.006277084,0.10029901
1732437421709,2024-11-24T08:37:01.709Z,43545,0.038812194,-0.0047925264,0.020956542
1732437421711,2024-11-24T08:37:01.711Z,43547,0.038812194,-0.0047925264,0.020956542
1732437421719,2024-11-24T08:37:01.719Z,43555,0.013101358,-0.0145792365,0.0017300368
1732437421721,2024-11-24T08:37:01.721Z,43557,0.013101358,-0.0145792365,0.0017300368
1732437421728,2024-11-24T08:37:01.728Z,43564,-0.005589264,-0.014476924,-0.013085021
1732437421732,2024-11-24T08:37:01.732Z,43568,-0.005589264,-0.014476924,-0.013085021
1732437421750,2024-11-24T08:37:01.750Z,43586,0.0023915644,-0.019590853,-0.0305811
1732437421753,2024-11-24T08:37:01.753Z,43589,0.0023915644,-0.019590853,-0.0305811
1732437421761,2024-11-24T08:37:01.761Z,43597,-0.013284281,-0.021505026,-0.0159901
1732437421763,2024-11-24T08:37:01.763Z,43599,-0.013284281,-0.021505026,-0.0159901
1732437421772,2024-11-24T08:37:01.772Z,43608,-0.02082443,-0.028026657,-0.0021362891
1732437421774,2024-11-24T08:37:01.774Z,43610,-0.02082443,-0.028026657,-0.0021362891
1732437421790,2024-11-24T08:37:01.790Z,43626,-0.09289121,-0.050828516,0.047136307
1732437421792,2024-11-24T08:37:01.792Z,43628,-0.09289121,-0.050828516,0.047136307
1732437421801,2024-11-24T08:37:01.801Z,43637,-0.07274397,-0.04365646,0.09206718
1732437421803,2024-11-24T08:37:01.803Z,43639,-0.07274397,-0.04365646,0.09206718
1732437421811,2024-11-24T08:37:01.811Z,43647,-0.055554558,-0.06336435,0.09275472
1732437421813,2024-11-24T08:37:01.813Z,43649,-0.055554558,-0.06336435,0.09275472
1732437421838,2024-11-24T08:37:01.838Z,43674,0.08742142,-0.009123349,-0.050156288
1732437421841,2024-11-24T08:37:01.841Z,43677,0.08742142,-0.009123349,-0.050156288
1732437421851,2024-11-24T08:37:01.851Z,43687,0.046362896,-0.01978943,-0.1076206
1732437421853,2024-11-24T08:37:01.853Z,43689,0.046362896,-0.01978943,-0.1076206
1732437421879,2024-11-24T08:37:01.879Z,43715,-0.073422946,-0.036675856,-0.11867975
1732437421882,2024-11-24T08:37:01.882Z,43718,-0.073422946,-0.036675856,-0.11867975
1732437421892,2024-11-24T08:37:01.892Z,43728,-0.062743396,-0.031123864,0.021658573
1732437421896,2024-11-24T08:37:01.896Z,43732,-0.062743396,-0.031123864,0.021658573
1732437421905,2024-11-24T08:37:01.905Z,43741,-0.011068784,-0.024321916,0.035319105
1732437421907,2024-11-24T08:37:01.907Z,43743,-0.011068784,-0.024321916,0.035319105
1732437421926,2024-11-24T08:37:01.926Z,43762,-0.029410627,-0.032926533,0.04222238
1732437421928,2024-11-24T08:37:01.928Z,43764,-0.029410627,-0.032926533,0.04222238
1732437421937,2024-11-24T08:37:01.937Z,43773,-0.0018117735,-0.001365747,0.0018248047
1732437421940,2024-11-24T08:37:01.940Z,43776,-0.0018117735,-0.001365747,0.0018248047
1732437421949,2024-11-24T08:37:01.949Z,43785,0.10316762,0.008877659,-0.070586234
1732437421952,2024-11-24T08:37:01.952Z,43788,0.10316762,0.008877659,-0.070586234
1732437421971,2024-11-24T08:37:01.971Z,43807,0.12459285,0.011250783,-0.14939204
1732437421973,2024-11-24T08:37:01.973Z,43809,0.12459285,0.011250783,-0.14939204
1732437421983,2024-11-24T08:37:01.983Z,43819,0.024881314,0.00889864,-0.066883914
1732437421985,2024-11-24T08:37:01.985Z,43821,0.024881314,0.00889864,-0.066883914
1732437421994,2024-11-24T08:37:01.994Z,43830,-0.08144185,0.025049577,-0.0024380975
1732437421996,2024-11-24T08:37:01.996Z,43832,-0.08144185,0.025049577,-0.0024380975
1732437422005,2024-11-24T08:37:02.005Z,43841,-0.17302752,0.045985017,0.07022924
1732437422008,2024-11-24T08:37:02.008Z,43844,-0.17302752,0.045985017,0.07022924
1732437422018,2024-11-24T08:37:02.018Z,43854,-0.015423876,0.022408146,0.047330607
1732437422021,2024-11-24T08:37:02.021Z,43857,-0.015423876,0.022408146,0.047330607
1732437422029,2024-11-24T08:37:02.029Z,43865,-0.0453592,0.052279424,0.012767215
1732437422032,2024-11-24T08:37:02.032Z,43868,-0.0453592,0.052279424,0.012767215
1732437422108,2024-11-24T08:37:02.108Z,43944,0.009571996,0.028176796,-0.016853273
1732437422112,2024-11-24T08:37:02.112Z,43948,0.009571996,0.028176796,-0.016853273
1732437422121,2024-11-24T08:37:02.121Z,43957,0.053348247,0.070496835,-0.12752837
1732437422124,2024-11-24T08:37:02.124Z,43960,0.053348247,0.070496835,-0.12752837
1732437422135,2024-11-24T08:37:02.135Z,43971,-0.05048289,0.049473315,-0.08434537
1732437422140,2024-11-24T08:37:02.140Z,43976,-0.05048289,0.049473315,-0.08434537
1732437422157,2024-11-24T08:37:02.157Z,43993,-0.12967652,0.014041354,0.009145418
1732437422163,2024-11-24T08:37:02.163Z,43999,-0.12967652,0.014041354,0.009145418
1732437422181,2024-11-24T08:37:02.181Z,44017,-0.115896426,-0.009117848,0.07817819
1732437422185,2024-11-24T08:37:02.185Z,44021,-0.115896426,-0.009117848,0.07817819
1732437422196,2024-11-24T08:37:02.196Z,44032,0.108466506,0.076983504,-0.058499753
1732437422200,2024-11-24T08:37:02.200Z,44036,0.108466506,0.076983504,-0.058499753
1732437422211,2024-11-24T08:37:02.211Z,44047,0.19985485,0.075949736,-0.14356549
1732437422215,2024-11-24T08:37:02.215Z,44051,0.19985485,0.075949736,-0.14356549
1732437422225,2024-11-24T08:37:02.225Z,44061,0.19694568,0.047406074,-0.15885307
1732437422228,2024-11-24T08:37:02.228Z,44064,0.19694568,0.047406074,-0.15885307
1732437422237,2024-11-24T08:37:02.237Z,44073,0.28513682,-0.07311336,-0.37005994
1732437422240,2024-11-24T08:37:02.240Z,44076,0.28513682,-0.07311336,-0.37005994
1732437422249,2024-11-24T08:37:02.249Z,44085,0.22086492,-0.07520628,-0.38795304
1732437422252,2024-11-24T08:37:02.252Z,44088,0.22086492,-0.07520628,-0.38795304
1732437422259,2024-11-24T08:37:02.259Z,44095,0.12583348,-0.15274471,-0.32322508
1732437422262,2024-11-24T08:37:02.262Z,44098,0.12583348,-0.15274471,-0.32322508
1732437422269,2024-11-24T08:37:02.269Z,44105,-0.18155214,-0.25080067,-0.23989747
1732437422271,2024-11-24T08:37:02.271Z,44107,-0.18155214,-0.25080067,-0.23989747
1732437422279,2024-11-24T08:37:02.279Z,44115,-0.25988838,-0.21784471,-0.2286576
1732437422281,2024-11-24T08:37:02.281Z,44117,-0.25988838,-0.21784471,-0.2286576
1732437422288,2024-11-24T08:37:02.288Z,44124,-0.2729475,-0.17378877,-0.2477923
1732437422290,2024-11-24T08:37:02.290Z,44126,-0.2729475,-0.17378877,-0.2477923
1732437422297,2024-11-24T08:37:02.297Z,44133,-0.11200744,-0.1729422,-0.1429419
1732437422300,2024-11-24T08:37:02.300Z,44136,-0.11200744,-0.1729422,-0.1429419
1732437422306,2024-11-24T08:37:02.306Z,44142,-0.05192736,-0.12037371,-0.124986656
1732437422308,2024-11-24T08:37:02.308Z,44144,-0.05192736,-0.12037371,-0.124986656
1732437422318,2024-11-24T08:37:02.318Z,44154,-0.091949515,-0.10611522,-0.1400274
1732437422320,2024-11-24T08:37:02.320Z,44156,-0.091949515,-0.10611522,-0.1400274
1732437422331,2024-11-24T08:37:02.331Z,44167,-0.056624427,-0.09660559,-0.13549964
1732437422333,2024-11-24T08:37:02.333Z,44169,-0.056624427,-0.09660559,-0.13549964
1732437422339,2024-11-24T08:37:02.339Z,44175,-0.089120336,-0.06593354,-0.16292438
1732437422341,2024-11-24T08:37:02.341Z,44177,-0.089120336,-0.06593354,-0.16292438
1732437422375,2024-11-24T08:37:02.375Z,44211,-0.19892833,-0.07464061,-0.10551625
1732437422378,2024-11-24T08:37:02.378Z,44214,-0.19892833,-0.07464061,-0.10551625
1732437422386,2024-11-24T08:37:02.386Z,44222,0.011019771,4.7991748E-4,0.030954337
1732437422388,2024-11-24T08:37:02.388Z,44224,0.011019771,4.7991748E-4,0.030954337
1732437422397,2024-11-24T08:37:02.397Z,44233,0.004467317,0.061081387,0.021465829
1732437422400,2024-11-24T08:37:02.400Z,44236,0.004467317,0.061081387,0.021465829
1732437422419,2024-11-24T08:37:02.419Z,44255,-0.044299204,0.06910992,-0.026888361
1732437422423,2024-11-24T08:37:02.423Z,44259,-0.044299204,0.06910992,-0.026888361
1732437422433,2024-11-24T08:37:02.433Z,44269,0.0653686,0.13049841,-0.01040108
1732437422436,2024-11-24T08:37:02.436Z,44272,0.0653686,0.13049841,-0.01040108
1732437422447,2024-11-24T08:37:02.447Z,44283,0.0276891,0.15255162,0.01695295
1732437422450,2024-11-24T08:37:02.450Z,44286,0.0276891,0.15255162,0.01695295
1732437422466,2024-11-24T08:37:02.466Z,44302,0.0077780182,0.15523167,0.037497018
1732437422468,2024-11-24T08:37:02.468Z,44304,0.0077780182,0.15523167,0.037497018
1732437422476,2024-11-24T08:37:02.476Z,44312,0.04386144,0.17809601,0.0031179562
1732437422478,2024-11-24T08:37:02.478Z,44314,0.04386144,0.17809601,0.0031179562
1732437422485,2024-11-24T08:37:02.485Z,44321,0.0023913214,0.17687176,0.022320246
1732437422487,2024-11-24T08:37:02.487Z,44323,0.0023913214,0.17687176,0.022320246
1732437422513,2024-11-24T08:37:02.513Z,44349,-0.019330269,0.16848104,0.04645645
1732437422516,2024-11-24T08:37:02.516Z,44352,-0.019330269,0.16848104,0.04645645
1732437422524,2024-11-24T08:37:02.524Z,44360,-0.037293818,0.12751655,-0.0013645799
1732437422527,2024-11-24T08:37:02.527Z,44363,-0.037293818,0.12751655,-0.0013645799
1732437422535,2024-11-24T08:37:02.535Z,44371,-0.012603936,0.13111915,0.0049552573
1732437422538,2024-11-24T08:37:02.538Z,44374,-0.012603936,0.13111915,0.0049552573
1732437422554,2024-11-24T08:37:02.554Z,44390,-0.00933228,0.11760176,0.02411194
1732437422557,2024-11-24T08:37:02.557Z,44393,-0.00933228,0.11760176,0.02411194
1732437422606,2024-11-24T08:37:02.606Z,44442,-0.031119075,0.13712929,-0.019029725
1732437422611,2024-11-24T08:37:02.611Z,44447,-0.031119075,0.13712929,-0.019029725
1732437422628,2024-11-24T08:37:02.628Z,44464,0.38680848,0.2878036,0.18953352
1732437422632,2024-11-24T08:37:02.632Z,44468,0.38680848,0.2878036,0.18953352
1732437422650,2024-11-24T08:37:02.650Z,44486,0.29553628,0.24711612,0.38429272
1732437422657,2024-11-24T08:37:02.657Z,44493,0.29553628,0.24711612,0.38429272
1732437422685,2024-11-24T08:37:02.685Z,44521,0.6113316,0.3919003,0.60117483
1732437422693,2024-11-24T08:37:02.693Z,44529,0.6113316,0.3919003,0.60117483
1732437422715,2024-11-24T08:37:02.715Z,44551,0.21002506,0.1887161,0.54163575
1732437422722,2024-11-24T08:37:02.722Z,44558,0.21002506,0.1887161,0.54163575
1732437422741,2024-11-24T08:37:02.741Z,44577,0.094840564,0.043876126,0.3871595
1732437422747,2024-11-24T08:37:02.747Z,44583,0.094840564,0.043876126,0.3871595
1732437422766,2024-11-24T08:37:02.766Z,44602,-0.20471667,0.0964303,-0.33239174
1732437422772,2024-11-24T08:37:02.772Z,44608,-0.20471667,0.0964303,-0.33239174
1732437422787,2024-11-24T08:37:02.787Z,44623,-0.2647366,0.1313119,-0.40455538
1732437422791,2024-11-24T08:37:02.791Z,44627,-0.2647366,0.1313119,-0.40455538
1732437422802,2024-11-24T08:37:02.802Z,44638,-0.26241803,0.16256419,-0.405425
1732437422806,2024-11-24T08:37:02.806Z,44642,-0.26241803,0.16256419,-0.405425
1732437422816,2024-11-24T08:37:02.816Z,44652,-0.1342632,0.2913152,-0.10533571
1732437422819,2024-11-24T08:37:02.819Z,44655,-0.1342632,0.2913152,-0.10533571
1732437422830,2024-11-24T08:37:02.830Z,44666,-0.08552217,0.32093224,-0.00871218
1732437422833,2024-11-24T08:37:02.833Z,44669,-0.08552217,0.32093224,-0.00871218
1732437422842,2024-11-24T08:37:02.842Z,44678,-0.08674963,0.301255,0.027942477
1732437422845,2024-11-24T08:37:02.845Z,44681,-0.08674963,0.301255,0.027942477
1732437422853,2024-11-24T08:37:02.853Z,44689,-0.057258725,0.29247555,0.020222224
1732437422855,2024-11-24T08:37:02.855Z,44691,-0.057258725,0.29247555,0.020222224
1732437422863,2024-11-24T08:37:02.863Z,44699,-0.06079577,0.29327014,-1.4577432E-4
1732437422865,2024-11-24T08:37:02.865Z,44701,-0.06079577,0.29327014,-1.4577432E-4
1732437422873,2024-11-24T08:37:02.873Z,44709,-0.1087565,0.28392822,-0.02478995
1732437422875,2024-11-24T08:37:02.875Z,44711,-0.1087565,0.28392822,-0.02478995
1732437422882,2024-11-24T08:37:02.882Z,44718,-0.1479518,0.24937576,-0.16016851
1732437422884,2024-11-24T08:37:02.884Z,44720,-0.1479518,0.24937576,-0.16016851
1732437422890,2024-11-24T08:37:02.890Z,44726,-0.17908935,0.2343277,-0.17786196
1732437422892,2024-11-24T08:37:02.892Z,44728,-0.17908935,0.2343277,-0.17786196
1732437422899,2024-11-24T08:37:02.899Z,44735,-0.19508485,0.21706614,-0.17150797
1732437422901,2024-11-24T08:37:02.901Z,44737,-0.19508485,0.21706614,-0.17150797
1732437422908,2024-11-24T08:37:02.908Z,44744,-0.3227868,0.21188833,-0.21395825
1732437422910,2024-11-24T08:37:02.910Z,44746,-0.3227868,0.21188833,-0.21395825
1732437422919,2024-11-24T08:37:02.919Z,44755,-0.32465795,0.22575706,-0.20691109
1732437422921,2024-11-24T08:37:02.921Z,44757,-0.32465795,0.22575706,-0.20691109
1732437422927,2024-11-24T08:37:02.927Z,44763,-0.29145887,0.17394674,-0.21707316
1732437422929,2024-11-24T08:37:02.929Z,44765,-0.29145887,0.17394674,-0.21707316
1732437422938,2024-11-24T08:37:02.938Z,44774,-0.1601438,0.14348535,-0.13307115
1732437422940,2024-11-24T08:37:02.940Z,44776,-0.1601438,0.14348535,-0.13307115
1732437422948,2024-11-24T08:37:02.948Z,44784,-0.13369168,0.14634764,-0.07883403
1732437422951,2024-11-24T08:37:02.951Z,44787,-0.13369168,0.14634764,-0.07883403
1732437422958,2024-11-24T08:37:02.958Z,44794,-0.122824445,0.17143026,-0.07854091
1732437422960,2024-11-24T08:37:02.960Z,44796,-0.122824445,0.17143026,-0.07854091
1732437422969,2024-11-24T08:37:02.969Z,44805,-0.106971756,0.11748511,-0.09895078
1732437422971,2024-11-24T08:37:02.971Z,44807,-0.106971756,0.11748511,-0.09895078
1732437422979,2024-11-24T08:37:02.979Z,44815,-0.11928089,0.13948186,-0.07818582
1732437422984,2024-11-24T08:37:02.984Z,44820,-0.11928089,0.13948186,-0.07818582
1732437423000,2024-11-24T08:37:03Z,44836,-0.13314408,0.13772795,-0.09038459
1732437423006,2024-11-24T08:37:03.006Z,44842,-0.13314408,0.13772795,-0.09038459
1732437423022,2024-11-24T08:37:03.022Z,44858,-0.19443148,0.12486684,-0.07418311
1732437423028,2024-11-24T08:37:03.028Z,44864,-0.19443148,0.12486684,-0.07418311
1732437423045,2024-11-24T08:37:03.045Z,44881,-0.17314853,0.11364879,-0.09334599
1732437423051,2024-11-24T08:37:03.051Z,44887,-0.17314853,0.11364879,-0.09334599
1732437423069,2024-11-24T08:37:03.069Z,44905,-0.14566346,0.08567976,-0.10118223
1732437423072,2024-11-24T08:37:03.072Z,44908,-0.14566346,0.08567976,-0.10118223
1732437423086,2024-11-24T08:37:03.086Z,44922,-0.15735973,0.08405942,-0.047852926
1732437423088,2024-11-24T08:37:03.088Z,44924,-0.15735973,0.08405942,-0.047852926
1732437423097,2024-11-24T08:37:03.097Z,44933,-0.13092722,0.06615198,-0.028279448
1732437423100,2024-11-24T08:37:03.100Z,44936,-0.13092722,0.06615198,-0.028279448
1732437423108,2024-11-24T08:37:03.108Z,44944,-0.14101464,0.053622924,-0.024532633
1732437423110,2024-11-24T08:37:03.110Z,44946,-0.14101464,0.053622924,-0.024532633
1732437423118,2024-11-24T08:37:03.118Z,44954,-0.10281626,0.037351824,-0.03101993
1732437423120,2024-11-24T08:37:03.120Z,44956,-0.10281626,0.037351824,-0.03101993
1732437423126,2024-11-24T08:37:03.126Z,44962,-0.073160864,0.046511587,-0.016243609
1732437423128,2024-11-24T08:37:03.128Z,44964,-0.073160864,0.046511587,-0.016243609
1732437423135,2024-11-24T08:37:03.135Z,44971,-0.051168393,0.051446278,-0.023950234
1732437423137,2024-11-24T08:37:03.137Z,44973,-0.051168393,0.051446278,-0.023950234
1732437423144,2024-11-24T08:37:03.144Z,44980,0.025804,-0.0084651215,-0.0978413
1732437423146,2024-11-24T08:37:03.146Z,44982,0.025804,-0.0084651215,-0.0978413
1732437423153,2024-11-24T08:37:03.153Z,44989,0.08117461,-0.016352788,-0.08830995
1732437423156,2024-11-24T08:37:03.156Z,44992,0.08117461,-0.016352788,-0.08830995
1732437423163,2024-11-24T08:37:03.163Z,44999,0.10503541,-0.014523363,-0.04905515
1732437423165,2024-11-24T08:37:03.165Z,45001,0.10503541,-0.014523363,-0.04905515
1732437423186,2024-11-24T08:37:03.186Z,45022,0.13899207,-0.033286482,-0.01999863
1732437423188,2024-11-24T08:37:03.188Z,45024,0.13899207,-0.033286482,-0.01999863
1732437423195,2024-11-24T08:37:03.195Z,45031,0.15374038,-0.034602538,-0.001916011
1732437423198,2024-11-24T08:37:03.198Z,45034,0.15374038,-0.034602538,-0.001916011
1732437423206,2024-11-24T08:37:03.206Z,45042,0.1692575,-0.014153384,-0.021697346
1732437423208,2024-11-24T08:37:03.208Z,45044,0.1692575,-0.014153384,-0.021697346
1732437423231,2024-11-24T08:37:03.231Z,45067,0.18034841,-0.09621538,-0.12245294
1732437423233,2024-11-24T08:37:03.233Z,45069,0.18034841,-0.09621538,-0.12245294
1732437423241,2024-11-24T08:37:03.241Z,45077,0.20965664,-0.12107997,-0.11266484
1732437423243,2024-11-24T08:37:03.243Z,45079,0.20965664,-0.12107997,-0.11266484
1732437423251,2024-11-24T08:37:03.251Z,45087,0.24372894,-0.14360999,-0.09235352
1732437423254,2024-11-24T08:37:03.254Z,45090,0.24372894,-0.14360999,-0.09235352
1732437423277,2024-11-24T08:37:03.277Z,45113,0.25854117,-0.18808103,-0.038899977
1732437423279,2024-11-24T08:37:03.279Z,45115,0.25854117,-0.18808103,-0.038899977
1732437423288,2024-11-24T08:37:03.288Z,45124,0.2697424,-0.21558532,0.001360576
1732437423290,2024-11-24T08:37:03.290Z,45126,0.2697424,-0.21558532,0.001360576
1732437423298,2024-11-24T08:37:03.298Z,45134,0.2883225,-0.23609236,0.043423407
1732437423301,2024-11-24T08:37:03.301Z,45137,0.2883225,-0.23609236,0.043423407
1732437423320,2024-11-24T08:37:03.320Z,45156,0.20135362,-0.25374925,0.07358845
1732437423323,2024-11-24T08:37:03.323Z,45159,0.20135362,-0.25374925,0.07358845
1732437423331,2024-11-24T08:37:03.331Z,45167,0.20072302,-0.2703456,0.080866
1732437423334,2024-11-24T08:37:03.334Z,45170,0.20072302,-0.2703456,0.080866
1732437423342,2024-11-24T08:37:03.342Z,45178,0.21119112,-0.2801964,0.07425023
1732437423344,2024-11-24T08:37:03.344Z,45180,0.21119112,-0.2801964,0.07425023
1732437423366,2024-11-24T08:37:03.366Z,45202,0.081118114,-0.2706235,-0.01116653
1732437423369,2024-11-24T08:37:03.369Z,45205,0.081118114,-0.2706235,-0.01116653
1732437423378,2024-11-24T08:37:03.378Z,45214,0.087498,-0.26936778,-0.02173005
1732437423381,2024-11-24T08:37:03.381Z,45217,0.087498,-0.26936778,-0.02173005
1732437423390,2024-11-24T08:37:03.390Z,45226,0.108271375,-0.25823176,-0.003427289
1732437423392,2024-11-24T08:37:03.392Z,45228,0.108271375,-0.25823176,-0.003427289
1732437423416,2024-11-24T08:37:03.416Z,45252,0.1713533,-0.21122754,0.06440614
1732437423418,2024-11-24T08:37:03.418Z,45254,0.1713533,-0.21122754,0.06440614
1732437423428,2024-11-24T08:37:03.428Z,45264,0.18150795,-0.1882345,0.0664193
1732437423432,2024-11-24T08:37:03.432Z,45268,0.18150795,-0.1882345,0.0664193
1732437423441,2024-11-24T08:37:03.441Z,45277,0.19507162,-0.15982506,0.069386296
1732437423444,2024-11-24T08:37:03.444Z,45280,0.19507162,-0.15982506,0.069386296
1732437423458,2024-11-24T08:37:03.458Z,45294,0.018743865,-0.14200379,0.05219176
1732437423461,2024-11-24T08:37:03.461Z,45297,0.018743865,-0.14200379,0.05219176
1732437423470,2024-11-24T08:37:03.470Z,45306,0.054399837,-0.15961955,0.05771371
1732437423473,2024-11-24T08:37:03.473Z,45309,0.054399837,-0.15961955,0.05771371
1732437423481,2024-11-24T08:37:03.481Z,45317,0.048833814,-0.15561683,0.07715382
1732437423483,2024-11-24T08:37:03.483Z,45319,0.048833814,-0.15561683,0.07715382
1732437423501,2024-11-24T08:37:03.501Z,45337,0.11571987,-0.11836394,0.08059332
1732437423504,2024-11-24T08:37:03.504Z,45340,0.11571987,-0.11836394,0.08059332
1732437423511,2024-11-24T08:37:03.511Z,45347,0.14837132,-0.11398137,0.085237816
1732437423514,2024-11-24T08:37:03.514Z,45350,0.14837132,-0.11398137,0.085237816
1732437423522,2024-11-24T08:37:03.522Z,45358,0.15895596,-0.11647412,0.098601416
1732437423524,2024-11-24T08:37:03.524Z,45360,0.15895596,-0.11647412,0.098601416
1732437423547,2024-11-24T08:37:03.547Z,45383,0.14640503,-0.06607019,0.10241451
1732437423549,2024-11-24T08:37:03.549Z,45385,0.14640503,-0.06607019,0.10241451
1732437423557,2024-11-24T08:37:03.557Z,45393,0.15059751,-0.055046923,0.089178704
1732437423559,2024-11-24T08:37:03.559Z,45395,0.15059751,-0.055046923,0.089178704
1732437423591,2024-11-24T08:37:03.591Z,45427,0.16920218,-0.041864946,0.07387587
1732437423594,2024-11-24T08:37:03.594Z,45430,0.16920218,-0.041864946,0.07387587
1732437423602,2024-11-24T08:37:03.602Z,45438,0.12550537,-0.016032064,0.08439841
1732437423605,2024-11-24T08:37:03.605Z,45441,0.12550537,-0.016032064,0.08439841
1732437423614,2024-11-24T08:37:03.614Z,45450,0.09658565,-0.011415471,0.087472096
1732437423617,2024-11-24T08:37:03.617Z,45453,0.09658565,-0.011415471,0.087472096
1732437423625,2024-11-24T08:37:03.625Z,45461,0.07548436,-0.002301416,0.09109467
1732437423627,2024-11-24T08:37:03.627Z,45463,0.07548436,-0.002301416,0.09109467
1732437423642,2024-11-24T08:37:03.642Z,45478,0.06638625,0.009087508,0.09503881
1732437423648,2024-11-24T08:37:03.648Z,45484,0.06638625,0.009087508,0.09503881
1732437423667,2024-11-24T08:37:03.667Z,45503,0.06528327,0.016905738,0.095016755
1732437423670,2024-11-24T08:37:03.670Z,45506,0.06528327,0.016905738,0.095016755
1732437423686,2024-11-24T08:37:03.686Z,45522,0.052434996,0.022372859,0.095899545
1732437423690,2024-11-24T08:37:03.690Z,45526,0.052434996,0.022372859,0.095899545
1732437423700,2024-11-24T08:37:03.700Z,45536,-0.021752661,0.039237555,0.122225046
1732437423705,2024-11-24T08:37:03.705Z,45541,-0.021752661,0.039237555,0.122225046
1732437423715,2024-11-24T08:37:03.715Z,45551,0.0033657434,0.04587189,0.10944117
1732437423719,2024-11-24T08:37:03.719Z,45555,0.0033657434,0.04587189,0.10944117
1732437423728,2024-11-24T08:37:03.728Z,45564,0.044894796,0.056082416,0.081042595
1732437423731,2024-11-24T08:37:03.731Z,45567,0.044894796,0.056082416,0.081042595
1732437423750,2024-11-24T08:37:03.750Z,45586,0.07894822,0.07236562,0.035678193
1732437423755,2024-11-24T08:37:03.755Z,45591,0.07894822,0.07236562,0.035678193
1732437423777,2024-11-24T08:37:03.777Z,45613,0.075610876,0.07596695,0.012784476
1732437423783,2024-11-24T08:37:03.783Z,45619,0.075610876,0.07596695,0.012784476
1732437423798,2024-11-24T08:37:03.798Z,45634,0.062207516,0.075638056,-1.8467341E-4
1732437423803,2024-11-24T08:37:03.803Z,45639,0.062207516,0.075638056,-1.8467341E-4
1732437423814,2024-11-24T08:37:03.814Z,45650,0.04940738,0.0116181355,-0.037453838
1732437423817,2024-11-24T08:37:03.817Z,45653,0.04940738,0.0116181355,-0.037453838
1732437423826,2024-11-24T08:37:03.826Z,45662,-0.042079866,-0.027533187,-0.017520124
1732437423830,2024-11-24T08:37:03.830Z,45666,-0.042079866,-0.027533187,-0.017520124
1732437423840,2024-11-24T08:37:03.840Z,45676,-0.06525093,-0.06238147,0.02196286
1732437423842,2024-11-24T08:37:03.842Z,45678,-0.06525093,-0.06238147,0.02196286
1732437423852,2024-11-24T08:37:03.852Z,45688,0.095434435,0.018215178,0.06556735
1732437423855,2024-11-24T08:37:03.855Z,45691,0.095434435,0.018215178,0.06556735
1732437423864,2024-11-24T08:37:03.864Z,45700,0.03945904,0.02552118,0.06659592
1732437423867,2024-11-24T08:37:03.867Z,45703,0.03945904,0.02552118,0.06659592
1732437423875,2024-11-24T08:37:03.875Z,45711,-0.08582145,-0.019881127,0.04030378
1732437423877,2024-11-24T08:37:03.877Z,45713,-0.08582145,-0.019881127,0.04030378
1732437423884,2024-11-24T08:37:03.884Z,45720,-0.34867778,-0.052488312,-0.057353057
1732437423887,2024-11-24T08:37:03.887Z,45723,-0.34867778,-0.052488312,-0.057353057
1732437423894,2024-11-24T08:37:03.894Z,45730,-0.28742224,-0.02843939,-0.079622954
1732437423896,2024-11-24T08:37:03.896Z,45732,-0.28742224,-0.02843939,-0.079622954
1732437423903,2024-11-24T08:37:03.903Z,45739,-0.15593176,0.042776912,-0.07748783
1732437423906,2024-11-24T08:37:03.906Z,45742,-0.15593176,0.042776912,-0.07748783
1732437423914,2024-11-24T08:37:03.914Z,45750,0.07949602,0.016051052,0.024971098
1732437423916,2024-11-24T08:37:03.916Z,45752,0.07949602,0.016051052,0.024971098
1732437423923,2024-11-24T08:37:03.923Z,45759,0.17966399,0.04127903,0.106763475
1732437423924,2024-11-24T08:37:03.924Z,45760,0.17966399,0.04127903,0.106763475
1732437423949,2024-11-24T08:37:03.949Z,45785,0.18362644,0.061848965,0.10852062
1732437423952,2024-11-24T08:37:03.952Z,45788,0.18362644,0.061848965,0.10852062
1732437423961,2024-11-24T08:37:03.961Z,45797,0.07093559,0.0041139675,-0.050449487
1732437423963,2024-11-24T08:37:03.963Z,45799,0.07093559,0.0041139675,-0.050449487
1732437423971,2024-11-24T08:37:03.971Z,45807,0.06509888,0.007290053,-0.09811866
1732437423974,2024-11-24T08:37:03.974Z,45810,0.06509888,0.007290053,-0.09811866
1732437423982,2024-11-24T08:37:03.982Z,45818,0.08980525,0.027401147,-0.10460164
1732437423984,2024-11-24T08:37:03.984Z,45820,0.08980525,0.027401147,-0.10460164
1732437423994,2024-11-24T08:37:03.994Z,45830,0.10004913,0.035804443,-0.102716535
1732437423997,2024-11-24T08:37:03.997Z,45833,0.10004913,0.035804443,-0.102716535
1732437424004,2024-11-24T08:37:04.004Z,45840,0.11352903,0.038010802,-0.12495376
1732437424007,2024-11-24T08:37:04.007Z,45843,0.11352903,0.038010802,-0.12495376
1732437424014,2024-11-24T08:37:04.014Z,45850,0.12721702,0.022911731,-0.13794683
1732437424016,2024-11-24T08:37:04.016Z,45852,0.12721702,0.022911731,-0.13794683
1732437424044,2024-11-24T08:37:04.044Z,45880,0.11753349,0.011535256,-0.13649972
1732437424051,2024-11-24T08:37:04.051Z,45887,0.11753349,0.011535256,-0.13649972
1732437424071,2024-11-24T08:37:04.071Z,45907,0.09635624,0.02143573,-0.13204667
1732437424076,2024-11-24T08:37:04.076Z,45912,0.09635624,0.02143573,-0.13204667
1732437424094,2024-11-24T08:37:04.094Z,45930,0.077534534,0.007887981,-0.1415113
1732437424099,2024-11-24T08:37:04.099Z,45935,0.077534534,0.007887981,-0.1415113
1732437424116,2024-11-24T08:37:04.116Z,45952,0.026678063,-0.010032925,-0.1541566
1732437424122,2024-11-24T08:37:04.122Z,45958,0.026678063,-0.010032925,-0.1541566
1732437424141,2024-11-24T08:37:04.141Z,45977,-0.06866437,-0.018667793,-0.16381006
1732437424146,2024-11-24T08:37:04.146Z,45982,-0.06866437,-0.018667793,-0.16381006
1732437424161,2024-11-24T08:37:04.161Z,45997,-0.060368173,-0.016064228,-0.18072668
1732437424167,2024-11-24T08:37:04.167Z,46003,-0.060368173,-0.016064228,-0.18072668
1732437424186,2024-11-24T08:37:04.186Z,46022,-0.063961186,-0.024949059,-0.20220625
1732437424189,2024-11-24T08:37:04.189Z,46025,-0.063961186,-0.024949059,-0.20220625
1732437424198,2024-11-24T08:37:04.198Z,46034,-0.0779705,-0.034653664,-0.17304441
1732437424201,2024-11-24T08:37:04.201Z,46037,-0.0779705,-0.034653664,-0.17304441
1732437424211,2024-11-24T08:37:04.211Z,46047,-0.08943941,-0.03378021,-0.17613482
1732437424214,2024-11-24T08:37:04.214Z,46050,-0.08943941,-0.03378021,-0.17613482
1732437424225,2024-11-24T08:37:04.225Z,46061,-0.12858228,-0.061658174,-0.22694187
1732437424228,2024-11-24T08:37:04.228Z,46064,-0.12858228,-0.061658174,-0.22694187
1732437424238,2024-11-24T08:37:04.238Z,46074,-0.06640171,-0.097144574,-0.26743656
1732437424240,2024-11-24T08:37:04.240Z,46076,-0.06640171,-0.097144574,-0.26743656
1732437424249,2024-11-24T08:37:04.249Z,46085,-0.03318092,-0.09790382,-0.2829049
1732437424251,2024-11-24T08:37:04.251Z,46087,-0.03318092,-0.09790382,-0.2829049
1732437424259,2024-11-24T08:37:04.259Z,46095,-0.027914567,-0.11423536,-0.30041185
1732437424261,2024-11-24T08:37:04.261Z,46097,-0.027914567,-0.11423536,-0.30041185
1732437424269,2024-11-24T08:37:04.269Z,46105,0.0062155877,-0.15331277,-0.26656932
1732437424271,2024-11-24T08:37:04.271Z,46107,0.0062155877,-0.15331277,-0.26656932
1732437424278,2024-11-24T08:37:04.278Z,46114,-0.07831932,-0.14217095,-0.22077668
1732437424281,2024-11-24T08:37:04.281Z,46117,-0.07831932,-0.14217095,-0.22077668
1732437424289,2024-11-24T08:37:04.289Z,46125,-0.10987718,-0.09616883,-0.19660531
1732437424291,2024-11-24T08:37:04.291Z,46127,-0.10987718,-0.09616883,-0.19660531
1732437424297,2024-11-24T08:37:04.297Z,46133,-0.11139638,-0.0188345,-0.20492454
1732437424300,2024-11-24T08:37:04.300Z,46136,-0.11139638,-0.0188345,-0.20492454
1732437424306,2024-11-24T08:37:04.306Z,46142,-0.18643053,-0.08136842,-0.19244368
1732437424308,2024-11-24T08:37:04.308Z,46144,-0.18643053,-0.08136842,-0.19244368
1732437424316,2024-11-24T08:37:04.316Z,46152,-0.10544891,-0.14209077,-0.15588501
1732437424322,2024-11-24T08:37:04.322Z,46158,-0.10544891,-0.14209077,-0.15588501
1732437424358,2024-11-24T08:37:04.358Z,46194,-0.18404086,-0.04450521,-0.1012219
1732437424363,2024-11-24T08:37:04.363Z,46199,-0.18404086,-0.04450521,-0.1012219
1732437424378,2024-11-24T08:37:04.378Z,46214,-0.15728301,-0.05089469,-0.08818585
1732437424381,2024-11-24T08:37:04.381Z,46217,-0.15728301,-0.05089469,-0.08818585
1732437424390,2024-11-24T08:37:04.390Z,46226,-0.16039105,-0.05921905,-0.06951553
1732437424392,2024-11-24T08:37:04.392Z,46228,-0.16039105,-0.05921905,-0.06951553
1732437424406,2024-11-24T08:37:04.406Z,46242,-0.18671878,-0.027530463,-0.13694672
1732437424413,2024-11-24T08:37:04.413Z,46249,-0.18671878,-0.027530463,-0.13694672
1732437424433,2024-11-24T08:37:04.433Z,46269,-0.08782227,-0.017272847,-0.17711353
1732437424439,2024-11-24T08:37:04.439Z,46275,-0.08782227,-0.017272847,-0.17711353
1732437424460,2024-11-24T08:37:04.460Z,46296,0.04080699,0.014283355,-0.16628437
1732437424466,2024-11-24T08:37:04.466Z,46302,0.04080699,0.014283355,-0.16628437
1732437424484,2024-11-24T08:37:04.484Z,46320,-0.08832135,0.040819764,-0.007184418
1732437424489,2024-11-24T08:37:04.489Z,46325,-0.08832135,0.040819764,-0.007184418
1732437424508,2024-11-24T08:37:04.508Z,46344,-0.09601247,0.043199476,0.0067363614
1732437424514,2024-11-24T08:37:04.514Z,46350,-0.09601247,0.043199476,0.0067363614
1732437424535,2024-11-24T08:37:04.535Z,46371,-0.07172826,0.030772945,0.007731084
1732437424542,2024-11-24T08:37:04.542Z,46378,-0.07172826,0.030772945,0.007731084
1732437424559,2024-11-24T08:37:04.559Z,46395,0.053729363,-0.016791508,-0.009733025
1732437424565,2024-11-24T08:37:04.565Z,46401,0.053729363,-0.016791508,-0.009733025
1732437424584,2024-11-24T08:37:04.584Z,46420,0.08961231,-0.011579334,0.0019690352
1732437424590,2024-11-24T08:37:04.590Z,46426,0.08961231,-0.011579334,0.0019690352
1732437424608,2024-11-24T08:37:04.608Z,46444,0.113668285,-0.011173495,0.021396697
1732437424614,2024-11-24T08:37:04.614Z,46450,0.113668285,-0.011173495,0.021396697
1732437424634,2024-11-24T08:37:04.634Z,46470,0.16507469,-0.035914604,0.032813214
1732437424640,2024-11-24T08:37:04.640Z,46476,0.16507469,-0.035914604,0.032813214
1732437424657,2024-11-24T08:37:04.657Z,46493,0.15476808,-0.035230916,0.0386627
1732437424660,2024-11-24T08:37:04.660Z,46496,0.15476808,-0.035230916,0.0386627
1732437424672,2024-11-24T08:37:04.672Z,46508,0.13739604,-0.03990307,0.028190872
1732437424676,2024-11-24T08:37:04.676Z,46512,0.13739604,-0.03990307,0.028190872
1732437424687,2024-11-24T08:37:04.687Z,46523,0.13138808,-0.06665786,0.01603633
1732437424690,2024-11-24T08:37:04.690Z,46526,0.13138808,-0.06665786,0.01603633
1732437424700,2024-11-24T08:37:04.700Z,46536,0.11212156,-0.06747349,0.020166246
1732437424703,2024-11-24T08:37:04.703Z,46539,0.11212156,-0.06747349,0.020166246
