Timestamp (ms),ISO DateTime,Elapsed Time (ms),Acceleration X,Acceleration Y,Acceleration Z
1734275939202,2024-12-15T15:18:59.202Z,27439,0.014327749,0.0066351146,-0.3251217
1734275939208,2024-12-15T15:18:59.208Z,27445,0.014327749,0.0066351146,-0.3251217
1734275939229,2024-12-15T15:18:59.229Z,27466,0.008929577,0.007931621,-0.30352318
1734275939235,2024-12-15T15:18:59.235Z,27472,0.008929577,0.007931621,-0.30352318
1734275939253,2024-12-15T15:18:59.253Z,27490,0.0022238607,-0.015881136,-0.3058707
1734275939258,2024-12-15T15:18:59.258Z,27495,0.0022238607,-0.015881136,-0.3058707
1734275939274,2024-12-15T15:18:59.274Z,27511,-0.012101213,-0.031657536,-0.336757
1734275939278,2024-12-15T15:18:59.278Z,27515,-0.012101213,-0.031657536,-0.336757
1734275939290,2024-12-15T15:18:59.290Z,27527,-0.0050414675,-0.0070477366,-0.32714903
1734275939294,2024-12-15T15:18:59.294Z,27531,-0.0050414675,-0.0070477366,-0.32714903
1734275939308,2024-12-15T15:18:59.308Z,27545,0.0020807607,-0.008128353,-0.32786527
1734275939311,2024-12-15T15:18:59.311Z,27548,0.0020807607,-0.008128353,-0.32786527
1734275939323,2024-12-15T15:18:59.323Z,27560,0.011540046,-0.017195243,-0.32169825
1734275939327,2024-12-15T15:18:59.327Z,27564,0.011540046,-0.017195243,-0.32169825
1734275939338,2024-12-15T15:18:59.338Z,27575,-0.0056443545,-0.014151391,-0.30330113
1734275939342,2024-12-15T15:18:59.342Z,27579,-0.0056443545,-0.014151391,-0.30330113
1734275939353,2024-12-15T15:18:59.353Z,27590,-0.017955283,-0.02231592,-0.318022
1734275939356,2024-12-15T15:18:59.356Z,27593,-0.017955283,-0.02231592,-0.318022
1734275939370,2024-12-15T15:18:59.370Z,27607,-0.015809998,-0.026590345,-0.3003021
1734275939375,2024-12-15T15:18:59.375Z,27612,-0.015809998,-0.026590345,-0.3003021
1734275939387,2024-12-15T15:18:59.387Z,27624,-0.008470568,-0.02507688,-0.29556367
1734275939391,2024-12-15T15:18:59.391Z,27628,-0.008470568,-0.02507688,-0.29556367
1734275939404,2024-12-15T15:18:59.404Z,27641,-0.0022062103,-0.017766478,-0.2952898
1734275939408,2024-12-15T15:18:59.408Z,27645,-0.0022062103,-0.017766478,-0.2952898
1734275939420,2024-12-15T15:18:59.420Z,27657,0.010450872,-0.021805855,-0.2886882
1734275939425,2024-12-15T15:18:59.425Z,27662,0.010450872,-0.021805855,-0.2886882
1734275939436,2024-12-15T15:18:59.436Z,27673,0.008040733,-0.025022032,-0.27981895
1734275939440,2024-12-15T15:18:59.440Z,27677,0.008040733,-0.025022032,-0.27981895
1734275939452,2024-12-15T15:18:59.452Z,27689,-0.006022016,-0.016196996,-0.2756503
1734275939455,2024-12-15T15:18:59.455Z,27692,-0.006022016,-0.016196996,-0.2756503
1734275939467,2024-12-15T15:18:59.467Z,27704,-0.005736837,-0.008548561,-0.27021772
1734275939472,2024-12-15T15:18:59.472Z,27709,-0.005736837,-0.008548561,-0.27021772
1734275939483,2024-12-15T15:18:59.483Z,27720,-0.0023751783,-0.010852845,-0.2592231
1734275939488,2024-12-15T15:18:59.488Z,27725,-0.0023751783,-0.010852845,-0.2592231
1734275939501,2024-12-15T15:18:59.501Z,27738,0.00917751,-0.010769212,-0.25435907
1734275939506,2024-12-15T15:18:59.506Z,27743,0.00917751,-0.010769212,-0.25435907
1734275939518,2024-12-15T15:18:59.518Z,27755,0.02111384,-0.00293056,-0.23910381
1734275939522,2024-12-15T15:18:59.522Z,27759,0.02111384,-0.00293056,-0.23910381
1734275939535,2024-12-15T15:18:59.535Z,27772,0.01563189,0.0022945597,-0.23052372
1734275939539,2024-12-15T15:18:59.539Z,27776,0.01563189,0.0022945597,-0.23052372
1734275939550,2024-12-15T15:18:59.550Z,27787,0.0030628655,9.742276E-4,-0.22954924
1734275939554,2024-12-15T15:18:59.554Z,27791,0.0030628655,9.742276E-4,-0.22954924
1734275939565,2024-12-15T15:18:59.565Z,27802,0.0038036013,0.0039025508,-0.22259112
1734275939569,2024-12-15T15:18:59.569Z,27806,0.0038036013,0.0039025508,-0.22259112
1734275939581,2024-12-15T15:18:59.581Z,27818,0.0041086185,0.009156262,-0.20737462
1734275939585,2024-12-15T15:18:59.585Z,27822,0.0041086185,0.009156262,-0.20737462
1734275939596,2024-12-15T15:18:59.596Z,27833,-0.004775592,0.012345695,-0.20277928
1734275939601,2024-12-15T15:18:59.601Z,27838,-0.004775592,0.012345695,-0.20277928
1734275939612,2024-12-15T15:18:59.612Z,27849,-0.009580261,0.008072241,-0.19746059
1734275939616,2024-12-15T15:18:59.616Z,27853,-0.009580261,0.008072241,-0.19746059
1734275939628,2024-12-15T15:18:59.628Z,27865,-0.002652237,0.008124658,-0.1769587
1734275939632,2024-12-15T15:18:59.632Z,27869,-0.002652237,0.008124658,-0.1769587
1734275939644,2024-12-15T15:18:59.644Z,27881,0.006572973,0.016014656,-0.17724103
1734275939649,2024-12-15T15:18:59.649Z,27886,0.006572973,0.016014656,-0.17724103
1734275939663,2024-12-15T15:18:59.663Z,27900,0.008391117,0.02098528,-0.17321062
1734275939666,2024-12-15T15:18:59.666Z,27903,0.008391117,0.02098528,-0.17321062
1734275939682,2024-12-15T15:18:59.682Z,27919,0.0039138803,0.016622357,-0.16099203
1734275939686,2024-12-15T15:18:59.686Z,27923,0.0039138803,0.016622357,-0.16099203
1734275939700,2024-12-15T15:18:59.700Z,27937,-0.0014609038,0.019024182,-0.15677162
1734275939707,2024-12-15T15:18:59.707Z,27944,-0.0014609038,0.019024182,-0.15677162
1734275939736,2024-12-15T15:18:59.736Z,27973,-0.00867401,0.021344317,-0.14966945
1734275939744,2024-12-15T15:18:59.744Z,27981,-0.00867401,0.021344317,-0.14966945
1734275939764,2024-12-15T15:18:59.764Z,28001,-0.010956073,0.020686243,-0.14751148
1734275939768,2024-12-15T15:18:59.768Z,28005,-0.010956073,0.020686243,-0.14751148
1734275939780,2024-12-15T15:18:59.780Z,28017,0.010024635,0.022527335,-0.12118202
1734275939784,2024-12-15T15:18:59.784Z,28021,0.010024635,0.022527335,-0.12118202
1734275939796,2024-12-15T15:18:59.796Z,28033,0.030644894,0.03369779,-0.09242213
1734275939800,2024-12-15T15:18:59.800Z,28037,0.030644894,0.03369779,-0.09242213
1734275939817,2024-12-15T15:18:59.817Z,28054,0.022810375,0.0405486,-0.09803378
1734275939823,2024-12-15T15:18:59.823Z,28060,0.022810375,0.0405486,-0.09803378
1734275939836,2024-12-15T15:18:59.836Z,28073,0.0014127175,0.038563777,-0.101376265
1734275939844,2024-12-15T15:18:59.844Z,28081,0.0014127175,0.038563777,-0.101376265
1734275939862,2024-12-15T15:18:59.862Z,28099,-0.004804475,0.02728411,-0.09422243
1734275939866,2024-12-15T15:18:59.866Z,28103,-0.004804475,0.02728411,-0.09422243
1734275939878,2024-12-15T15:18:59.878Z,28115,0.015800565,0.02969245,-0.08994221
1734275939883,2024-12-15T15:18:59.883Z,28120,0.015800565,0.02969245,-0.08994221
1734275939895,2024-12-15T15:18:59.895Z,28132,0.029039383,0.041400395,-0.082611375
1734275939900,2024-12-15T15:18:59.900Z,28137,0.029039383,0.041400395,-0.082611375
1734275939913,2024-12-15T15:18:59.913Z,28150,0.030466931,0.04296258,-0.080420785
1734275939917,2024-12-15T15:18:59.917Z,28154,0.030466931,0.04296258,-0.080420785
1734275939932,2024-12-15T15:18:59.932Z,28169,0.012533431,0.03660443,-0.07116424
1734275939936,2024-12-15T15:18:59.936Z,28173,0.012533431,0.03660443,-0.07116424
1734275939951,2024-12-15T15:18:59.951Z,28188,0.012747182,0.035557073,-0.06608081
1734275939955,2024-12-15T15:18:59.955Z,28192,0.012747182,0.035557073,-0.06608081
1734275939968,2024-12-15T15:18:59.968Z,28205,0.019762242,0.03695238,-0.06374764
1734275939973,2024-12-15T15:18:59.973Z,28210,0.019762242,0.03695238,-0.06374764
1734275939987,2024-12-15T15:18:59.987Z,28224,0.015516505,0.035909984,-0.06396803
1734275939991,2024-12-15T15:18:59.991Z,28228,0.015516505,0.035909984,-0.06396803
1734275940008,2024-12-15T15:19:00.008Z,28245,0.0059991144,0.028946852,-0.06761548
1734275940013,2024-12-15T15:19:00.013Z,28250,0.0059991144,0.028946852,-0.06761548
1734275940026,2024-12-15T15:19:00.026Z,28263,0.006289496,0.02097429,-0.06454852
1734275940031,2024-12-15T15:19:00.031Z,28268,0.006289496,0.02097429,-0.06454852
1734275940042,2024-12-15T15:19:00.042Z,28279,0.011847349,0.020370381,-0.06354728
1734275940045,2024-12-15T15:19:00.045Z,28282,0.011847349,0.020370381,-0.06354728
1734275940057,2024-12-15T15:19:00.057Z,28294,0.012445568,0.022239385,-0.0698677
1734275940060,2024-12-15T15:19:00.060Z,28297,0.012445568,0.022239385,-0.0698677
1734275940072,2024-12-15T15:19:00.072Z,28309,-0.01413267,0.013268673,-0.07603296
1734275940076,2024-12-15T15:19:00.076Z,28313,-0.01413267,0.013268673,-0.07603296
1734275940089,2024-12-15T15:19:00.089Z,28326,-0.029586451,0.0033800388,-0.07996172
1734275940092,2024-12-15T15:19:00.092Z,28329,-0.029586451,0.0033800388,-0.07996172
1734275940103,2024-12-15T15:19:00.103Z,28340,-0.0332382,0.0022356277,-0.10710028
1734275940106,2024-12-15T15:19:00.106Z,28343,-0.0332382,0.0022356277,-0.10710028
1734275940118,2024-12-15T15:19:00.118Z,28355,-0.04422432,-0.015506731,-0.1294767
1734275940123,2024-12-15T15:19:00.123Z,28360,-0.04422432,-0.015506731,-0.1294767
1734275940136,2024-12-15T15:19:00.136Z,28373,-0.050356228,-0.02981751,-0.13195926
1734275940140,2024-12-15T15:19:00.140Z,28377,-0.050356228,-0.02981751,-0.13195926
1734275940152,2024-12-15T15:19:00.152Z,28389,-0.045822248,-0.028951714,-0.118463844
1734275940157,2024-12-15T15:19:00.157Z,28394,-0.045822248,-0.028951714,-0.118463844
1734275940171,2024-12-15T15:19:00.171Z,28408,-0.050201457,-0.026067445,-0.1284803
1734275940176,2024-12-15T15:19:00.176Z,28413,-0.050201457,-0.026067445,-0.1284803
1734275940188,2024-12-15T15:19:00.188Z,28425,-0.0672412,-0.031504564,-0.123299174
1734275940193,2024-12-15T15:19:00.193Z,28430,-0.0672412,-0.031504564,-0.123299174
1734275940206,2024-12-15T15:19:00.206Z,28443,-0.07634879,-0.046286605,-0.12188765
1734275940210,2024-12-15T15:19:00.210Z,28447,-0.07634879,-0.046286605,-0.12188765
1734275940223,2024-12-15T15:19:00.223Z,28460,-0.08050268,-0.06550674,-0.14317095
1734275940227,2024-12-15T15:19:00.227Z,28464,-0.08050268,-0.06550674,-0.14317095
1734275940239,2024-12-15T15:19:00.239Z,28476,-0.11051707,-0.09060161,-0.19643915
1734275940243,2024-12-15T15:19:00.243Z,28480,-0.11051707,-0.09060161,-0.19643915
1734275940256,2024-12-15T15:19:00.256Z,28493,-0.1478122,-0.11962996,-0.20625456
1734275940261,2024-12-15T15:19:00.261Z,28498,-0.1478122,-0.11962996,-0.20625456
1734275940272,2024-12-15T15:19:00.272Z,28509,-0.16123354,-0.1315427,-0.21072906
1734275940275,2024-12-15T15:19:00.275Z,28512,-0.16123354,-0.1315427,-0.21072906
1734275940287,2024-12-15T15:19:00.287Z,28524,-0.15861554,-0.14146392,-0.2128309
1734275940291,2024-12-15T15:19:00.291Z,28528,-0.15861554,-0.14146392,-0.2128309
1734275940304,2024-12-15T15:19:00.304Z,28541,-0.175464,-0.16363047,-0.2105458
1734275940309,2024-12-15T15:19:00.309Z,28546,-0.175464,-0.16363047,-0.2105458
1734275940320,2024-12-15T15:19:00.320Z,28557,-0.20296128,-0.18341036,-0.19361281
1734275940324,2024-12-15T15:19:00.324Z,28561,-0.20296128,-0.18341036,-0.19361281
1734275940335,2024-12-15T15:19:00.335Z,28572,-0.20445068,-0.1930129,-0.1721736
1734275940339,2024-12-15T15:19:00.339Z,28576,-0.20445068,-0.1930129,-0.1721736
1734275940352,2024-12-15T15:19:00.352Z,28589,-0.20041324,-0.2007576,-0.18079282
1734275940356,2024-12-15T15:19:00.356Z,28593,-0.20041324,-0.2007576,-0.18079282
1734275940367,2024-12-15T15:19:00.367Z,28604,-0.21383746,-0.2183427,-0.19262458
1734275940371,2024-12-15T15:19:00.371Z,28608,-0.21383746,-0.2183427,-0.19262458
1734275940383,2024-12-15T15:19:00.383Z,28620,-0.23260856,-0.23497362,-0.18141748
1734275940386,2024-12-15T15:19:00.386Z,28623,-0.23260856,-0.23497362,-0.18141748
1734275940397,2024-12-15T15:19:00.397Z,28634,-0.21170963,-0.23995845,-0.18735597
1734275940400,2024-12-15T15:19:00.400Z,28637,-0.21170963,-0.23995845,-0.18735597
1734275940410,2024-12-15T15:19:00.410Z,28647,-0.1952082,-0.24885671,-0.18397674
1734275940415,2024-12-15T15:19:00.415Z,28652,-0.1952082,-0.24885671,-0.18397674
1734275940426,2024-12-15T15:19:00.426Z,28663,-0.19641617,-0.2684354,-0.18088639
1734275940428,2024-12-15T15:19:00.428Z,28665,-0.19641617,-0.2684354,-0.18088639
1734275940443,2024-12-15T15:19:00.443Z,28680,-0.18984796,-0.28800777,-0.16535959
1734275940446,2024-12-15T15:19:00.446Z,28683,-0.18984796,-0.28800777,-0.16535959
1734275940456,2024-12-15T15:19:00.456Z,28693,-0.16914926,-0.28560594,-0.1530286
1734275940460,2024-12-15T15:19:00.460Z,28697,-0.16914926,-0.28560594,-0.1530286
1734275940473,2024-12-15T15:19:00.473Z,28710,-0.15735114,-0.2914588,-0.14678895
1734275940477,2024-12-15T15:19:00.477Z,28714,-0.15735114,-0.2914588,-0.14678895
1734275940493,2024-12-15T15:19:00.493Z,28730,-0.13239975,-0.2826613,-0.14772907
1734275940499,2024-12-15T15:19:00.499Z,28736,-0.13239975,-0.2826613,-0.14772907
1734275940510,2024-12-15T15:19:00.510Z,28747,-0.10657927,-0.2694207,-0.14077148
1734275940514,2024-12-15T15:19:00.514Z,28751,-0.10657927,-0.2694207,-0.14077148
1734275940526,2024-12-15T15:19:00.526Z,28763,-0.09548972,-0.27177674,-0.1311768
1734275940529,2024-12-15T15:19:00.529Z,28766,-0.09548972,-0.27177674,-0.1311768
1734275940542,2024-12-15T15:19:00.542Z,28779,-0.07165003,-0.2624672,-0.12529436
1734275940545,2024-12-15T15:19:00.545Z,28782,-0.07165003,-0.2624672,-0.12529436
1734275940558,2024-12-15T15:19:00.558Z,28795,-0.049194116,-0.24980964,-0.12753794
1734275940561,2024-12-15T15:19:00.561Z,28798,-0.049194116,-0.24980964,-0.12753794
1734275940572,2024-12-15T15:19:00.572Z,28809,-0.029730182,-0.23860028,-0.118951164
1734275940575,2024-12-15T15:19:00.575Z,28812,-0.029730182,-0.23860028,-0.118951164
1734275940587,2024-12-15T15:19:00.587Z,28824,-0.004545261,-0.21755695,-0.10355056
1734275940591,2024-12-15T15:19:00.591Z,28828,-0.004545261,-0.21755695,-0.10355056
1734275940602,2024-12-15T15:19:00.602Z,28839,0.0034123252,-0.20083812,-0.104798734
1734275940605,2024-12-15T15:19:00.605Z,28842,0.0034123252,-0.20083812,-0.104798734
1734275940616,2024-12-15T15:19:00.616Z,28853,0.012259436,-0.19237523,-0.111029565
1734275940619,2024-12-15T15:19:00.619Z,28856,0.012259436,-0.19237523,-0.111029565
1734275940630,2024-12-15T15:19:00.630Z,28867,0.028221043,-0.18378524,-0.10623204
1734275940633,2024-12-15T15:19:00.633Z,28870,0.028221043,-0.18378524,-0.10623204
1734275940645,2024-12-15T15:19:00.645Z,28882,0.04726842,-0.1715653,-0.100292735
1734275940649,2024-12-15T15:19:00.649Z,28886,0.04726842,-0.1715653,-0.100292735
1734275940661,2024-12-15T15:19:00.661Z,28898,0.06015695,-0.15425977,-0.09866529
1734275940666,2024-12-15T15:19:00.666Z,28903,0.06015695,-0.15425977,-0.09866529
1734275940679,2024-12-15T15:19:00.679Z,28916,0.058633078,-0.13286352,-0.0989984
1734275940683,2024-12-15T15:19:00.683Z,28920,0.058633078,-0.13286352,-0.0989984
1734275940694,2024-12-15T15:19:00.694Z,28931,0.06330316,-0.11768276,-0.08327363
1734275940699,2024-12-15T15:19:00.699Z,28936,0.06330316,-0.11768276,-0.08327363
1734275940711,2024-12-15T15:19:00.711Z,28948,0.093257785,-0.099959664,-0.09782344
1734275940715,2024-12-15T15:19:00.715Z,28952,0.093257785,-0.099959664,-0.09782344
1734275940726,2024-12-15T15:19:00.726Z,28963,0.08137898,-0.09860072,-0.11288532
1734275940730,2024-12-15T15:19:00.730Z,28967,0.08137898,-0.09860072,-0.11288532
1734275940739,2024-12-15T15:19:00.739Z,28976,0.07988584,-0.10090501,-0.08389616
1734275940742,2024-12-15T15:19:00.742Z,28979,0.07988584,-0.10090501,-0.08389616
1734275940755,2024-12-15T15:19:00.755Z,28992,0.12153594,-0.06098686,-0.084787965
1734275940758,2024-12-15T15:19:00.758Z,28995,0.12153594,-0.06098686,-0.084787965
1734275940769,2024-12-15T15:19:00.769Z,29006,0.10850995,-0.036861844,-0.086221516
1734275940772,2024-12-15T15:19:00.772Z,29009,0.10850995,-0.036861844,-0.086221516
1734275940782,2024-12-15T15:19:00.782Z,29019,0.11671386,-0.03210711,-0.07326316
1734275940785,2024-12-15T15:19:00.785Z,29022,0.11671386,-0.03210711,-0.07326316
1734275940795,2024-12-15T15:19:00.795Z,29032,0.14188291,5.718166E-4,-0.0709671
1734275940799,2024-12-15T15:19:00.799Z,29036,0.14188291,5.718166E-4,-0.0709671
1734275940809,2024-12-15T15:19:00.809Z,29046,0.12503256,0.011580258,-0.0776837
1734275940813,2024-12-15T15:19:00.813Z,29050,0.12503256,0.011580258,-0.0776837
1734275940824,2024-12-15T15:19:00.824Z,29061,0.10683344,-0.0035808554,-0.0697768
1734275940827,2024-12-15T15:19:00.827Z,29064,0.10683344,-0.0035808554,-0.0697768
1734275940838,2024-12-15T15:19:00.838Z,29075,0.122655675,0.0018476093,-0.046928756
1734275940841,2024-12-15T15:19:00.841Z,29078,0.122655675,0.0018476093,-0.046928756
1734275940850,2024-12-15T15:19:00.850Z,29087,0.15711874,0.039724134,-0.042942043
1734275940853,2024-12-15T15:19:00.853Z,29090,0.15711874,0.039724134,-0.042942043
1734275940862,2024-12-15T15:19:00.862Z,29099,0.17320114,0.05870971,-0.05957919
1734275940865,2024-12-15T15:19:00.865Z,29102,0.17320114,0.05870971,-0.05957919
1734275940875,2024-12-15T15:19:00.875Z,29112,0.13557243,0.025403535,-0.0686681
1734275940879,2024-12-15T15:19:00.879Z,29116,0.13557243,0.025403535,-0.0686681
1734275940890,2024-12-15T15:19:00.890Z,29127,0.13144796,0.0058335015,-0.06787651
1734275940893,2024-12-15T15:19:00.893Z,29130,0.13144796,0.0058335015,-0.06787651
1734275940904,2024-12-15T15:19:00.904Z,29141,0.1307011,0.022650938,-0.0852095
1734275940907,2024-12-15T15:19:00.907Z,29144,0.1307011,0.022650938,-0.0852095
1734275940917,2024-12-15T15:19:00.917Z,29154,0.13531001,0.02259784,-0.049607005
1734275940920,2024-12-15T15:19:00.920Z,29157,0.13531001,0.02259784,-0.049607005
1734275940929,2024-12-15T15:19:00.929Z,29166,0.17844574,0.072818115,-0.07265502
1734275940934,2024-12-15T15:19:00.934Z,29171,0.17844574,0.072818115,-0.07265502
1734275940943,2024-12-15T15:19:00.943Z,29180,0.08458446,0.052817278,-0.066250764
1734275940946,2024-12-15T15:19:00.946Z,29183,0.08458446,0.052817278,-0.066250764
1734275940955,2024-12-15T15:19:00.955Z,29192,0.06910911,0.023588795,-0.027146876
1734275940958,2024-12-15T15:19:00.958Z,29195,0.06910911,0.023588795,-0.027146876
1734275940967,2024-12-15T15:19:00.967Z,29204,0.12520634,0.06717123,-0.04533663
1734275940970,2024-12-15T15:19:00.970Z,29207,0.12520634,0.06717123,-0.04533663
1734275940980,2024-12-15T15:19:00.980Z,29217,0.1275396,0.07923394,-0.019304333
1734275940983,2024-12-15T15:19:00.983Z,29220,0.1275396,0.07923394,-0.019304333
1734275940993,2024-12-15T15:19:00.993Z,29230,0.099719435,0.07236844,-0.050445613
1734275940996,2024-12-15T15:19:00.996Z,29233,0.099719435,0.07236844,-0.050445613
1734275941007,2024-12-15T15:19:01.007Z,29244,6.0031016E-4,0.06274705,-0.10488707
1734275941009,2024-12-15T15:19:01.009Z,29246,6.0031016E-4,0.06274705,-0.10488707
1734275941019,2024-12-15T15:19:01.019Z,29256,-0.046165142,0.03174214,-0.05757359
1734275941023,2024-12-15T15:19:01.023Z,29260,-0.046165142,0.03174214,-0.05757359
1734275941037,2024-12-15T15:19:01.037Z,29274,0.06107825,0.09307481,-0.033436745
1734275941040,2024-12-15T15:19:01.040Z,29277,0.06107825,0.09307481,-0.033436745
1734275941051,2024-12-15T15:19:01.051Z,29288,0.1635561,0.15691993,-0.029470233
1734275941054,2024-12-15T15:19:01.054Z,29291,0.1635561,0.15691993,-0.029470233
1734275941064,2024-12-15T15:19:01.064Z,29301,0.10224396,0.15238819,-0.060423434
1734275941068,2024-12-15T15:19:01.068Z,29305,0.10224396,0.15238819,-0.060423434
1734275941077,2024-12-15T15:19:01.077Z,29314,-0.01579366,0.105293505,-0.015407174
1734275941080,2024-12-15T15:19:01.080Z,29317,-0.01579366,0.105293505,-0.015407174
1734275941090,2024-12-15T15:19:01.090Z,29327,0.04038739,0.16993192,0.024086952
1734275941092,2024-12-15T15:19:01.092Z,29329,0.04038739,0.16993192,0.024086952
1734275941102,2024-12-15T15:19:01.102Z,29339,0.117506236,0.26980743,-0.004942804
1734275941105,2024-12-15T15:19:01.105Z,29342,0.117506236,0.26980743,-0.004942804
1734275941114,2024-12-15T15:19:01.114Z,29351,0.06582355,0.2542618,-0.0027199972
1734275941117,2024-12-15T15:19:01.117Z,29354,0.06582355,0.2542618,-0.0027199972
1734275941126,2024-12-15T15:19:01.126Z,29363,0.060754124,0.25344062,0.015014888
1734275941128,2024-12-15T15:19:01.128Z,29365,0.060754124,0.25344062,0.015014888
1734275941138,2024-12-15T15:19:01.138Z,29375,0.050852023,0.27883512,-0.033832546
1734275941142,2024-12-15T15:19:01.142Z,29379,0.050852023,0.27883512,-0.033832546
1734275941152,2024-12-15T15:19:01.152Z,29389,0.052672327,0.24160898,-0.028261097
1734275941156,2024-12-15T15:19:01.156Z,29393,0.052672327,0.24160898,-0.028261097
1734275941166,2024-12-15T15:19:01.166Z,29403,0.14636962,0.2857714,-0.032530423
1734275941169,2024-12-15T15:19:01.169Z,29406,0.14636962,0.2857714,-0.032530423
1734275941179,2024-12-15T15:19:01.179Z,29416,0.10837674,0.3081218,-0.07184297
1734275941183,2024-12-15T15:19:01.183Z,29420,0.10837674,0.3081218,-0.07184297
1734275941193,2024-12-15T15:19:01.193Z,29430,0.06857991,0.27806237,-0.043398794
1734275941195,2024-12-15T15:19:01.195Z,29432,0.06857991,0.27806237,-0.043398794
1734275941205,2024-12-15T15:19:01.205Z,29442,0.07763239,0.32047585,-0.0744361
1734275941209,2024-12-15T15:19:01.209Z,29446,0.07763239,0.32047585,-0.0744361
1734275941220,2024-12-15T15:19:01.220Z,29457,-0.0027667219,0.29448304,-0.11661047
1734275941224,2024-12-15T15:19:01.224Z,29461,-0.0027667219,0.29448304,-0.11661047
1734275941234,2024-12-15T15:19:01.234Z,29471,0.019166868,0.23172107,-0.08149657
1734275941239,2024-12-15T15:19:01.239Z,29476,0.019166868,0.23172107,-0.08149657
1734275941249,2024-12-15T15:19:01.249Z,29486,0.1274148,0.24799733,-0.07222255
1734275941252,2024-12-15T15:19:01.252Z,29489,0.1274148,0.24799733,-0.07222255
1734275941262,2024-12-15T15:19:01.262Z,29499,0.122836225,0.23454885,-0.06127971
1734275941266,2024-12-15T15:19:01.266Z,29503,0.122836225,0.23454885,-0.06127971
1734275941277,2024-12-15T15:19:01.277Z,29514,0.045929708,0.22576922,-0.061016437
1734275941280,2024-12-15T15:19:01.280Z,29517,0.045929708,0.22576922,-0.061016437
1734275941289,2024-12-15T15:19:01.289Z,29526,-0.030237986,0.21672373,-0.10397901
1734275941292,2024-12-15T15:19:01.292Z,29529,-0.030237986,0.21672373,-0.10397901
1734275941301,2024-12-15T15:19:01.301Z,29538,-0.057171177,0.16897184,-0.12197988
1734275941304,2024-12-15T15:19:01.304Z,29541,-0.057171177,0.16897184,-0.12197988
1734275941314,2024-12-15T15:19:01.314Z,29551,-0.009586704,0.14306675,-0.09780999
1734275941318,2024-12-15T15:19:01.318Z,29555,-0.009586704,0.14306675,-0.09780999
1734275941331,2024-12-15T15:19:01.331Z,29568,0.01190453,0.14437833,-0.09950867
1734275941335,2024-12-15T15:19:01.335Z,29572,0.01190453,0.14437833,-0.09950867
1734275941345,2024-12-15T15:19:01.345Z,29582,0.009807627,0.15190405,-0.09141284
1734275941350,2024-12-15T15:19:01.350Z,29587,0.009807627,0.15190405,-0.09141284
1734275941361,2024-12-15T15:19:01.361Z,29598,0.01521325,0.15778384,-0.10509794
1734275941364,2024-12-15T15:19:01.364Z,29601,0.01521325,0.15778384,-0.10509794
1734275941376,2024-12-15T15:19:01.376Z,29613,-0.0038575737,0.13866639,-0.08861315
1734275941379,2024-12-15T15:19:01.379Z,29616,-0.0038575737,0.13866639,-0.08861315
1734275941388,2024-12-15T15:19:01.388Z,29625,0.019250477,0.13512395,-0.080675066
1734275941391,2024-12-15T15:19:01.391Z,29628,0.019250477,0.13512395,-0.080675066
1734275941400,2024-12-15T15:19:01.400Z,29637,0.018502738,0.13350856,-0.08474203
1734275941403,2024-12-15T15:19:01.403Z,29640,0.018502738,0.13350856,-0.08474203
1734275941412,2024-12-15T15:19:01.412Z,29649,0.017040899,0.12743671,-0.052964807
1734275941415,2024-12-15T15:19:01.415Z,29652,0.017040899,0.12743671,-0.052964807
1734275941426,2024-12-15T15:19:01.426Z,29663,0.0038724649,0.13152899,-0.062380604
1734275941430,2024-12-15T15:19:01.430Z,29667,0.0038724649,0.13152899,-0.062380604
1734275941441,2024-12-15T15:19:01.441Z,29678,0.0036444676,0.13698119,-0.08644691
1734275941445,2024-12-15T15:19:01.445Z,29682,0.0036444676,0.13698119,-0.08644691
1734275941456,2024-12-15T15:19:01.456Z,29693,0.032883562,0.12966563,-0.08748761
1734275941459,2024-12-15T15:19:01.459Z,29696,0.032883562,0.12966563,-0.08748761
1734275941468,2024-12-15T15:19:01.468Z,29705,0.044267256,0.10430177,-0.10406797
1734275941472,2024-12-15T15:19:01.472Z,29709,0.044267256,0.10430177,-0.10406797
1734275941483,2024-12-15T15:19:01.483Z,29720,0.054647405,0.0755216,-0.08642736
1734275941487,2024-12-15T15:19:01.487Z,29724,0.054647405,0.0755216,-0.08642736
1734275941498,2024-12-15T15:19:01.498Z,29735,0.052695073,0.074578494,-0.09132349
1734275941501,2024-12-15T15:19:01.501Z,29738,0.052695073,0.074578494,-0.09132349
1734275941511,2024-12-15T15:19:01.511Z,29748,0.00629871,0.058996104,-0.08777731
1734275941513,2024-12-15T15:19:01.513Z,29750,0.00629871,0.058996104,-0.08777731
1734275941524,2024-12-15T15:19:01.524Z,29761,0.007127273,0.05017603,-0.063273214
1734275941527,2024-12-15T15:19:01.527Z,29764,0.007127273,0.05017603,-0.063273214
1734275941536,2024-12-15T15:19:01.536Z,29773,0.015502112,0.044764582,-0.08485245
1734275941539,2024-12-15T15:19:01.539Z,29776,0.015502112,0.044764582,-0.08485245
1734275941548,2024-12-15T15:19:01.548Z,29785,-0.009649976,2.692789E-4,-0.07946852
1734275941551,2024-12-15T15:19:01.551Z,29788,-0.009649976,2.692789E-4,-0.07946852
1734275941563,2024-12-15T15:19:01.563Z,29800,0.012873325,-0.002789745,-0.05806711
1734275941568,2024-12-15T15:19:01.568Z,29805,0.012873325,-0.002789745,-0.05806711
1734275941583,2024-12-15T15:19:01.583Z,29820,0.005562156,0.011740425,-0.08689716
1734275941587,2024-12-15T15:19:01.587Z,29824,0.005562156,0.011740425,-0.08689716
1734275941596,2024-12-15T15:19:01.596Z,29833,-0.019523658,0.010599028,-0.08931905
1734275941599,2024-12-15T15:19:01.599Z,29836,-0.019523658,0.010599028,-0.08931905
1734275941609,2024-12-15T15:19:01.609Z,29846,0.008093308,0.0025558644,-0.09214228
1734275941612,2024-12-15T15:19:01.612Z,29849,0.008093308,0.0025558644,-0.09214228
1734275941624,2024-12-15T15:19:01.624Z,29861,-0.005420977,-0.0015529487,-0.104625255
1734275941627,2024-12-15T15:19:01.627Z,29864,-0.005420977,-0.0015529487,-0.104625255
1734275941638,2024-12-15T15:19:01.638Z,29875,0.0014884735,0.012403849,-0.073267154
1734275941642,2024-12-15T15:19:01.642Z,29879,0.0014884735,0.012403849,-0.073267154
1734275941652,2024-12-15T15:19:01.652Z,29889,0.026205877,0.036601804,-0.10222563
1734275941655,2024-12-15T15:19:01.655Z,29892,0.026205877,0.036601804,-0.10222563
1734275941666,2024-12-15T15:19:01.666Z,29903,0.018873168,0.026511574,-0.10755603
1734275941670,2024-12-15T15:19:01.670Z,29907,0.018873168,0.026511574,-0.10755603
1734275941681,2024-12-15T15:19:01.681Z,29918,0.044052266,0.042402044,-0.10480666
1734275941685,2024-12-15T15:19:01.685Z,29922,0.044052266,0.042402044,-0.10480666
1734275941695,2024-12-15T15:19:01.695Z,29932,0.03019014,0.055914324,-0.12066324
1734275941698,2024-12-15T15:19:01.698Z,29935,0.03019014,0.055914324,-0.12066324
1734275941709,2024-12-15T15:19:01.709Z,29946,0.020551967,0.07478631,-0.0953376
1734275941712,2024-12-15T15:19:01.712Z,29949,0.020551967,0.07478631,-0.0953376
1734275941725,2024-12-15T15:19:01.725Z,29962,0.0076194555,0.07995843,-0.10278981
1734275941728,2024-12-15T15:19:01.728Z,29965,0.0076194555,0.07995843,-0.10278981
1734275941737,2024-12-15T15:19:01.737Z,29974,-0.009657379,0.0690025,-0.11272325
1734275941740,2024-12-15T15:19:01.740Z,29977,-0.009657379,0.0690025,-0.11272325
1734275941749,2024-12-15T15:19:01.749Z,29986,-0.026726564,0.048734233,-0.119748525
1734275941752,2024-12-15T15:19:01.752Z,29989,-0.026726564,0.048734233,-0.119748525
1734275941761,2024-12-15T15:19:01.761Z,29998,-0.012682877,0.026469758,-0.097386956
1734275941764,2024-12-15T15:19:01.764Z,30001,-0.012682877,0.026469758,-0.097386956
1734275941773,2024-12-15T15:19:01.773Z,30010,-4.0695738E-4,0.029566515,-0.11263966
1734275941776,2024-12-15T15:19:01.776Z,30013,-4.0695738E-4,0.029566515,-0.11263966
1734275941784,2024-12-15T15:19:01.784Z,30021,-0.020513445,0.021388177,-0.122487545
1734275941787,2024-12-15T15:19:01.787Z,30024,-0.020513445,0.021388177,-0.122487545
1734275941796,2024-12-15T15:19:01.796Z,30033,-0.004949787,0.015586961,-0.13225016
1734275941800,2024-12-15T15:19:01.800Z,30037,-0.004949787,0.015586961,-0.13225016
1734275941810,2024-12-15T15:19:01.810Z,30047,-0.021203782,0.006390731,-0.16777205
1734275941812,2024-12-15T15:19:01.812Z,30049,-0.021203782,0.006390731,-0.16777205
1734275941823,2024-12-15T15:19:01.823Z,30060,-0.01937656,-0.0028259214,-0.14536902
1734275941827,2024-12-15T15:19:01.827Z,30064,-0.01937656,-0.0028259214,-0.14536902
1734275941838,2024-12-15T15:19:01.838Z,30075,-0.021599665,1.791303E-4,-0.15671162
1734275941842,2024-12-15T15:19:01.842Z,30079,-0.021599665,1.791303E-4,-0.15671162
1734275941852,2024-12-15T15:19:01.852Z,30089,-0.031658664,0.0012718056,-0.14687823
1734275941855,2024-12-15T15:19:01.855Z,30092,-0.031658664,0.0012718056,-0.14687823
1734275941867,2024-12-15T15:19:01.867Z,30104,-0.019911008,0.00823377,-0.13815148
1734275941870,2024-12-15T15:19:01.870Z,30107,-0.019911008,0.00823377,-0.13815148
1734275941882,2024-12-15T15:19:01.882Z,30119,-0.030333823,0.004954966,-0.123207174
1734275941886,2024-12-15T15:19:01.886Z,30123,-0.030333823,0.004954966,-0.123207174
1734275941898,2024-12-15T15:19:01.898Z,30135,-0.04235392,0.016316708,-0.103137836
1734275941901,2024-12-15T15:19:01.901Z,30138,-0.04235392,0.016316708,-0.103137836
1734275941912,2024-12-15T15:19:01.912Z,30149,-0.0035481679,0.027777255,-0.117280595
1734275941915,2024-12-15T15:19:01.915Z,30152,-0.0035481679,0.027777255,-0.117280595
1734275941924,2024-12-15T15:19:01.924Z,30161,0.0044659674,0.04573725,-0.12808783
1734275941928,2024-12-15T15:19:01.928Z,30165,0.0044659674,0.04573725,-0.12808783
1734275941940,2024-12-15T15:19:01.940Z,30177,-0.0032459828,0.05074901,-0.12870672
1734275941944,2024-12-15T15:19:01.944Z,30181,-0.0032459828,0.05074901,-0.12870672
1734275941955,2024-12-15T15:19:01.955Z,30192,-0.0075902813,0.032335836,-0.11362767
1734275941959,2024-12-15T15:19:01.959Z,30196,-0.0075902813,0.032335836,-0.11362767
1734275941968,2024-12-15T15:19:01.968Z,30205,-0.016079325,0.011506836,-0.116178684
1734275941971,2024-12-15T15:19:01.971Z,30208,-0.016079325,0.011506836,-0.116178684
1734275941981,2024-12-15T15:19:01.981Z,30218,-0.022875726,0.013146724,-0.085811466
1734275941985,2024-12-15T15:19:01.985Z,30222,-0.022875726,0.013146724,-0.085811466
1734275941995,2024-12-15T15:19:01.995Z,30232,-0.014614131,0.008430015,-0.07517192
1734275941998,2024-12-15T15:19:01.998Z,30235,-0.014614131,0.008430015,-0.07517192
1734275942009,2024-12-15T15:19:02.009Z,30246,-0.034716327,-0.013867427,-0.08853954
1734275942012,2024-12-15T15:19:02.012Z,30249,-0.034716327,-0.013867427,-0.08853954
1734275942021,2024-12-15T15:19:02.021Z,30258,-0.050041974,-0.01370337,-0.08690274
1734275942024,2024-12-15T15:19:02.024Z,30261,-0.050041974,-0.01370337,-0.08690274
1734275942033,2024-12-15T15:19:02.033Z,30270,-0.031096391,-0.0037842004,-0.081819825
1734275942036,2024-12-15T15:19:02.036Z,30273,-0.031096391,-0.0037842004,-0.081819825
1734275942045,2024-12-15T15:19:02.045Z,30282,-0.04821779,0.06184663,-0.081320375
1734275942048,2024-12-15T15:19:02.048Z,30285,-0.04821779,0.06184663,-0.081320375
1734275942056,2024-12-15T15:19:02.056Z,30293,-0.057530593,0.076517224,-0.08581805
1734275942059,2024-12-15T15:19:02.059Z,30296,-0.057530593,0.076517224,-0.08581805
1734275942069,2024-12-15T15:19:02.069Z,30306,-0.0751628,0.09311614,-0.08781742
1734275942073,2024-12-15T15:19:02.073Z,30310,-0.0751628,0.09311614,-0.08781742
1734275942082,2024-12-15T15:19:02.082Z,30319,-0.10047565,0.105273955,-0.11021373
1734275942085,2024-12-15T15:19:02.085Z,30322,-0.10047565,0.105273955,-0.11021373
1734275942095,2024-12-15T15:19:02.095Z,30332,-0.09821363,0.09196765,-0.087637745
1734275942098,2024-12-15T15:19:02.098Z,30335,-0.09821363,0.09196765,-0.087637745
1734275942113,2024-12-15T15:19:02.113Z,30350,-0.072335236,0.14975818,-0.05835789
1734275942116,2024-12-15T15:19:02.116Z,30353,-0.072335236,0.14975818,-0.05835789
1734275942128,2024-12-15T15:19:02.128Z,30365,-0.09419135,0.17071389,-0.065675646
1734275942131,2024-12-15T15:19:02.131Z,30368,-0.09419135,0.17071389,-0.065675646
1734275942141,2024-12-15T15:19:02.141Z,30378,-0.14663321,0.1548985,-0.14078076
1734275942144,2024-12-15T15:19:02.144Z,30381,-0.14663321,0.1548985,-0.14078076
1734275942155,2024-12-15T15:19:02.155Z,30392,-0.15993227,0.07063442,-0.049411327
1734275942158,2024-12-15T15:19:02.158Z,30395,-0.15993227,0.07063442,-0.049411327
1734275942168,2024-12-15T15:19:02.168Z,30405,-0.024188412,0.09043522,-0.006569863
1734275942172,2024-12-15T15:19:02.172Z,30409,-0.024188412,0.09043522,-0.006569863
1734275942182,2024-12-15T15:19:02.182Z,30419,0.057928495,0.15241285,-0.078252874
1734275942185,2024-12-15T15:19:02.185Z,30422,0.057928495,0.15241285,-0.078252874
1734275942195,2024-12-15T15:19:02.195Z,30432,0.035524808,0.20361051,-0.05372178
1734275942197,2024-12-15T15:19:02.197Z,30434,0.035524808,0.20361051,-0.05372178
1734275942208,2024-12-15T15:19:02.208Z,30445,-0.024230277,0.25756058,-0.023591608
1734275942212,2024-12-15T15:19:02.212Z,30449,-0.024230277,0.25756058,-0.023591608
1734275942223,2024-12-15T15:19:02.223Z,30460,-0.030060582,0.30487174,-0.04432383
1734275942227,2024-12-15T15:19:02.227Z,30464,-0.030060582,0.30487174,-0.04432383
1734275942237,2024-12-15T15:19:02.237Z,30474,-0.11595687,0.26828465,-0.1412259
1734275942241,2024-12-15T15:19:02.241Z,30478,-0.11595687,0.26828465,-0.1412259
1734275942251,2024-12-15T15:19:02.251Z,30488,-0.13512549,0.12337555,-0.078069866
1734275942254,2024-12-15T15:19:02.254Z,30491,-0.13512549,0.12337555,-0.078069866
1734275942263,2024-12-15T15:19:02.263Z,30500,0.045460694,0.1351573,0.026947973
1734275942267,2024-12-15T15:19:02.267Z,30504,0.045460694,0.1351573,0.026947973
1734275942278,2024-12-15T15:19:02.278Z,30515,0.139215,0.25779095,0.013054785
1734275942281,2024-12-15T15:19:02.281Z,30518,0.139215,0.25779095,0.013054785
1734275942291,2024-12-15T15:19:02.291Z,30528,0.083421834,0.34883398,0.035327908
1734275942294,2024-12-15T15:19:02.294Z,30531,0.083421834,0.34883398,0.035327908
1734275942303,2024-12-15T15:19:02.303Z,30540,0.027977183,0.39684948,0.053811755
1734275942307,2024-12-15T15:19:02.307Z,30544,0.027977183,0.39684948,0.053811755
1734275942319,2024-12-15T15:19:02.319Z,30556,-0.019268103,0.3626728,-0.041259754
1734275942322,2024-12-15T15:19:02.322Z,30559,-0.019268103,0.3626728,-0.041259754
1734275942332,2024-12-15T15:19:02.332Z,30569,-0.08333602,0.21614054,-0.12638967
1734275942336,2024-12-15T15:19:02.336Z,30573,-0.08333602,0.21614054,-0.12638967
1734275942346,2024-12-15T15:19:02.346Z,30583,-0.038867407,0.08395463,-0.09122354
1734275942348,2024-12-15T15:19:02.348Z,30585,-0.038867407,0.08395463,-0.09122354
1734275942358,2024-12-15T15:19:02.358Z,30595,0.12612927,0.113741994,-0.046729587
1734275942361,2024-12-15T15:19:02.361Z,30598,0.12612927,0.113741994,-0.046729587
1734275942369,2024-12-15T15:19:02.369Z,30606,0.23273739,0.19661422,0.013427527
1734275942372,2024-12-15T15:19:02.372Z,30609,0.23273739,0.19661422,0.013427527
1734275942381,2024-12-15T15:19:02.381Z,30618,0.14026001,0.005572294,-0.116261736
1734275942384,2024-12-15T15:19:02.384Z,30621,0.14026001,0.005572294,-0.116261736
1734275942395,2024-12-15T15:19:02.395Z,30632,0.119614005,0.042802803,-0.069726676
1734275942399,2024-12-15T15:19:02.399Z,30636,0.119614005,0.042802803,-0.069726676
1734275942411,2024-12-15T15:19:02.411Z,30648,0.051690344,0.0664977,-0.14462107
1734275942414,2024-12-15T15:19:02.414Z,30651,0.051690344,0.0664977,-0.14462107
1734275942423,2024-12-15T15:19:02.423Z,30660,-0.041726563,-0.028166343,-0.14765663
1734275942426,2024-12-15T15:19:02.426Z,30663,-0.041726563,-0.028166343,-0.14765663
1734275942438,2024-12-15T15:19:02.438Z,30675,0.055420574,-0.04878266,-0.08284339
1734275942441,2024-12-15T15:19:02.441Z,30678,0.055420574,-0.04878266,-0.08284339
1734275942451,2024-12-15T15:19:02.451Z,30688,0.19001533,-0.0071051125,-0.080633245
1734275942455,2024-12-15T15:19:02.455Z,30692,0.19001533,-0.0071051125,-0.080633245
1734275942466,2024-12-15T15:19:02.466Z,30703,0.17067932,-0.0026407617,-0.06934295
1734275942470,2024-12-15T15:19:02.470Z,30707,0.17067932,-0.0026407617,-0.06934295
1734275942480,2024-12-15T15:19:02.480Z,30717,0.109098464,0.042473815,-0.030531224
1734275942483,2024-12-15T15:19:02.483Z,30720,0.109098464,0.042473815,-0.030531224
1734275942492,2024-12-15T15:19:02.492Z,30729,0.08361879,0.10306945,-0.058355365
1734275942495,2024-12-15T15:19:02.495Z,30732,0.08361879,0.10306945,-0.058355365
1734275942503,2024-12-15T15:19:02.503Z,30740,0.04909986,0.046168935,-0.08269349
1734275942506,2024-12-15T15:19:02.506Z,30743,0.04909986,0.046168935,-0.08269349
1734275942518,2024-12-15T15:19:02.518Z,30755,0.10888194,0.0037700022,-0.036665548
1734275942521,2024-12-15T15:19:02.521Z,30758,0.10888194,0.0037700022,-0.036665548
1734275942531,2024-12-15T15:19:02.531Z,30768,0.22061893,0.04167298,-0.057737075
1734275942535,2024-12-15T15:19:02.535Z,30772,0.22061893,0.04167298,-0.057737075
1734275942546,2024-12-15T15:19:02.546Z,30783,0.17355645,0.019459657,-0.09171539
1734275942549,2024-12-15T15:19:02.549Z,30786,0.17355645,0.019459657,-0.09171539
1734275942561,2024-12-15T15:19:02.561Z,30798,0.11032863,-0.0044791326,-0.052133188
1734275942564,2024-12-15T15:19:02.564Z,30801,0.11032863,-0.0044791326,-0.052133188
1734275942574,2024-12-15T15:19:02.574Z,30811,0.13928698,0.05696635,-0.020320518
1734275942577,2024-12-15T15:19:02.577Z,30814,0.13928698,0.05696635,-0.020320518
1734275942585,2024-12-15T15:19:02.585Z,30822,0.13372485,0.0071601546,-0.063657336
1734275942588,2024-12-15T15:19:02.588Z,30825,0.13372485,0.0071601546,-0.063657336
1734275942597,2024-12-15T15:19:02.597Z,30834,0.1510284,-0.0047243913,-0.0631178
1734275942600,2024-12-15T15:19:02.600Z,30837,0.1510284,-0.0047243913,-0.0631178
1734275942613,2024-12-15T15:19:02.613Z,30850,0.095072165,-0.0067691216,-0.062860124
1734275942616,2024-12-15T15:19:02.616Z,30853,0.095072165,-0.0067691216,-0.062860124
1734275942635,2024-12-15T15:19:02.635Z,30872,0.1269248,-0.0075879474,-0.05741838
1734275942638,2024-12-15T15:19:02.638Z,30875,0.1269248,-0.0075879474,-0.05741838
1734275942649,2024-12-15T15:19:02.649Z,30886,0.005350302,-0.14316313,-0.07801885
1734275942653,2024-12-15T15:19:02.653Z,30890,0.005350302,-0.14316313,-0.07801885
1734275942663,2024-12-15T15:19:02.663Z,30900,-0.020261269,-0.1341049,-0.096353464
1734275942666,2024-12-15T15:19:02.666Z,30903,-0.020261269,-0.1341049,-0.096353464
1734275942676,2024-12-15T15:19:02.676Z,30913,-0.0033232463,-0.14702153,-0.045487754
1734275942679,2024-12-15T15:19:02.679Z,30916,-0.0033232463,-0.14702153,-0.045487754
1734275942689,2024-12-15T15:19:02.689Z,30926,0.04823414,-0.107088506,-0.039974988
1734275942692,2024-12-15T15:19:02.692Z,30929,0.04823414,-0.107088506,-0.039974988
1734275942701,2024-12-15T15:19:02.701Z,30938,0.050761703,-0.080679916,-0.04449206
1734275942704,2024-12-15T15:19:02.704Z,30941,0.050761703,-0.080679916,-0.04449206
1734275942713,2024-12-15T15:19:02.713Z,30950,0.053289752,-0.07284058,-0.0108695105
1734275942716,2024-12-15T15:19:02.716Z,30953,0.053289752,-0.07284058,-0.0108695105
1734275942726,2024-12-15T15:19:02.726Z,30963,0.06810819,-0.045982514,-0.005649241
1734275942729,2024-12-15T15:19:02.729Z,30966,0.06810819,-0.045982514,-0.005649241
1734275942741,2024-12-15T15:19:02.741Z,30978,0.06878907,-0.037205905,-0.019951839
1734275942744,2024-12-15T15:19:02.744Z,30981,0.06878907,-0.037205905,-0.019951839
1734275942754,2024-12-15T15:19:02.754Z,30991,0.042659022,-0.05091842,-0.027397586
1734275942757,2024-12-15T15:19:02.757Z,30994,0.042659022,-0.05091842,-0.027397586
1734275942767,2024-12-15T15:19:02.767Z,31004,0.018513607,-0.072468996,-0.02601397
1734275942771,2024-12-15T15:19:02.771Z,31008,0.018513607,-0.072468996,-0.02601397
1734275942783,2024-12-15T15:19:02.783Z,31020,0.051410854,-0.039261624,-0.01872354
1734275942787,2024-12-15T15:19:02.787Z,31024,0.051410854,-0.039261624,-0.01872354
1734275942797,2024-12-15T15:19:02.797Z,31034,0.051893275,-0.032051776,-0.029005371
1734275942800,2024-12-15T15:19:02.800Z,31037,0.051893275,-0.032051776,-0.029005371
1734275942810,2024-12-15T15:19:02.810Z,31047,0.022908766,-0.041588083,-0.016837068
1734275942812,2024-12-15T15:19:02.812Z,31049,0.022908766,-0.041588083,-0.016837068
1734275942823,2024-12-15T15:19:02.823Z,31060,0.009492519,-0.04252827,-0.008587119
1734275942827,2024-12-15T15:19:02.827Z,31064,0.009492519,-0.04252827,-0.008587119
1734275942837,2024-12-15T15:19:02.837Z,31074,0.003269298,-0.036822166,-0.048043143
1734275942840,2024-12-15T15:19:02.840Z,31077,0.003269298,-0.036822166,-0.048043143
1734275942849,2024-12-15T15:19:02.849Z,31086,0.07294925,0.0022999085,-0.007974568
1734275942851,2024-12-15T15:19:02.851Z,31088,0.07294925,0.0022999085,-0.007974568
1734275942861,2024-12-15T15:19:02.861Z,31098,0.05315234,0.01739149,0.005118901
1734275942863,2024-12-15T15:19:02.863Z,31100,0.05315234,0.01739149,0.005118901
1734275942872,2024-12-15T15:19:02.872Z,31109,0.013752091,0.015365625,0.015106107
1734275942875,2024-12-15T15:19:02.875Z,31112,0.013752091,0.015365625,0.015106107
1734275942884,2024-12-15T15:19:02.884Z,31121,0.006804544,0.010280931,-0.0074719554
1734275942888,2024-12-15T15:19:02.888Z,31125,0.006804544,0.010280931,-0.0074719554
1734275942898,2024-12-15T15:19:02.898Z,31135,0.03105523,0.005491773,0.015850248
1734275942902,2024-12-15T15:19:02.902Z,31139,0.03105523,0.005491773,0.015850248
1734275942913,2024-12-15T15:19:02.913Z,31150,0.06950452,-0.003242239,0.00901428
1734275942916,2024-12-15T15:19:02.916Z,31153,0.06950452,-0.003242239,0.00901428
1734275942928,2024-12-15T15:19:02.928Z,31165,0.08667961,-0.010893981,3.140615E-4
1734275942931,2024-12-15T15:19:02.931Z,31168,0.08667961,-0.010893981,3.140615E-4
1734275942942,2024-12-15T15:19:02.942Z,31179,0.04631583,-0.017867517,-0.01430165
1734275942945,2024-12-15T15:19:02.945Z,31182,0.04631583,-0.017867517,-0.01430165
1734275942955,2024-12-15T15:19:02.955Z,31192,0.008632534,-0.034511562,-0.011268773
1734275942958,2024-12-15T15:19:02.958Z,31195,0.008632534,-0.034511562,-0.011268773
1734275942969,2024-12-15T15:19:02.969Z,31206,-0.0026445787,-0.053230774,-0.033156414
1734275942973,2024-12-15T15:19:02.973Z,31210,-0.0026445787,-0.053230774,-0.033156414
1734275942982,2024-12-15T15:19:02.982Z,31219,0.0034420828,-0.059901673,-0.02990237
1734275942985,2024-12-15T15:19:02.985Z,31222,0.0034420828,-0.059901673,-0.02990237
1734275942996,2024-12-15T15:19:02.996Z,31233,0.005331047,-0.05375095,-0.04376321
1734275942998,2024-12-15T15:19:02.998Z,31235,0.005331047,-0.05375095,-0.04376321
1734275943007,2024-12-15T15:19:03.007Z,31244,-0.006666209,-0.049964804,-0.04487056
1734275943010,2024-12-15T15:19:03.010Z,31247,-0.006666209,-0.049964804,-0.04487056
1734275943020,2024-12-15T15:19:03.020Z,31257,-0.01895623,-0.04954839,-0.047051374
1734275943024,2024-12-15T15:19:03.024Z,31261,-0.01895623,-0.04954839,-0.047051374
1734275943033,2024-12-15T15:19:03.033Z,31270,0.009616,-0.035395544,-0.040475752
1734275943036,2024-12-15T15:19:03.036Z,31273,0.009616,-0.035395544,-0.040475752
1734275943044,2024-12-15T15:19:03.044Z,31281,0.035000864,-0.02260776,-0.039750904
1734275943047,2024-12-15T15:19:03.047Z,31284,0.035000864,-0.02260776,-0.039750904
1734275943057,2024-12-15T15:19:03.057Z,31294,0.030510353,-0.028292278,-0.07740786
1734275943060,2024-12-15T15:19:03.060Z,31297,0.030510353,-0.028292278,-0.07740786
1734275943071,2024-12-15T15:19:03.071Z,31308,0.013471556,-0.046591576,-0.084996946
1734275943076,2024-12-15T15:19:03.076Z,31313,0.013471556,-0.046591576,-0.084996946
1734275943083,2024-12-15T15:19:03.083Z,31320,0.007303887,-0.056488574,-0.06945128
1734275943086,2024-12-15T15:19:03.086Z,31323,0.007303887,-0.056488574,-0.06945128
1734275943096,2024-12-15T15:19:03.096Z,31333,-0.030332536,-0.05069611,-0.03789955
1734275943099,2024-12-15T15:19:03.099Z,31336,-0.030332536,-0.05069611,-0.03789955
1734275943109,2024-12-15T15:19:03.109Z,31346,-0.010445863,-0.041795123,-0.039568905
1734275943112,2024-12-15T15:19:03.112Z,31349,-0.010445863,-0.041795123,-0.039568905
1734275943120,2024-12-15T15:19:03.120Z,31357,0.001303095,-0.0436897,-0.02958363
1734275943123,2024-12-15T15:19:03.123Z,31360,0.001303095,-0.0436897,-0.02958363
1734275943133,2024-12-15T15:19:03.133Z,31370,-0.0033174842,0.025078727,-0.04171669
1734275943140,2024-12-15T15:19:03.140Z,31377,-0.0033174842,0.025078727,-0.04171669
1734275943152,2024-12-15T15:19:03.152Z,31389,-0.013980161,0.03016877,-0.03224588
1734275943156,2024-12-15T15:19:03.156Z,31393,-0.013980161,0.03016877,-0.03224588
1734275943165,2024-12-15T15:19:03.165Z,31402,-0.008059988,0.029877026,-0.03790452
1734275943168,2024-12-15T15:19:03.168Z,31405,-0.008059988,0.029877026,-0.03790452
1734275943180,2024-12-15T15:19:03.180Z,31417,0.024709113,0.029955214,-0.043364786
1734275943183,2024-12-15T15:19:03.183Z,31420,0.024709113,0.029955214,-0.043364786
1734275943193,2024-12-15T15:19:03.193Z,31430,0.033985887,0.017959125,-0.05992729
1734275943197,2024-12-15T15:19:03.197Z,31434,0.033985887,0.017959125,-0.05992729
1734275943209,2024-12-15T15:19:03.209Z,31446,-0.0037424567,-0.013570627,-0.090477705
1734275943212,2024-12-15T15:19:03.212Z,31449,-0.0037424567,-0.013570627,-0.090477705
1734275943226,2024-12-15T15:19:03.226Z,31463,-0.03792413,-0.04323896,-0.095869996
1734275943230,2024-12-15T15:19:03.230Z,31467,-0.03792413,-0.04323896,-0.095869996
1734275943240,2024-12-15T15:19:03.240Z,31477,-0.046058826,-0.07170483,-0.120415084
1734275943242,2024-12-15T15:19:03.242Z,31479,-0.046058826,-0.07170483,-0.120415084
1734275943252,2024-12-15T15:19:03.252Z,31489,-0.054941215,-0.13222791,-0.13742094
1734275943255,2024-12-15T15:19:03.255Z,31492,-0.054941215,-0.13222791,-0.13742094
1734275943263,2024-12-15T15:19:03.263Z,31500,-0.07702136,-0.21399806,-0.14730565
1734275943265,2024-12-15T15:19:03.265Z,31502,-0.07702136,-0.21399806,-0.14730565
1734275943274,2024-12-15T15:19:03.274Z,31511,-0.1294313,-0.2847664,-0.17209387
1734275943277,2024-12-15T15:19:03.277Z,31514,-0.1294313,-0.2847664,-0.17209387
1734275943286,2024-12-15T15:19:03.286Z,31523,-0.17859507,-0.49695158,-0.23366126
1734275943289,2024-12-15T15:19:03.289Z,31526,-0.17859507,-0.49695158,-0.23366126
1734275943303,2024-12-15T15:19:03.303Z,31540,-0.15622807,-0.4785389,-0.21144289
1734275943306,2024-12-15T15:19:03.306Z,31543,-0.15622807,-0.4785389,-0.21144289
1734275943313,2024-12-15T15:19:03.313Z,31550,-0.16403939,-0.45379722,-0.1888302
1734275943315,2024-12-15T15:19:03.315Z,31552,-0.16403939,-0.45379722,-0.1888302
1734275943324,2024-12-15T15:19:03.324Z,31561,-0.15427358,-0.4168674,-0.17220089
1734275943327,2024-12-15T15:19:03.327Z,31564,-0.15427358,-0.4168674,-0.17220089
1734275943335,2024-12-15T15:19:03.335Z,31572,-0.1118445,-0.37506208,-0.15635644
1734275943337,2024-12-15T15:19:03.337Z,31574,-0.1118445,-0.37506208,-0.15635644
1734275943348,2024-12-15T15:19:03.348Z,31585,-0.06324247,-0.3551962,-0.15854391
1734275943351,2024-12-15T15:19:03.351Z,31588,-0.06324247,-0.3551962,-0.15854391
1734275943359,2024-12-15T15:19:03.359Z,31596,-0.022094559,-0.34047952,-0.14573914
1734275943362,2024-12-15T15:19:03.362Z,31599,-0.022094559,-0.34047952,-0.14573914
1734275943373,2024-12-15T15:19:03.373Z,31610,0.0043196217,-0.31653002,-0.14888504
1734275943376,2024-12-15T15:19:03.376Z,31613,0.0043196217,-0.31653002,-0.14888504
1734275943386,2024-12-15T15:19:03.386Z,31623,0.049114082,-0.3067407,-0.1552572
1734275943389,2024-12-15T15:19:03.389Z,31626,0.049114082,-0.3067407,-0.1552572
1734275943397,2024-12-15T15:19:03.397Z,31634,0.08695038,-0.3018362,-0.11851257
1734275943399,2024-12-15T15:19:03.399Z,31636,0.08695038,-0.3018362,-0.11851257
1734275943407,2024-12-15T15:19:03.407Z,31644,0.111815274,-0.28714216,-0.09844323
1734275943410,2024-12-15T15:19:03.410Z,31647,0.111815274,-0.28714216,-0.09844323
1734275943420,2024-12-15T15:19:03.420Z,31657,0.15228212,-0.26361755,-0.05790011
1734275943424,2024-12-15T15:19:03.424Z,31661,0.15228212,-0.26361755,-0.05790011
1734275943432,2024-12-15T15:19:03.432Z,31669,0.16131872,-0.23413302,-0.023041485
1734275943435,2024-12-15T15:19:03.435Z,31672,0.16131872,-0.23413302,-0.023041485
1734275943444,2024-12-15T15:19:03.444Z,31681,0.12848298,-0.22152904,0.01307081
1734275943446,2024-12-15T15:19:03.446Z,31683,0.12848298,-0.22152904,0.01307081
1734275943455,2024-12-15T15:19:03.455Z,31692,0.108204514,-0.20435752,0.037975583
1734275943457,2024-12-15T15:19:03.457Z,31694,0.108204514,-0.20435752,0.037975583
1734275943467,2024-12-15T15:19:03.467Z,31704,0.101816386,-0.1773313,0.041003283
1734275943469,2024-12-15T15:19:03.469Z,31706,0.101816386,-0.1773313,0.041003283
1734275943478,2024-12-15T15:19:03.478Z,31715,0.13234378,-0.15764253,0.044424772
1734275943481,2024-12-15T15:19:03.481Z,31718,0.13234378,-0.15764253,0.044424772
1734275943492,2024-12-15T15:19:03.492Z,31729,0.14713745,-0.16855733,0.030021852
1734275943495,2024-12-15T15:19:03.495Z,31732,0.14713745,-0.16855733,0.030021852
1734275943504,2024-12-15T15:19:03.504Z,31741,0.17971861,-0.15182994,-0.012509545
1734275943508,2024-12-15T15:19:03.508Z,31745,0.17971861,-0.15182994,-0.012509545
1734275943517,2024-12-15T15:19:03.517Z,31754,0.1807001,-0.12097431,0.0072975173
1734275943520,2024-12-15T15:19:03.520Z,31757,0.1807001,-0.12097431,0.0072975173
1734275943529,2024-12-15T15:19:03.529Z,31766,0.14511554,-0.10522864,0.08417936
1734275943532,2024-12-15T15:19:03.532Z,31769,0.14511554,-0.10522864,0.08417936
1734275943541,2024-12-15T15:19:03.541Z,31778,0.13749672,-0.075367466,0.09480232
1734275943544,2024-12-15T15:19:03.544Z,31781,0.13749672,-0.075367466,0.09480232
1734275943552,2024-12-15T15:19:03.552Z,31789,0.138222,-0.03452634,0.06929801
1734275943555,2024-12-15T15:19:03.555Z,31792,0.138222,-0.03452634,0.06929801
1734275943562,2024-12-15T15:19:03.562Z,31799,0.08138097,-0.045118466,0.07668072
1734275943565,2024-12-15T15:19:03.565Z,31802,0.08138097,-0.045118466,0.07668072
1734275943572,2024-12-15T15:19:03.572Z,31809,0.10465629,-0.06907267,0.09804823
1734275943575,2024-12-15T15:19:03.575Z,31812,0.10465629,-0.06907267,0.09804823
1734275943583,2024-12-15T15:19:03.583Z,31820,0.16350333,-0.035966046,0.052255742
1734275943585,2024-12-15T15:19:03.585Z,31822,0.16350333,-0.035966046,0.052255742
1734275943594,2024-12-15T15:19:03.594Z,31831,0.15990877,-0.009941975,0.03529157
1734275943596,2024-12-15T15:19:03.596Z,31833,0.15990877,-0.009941975,0.03529157
1734275943612,2024-12-15T15:19:03.612Z,31849,0.11843789,-0.014168214,0.061822172
1734275943616,2024-12-15T15:19:03.616Z,31853,0.11843789,-0.014168214,0.061822172
1734275943627,2024-12-15T15:19:03.627Z,31864,0.11256442,0.0053717694,0.072390825
1734275943630,2024-12-15T15:19:03.630Z,31867,0.11256442,0.0053717694,0.072390825
1734275943640,2024-12-15T15:19:03.640Z,31877,0.10954007,0.027256055,0.067348786
1734275943643,2024-12-15T15:19:03.643Z,31880,0.10954007,0.027256055,0.067348786
1734275943651,2024-12-15T15:19:03.651Z,31888,0.07267779,0.009066988,0.08228636
1734275943654,2024-12-15T15:19:03.654Z,31891,0.07267779,0.009066988,0.08228636
1734275943662,2024-12-15T15:19:03.662Z,31899,0.10858835,0.019100035,0.08672555
1734275943664,2024-12-15T15:19:03.664Z,31901,0.10858835,0.019100035,0.08672555
1734275943672,2024-12-15T15:19:03.672Z,31909,0.099646576,0.026636247,0.052030127
1734275943675,2024-12-15T15:19:03.675Z,31912,0.099646576,0.026636247,0.052030127
1734275943682,2024-12-15T15:19:03.682Z,31919,0.066800915,-0.006015549,0.039728474
1734275943684,2024-12-15T15:19:03.684Z,31921,0.066800915,-0.006015549,0.039728474
1734275943693,2024-12-15T15:19:03.693Z,31930,0.089126706,-0.013896844,0.05762384
1734275943695,2024-12-15T15:19:03.695Z,31932,0.089126706,-0.013896844,0.05762384
1734275943703,2024-12-15T15:19:03.703Z,31940,0.14307156,0.040260747,0.08290681
1734275943706,2024-12-15T15:19:03.706Z,31943,0.14307156,0.040260747,0.08290681
1734275943714,2024-12-15T15:19:03.714Z,31951,0.13024352,0.08768204,0.06337078
1734275943717,2024-12-15T15:19:03.717Z,31954,0.13024352,0.08768204,0.06337078
1734275943728,2024-12-15T15:19:03.728Z,31965,0.055484585,0.07409284,0.03684491
1734275943731,2024-12-15T15:19:03.731Z,31968,0.055484585,0.07409284,0.03684491
1734275943739,2024-12-15T15:19:03.739Z,31976,0.016683381,0.046147637,0.045310784
1734275943742,2024-12-15T15:19:03.742Z,31979,0.016683381,0.046147637,0.045310784
1734275943750,2024-12-15T15:19:03.750Z,31987,0.05018269,0.056842603,0.05573382
1734275943752,2024-12-15T15:19:03.752Z,31989,0.05018269,0.056842603,0.05573382
1734275943761,2024-12-15T15:19:03.761Z,31998,0.12499088,0.089067526,0.055422127
1734275943764,2024-12-15T15:19:03.764Z,32001,0.12499088,0.089067526,0.055422127
1734275943774,2024-12-15T15:19:03.774Z,32011,0.12004204,0.097332515,-0.01744714
1734275943777,2024-12-15T15:19:03.777Z,32014,0.12004204,0.097332515,-0.01744714
1734275943785,2024-12-15T15:19:03.785Z,32022,0.031191427,0.06969175,-0.047901634
1734275943787,2024-12-15T15:19:03.787Z,32024,0.031191427,0.06969175,-0.047901634
1734275943797,2024-12-15T15:19:03.797Z,32034,-0.023275657,0.06225891,-0.028363049
1734275943800,2024-12-15T15:19:03.800Z,32037,-0.023275657,0.06225891,-0.028363049
1734275943810,2024-12-15T15:19:03.810Z,32047,-0.015161162,0.08981157,0.018878467
1734275943813,2024-12-15T15:19:03.813Z,32050,-0.015161162,0.08981157,0.018878467
1734275943822,2024-12-15T15:19:03.822Z,32059,0.049171362,0.15333363,0.011690755
1734275943825,2024-12-15T15:19:03.825Z,32062,0.049171362,0.15333363,0.011690755
1734275943833,2024-12-15T15:19:03.833Z,32070,0.029761788,0.15792723,0.03328416
1734275943836,2024-12-15T15:19:03.836Z,32073,0.029761788,0.15792723,0.03328416
1734275943846,2024-12-15T15:19:03.846Z,32083,0.0063702115,0.152229,0.018634047
1734275943849,2024-12-15T15:19:03.849Z,32086,0.0063702115,0.152229,0.018634047
1734275943859,2024-12-15T15:19:03.859Z,32096,-0.052070558,0.16478601,-0.043789368
1734275943862,2024-12-15T15:19:03.862Z,32099,-0.052070558,0.16478601,-0.043789368
1734275943869,2024-12-15T15:19:03.869Z,32106,-0.01244513,0.19081602,0.01291299
1734275943872,2024-12-15T15:19:03.872Z,32109,-0.01244513,0.19081602,0.01291299
1734275943881,2024-12-15T15:19:03.881Z,32118,0.08687928,0.2677871,0.003083968
1734275943884,2024-12-15T15:19:03.884Z,32121,0.08687928,0.2677871,0.003083968
1734275943895,2024-12-15T15:19:03.895Z,32132,0.041728023,0.27994052,-0.042656396
1734275943897,2024-12-15T15:19:03.897Z,32134,0.041728023,0.27994052,-0.042656396
1734275943907,2024-12-15T15:19:03.907Z,32144,0.039293326,0.24319184,-0.027510079
1734275943910,2024-12-15T15:19:03.910Z,32147,0.039293326,0.24319184,-0.027510079
1734275943917,2024-12-15T15:19:03.917Z,32154,0.0706184,0.25290298,0.026585246
1734275943920,2024-12-15T15:19:03.920Z,32157,0.0706184,0.25290298,0.026585246
1734275943928,2024-12-15T15:19:03.928Z,32165,0.12735876,0.303937,6.807705E-4
1734275943931,2024-12-15T15:19:03.931Z,32168,0.12735876,0.303937,6.807705E-4
1734275943941,2024-12-15T15:19:03.941Z,32178,0.04660278,0.26528835,-0.06883936
1734275943944,2024-12-15T15:19:03.944Z,32181,0.04660278,0.26528835,-0.06883936
1734275943951,2024-12-15T15:19:03.951Z,32188,0.013341755,0.20145598,0.040019833
1734275943954,2024-12-15T15:19:03.954Z,32191,0.013341755,0.20145598,0.040019833
1734275943962,2024-12-15T15:19:03.962Z,32199,0.12476753,0.30925995,-0.0032789074
1734275943964,2024-12-15T15:19:03.964Z,32201,0.12476753,0.30925995,-0.0032789074
1734275943971,2024-12-15T15:19:03.971Z,32208,0.06749232,0.3112363,-0.063009284
1734275943974,2024-12-15T15:19:03.974Z,32211,0.06749232,0.3112363,-0.063009284
1734275943984,2024-12-15T15:19:03.984Z,32221,0.047166772,0.25421977,-0.015605809
1734275943987,2024-12-15T15:19:03.987Z,32224,0.047166772,0.25421977,-0.015605809
1734275943998,2024-12-15T15:19:03.998Z,32235,0.09629566,0.2743859,0.025168331
1734275944000,2024-12-15T15:19:04Z,32237,0.09629566,0.2743859,0.025168331
1734275944010,2024-12-15T15:19:04.010Z,32247,0.15036084,0.30118328,0.022370517
1734275944012,2024-12-15T15:19:04.012Z,32249,0.15036084,0.30118328,0.022370517
1734275944020,2024-12-15T15:19:04.020Z,32257,0.12478161,0.27636138,-0.04445314
1734275944023,2024-12-15T15:19:04.023Z,32260,0.12478161,0.27636138,-0.04445314
1734275944031,2024-12-15T15:19:04.031Z,32268,0.041075297,0.19778007,-0.093637586
1734275944033,2024-12-15T15:19:04.033Z,32270,0.041075297,0.19778007,-0.093637586
1734275944043,2024-12-15T15:19:04.043Z,32280,0.019770533,0.1360216,-0.046377685
1734275944046,2024-12-15T15:19:04.046Z,32283,0.019770533,0.1360216,-0.046377685
1734275944057,2024-12-15T15:19:04.057Z,32294,0.1028361,0.17090008,-0.037366472
1734275944063,2024-12-15T15:19:04.063Z,32300,0.1028361,0.17090008,-0.037366472
1734275944073,2024-12-15T15:19:04.073Z,32310,0.060041443,0.14850305,-0.087248765
1734275944076,2024-12-15T15:19:04.076Z,32313,0.060041443,0.14850305,-0.087248765
1734275944086,2024-12-15T15:19:04.086Z,32323,0.0072775814,0.09789781,-0.032380998
1734275944090,2024-12-15T15:19:04.090Z,32327,0.0072775814,0.09789781,-0.032380998
1734275944099,2024-12-15T15:19:04.099Z,32336,0.0960884,0.14764348,-0.00692308
1734275944102,2024-12-15T15:19:04.102Z,32339,0.0960884,0.14764348,-0.00692308
1734275944111,2024-12-15T15:19:04.111Z,32348,0.046651307,0.032939453,-0.01670292
1734275944114,2024-12-15T15:19:04.114Z,32351,0.046651307,0.032939453,-0.01670292
1734275944121,2024-12-15T15:19:04.121Z,32358,0.082138486,0.035277482,-0.01908335
1734275944124,2024-12-15T15:19:04.124Z,32361,0.082138486,0.035277482,-0.01908335
1734275944132,2024-12-15T15:19:04.132Z,32369,0.09483913,0.054754257,-0.037393868
1734275944135,2024-12-15T15:19:04.135Z,32372,0.09483913,0.054754257,-0.037393868
1734275944144,2024-12-15T15:19:04.144Z,32381,-0.036035214,0.05464349,-0.08319428
1734275944147,2024-12-15T15:19:04.147Z,32384,-0.036035214,0.05464349,-0.08319428
1734275944158,2024-12-15T15:19:04.158Z,32395,-0.070565395,0.03488966,-0.036449846
1734275944160,2024-12-15T15:19:04.160Z,32397,-0.070565395,0.03488966,-0.036449846
1734275944168,2024-12-15T15:19:04.168Z,32405,0.011326976,0.043961316,-0.03182891
1734275944171,2024-12-15T15:19:04.171Z,32408,0.011326976,0.043961316,-0.03182891
1734275944180,2024-12-15T15:19:04.180Z,32417,0.12605195,0.05941845,0.02445927
1734275944182,2024-12-15T15:19:04.182Z,32419,0.12605195,0.05941845,0.02445927
1734275944191,2024-12-15T15:19:04.191Z,32428,0.15539342,0.10505389,0.02839151
1734275944194,2024-12-15T15:19:04.194Z,32431,0.15539342,0.10505389,0.02839151
1734275944202,2024-12-15T15:19:04.202Z,32439,0.07487331,0.12411775,0.022726806
1734275944204,2024-12-15T15:19:04.204Z,32441,0.07487331,0.12411775,0.022726806
1734275944213,2024-12-15T15:19:04.213Z,32450,-0.0014514708,0.13022889,0.006345182
1734275944217,2024-12-15T15:19:04.217Z,32454,-0.0014514708,0.13022889,0.006345182
1734275944226,2024-12-15T15:19:04.226Z,32463,-0.025779665,0.115615085,-0.032304943
1734275944229,2024-12-15T15:19:04.229Z,32466,-0.025779665,0.115615085,-0.032304943
1734275944240,2024-12-15T15:19:04.240Z,32477,0.027726052,0.0783447,-0.023598732
1734275944243,2024-12-15T15:19:04.243Z,32480,0.027726052,0.0783447,-0.023598732
1734275944251,2024-12-15T15:19:04.251Z,32488,0.10121825,0.07865609,0.0056649437
1734275944254,2024-12-15T15:19:04.254Z,32491,0.10121825,0.07865609,0.0056649437
1734275944263,2024-12-15T15:19:04.263Z,32500,0.12701577,0.119548075,-3.1098298E-4
1734275944265,2024-12-15T15:19:04.265Z,32502,0.12701577,0.119548075,-3.1098298E-4
1734275944273,2024-12-15T15:19:04.273Z,32510,0.08613344,0.13057071,0.019096194
1734275944277,2024-12-15T15:19:04.277Z,32514,0.08613344,0.13057071,0.019096194
1734275944285,2024-12-15T15:19:04.285Z,32522,0.05108916,0.11510084,0.0026814356
1734275944288,2024-12-15T15:19:04.288Z,32525,0.05108916,0.11510084,0.0026814356
1734275944296,2024-12-15T15:19:04.296Z,32533,0.0019018493,0.06886986,-0.045986354
1734275944299,2024-12-15T15:19:04.299Z,32536,0.0019018493,0.06886986,-0.045986354
1734275944307,2024-12-15T15:19:04.307Z,32544,0.0077106985,0.030850865,-0.029640852
1734275944310,2024-12-15T15:19:04.310Z,32547,0.0077106985,0.030850865,-0.029640852
1734275944320,2024-12-15T15:19:04.320Z,32557,0.024930522,0.012784671,-0.024147118
1734275944323,2024-12-15T15:19:04.323Z,32560,0.024930522,0.012784671,-0.024147118
1734275944332,2024-12-15T15:19:04.332Z,32569,0.0044850404,-0.004321105,-0.031581227
1734275944335,2024-12-15T15:19:04.335Z,32572,0.0044850404,-0.004321105,-0.031581227
1734275944345,2024-12-15T15:19:04.345Z,32582,-0.025034139,-0.007841667,-0.029550256
1734275944347,2024-12-15T15:19:04.347Z,32584,-0.025034139,-0.007841667,-0.029550256
1734275944355,2024-12-15T15:19:04.355Z,32592,-0.012448023,-0.0031126076,-0.023214042
1734275944358,2024-12-15T15:19:04.358Z,32595,-0.012448023,-0.0031126076,-0.023214042
1734275944366,2024-12-15T15:19:04.366Z,32603,0.0055577797,0.012332664,-0.009015082
1734275944368,2024-12-15T15:19:04.368Z,32605,0.0055577797,0.012332664,-0.009015082
1734275944377,2024-12-15T15:19:04.377Z,32614,-0.014518452,0.031185884,0.00822681
1734275944380,2024-12-15T15:19:04.380Z,32617,-0.014518452,0.031185884,0.00822681
1734275944389,2024-12-15T15:19:04.389Z,32626,-6.754097E-4,0.05730983,0.01586625
1734275944392,2024-12-15T15:19:04.392Z,32629,-6.754097E-4,0.05730983,0.01586625
1734275944401,2024-12-15T15:19:04.401Z,32638,-0.014614216,0.067818224,-9.116973E-6
1734275944404,2024-12-15T15:19:04.404Z,32641,-0.014614216,0.067818224,-9.116973E-6
1734275944414,2024-12-15T15:19:04.414Z,32651,-0.010742031,0.08171045,0.0039630206
1734275944416,2024-12-15T15:19:04.416Z,32653,-0.010742031,0.08171045,0.0039630206
1734275944425,2024-12-15T15:19:04.425Z,32662,-0.013312239,0.090183154,-0.026236564
1734275944428,2024-12-15T15:19:04.428Z,32665,-0.013312239,0.090183154,-0.026236564
1734275944437,2024-12-15T15:19:04.437Z,32674,-0.02629668,0.07223988,-0.013176117
1734275944440,2024-12-15T15:19:04.440Z,32677,-0.02629668,0.07223988,-0.013176117
1734275944451,2024-12-15T15:19:04.451Z,32688,0.008848509,0.06937652,0.006786377
1734275944454,2024-12-15T15:19:04.454Z,32691,0.008848509,0.06937652,0.006786377
1734275944462,2024-12-15T15:19:04.462Z,32699,-0.004519855,0.065095775,0.00883067
1734275944464,2024-12-15T15:19:04.464Z,32701,-0.004519855,0.065095775,0.00883067
1734275944472,2024-12-15T15:19:04.472Z,32709,-0.0062352074,0.08573008,0.017731844
1734275944475,2024-12-15T15:19:04.475Z,32712,-0.0062352074,0.08573008,0.017731844
1734275944485,2024-12-15T15:19:04.485Z,32722,0.0067788223,0.0697517,0.002999867
1734275944488,2024-12-15T15:19:04.488Z,32725,0.0067788223,0.0697517,0.002999867
1734275944498,2024-12-15T15:19:04.498Z,32735,-0.009449815,0.029849991,0.004541906
1734275944501,2024-12-15T15:19:04.501Z,32738,-0.009449815,0.029849991,0.004541906
1734275944514,2024-12-15T15:19:04.514Z,32751,-0.045210145,0.011433706,-0.014394103
1734275944516,2024-12-15T15:19:04.516Z,32753,-0.045210145,0.011433706,-0.014394103
1734275944524,2024-12-15T15:19:04.524Z,32761,-0.038544387,0.0032792902,-0.023083922
1734275944528,2024-12-15T15:19:04.528Z,32765,-0.038544387,0.0032792902,-0.023083922
1734275944538,2024-12-15T15:19:04.538Z,32775,-0.0050345873,0.0034243837,-0.021535665
1734275944540,2024-12-15T15:19:04.540Z,32777,-0.0050345873,0.0034243837,-0.021535665
1734275944548,2024-12-15T15:19:04.548Z,32785,-0.013986665,0.0065104426,-0.03690901
1734275944550,2024-12-15T15:19:04.550Z,32787,-0.013986665,0.0065104426,-0.03690901
1734275944557,2024-12-15T15:19:04.557Z,32794,-0.039425828,0.004705817,-0.044307828
1734275944560,2024-12-15T15:19:04.560Z,32797,-0.039425828,0.004705817,-0.044307828
1734275944568,2024-12-15T15:19:04.568Z,32805,-0.032832954,-0.0025126864,-0.029563215
1734275944571,2024-12-15T15:19:04.571Z,32808,-0.032832954,-0.0025126864,-0.029563215
1734275944581,2024-12-15T15:19:04.581Z,32818,-0.011531379,0.0054087234,-0.016623136
1734275944583,2024-12-15T15:19:04.583Z,32820,-0.011531379,0.0054087234,-0.016623136
1734275944591,2024-12-15T15:19:04.591Z,32828,-0.0022108052,0.028446902,-0.01954904
1734275944594,2024-12-15T15:19:04.594Z,32831,-0.0022108052,0.028446902,-0.01954904
1734275944602,2024-12-15T15:19:04.602Z,32839,-0.00479458,0.04264283,-0.013129712
1734275944604,2024-12-15T15:19:04.604Z,32841,-0.00479458,0.04264283,-0.013129712
1734275944612,2024-12-15T15:19:04.612Z,32849,-0.019856257,0.047057685,-0.036228836
1734275944615,2024-12-15T15:19:04.615Z,32852,-0.019856257,0.047057685,-0.036228836
1734275944627,2024-12-15T15:19:04.627Z,32864,-0.03366779,0.038742032,-0.026913615
1734275944630,2024-12-15T15:19:04.630Z,32867,-0.03366779,0.038742032,-0.026913615
1734275944637,2024-12-15T15:19:04.637Z,32874,-0.013560939,0.035754677,-0.02293721
1734275944640,2024-12-15T15:19:04.640Z,32877,-0.013560939,0.035754677,-0.02293721
1734275944647,2024-12-15T15:19:04.647Z,32884,-0.013636999,0.029395455,-0.0530067
1734275944649,2024-12-15T15:19:04.649Z,32886,-0.013636999,0.029395455,-0.0530067
1734275944657,2024-12-15T15:19:04.657Z,32894,-0.00738645,0.048928924,-0.02828637
1734275944660,2024-12-15T15:19:04.660Z,32897,-0.00738645,0.048928924,-0.02828637
1734275944668,2024-12-15T15:19:04.668Z,32905,0.005695823,0.03429499,-0.039088372
1734275944671,2024-12-15T15:19:04.671Z,32908,0.005695823,0.03429499,-0.039088372
1734275944679,2024-12-15T15:19:04.679Z,32916,-0.001086804,0.015816854,-0.03382021
1734275944682,2024-12-15T15:19:04.682Z,32919,-0.001086804,0.015816854,-0.03382021
1734275944691,2024-12-15T15:19:04.691Z,32928,0.0039747087,0.024223335,-0.01824096
1734275944694,2024-12-15T15:19:04.694Z,32931,0.0039747087,0.024223335,-0.01824096
1734275944702,2024-12-15T15:19:04.702Z,32939,0.0021325937,0.015553896,-0.02707442
1734275944704,2024-12-15T15:19:04.704Z,32941,0.0021325937,0.015553896,-0.02707442
1734275944713,2024-12-15T15:19:04.713Z,32950,-0.0012444912,0.011283944,-0.01890388
1734275944715,2024-12-15T15:19:04.715Z,32952,-0.0012444912,0.011283944,-0.01890388
1734275944722,2024-12-15T15:19:04.722Z,32959,0.004568175,0.0050527966,-0.010992438
1734275944725,2024-12-15T15:19:04.725Z,32962,0.004568175,0.0050527966,-0.010992438
1734275944735,2024-12-15T15:19:04.735Z,32972,0.0077955103,8.0404413E-4,-0.024063796
1734275944739,2024-12-15T15:19:04.739Z,32976,0.0077955103,8.0404413E-4,-0.024063796
1734275944748,2024-12-15T15:19:04.748Z,32985,0.015734546,0.00927928,-0.016190352
1734275944751,2024-12-15T15:19:04.751Z,32988,0.015734546,0.00927928,-0.016190352
1734275944759,2024-12-15T15:19:04.759Z,32996,0.02465852,0.010916251,-0.02100995
1734275944761,2024-12-15T15:19:04.761Z,32998,0.02465852,0.010916251,-0.02100995
1734275944768,2024-12-15T15:19:04.768Z,33005,0.012168655,0.0047462718,-0.0324575
1734275944771,2024-12-15T15:19:04.771Z,33008,0.012168655,0.0047462718,-0.0324575
1734275944780,2024-12-15T15:19:04.780Z,33017,0.01722798,0.010777964,-0.020086886
1734275944783,2024-12-15T15:19:04.783Z,33020,0.01722798,0.010777964,-0.020086886
1734275944791,2024-12-15T15:19:04.791Z,33028,0.029540172,0.012910996,-0.021444792
1734275944794,2024-12-15T15:19:04.794Z,33031,0.029540172,0.012910996,-0.021444792
1734275944801,2024-12-15T15:19:04.801Z,33038,0.016557578,0.013094794,-0.02793175
1734275944803,2024-12-15T15:19:04.803Z,33040,0.016557578,0.013094794,-0.02793175
1734275944811,2024-12-15T15:19:04.811Z,33048,0.0067669093,0.01225506,-0.017285848
1734275944813,2024-12-15T15:19:04.813Z,33050,0.0067669093,0.01225506,-0.017285848
1734275944820,2024-12-15T15:19:04.820Z,33057,0.014802051,0.015755784,0.004038722
1734275944822,2024-12-15T15:19:04.822Z,33059,0.014802051,0.015755784,0.004038722
1734275944829,2024-12-15T15:19:04.829Z,33066,0.01131375,0.023622734,0.006906387
1734275944832,2024-12-15T15:19:04.832Z,33069,0.01131375,0.023622734,0.006906387
1734275944839,2024-12-15T15:19:04.839Z,33076,0.0031341237,0.03879435,0.008499049
1734275944841,2024-12-15T15:19:04.841Z,33078,0.0031341237,0.03879435,0.008499049
1734275944850,2024-12-15T15:19:04.850Z,33087,0.0028580981,0.046080053,0.010987163
1734275944852,2024-12-15T15:19:04.852Z,33089,0.0028580981,0.046080053,0.010987163
1734275944862,2024-12-15T15:19:04.862Z,33099,0.005246052,0.059133418,0.016440686
1734275944866,2024-12-15T15:19:04.866Z,33103,0.005246052,0.059133418,0.016440686
1734275944875,2024-12-15T15:19:04.875Z,33112,0.0065026022,0.082342364,0.015805544
1734275944878,2024-12-15T15:19:04.878Z,33115,0.0065026022,0.082342364,0.015805544
1734275944887,2024-12-15T15:19:04.887Z,33124,-0.020417402,0.10979374,0.0102625815
1734275944889,2024-12-15T15:19:04.889Z,33126,-0.020417402,0.10979374,0.0102625815
1734275944898,2024-12-15T15:19:04.898Z,33135,-0.031298142,0.12969743,0.023308333
1734275944901,2024-12-15T15:19:04.901Z,33138,-0.031298142,0.12969743,0.023308333
1734275944911,2024-12-15T15:19:04.911Z,33148,-0.010505938,0.14445944,0.016866742
1734275944917,2024-12-15T15:19:04.917Z,33154,-0.010505938,0.14445944,0.016866742
1734275944927,2024-12-15T15:19:04.927Z,33164,-0.03359206,0.15507753,-0.0024168184
1734275944929,2024-12-15T15:19:04.929Z,33166,-0.03359206,0.15507753,-0.0024168184
1734275944936,2024-12-15T15:19:04.936Z,33173,-0.04656877,0.1600852,0.026817292
1734275944938,2024-12-15T15:19:04.938Z,33175,-0.04656877,0.1600852,0.026817292
1734275944946,2024-12-15T15:19:04.946Z,33183,-0.0258376,0.1766194,0.02262589
1734275944949,2024-12-15T15:19:04.949Z,33186,-0.0258376,0.1766194,0.02262589
1734275944957,2024-12-15T15:19:04.957Z,33194,-0.011712806,0.19788252,-0.011525896
1734275944959,2024-12-15T15:19:04.959Z,33196,-0.011712806,0.19788252,-0.011525896
1734275944968,2024-12-15T15:19:04.968Z,33205,-0.0052663526,0.21593058,-0.007841947
1734275944970,2024-12-15T15:19:04.970Z,33207,-0.0052663526,0.21593058,-0.007841947
1734275944978,2024-12-15T15:19:04.978Z,33215,-0.021545473,0.22533132,-0.010648488
1734275944980,2024-12-15T15:19:04.980Z,33217,-0.021545473,0.22533132,-0.010648488
1734275944987,2024-12-15T15:19:04.987Z,33224,-0.041131504,0.21483469,-0.006317168
1734275944990,2024-12-15T15:19:04.990Z,33227,-0.041131504,0.21483469,-0.006317168
1734275944999,2024-12-15T15:19:04.999Z,33236,-0.030544778,0.2200955,-0.003942489
1734275945001,2024-12-15T15:19:05.001Z,33238,-0.030544778,0.2200955,-0.003942489
1734275945010,2024-12-15T15:19:05.010Z,33247,-0.02189136,0.21482691,0.0050182934
1734275945013,2024-12-15T15:19:05.013Z,33250,-0.02189136,0.21482691,0.0050182934
1734275945019,2024-12-15T15:19:05.019Z,33256,0.0048504244,0.23027004,0.05549392
1734275945022,2024-12-15T15:19:05.022Z,33259,0.0048504244,0.23027004,0.05549392
1734275945033,2024-12-15T15:19:05.033Z,33270,0.0021382342,0.27233702,0.016206352
1734275945036,2024-12-15T15:19:05.036Z,33273,0.0021382342,0.27233702,0.016206352
1734275945044,2024-12-15T15:19:05.044Z,33281,-0.0321967,0.26280558,0.018584909
1734275945047,2024-12-15T15:19:05.047Z,33284,-0.0321967,0.26280558,0.018584909
1734275945054,2024-12-15T15:19:05.054Z,33291,0.006836417,0.29962778,0.096798986
1734275945057,2024-12-15T15:19:05.057Z,33294,0.006836417,0.29962778,0.096798986
1734275945065,2024-12-15T15:19:05.065Z,33302,0.03371887,0.3643815,0.051214274
1734275945067,2024-12-15T15:19:05.067Z,33304,0.03371887,0.3643815,0.051214274
1734275945074,2024-12-15T15:19:05.074Z,33311,-0.031027079,0.32759312,-0.007345673
1734275945076,2024-12-15T15:19:05.076Z,33313,-0.031027079,0.32759312,-0.007345673
1734275945084,2024-12-15T15:19:05.084Z,33321,-0.012686377,0.30760005,0.011538508
1734275945086,2024-12-15T15:19:05.086Z,33323,-0.012686377,0.30760005,0.011538508
1734275945095,2024-12-15T15:19:05.095Z,33332,0.04794757,0.30811694,0.013356086
1734275945098,2024-12-15T15:19:05.098Z,33335,0.04794757,0.30811694,0.013356086
1734275945108,2024-12-15T15:19:05.108Z,33345,0.11993169,0.29983124,0.08135801
1734275945112,2024-12-15T15:19:05.112Z,33349,0.11993169,0.29983124,0.08135801
1734275945119,2024-12-15T15:19:05.119Z,33356,0.18885545,0.35028204,0.09690153
1734275945121,2024-12-15T15:19:05.121Z,33358,0.18885545,0.35028204,0.09690153
1734275945130,2024-12-15T15:19:05.130Z,33367,0.1236819,0.36803097,0.052904513
1734275945133,2024-12-15T15:19:05.133Z,33370,0.1236819,0.36803097,0.052904513
1734275945140,2024-12-15T15:19:05.140Z,33377,-0.0061751325,0.31746307,0.053228166
1734275945143,2024-12-15T15:19:05.143Z,33380,-0.0061751325,0.31746307,0.053228166
1734275945153,2024-12-15T15:19:05.153Z,33390,-0.004639494,0.26317352,0.09123903
1734275945156,2024-12-15T15:19:05.156Z,33393,-0.004639494,0.26317352,0.09123903
1734275945164,2024-12-15T15:19:05.164Z,33401,0.080454834,0.19176652,0.068896234
1734275945166,2024-12-15T15:19:05.166Z,33403,0.080454834,0.19176652,0.068896234
1734275945174,2024-12-15T15:19:05.174Z,33411,0.160115,0.1443652,0.10969449
1734275945177,2024-12-15T15:19:05.177Z,33414,0.160115,0.1443652,0.10969449
1734275945184,2024-12-15T15:19:05.184Z,33421,0.22254445,0.16427459,0.095621884
1734275945186,2024-12-15T15:19:05.186Z,33423,0.22254445,0.16427459,0.095621884
1734275945195,2024-12-15T15:19:05.195Z,33432,0.14242193,0.13373145,-0.028705593
1734275945198,2024-12-15T15:19:05.198Z,33435,0.14242193,0.13373145,-0.028705593
1734275945205,2024-12-15T15:19:05.205Z,33442,0.00406724,0.040073983,0.008775999
1734275945208,2024-12-15T15:19:05.208Z,33445,0.00406724,0.040073983,0.008775999
1734275945216,2024-12-15T15:19:05.216Z,33453,0.09705959,0.024683658,0.03831497
1734275945218,2024-12-15T15:19:05.218Z,33455,0.09705959,0.024683658,0.03831497
1734275945226,2024-12-15T15:19:05.226Z,33463,0.14830953,-0.0018058901,-0.081037104
1734275945229,2024-12-15T15:19:05.229Z,33466,0.14830953,-0.0018058901,-0.081037104
1734275945235,2024-12-15T15:19:05.235Z,33472,0.05778284,-0.06063317,-0.06389989
1734275945238,2024-12-15T15:19:05.238Z,33475,0.05778284,-0.06063317,-0.06389989
1734275945246,2024-12-15T15:19:05.246Z,33483,0.11708795,-0.042030025,-0.044293854
1734275945248,2024-12-15T15:19:05.248Z,33485,0.11708795,-0.042030025,-0.044293854
1734275945255,2024-12-15T15:19:05.255Z,33492,0.12748082,-0.067142986,-0.106368065
1734275945258,2024-12-15T15:19:05.258Z,33495,0.12748082,-0.067142986,-0.106368065
1734275945267,2024-12-15T15:19:05.267Z,33504,0.14835735,-0.08860201,-0.01872517
1734275945270,2024-12-15T15:19:05.270Z,33507,0.14835735,-0.08860201,-0.01872517
1734275945279,2024-12-15T15:19:05.279Z,33516,0.21117961,-0.03478191,0.048826788
1734275945283,2024-12-15T15:19:05.283Z,33520,0.21117961,-0.03478191,0.048826788
1734275945293,2024-12-15T15:19:05.293Z,33530,0.10350726,-0.035733964,0.02075169
1734275945295,2024-12-15T15:19:05.295Z,33532,0.10350726,-0.035733964,0.02075169
1734275945304,2024-12-15T15:19:05.304Z,33541,0.029910479,-0.046304062,0.041321136
1734275945308,2024-12-15T15:19:05.308Z,33545,0.029910479,-0.046304062,0.041321136
1734275945320,2024-12-15T15:19:05.320Z,33557,0.05275562,-0.023075083,0.013183143
1734275945324,2024-12-15T15:19:05.324Z,33561,0.05275562,-0.023075083,0.013183143
1734275945332,2024-12-15T15:19:05.332Z,33569,0.09523722,-0.035701435,0.053323768
1734275945334,2024-12-15T15:19:05.334Z,33571,0.09523722,-0.035701435,0.053323768
1734275945341,2024-12-15T15:19:05.341Z,33578,0.17636588,-0.016880112,0.018939089
1734275945344,2024-12-15T15:19:05.344Z,33581,0.17636588,-0.016880112,0.018939089
1734275945350,2024-12-15T15:19:05.350Z,33587,0.112557374,-0.02584504,-0.032767203
1734275945352,2024-12-15T15:19:05.352Z,33589,0.112557374,-0.02584504,-0.032767203
1734275945359,2024-12-15T15:19:05.359Z,33596,0.11493702,-0.043992434,0.04130716
1734275945362,2024-12-15T15:19:05.362Z,33599,0.11493702,-0.043992434,0.04130716
1734275945371,2024-12-15T15:19:05.371Z,33608,0.19098192,-0.03927271,-0.016980326
1734275945374,2024-12-15T15:19:05.374Z,33611,0.19098192,-0.03927271,-0.016980326
1734275945384,2024-12-15T15:19:05.384Z,33621,0.1258327,-0.0806399,-0.02294183
1734275945386,2024-12-15T15:19:05.386Z,33623,0.1258327,-0.0806399,-0.02294183
1734275945395,2024-12-15T15:19:05.395Z,33632,0.1305284,-0.09510574,0.0076216436
1734275945397,2024-12-15T15:19:05.397Z,33634,0.1305284,-0.09510574,0.0076216436
1734275945405,2024-12-15T15:19:05.405Z,33642,0.05810011,-0.083663136,-0.0717384
1734275945408,2024-12-15T15:19:05.408Z,33645,0.05810011,-0.083663136,-0.0717384
1734275945418,2024-12-15T15:19:05.418Z,33655,-0.055636294,-0.11922487,-0.007524299
1734275945420,2024-12-15T15:19:05.420Z,33657,-0.055636294,-0.11922487,-0.007524299
1734275945429,2024-12-15T15:19:05.429Z,33666,0.007921653,-0.11032024,-0.0018013438
1734275945432,2024-12-15T15:19:05.432Z,33669,0.007921653,-0.11032024,-0.0018013438
1734275945440,2024-12-15T15:19:05.440Z,33677,0.028159097,-0.08957939,-0.033481125
1734275945443,2024-12-15T15:19:05.443Z,33680,0.028159097,-0.08957939,-0.033481125
1734275945449,2024-12-15T15:19:05.449Z,33686,0.008481217,-0.10458972,-0.02834433
1734275945451,2024-12-15T15:19:05.451Z,33688,0.008481217,-0.10458972,-0.02834433
1734275945459,2024-12-15T15:19:05.459Z,33696,-0.043067656,-0.1371428,-0.04080011
1734275945461,2024-12-15T15:19:05.461Z,33698,-0.043067656,-0.1371428,-0.04080011
1734275945470,2024-12-15T15:19:05.470Z,33707,-0.061928704,-0.15356416,-0.02265772
1734275945473,2024-12-15T15:19:05.473Z,33710,-0.061928704,-0.15356416,-0.02265772
1734275945483,2024-12-15T15:19:05.483Z,33720,-0.005288331,-0.1383532,-0.0300078
1734275945487,2024-12-15T15:19:05.487Z,33724,-0.005288331,-0.1383532,-0.0300078
1734275945496,2024-12-15T15:19:05.496Z,33733,0.011625235,-0.12224179,-0.0824516
1734275945499,2024-12-15T15:19:05.499Z,33736,0.011625235,-0.12224179,-0.0824516
1734275945507,2024-12-15T15:19:05.507Z,33744,-0.03803572,-0.15138872,-0.088577375
1734275945510,2024-12-15T15:19:05.510Z,33747,-0.03803572,-0.15138872,-0.088577375
1734275945520,2024-12-15T15:19:05.520Z,33757,-0.020940058,-0.16787285,-0.05042199
1734275945539,2024-12-15T15:19:05.539Z,33776,-0.020940058,-0.16787285,-0.05042199
1734275945550,2024-12-15T15:19:05.550Z,33787,-0.006779819,-0.14435902,-0.064930625
1734275945553,2024-12-15T15:19:05.553Z,33790,-0.006779819,-0.14435902,-0.064930625
1734275945562,2024-12-15T15:19:05.562Z,33799,-0.02401858,-0.1344211,-0.06370977
1734275945564,2024-12-15T15:19:05.564Z,33801,-0.02401858,-0.1344211,-0.06370977
1734275945572,2024-12-15T15:19:05.572Z,33809,-0.019693684,-0.13144992,-0.06139929
1734275945574,2024-12-15T15:19:05.574Z,33811,-0.019693684,-0.13144992,-0.06139929
1734275945583,2024-12-15T15:19:05.583Z,33820,-0.0068296585,-0.11945909,-0.043421857
1734275945586,2024-12-15T15:19:05.586Z,33823,-0.0068296585,-0.11945909,-0.043421857
1734275945593,2024-12-15T15:19:05.593Z,33830,-0.01729429,-0.112462655,-0.023485055
1734275945595,2024-12-15T15:19:05.595Z,33832,-0.01729429,-0.112462655,-0.023485055
1734275945603,2024-12-15T15:19:05.603Z,33840,-0.052560154,-0.11973338,-0.05675695
1734275945606,2024-12-15T15:19:05.606Z,33843,-0.052560154,-0.11973338,-0.05675695
1734275945613,2024-12-15T15:19:05.613Z,33850,-0.031885825,-0.12437346,-0.039195787
1734275945615,2024-12-15T15:19:05.615Z,33852,-0.031885825,-0.12437346,-0.039195787
1734275945622,2024-12-15T15:19:05.622Z,33859,0.0019321176,-0.10748688,-0.028971432
1734275945625,2024-12-15T15:19:05.625Z,33862,0.0019321176,-0.10748688,-0.028971432
1734275945632,2024-12-15T15:19:05.632Z,33869,-0.043482225,-0.120176196,-0.037030883
1734275945635,2024-12-15T15:19:05.635Z,33872,-0.043482225,-0.120176196,-0.037030883
1734275945643,2024-12-15T15:19:05.643Z,33880,-0.026507733,-0.12949228,-0.018381642
1734275945645,2024-12-15T15:19:05.645Z,33882,-0.026507733,-0.12949228,-0.018381642
1734275945652,2024-12-15T15:19:05.652Z,33889,0.013011598,-0.09357399,-0.014651122
1734275945655,2024-12-15T15:19:05.655Z,33892,0.013011598,-0.09357399,-0.014651122
1734275945662,2024-12-15T15:19:05.662Z,33899,-0.02410907,-0.065008394,-0.027061438
1734275945665,2024-12-15T15:19:05.665Z,33902,-0.02410907,-0.065008394,-0.027061438
1734275945673,2024-12-15T15:19:05.673Z,33910,-0.055252213,-0.07483819,-0.030300904
1734275945676,2024-12-15T15:19:05.676Z,33913,-0.055252213,-0.07483819,-0.030300904
1734275945683,2024-12-15T15:19:05.683Z,33920,-0.08135058,-0.08193504,-0.0403809
1734275945685,2024-12-15T15:19:05.685Z,33922,-0.08135058,-0.08193504,-0.0403809
1734275945692,2024-12-15T15:19:05.692Z,33929,-0.07909891,-0.08851963,-0.009163701
1734275945694,2024-12-15T15:19:05.694Z,33931,-0.07909891,-0.08851963,-0.009163701
1734275945704,2024-12-15T15:19:05.704Z,33941,-0.039363395,-0.08714713,-0.011809763
1734275945707,2024-12-15T15:19:05.707Z,33944,-0.039363395,-0.08714713,-0.011809763
1734275945715,2024-12-15T15:19:05.715Z,33952,-0.050449926,-0.098590076,-0.031302582
1734275945718,2024-12-15T15:19:05.718Z,33955,-0.050449926,-0.098590076,-0.031302582
1734275945727,2024-12-15T15:19:05.727Z,33964,-0.063273445,-0.12273338,-0.009806824
1734275945734,2024-12-15T15:19:05.734Z,33971,-0.063273445,-0.12273338,-0.009806824
1734275945744,2024-12-15T15:19:05.744Z,33981,-0.052155845,-0.11622176,-0.012253334
1734275945747,2024-12-15T15:19:05.747Z,33984,-0.052155845,-0.11622176,-0.012253334
1734275945756,2024-12-15T15:19:05.756Z,33993,-0.1291736,-0.11226796,-0.044572055
1734275945758,2024-12-15T15:19:05.758Z,33995,-0.1291736,-0.11226796,-0.044572055
1734275945766,2024-12-15T15:19:05.766Z,34003,-0.14156316,-0.14069581,-0.013762278
1734275945768,2024-12-15T15:19:05.768Z,34005,-0.14156316,-0.14069581,-0.013762278
1734275945775,2024-12-15T15:19:05.775Z,34012,-0.07174966,-0.14264894,-0.031231347
1734275945778,2024-12-15T15:19:05.778Z,34015,-0.07174966,-0.14264894,-0.031231347
1734275945786,2024-12-15T15:19:05.786Z,34023,-0.062439453,-0.13806643,-0.031487085
1734275945788,2024-12-15T15:19:05.788Z,34025,-0.062439453,-0.13806643,-0.031487085
1734275945796,2024-12-15T15:19:05.796Z,34033,-0.08582237,-0.16055636,-0.016036635
1734275945799,2024-12-15T15:19:05.799Z,34036,-0.08582237,-0.16055636,-0.016036635
1734275945806,2024-12-15T15:19:05.806Z,34043,-0.08747685,-0.1733,-0.017331634
1734275945808,2024-12-15T15:19:05.808Z,34045,-0.08747685,-0.1733,-0.017331634
1734275945817,2024-12-15T15:19:05.817Z,34054,-0.0983417,-0.16078553,-0.016737742
1734275945819,2024-12-15T15:19:05.819Z,34056,-0.0983417,-0.16078553,-0.016737742
1734275945827,2024-12-15T15:19:05.827Z,34064,-0.10929529,-0.15159835,-0.01893148
1734275945829,2024-12-15T15:19:05.829Z,34066,-0.10929529,-0.15159835,-0.01893148
1734275945836,2024-12-15T15:19:05.836Z,34073,-0.08312287,-0.13600628,-0.0514304
1734275945838,2024-12-15T15:19:05.838Z,34075,-0.08312287,-0.13600628,-0.0514304
1734275945849,2024-12-15T15:19:05.849Z,34086,-0.0674515,-0.12096551,-0.050450146
1734275945852,2024-12-15T15:19:05.852Z,34089,-0.0674515,-0.12096551,-0.050450146
1734275945859,2024-12-15T15:19:05.859Z,34096,-0.058090094,-0.12354559,-0.03804136
1734275945862,2024-12-15T15:19:05.862Z,34099,-0.058090094,-0.12354559,-0.03804136
1734275945869,2024-12-15T15:19:05.869Z,34106,-0.04196774,-0.12229537,-0.05680475
1734275945872,2024-12-15T15:19:05.872Z,34109,-0.04196774,-0.12229537,-0.05680475
1734275945880,2024-12-15T15:19:05.880Z,34117,-0.028768452,-0.107494704,-0.03646789
1734275945882,2024-12-15T15:19:05.882Z,34119,-0.028768452,-0.107494704,-0.03646789
1734275945890,2024-12-15T15:19:05.890Z,34127,-0.0073742457,-0.08687202,-0.02439787
1734275945893,2024-12-15T15:19:05.893Z,34130,-0.0073742457,-0.08687202,-0.02439787
1734275945900,2024-12-15T15:19:05.900Z,34137,4.8356425E-4,-0.06713583,-0.01848295
1734275945903,2024-12-15T15:19:05.903Z,34140,4.8356425E-4,-0.06713583,-0.01848295
1734275945912,2024-12-15T15:19:05.912Z,34149,-0.011135398,-0.048737347,-0.013801882
1734275945917,2024-12-15T15:19:05.917Z,34154,-0.011135398,-0.048737347,-0.013801882
1734275945924,2024-12-15T15:19:05.924Z,34161,-0.017715422,-0.03467518,-0.03333941
1734275945927,2024-12-15T15:19:05.927Z,34164,-0.017715422,-0.03467518,-0.03333941
1734275945935,2024-12-15T15:19:05.935Z,34172,-0.011763278,-0.022624146,-0.01851329
1734275945938,2024-12-15T15:19:05.938Z,34175,-0.011763278,-0.022624146,-0.01851329
1734275945947,2024-12-15T15:19:05.947Z,34184,0.022406409,-0.008707463,-0.006960797
1734275945949,2024-12-15T15:19:05.949Z,34186,0.022406409,-0.008707463,-0.006960797
1734275945956,2024-12-15T15:19:05.956Z,34193,0.058347266,0.005631129,0.005340747
1734275945959,2024-12-15T15:19:05.959Z,34196,0.058347266,0.005631129,0.005340747
1734275945967,2024-12-15T15:19:05.967Z,34204,0.050263744,0.009417079,0.004647128
1734275945969,2024-12-15T15:19:05.969Z,34206,0.050263744,0.009417079,0.004647128
1734275945976,2024-12-15T15:19:05.976Z,34213,0.025939174,0.009005333,0.011969431
1734275945978,2024-12-15T15:19:05.978Z,34215,0.025939174,0.009005333,0.011969431
1734275945986,2024-12-15T15:19:05.986Z,34223,0.03162389,0.01740491,0.042709447
1734275945989,2024-12-15T15:19:05.989Z,34226,0.03162389,0.01740491,0.042709447
1734275945996,2024-12-15T15:19:05.996Z,34233,0.046149,0.030591214,0.039433476
1734275945999,2024-12-15T15:19:05.999Z,34236,0.046149,0.030591214,0.039433476
1734275946006,2024-12-15T15:19:06.006Z,34243,0.03586199,0.033898804,0.046067227
1734275946009,2024-12-15T15:19:06.009Z,34246,0.03586199,0.033898804,0.046067227
1734275946016,2024-12-15T15:19:06.016Z,34253,0.026564429,0.019999964,0.07649324
1734275946018,2024-12-15T15:19:06.018Z,34255,0.026564429,0.019999964,0.07649324
1734275946026,2024-12-15T15:19:06.026Z,34263,0.056952734,0.009839329,0.08670624
1734275946028,2024-12-15T15:19:06.028Z,34265,0.056952734,0.009839329,0.08670624
1734275946036,2024-12-15T15:19:06.036Z,34273,0.058905784,-1.0716698E-4,0.06443906
1734275946039,2024-12-15T15:19:06.039Z,34276,0.058905784,-1.0716698E-4,0.06443906
1734275946048,2024-12-15T15:19:06.048Z,34285,0.041571964,-0.021508472,0.050352447
1734275946050,2024-12-15T15:19:06.050Z,34287,0.041571964,-0.021508472,0.050352447
1734275946056,2024-12-15T15:19:06.056Z,34293,0.037045278,-0.046463206,0.047797885
1734275946059,2024-12-15T15:19:06.059Z,34296,0.037045278,-0.046463206,0.047797885
1734275946066,2024-12-15T15:19:06.066Z,34303,0.033746246,-0.057452295,0.037699923
1734275946068,2024-12-15T15:19:06.068Z,34305,0.033746246,-0.057452295,0.037699923
1734275946074,2024-12-15T15:19:06.074Z,34311,0.047337174,-0.06721169,0.031931724
1734275946077,2024-12-15T15:19:06.077Z,34314,0.047337174,-0.06721169,0.031931724
1734275946084,2024-12-15T15:19:06.084Z,34321,0.0635217,-0.07567574,0.031508066
1734275946086,2024-12-15T15:19:06.086Z,34323,0.0635217,-0.07567574,0.031508066
1734275946097,2024-12-15T15:19:06.097Z,34334,0.06895906,-0.0818147,0.035097465
1734275946100,2024-12-15T15:19:06.100Z,34337,0.06895906,-0.0818147,0.035097465
1734275946110,2024-12-15T15:19:06.110Z,34347,0.050425127,-0.08805722,0.031513367
1734275946112,2024-12-15T15:19:06.112Z,34349,0.050425127,-0.08805722,0.031513367
1734275946122,2024-12-15T15:19:06.122Z,34359,0.027135905,-0.09008639,0.034456663
1734275946130,2024-12-15T15:19:06.130Z,34367,0.027135905,-0.09008639,0.034456663
1734275946139,2024-12-15T15:19:06.139Z,34376,0.027290456,-0.08511869,0.023895416
1734275946142,2024-12-15T15:19:06.142Z,34379,0.027290456,-0.08511869,0.023895416
1734275946150,2024-12-15T15:19:06.150Z,34387,0.021202896,-0.09174612,0.0106486855
1734275946152,2024-12-15T15:19:06.152Z,34389,0.021202896,-0.09174612,0.0106486855
1734275946160,2024-12-15T15:19:06.160Z,34397,0.033688966,-0.10553974,0.013881443
1734275946162,2024-12-15T15:19:06.162Z,34399,0.033688966,-0.10553974,0.013881443
1734275946168,2024-12-15T15:19:06.168Z,34405,0.04452815,-0.10292961,-0.0022774686
1734275946170,2024-12-15T15:19:06.170Z,34407,0.04452815,-0.10292961,-0.0022774686
1734275946177,2024-12-15T15:19:06.177Z,34414,0.023845991,-0.104372084,-0.02128175
1734275946179,2024-12-15T15:19:06.179Z,34416,0.023845991,-0.104372084,-0.02128175
1734275946186,2024-12-15T15:19:06.186Z,34423,0.012780003,-0.10405729,-0.009385401
1734275946188,2024-12-15T15:19:06.188Z,34425,0.012780003,-0.10405729,-0.009385401
1734275946195,2024-12-15T15:19:06.195Z,34432,0.011115584,-0.11040183,0.0013091852
1734275946198,2024-12-15T15:19:06.198Z,34435,0.011115584,-0.11040183,0.0013091852
1734275946206,2024-12-15T15:19:06.206Z,34443,0.018523332,-0.12200105,-0.010595795
1734275946208,2024-12-15T15:19:06.208Z,34445,0.018523332,-0.12200105,-0.010595795
1734275946216,2024-12-15T15:19:06.216Z,34453,0.002663858,-0.148577,-0.022559684
1734275946218,2024-12-15T15:19:06.218Z,34455,0.002663858,-0.148577,-0.022559684
1734275946225,2024-12-15T15:19:06.225Z,34462,-0.015109061,-0.17397207,-0.037897825
1734275946227,2024-12-15T15:19:06.227Z,34464,-0.015109061,-0.17397207,-0.037897825
1734275946235,2024-12-15T15:19:06.235Z,34472,-0.029418528,-0.18547094,-0.056722514
1734275946238,2024-12-15T15:19:06.238Z,34475,-0.029418528,-0.18547094,-0.056722514
1734275946248,2024-12-15T15:19:06.248Z,34485,-0.04163296,-0.20509912,-0.071065746
1734275946250,2024-12-15T15:19:06.250Z,34487,-0.04163296,-0.20509912,-0.071065746
1734275946258,2024-12-15T15:19:06.258Z,34495,-0.033478037,-0.2412671,-0.079691865
1734275946261,2024-12-15T15:19:06.261Z,34498,-0.033478037,-0.2412671,-0.079691865
1734275946267,2024-12-15T15:19:06.267Z,34504,-0.022085954,-0.28127685,-0.093753606
1734275946269,2024-12-15T15:19:06.269Z,34506,-0.022085954,-0.28127685,-0.093753606
1734275946276,2024-12-15T15:19:06.276Z,34513,-0.050206833,-0.31919423,-0.12580787
1734275946278,2024-12-15T15:19:06.278Z,34515,-0.050206833,-0.31919423,-0.12580787
1734275946286,2024-12-15T15:19:06.286Z,34523,-0.10499308,-0.35394007,-0.13329595
1734275946288,2024-12-15T15:19:06.288Z,34525,-0.10499308,-0.35394007,-0.13329595
1734275946296,2024-12-15T15:19:06.296Z,34533,-0.18446043,-0.36988315,-0.14817105
1734275946299,2024-12-15T15:19:06.299Z,34536,-0.18446043,-0.36988315,-0.14817105
1734275946306,2024-12-15T15:19:06.306Z,34543,-0.2240429,-0.3826655,-0.14579944
1734275946309,2024-12-15T15:19:06.309Z,34546,-0.2240429,-0.3826655,-0.14579944
1734275946319,2024-12-15T15:19:06.319Z,34556,-0.24243066,-0.38944694,-0.14656468
1734275946322,2024-12-15T15:19:06.322Z,34559,-0.24243066,-0.38944694,-0.14656468
1734275946330,2024-12-15T15:19:06.330Z,34567,-0.26304305,-0.41657984,-0.13749091
1734275946332,2024-12-15T15:19:06.332Z,34569,-0.26304305,-0.41657984,-0.13749091
1734275946339,2024-12-15T15:19:06.339Z,34576,-0.20521872,-0.4279906,-0.13707265
1734275946341,2024-12-15T15:19:06.341Z,34578,-0.20521872,-0.4279906,-0.13707265
1734275946349,2024-12-15T15:19:06.349Z,34586,-0.15386322,-0.42741975,-0.13119888
1734275946352,2024-12-15T15:19:06.352Z,34589,-0.15386322,-0.42741975,-0.13119888
1734275946360,2024-12-15T15:19:06.360Z,34597,-0.12143852,-0.4167509,-0.12754926
1734275946362,2024-12-15T15:19:06.362Z,34599,-0.12143852,-0.4167509,-0.12754926
1734275946369,2024-12-15T15:19:06.369Z,34606,-0.09744481,-0.39364243,-0.1076172
1734275946371,2024-12-15T15:19:06.371Z,34608,-0.09744481,-0.39364243,-0.1076172
1734275946381,2024-12-15T15:19:06.381Z,34618,-0.10336778,-0.38005176,-0.078859255
1734275946383,2024-12-15T15:19:06.383Z,34620,-0.10336778,-0.38005176,-0.078859255
1734275946389,2024-12-15T15:19:06.389Z,34626,-0.07874259,-0.36370996,-0.04779025
1734275946392,2024-12-15T15:19:06.392Z,34629,-0.07874259,-0.36370996,-0.04779025
1734275946400,2024-12-15T15:19:06.400Z,34637,-0.043491926,-0.33233085,-0.04622809
1734275946402,2024-12-15T15:19:06.402Z,34639,-0.043491926,-0.33233085,-0.04622809
1734275946409,2024-12-15T15:19:06.409Z,34646,-0.019947037,-0.31230715,-0.028886413
1734275946411,2024-12-15T15:19:06.411Z,34648,-0.019947037,-0.31230715,-0.028886413
1734275946419,2024-12-15T15:19:06.419Z,34656,0.030887114,-0.301705,-0.012638945
1734275946422,2024-12-15T15:19:06.422Z,34659,0.030887114,-0.301705,-0.012638945
1734275946429,2024-12-15T15:19:06.429Z,34666,0.0886834,-0.28233084,1.2481744E-4
1734275946432,2024-12-15T15:19:06.432Z,34669,0.0886834,-0.28233084,1.2481744E-4
1734275946438,2024-12-15T15:19:06.438Z,34675,0.11597354,-0.27012712,0.017721973
1734275946440,2024-12-15T15:19:06.440Z,34677,0.11597354,-0.27012712,0.017721973
1734275946449,2024-12-15T15:19:06.449Z,34686,0.10989069,-0.25682518,0.024096342
1734275946452,2024-12-15T15:19:06.452Z,34689,0.10989069,-0.25682518,0.024096342
1734275946463,2024-12-15T15:19:06.463Z,34700,0.09950695,-0.23764725,0.02162591
1734275946465,2024-12-15T15:19:06.465Z,34702,0.09950695,-0.23764725,0.02162591
1734275946477,2024-12-15T15:19:06.477Z,34714,0.13135205,-0.20924188,0.0049219984
1734275946480,2024-12-15T15:19:06.480Z,34717,0.13135205,-0.20924188,0.0049219984
1734275946493,2024-12-15T15:19:06.493Z,34730,0.18273404,-0.18761097,0.027226673
1734275946497,2024-12-15T15:19:06.497Z,34734,0.18273404,-0.18761097,0.027226673
1734275946505,2024-12-15T15:19:06.505Z,34742,0.19330435,-0.17214061,0.02907883
1734275946507,2024-12-15T15:19:06.507Z,34744,0.19330435,-0.17214061,0.02907883
1734275946516,2024-12-15T15:19:06.516Z,34753,0.18640397,-0.16479772,0.050325364
1734275946518,2024-12-15T15:19:06.518Z,34755,0.18640397,-0.16479772,0.050325364
1734275946524,2024-12-15T15:19:06.524Z,34761,0.2115779,-0.13737679,0.071434915
1734275946526,2024-12-15T15:19:06.526Z,34763,0.2115779,-0.13737679,0.071434915
1734275946533,2024-12-15T15:19:06.533Z,34770,0.21222647,-0.12064717,0.085042395
1734275946535,2024-12-15T15:19:06.535Z,34772,0.21222647,-0.12064717,0.085042395
1734275946542,2024-12-15T15:19:06.542Z,34779,0.2175251,-0.12045209,0.07817393
1734275946544,2024-12-15T15:19:06.544Z,34781,0.2175251,-0.12045209,0.07817393
1734275946551,2024-12-15T15:19:06.551Z,34788,0.20498016,-0.11575142,0.072728634
1734275946554,2024-12-15T15:19:06.554Z,34791,0.20498016,-0.11575142,0.072728634
1734275946564,2024-12-15T15:19:06.564Z,34801,0.19681914,-0.11274385,0.11604106
1734275946566,2024-12-15T15:19:06.566Z,34803,0.19681914,-0.11274385,0.11604106
1734275946574,2024-12-15T15:19:06.574Z,34811,0.25482413,-0.08030872,0.089905776
1734275946577,2024-12-15T15:19:06.577Z,34814,0.25482413,-0.08030872,0.089905776
1734275946584,2024-12-15T15:19:06.584Z,34821,0.23898368,-0.05710658,0.09692731
1734275946587,2024-12-15T15:19:06.587Z,34824,0.23898368,-0.05710658,0.09692731
1734275946594,2024-12-15T15:19:06.594Z,34831,0.18616529,-0.057204995,0.13829145
1734275946596,2024-12-15T15:19:06.596Z,34833,0.18616529,-0.057204995,0.13829145
1734275946603,2024-12-15T15:19:06.603Z,34840,0.18973807,-0.045568235,0.14050153
1734275946605,2024-12-15T15:19:06.605Z,34842,0.18973807,-0.045568235,0.14050153
1734275946613,2024-12-15T15:19:06.613Z,34850,0.2006195,-0.026635274,0.10466352
1734275946616,2024-12-15T15:19:06.616Z,34853,0.2006195,-0.026635274,0.10466352
1734275946623,2024-12-15T15:19:06.623Z,34860,0.18741241,-0.032010544,0.12534443
1734275946625,2024-12-15T15:19:06.625Z,34862,0.18741241,-0.032010544,0.12534443
1734275946632,2024-12-15T15:19:06.632Z,34869,0.16806898,-0.02396699,0.10224509
1734275946634,2024-12-15T15:19:06.634Z,34871,0.16806898,-0.02396699,0.10224509
1734275946641,2024-12-15T15:19:06.641Z,34878,0.14470251,-0.021648606,0.051983852
1734275946643,2024-12-15T15:19:06.643Z,34880,0.14470251,-0.021648606,0.051983852
1734275946650,2024-12-15T15:19:06.650Z,34887,0.10654241,-0.035284873,0.05804135
1734275946652,2024-12-15T15:19:06.652Z,34889,0.10654241,-0.035284873,0.05804135
1734275946658,2024-12-15T15:19:06.658Z,34895,0.10759905,-0.047161445,0.08326113
1734275946661,2024-12-15T15:19:06.661Z,34898,0.10759905,-0.047161445,0.08326113
1734275946668,2024-12-15T15:19:06.668Z,34905,0.13421169,-0.033852026,0.058337152
1734275946670,2024-12-15T15:19:06.670Z,34907,0.13421169,-0.033852026,0.058337152
1734275946678,2024-12-15T15:19:06.678Z,34915,0.13633947,-0.016711436,0.04147575
1734275946682,2024-12-15T15:19:06.682Z,34919,0.13633947,-0.016711436,0.04147575
1734275946689,2024-12-15T15:19:06.689Z,34926,0.10115785,-0.013248153,0.038122892
1734275946691,2024-12-15T15:19:06.691Z,34928,0.10115785,-0.013248153,0.038122892
1734275946698,2024-12-15T15:19:06.698Z,34935,0.05857512,-0.015221601,0.052606393
1734275946700,2024-12-15T15:19:06.700Z,34937,0.05857512,-0.015221601,0.052606393
1734275946706,2024-12-15T15:19:06.706Z,34943,0.07172053,0.012015781,0.047536165
1734275946708,2024-12-15T15:19:06.708Z,34945,0.07172053,0.012015781,0.047536165
1734275946715,2024-12-15T15:19:06.715Z,34952,0.059513558,0.024585536,0.035878025
1734275946718,2024-12-15T15:19:06.718Z,34955,0.059513558,0.024585536,0.035878025
1734275946725,2024-12-15T15:19:06.725Z,34962,0.06662091,0.024716528,0.024181569
1734275946728,2024-12-15T15:19:06.728Z,34965,0.06662091,0.024716528,0.024181569
1734275946737,2024-12-15T15:19:06.737Z,34974,0.08711626,0.038791966,0.06770309
1734275946740,2024-12-15T15:19:06.740Z,34977,0.08711626,0.038791966,0.06770309
1734275946748,2024-12-15T15:19:06.748Z,34985,0.12975755,0.07456848,0.0632135
1734275946750,2024-12-15T15:19:06.750Z,34987,0.12975755,0.07456848,0.0632135
1734275946757,2024-12-15T15:19:06.757Z,34994,0.10558763,0.0851995,0.029862829
1734275946760,2024-12-15T15:19:06.760Z,34997,0.10558763,0.0851995,0.029862829
1734275946767,2024-12-15T15:19:06.767Z,35004,0.050203353,0.07167633,0.042901024
1734275946769,2024-12-15T15:19:06.769Z,35006,0.050203353,0.07167633,0.042901024
1734275946776,2024-12-15T15:19:06.776Z,35013,0.05856087,0.08660521,0.08024616
1734275946778,2024-12-15T15:19:06.778Z,35015,0.05856087,0.08660521,0.08024616
1734275946786,2024-12-15T15:19:06.786Z,35023,0.10575013,0.119271114,0.08806213
1734275946788,2024-12-15T15:19:06.788Z,35025,0.10575013,0.119271114,0.08806213
1734275946797,2024-12-15T15:19:06.797Z,35034,0.13646998,0.14090723,0.060148865
1734275946800,2024-12-15T15:19:06.800Z,35037,0.13646998,0.14090723,0.060148865
1734275946811,2024-12-15T15:19:06.811Z,35048,0.100950904,0.1324068,0.063577145
1734275946816,2024-12-15T15:19:06.816Z,35053,0.100950904,0.1324068,0.063577145
1734275946823,2024-12-15T15:19:06.823Z,35060,0.04653517,0.11768199,0.039880194
1734275946825,2024-12-15T15:19:06.825Z,35062,0.04653517,0.11768199,0.039880194
1734275946834,2024-12-15T15:19:06.834Z,35071,0.0019354726,0.09043182,0.05991572
1734275946836,2024-12-15T15:19:06.836Z,35073,0.0019354726,0.09043182,0.05991572
1734275946844,2024-12-15T15:19:06.844Z,35081,0.077967726,0.10390043,0.07772737
1734275946846,2024-12-15T15:19:06.846Z,35083,0.077967726,0.10390043,0.07772737
1734275946853,2024-12-15T15:19:06.853Z,35090,0.07376419,0.12992285,0.01245415
1734275946855,2024-12-15T15:19:06.855Z,35092,0.07376419,0.12992285,0.01245415
1734275946862,2024-12-15T15:19:06.862Z,35099,-0.081011236,0.08644724,0.020944726
1734275946864,2024-12-15T15:19:06.864Z,35101,-0.081011236,0.08644724,0.020944726
1734275946871,2024-12-15T15:19:06.871Z,35108,-0.049750082,0.09952414,0.08519422
1734275946873,2024-12-15T15:19:06.873Z,35110,-0.049750082,0.09952414,0.08519422
1734275946881,2024-12-15T15:19:06.881Z,35118,0.03993565,0.16543154,0.10261392
1734275946884,2024-12-15T15:19:06.884Z,35121,0.03993565,0.16543154,0.10261392
1734275946896,2024-12-15T15:19:06.896Z,35133,0.046477795,0.17890355,0.08469912
1734275946900,2024-12-15T15:19:06.900Z,35137,0.046477795,0.17890355,0.08469912
1734275946907,2024-12-15T15:19:06.907Z,35144,-0.0182585,0.16031802,0.09268894
1734275946909,2024-12-15T15:19:06.909Z,35146,-0.0182585,0.16031802,0.09268894
1734275946916,2024-12-15T15:19:06.916Z,35153,0.0018046745,0.19887085,0.10004774
1734275946919,2024-12-15T15:19:06.919Z,35156,0.0018046745,0.19887085,0.10004774
1734275946928,2024-12-15T15:19:06.928Z,35165,0.041364703,0.24910061,0.08609402
1734275946930,2024-12-15T15:19:06.930Z,35167,0.041364703,0.24910061,0.08609402
1734275946938,2024-12-15T15:19:06.938Z,35175,0.031079786,0.2548141,0.082389794
1734275946941,2024-12-15T15:19:06.941Z,35178,0.031079786,0.2548141,0.082389794
1734275946950,2024-12-15T15:19:06.950Z,35187,0.07164667,0.2618139,0.0838994
1734275946953,2024-12-15T15:19:06.953Z,35190,0.07164667,0.2618139,0.0838994
1734275946961,2024-12-15T15:19:06.961Z,35198,0.12147353,0.29068193,0.07676273
1734275946964,2024-12-15T15:19:06.964Z,35201,0.12147353,0.29068193,0.07676273
1734275946971,2024-12-15T15:19:06.971Z,35208,0.10181099,0.3024094,0.044534087
1734275946973,2024-12-15T15:19:06.973Z,35210,0.10181099,0.3024094,0.044534087
1734275946981,2024-12-15T15:19:06.981Z,35218,0.060714033,0.27833813,0.07859068
1734275946983,2024-12-15T15:19:06.983Z,35220,0.060714033,0.27833813,0.07859068
1734275946990,2024-12-15T15:19:06.990Z,35227,0.049875386,0.28469443,0.07092015
1734275946992,2024-12-15T15:19:06.992Z,35229,0.049875386,0.28469443,0.07092015
1734275946998,2024-12-15T15:19:06.998Z,35235,0.015488522,0.24829224,0.08065795
1734275947001,2024-12-15T15:19:07.001Z,35238,0.015488522,0.24829224,0.08065795
1734275947008,2024-12-15T15:19:07.008Z,35245,0.0687137,0.21537864,0.094227284
1734275947010,2024-12-15T15:19:07.010Z,35247,0.0687137,0.21537864,0.094227284
1734275947019,2024-12-15T15:19:07.019Z,35256,0.09257518,0.19099714,0.072371215
1734275947022,2024-12-15T15:19:07.022Z,35259,0.09257518,0.19099714,0.072371215
1734275947031,2024-12-15T15:19:07.031Z,35268,0.09766527,0.15199988,0.08054462
1734275947033,2024-12-15T15:19:07.033Z,35270,0.09766527,0.15199988,0.08054462
1734275947039,2024-12-15T15:19:07.039Z,35276,0.06940401,0.13449228,0.03081045
1734275947041,2024-12-15T15:19:07.041Z,35278,0.06940401,0.13449228,0.03081045
1734275947048,2024-12-15T15:19:07.048Z,35285,-0.032618392,0.09985911,-0.0051912107
1734275947050,2024-12-15T15:19:07.050Z,35287,-0.032618392,0.09985911,-0.0051912107
1734275947057,2024-12-15T15:19:07.057Z,35294,-0.06095363,0.056203052,0.028686052
1734275947060,2024-12-15T15:19:07.060Z,35297,-0.06095363,0.056203052,0.028686052
1734275947069,2024-12-15T15:19:07.069Z,35306,0.034843273,0.051333178,0.0082584275
1734275947071,2024-12-15T15:19:07.071Z,35308,0.034843273,0.051333178,0.0082584275
1734275947078,2024-12-15T15:19:07.078Z,35315,0.09686402,0.01472593,0.03573236
1734275947080,2024-12-15T15:19:07.080Z,35317,0.09686402,0.01472593,0.03573236
1734275947088,2024-12-15T15:19:07.088Z,35325,0.120900884,0.029520322,0.017686874
1734275947090,2024-12-15T15:19:07.090Z,35327,0.120900884,0.029520322,0.017686874
1734275947098,2024-12-15T15:19:07.098Z,35335,-0.0367601,-0.004810942,-0.0014962229
1734275947100,2024-12-15T15:19:07.100Z,35337,-0.0367601,-0.004810942,-0.0014962229
1734275947106,2024-12-15T15:19:07.106Z,35343,-0.07230146,-0.048459705,0.07319021
1734275947108,2024-12-15T15:19:07.108Z,35345,-0.07230146,-0.048459705,0.07319021
1734275947115,2024-12-15T15:19:07.115Z,35352,0.046902135,-0.016412497,0.094905674
1734275947117,2024-12-15T15:19:07.117Z,35354,0.046902135,-0.016412497,0.094905674
1734275947125,2024-12-15T15:19:07.125Z,35362,0.076347895,-0.0018245616,0.089913696
1734275947128,2024-12-15T15:19:07.128Z,35365,0.076347895,-0.0018245616,0.089913696
1734275947137,2024-12-15T15:19:07.137Z,35374,0.049274687,0.033180144,0.060260445
1734275947139,2024-12-15T15:19:07.139Z,35376,0.049274687,0.033180144,0.060260445
1734275947147,2024-12-15T15:19:07.147Z,35384,-0.004003956,0.05031577,0.08182037
1734275947149,2024-12-15T15:19:07.149Z,35386,-0.004003956,0.05031577,0.08182037
1734275947156,2024-12-15T15:19:07.156Z,35393,0.06048251,0.083304435,0.09177952
1734275947159,2024-12-15T15:19:07.159Z,35396,0.06048251,0.083304435,0.09177952
1734275947166,2024-12-15T15:19:07.166Z,35403,0.08877338,0.09770877,0.038054496
1734275947168,2024-12-15T15:19:07.168Z,35405,0.08877338,0.09770877,0.038054496
1734275947174,2024-12-15T15:19:07.174Z,35411,0.046751913,0.074953675,0.032023158
1734275947177,2024-12-15T15:19:07.177Z,35414,0.046751913,0.074953675,0.032023158
1734275947185,2024-12-15T15:19:07.185Z,35422,0.03904306,0.08287567,0.04022932
1734275947188,2024-12-15T15:19:07.188Z,35425,0.03904306,0.08287567,0.04022932
1734275947195,2024-12-15T15:19:07.195Z,35432,0.07322906,0.10837013,0.05589914
1734275947197,2024-12-15T15:19:07.197Z,35434,0.07322906,0.10837013,0.05589914
1734275947205,2024-12-15T15:19:07.205Z,35442,0.047815096,0.121140406,0.0268476
1734275947208,2024-12-15T15:19:07.208Z,35445,0.047815096,0.121140406,0.0268476
1734275947215,2024-12-15T15:19:07.215Z,35452,0.0017293561,0.10398484,0.06235137
1734275947217,2024-12-15T15:19:07.217Z,35454,0.0017293561,0.10398484,0.06235137
1734275947225,2024-12-15T15:19:07.225Z,35462,0.029764827,0.11694728,0.064652026
1734275947228,2024-12-15T15:19:07.228Z,35465,0.029764827,0.11694728,0.064652026
1734275947236,2024-12-15T15:19:07.236Z,35473,-0.015991779,0.09865119,0.0261614
1734275947238,2024-12-15T15:19:07.238Z,35475,-0.015991779,0.09865119,0.0261614
1734275947246,2024-12-15T15:19:07.246Z,35483,-0.010078364,0.08655299,0.05597883
1734275947248,2024-12-15T15:19:07.248Z,35485,-0.010078364,0.08655299,0.05597883
1734275947256,2024-12-15T15:19:07.256Z,35493,0.030121677,0.08758314,0.058920737
1734275947258,2024-12-15T15:19:07.258Z,35495,0.030121677,0.08758314,0.058920737
1734275947268,2024-12-15T15:19:07.268Z,35505,0.031965666,0.08818666,0.03456914
1734275947271,2024-12-15T15:19:07.271Z,35508,0.031965666,0.08818666,0.03456914
1734275947277,2024-12-15T15:19:07.277Z,35514,-0.017108109,0.09256699,0.017284213
1734275947280,2024-12-15T15:19:07.280Z,35517,-0.017108109,0.09256699,0.017284213
1734275947286,2024-12-15T15:19:07.286Z,35523,-0.024045955,0.09771431,0.022118507
1734275947288,2024-12-15T15:19:07.288Z,35525,-0.024045955,0.09771431,0.022118507
1734275947296,2024-12-15T15:19:07.296Z,35533,-8.7262806E-4,0.09152119,0.020057293
1734275947298,2024-12-15T15:19:07.298Z,35535,-8.7262806E-4,0.09152119,0.020057293
1734275947304,2024-12-15T15:19:07.304Z,35541,0.0016675552,0.0847259,0.01701024
1734275947306,2024-12-15T15:19:07.306Z,35543,0.0016675552,0.0847259,0.01701024
1734275947316,2024-12-15T15:19:07.316Z,35553,-0.011819487,0.09533592,0.011334658
1734275947318,2024-12-15T15:19:07.318Z,35555,-0.011819487,0.09533592,0.011334658
1734275947332,2024-12-15T15:19:07.332Z,35569,-0.024502996,0.09301549,0.008909015
1734275947334,2024-12-15T15:19:07.334Z,35571,-0.024502996,0.09301549,0.008909015
1734275947341,2024-12-15T15:19:07.341Z,35578,-0.009063535,0.08768146,0.020898044
1734275947343,2024-12-15T15:19:07.343Z,35580,-0.009063535,0.08768146,0.020898044
1734275947349,2024-12-15T15:19:07.349Z,35586,0.02236763,0.084826164,0.040893137
1734275947351,2024-12-15T15:19:07.351Z,35588,0.02236763,0.084826164,0.040893137
1734275947357,2024-12-15T15:19:07.357Z,35594,0.016854366,0.07264813,0.026455043
1734275947359,2024-12-15T15:19:07.359Z,35596,0.016854366,0.07264813,0.026455043
1734275947366,2024-12-15T15:19:07.366Z,35603,0.0071471967,0.05065021,0.034765303
1734275947369,2024-12-15T15:19:07.369Z,35606,0.0071471967,0.05065021,0.034765303
1734275947378,2024-12-15T15:19:07.378Z,35615,-0.001469024,0.034966778,0.04113495
1734275947381,2024-12-15T15:19:07.381Z,35618,-0.001469024,0.034966778,0.04113495
1734275947388,2024-12-15T15:19:07.388Z,35625,-0.010657669,0.022724846,0.040640116
1734275947390,2024-12-15T15:19:07.390Z,35627,-0.010657669,0.022724846,0.040640116
1734275947397,2024-12-15T15:19:07.397Z,35634,-0.004501986,0.011396945,0.01612946
1734275947399,2024-12-15T15:19:07.399Z,35636,-0.004501986,0.011396945,0.01612946
1734275947406,2024-12-15T15:19:07.406Z,35643,-0.015969437,-0.02496271,0.0019086307
1734275947408,2024-12-15T15:19:07.408Z,35645,-0.015969437,-0.02496271,0.0019086307
1734275947415,2024-12-15T15:19:07.415Z,35652,0.007467579,-0.041863486,0.0017870377
1734275947417,2024-12-15T15:19:07.417Z,35654,0.007467579,-0.041863486,0.0017870377
1734275947425,2024-12-15T15:19:07.425Z,35662,0.018114988,-0.043114092,-0.020878585
1734275947429,2024-12-15T15:19:07.429Z,35666,0.018114988,-0.043114092,-0.020878585
1734275947436,2024-12-15T15:19:07.436Z,35673,0.010612983,-0.03945797,0.005808919
1734275947438,2024-12-15T15:19:07.438Z,35675,0.010612983,-0.03945797,0.005808919
1734275947444,2024-12-15T15:19:07.444Z,35681,0.023009807,-0.01818824,0.018868444
1734275947447,2024-12-15T15:19:07.447Z,35684,0.023009807,-0.01818824,0.018868444
1734275947454,2024-12-15T15:19:07.454Z,35691,0.023519408,-0.010050551,0.013952849
1734275947456,2024-12-15T15:19:07.456Z,35693,0.023519408,-0.010050551,0.013952849
1734275947465,2024-12-15T15:19:07.465Z,35702,0.042414565,0.0010636955,0.039674375
1734275947468,2024-12-15T15:19:07.468Z,35705,0.042414565,0.0010636955,0.039674375
1734275947475,2024-12-15T15:19:07.475Z,35712,0.040274218,0.007938331,0.05456969
1734275947477,2024-12-15T15:19:07.477Z,35714,0.040274218,0.007938331,0.05456969
1734275947486,2024-12-15T15:19:07.486Z,35723,0.011615972,0.017928004,0.06883371
1734275947488,2024-12-15T15:19:07.488Z,35725,0.011615972,0.017928004,0.06883371
1734275947496,2024-12-15T15:19:07.496Z,35733,0.009125701,0.027971944,0.081503265
1734275947498,2024-12-15T15:19:07.498Z,35735,0.009125701,0.027971944,0.081503265
1734275947507,2024-12-15T15:19:07.507Z,35744,0.018790253,0.022891723,0.068275206
1734275947508,2024-12-15T15:19:07.508Z,35745,0.018790253,0.022891723,0.068275206
1734275947515,2024-12-15T15:19:07.515Z,35752,0.030250896,0.014923634,0.06962496
1734275947517,2024-12-15T15:19:07.517Z,35754,0.030250896,0.014923634,0.06962496
1734275947523,2024-12-15T15:19:07.523Z,35760,0.031304646,0.02604177,0.062241912
1734275947525,2024-12-15T15:19:07.525Z,35762,0.031304646,0.02604177,0.062241912
1734275947532,2024-12-15T15:19:07.532Z,35769,0.016706113,0.023497285,0.061838984
1734275947535,2024-12-15T15:19:07.535Z,35772,0.016706113,0.023497285,0.061838984
1734275947541,2024-12-15T15:19:07.541Z,35778,0.025439905,0.023868771,0.056253098
1734275947543,2024-12-15T15:19:07.543Z,35780,0.025439905,0.023868771,0.056253098
1734275947553,2024-12-15T15:19:07.553Z,35790,0.015799034,0.0134585975,0.039508995
1734275947555,2024-12-15T15:19:07.555Z,35792,0.015799034,0.0134585975,0.039508995
1734275947562,2024-12-15T15:19:07.562Z,35799,0.017877875,0.016217321,0.06107369
1734275947565,2024-12-15T15:19:07.565Z,35802,0.017877875,0.016217321,0.06107369
1734275947572,2024-12-15T15:19:07.572Z,35809,0.013002919,0.013640937,0.048665524
1734275947574,2024-12-15T15:19:07.574Z,35811,0.013002919,0.013640937,0.048665524
1734275947581,2024-12-15T15:19:07.581Z,35818,0.0016308927,0.018924795,0.0404517
1734275947583,2024-12-15T15:19:07.583Z,35820,0.0016308927,0.018924795,0.0404517
1734275947590,2024-12-15T15:19:07.590Z,35827,0.007304081,0.028133862,0.032017887
1734275947592,2024-12-15T15:19:07.592Z,35829,0.007304081,0.028133862,0.032017887
1734275947599,2024-12-15T15:19:07.599Z,35836,-1.0687524E-4,0.014867911,0.021087408
1734275947601,2024-12-15T15:19:07.601Z,35838,-1.0687524E-4,0.014867911,0.021087408
1734275947607,2024-12-15T15:19:07.607Z,35844,-0.02531183,0.0215534,0.015300272
1734275947610,2024-12-15T15:19:07.610Z,35847,-0.02531183,0.0215534,0.015300272
1734275947616,2024-12-15T15:19:07.616Z,35853,-0.040572572,0.034063734,0.013813554
1734275947619,2024-12-15T15:19:07.619Z,35856,-0.040572572,0.034063734,0.013813554
1734275947627,2024-12-15T15:19:07.627Z,35864,-0.034043897,0.038684364,0.00128773
1734275947630,2024-12-15T15:19:07.630Z,35867,-0.034043897,0.038684364,0.00128773
1734275947638,2024-12-15T15:19:07.638Z,35875,-0.031211363,0.03787993,-0.005269261
1734275947641,2024-12-15T15:19:07.641Z,35878,-0.031211363,0.03787993,-0.005269261
1734275947650,2024-12-15T15:19:07.650Z,35887,-0.039038684,0.047307417,-0.006920366
1734275947652,2024-12-15T15:19:07.652Z,35889,-0.039038684,0.047307417,-0.006920366
1734275947658,2024-12-15T15:19:07.658Z,35895,-0.048814416,0.055268504,-0.006613966
1734275947660,2024-12-15T15:19:07.660Z,35897,-0.048814416,0.055268504,-0.006613966
1734275947668,2024-12-15T15:19:07.668Z,35905,-0.06720597,0.048624054,-8.657265E-4
1734275947670,2024-12-15T15:19:07.670Z,35907,-0.06720597,0.048624054,-8.657265E-4
1734275947676,2024-12-15T15:19:07.676Z,35913,-0.07746957,0.048163388,-2.3525742E-4
1734275947680,2024-12-15T15:19:07.680Z,35917,-0.07746957,0.048163388,-2.3525742E-4
1734275947688,2024-12-15T15:19:07.688Z,35925,-0.054718614,0.06521082,-0.008062868
1734275947690,2024-12-15T15:19:07.690Z,35927,-0.054718614,0.06521082,-0.008062868
1734275947696,2024-12-15T15:19:07.696Z,35933,-0.048924305,0.07477367,4.795224E-5
1734275947698,2024-12-15T15:19:07.698Z,35935,-0.048924305,0.07477367,4.795224E-5
1734275947706,2024-12-15T15:19:07.706Z,35943,-0.067846134,0.094412655,0.003120509
1734275947708,2024-12-15T15:19:07.708Z,35945,-0.067846134,0.094412655,0.003120509
1734275947717,2024-12-15T15:19:07.717Z,35954,-0.094465286,0.112915196,0.0041693132
1734275947719,2024-12-15T15:19:07.719Z,35956,-0.094465286,0.112915196,0.0041693132
1734275947728,2024-12-15T15:19:07.728Z,35965,-0.08715503,0.122919455,-0.0010524695
1734275947731,2024-12-15T15:19:07.731Z,35968,-0.08715503,0.122919455,-0.0010524695
1734275947739,2024-12-15T15:19:07.739Z,35976,-0.06644489,0.12295437,-0.009649663
1734275947741,2024-12-15T15:19:07.741Z,35978,-0.06644489,0.12295437,-0.009649663
1734275947750,2024-12-15T15:19:07.750Z,35987,-0.060368124,0.12429172,0.0031336846
1734275947753,2024-12-15T15:19:07.753Z,35990,-0.060368124,0.12429172,0.0031336846
1734275947766,2024-12-15T15:19:07.766Z,36003,-0.0491762,0.15288115,0.014407336
1734275947768,2024-12-15T15:19:07.768Z,36005,-0.0491762,0.15288115,0.014407336
1734275947776,2024-12-15T15:19:07.776Z,36013,-0.038579747,0.17742257,0.032276418
1734275947778,2024-12-15T15:19:07.778Z,36015,-0.038579747,0.17742257,0.032276418
1734275947787,2024-12-15T15:19:07.787Z,36024,-0.042070214,0.19833365,0.055925995
1734275947789,2024-12-15T15:19:07.789Z,36026,-0.042070214,0.19833365,0.055925995
1734275947797,2024-12-15T15:19:07.797Z,36034,-0.047689963,0.22918496,0.0415377
1734275947800,2024-12-15T15:19:07.800Z,36037,-0.047689963,0.22918496,0.0415377
1734275947806,2024-12-15T15:19:07.806Z,36043,-0.068477534,0.24108215,0.010573833
1734275947808,2024-12-15T15:19:07.808Z,36045,-0.068477534,0.24108215,0.010573833
1734275947815,2024-12-15T15:19:07.815Z,36052,-0.05220279,0.2422883,0.03400832
1734275947818,2024-12-15T15:19:07.818Z,36055,-0.05220279,0.2422883,0.03400832
1734275947826,2024-12-15T15:19:07.826Z,36063,0.0020742451,0.24661364,0.037475076
1734275947828,2024-12-15T15:19:07.828Z,36065,0.0020742451,0.24661364,0.037475076
1734275947836,2024-12-15T15:19:07.836Z,36073,0.025838062,0.24791248,0.03551045
1734275947838,2024-12-15T15:19:07.838Z,36075,0.025838062,0.24791248,0.03551045
1734275947845,2024-12-15T15:19:07.845Z,36082,0.044501964,0.2886603,0.058635052
1734275947849,2024-12-15T15:19:07.849Z,36086,0.044501964,0.2886603,0.058635052
1734275947856,2024-12-15T15:19:07.856Z,36093,0.05793586,0.357474,0.09643825
1734275947858,2024-12-15T15:19:07.858Z,36095,0.05793586,0.357474,0.09643825
1734275947866,2024-12-15T15:19:07.866Z,36103,0.059879526,0.40819153,0.0828236
1734275947868,2024-12-15T15:19:07.868Z,36105,0.059879526,0.40819153,0.0828236
1734275947875,2024-12-15T15:19:07.875Z,36112,-2.9903672E-6,0.39079005,0.0356864
1734275947877,2024-12-15T15:19:07.877Z,36114,-2.9903672E-6,0.39079005,0.0356864
1734275947884,2024-12-15T15:19:07.884Z,36121,-0.034328952,0.35408667,0.07504383
1734275947887,2024-12-15T15:19:07.887Z,36124,-0.034328952,0.35408667,0.07504383
1734275947894,2024-12-15T15:19:07.894Z,36131,-0.0017052873,0.32564276,0.07766085
1734275947896,2024-12-15T15:19:07.896Z,36133,-0.0017052873,0.32564276,0.07766085
1734275947904,2024-12-15T15:19:07.904Z,36141,0.019157799,0.28248146,0.029744051
1734275947906,2024-12-15T15:19:07.906Z,36143,0.019157799,0.28248146,0.029744051
1734275947913,2024-12-15T15:19:07.913Z,36150,0.08011264,0.26588732,0.08315917
1734275947915,2024-12-15T15:19:07.915Z,36152,0.08011264,0.26588732,0.08315917
1734275947923,2024-12-15T15:19:07.923Z,36160,0.17389275,0.28394786,0.14184175
1734275947925,2024-12-15T15:19:07.925Z,36162,0.17389275,0.28394786,0.14184175
1734275947934,2024-12-15T15:19:07.934Z,36171,0.15554284,0.2491643,0.11023193
1734275947936,2024-12-15T15:19:07.936Z,36173,0.15554284,0.2491643,0.11023193
1734275947942,2024-12-15T15:19:07.942Z,36179,0.050995074,0.1840178,0.09502032
1734275947944,2024-12-15T15:19:07.944Z,36181,0.050995074,0.1840178,0.09502032
1734275947953,2024-12-15T15:19:07.953Z,36190,0.048202362,0.17086609,0.09443173
1734275947955,2024-12-15T15:19:07.955Z,36192,0.048202362,0.17086609,0.09443173
1734275947962,2024-12-15T15:19:07.962Z,36199,0.028435184,0.12136058,0.050435923
1734275947964,2024-12-15T15:19:07.964Z,36201,0.028435184,0.12136058,0.050435923
1734275947971,2024-12-15T15:19:07.971Z,36208,0.033776175,0.059657436,0.064540185
1734275947973,2024-12-15T15:19:07.973Z,36210,0.033776175,0.059657436,0.064540185
1734275947980,2024-12-15T15:19:07.980Z,36217,0.059932455,0.03635499,0.045114577
1734275947982,2024-12-15T15:19:07.982Z,36219,0.059932455,0.03635499,0.045114577
1734275947988,2024-12-15T15:19:07.988Z,36225,0.08840554,0.021422116,0.07441845
1734275947990,2024-12-15T15:19:07.990Z,36227,0.08840554,0.021422116,0.07441845
1734275947996,2024-12-15T15:19:07.996Z,36233,0.13358948,0.031385824,0.08602133
1734275947998,2024-12-15T15:19:07.998Z,36235,0.13358948,0.031385824,0.08602133
1734275948007,2024-12-15T15:19:08.007Z,36244,0.12838386,0.033844635,0.0908826
1734275948008,2024-12-15T15:19:08.008Z,36245,0.12838386,0.033844635,0.0908826
1734275948016,2024-12-15T15:19:08.016Z,36253,0.07790252,0.0335402,0.04517718
1734275948018,2024-12-15T15:19:08.018Z,36255,0.07790252,0.0335402,0.04517718
1734275948025,2024-12-15T15:19:08.025Z,36262,-0.02410304,-0.021344513,-0.0046506044
1734275948027,2024-12-15T15:19:08.027Z,36264,-0.02410304,-0.021344513,-0.0046506044
1734275948034,2024-12-15T15:19:08.034Z,36271,-0.056185596,-0.07820408,0.013365969
1734275948036,2024-12-15T15:19:08.036Z,36273,-0.056185596,-0.07820408,0.013365969
1734275948042,2024-12-15T15:19:08.042Z,36279,0.054195616,-0.06297305,0.06382613
1734275948044,2024-12-15T15:19:08.044Z,36281,0.054195616,-0.06297305,0.06382613
1734275948051,2024-12-15T15:19:08.051Z,36288,0.15445709,-0.05479364,0.055075526
1734275948053,2024-12-15T15:19:08.053Z,36290,0.15445709,-0.05479364,0.055075526
1734275948059,2024-12-15T15:19:08.059Z,36296,0.12023401,-0.075592496,0.026935197
1734275948061,2024-12-15T15:19:08.061Z,36298,0.12023401,-0.075592496,0.026935197
1734275948068,2024-12-15T15:19:08.068Z,36305,0.07852067,-0.04436052,0.04597466
1734275948070,2024-12-15T15:19:08.070Z,36307,0.07852067,-0.04436052,0.04597466
1734275948076,2024-12-15T15:19:08.076Z,36313,0.010937499,-0.01564852,0.057279013
1734275948078,2024-12-15T15:19:08.078Z,36315,0.010937499,-0.01564852,0.057279013
1734275948085,2024-12-15T15:19:08.085Z,36322,-0.07287297,-0.0419797,0.020935876
1734275948088,2024-12-15T15:19:08.088Z,36325,-0.07287297,-0.0419797,0.020935876
1734275948098,2024-12-15T15:19:08.098Z,36335,-0.08459438,-0.10310062,0.004689236
1734275948100,2024-12-15T15:19:08.100Z,36337,-0.08459438,-0.10310062,0.004689236
1734275948106,2024-12-15T15:19:08.106Z,36343,0.078407526,-0.102676764,0.017091747
1734275948108,2024-12-15T15:19:08.108Z,36345,0.078407526,-0.102676764,0.017091747
1734275948114,2024-12-15T15:19:08.114Z,36351,0.19556946,-0.0720661,-0.0013817928
1734275948116,2024-12-15T15:19:08.116Z,36353,0.19556946,-0.0720661,-0.0013817928
1734275948123,2024-12-15T15:19:08.123Z,36360,0.17316002,-0.07219403,-0.0055101286
1734275948125,2024-12-15T15:19:08.125Z,36362,0.17316002,-0.07219403,-0.0055101286
1734275948134,2024-12-15T15:19:08.134Z,36371,0.14842857,-0.05619853,0.017470224
1734275948137,2024-12-15T15:19:08.137Z,36374,0.14842857,-0.05619853,0.017470224
1734275948144,2024-12-15T15:19:08.144Z,36381,0.15139137,-0.02936881,0.035051942
1734275948146,2024-12-15T15:19:08.146Z,36383,0.15139137,-0.02936881,0.035051942
1734275948158,2024-12-15T15:19:08.158Z,36395,0.1123177,-0.054027136,0.028849093
1734275948159,2024-12-15T15:19:08.159Z,36396,0.1123177,-0.054027136,0.028849093
1734275948167,2024-12-15T15:19:08.167Z,36404,0.04401378,-0.11509462,0.021229504
1734275948169,2024-12-15T15:19:08.169Z,36406,0.04401378,-0.11509462,0.021229504
1734275948177,2024-12-15T15:19:08.177Z,36414,0.059307832,-0.13895395,0.038761664
1734275948180,2024-12-15T15:19:08.180Z,36417,0.059307832,-0.13895395,0.038761664
1734275948187,2024-12-15T15:19:08.187Z,36424,0.19579685,-0.102814905,0.019422654
1734275948189,2024-12-15T15:19:08.189Z,36426,0.19579685,-0.102814905,0.019422654
1734275948195,2024-12-15T15:19:08.195Z,36432,0.23241805,-0.1057424,0.017174069
1734275948199,2024-12-15T15:19:08.199Z,36436,0.23241805,-0.1057424,0.017174069
1734275948206,2024-12-15T15:19:08.206Z,36443,0.1810237,-0.12352526,0.026141109
1734275948208,2024-12-15T15:19:08.208Z,36445,0.1810237,-0.12352526,0.026141109
1734275948214,2024-12-15T15:19:08.214Z,36451,0.13776578,-0.10778285,0.034576293
1734275948216,2024-12-15T15:19:08.216Z,36453,0.13776578,-0.10778285,0.034576293
1734275948224,2024-12-15T15:19:08.224Z,36461,0.15863438,-0.057674117,0.05676445
1734275948227,2024-12-15T15:19:08.227Z,36464,0.15863438,-0.057674117,0.05676445
1734275948233,2024-12-15T15:19:08.233Z,36470,0.16193677,-0.05891743,0.052831206
1734275948236,2024-12-15T15:19:08.236Z,36473,0.16193677,-0.05891743,0.052831206
1734275948243,2024-12-15T15:19:08.243Z,36480,0.12588882,-0.1009847,0.08274552
1734275948247,2024-12-15T15:19:08.247Z,36484,0.12588882,-0.1009847,0.08274552
1734275948254,2024-12-15T15:19:08.254Z,36491,0.13128635,-0.0952378,0.08610907
1734275948256,2024-12-15T15:19:08.256Z,36493,0.13128635,-0.0952378,0.08610907
1734275948262,2024-12-15T15:19:08.262Z,36499,0.14916934,-0.089870796,0.1066829
