Timestamp (ms),ISO DateTime,Elapsed Time (ms),Acceleration X,Acceleration Y,Acceleration Z
1732440201551,2024-11-24T09:23:21.551Z,21186,-0.16321404,-0.948668,-1.2621284
1732440201557,2024-11-24T09:23:21.557Z,21192,-0.16321404,-0.948668,-1.2621284
1732440201586,2024-11-24T09:23:21.586Z,21221,-0.16505325,-0.9405406,-1.3060398
1732440201592,2024-11-24T09:23:21.592Z,21227,-0.16505325,-0.9405406,-1.3060398
1732440201614,2024-11-24T09:23:21.614Z,21249,-0.19051929,-0.9228499,-1.1717372
1732440201620,2024-11-24T09:23:21.620Z,21255,-0.19051929,-0.9228499,-1.1717372
1732440201639,2024-11-24T09:23:21.639Z,21274,-0.31347746,-0.86040676,-1.1697391
1732440201645,2024-11-24T09:23:21.645Z,21280,-0.31347746,-0.86040676,-1.1697391
1732440201665,2024-11-24T09:23:21.665Z,21300,-0.26805937,-0.8974207,-1.2039942
1732440201668,2024-11-24T09:23:21.668Z,21303,-0.26805937,-0.8974207,-1.2039942
1732440201680,2024-11-24T09:23:21.680Z,21315,-0.25114816,-0.89750373,-1.1767331
1732440201684,2024-11-24T09:23:21.684Z,21319,-0.25114816,-0.89750373,-1.1767331
1732440201697,2024-11-24T09:23:21.697Z,21332,-0.24904571,-0.8907083,-1.218292
1732440201701,2024-11-24T09:23:21.701Z,21336,-0.24904571,-0.8907083,-1.218292
1732440201711,2024-11-24T09:23:21.711Z,21346,-0.15344022,-0.9228993,-1.2437539
1732440201715,2024-11-24T09:23:21.715Z,21350,-0.15344022,-0.9228993,-1.2437539
1732440201727,2024-11-24T09:23:21.727Z,21362,-0.15193303,-0.9226599,-1.2647679
1732440201731,2024-11-24T09:23:21.731Z,21366,-0.15193303,-0.9226599,-1.2647679
1732440201743,2024-11-24T09:23:21.743Z,21378,-0.20546545,-0.89263386,-1.2124807
1732440201746,2024-11-24T09:23:21.746Z,21381,-0.20546545,-0.89263386,-1.2124807
1732440201759,2024-11-24T09:23:21.759Z,21394,-0.24941435,-0.8847669,-1.2104912
1732440201763,2024-11-24T09:23:21.763Z,21398,-0.24941435,-0.8847669,-1.2104912
1732440201775,2024-11-24T09:23:21.775Z,21410,-0.2395086,-0.8967664,-1.2237717
1732440201778,2024-11-24T09:23:21.778Z,21413,-0.2395086,-0.8967664,-1.2237717
1732440201789,2024-11-24T09:23:21.789Z,21424,-0.21972474,-0.9069148,-1.2316548
1732440201793,2024-11-24T09:23:21.793Z,21428,-0.21972474,-0.9069148,-1.2316548
1732440201807,2024-11-24T09:23:21.807Z,21442,-0.2474728,-0.88950926,-1.2278028
1732440201811,2024-11-24T09:23:21.811Z,21446,-0.2474728,-0.88950926,-1.2278028
1732440201822,2024-11-24T09:23:21.822Z,21457,-0.24794894,-0.8923035,-1.2391652
1732440201826,2024-11-24T09:23:21.826Z,21461,-0.24794894,-0.8923035,-1.2391652
1732440201838,2024-11-24T09:23:21.838Z,21473,-0.22063649,-0.9017409,-1.1684381
1732440201843,2024-11-24T09:23:21.843Z,21478,-0.22063649,-0.9017409,-1.1684381
1732440201854,2024-11-24T09:23:21.854Z,21489,-0.2739463,-0.88865227,-1.1728889
1732440201858,2024-11-24T09:23:21.858Z,21493,-0.2739463,-0.88865227,-1.1728889
1732440201869,2024-11-24T09:23:21.869Z,21504,-0.2748355,-0.9011499,-1.2781013
1732440201874,2024-11-24T09:23:21.874Z,21509,-0.2748355,-0.9011499,-1.2781013
1732440201887,2024-11-24T09:23:21.887Z,21522,-0.26993814,-0.8958615,-1.2977409
1732440201892,2024-11-24T09:23:21.892Z,21527,-0.26993814,-0.8958615,-1.2977409
1732440201904,2024-11-24T09:23:21.904Z,21539,-0.17150858,-0.92065644,-1.2153054
1732440201908,2024-11-24T09:23:21.908Z,21543,-0.17150858,-0.92065644,-1.2153054
1732440201920,2024-11-24T09:23:21.920Z,21555,-0.23597948,-0.89215255,-1.1933417
1732440201924,2024-11-24T09:23:21.924Z,21559,-0.23597948,-0.89215255,-1.1933417
1732440201935,2024-11-24T09:23:21.935Z,21570,-0.2227878,-0.8939661,-1.1977323
1732440201941,2024-11-24T09:23:21.941Z,21576,-0.2227878,-0.8939661,-1.1977323
1732440201952,2024-11-24T09:23:21.952Z,21587,-0.2388932,-0.8900783,-1.2275048
1732440201956,2024-11-24T09:23:21.956Z,21591,-0.2388932,-0.8900783,-1.2275048
1732440201967,2024-11-24T09:23:21.967Z,21602,-0.23988171,-0.851634,-1.2044116
1732440201970,2024-11-24T09:23:21.970Z,21605,-0.23988171,-0.851634,-1.2044116
1732440201982,2024-11-24T09:23:21.982Z,21617,-0.23307589,-0.85756916,-1.2301664
1732440201987,2024-11-24T09:23:21.987Z,21622,-0.23307589,-0.85756916,-1.2301664
1732440201999,2024-11-24T09:23:21.999Z,21634,-0.25402874,-0.8579401,-1.2593558
1732440202002,2024-11-24T09:23:22.002Z,21637,-0.25402874,-0.8579401,-1.2593558
1732440202014,2024-11-24T09:23:22.014Z,21649,-0.20725304,-0.86032945,-1.179122
1732440202018,2024-11-24T09:23:22.018Z,21653,-0.20725304,-0.86032945,-1.179122
1732440202038,2024-11-24T09:23:22.038Z,21673,-0.25075313,-0.8657254,-1.1580638
1732440202045,2024-11-24T09:23:22.045Z,21680,-0.25075313,-0.8657254,-1.1580638
1732440202065,2024-11-24T09:23:22.065Z,21700,-0.29731414,-0.83484423,-1.1800066
1732440202070,2024-11-24T09:23:22.070Z,21705,-0.29731414,-0.83484423,-1.1800066
1732440202084,2024-11-24T09:23:22.084Z,21719,-0.23847936,-0.85294306,-1.2900294
1732440202088,2024-11-24T09:23:22.088Z,21723,-0.23847936,-0.85294306,-1.2900294
1732440202175,2024-11-24T09:23:22.175Z,21810,-0.22122729,-0.84596837,-1.2573612
1732440202181,2024-11-24T09:23:22.181Z,21816,-0.22122729,-0.84596837,-1.2573612
1732440202205,2024-11-24T09:23:22.205Z,21840,-0.26465517,-0.8364851,-1.2260939
1732440202214,2024-11-24T09:23:22.214Z,21849,-0.26465517,-0.8364851,-1.2260939
1732440202235,2024-11-24T09:23:22.235Z,21870,-0.3034378,-0.8275692,-1.242703
1732440202239,2024-11-24T09:23:22.239Z,21874,-0.3034378,-0.8275692,-1.242703
1732440202253,2024-11-24T09:23:22.253Z,21888,-0.29350588,-0.82880455,-1.223215
1732440202257,2024-11-24T09:23:22.257Z,21892,-0.29350588,-0.82880455,-1.223215
1732440202269,2024-11-24T09:23:22.269Z,21904,-0.24967855,-0.83882535,-1.2737775
1732440202273,2024-11-24T09:23:22.273Z,21908,-0.24967855,-0.83882535,-1.2737775
1732440202286,2024-11-24T09:23:22.286Z,21921,-0.25909024,-0.8321722,-1.2420582
1732440202291,2024-11-24T09:23:22.291Z,21926,-0.25909024,-0.8321722,-1.2420582
1732440202306,2024-11-24T09:23:22.306Z,21941,-0.2927185,-0.8353532,-1.2357174
1732440202311,2024-11-24T09:23:22.311Z,21946,-0.2927185,-0.8353532,-1.2357174
1732440202325,2024-11-24T09:23:22.325Z,21960,-0.29875642,-1.0168705,-1.2163969
1732440202328,2024-11-24T09:23:22.328Z,21963,-0.29875642,-1.0168705,-1.2163969
1732440202340,2024-11-24T09:23:22.340Z,21975,-0.36491185,-1.0237445,-1.2397512
1732440202343,2024-11-24T09:23:22.343Z,21978,-0.36491185,-1.0237445,-1.2397512
1732440202360,2024-11-24T09:23:22.360Z,21995,-0.25087318,-1.0974334,-1.3079904
1732440202370,2024-11-24T09:23:22.370Z,22005,-0.25087318,-1.0974334,-1.3079904
1732440202400,2024-11-24T09:23:22.400Z,22035,-0.3074916,-1.1115376,-1.2531397
1732440202407,2024-11-24T09:23:22.407Z,22042,-0.3074916,-1.1115376,-1.2531397
1732440202425,2024-11-24T09:23:22.425Z,22060,-0.35406327,-1.1202425,-1.2070498
1732440202429,2024-11-24T09:23:22.429Z,22064,-0.35406327,-1.1202425,-1.2070498
1732440202455,2024-11-24T09:23:22.455Z,22090,-0.3644527,-1.1095872,-1.2363503
1732440202473,2024-11-24T09:23:22.473Z,22108,-0.3644527,-1.1095872,-1.2363503
1732440202503,2024-11-24T09:23:22.503Z,22138,-0.3322002,-1.1023607,-1.262615
1732440202509,2024-11-24T09:23:22.509Z,22144,-0.3322002,-1.1023607,-1.262615
1732440202521,2024-11-24T09:23:22.521Z,22156,-0.28301004,-1.0818644,-1.177666
1732440202526,2024-11-24T09:23:22.526Z,22161,-0.28301004,-1.0818644,-1.177666
1732440202538,2024-11-24T09:23:22.538Z,22173,-0.31579286,-1.0584704,-1.165759
1732440202542,2024-11-24T09:23:22.542Z,22177,-0.31579286,-1.0584704,-1.165759
1732440202553,2024-11-24T09:23:22.553Z,22188,-0.20308909,-0.95213526,-1.1772678
1732440202557,2024-11-24T09:23:22.557Z,22192,-0.20308909,-0.95213526,-1.1772678
1732440202569,2024-11-24T09:23:22.569Z,22204,-0.23727025,-0.9302901,-1.1926287
1732440202573,2024-11-24T09:23:22.573Z,22208,-0.23727025,-0.9302901,-1.1926287
1732440202584,2024-11-24T09:23:22.584Z,22219,-0.24857935,-0.91640264,-1.2476057
1732440202587,2024-11-24T09:23:22.587Z,22222,-0.24857935,-0.91640264,-1.2476057
1732440202623,2024-11-24T09:23:22.623Z,22258,-0.1994037,-0.9130224,-1.2848295
1732440202631,2024-11-24T09:23:22.631Z,22266,-0.1994037,-0.9130224,-1.2848295
1732440202663,2024-11-24T09:23:22.663Z,22298,-0.13514778,-0.8884264,-1.3387663
1732440202670,2024-11-24T09:23:22.670Z,22305,-0.13514778,-0.8884264,-1.3387663
1732440202696,2024-11-24T09:23:22.696Z,22331,-0.09203361,-0.883081,-1.2622175
1732440202703,2024-11-24T09:23:22.703Z,22338,-0.09203361,-0.883081,-1.2622175
1732440202719,2024-11-24T09:23:22.719Z,22354,-0.16465026,-0.8760426,-1.1984062
1732440202723,2024-11-24T09:23:22.723Z,22358,-0.16465026,-0.8760426,-1.1984062
1732440202737,2024-11-24T09:23:22.737Z,22372,-0.12469975,-0.8871933,-1.2338364
1732440202740,2024-11-24T09:23:22.740Z,22375,-0.12469975,-0.8871933,-1.2338364
1732440202753,2024-11-24T09:23:22.753Z,22388,-0.11980899,-0.87291545,-1.2345603
1732440202757,2024-11-24T09:23:22.757Z,22392,-0.11980899,-0.87291545,-1.2345603
1732440202771,2024-11-24T09:23:22.771Z,22406,-0.08507369,-0.86125803,-1.202259
1732440202774,2024-11-24T09:23:22.774Z,22409,-0.08507369,-0.86125803,-1.202259
1732440202791,2024-11-24T09:23:22.791Z,22426,-0.12504332,-0.84065574,-1.2139572
1732440202799,2024-11-24T09:23:22.799Z,22434,-0.12504332,-0.84065574,-1.2139572
1732440202823,2024-11-24T09:23:22.823Z,22458,-0.12816678,-0.81265634,-1.2178807
1732440202830,2024-11-24T09:23:22.830Z,22465,-0.12816678,-0.81265634,-1.2178807
1732440202844,2024-11-24T09:23:22.844Z,22479,-0.06770016,-0.8103585,-1.1984366
1732440202847,2024-11-24T09:23:22.847Z,22482,-0.06770016,-0.8103585,-1.1984366
1732440202859,2024-11-24T09:23:22.859Z,22494,-0.2327851,-0.73774093,-1.3329302
1732440202866,2024-11-24T09:23:22.866Z,22501,-0.2327851,-0.73774093,-1.3329302
1732440202886,2024-11-24T09:23:22.886Z,22521,-0.3451813,-0.90932876,-1.2415323
1732440202890,2024-11-24T09:23:22.890Z,22525,-0.3451813,-0.90932876,-1.2415323
1732440202900,2024-11-24T09:23:22.900Z,22535,0.1289794,-0.8266554,-1.1410258
1732440202904,2024-11-24T09:23:22.904Z,22539,0.1289794,-0.8266554,-1.1410258
1732440202918,2024-11-24T09:23:22.918Z,22553,-0.15147984,-0.82430303,-1.246153
1732440202923,2024-11-24T09:23:22.923Z,22558,-0.15147984,-0.82430303,-1.246153
1732440202944,2024-11-24T09:23:22.944Z,22579,-0.027726065,-0.8258823,-1.2066461
1732440202950,2024-11-24T09:23:22.950Z,22585,-0.027726065,-0.8258823,-1.2066461
1732440202971,2024-11-24T09:23:22.971Z,22606,-0.12951173,-0.81026095,-1.2558414
1732440202978,2024-11-24T09:23:22.978Z,22613,-0.12951173,-0.81026095,-1.2558414
1732440202999,2024-11-24T09:23:22.999Z,22634,-0.08052041,-0.8053633,-1.291304
1732440203003,2024-11-24T09:23:23.003Z,22638,-0.08052041,-0.8053633,-1.291304
1732440203019,2024-11-24T09:23:23.019Z,22654,0.057965983,-0.86315197,-1.3681718
1732440203028,2024-11-24T09:23:23.028Z,22663,0.057965983,-0.86315197,-1.3681718
1732440203048,2024-11-24T09:23:23.048Z,22683,0.07418986,-0.8245617,-1.4013432
1732440203051,2024-11-24T09:23:23.051Z,22686,0.07418986,-0.8245617,-1.4013432
1732440203062,2024-11-24T09:23:23.062Z,22697,-0.07341264,-0.80473596,-1.3986672
1732440203066,2024-11-24T09:23:23.066Z,22701,-0.07341264,-0.80473596,-1.3986672
1732440203079,2024-11-24T09:23:23.079Z,22714,-0.08254821,-0.80606586,-1.2795902
1732440203083,2024-11-24T09:23:23.083Z,22718,-0.08254821,-0.80606586,-1.2795902
1732440203094,2024-11-24T09:23:23.094Z,22729,-0.11833102,-0.7692307,-1.2227598
1732440203098,2024-11-24T09:23:23.098Z,22733,-0.11833102,-0.7692307,-1.2227598
1732440203114,2024-11-24T09:23:23.114Z,22749,-0.2000394,-0.75165844,-1.2526128
1732440203121,2024-11-24T09:23:23.121Z,22756,-0.2000394,-0.75165844,-1.2526128
1732440203144,2024-11-24T09:23:23.144Z,22779,0.110835604,-0.8359822,-1.4272509
1732440203149,2024-11-24T09:23:23.149Z,22784,0.110835604,-0.8359822,-1.4272509
1732440203171,2024-11-24T09:23:23.171Z,22806,-0.04513135,-0.77955365,-1.4379021
1732440203177,2024-11-24T09:23:23.177Z,22812,-0.04513135,-0.77955365,-1.4379021
1732440203199,2024-11-24T09:23:23.199Z,22834,-0.13574147,-0.77275294,-1.3402593
1732440203207,2024-11-24T09:23:23.207Z,22842,-0.13574147,-0.77275294,-1.3402593
1732440203239,2024-11-24T09:23:23.239Z,22874,-0.08189167,-0.81724674,-1.3264047
1732440203246,2024-11-24T09:23:23.246Z,22881,-0.08189167,-0.81724674,-1.3264047
1732440203267,2024-11-24T09:23:23.267Z,22902,0.0155708175,-0.8219291,-1.3082715
1732440203271,2024-11-24T09:23:23.271Z,22906,0.0155708175,-0.8219291,-1.3082715
1732440203284,2024-11-24T09:23:23.284Z,22919,0.0025257177,-0.8210991,-1.3600343
1732440203289,2024-11-24T09:23:23.289Z,22924,0.0025257177,-0.8210991,-1.3600343
1732440203304,2024-11-24T09:23:23.304Z,22939,-0.0140887145,-0.8575501,-1.3645009
1732440203308,2024-11-24T09:23:23.308Z,22943,-0.0140887145,-0.8575501,-1.3645009
1732440203320,2024-11-24T09:23:23.320Z,22955,0.09710437,-0.9073607,-1.277352
1732440203324,2024-11-24T09:23:23.324Z,22959,0.09710437,-0.9073607,-1.277352
1732440203335,2024-11-24T09:23:23.335Z,22970,0.12420038,-0.9349719,-1.314505
1732440203339,2024-11-24T09:23:23.339Z,22974,0.12420038,-0.9349719,-1.314505
1732440203352,2024-11-24T09:23:23.352Z,22987,0.017906295,-0.86831766,-1.3533558
1732440203355,2024-11-24T09:23:23.355Z,22990,0.017906295,-0.86831766,-1.3533558
1732440203369,2024-11-24T09:23:23.369Z,23004,0.121137396,-0.9279894,-1.2687193
1732440203372,2024-11-24T09:23:23.372Z,23007,0.121137396,-0.9279894,-1.2687193
1732440203383,2024-11-24T09:23:23.383Z,23018,0.09661206,-0.8599067,-1.4749371
1732440203387,2024-11-24T09:23:23.387Z,23022,0.09661206,-0.8599067,-1.4749371
1732440203400,2024-11-24T09:23:23.400Z,23035,0.06615463,-0.8256236,-1.2426115
1732440203404,2024-11-24T09:23:23.404Z,23039,0.06615463,-0.8256236,-1.2426115
1732440203416,2024-11-24T09:23:23.416Z,23051,-0.072429925,-0.7807609,-1.2408028
1732440203420,2024-11-24T09:23:23.420Z,23055,-0.072429925,-0.7807609,-1.2408028
1732440203432,2024-11-24T09:23:23.432Z,23067,-0.00907997,-0.835946,-1.247633
1732440203436,2024-11-24T09:23:23.436Z,23071,-0.00907997,-0.835946,-1.247633
1732440203447,2024-11-24T09:23:23.447Z,23082,0.11077201,-0.78945875,-1.1997869
1732440203451,2024-11-24T09:23:23.451Z,23086,0.11077201,-0.78945875,-1.1997869
1732440203465,2024-11-24T09:23:23.465Z,23100,-0.03219303,-0.74755126,-1.3157763
1732440203468,2024-11-24T09:23:23.468Z,23103,-0.03219303,-0.74755126,-1.3157763
1732440203488,2024-11-24T09:23:23.488Z,23123,-8.5653353E-4,-0.70080626,-1.3216323
1732440203491,2024-11-24T09:23:23.491Z,23126,-8.5653353E-4,-0.70080626,-1.3216323
1732440203500,2024-11-24T09:23:23.500Z,23135,0.0783611,-0.6343403,-1.2171755
1732440203504,2024-11-24T09:23:23.504Z,23139,0.0783611,-0.6343403,-1.2171755
1732440203515,2024-11-24T09:23:23.515Z,23150,0.07795096,-0.6570976,-1.3712631
1732440203519,2024-11-24T09:23:23.519Z,23154,0.07795096,-0.6570976,-1.3712631
1732440203529,2024-11-24T09:23:23.529Z,23164,0.14284447,-0.72184926,-1.313927
1732440203532,2024-11-24T09:23:23.532Z,23167,0.14284447,-0.72184926,-1.313927
1732440203541,2024-11-24T09:23:23.541Z,23176,0.3179448,-0.6525686,-1.258587
1732440203545,2024-11-24T09:23:23.545Z,23180,0.3179448,-0.6525686,-1.258587
1732440203556,2024-11-24T09:23:23.556Z,23191,0.25628588,-0.6865581,-1.1510807
1732440203563,2024-11-24T09:23:23.563Z,23198,0.25628588,-0.6865581,-1.1510807
1732440203580,2024-11-24T09:23:23.580Z,23215,0.16079037,-0.65743726,-1.1919079
1732440203586,2024-11-24T09:23:23.586Z,23221,0.16079037,-0.65743726,-1.1919079
1732440203603,2024-11-24T09:23:23.603Z,23238,0.29530868,-0.73008543,-1.1061257
1732440203611,2024-11-24T09:23:23.611Z,23246,0.29530868,-0.73008543,-1.1061257
1732440203633,2024-11-24T09:23:23.633Z,23268,0.14179385,-0.72688526,-1.1657488
1732440203640,2024-11-24T09:23:23.640Z,23275,0.14179385,-0.72688526,-1.1657488
1732440203663,2024-11-24T09:23:23.663Z,23298,0.11469196,-0.7752648,-1.273846
1732440203667,2024-11-24T09:23:23.667Z,23302,0.11469196,-0.7752648,-1.273846
1732440203680,2024-11-24T09:23:23.680Z,23315,0.09892711,-0.9177012,-1.3125063
1732440203683,2024-11-24T09:23:23.683Z,23318,0.09892711,-0.9177012,-1.3125063
1732440203700,2024-11-24T09:23:23.700Z,23335,0.14642532,-0.9722138,-1.227451
1732440203707,2024-11-24T09:23:23.707Z,23342,0.14642532,-0.9722138,-1.227451
1732440203733,2024-11-24T09:23:23.733Z,23368,0.2055539,-1.0511484,-1.2483056
1732440203740,2024-11-24T09:23:23.740Z,23375,0.2055539,-1.0511484,-1.2483056
1732440203757,2024-11-24T09:23:23.757Z,23392,0.21883637,-1.1716375,-1.2409664
1732440203761,2024-11-24T09:23:23.761Z,23396,0.21883637,-1.1716375,-1.2409664
1732440203775,2024-11-24T09:23:23.775Z,23410,0.14379415,-1.082853,-1.1799695
1732440203779,2024-11-24T09:23:23.779Z,23414,0.14379415,-1.082853,-1.1799695
1732440203791,2024-11-24T09:23:23.791Z,23426,0.09934978,-1.0548086,-1.1081028
1732440203794,2024-11-24T09:23:23.794Z,23429,0.09934978,-1.0548086,-1.1081028
1732440203804,2024-11-24T09:23:23.804Z,23439,0.20423418,-0.73263645,-1.1425835
1732440203808,2024-11-24T09:23:23.808Z,23443,0.20423418,-0.73263645,-1.1425835
1732440203818,2024-11-24T09:23:23.818Z,23453,0.17604198,-0.72655314,-1.1796789
1732440203821,2024-11-24T09:23:23.821Z,23456,0.17604198,-0.72655314,-1.1796789
1732440203833,2024-11-24T09:23:23.833Z,23468,0.17499222,-0.7452454,-1.175427
1732440203836,2024-11-24T09:23:23.836Z,23471,0.17499222,-0.7452454,-1.175427
1732440203848,2024-11-24T09:23:23.848Z,23483,0.27944636,-0.77856266,-1.2062495
1732440203851,2024-11-24T09:23:23.851Z,23486,0.27944636,-0.77856266,-1.2062495
1732440203862,2024-11-24T09:23:23.862Z,23497,0.2284806,-0.8129512,-1.2042598
1732440203866,2024-11-24T09:23:23.866Z,23501,0.2284806,-0.8129512,-1.2042598
1732440203877,2024-11-24T09:23:23.877Z,23512,0.16110039,-0.8187607,-1.1945199
1732440203881,2024-11-24T09:23:23.881Z,23516,0.16110039,-0.8187607,-1.1945199
1732440203924,2024-11-24T09:23:23.924Z,23559,0.13170102,-0.89820915,-1.217826
1732440203928,2024-11-24T09:23:23.928Z,23563,0.13170102,-0.89820915,-1.217826
1732440203938,2024-11-24T09:23:23.938Z,23573,0.12560251,-0.9437457,-1.2314959
1732440203943,2024-11-24T09:23:23.943Z,23578,0.12560251,-0.9437457,-1.2314959
1732440203953,2024-11-24T09:23:23.953Z,23588,0.13542068,-0.9720199,-1.2347467
1732440203957,2024-11-24T09:23:23.957Z,23592,0.13542068,-0.9720199,-1.2347467
1732440203968,2024-11-24T09:23:23.968Z,23603,0.20507948,-0.93909746,-1.3497503
1732440203971,2024-11-24T09:23:23.971Z,23606,0.20507948,-0.93909746,-1.3497503
1732440203981,2024-11-24T09:23:23.981Z,23616,0.22876725,-0.9857602,-1.284853
1732440203984,2024-11-24T09:23:23.984Z,23619,0.22876725,-0.9857602,-1.284853
1732440203994,2024-11-24T09:23:23.994Z,23629,0.1538833,-1.000117,-1.2397611
1732440203997,2024-11-24T09:23:23.997Z,23632,0.1538833,-1.000117,-1.2397611
1732440204015,2024-11-24T09:23:24.015Z,23650,0.17709954,-0.80594206,-1.2605108
1732440204018,2024-11-24T09:23:24.018Z,23653,0.17709954,-0.80594206,-1.2605108
1732440204027,2024-11-24T09:23:24.027Z,23662,0.14758031,-0.80158544,-1.2707267
1732440204030,2024-11-24T09:23:24.030Z,23665,0.14758031,-0.80158544,-1.2707267
1732440204063,2024-11-24T09:23:24.063Z,23698,0.12956525,-0.7981854,-1.2505852
1732440204073,2024-11-24T09:23:24.073Z,23708,0.12956525,-0.7981854,-1.2505852
1732440204104,2024-11-24T09:23:24.104Z,23739,0.10816186,-0.8015056,-1.2804623
1732440204112,2024-11-24T09:23:24.112Z,23747,0.10816186,-0.8015056,-1.2804623
1732440204133,2024-11-24T09:23:24.133Z,23768,0.14829491,-0.8342111,-1.2114714
1732440204137,2024-11-24T09:23:24.137Z,23772,0.14829491,-0.8342111,-1.2114714
1732440204155,2024-11-24T09:23:24.155Z,23790,0.14166915,-0.832788,-1.2724706
1732440204163,2024-11-24T09:23:24.163Z,23798,0.14166915,-0.832788,-1.2724706
1732440204186,2024-11-24T09:23:24.186Z,23821,0.07613114,-0.8743805,-1.2992629
1732440204191,2024-11-24T09:23:24.191Z,23826,0.07613114,-0.8743805,-1.2992629
1732440204205,2024-11-24T09:23:24.205Z,23840,0.032317434,-0.883036,-1.2463492
1732440204209,2024-11-24T09:23:24.209Z,23844,0.032317434,-0.883036,-1.2463492
1732440204220,2024-11-24T09:23:24.220Z,23855,0.03519791,-0.8996912,-1.2623476
1732440204224,2024-11-24T09:23:24.224Z,23859,0.03519791,-0.8996912,-1.2623476
1732440204237,2024-11-24T09:23:24.237Z,23872,0.049414337,-0.86917293,-1.3295001
1732440204240,2024-11-24T09:23:24.240Z,23875,0.049414337,-0.86917293,-1.3295001
1732440204257,2024-11-24T09:23:24.257Z,23892,0.081494264,-0.8764168,-1.3052319
1732440204267,2024-11-24T09:23:24.267Z,23902,0.081494264,-0.8764168,-1.3052319
1732440204277,2024-11-24T09:23:24.277Z,23912,0.083406314,-0.87642616,-1.2618943
1732440204282,2024-11-24T09:23:24.282Z,23917,0.083406314,-0.87642616,-1.2618943
1732440204291,2024-11-24T09:23:24.291Z,23926,0.061850276,-0.86233497,-1.2965127
1732440204294,2024-11-24T09:23:24.294Z,23929,0.061850276,-0.86233497,-1.2965127
1732440204303,2024-11-24T09:23:24.303Z,23938,0.08012005,-0.8668565,-1.2879872
1732440204306,2024-11-24T09:23:24.306Z,23941,0.08012005,-0.8668565,-1.2879872
1732440204316,2024-11-24T09:23:24.316Z,23951,0.02279907,-0.8082047,-1.2495539
1732440204319,2024-11-24T09:23:24.319Z,23954,0.02279907,-0.8082047,-1.2495539
1732440204333,2024-11-24T09:23:24.333Z,23968,0.010073502,-0.7913647,-1.3129795
1732440204338,2024-11-24T09:23:24.338Z,23973,0.010073502,-0.7913647,-1.3129795
1732440204357,2024-11-24T09:23:24.357Z,23992,0.05707167,-0.7913308,-1.3481609
1732440204364,2024-11-24T09:23:24.364Z,23999,0.05707167,-0.7913308,-1.3481609
1732440204379,2024-11-24T09:23:24.379Z,24014,0.099200584,-0.817132,-1.2855524
1732440204386,2024-11-24T09:23:24.386Z,24021,0.099200584,-0.817132,-1.2855524
1732440204408,2024-11-24T09:23:24.408Z,24043,-0.0033717242,-0.76240116,-1.2102224
1732440204416,2024-11-24T09:23:24.416Z,24051,-0.0033717242,-0.76240116,-1.2102224
1732440204430,2024-11-24T09:23:24.430Z,24065,-0.059030894,-0.7713582,-1.2094285
1732440204433,2024-11-24T09:23:24.433Z,24068,-0.059030894,-0.7713582,-1.2094285
1732440204444,2024-11-24T09:23:24.444Z,24079,-0.07423249,-0.76971376,-1.2502232
1732440204448,2024-11-24T09:23:24.448Z,24083,-0.07423249,-0.76971376,-1.2502232
1732440204464,2024-11-24T09:23:24.464Z,24099,0.04079432,-0.80481577,-1.2812195
1732440204472,2024-11-24T09:23:24.472Z,24107,0.04079432,-0.80481577,-1.2812195
1732440204495,2024-11-24T09:23:24.495Z,24130,0.0065541314,-0.80738056,-1.2586291
1732440204500,2024-11-24T09:23:24.500Z,24135,0.0065541314,-0.80738056,-1.2586291
1732440204514,2024-11-24T09:23:24.514Z,24149,-0.014890498,-0.80229,-1.269772
1732440204518,2024-11-24T09:23:24.518Z,24153,-0.014890498,-0.80229,-1.269772
1732440204530,2024-11-24T09:23:24.530Z,24165,-0.010890456,-0.81311774,-1.284649
1732440204534,2024-11-24T09:23:24.534Z,24169,-0.010890456,-0.81311774,-1.284649
1732440204547,2024-11-24T09:23:24.547Z,24182,-0.089792244,-0.8147102,-1.1809071
1732440204551,2024-11-24T09:23:24.551Z,24186,-0.089792244,-0.8147102,-1.1809071
1732440204561,2024-11-24T09:23:24.561Z,24196,-0.10137559,-0.82021,-1.2227834
1732440204564,2024-11-24T09:23:24.564Z,24199,-0.10137559,-0.82021,-1.2227834
1732440204575,2024-11-24T09:23:24.575Z,24210,-0.057597596,-0.8787178,-1.3019754
1732440204577,2024-11-24T09:23:24.577Z,24212,-0.057597596,-0.8787178,-1.3019754
1732440204588,2024-11-24T09:23:24.588Z,24223,-0.043498307,-0.8830849,-1.2712322
1732440204591,2024-11-24T09:23:24.591Z,24226,-0.043498307,-0.8830849,-1.2712322
1732440204600,2024-11-24T09:23:24.600Z,24235,-0.11388916,-0.8503701,-1.2324814
1732440204603,2024-11-24T09:23:24.603Z,24238,-0.11388916,-0.8503701,-1.2324814
1732440204615,2024-11-24T09:23:24.615Z,24250,-0.10691286,-0.84046006,-1.1804452
1732440204618,2024-11-24T09:23:24.618Z,24253,-0.10691286,-0.84046006,-1.1804452
1732440204628,2024-11-24T09:23:24.628Z,24263,-0.09009977,-0.84346074,-1.2366197
1732440204632,2024-11-24T09:23:24.632Z,24267,-0.09009977,-0.84346074,-1.2366197
1732440204643,2024-11-24T09:23:24.643Z,24278,-0.045839265,-0.84698176,-1.2625934
1732440204646,2024-11-24T09:23:24.646Z,24281,-0.045839265,-0.84698176,-1.2625934
1732440204656,2024-11-24T09:23:24.656Z,24291,-0.034109708,-0.8082602,-1.276808
1732440204660,2024-11-24T09:23:24.660Z,24295,-0.034109708,-0.8082602,-1.276808
1732440204672,2024-11-24T09:23:24.672Z,24307,-0.06298229,-0.78870547,-1.2986647
1732440204675,2024-11-24T09:23:24.675Z,24310,-0.06298229,-0.78870547,-1.2986647
1732440204686,2024-11-24T09:23:24.686Z,24321,-0.036215853,-0.8152375,-1.2256675
1732440204689,2024-11-24T09:23:24.689Z,24324,-0.036215853,-0.8152375,-1.2256675
1732440204702,2024-11-24T09:23:24.702Z,24337,-0.095005326,-0.78206545,-1.2177215
1732440204705,2024-11-24T09:23:24.705Z,24340,-0.095005326,-0.78206545,-1.2177215
1732440204715,2024-11-24T09:23:24.715Z,24350,-0.0715126,-0.77742887,-1.2127597
1732440204718,2024-11-24T09:23:24.718Z,24353,-0.0715126,-0.77742887,-1.2127597
1732440204729,2024-11-24T09:23:24.729Z,24364,-0.090549976,-0.77386296,-1.2321402
1732440204732,2024-11-24T09:23:24.732Z,24367,-0.090549976,-0.77386296,-1.2321402
1732440204780,2024-11-24T09:23:24.780Z,24415,-0.0013629632,-0.7874014,-1.2228189
1732440204784,2024-11-24T09:23:24.784Z,24419,-0.0013629632,-0.7874014,-1.2228189
1732440204793,2024-11-24T09:23:24.793Z,24428,-0.08339966,-0.7513169,-1.2698003
1732440204796,2024-11-24T09:23:24.796Z,24431,-0.08339966,-0.7513169,-1.2698003
1732440204806,2024-11-24T09:23:24.806Z,24441,-0.061502483,-0.76678073,-1.255322
1732440204809,2024-11-24T09:23:24.809Z,24444,-0.061502483,-0.76678073,-1.255322
1732440204921,2024-11-24T09:23:24.921Z,24556,-0.10154508,-0.77242506,-1.2630196
1732440204929,2024-11-24T09:23:24.929Z,24564,-0.10154508,-0.77242506,-1.2630196
1732440204952,2024-11-24T09:23:24.952Z,24587,-0.13781881,-0.78439426,-1.3770622
1732440204956,2024-11-24T09:23:24.956Z,24591,-0.13781881,-0.78439426,-1.3770622
1732440204972,2024-11-24T09:23:24.972Z,24607,-0.03728074,-0.8272581,-1.3152688
1732440204977,2024-11-24T09:23:24.977Z,24612,-0.03728074,-0.8272581,-1.3152688
1732440205015,2024-11-24T09:23:25.015Z,24650,-0.081766866,-0.7452816,-1.2074939
1732440205025,2024-11-24T09:23:25.025Z,24660,-0.081766866,-0.7452816,-1.2074939
1732440205055,2024-11-24T09:23:25.055Z,24690,-0.09166272,-0.7374691,-1.1740878
1732440205065,2024-11-24T09:23:25.065Z,24700,-0.09166272,-0.7374691,-1.1740878
1732440205091,2024-11-24T09:23:25.091Z,24726,-0.14328109,-0.7316519,-1.2544174
1732440205094,2024-11-24T09:23:25.094Z,24729,-0.14328109,-0.7316519,-1.2544174
1732440205105,2024-11-24T09:23:25.105Z,24740,-0.12087571,-0.79667115,-1.2632359
1732440205108,2024-11-24T09:23:25.108Z,24743,-0.12087571,-0.79667115,-1.2632359
1732440205118,2024-11-24T09:23:25.118Z,24753,-0.08410911,-0.8008037,-1.2913176
1732440205121,2024-11-24T09:23:25.121Z,24756,-0.08410911,-0.8008037,-1.2913176
1732440205144,2024-11-24T09:23:25.144Z,24779,-0.043150768,-0.7994091,-1.2627789
1732440205153,2024-11-24T09:23:25.153Z,24788,-0.043150768,-0.7994091,-1.2627789
1732440205179,2024-11-24T09:23:25.179Z,24814,0.017636985,-0.78455734,-1.2371681
1732440205187,2024-11-24T09:23:25.187Z,24822,0.017636985,-0.78455734,-1.2371681
1732440205207,2024-11-24T09:23:25.207Z,24842,-0.05302082,-0.7515812,-1.2134272
1732440205211,2024-11-24T09:23:25.211Z,24846,-0.05302082,-0.7515812,-1.2134272
1732440205225,2024-11-24T09:23:25.225Z,24860,-0.108216524,-0.70760304,-1.2096266
1732440205233,2024-11-24T09:23:25.233Z,24868,-0.108216524,-0.70760304,-1.2096266
1732440205247,2024-11-24T09:23:25.247Z,24882,-0.16429402,-0.72409964,-1.2422668
1732440205251,2024-11-24T09:23:25.251Z,24886,-0.16429402,-0.72409964,-1.2422668
1732440205262,2024-11-24T09:23:25.262Z,24897,-0.12356872,-0.7451846,-1.256594
1732440205266,2024-11-24T09:23:25.266Z,24901,-0.12356872,-0.7451846,-1.256594
1732440205278,2024-11-24T09:23:25.278Z,24913,-0.16695803,-0.7017584,-1.2715416
1732440205281,2024-11-24T09:23:25.281Z,24916,-0.16695803,-0.7017584,-1.2715416
1732440205292,2024-11-24T09:23:25.292Z,24927,-0.11747162,-0.7442963,-1.2407522
1732440205294,2024-11-24T09:23:25.294Z,24929,-0.11747162,-0.7442963,-1.2407522
1732440205305,2024-11-24T09:23:25.305Z,24940,-0.11787622,-0.7534726,-1.1958308
1732440205308,2024-11-24T09:23:25.308Z,24943,-0.11787622,-0.7534726,-1.1958308
1732440205320,2024-11-24T09:23:25.320Z,24955,-0.21750522,-0.708266,-1.1795157
1732440205323,2024-11-24T09:23:25.323Z,24958,-0.21750522,-0.708266,-1.1795157
1732440205332,2024-11-24T09:23:25.332Z,24967,-0.23737316,-0.7021781,-1.2783184
1732440205335,2024-11-24T09:23:25.335Z,24970,-0.23737316,-0.7021781,-1.2783184
1732440205344,2024-11-24T09:23:25.344Z,24979,-0.17371394,-0.75180614,-1.3346405
1732440205347,2024-11-24T09:23:25.347Z,24982,-0.17371394,-0.75180614,-1.3346405
1732440205357,2024-11-24T09:23:25.357Z,24992,-0.17590266,-0.7553461,-1.2371035
1732440205360,2024-11-24T09:23:25.360Z,24995,-0.17590266,-0.7553461,-1.2371035
1732440205371,2024-11-24T09:23:25.371Z,25006,-0.20855762,-0.7488891,-1.1121114
1732440205374,2024-11-24T09:23:25.374Z,25009,-0.20855762,-0.7488891,-1.1121114
1732440205384,2024-11-24T09:23:25.384Z,25019,-0.30071557,-0.7354454,-1.1708441
1732440205386,2024-11-24T09:23:25.386Z,25021,-0.30071557,-0.7354454,-1.1708441
1732440205406,2024-11-24T09:23:25.406Z,25041,-0.26978704,-0.7560924,-1.2834228
1732440205409,2024-11-24T09:23:25.409Z,25044,-0.26978704,-0.7560924,-1.2834228
1732440205419,2024-11-24T09:23:25.419Z,25054,-0.22504592,-0.7666094,-1.2861463
1732440205422,2024-11-24T09:23:25.422Z,25057,-0.22504592,-0.7666094,-1.2861463
1732440205431,2024-11-24T09:23:25.431Z,25066,-0.19414926,-0.7746497,-1.237569
1732440205434,2024-11-24T09:23:25.434Z,25069,-0.19414926,-0.7746497,-1.237569
1732440205452,2024-11-24T09:23:25.452Z,25087,-0.19636342,-0.7426815,-1.1325392
1732440205456,2024-11-24T09:23:25.456Z,25091,-0.19636342,-0.7426815,-1.1325392
1732440205545,2024-11-24T09:23:25.545Z,25180,-0.21975161,-0.70580584,-1.1806118
1732440205548,2024-11-24T09:23:25.548Z,25183,-0.21975161,-0.70580584,-1.1806118
1732440205556,2024-11-24T09:23:25.556Z,25191,-0.22130732,-0.696061,-1.2456435
1732440205559,2024-11-24T09:23:25.559Z,25194,-0.22130732,-0.696061,-1.2456435
1732440205569,2024-11-24T09:23:25.569Z,25204,-0.19974422,-0.7309251,-1.2623944
1732440205572,2024-11-24T09:23:25.572Z,25207,-0.19974422,-0.7309251,-1.2623944
1732440205635,2024-11-24T09:23:25.635Z,25270,-0.25768277,-0.7411488,-1.1880658
1732440205638,2024-11-24T09:23:25.638Z,25273,-0.25768277,-0.7411488,-1.1880658
1732440205651,2024-11-24T09:23:25.651Z,25286,-0.27287325,-0.7415834,-1.2367336
1732440205655,2024-11-24T09:23:25.655Z,25290,-0.27287325,-0.7415834,-1.2367336
1732440205668,2024-11-24T09:23:25.668Z,25303,-0.26753828,-0.75814587,-1.2800304
1732440205672,2024-11-24T09:23:25.672Z,25307,-0.26753828,-0.75814587,-1.2800304
1732440205687,2024-11-24T09:23:25.687Z,25322,-0.13727209,-0.797975,-1.2567279
1732440205691,2024-11-24T09:23:25.691Z,25326,-0.13727209,-0.797975,-1.2567279
1732440205704,2024-11-24T09:23:25.704Z,25339,-0.19111407,-0.7314826,-1.2391281
1732440205707,2024-11-24T09:23:25.707Z,25342,-0.19111407,-0.7314826,-1.2391281
1732440205718,2024-11-24T09:23:25.718Z,25353,-0.28092435,-0.6811415,-1.218671
1732440205722,2024-11-24T09:23:25.722Z,25357,-0.28092435,-0.6811415,-1.218671
1732440205732,2024-11-24T09:23:25.732Z,25367,-0.3065276,-0.6901343,-1.2284285
1732440205736,2024-11-24T09:23:25.736Z,25371,-0.3065276,-0.6901343,-1.2284285
1732440205745,2024-11-24T09:23:25.745Z,25380,-0.27173924,-0.6720631,-1.1817566
1732440205748,2024-11-24T09:23:25.748Z,25383,-0.27173924,-0.6720631,-1.1817566
1732440205758,2024-11-24T09:23:25.758Z,25393,-0.29202038,-0.68930286,-1.1950034
1732440205760,2024-11-24T09:23:25.760Z,25395,-0.29202038,-0.68930286,-1.1950034
1732440205769,2024-11-24T09:23:25.769Z,25404,-0.32471794,-0.6866496,-1.2608999
1732440205772,2024-11-24T09:23:25.772Z,25407,-0.32471794,-0.6866496,-1.2608999
1732440205814,2024-11-24T09:23:25.814Z,25449,-0.15219209,-0.78754556,-1.286736
1732440205818,2024-11-24T09:23:25.818Z,25453,-0.15219209,-0.78754556,-1.286736
1732440205829,2024-11-24T09:23:25.829Z,25464,-0.19470917,-0.75804144,-1.2091135
1732440205834,2024-11-24T09:23:25.834Z,25469,-0.19470917,-0.75804144,-1.2091135
1732440205844,2024-11-24T09:23:25.844Z,25479,-0.27164888,-0.7394804,-1.1676519
1732440205847,2024-11-24T09:23:25.847Z,25482,-0.27164888,-0.7394804,-1.1676519
1732440205905,2024-11-24T09:23:25.905Z,25540,-0.33373356,-0.7222377,-1.2555532
1732440205908,2024-11-24T09:23:25.908Z,25543,-0.33373356,-0.7222377,-1.2555532
1732440205919,2024-11-24T09:23:25.919Z,25554,-0.33721203,-0.7243139,-1.242652
1732440205923,2024-11-24T09:23:25.923Z,25558,-0.33721203,-0.7243139,-1.242652
1732440205934,2024-11-24T09:23:25.934Z,25569,-0.2572811,-0.7409131,-1.2825552
1732440205939,2024-11-24T09:23:25.939Z,25574,-0.2572811,-0.7409131,-1.2825552
1732440206042,2024-11-24T09:23:26.042Z,25677,-0.24349485,-0.77349776,-1.2149338
1732440206049,2024-11-24T09:23:26.049Z,25684,-0.24349485,-0.77349776,-1.2149338
1732440206069,2024-11-24T09:23:26.069Z,25704,-0.19492671,-0.76407915,-1.2956576
1732440206074,2024-11-24T09:23:26.074Z,25709,-0.19492671,-0.76407915,-1.2956576
1732440206089,2024-11-24T09:23:26.089Z,25724,-0.119885296,-0.802332,-1.3281972
1732440206093,2024-11-24T09:23:26.093Z,25728,-0.119885296,-0.802332,-1.3281972
1732440206108,2024-11-24T09:23:26.108Z,25743,-0.16018,-0.771946,-1.1726466
1732440206112,2024-11-24T09:23:26.112Z,25747,-0.16018,-0.771946,-1.1726466
1732440206131,2024-11-24T09:23:26.131Z,25766,-0.1268545,-0.8083333,-1.211361
1732440206135,2024-11-24T09:23:26.135Z,25770,-0.1268545,-0.8083333,-1.211361
1732440206147,2024-11-24T09:23:26.147Z,25782,-0.20972352,-0.7886676,-1.1313221
1732440206151,2024-11-24T09:23:26.151Z,25786,-0.20972352,-0.7886676,-1.1313221
1732440206162,2024-11-24T09:23:26.162Z,25797,-0.3217906,-0.7674187,-1.0346576
1732440206165,2024-11-24T09:23:26.165Z,25800,-0.3217906,-0.7674187,-1.0346576
1732440206175,2024-11-24T09:23:26.175Z,25810,-0.3234446,-0.82439786,-1.2111728
1732440206178,2024-11-24T09:23:26.178Z,25813,-0.3234446,-0.82439786,-1.2111728
1732440206219,2024-11-24T09:23:26.219Z,25854,-0.31740713,-0.8339927,-1.2418264
1732440206223,2024-11-24T09:23:26.223Z,25858,-0.31740713,-0.8339927,-1.2418264
1732440206233,2024-11-24T09:23:26.233Z,25868,-0.19677635,-0.8683354,-1.215024
1732440206236,2024-11-24T09:23:26.236Z,25871,-0.19677635,-0.8683354,-1.215024
1732440206248,2024-11-24T09:23:26.248Z,25883,-0.38251793,-0.79855424,-1.1610916
1732440206252,2024-11-24T09:23:26.252Z,25887,-0.38251793,-0.79855424,-1.1610916
1732440206262,2024-11-24T09:23:26.262Z,25897,-0.18034527,-0.8387051,-1.3007624
1732440206264,2024-11-24T09:23:26.264Z,25899,-0.18034527,-0.8387051,-1.3007624
1732440206274,2024-11-24T09:23:26.274Z,25909,-0.29891288,-0.768025,-1.1158897
1732440206277,2024-11-24T09:23:26.277Z,25912,-0.29891288,-0.768025,-1.1158897
1732440206287,2024-11-24T09:23:26.287Z,25922,-0.44953963,-0.7357396,-1.120424
1732440206290,2024-11-24T09:23:26.290Z,25925,-0.44953963,-0.7357396,-1.120424
1732440206308,2024-11-24T09:23:26.308Z,25943,-0.3677082,-0.74534106,-1.1744664
1732440206312,2024-11-24T09:23:26.312Z,25947,-0.3677082,-0.74534106,-1.1744664
1732440206324,2024-11-24T09:23:26.324Z,25959,-0.3127416,-0.7762472,-1.2469103
1732440206327,2024-11-24T09:23:26.327Z,25962,-0.3127416,-0.7762472,-1.2469103
1732440206343,2024-11-24T09:23:26.343Z,25978,-0.3051319,-0.7786648,-1.1016715
1732440206351,2024-11-24T09:23:26.351Z,25986,-0.3051319,-0.7786648,-1.1016715
1732440206370,2024-11-24T09:23:26.370Z,26005,-0.3706193,-0.7319584,-1.0899528
1732440206375,2024-11-24T09:23:26.375Z,26010,-0.3706193,-0.7319584,-1.0899528
1732440206385,2024-11-24T09:23:26.385Z,26020,-0.34454674,-0.7435239,-1.0973737
1732440206388,2024-11-24T09:23:26.388Z,26023,-0.34454674,-0.7435239,-1.0973737
1732440206400,2024-11-24T09:23:26.400Z,26035,-0.33237186,-0.7444702,-1.2446433
1732440206404,2024-11-24T09:23:26.404Z,26039,-0.33237186,-0.7444702,-1.2446433
1732440206415,2024-11-24T09:23:26.415Z,26050,-0.23935118,-0.785569,-1.3102095
1732440206419,2024-11-24T09:23:26.419Z,26054,-0.23935118,-0.785569,-1.3102095
1732440206447,2024-11-24T09:23:26.447Z,26082,-0.36268637,-0.7374553,-1.1257366
1732440206450,2024-11-24T09:23:26.450Z,26085,-0.36268637,-0.7374553,-1.1257366
1732440206464,2024-11-24T09:23:26.464Z,26099,-0.35887858,-0.7575666,-1.1488682
1732440206468,2024-11-24T09:23:26.468Z,26103,-0.35887858,-0.7575666,-1.1488682
1732440206479,2024-11-24T09:23:26.479Z,26114,-0.35293928,-0.76497245,-1.1744345
1732440206482,2024-11-24T09:23:26.482Z,26117,-0.35293928,-0.76497245,-1.1744345
1732440206492,2024-11-24T09:23:26.492Z,26127,-0.22419646,-0.8108704,-1.2620697
1732440206495,2024-11-24T09:23:26.495Z,26130,-0.22419646,-0.8108704,-1.2620697
1732440206506,2024-11-24T09:23:26.506Z,26141,-0.2570149,-0.7936918,-1.2522304
1732440206509,2024-11-24T09:23:26.509Z,26144,-0.2570149,-0.7936918,-1.2522304
1732440206517,2024-11-24T09:23:26.517Z,26152,-0.29810265,-0.7939585,-1.1666111
1732440206520,2024-11-24T09:23:26.520Z,26155,-0.29810265,-0.7939585,-1.1666111
1732440206535,2024-11-24T09:23:26.535Z,26170,-0.3071697,-0.74995875,-1.2786584
1732440206538,2024-11-24T09:23:26.538Z,26173,-0.3071697,-0.74995875,-1.2786584
1732440206547,2024-11-24T09:23:26.547Z,26182,-0.31559223,-0.7559402,-1.2035613
1732440206550,2024-11-24T09:23:26.550Z,26185,-0.31559223,-0.7559402,-1.2035613
1732440206578,2024-11-24T09:23:26.578Z,26213,-0.36894587,-0.73821497,-1.2335801
1732440206581,2024-11-24T09:23:26.581Z,26216,-0.36894587,-0.73821497,-1.2335801
1732440206591,2024-11-24T09:23:26.591Z,26226,-0.2685703,-0.7158282,-1.2882254
1732440206594,2024-11-24T09:23:26.594Z,26229,-0.2685703,-0.7158282,-1.2882254
1732440206603,2024-11-24T09:23:26.603Z,26238,-0.26529947,-0.71421707,-1.275376
1732440206606,2024-11-24T09:23:26.606Z,26241,-0.26529947,-0.71421707,-1.275376
1732440206615,2024-11-24T09:23:26.615Z,26250,-0.24134266,-0.7299214,-1.2531772
1732440206618,2024-11-24T09:23:26.618Z,26253,-0.24134266,-0.7299214,-1.2531772
1732440206632,2024-11-24T09:23:26.632Z,26267,-0.21208484,-0.7518165,-1.1857427
1732440206639,2024-11-24T09:23:26.639Z,26274,-0.21208484,-0.7518165,-1.1857427
1732440206659,2024-11-24T09:23:26.659Z,26294,-0.2491378,-0.7367783,-1.187846
1732440206665,2024-11-24T09:23:26.665Z,26300,-0.2491378,-0.7367783,-1.187846
1732440206677,2024-11-24T09:23:26.677Z,26312,-0.22729011,-0.74259937,-1.2417251
1732440206679,2024-11-24T09:23:26.679Z,26314,-0.22729011,-0.74259937,-1.2417251
1732440206690,2024-11-24T09:23:26.690Z,26325,-0.22937293,-0.7655002,-1.25368
1732440206694,2024-11-24T09:23:26.694Z,26329,-0.22937293,-0.7655002,-1.25368
1732440206706,2024-11-24T09:23:26.706Z,26341,-0.17430958,-0.7796251,-1.240567
1732440206712,2024-11-24T09:23:26.712Z,26347,-0.17430958,-0.7796251,-1.240567
1732440206723,2024-11-24T09:23:26.723Z,26358,-0.18559374,-0.7861547,-1.2210448
1732440206726,2024-11-24T09:23:26.726Z,26361,-0.18559374,-0.7861547,-1.2210448
1732440206734,2024-11-24T09:23:26.734Z,26369,-0.22149836,-0.7891467,-1.1668766
1732440206737,2024-11-24T09:23:26.737Z,26372,-0.22149836,-0.7891467,-1.1668766
1732440206747,2024-11-24T09:23:26.747Z,26382,-0.20359218,-0.7781316,-1.2299533
1732440206750,2024-11-24T09:23:26.750Z,26385,-0.20359218,-0.7781316,-1.2299533
1732440206760,2024-11-24T09:23:26.760Z,26395,-0.1990444,-0.7992708,-1.251978
1732440206762,2024-11-24T09:23:26.762Z,26397,-0.1990444,-0.7992708,-1.251978
1732440206771,2024-11-24T09:23:26.771Z,26406,-0.25302258,-0.7835929,-1.2715164
1732440206774,2024-11-24T09:23:26.774Z,26409,-0.25302258,-0.7835929,-1.2715164
1732440206784,2024-11-24T09:23:26.784Z,26419,-0.23256359,-0.7989154,-1.2368213
1732440206787,2024-11-24T09:23:26.787Z,26422,-0.23256359,-0.7989154,-1.2368213
1732440206795,2024-11-24T09:23:26.795Z,26430,-0.26455057,-0.78832924,-1.225119
1732440206797,2024-11-24T09:23:26.797Z,26432,-0.26455057,-0.78832924,-1.225119
1732440206806,2024-11-24T09:23:26.806Z,26441,-0.24971366,-0.78211784,-1.231583
1732440206809,2024-11-24T09:23:26.809Z,26444,-0.24971366,-0.78211784,-1.231583
1732440206818,2024-11-24T09:23:26.818Z,26453,-0.24268065,-0.7377699,-1.2841285
1732440206822,2024-11-24T09:23:26.822Z,26457,-0.24268065,-0.7377699,-1.2841285
1732440206832,2024-11-24T09:23:26.832Z,26467,-0.30846104,-0.7213206,-1.2983513
1732440206836,2024-11-24T09:23:26.836Z,26471,-0.30846104,-0.7213206,-1.2983513
1732440206851,2024-11-24T09:23:26.851Z,26486,-0.1948391,-0.7352507,-1.2622877
1732440206858,2024-11-24T09:23:26.858Z,26493,-0.1948391,-0.7352507,-1.2622877
1732440206878,2024-11-24T09:23:26.878Z,26513,-0.21205999,-0.7159423,-1.2338398
1732440206885,2024-11-24T09:23:26.885Z,26520,-0.21205999,-0.7159423,-1.2338398
1732440206908,2024-11-24T09:23:26.908Z,26543,-0.23874202,-0.68950003,-1.2323526
1732440206915,2024-11-24T09:23:26.915Z,26550,-0.23874202,-0.68950003,-1.2323526
1732440206937,2024-11-24T09:23:26.937Z,26572,-0.24384521,-0.68908507,-1.2426016
1732440206945,2024-11-24T09:23:26.945Z,26580,-0.24384521,-0.68908507,-1.2426016
1732440206969,2024-11-24T09:23:26.969Z,26604,-0.21420941,-0.7069995,-1.2625997
1732440206975,2024-11-24T09:23:26.975Z,26610,-0.21420941,-0.7069995,-1.2625997
1732440206996,2024-11-24T09:23:26.996Z,26631,-0.19982928,-0.6769068,-1.2081054
1732440207002,2024-11-24T09:23:27.002Z,26637,-0.19982928,-0.6769068,-1.2081054
1732440207015,2024-11-24T09:23:27.015Z,26650,-0.21536551,-0.6754063,-1.1685768
1732440207019,2024-11-24T09:23:27.019Z,26654,-0.21536551,-0.6754063,-1.1685768
1732440207039,2024-11-24T09:23:27.039Z,26674,-0.18378782,-0.6530741,-1.1590927
1732440207043,2024-11-24T09:23:27.043Z,26678,-0.18378782,-0.6530741,-1.1590927
1732440207056,2024-11-24T09:23:27.056Z,26691,-0.280582,-0.6216983,-1.1670734
1732440207060,2024-11-24T09:23:27.060Z,26695,-0.280582,-0.6216983,-1.1670734
1732440207073,2024-11-24T09:23:27.073Z,26708,-0.22995771,-0.6503049,-1.1839455
1732440207077,2024-11-24T09:23:27.077Z,26712,-0.22995771,-0.6503049,-1.1839455
1732440207262,2024-11-24T09:23:27.262Z,26897,-0.25797102,-0.66795254,-1.1767688
1732440207269,2024-11-24T09:23:27.269Z,26904,-0.25797102,-0.66795254,-1.1767688
1732440207294,2024-11-24T09:23:27.294Z,26929,-0.2258565,-0.68658406,-1.199923
1732440207302,2024-11-24T09:23:27.302Z,26937,-0.2258565,-0.68658406,-1.199923
1732440207347,2024-11-24T09:23:27.347Z,26982,-0.2968883,-0.7068425,-1.2013804
1732440207353,2024-11-24T09:23:27.353Z,26988,-0.2968883,-0.7068425,-1.2013804
1732440207391,2024-11-24T09:23:27.391Z,27026,-0.23223265,-0.71846855,-1.2365487
1732440207397,2024-11-24T09:23:27.397Z,27032,-0.23223265,-0.71846855,-1.2365487
1732440207415,2024-11-24T09:23:27.415Z,27050,-0.22047137,-0.72600806,-1.2174358
1732440207419,2024-11-24T09:23:27.419Z,27054,-0.22047137,-0.72600806,-1.2174358
1732440207434,2024-11-24T09:23:27.434Z,27069,-0.21867312,-0.761697,-1.1391987
1732440207438,2024-11-24T09:23:27.438Z,27073,-0.21867312,-0.761697,-1.1391987
1732440207481,2024-11-24T09:23:27.481Z,27116,-0.2605033,-0.7677841,-1.1245198
1732440207488,2024-11-24T09:23:27.488Z,27123,-0.2605033,-0.7677841,-1.1245198
1732440207504,2024-11-24T09:23:27.504Z,27139,-0.2498787,-0.7977872,-1.1499009
1732440207508,2024-11-24T09:23:27.508Z,27143,-0.2498787,-0.7977872,-1.1499009
1732440207523,2024-11-24T09:23:27.523Z,27158,-0.23927486,-0.9649199,-1.1716913
1732440207528,2024-11-24T09:23:27.528Z,27163,-0.23927486,-0.9649199,-1.1716913
1732440207665,2024-11-24T09:23:27.665Z,27300,-0.23443198,-1.0018512,-1.2301055
1732440207673,2024-11-24T09:23:27.673Z,27308,-0.23443198,-1.0018512,-1.2301055
1732440207697,2024-11-24T09:23:27.697Z,27332,-0.29605243,-0.9838091,-1.2198974
1732440207703,2024-11-24T09:23:27.703Z,27338,-0.29605243,-0.9838091,-1.2198974
1732440207716,2024-11-24T09:23:27.716Z,27351,-0.35512173,-0.9612271,-1.1852283
1732440207721,2024-11-24T09:23:27.721Z,27356,-0.35512173,-0.9612271,-1.1852283
1732440207735,2024-11-24T09:23:27.735Z,27370,-0.2613271,-0.87679094,-1.137443
1732440207740,2024-11-24T09:23:27.740Z,27375,-0.2613271,-0.87679094,-1.137443
1732440207753,2024-11-24T09:23:27.753Z,27388,-0.28216138,-0.8495999,-1.1450237
1732440207756,2024-11-24T09:23:27.756Z,27391,-0.28216138,-0.8495999,-1.1450237
1732440207769,2024-11-24T09:23:27.769Z,27404,-0.28286996,-0.8621543,-1.180998
1732440207775,2024-11-24T09:23:27.775Z,27410,-0.28286996,-0.8621543,-1.180998
1732440207796,2024-11-24T09:23:27.796Z,27431,-0.14832328,-0.8673377,-1.1793652
1732440207798,2024-11-24T09:23:27.798Z,27433,-0.14832328,-0.8673377,-1.1793652
1732440207812,2024-11-24T09:23:27.812Z,27447,-0.1374829,-0.8051112,-1.1973013
1732440207816,2024-11-24T09:23:27.816Z,27451,-0.1374829,-0.8051112,-1.1973013
1732440207828,2024-11-24T09:23:27.828Z,27463,-0.07010802,-0.80213886,-1.2231119
1732440207832,2024-11-24T09:23:27.832Z,27467,-0.07010802,-0.80213886,-1.2231119
1732440207848,2024-11-24T09:23:27.848Z,27483,-0.11901381,-0.7952618,-1.157865
1732440207852,2024-11-24T09:23:27.852Z,27487,-0.11901381,-0.7952618,-1.157865
1732440207871,2024-11-24T09:23:27.871Z,27506,-0.2217666,-0.7492475,-1.0984586
1732440207879,2024-11-24T09:23:27.879Z,27514,-0.2217666,-0.7492475,-1.0984586
1732440207901,2024-11-24T09:23:27.901Z,27536,-0.18192232,-0.7487044,-1.1156605
1732440207907,2024-11-24T09:23:27.907Z,27542,-0.18192232,-0.7487044,-1.1156605
1732440207927,2024-11-24T09:23:27.927Z,27562,-0.12778305,-0.7565991,-1.1296341
1732440207932,2024-11-24T09:23:27.932Z,27567,-0.12778305,-0.7565991,-1.1296341
1732440207947,2024-11-24T09:23:27.947Z,27582,-0.05372952,-0.7717982,-1.2232277
1732440207951,2024-11-24T09:23:27.951Z,27586,-0.05372952,-0.7717982,-1.2232277
1732440207964,2024-11-24T09:23:27.964Z,27599,-0.002859861,-0.7642964,-1.21378
1732440207968,2024-11-24T09:23:27.968Z,27603,-0.002859861,-0.7642964,-1.21378
1732440207981,2024-11-24T09:23:27.981Z,27616,-0.11288413,-0.6956728,-1.1214201
1732440207984,2024-11-24T09:23:27.984Z,27619,-0.11288413,-0.6956728,-1.1214201
1732440207996,2024-11-24T09:23:27.996Z,27631,-0.22377947,-0.6367559,-1.0854781
1732440207999,2024-11-24T09:23:27.999Z,27634,-0.22377947,-0.6367559,-1.0854781
1732440208009,2024-11-24T09:23:28.009Z,27644,-0.098540306,-0.6696821,-1.1769214
1732440208012,2024-11-24T09:23:28.012Z,27647,-0.098540306,-0.6696821,-1.1769214
1732440208021,2024-11-24T09:23:28.021Z,27656,-0.014346335,-0.68761885,-1.20472
1732440208024,2024-11-24T09:23:28.024Z,27659,-0.014346335,-0.68761885,-1.20472
1732440208032,2024-11-24T09:23:28.032Z,27667,-0.081599355,-0.68310386,-1.2075937
1732440208034,2024-11-24T09:23:28.034Z,27669,-0.081599355,-0.68310386,-1.2075937
1732440208043,2024-11-24T09:23:28.043Z,27678,-0.04209291,-0.68968093,-1.160151
1732440208046,2024-11-24T09:23:28.046Z,27681,-0.04209291,-0.68968093,-1.160151
1732440208054,2024-11-24T09:23:28.054Z,27689,-0.20913106,-0.61968476,-1.0759892
1732440208058,2024-11-24T09:23:28.058Z,27693,-0.20913106,-0.61968476,-1.0759892
1732440208065,2024-11-24T09:23:28.065Z,27700,-0.048522525,-0.6676659,-1.2149206
1732440208068,2024-11-24T09:23:28.068Z,27703,-0.048522525,-0.6676659,-1.2149206
1732440208076,2024-11-24T09:23:28.076Z,27711,-0.048361957,-0.6512878,-1.1939195
1732440208078,2024-11-24T09:23:28.078Z,27713,-0.048361957,-0.6512878,-1.1939195
1732440208085,2024-11-24T09:23:28.085Z,27720,-0.14993504,-0.61150706,-1.1448882
1732440208088,2024-11-24T09:23:28.088Z,27723,-0.14993504,-0.61150706,-1.1448882
1732440208109,2024-11-24T09:23:28.109Z,27744,-0.11399618,-0.6362133,-1.2144562
1732440208111,2024-11-24T09:23:28.111Z,27746,-0.11399618,-0.6362133,-1.2144562
1732440208120,2024-11-24T09:23:28.120Z,27755,-0.1726614,-0.6274471,-1.1434687
1732440208123,2024-11-24T09:23:28.123Z,27758,-0.1726614,-0.6274471,-1.1434687
1732440208131,2024-11-24T09:23:28.131Z,27766,-0.15371056,-0.6298453,-1.1311604
1732440208133,2024-11-24T09:23:28.133Z,27768,-0.15371056,-0.6298453,-1.1311604
1732440208155,2024-11-24T09:23:28.155Z,27790,-0.32019997,-0.5772166,-1.0448489
1732440208157,2024-11-24T09:23:28.157Z,27792,-0.32019997,-0.5772166,-1.0448489
1732440208167,2024-11-24T09:23:28.167Z,27802,-0.13920704,-0.6210747,-1.143181
1732440208170,2024-11-24T09:23:28.170Z,27805,-0.13920704,-0.6210747,-1.143181
1732440208197,2024-11-24T09:23:28.197Z,27832,0.12808277,-0.6725085,-1.1339684
1732440208200,2024-11-24T09:23:28.200Z,27835,0.12808277,-0.6725085,-1.1339684
1732440208211,2024-11-24T09:23:28.211Z,27846,0.043851767,-0.6681707,-1.229869
1732440208214,2024-11-24T09:23:28.214Z,27849,0.043851767,-0.6681707,-1.229869
1732440208226,2024-11-24T09:23:28.226Z,27861,0.0045768423,-0.65099865,-1.1400787
1732440208229,2024-11-24T09:23:28.229Z,27864,0.0045768423,-0.65099865,-1.1400787
1732440208242,2024-11-24T09:23:28.242Z,27877,-0.10433148,-0.5999076,-1.109247
1732440208245,2024-11-24T09:23:28.245Z,27880,-0.10433148,-0.5999076,-1.109247
1732440208255,2024-11-24T09:23:28.255Z,27890,0.1634958,-0.6765297,-1.2846855
1732440208258,2024-11-24T09:23:28.258Z,27893,0.1634958,-0.6765297,-1.2846855
1732440208267,2024-11-24T09:23:28.267Z,27902,0.16225046,-0.7187503,-1.1974403
1732440208270,2024-11-24T09:23:28.270Z,27905,0.16225046,-0.7187503,-1.1974403
1732440208287,2024-11-24T09:23:28.287Z,27922,-0.13606915,-0.5973181,-1.1554542
1732440208291,2024-11-24T09:23:28.291Z,27926,-0.13606915,-0.5973181,-1.1554542
1732440208299,2024-11-24T09:23:28.299Z,27934,0.08654389,-0.6645036,-1.2125837
1732440208302,2024-11-24T09:23:28.302Z,27937,0.08654389,-0.6645036,-1.2125837
1732440208311,2024-11-24T09:23:28.311Z,27946,0.26808968,-0.7526588,-1.2145436
1732440208313,2024-11-24T09:23:28.313Z,27948,0.26808968,-0.7526588,-1.2145436
1732440208332,2024-11-24T09:23:28.332Z,27967,0.16805668,-0.66771203,-1.1978524
1732440208334,2024-11-24T09:23:28.334Z,27969,0.16805668,-0.66771203,-1.1978524
1732440208379,2024-11-24T09:23:28.379Z,28014,-0.0023422842,-0.6469042,-1.2296429
1732440208383,2024-11-24T09:23:28.383Z,28018,-0.0023422842,-0.6469042,-1.2296429
1732440208426,2024-11-24T09:23:28.426Z,28061,0.0432101,-0.65881467,-1.1917893
1732440208430,2024-11-24T09:23:28.430Z,28065,0.0432101,-0.65881467,-1.1917893
1732440208442,2024-11-24T09:23:28.442Z,28077,-0.034212887,-0.6328078,-1.2246078
1732440208445,2024-11-24T09:23:28.445Z,28080,-0.034212887,-0.6328078,-1.2246078
1732440208457,2024-11-24T09:23:28.457Z,28092,0.12900104,-0.64664805,-1.2070732
1732440208460,2024-11-24T09:23:28.460Z,28095,0.12900104,-0.64664805,-1.2070732
1732440208471,2024-11-24T09:23:28.471Z,28106,0.09595382,-0.65769446,-1.1924772
1732440208475,2024-11-24T09:23:28.475Z,28110,0.09595382,-0.65769446,-1.1924772
1732440208489,2024-11-24T09:23:28.489Z,28124,0.067423254,-0.6180139,-1.1804504
1732440208493,2024-11-24T09:23:28.493Z,28128,0.067423254,-0.6180139,-1.1804504
1732440208504,2024-11-24T09:23:28.504Z,28139,0.14067286,-0.60959125,-1.2795604
1732440208508,2024-11-24T09:23:28.508Z,28143,0.14067286,-0.60959125,-1.2795604
1732440208518,2024-11-24T09:23:28.518Z,28153,0.17637712,-0.57387257,-1.2714907
1732440208522,2024-11-24T09:23:28.522Z,28157,0.17637712,-0.57387257,-1.2714907
1732440208534,2024-11-24T09:23:28.534Z,28169,0.14921734,-0.5346579,-1.3031754
1732440208538,2024-11-24T09:23:28.538Z,28173,0.14921734,-0.5346579,-1.3031754
1732440208557,2024-11-24T09:23:28.557Z,28192,0.19435737,-0.49746776,-1.179819
1732440208560,2024-11-24T09:23:28.560Z,28195,0.19435737,-0.49746776,-1.179819
1732440208605,2024-11-24T09:23:28.605Z,28240,0.10541059,-0.5221853,-1.162535
1732440208609,2024-11-24T09:23:28.609Z,28244,0.10541059,-0.5221853,-1.162535
1732440208620,2024-11-24T09:23:28.620Z,28255,0.08323828,-0.49800014,-1.1734508
1732440208623,2024-11-24T09:23:28.623Z,28258,0.08323828,-0.49800014,-1.1734508
1732440208634,2024-11-24T09:23:28.634Z,28269,0.11309508,-0.49533546,-1.2293545
1732440208637,2024-11-24T09:23:28.637Z,28272,0.11309508,-0.49533546,-1.2293545
1732440208656,2024-11-24T09:23:28.656Z,28291,0.36195543,-0.5515483,-1.2188889
1732440208666,2024-11-24T09:23:28.666Z,28301,0.36195543,-0.5515483,-1.2188889
1732440208693,2024-11-24T09:23:28.693Z,28328,0.3336412,-0.58666605,-1.1914715
1732440208699,2024-11-24T09:23:28.699Z,28334,0.3336412,-0.58666605,-1.1914715
1732440208719,2024-11-24T09:23:28.719Z,28354,0.16738586,-0.5081522,-1.1724659
1732440208725,2024-11-24T09:23:28.725Z,28360,0.16738586,-0.5081522,-1.1724659
1732440208745,2024-11-24T09:23:28.745Z,28380,0.12438363,-0.7032979,-1.1641306
1732440208752,2024-11-24T09:23:28.752Z,28387,0.12438363,-0.7032979,-1.1641306
1732440208773,2024-11-24T09:23:28.773Z,28408,0.1636463,-0.7287101,-1.1347114
1732440208780,2024-11-24T09:23:28.780Z,28415,0.1636463,-0.7287101,-1.1347114
1732440208801,2024-11-24T09:23:28.801Z,28436,0.06633274,-0.7315333,-1.2352273
1732440208805,2024-11-24T09:23:28.805Z,28440,0.06633274,-0.7315333,-1.2352273
1732440208818,2024-11-24T09:23:28.818Z,28453,0.16355275,-0.80747306,-1.2304841
1732440208822,2024-11-24T09:23:28.822Z,28457,0.16355275,-0.80747306,-1.2304841
1732440208834,2024-11-24T09:23:28.834Z,28469,0.18804857,-0.79848737,-1.2627376
1732440208837,2024-11-24T09:23:28.837Z,28472,0.18804857,-0.79848737,-1.2627376
1732440208848,2024-11-24T09:23:28.848Z,28483,0.20105807,-0.7872038,-1.276564
1732440208851,2024-11-24T09:23:28.851Z,28486,0.20105807,-0.7872038,-1.276564
1732440208874,2024-11-24T09:23:28.874Z,28509,0.15746942,-0.7065775,-1.1705621
1732440208877,2024-11-24T09:23:28.877Z,28512,0.15746942,-0.7065775,-1.1705621
1732440208885,2024-11-24T09:23:28.885Z,28520,0.1177979,-0.68000406,-1.2001666
1732440208888,2024-11-24T09:23:28.888Z,28523,0.1177979,-0.68000406,-1.2001666
1732440208898,2024-11-24T09:23:28.898Z,28533,0.10823854,-0.68231463,-1.2151966
1732440208900,2024-11-24T09:23:28.900Z,28535,0.10823854,-0.68231463,-1.2151966
1732440208968,2024-11-24T09:23:28.968Z,28603,0.05230308,-0.6901643,-1.2101701
1732440208978,2024-11-24T09:23:28.978Z,28613,0.05230308,-0.6901643,-1.2101701
1732440209000,2024-11-24T09:23:29Z,28635,0.05770361,-0.69401914,-1.2160617
1732440209007,2024-11-24T09:23:29.007Z,28642,0.05770361,-0.69401914,-1.2160617
1732440209025,2024-11-24T09:23:29.025Z,28660,0.11222848,-0.7025925,-1.1687388
1732440209031,2024-11-24T09:23:29.031Z,28666,0.11222848,-0.7025925,-1.1687388
1732440209044,2024-11-24T09:23:29.044Z,28679,0.05153453,-0.7116817,-1.1591235
1732440209048,2024-11-24T09:23:29.048Z,28683,0.05153453,-0.7116817,-1.1591235
1732440209066,2024-11-24T09:23:29.066Z,28701,0.16523087,-0.7504789,-1.1837476
1732440209073,2024-11-24T09:23:29.073Z,28708,0.16523087,-0.7504789,-1.1837476
1732440209096,2024-11-24T09:23:29.096Z,28731,0.052495155,-0.715576,-1.1649063
1732440209102,2024-11-24T09:23:29.102Z,28737,0.052495155,-0.715576,-1.1649063
1732440209122,2024-11-24T09:23:29.122Z,28757,-0.02210759,-0.70773154,-1.1451167
1732440209128,2024-11-24T09:23:29.128Z,28763,-0.02210759,-0.70773154,-1.1451167
1732440209147,2024-11-24T09:23:29.147Z,28782,0.055185344,-0.71607673,-1.1815959
1732440209153,2024-11-24T09:23:29.153Z,28788,0.055185344,-0.71607673,-1.1815959
1732440209172,2024-11-24T09:23:29.172Z,28807,0.025505777,-0.69916856,-1.1902487
1732440209179,2024-11-24T09:23:29.179Z,28814,0.025505777,-0.69916856,-1.1902487
1732440209202,2024-11-24T09:23:29.202Z,28837,-0.04127237,-0.6822644,-1.2320994
1732440209209,2024-11-24T09:23:29.209Z,28844,-0.04127237,-0.6822644,-1.2320994
1732440209224,2024-11-24T09:23:29.224Z,28859,0.02195502,-0.7182339,-1.1810286
1732440209228,2024-11-24T09:23:29.228Z,28863,0.02195502,-0.7182339,-1.1810286
1732440209241,2024-11-24T09:23:29.241Z,28876,-0.03653436,-0.67336386,-1.2038125
1732440209246,2024-11-24T09:23:29.246Z,28881,-0.03653436,-0.67336386,-1.2038125
1732440209259,2024-11-24T09:23:29.259Z,28894,0.003602347,-0.657849,-1.2522093
1732440209263,2024-11-24T09:23:29.263Z,28898,0.003602347,-0.657849,-1.2522093
1732440209275,2024-11-24T09:23:29.275Z,28910,0.011163734,-0.6821997,-1.2054322
1732440209280,2024-11-24T09:23:29.280Z,28915,0.011163734,-0.6821997,-1.2054322
1732440209290,2024-11-24T09:23:29.290Z,28925,-0.014626178,-0.6910375,-1.1924042
1732440209294,2024-11-24T09:23:29.294Z,28929,-0.014626178,-0.6910375,-1.1924042
1732440209304,2024-11-24T09:23:29.304Z,28939,-0.0021876968,-0.6796416,-1.1703181
1732440209307,2024-11-24T09:23:29.307Z,28942,-0.0021876968,-0.6796416,-1.1703181
1732440209316,2024-11-24T09:23:29.316Z,28951,6.806732E-4,-0.67355597,-1.1720444
1732440209319,2024-11-24T09:23:29.319Z,28954,6.806732E-4,-0.67355597,-1.1720444
1732440209329,2024-11-24T09:23:29.329Z,28964,0.052885436,-0.7280327,-1.2353384
1732440209332,2024-11-24T09:23:29.332Z,28967,0.052885436,-0.7280327,-1.2353384
1732440209339,2024-11-24T09:23:29.339Z,28974,0.06252103,-0.68292814,-1.2102467
1732440209342,2024-11-24T09:23:29.342Z,28977,0.06252103,-0.68292814,-1.2102467
1732440209350,2024-11-24T09:23:29.350Z,28985,0.03381946,-0.6655659,-1.2092046
1732440209353,2024-11-24T09:23:29.353Z,28988,0.03381946,-0.6655659,-1.2092046
1732440209362,2024-11-24T09:23:29.362Z,28997,2.7047022E-4,-0.68285596,-1.1731724
1732440209365,2024-11-24T09:23:29.365Z,29000,2.7047022E-4,-0.68285596,-1.1731724
1732440209372,2024-11-24T09:23:29.372Z,29007,-0.08900731,-0.6479541,-1.2205697
1732440209375,2024-11-24T09:23:29.375Z,29010,-0.08900731,-0.6479541,-1.2205697
1732440209385,2024-11-24T09:23:29.385Z,29020,-0.07408996,-0.6968282,-1.2430049
1732440209388,2024-11-24T09:23:29.388Z,29023,-0.07408996,-0.6968282,-1.2430049
1732440209400,2024-11-24T09:23:29.400Z,29035,-0.05821023,-0.70392203,-1.2800115
1732440209403,2024-11-24T09:23:29.403Z,29038,-0.05821023,-0.70392203,-1.2800115
1732440209413,2024-11-24T09:23:29.413Z,29048,0.013590806,-0.72174764,-1.2215347
1732440209416,2024-11-24T09:23:29.416Z,29051,0.013590806,-0.72174764,-1.2215347
1732440209428,2024-11-24T09:23:29.428Z,29063,0.0051674885,-0.6927291,-1.2109451
1732440209430,2024-11-24T09:23:29.430Z,29065,0.0051674885,-0.6927291,-1.2109451
1732440209438,2024-11-24T09:23:29.438Z,29073,-0.0951043,-0.67263097,-1.225415
1732440209440,2024-11-24T09:23:29.440Z,29075,-0.0951043,-0.67263097,-1.225415
1732440209450,2024-11-24T09:23:29.450Z,29085,-0.0888154,-0.6856121,-1.2994199
1732440209452,2024-11-24T09:23:29.452Z,29087,-0.0888154,-0.6856121,-1.2994199
1732440209461,2024-11-24T09:23:29.461Z,29096,-0.022612635,-0.7200837,-1.22883
1732440209464,2024-11-24T09:23:29.464Z,29099,-0.022612635,-0.7200837,-1.22883
1732440209471,2024-11-24T09:23:29.471Z,29106,-0.05056733,-0.6314194,-1.1989999
1732440209473,2024-11-24T09:23:29.473Z,29108,-0.05056733,-0.6314194,-1.1989999
1732440209484,2024-11-24T09:23:29.484Z,29119,-0.021825,-0.61424756,-1.1766645
1732440209489,2024-11-24T09:23:29.489Z,29124,-0.021825,-0.61424756,-1.1766645
1732440209510,2024-11-24T09:23:29.510Z,29145,-0.068217315,-0.57792926,-1.2186964
1732440209516,2024-11-24T09:23:29.516Z,29151,-0.068217315,-0.57792926,-1.2186964
1732440209536,2024-11-24T09:23:29.536Z,29171,-0.067173176,-0.5937519,-1.2388867
1732440209542,2024-11-24T09:23:29.542Z,29177,-0.067173176,-0.5937519,-1.2388867
1732440209559,2024-11-24T09:23:29.559Z,29194,-0.08588223,-0.61541706,-1.255607
1732440209563,2024-11-24T09:23:29.563Z,29198,-0.08588223,-0.61541706,-1.255607
1732440209573,2024-11-24T09:23:29.573Z,29208,-0.022837605,-0.6369408,-1.1693084
1732440209576,2024-11-24T09:23:29.576Z,29211,-0.022837605,-0.6369408,-1.1693084
1732440209586,2024-11-24T09:23:29.586Z,29221,-0.05266151,-0.61476064,-1.175533
1732440209588,2024-11-24T09:23:29.588Z,29223,-0.05266151,-0.61476064,-1.175533
1732440209597,2024-11-24T09:23:29.597Z,29232,-0.15483385,-0.5889429,-1.301039
1732440209600,2024-11-24T09:23:29.600Z,29235,-0.15483385,-0.5889429,-1.301039
1732440209608,2024-11-24T09:23:29.608Z,29243,-0.050995596,-0.6767432,-1.2744825
1732440209611,2024-11-24T09:23:29.611Z,29246,-0.050995596,-0.6767432,-1.2744825
1732440209619,2024-11-24T09:23:29.619Z,29254,-0.11871589,-0.67461216,-1.2257044
1732440209621,2024-11-24T09:23:29.621Z,29256,-0.11871589,-0.67461216,-1.2257044
1732440209630,2024-11-24T09:23:29.630Z,29265,-0.095186844,-0.67572653,-1.1964825
1732440209632,2024-11-24T09:23:29.632Z,29267,-0.095186844,-0.67572653,-1.1964825
1732440209640,2024-11-24T09:23:29.640Z,29275,-0.12269185,-0.674389,-1.2219015
1732440209643,2024-11-24T09:23:29.643Z,29278,-0.12269185,-0.674389,-1.2219015
1732440209651,2024-11-24T09:23:29.651Z,29286,-7.9517026E-4,-0.6659164,-1.2060455
1732440209654,2024-11-24T09:23:29.654Z,29289,-7.9517026E-4,-0.6659164,-1.2060455
1732440209664,2024-11-24T09:23:29.664Z,29299,-0.061272115,-0.60163105,-1.1791735
1732440209666,2024-11-24T09:23:29.666Z,29301,-0.061272115,-0.60163105,-1.1791735
1732440209673,2024-11-24T09:23:29.673Z,29308,-0.11751929,-0.6037015,-1.2928584
1732440209676,2024-11-24T09:23:29.676Z,29311,-0.11751929,-0.6037015,-1.2928584
1732440209728,2024-11-24T09:23:29.728Z,29363,-0.16917314,-0.63723135,-1.2586428
1732440209731,2024-11-24T09:23:29.731Z,29366,-0.16917314,-0.63723135,-1.2586428
1732440209740,2024-11-24T09:23:29.740Z,29375,-0.14155181,-0.633794,-1.2134773
1732440209743,2024-11-24T09:23:29.743Z,29378,-0.14155181,-0.633794,-1.2134773
1732440209751,2024-11-24T09:23:29.751Z,29386,-0.06999371,-0.663938,-1.2098446
1732440209754,2024-11-24T09:23:29.754Z,29389,-0.06999371,-0.663938,-1.2098446
1732440209781,2024-11-24T09:23:29.781Z,29416,-0.076122336,-0.64951193,-1.2112732
1732440209789,2024-11-24T09:23:29.789Z,29424,-0.076122336,-0.64951193,-1.2112732
1732440209812,2024-11-24T09:23:29.812Z,29447,-0.07259041,-0.67162365,-1.2007703
1732440209815,2024-11-24T09:23:29.815Z,29450,-0.07259041,-0.67162365,-1.2007703
1732440209826,2024-11-24T09:23:29.826Z,29461,-0.09796881,-0.67201203,-1.2216048
1732440209829,2024-11-24T09:23:29.829Z,29464,-0.09796881,-0.67201203,-1.2216048
1732440209839,2024-11-24T09:23:29.839Z,29474,-0.044420034,-0.6085273,-1.2118187
1732440209843,2024-11-24T09:23:29.843Z,29478,-0.044420034,-0.6085273,-1.2118187
1732440209853,2024-11-24T09:23:29.853Z,29488,-0.0054875915,-0.60230714,-1.1746094
1732440209856,2024-11-24T09:23:29.856Z,29491,-0.0054875915,-0.60230714,-1.1746094
1732440209866,2024-11-24T09:23:29.866Z,29501,-0.012768588,-0.5940396,-1.1866604
1732440209869,2024-11-24T09:23:29.869Z,29504,-0.012768588,-0.5940396,-1.1866604
1732440209878,2024-11-24T09:23:29.878Z,29513,-0.024058355,-0.60924965,-1.1727946
1732440209880,2024-11-24T09:23:29.880Z,29515,-0.024058355,-0.60924965,-1.1727946
1732440209888,2024-11-24T09:23:29.888Z,29523,-0.05410188,-0.5770803,-1.1714691
1732440209890,2024-11-24T09:23:29.890Z,29525,-0.05410188,-0.5770803,-1.1714691
1732440209898,2024-11-24T09:23:29.898Z,29533,-0.07518084,-0.5685788,-1.218104
1732440209901,2024-11-24T09:23:29.901Z,29536,-0.07518084,-0.5685788,-1.218104
1732440209909,2024-11-24T09:23:29.909Z,29544,-0.0143443905,-0.6305031,-1.232318
1732440209912,2024-11-24T09:23:29.912Z,29547,-0.0143443905,-0.6305031,-1.232318
1732440209919,2024-11-24T09:23:29.919Z,29554,-0.04858402,-0.61691785,-1.2229018
1732440209921,2024-11-24T09:23:29.921Z,29556,-0.04858402,-0.61691785,-1.2229018
1732440209998,2024-11-24T09:23:29.998Z,29633,-0.08777269,-0.6118841,-1.1765515
1732440210001,2024-11-24T09:23:30.001Z,29636,-0.08777269,-0.6118841,-1.1765515
1732440210009,2024-11-24T09:23:30.009Z,29644,-0.1288156,-0.5930386,-1.2128493
1732440210012,2024-11-24T09:23:30.012Z,29647,-0.1288156,-0.5930386,-1.2128493
1732440210020,2024-11-24T09:23:30.020Z,29655,-0.0299407,-0.61550874,-1.1747794
1732440210023,2024-11-24T09:23:30.023Z,29658,-0.0299407,-0.61550874,-1.1747794
1732440210031,2024-11-24T09:23:30.031Z,29666,-0.072197735,-0.56931436,-1.163559
1732440210033,2024-11-24T09:23:30.033Z,29668,-0.072197735,-0.56931436,-1.163559
1732440210044,2024-11-24T09:23:30.044Z,29679,-0.0032307878,-0.58232546,-1.18952
1732440210047,2024-11-24T09:23:30.047Z,29682,-0.0032307878,-0.58232546,-1.18952
1732440210058,2024-11-24T09:23:30.058Z,29693,0.0014574028,-0.5926136,-1.1337581
1732440210064,2024-11-24T09:23:30.064Z,29699,0.0014574028,-0.5926136,-1.1337581
1732440210086,2024-11-24T09:23:30.086Z,29721,-0.049129024,-0.5498174,-1.1526942
1732440210088,2024-11-24T09:23:30.088Z,29723,-0.049129024,-0.5498174,-1.1526942
1732440210133,2024-11-24T09:23:30.133Z,29768,-0.10110494,-0.5452493,-1.1066926
1732440210135,2024-11-24T09:23:30.135Z,29770,-0.10110494,-0.5452493,-1.1066926
1732440210145,2024-11-24T09:23:30.145Z,29780,-0.07026882,-0.5778129,-1.1680051
1732440210149,2024-11-24T09:23:30.149Z,29784,-0.07026882,-0.5778129,-1.1680051
1732440210159,2024-11-24T09:23:30.159Z,29794,-0.034903068,-0.572453,-1.2707838
1732440210163,2024-11-24T09:23:30.163Z,29798,-0.034903068,-0.572453,-1.2707838
1732440210179,2024-11-24T09:23:30.179Z,29814,-0.29744256,-0.4914463,-1.2535591
1732440210181,2024-11-24T09:23:30.181Z,29816,-0.29744256,-0.4914463,-1.2535591
1732440210229,2024-11-24T09:23:30.229Z,29864,-0.18158929,-0.549421,-1.1628201
1732440210237,2024-11-24T09:23:30.237Z,29872,-0.18158929,-0.549421,-1.1628201
1732440210256,2024-11-24T09:23:30.256Z,29891,-0.13819145,-0.55511874,-1.0617689
1732440210259,2024-11-24T09:23:30.259Z,29894,-0.13819145,-0.55511874,-1.0617689
1732440210269,2024-11-24T09:23:30.269Z,29904,-0.14156312,-0.5769684,-1.1875699
1732440210273,2024-11-24T09:23:30.273Z,29908,-0.14156312,-0.5769684,-1.1875699
1732440210364,2024-11-24T09:23:30.364Z,29999,-0.20433871,-0.5967363,-1.2983829
1732440210369,2024-11-24T09:23:30.369Z,30004,-0.20433871,-0.5967363,-1.2983829
1732440210380,2024-11-24T09:23:30.380Z,30015,-0.16066392,-0.612381,-1.1758946
1732440210383,2024-11-24T09:23:30.383Z,30018,-0.16066392,-0.612381,-1.1758946
1732440210392,2024-11-24T09:23:30.392Z,30027,-0.25354674,-0.5871855,-1.1077138
1732440210396,2024-11-24T09:23:30.396Z,30031,-0.25354674,-0.5871855,-1.1077138
1732440210407,2024-11-24T09:23:30.407Z,30042,-0.20766304,-0.58571875,-1.2674149
1732440210410,2024-11-24T09:23:30.410Z,30045,-0.20766304,-0.58571875,-1.2674149
1732440210420,2024-11-24T09:23:30.420Z,30055,-0.17458375,-0.60621864,-1.1385685
1732440210423,2024-11-24T09:23:30.423Z,30058,-0.17458375,-0.60621864,-1.1385685
1732440210432,2024-11-24T09:23:30.432Z,30067,-0.108715,-0.6372265,-1.1393332
1732440210435,2024-11-24T09:23:30.435Z,30070,-0.108715,-0.6372265,-1.1393332
1732440210447,2024-11-24T09:23:30.447Z,30082,-0.16011123,-0.6138274,-1.1756787
1732440210450,2024-11-24T09:23:30.450Z,30085,-0.16011123,-0.6138274,-1.1756787
1732440210459,2024-11-24T09:23:30.459Z,30094,-0.16247638,-0.68666923,-1.1498245
1732440210461,2024-11-24T09:23:30.461Z,30096,-0.16247638,-0.68666923,-1.1498245
1732440210469,2024-11-24T09:23:30.469Z,30104,-0.12907872,-0.69279325,-1.0713444
1732440210471,2024-11-24T09:23:30.471Z,30106,-0.12907872,-0.69279325,-1.0713444
1732440210492,2024-11-24T09:23:30.492Z,30127,-0.15041295,-0.6785766,-1.0862685
1732440210494,2024-11-24T09:23:30.494Z,30129,-0.15041295,-0.6785766,-1.0862685
1732440210503,2024-11-24T09:23:30.503Z,30138,-0.16883837,-0.6555436,-1.3239018
1732440210505,2024-11-24T09:23:30.505Z,30140,-0.16883837,-0.6555436,-1.3239018
1732440210514,2024-11-24T09:23:30.514Z,30149,-0.17170638,-0.69040227,-1.2880709
1732440210517,2024-11-24T09:23:30.517Z,30152,-0.17170638,-0.69040227,-1.2880709
1732440210540,2024-11-24T09:23:30.540Z,30175,-0.18733236,-0.6814311,-1.230564
1732440210547,2024-11-24T09:23:30.547Z,30182,-0.18733236,-0.6814311,-1.230564
1732440210583,2024-11-24T09:23:30.583Z,30218,-0.23548457,-0.70194024,-1.1047186
1732440210586,2024-11-24T09:23:30.586Z,30221,-0.23548457,-0.70194024,-1.1047186
1732440210595,2024-11-24T09:23:30.595Z,30230,-0.22289278,-0.68273985,-1.1486155
1732440210598,2024-11-24T09:23:30.598Z,30233,-0.22289278,-0.68273985,-1.1486155
1732440210607,2024-11-24T09:23:30.607Z,30242,-0.13349602,-0.7146098,-1.2095003
1732440210610,2024-11-24T09:23:30.610Z,30245,-0.13349602,-0.7146098,-1.2095003
1732440210619,2024-11-24T09:23:30.619Z,30254,-0.31152484,-0.6286056,-1.2429034
1732440210622,2024-11-24T09:23:30.622Z,30257,-0.31152484,-0.6286056,-1.2429034
1732440210632,2024-11-24T09:23:30.632Z,30267,-0.2461131,-0.67214656,-1.2453289
1732440210636,2024-11-24T09:23:30.636Z,30271,-0.2461131,-0.67214656,-1.2453289
1732440210675,2024-11-24T09:23:30.675Z,30310,-0.13308017,-0.70817995,-1.2361578
1732440210678,2024-11-24T09:23:30.678Z,30313,-0.13308017,-0.70817995,-1.2361578
1732440210689,2024-11-24T09:23:30.689Z,30324,-0.21299675,-0.6265856,-1.0434185
1732440210692,2024-11-24T09:23:30.692Z,30327,-0.21299675,-0.6265856,-1.0434185
1732440210718,2024-11-24T09:23:30.718Z,30353,-0.06979386,-0.6541023,-1.1669546
1732440210721,2024-11-24T09:23:30.721Z,30356,-0.06979386,-0.6541023,-1.1669546
1732440210732,2024-11-24T09:23:30.732Z,30367,-0.08020972,-0.6526989,-1.1484965
1732440210735,2024-11-24T09:23:30.735Z,30370,-0.08020972,-0.6526989,-1.1484965
1732440210746,2024-11-24T09:23:30.746Z,30381,-0.023754662,-0.6921982,-1.0927569
1732440210749,2024-11-24T09:23:30.749Z,30384,-0.023754662,-0.6921982,-1.0927569
1732440210759,2024-11-24T09:23:30.759Z,30394,-0.1889026,-0.64407843,-1.0032989
1732440210763,2024-11-24T09:23:30.763Z,30398,-0.1889026,-0.64407843,-1.0032989
1732440210773,2024-11-24T09:23:30.773Z,30408,0.04034646,-0.73673093,-1.1890124
1732440210776,2024-11-24T09:23:30.776Z,30411,0.04034646,-0.73673093,-1.1890124
1732440210785,2024-11-24T09:23:30.785Z,30420,-0.063128345,-0.6778041,-1.0107322
1732440210787,2024-11-24T09:23:30.787Z,30422,-0.063128345,-0.6778041,-1.0107322
1732440210808,2024-11-24T09:23:30.808Z,30443,-0.24717116,-0.6143835,-0.98134685
1732440210811,2024-11-24T09:23:30.811Z,30446,-0.24717116,-0.6143835,-0.98134685
1732440210819,2024-11-24T09:23:30.819Z,30454,-0.22475192,-0.6345364,-1.213276
1732440210821,2024-11-24T09:23:30.821Z,30456,-0.22475192,-0.6345364,-1.213276
1732440210830,2024-11-24T09:23:30.830Z,30465,-0.051071644,-0.73037195,-1.2321072
1732440210833,2024-11-24T09:23:30.833Z,30468,-0.051071644,-0.73037195,-1.2321072
1732440210841,2024-11-24T09:23:30.841Z,30476,-0.11533087,-0.6818486,-1.2617897
1732440210844,2024-11-24T09:23:30.844Z,30479,-0.11533087,-0.6818486,-1.2617897
1732440210907,2024-11-24T09:23:30.907Z,30542,-0.22181085,-0.67393553,-1.1175174
1732440210913,2024-11-24T09:23:30.913Z,30548,-0.22181085,-0.67393553,-1.1175174
1732440210938,2024-11-24T09:23:30.938Z,30573,-0.27404854,-0.64255136,-1.0270529
1732440210943,2024-11-24T09:23:30.943Z,30578,-0.27404854,-0.64255136,-1.0270529
1732440210991,2024-11-24T09:23:30.991Z,30626,-0.34733236,-0.6067397,-1.0842593
1732440210997,2024-11-24T09:23:30.997Z,30632,-0.34733236,-0.6067397,-1.0842593
1732440211018,2024-11-24T09:23:31.018Z,30653,-0.16298923,-0.6606962,-1.2821438
1732440211022,2024-11-24T09:23:31.022Z,30657,-0.16298923,-0.6606962,-1.2821438
1732440211035,2024-11-24T09:23:31.035Z,30670,-0.25108784,-0.6463269,-1.2795045
1732440211039,2024-11-24T09:23:31.039Z,30674,-0.25108784,-0.6463269,-1.2795045
1732440211053,2024-11-24T09:23:31.053Z,30688,-0.21734354,-0.6586469,-1.373441
1732440211058,2024-11-24T09:23:31.058Z,30693,-0.21734354,-0.6586469,-1.373441
1732440211071,2024-11-24T09:23:31.071Z,30706,-0.074831836,-0.6746014,-1.3252563
1732440211074,2024-11-24T09:23:31.074Z,30709,-0.074831836,-0.6746014,-1.3252563
1732440211086,2024-11-24T09:23:31.086Z,30721,-0.13963094,-0.63157487,-1.2670887
1732440211089,2024-11-24T09:23:31.089Z,30724,-0.13963094,-0.63157487,-1.2670887
1732440211099,2024-11-24T09:23:31.099Z,30734,-0.18984312,-0.6622444,-1.0610652
1732440211102,2024-11-24T09:23:31.102Z,30737,-0.18984312,-0.6622444,-1.0610652
1732440211111,2024-11-24T09:23:31.111Z,30746,-0.24361236,-0.6340495,-1.1160834
1732440211114,2024-11-24T09:23:31.114Z,30749,-0.24361236,-0.6340495,-1.1160834
1732440211122,2024-11-24T09:23:31.122Z,30757,-0.25535655,-0.6219501,-1.1686543
1732440211125,2024-11-24T09:23:31.125Z,30760,-0.25535655,-0.6219501,-1.1686543
1732440211134,2024-11-24T09:23:31.134Z,30769,-0.11931801,-0.7135109,-1.2928348
1732440211136,2024-11-24T09:23:31.136Z,30771,-0.11931801,-0.7135109,-1.2928348
1732440211145,2024-11-24T09:23:31.145Z,30780,-0.110906154,-0.6931056,-1.213679
1732440211148,2024-11-24T09:23:31.148Z,30783,-0.110906154,-0.6931056,-1.213679
1732440211167,2024-11-24T09:23:31.167Z,30802,-0.1686241,-0.643117,-1.1463338
1732440211169,2024-11-24T09:23:31.169Z,30804,-0.1686241,-0.643117,-1.1463338
1732440211177,2024-11-24T09:23:31.177Z,30812,-0.18698326,-0.6669943,-1.2415911
1732440211179,2024-11-24T09:23:31.179Z,30814,-0.18698326,-0.6669943,-1.2415911
1732440211187,2024-11-24T09:23:31.187Z,30822,-0.24141683,-0.6434425,-1.2376226
1732440211189,2024-11-24T09:23:31.189Z,30824,-0.24141683,-0.6434425,-1.2376226
1732440211211,2024-11-24T09:23:31.211Z,30846,-0.23427674,-0.6352687,-1.2643174
1732440211214,2024-11-24T09:23:31.214Z,30849,-0.23427674,-0.6352687,-1.2643174
1732440211221,2024-11-24T09:23:31.221Z,30856,-0.2610061,-0.66018045,-1.285224
1732440211224,2024-11-24T09:23:31.224Z,30859,-0.2610061,-0.66018045,-1.285224
1732440211233,2024-11-24T09:23:31.233Z,30868,-0.1738203,-0.6777238,-1.198337
1732440211236,2024-11-24T09:23:31.236Z,30871,-0.1738203,-0.6777238,-1.198337
1732440211245,2024-11-24T09:23:31.245Z,30880,-0.21794054,-0.656599,-1.1905189
1732440211248,2024-11-24T09:23:31.248Z,30883,-0.21794054,-0.656599,-1.1905189
1732440211258,2024-11-24T09:23:31.258Z,30893,-0.16838989,-0.6577215,-1.243844
1732440211261,2024-11-24T09:23:31.261Z,30896,-0.16838989,-0.6577215,-1.243844
1732440211269,2024-11-24T09:23:31.269Z,30904,-0.17225823,-0.6546116,-1.223703
1732440211271,2024-11-24T09:23:31.271Z,30906,-0.17225823,-0.6546116,-1.223703
1732440211279,2024-11-24T09:23:31.279Z,30914,-0.21982084,-0.62011826,-1.280231
1732440211281,2024-11-24T09:23:31.281Z,30916,-0.21982084,-0.62011826,-1.280231
1732440211305,2024-11-24T09:23:31.305Z,30940,-0.084027395,-0.65925527,-1.215297
1732440211309,2024-11-24T09:23:31.309Z,30944,-0.084027395,-0.65925527,-1.215297
1732440211318,2024-11-24T09:23:31.318Z,30953,-0.07877019,-0.6611774,-1.1620505
1732440211320,2024-11-24T09:23:31.320Z,30955,-0.07877019,-0.6611774,-1.1620505
1732440211351,2024-11-24T09:23:31.351Z,30986,-0.12543467,-0.63732564,-1.2006785
1732440211358,2024-11-24T09:23:31.358Z,30993,-0.12543467,-0.63732564,-1.2006785
1732440211379,2024-11-24T09:23:31.379Z,31014,-0.15977877,-0.6023415,-1.2861195
1732440211385,2024-11-24T09:23:31.385Z,31020,-0.15977877,-0.6023415,-1.2861195
1732440211401,2024-11-24T09:23:31.401Z,31036,-0.12183952,-0.62970465,-1.2930545
1732440211404,2024-11-24T09:23:31.404Z,31039,-0.12183952,-0.62970465,-1.2930545
1732440211417,2024-11-24T09:23:31.417Z,31052,-0.03977001,-0.6401439,-1.2118264
1732440211421,2024-11-24T09:23:31.421Z,31056,-0.03977001,-0.6401439,-1.2118264
1732440211432,2024-11-24T09:23:31.432Z,31067,-0.1188369,-0.63830256,-1.1981322
1732440211436,2024-11-24T09:23:31.436Z,31071,-0.1188369,-0.63830256,-1.1981322
1732440211446,2024-11-24T09:23:31.446Z,31081,-0.11337272,-0.6334645,-1.2109034
1732440211449,2024-11-24T09:23:31.449Z,31084,-0.11337272,-0.6334645,-1.2109034
1732440211458,2024-11-24T09:23:31.458Z,31093,-0.17498168,-0.61081123,-1.1656897
1732440211461,2024-11-24T09:23:31.461Z,31096,-0.17498168,-0.61081123,-1.1656897
1732440211470,2024-11-24T09:23:31.470Z,31105,-0.18309936,-0.5944979,-1.2240493
1732440211473,2024-11-24T09:23:31.473Z,31108,-0.18309936,-0.5944979,-1.2240493
1732440211481,2024-11-24T09:23:31.481Z,31116,-0.13734294,-0.6178614,-1.1751144
1732440211484,2024-11-24T09:23:31.484Z,31119,-0.13734294,-0.6178614,-1.1751144
1732440211491,2024-11-24T09:23:31.491Z,31126,-0.15989819,-0.6163931,-1.1627874
1732440211494,2024-11-24T09:23:31.494Z,31129,-0.15989819,-0.6163931,-1.1627874
1732440211502,2024-11-24T09:23:31.502Z,31137,-0.19434805,-0.5886154,-1.1606338
1732440211504,2024-11-24T09:23:31.504Z,31139,-0.19434805,-0.5886154,-1.1606338
1732440211512,2024-11-24T09:23:31.512Z,31147,-0.2042318,-0.57221127,-1.2029265
1732440211515,2024-11-24T09:23:31.515Z,31150,-0.2042318,-0.57221127,-1.2029265
1732440211522,2024-11-24T09:23:31.522Z,31157,-0.15405567,-0.6246793,-1.1968703
1732440211524,2024-11-24T09:23:31.524Z,31159,-0.15405567,-0.6246793,-1.1968703
1732440211584,2024-11-24T09:23:31.584Z,31219,-0.100422345,-0.6332443,-1.2004099
1732440211590,2024-11-24T09:23:31.590Z,31225,-0.100422345,-0.6332443,-1.2004099
1732440211616,2024-11-24T09:23:31.616Z,31251,-0.12544982,-0.62396187,-1.1464698
1732440211623,2024-11-24T09:23:31.623Z,31258,-0.12544982,-0.62396187,-1.1464698
1732440211643,2024-11-24T09:23:31.643Z,31278,-0.13697442,-0.6404972,-1.1476161
1732440211649,2024-11-24T09:23:31.649Z,31284,-0.13697442,-0.6404972,-1.1476161
1732440211668,2024-11-24T09:23:31.668Z,31303,-0.1891498,-0.6711487,-1.1523436
1732440211674,2024-11-24T09:23:31.674Z,31309,-0.1891498,-0.6711487,-1.1523436
1732440211692,2024-11-24T09:23:31.692Z,31327,-0.23462288,-0.6644975,-1.1652604
1732440211696,2024-11-24T09:23:31.696Z,31331,-0.23462288,-0.6644975,-1.1652604
1732440211709,2024-11-24T09:23:31.709Z,31344,-0.05391299,-0.7100935,-1.1631471
1732440211712,2024-11-24T09:23:31.712Z,31347,-0.05391299,-0.7100935,-1.1631471
1732440211761,2024-11-24T09:23:31.761Z,31396,-0.16114758,-0.71644425,-1.170465
1732440211767,2024-11-24T09:23:31.767Z,31402,-0.16114758,-0.71644425,-1.170465
1732440211785,2024-11-24T09:23:31.785Z,31420,-0.20955743,-0.7038955,-1.1577116
1732440211792,2024-11-24T09:23:31.792Z,31427,-0.20955743,-0.7038955,-1.1577116
1732440211898,2024-11-24T09:23:31.898Z,31533,-0.10417229,-0.7244596,-1.147244
1732440211906,2024-11-24T09:23:31.906Z,31541,-0.10417229,-0.7244596,-1.147244
1732440211932,2024-11-24T09:23:31.932Z,31567,-0.17013218,-0.6857304,-1.1271975
1732440211941,2024-11-24T09:23:31.941Z,31576,-0.17013218,-0.6857304,-1.1271975
1732440211963,2024-11-24T09:23:31.963Z,31598,-0.08112227,-0.7063039,-1.1278915
1732440211969,2024-11-24T09:23:31.969Z,31604,-0.08112227,-0.7063039,-1.1278915
1732440211985,2024-11-24T09:23:31.985Z,31620,-0.1447256,-0.6919843,-1.1240253
1732440211989,2024-11-24T09:23:31.989Z,31624,-0.1447256,-0.6919843,-1.1240253
1732440212001,2024-11-24T09:23:32.001Z,31636,-0.1687534,-0.7080393,-1.1427567
1732440212004,2024-11-24T09:23:32.004Z,31639,-0.1687534,-0.7080393,-1.1427567
1732440212016,2024-11-24T09:23:32.016Z,31651,-0.09740389,-0.763805,-1.1778684
1732440212020,2024-11-24T09:23:32.020Z,31655,-0.09740389,-0.763805,-1.1778684
1732440212030,2024-11-24T09:23:32.030Z,31665,-0.10121321,-0.7829912,-1.1428287
1732440212034,2024-11-24T09:23:32.034Z,31669,-0.10121321,-0.7829912,-1.1428287
1732440212044,2024-11-24T09:23:32.044Z,31679,-0.16963269,-0.77637625,-1.1065533
1732440212048,2024-11-24T09:23:32.048Z,31683,-0.16963269,-0.77637625,-1.1065533
1732440212057,2024-11-24T09:23:32.057Z,31692,-0.08937712,-0.84048206,-1.180879
1732440212060,2024-11-24T09:23:32.060Z,31695,-0.08937712,-0.84048206,-1.180879
1732440212070,2024-11-24T09:23:32.070Z,31705,-0.058190383,-0.8599473,-1.2154589
1732440212072,2024-11-24T09:23:32.072Z,31707,-0.058190383,-0.8599473,-1.2154589
1732440212081,2024-11-24T09:23:32.081Z,31716,-0.06784448,-0.85481715,-1.2020774
1732440212084,2024-11-24T09:23:32.084Z,31719,-0.06784448,-0.85481715,-1.2020774
1732440212092,2024-11-24T09:23:32.092Z,31727,-0.088912785,-0.86977947,-1.1596782
1732440212094,2024-11-24T09:23:32.094Z,31729,-0.088912785,-0.86977947,-1.1596782
1732440212102,2024-11-24T09:23:32.102Z,31737,-0.0663403,-0.8753755,-1.1698307
1732440212105,2024-11-24T09:23:32.105Z,31740,-0.0663403,-0.8753755,-1.1698307
1732440212159,2024-11-24T09:23:32.159Z,31794,-0.066021204,-0.87130547,-1.2158126
1732440212162,2024-11-24T09:23:32.162Z,31797,-0.066021204,-0.87130547,-1.2158126
1732440212171,2024-11-24T09:23:32.171Z,31806,-0.07088656,-0.85651743,-1.2154025
1732440212173,2024-11-24T09:23:32.173Z,31808,-0.07088656,-0.85651743,-1.2154025
1732440212183,2024-11-24T09:23:32.183Z,31818,-0.0973551,-0.83653843,-1.2574646
1732440212186,2024-11-24T09:23:32.186Z,31821,-0.0973551,-0.83653843,-1.2574646
1732440212195,2024-11-24T09:23:32.195Z,31830,0.011147214,-0.8733258,-1.3066728
1732440212198,2024-11-24T09:23:32.198Z,31833,0.011147214,-0.8733258,-1.3066728
1732440212207,2024-11-24T09:23:32.207Z,31842,-0.064438425,-0.8010478,-1.2025055
1732440212209,2024-11-24T09:23:32.209Z,31844,-0.064438425,-0.8010478,-1.2025055
1732440212218,2024-11-24T09:23:32.218Z,31853,-0.06278223,-0.80624956,-1.1834011
1732440212220,2024-11-24T09:23:32.220Z,31855,-0.06278223,-0.80624956,-1.1834011
1732440212227,2024-11-24T09:23:32.227Z,31862,-0.038279083,-0.8100864,-1.218529
1732440212229,2024-11-24T09:23:32.229Z,31864,-0.038279083,-0.8100864,-1.218529
1732440212298,2024-11-24T09:23:32.298Z,31933,0.07248174,-0.73764527,-1.1907208
1732440212303,2024-11-24T09:23:32.303Z,31938,0.07248174,-0.73764527,-1.1907208
1732440212319,2024-11-24T09:23:32.319Z,31954,0.024087822,-0.7064627,-1.2059714
1732440212323,2024-11-24T09:23:32.323Z,31958,0.024087822,-0.7064627,-1.2059714
1732440212335,2024-11-24T09:23:32.335Z,31970,0.043295924,-0.71356505,-1.1691194
1732440212340,2024-11-24T09:23:32.340Z,31975,0.043295924,-0.71356505,-1.1691194
1732440212351,2024-11-24T09:23:32.351Z,31986,0.017942034,-0.70016474,-1.1225606
1732440212355,2024-11-24T09:23:32.355Z,31990,0.017942034,-0.70016474,-1.1225606
1732440212368,2024-11-24T09:23:32.368Z,32003,0.04666434,-0.6776567,-1.1331638
1732440212371,2024-11-24T09:23:32.371Z,32006,0.04666434,-0.6776567,-1.1331638
1732440212384,2024-11-24T09:23:32.384Z,32019,0.11485035,-0.67452455,-1.2283882
1732440212388,2024-11-24T09:23:32.388Z,32023,0.11485035,-0.67452455,-1.2283882
1732440212398,2024-11-24T09:23:32.398Z,32033,0.14718682,-0.652198,-1.1845312
1732440212401,2024-11-24T09:23:32.401Z,32036,0.14718682,-0.652198,-1.1845312
1732440212409,2024-11-24T09:23:32.409Z,32044,0.15044253,-0.6775262,-1.1237911
1732440212412,2024-11-24T09:23:32.412Z,32047,0.15044253,-0.6775262,-1.1237911
1732440212430,2024-11-24T09:23:32.430Z,32065,0.050492328,-0.62122864,-1.1054416
1732440212435,2024-11-24T09:23:32.435Z,32070,0.050492328,-0.62122864,-1.1054416
1732440212448,2024-11-24T09:23:32.448Z,32083,0.10683754,-0.63347155,-1.160343
1732440212450,2024-11-24T09:23:32.450Z,32085,0.10683754,-0.63347155,-1.160343
1732440212461,2024-11-24T09:23:32.461Z,32096,0.10973632,-0.60771966,-1.170384
1732440212464,2024-11-24T09:23:32.464Z,32099,0.10973632,-0.60771966,-1.170384
1732440212476,2024-11-24T09:23:32.476Z,32111,0.15316886,-0.6120908,-1.028017
1732440212479,2024-11-24T09:23:32.479Z,32114,0.15316886,-0.6120908,-1.028017
1732440212490,2024-11-24T09:23:32.490Z,32125,0.11923715,-0.6230078,-1.1455909
1732440212493,2024-11-24T09:23:32.493Z,32128,0.11923715,-0.6230078,-1.1455909
1732440212504,2024-11-24T09:23:32.504Z,32139,0.21376203,-0.62471426,-1.1999412
1732440212507,2024-11-24T09:23:32.507Z,32142,0.21376203,-0.62471426,-1.1999412
1732440212518,2024-11-24T09:23:32.518Z,32153,0.18997742,-0.619568,-1.1758736
1732440212523,2024-11-24T09:23:32.523Z,32158,0.18997742,-0.619568,-1.1758736
1732440212565,2024-11-24T09:23:32.565Z,32200,0.09124685,-0.60793954,-1.0733287
1732440212567,2024-11-24T09:23:32.567Z,32202,0.09124685,-0.60793954,-1.0733287
1732440212577,2024-11-24T09:23:32.577Z,32212,0.120977096,-0.58961105,-1.0641538
1732440212580,2024-11-24T09:23:32.580Z,32215,0.120977096,-0.58961105,-1.0641538
1732440212591,2024-11-24T09:23:32.591Z,32226,0.16394584,-0.60159004,-1.0712746
1732440212594,2024-11-24T09:23:32.594Z,32229,0.16394584,-0.60159004,-1.0712746
1732440212611,2024-11-24T09:23:32.611Z,32246,0.22216041,-0.62672716,-1.2368218
1732440212613,2024-11-24T09:23:32.613Z,32248,0.22216041,-0.62672716,-1.2368218
1732440212623,2024-11-24T09:23:32.623Z,32258,0.22659661,-0.6230816,-1.1863642
1732440212626,2024-11-24T09:23:32.626Z,32261,0.22659661,-0.6230816,-1.1863642
1732440212652,2024-11-24T09:23:32.652Z,32287,0.1195754,-0.59161824,-1.1250211
1732440212655,2024-11-24T09:23:32.655Z,32290,0.1195754,-0.59161824,-1.1250211
1732440212664,2024-11-24T09:23:32.664Z,32299,0.1872572,-0.5804187,-1.2374704
1732440212667,2024-11-24T09:23:32.667Z,32302,0.1872572,-0.5804187,-1.2374704
1732440212678,2024-11-24T09:23:32.678Z,32313,0.13653116,-0.5737479,-1.1880578
1732440212681,2024-11-24T09:23:32.681Z,32316,0.13653116,-0.5737479,-1.1880578
1732440212698,2024-11-24T09:23:32.698Z,32333,0.1453537,-0.5865674,-1.1434853
1732440212700,2024-11-24T09:23:32.700Z,32335,0.1453537,-0.5865674,-1.1434853
1732440212708,2024-11-24T09:23:32.708Z,32343,0.092711866,-0.5956666,-1.2226412
1732440212711,2024-11-24T09:23:32.711Z,32346,0.092711866,-0.5956666,-1.2226412
1732440212720,2024-11-24T09:23:32.720Z,32355,0.08173394,-0.6070283,-1.2022258
1732440212722,2024-11-24T09:23:32.722Z,32357,0.08173394,-0.6070283,-1.2022258
1732440212787,2024-11-24T09:23:32.787Z,32422,0.13937739,-0.6218848,-1.2203656
1732440212790,2024-11-24T09:23:32.790Z,32425,0.13937739,-0.6218848,-1.2203656
1732440212798,2024-11-24T09:23:32.798Z,32433,0.030478235,-0.5778429,-1.2895845
1732440212801,2024-11-24T09:23:32.801Z,32436,0.030478235,-0.5778429,-1.2895845
1732440212808,2024-11-24T09:23:32.808Z,32443,0.06567551,-0.56969595,-1.1512939
1732440212812,2024-11-24T09:23:32.812Z,32447,0.06567551,-0.56969595,-1.1512939
1732440212833,2024-11-24T09:23:32.833Z,32468,0.12069385,-0.60383326,-1.161429
1732440212836,2024-11-24T09:23:32.836Z,32471,0.12069385,-0.60383326,-1.161429
1732440212846,2024-11-24T09:23:32.846Z,32481,0.14425512,-0.6377589,-1.1424599
1732440212849,2024-11-24T09:23:32.849Z,32484,0.14425512,-0.6377589,-1.1424599
1732440212860,2024-11-24T09:23:32.860Z,32495,-0.0012403945,-0.5330474,-1.1373928
1732440212863,2024-11-24T09:23:32.863Z,32498,-0.0012403945,-0.5330474,-1.1373928
1732440212873,2024-11-24T09:23:32.873Z,32508,6.020849E-4,-0.5070842,-1.1446464
1732440212877,2024-11-24T09:23:32.877Z,32512,6.020849E-4,-0.5070842,-1.1446464
1732440212887,2024-11-24T09:23:32.887Z,32522,0.112419754,-0.4369119,-1.0226852
1732440212889,2024-11-24T09:23:32.889Z,32524,0.112419754,-0.4369119,-1.0226852
1732440212896,2024-11-24T09:23:32.896Z,32531,0.19440003,-0.46324375,-1.0430285
1732440212899,2024-11-24T09:23:32.899Z,32534,0.19440003,-0.46324375,-1.0430285
1732440212922,2024-11-24T09:23:32.922Z,32557,0.21895544,-0.45142525,-1.0850687
1732440212925,2024-11-24T09:23:32.925Z,32560,0.21895544,-0.45142525,-1.0850687
1732440212934,2024-11-24T09:23:32.934Z,32569,0.19219613,-0.4560637,-1.1070175
1732440212937,2024-11-24T09:23:32.937Z,32572,0.19219613,-0.4560637,-1.1070175
1732440212946,2024-11-24T09:23:32.946Z,32581,0.13974893,-0.40963742,-1.121262
1732440212948,2024-11-24T09:23:32.948Z,32583,0.13974893,-0.40963742,-1.121262
1732440212967,2024-11-24T09:23:32.967Z,32602,0.025339108,-0.3870604,-0.9841247
1732440212969,2024-11-24T09:23:32.969Z,32604,0.025339108,-0.3870604,-0.9841247
1732440212977,2024-11-24T09:23:32.977Z,32612,0.087498106,-0.34282082,-1.0919822
1732440212980,2024-11-24T09:23:32.980Z,32615,0.087498106,-0.34282082,-1.0919822
1732440212988,2024-11-24T09:23:32.988Z,32623,0.20777546,-0.43943742,-1.1816485
1732440212991,2024-11-24T09:23:32.991Z,32626,0.20777546,-0.43943742,-1.1816485
1732440213012,2024-11-24T09:23:33.012Z,32647,0.18577471,-0.50406456,-1.2768518
1732440213014,2024-11-24T09:23:33.014Z,32649,0.18577471,-0.50406456,-1.2768518
1732440213023,2024-11-24T09:23:33.023Z,32658,0.09361132,-0.43729517,-1.1054182
1732440213026,2024-11-24T09:23:33.026Z,32661,0.09361132,-0.43729517,-1.1054182
1732440213033,2024-11-24T09:23:33.033Z,32668,0.1404827,-0.48829225,-1.1046977
1732440213036,2024-11-24T09:23:33.036Z,32671,0.1404827,-0.48829225,-1.1046977
1732440213056,2024-11-24T09:23:33.056Z,32691,0.14973633,-0.48737082,-1.1241553
1732440213058,2024-11-24T09:23:33.058Z,32693,0.14973633,-0.48737082,-1.1241553
1732440213065,2024-11-24T09:23:33.065Z,32700,0.06947045,-0.57748854,-1.1295577
1732440213068,2024-11-24T09:23:33.068Z,32703,0.06947045,-0.57748854,-1.1295577
1732440213075,2024-11-24T09:23:33.075Z,32710,0.13137801,-0.64086604,-1.1353799
1732440213077,2024-11-24T09:23:33.077Z,32712,0.13137801,-0.64086604,-1.1353799
1732440213085,2024-11-24T09:23:33.085Z,32720,0.073536485,-0.5978916,-1.1609873
1732440213087,2024-11-24T09:23:33.087Z,32722,0.073536485,-0.5978916,-1.1609873
1732440213104,2024-11-24T09:23:33.104Z,32739,0.1267914,-0.6374186,-1.1683737
1732440213106,2024-11-24T09:23:33.106Z,32741,0.1267914,-0.6374186,-1.1683737
1732440213113,2024-11-24T09:23:33.113Z,32748,0.052147433,-0.6747223,-1.1670325
1732440213116,2024-11-24T09:23:33.116Z,32751,0.052147433,-0.6747223,-1.1670325
1732440213124,2024-11-24T09:23:33.124Z,32759,0.093105145,-0.6931065,-1.1281556
1732440213125,2024-11-24T09:23:33.125Z,32760,0.093105145,-0.6931065,-1.1281556
1732440213149,2024-11-24T09:23:33.149Z,32784,0.14059809,-0.69429743,-1.1352323
1732440213151,2024-11-24T09:23:33.151Z,32786,0.14059809,-0.69429743,-1.1352323
1732440213159,2024-11-24T09:23:33.159Z,32794,0.2572287,-0.7194098,-1.1882591
1732440213162,2024-11-24T09:23:33.162Z,32797,0.2572287,-0.7194098,-1.1882591
1732440213172,2024-11-24T09:23:33.172Z,32807,0.19068234,-0.7163704,-1.1661241
1732440213175,2024-11-24T09:23:33.175Z,32810,0.19068234,-0.7163704,-1.1661241
1732440213191,2024-11-24T09:23:33.191Z,32826,0.09921129,-0.67430437,-1.1519754
1732440213194,2024-11-24T09:23:33.194Z,32829,0.09921129,-0.67430437,-1.1519754
1732440213203,2024-11-24T09:23:33.203Z,32838,0.091669224,-0.70188653,-1.1091161
1732440213205,2024-11-24T09:23:33.205Z,32840,0.091669224,-0.70188653,-1.1091161
1732440213212,2024-11-24T09:23:33.212Z,32847,0.11161438,-0.6913028,-1.1319606
1732440213215,2024-11-24T09:23:33.215Z,32850,0.11161438,-0.6913028,-1.1319606
1732440213222,2024-11-24T09:23:33.222Z,32857,0.16388738,-0.68910706,-1.1430812
1732440213225,2024-11-24T09:23:33.225Z,32860,0.16388738,-0.68910706,-1.1430812
1732440213240,2024-11-24T09:23:33.240Z,32875,0.19650166,-0.62103635,-1.1624829
1732440213242,2024-11-24T09:23:33.242Z,32877,0.19650166,-0.62103635,-1.1624829
1732440213250,2024-11-24T09:23:33.250Z,32885,0.19496648,-0.6555588,-1.1404504
1732440213253,2024-11-24T09:23:33.253Z,32888,0.19496648,-0.6555588,-1.1404504
1732440213283,2024-11-24T09:23:33.283Z,32918,0.190703,-0.6381102,-1.1288579
1732440213285,2024-11-24T09:23:33.285Z,32920,0.190703,-0.6381102,-1.1288579
1732440213293,2024-11-24T09:23:33.293Z,32928,0.15506527,-0.63021,-1.1712352
1732440213295,2024-11-24T09:23:33.295Z,32930,0.15506527,-0.63021,-1.1712352
1732440213304,2024-11-24T09:23:33.304Z,32939,0.15459646,-0.605368,-1.1633881
1732440213307,2024-11-24T09:23:33.307Z,32942,0.15459646,-0.605368,-1.1633881
1732440213314,2024-11-24T09:23:33.314Z,32949,0.15425727,-0.6116803,-1.1217678
1732440213317,2024-11-24T09:23:33.317Z,32952,0.15425727,-0.6116803,-1.1217678
1732440213330,2024-11-24T09:23:33.330Z,32965,0.18119109,-0.5961295,-1.1640748
1732440213332,2024-11-24T09:23:33.332Z,32967,0.18119109,-0.5961295,-1.1640748
1732440213373,2024-11-24T09:23:33.373Z,33008,0.19885296,-0.6119359,-1.1870004
1732440213376,2024-11-24T09:23:33.376Z,33011,0.19885296,-0.6119359,-1.1870004
1732440213420,2024-11-24T09:23:33.420Z,33055,0.1941556,-0.6153474,-1.1816647
1732440213423,2024-11-24T09:23:33.423Z,33058,0.1941556,-0.6153474,-1.1816647
1732440213432,2024-11-24T09:23:33.432Z,33067,0.13695219,-0.632979,-1.1574914
1732440213435,2024-11-24T09:23:33.435Z,33070,0.13695219,-0.632979,-1.1574914
1732440213445,2024-11-24T09:23:33.445Z,33080,0.1151743,-0.64052546,-1.155817
1732440213448,2024-11-24T09:23:33.448Z,33083,0.1151743,-0.64052546,-1.155817
1732440213464,2024-11-24T09:23:33.464Z,33099,0.13582504,-0.66093105,-1.1483617
1732440213467,2024-11-24T09:23:33.467Z,33102,0.13582504,-0.66093105,-1.1483617
1732440213478,2024-11-24T09:23:33.478Z,33113,0.0867258,-0.62526363,-1.1781368
1732440213481,2024-11-24T09:23:33.481Z,33116,0.0867258,-0.62526363,-1.1781368
1732440213491,2024-11-24T09:23:33.491Z,33126,0.10017375,-0.6359881,-1.1952453
1732440213494,2024-11-24T09:23:33.494Z,33129,0.10017375,-0.6359881,-1.1952453
1732440213512,2024-11-24T09:23:33.512Z,33147,0.15499398,-0.649262,-1.1878598
1732440213515,2024-11-24T09:23:33.515Z,33150,0.15499398,-0.649262,-1.1878598
1732440213525,2024-11-24T09:23:33.525Z,33160,0.14760938,-0.6150357,-1.1900579
1732440213528,2024-11-24T09:23:33.528Z,33163,0.14760938,-0.6150357,-1.1900579
1732440213539,2024-11-24T09:23:33.539Z,33174,0.11395241,-0.5871766,-1.1991315
1732440213541,2024-11-24T09:23:33.541Z,33176,0.11395241,-0.5871766,-1.1991315
1732440213552,2024-11-24T09:23:33.552Z,33187,0.15812778,-0.61485285,-1.1927748
1732440213554,2024-11-24T09:23:33.554Z,33189,0.15812778,-0.61485285,-1.1927748
1732440213562,2024-11-24T09:23:33.562Z,33197,0.111185916,-0.5654498,-1.1681777
1732440213565,2024-11-24T09:23:33.565Z,33200,0.111185916,-0.5654498,-1.1681777
1732440213573,2024-11-24T09:23:33.573Z,33208,0.08734238,-0.55658346,-1.1379335
1732440213575,2024-11-24T09:23:33.575Z,33210,0.08734238,-0.55658346,-1.1379335
1732440213599,2024-11-24T09:23:33.599Z,33234,0.08385544,-0.5453752,-1.1618154
1732440213602,2024-11-24T09:23:33.602Z,33237,0.08385544,-0.5453752,-1.1618154
1732440213611,2024-11-24T09:23:33.611Z,33246,0.14091574,-0.605336,-1.2239064
1732440213613,2024-11-24T09:23:33.613Z,33248,0.14091574,-0.605336,-1.2239064
1732440213622,2024-11-24T09:23:33.622Z,33257,0.19296691,-0.61393464,-1.2222701
1732440213624,2024-11-24T09:23:33.624Z,33259,0.19296691,-0.61393464,-1.2222701
1732440213693,2024-11-24T09:23:33.693Z,33328,0.10788012,-0.56607854,-1.2544966
1732440213700,2024-11-24T09:23:33.700Z,33335,0.10788012,-0.56607854,-1.2544966
1732440213720,2024-11-24T09:23:33.720Z,33355,0.13769011,-0.56521773,-1.1839986
1732440213726,2024-11-24T09:23:33.726Z,33361,0.13769011,-0.56521773,-1.1839986
1732440213744,2024-11-24T09:23:33.744Z,33379,0.085744075,-0.6001336,-1.1637119
1732440213749,2024-11-24T09:23:33.749Z,33384,0.085744075,-0.6001336,-1.1637119
1732440213766,2024-11-24T09:23:33.766Z,33401,0.08137885,-0.59372073,-1.1537273
1732440213771,2024-11-24T09:23:33.771Z,33406,0.08137885,-0.59372073,-1.1537273
1732440213788,2024-11-24T09:23:33.788Z,33423,0.091275975,-0.5863786,-1.21688
1732440213792,2024-11-24T09:23:33.792Z,33427,0.091275975,-0.5863786,-1.21688
1732440213872,2024-11-24T09:23:33.872Z,33507,0.111793555,-0.5813757,-1.2083883
1732440213877,2024-11-24T09:23:33.877Z,33512,0.111793555,-0.5813757,-1.2083883
1732440213895,2024-11-24T09:23:33.895Z,33530,0.145391,-0.5742803,-1.2369816
1732440213901,2024-11-24T09:23:33.901Z,33536,0.145391,-0.5742803,-1.2369816
1732440213912,2024-11-24T09:23:33.912Z,33547,0.11885178,-0.5264939,-1.2187912
1732440213916,2024-11-24T09:23:33.916Z,33551,0.11885178,-0.5264939,-1.2187912
1732440213961,2024-11-24T09:23:33.961Z,33596,0.1344919,-0.54090154,-1.2020329
1732440213966,2024-11-24T09:23:33.966Z,33601,0.1344919,-0.54090154,-1.2020329
1732440213984,2024-11-24T09:23:33.984Z,33619,0.119660884,-0.5402026,-1.1696937
1732440213989,2024-11-24T09:23:33.989Z,33624,0.119660884,-0.5402026,-1.1696937
1732440214008,2024-11-24T09:23:34.008Z,33643,0.094690695,-0.5284993,-1.1721942
1732440214014,2024-11-24T09:23:34.014Z,33649,0.094690695,-0.5284993,-1.1721942
1732440214032,2024-11-24T09:23:34.032Z,33667,0.104910105,-0.5436274,-1.1455189
1732440214037,2024-11-24T09:23:34.037Z,33672,0.104910105,-0.5436274,-1.1455189
1732440214051,2024-11-24T09:23:34.051Z,33686,0.07517087,-0.5810317,-1.2300081
1732440214054,2024-11-24T09:23:34.054Z,33689,0.07517087,-0.5810317,-1.2300081
1732440214065,2024-11-24T09:23:34.065Z,33700,0.022557896,-0.55661035,-1.2398498
1732440214070,2024-11-24T09:23:34.070Z,33705,0.022557896,-0.55661035,-1.2398498
1732440214079,2024-11-24T09:23:34.079Z,33714,0.08033034,-0.56368065,-1.1784928
1732440214082,2024-11-24T09:23:34.082Z,33717,0.08033034,-0.56368065,-1.1784928
1732440214096,2024-11-24T09:23:34.096Z,33731,0.23478234,-0.5841601,-1.2032144
1732440214099,2024-11-24T09:23:34.099Z,33734,0.23478234,-0.5841601,-1.2032144
1732440214108,2024-11-24T09:23:34.108Z,33743,0.15819262,-0.5493112,-1.1744084
1732440214111,2024-11-24T09:23:34.111Z,33746,0.15819262,-0.5493112,-1.1744084
1732440214123,2024-11-24T09:23:34.123Z,33758,0.13756962,-0.5442378,-1.0974276
1732440214125,2024-11-24T09:23:34.125Z,33760,0.13756962,-0.5442378,-1.0974276
1732440214133,2024-11-24T09:23:34.133Z,33768,0.016662618,-0.54042625,-1.322857
1732440214136,2024-11-24T09:23:34.136Z,33771,0.016662618,-0.54042625,-1.322857
1732440214142,2024-11-24T09:23:34.142Z,33777,0.08933463,-0.60500467,-1.2302787
1732440214144,2024-11-24T09:23:34.144Z,33779,0.08933463,-0.60500467,-1.2302787
1732440214184,2024-11-24T09:23:34.184Z,33819,0.035714842,-0.5707604,-1.1995883
1732440214187,2024-11-24T09:23:34.187Z,33822,0.035714842,-0.5707604,-1.1995883
1732440214195,2024-11-24T09:23:34.195Z,33830,0.13481608,-0.57427883,-1.1815635
1732440214198,2024-11-24T09:23:34.198Z,33833,0.13481608,-0.57427883,-1.1815635
1732440214206,2024-11-24T09:23:34.206Z,33841,0.052539572,-0.53467745,-1.1695148
1732440214209,2024-11-24T09:23:34.209Z,33844,0.052539572,-0.53467745,-1.1695148
1732440214272,2024-11-24T09:23:34.272Z,33907,0.005376583,-0.53048384,-1.219387
1732440214275,2024-11-24T09:23:34.275Z,33910,0.005376583,-0.53048384,-1.219387
1732440214284,2024-11-24T09:23:34.284Z,33919,-0.059380744,-0.5638219,-1.246638
1732440214287,2024-11-24T09:23:34.287Z,33922,-0.059380744,-0.5638219,-1.246638
1732440214296,2024-11-24T09:23:34.296Z,33931,0.044489942,-0.5763303,-1.2274494
1732440214299,2024-11-24T09:23:34.299Z,33934,0.044489942,-0.5763303,-1.2274494
1732440214318,2024-11-24T09:23:34.318Z,33953,0.054216012,-0.56701076,-1.2758445
1732440214322,2024-11-24T09:23:34.322Z,33957,0.054216012,-0.56701076,-1.2758445
1732440214365,2024-11-24T09:23:34.365Z,34000,0.0056977435,-0.5595305,-1.248316
1732440214369,2024-11-24T09:23:34.369Z,34004,0.0056977435,-0.5595305,-1.248316
1732440214380,2024-11-24T09:23:34.380Z,34015,0.03970368,-0.568048,-1.1820682
1732440214384,2024-11-24T09:23:34.384Z,34019,0.03970368,-0.568048,-1.1820682
1732440214396,2024-11-24T09:23:34.396Z,34031,0.016766053,-0.4878069,-1.1353521
1732440214399,2024-11-24T09:23:34.399Z,34034,0.016766053,-0.4878069,-1.1353521
1732440214410,2024-11-24T09:23:34.410Z,34045,0.008060912,-0.49700564,-1.1365517
1732440214414,2024-11-24T09:23:34.414Z,34049,0.008060912,-0.49700564,-1.1365517
1732440214456,2024-11-24T09:23:34.456Z,34091,0.07215298,-0.49936375,-1.1295513
1732440214461,2024-11-24T09:23:34.461Z,34096,0.07215298,-0.49936375,-1.1295513
1732440214476,2024-11-24T09:23:34.476Z,34111,0.036053788,-0.51195526,-1.1986212
1732440214480,2024-11-24T09:23:34.480Z,34115,0.036053788,-0.51195526,-1.1986212
1732440214491,2024-11-24T09:23:34.491Z,34126,0.010085609,-0.50714654,-1.1728599
1732440214495,2024-11-24T09:23:34.495Z,34130,0.010085609,-0.50714654,-1.1728599
1732440214507,2024-11-24T09:23:34.507Z,34142,-0.056912135,-0.5315883,-1.0576609
1732440214510,2024-11-24T09:23:34.510Z,34145,-0.056912135,-0.5315883,-1.0576609
1732440214520,2024-11-24T09:23:34.520Z,34155,0.0025437085,-0.5560656,-1.1640421
1732440214524,2024-11-24T09:23:34.524Z,34159,0.0025437085,-0.5560656,-1.1640421
1732440214543,2024-11-24T09:23:34.543Z,34178,0.041938927,-0.58537316,-1.1849633
1732440214546,2024-11-24T09:23:34.546Z,34181,0.041938927,-0.58537316,-1.1849633
1732440214555,2024-11-24T09:23:34.555Z,34190,-0.094723724,-0.6126539,-1.2035015
1732440214558,2024-11-24T09:23:34.558Z,34193,-0.094723724,-0.6126539,-1.2035015
1732440214588,2024-11-24T09:23:34.588Z,34223,-0.123484276,-0.589792,-1.1948901
1732440214591,2024-11-24T09:23:34.591Z,34226,-0.123484276,-0.589792,-1.1948901
1732440214600,2024-11-24T09:23:34.600Z,34235,-0.17462502,-0.579438,-1.2538022
1732440214603,2024-11-24T09:23:34.603Z,34238,-0.17462502,-0.579438,-1.2538022
1732440214612,2024-11-24T09:23:34.612Z,34247,-0.10330904,-0.63091576,-1.2129668
1732440214614,2024-11-24T09:23:34.614Z,34249,-0.10330904,-0.63091576,-1.2129668
1732440214632,2024-11-24T09:23:34.632Z,34267,-0.047172848,-0.6544711,-1.2044528
1732440214635,2024-11-24T09:23:34.635Z,34270,-0.047172848,-0.6544711,-1.2044528
1732440214645,2024-11-24T09:23:34.645Z,34280,-0.13756934,-0.59475386,-1.1596398
1732440214648,2024-11-24T09:23:34.648Z,34283,-0.13756934,-0.59475386,-1.1596398
1732440214657,2024-11-24T09:23:34.657Z,34292,-0.09998886,-0.58626235,-1.1599445
1732440214659,2024-11-24T09:23:34.659Z,34294,-0.09998886,-0.58626235,-1.1599445
1732440214678,2024-11-24T09:23:34.678Z,34313,0.038979497,-0.5947292,-1.1160791
1732440214680,2024-11-24T09:23:34.680Z,34315,0.038979497,-0.5947292,-1.1160791
1732440214690,2024-11-24T09:23:34.690Z,34325,-0.04245541,-0.55877197,-1.1465006
1732440214693,2024-11-24T09:23:34.693Z,34328,-0.04245541,-0.55877197,-1.1465006
1732440214701,2024-11-24T09:23:34.701Z,34336,-0.08190137,-0.559823,-1.1529036
1732440214704,2024-11-24T09:23:34.704Z,34339,-0.08190137,-0.559823,-1.1529036
1732440214723,2024-11-24T09:23:34.723Z,34358,-0.11796632,-0.5508057,-1.1406504
1732440214725,2024-11-24T09:23:34.725Z,34360,-0.11796632,-0.5508057,-1.1406504
1732440214733,2024-11-24T09:23:34.733Z,34368,-0.07353999,-0.5757688,-1.1546396
1732440214736,2024-11-24T09:23:34.736Z,34371,-0.07353999,-0.5757688,-1.1546396
1732440214744,2024-11-24T09:23:34.744Z,34379,-0.037792284,-0.5891474,-1.2035646
1732440214746,2024-11-24T09:23:34.746Z,34381,-0.037792284,-0.5891474,-1.2035646
1732440214773,2024-11-24T09:23:34.773Z,34408,-0.00399851,-0.5744418,-1.0834525
1732440214779,2024-11-24T09:23:34.779Z,34414,-0.00399851,-0.5744418,-1.0834525
1732440214799,2024-11-24T09:23:34.799Z,34434,-0.023160515,-0.57407343,-1.1104426
1732440214805,2024-11-24T09:23:34.805Z,34440,-0.023160515,-0.57407343,-1.1104426
1732440214824,2024-11-24T09:23:34.824Z,34459,-0.08703051,-0.52588975,-1.1401565
1732440214827,2024-11-24T09:23:34.827Z,34462,-0.08703051,-0.52588975,-1.1401565
1732440214839,2024-11-24T09:23:34.839Z,34474,-0.1436814,-0.5038679,-1.1386955
1732440214843,2024-11-24T09:23:34.843Z,34478,-0.1436814,-0.5038679,-1.1386955
1732440214853,2024-11-24T09:23:34.853Z,34488,-0.03357188,-0.5744435,-1.1305195
1732440214857,2024-11-24T09:23:34.857Z,34492,-0.03357188,-0.5744435,-1.1305195
1732440214873,2024-11-24T09:23:34.873Z,34508,-0.06894005,-0.58829546,-1.1012802
1732440214877,2024-11-24T09:23:34.877Z,34512,-0.06894005,-0.58829546,-1.1012802
1732440214885,2024-11-24T09:23:34.885Z,34520,-0.097736046,-0.56900394,-1.049483
1732440214887,2024-11-24T09:23:34.887Z,34522,-0.097736046,-0.56900394,-1.049483
1732440214896,2024-11-24T09:23:34.896Z,34531,-0.1767651,-0.52829987,-1.133502
1732440214899,2024-11-24T09:23:34.899Z,34534,-0.1767651,-0.52829987,-1.133502
1732440214908,2024-11-24T09:23:34.908Z,34543,-0.21778156,-0.54245055,-1.2052137
1732440214910,2024-11-24T09:23:34.910Z,34545,-0.21778156,-0.54245055,-1.2052137
1732440214916,2024-11-24T09:23:34.916Z,34551,-0.09525922,-0.59509504,-1.2531555
1732440214919,2024-11-24T09:23:34.919Z,34554,-0.09525922,-0.59509504,-1.2531555
1732440214926,2024-11-24T09:23:34.926Z,34561,-0.10778025,-0.6058022,-1.0632383
1732440214928,2024-11-24T09:23:34.928Z,34563,-0.10778025,-0.6058022,-1.0632383
1732440214935,2024-11-24T09:23:34.935Z,34570,-0.18960756,-0.58145463,-1.087364
1732440214937,2024-11-24T09:23:34.937Z,34572,-0.18960756,-0.58145463,-1.087364
1732440214947,2024-11-24T09:23:34.947Z,34582,-0.1832691,-0.5598426,-1.0785686
1732440214949,2024-11-24T09:23:34.949Z,34584,-0.1832691,-0.5598426,-1.0785686
1732440214956,2024-11-24T09:23:34.956Z,34591,-0.11503593,-0.592704,-1.2840446
1732440214958,2024-11-24T09:23:34.958Z,34593,-0.11503593,-0.592704,-1.2840446
1732440214966,2024-11-24T09:23:34.966Z,34601,-0.040937886,-0.6182749,-1.291393
1732440214969,2024-11-24T09:23:34.969Z,34604,-0.040937886,-0.6182749,-1.291393
1732440214992,2024-11-24T09:23:34.992Z,34627,-0.016018523,-0.62196183,-1.3274443
1732440214994,2024-11-24T09:23:34.994Z,34629,-0.016018523,-0.62196183,-1.3274443
1732440215002,2024-11-24T09:23:35.002Z,34637,-0.2117216,-0.5630175,-1.0240024
1732440215005,2024-11-24T09:23:35.005Z,34640,-0.2117216,-0.5630175,-1.0240024
1732440215013,2024-11-24T09:23:35.013Z,34648,-0.21412559,-0.573469,-1.0116155
1732440215015,2024-11-24T09:23:35.015Z,34650,-0.21412559,-0.573469,-1.0116155
1732440215131,2024-11-24T09:23:35.131Z,34766,-0.23335049,-0.5538625,-1.1587133
1732440215140,2024-11-24T09:23:35.140Z,34775,-0.23335049,-0.5538625,-1.1587133
1732440215181,2024-11-24T09:23:35.181Z,34816,-0.13154754,-0.590245,-1.3079363
1732440215188,2024-11-24T09:23:35.188Z,34823,-0.13154754,-0.590245,-1.3079363
1732440215210,2024-11-24T09:23:35.210Z,34845,-0.07917155,-0.58864003,-1.2368469
1732440215217,2024-11-24T09:23:35.217Z,34852,-0.07917155,-0.58864003,-1.2368469
1732440215232,2024-11-24T09:23:35.232Z,34867,-0.0027845912,-0.62408465,-1.0985794
1732440215236,2024-11-24T09:23:35.236Z,34871,-0.0027845912,-0.62408465,-1.0985794
1732440215247,2024-11-24T09:23:35.247Z,34882,-0.16869369,-0.5496473,-1.1407943
1732440215251,2024-11-24T09:23:35.251Z,34886,-0.16869369,-0.5496473,-1.1407943
1732440215261,2024-11-24T09:23:35.261Z,34896,-0.15691036,-0.5704147,-1.1658046
1732440215265,2024-11-24T09:23:35.265Z,34900,-0.15691036,-0.5704147,-1.1658046
1732440215275,2024-11-24T09:23:35.275Z,34910,-0.16450368,-0.55366224,-1.2151014
1732440215277,2024-11-24T09:23:35.277Z,34912,-0.16450368,-0.55366224,-1.2151014
1732440215287,2024-11-24T09:23:35.287Z,34922,-0.22688572,-0.65375197,-1.2408996
1732440215290,2024-11-24T09:23:35.290Z,34925,-0.22688572,-0.65375197,-1.2408996
1732440215299,2024-11-24T09:23:35.299Z,34934,-0.102003954,-0.6843421,-1.2591107
1732440215301,2024-11-24T09:23:35.301Z,34936,-0.102003954,-0.6843421,-1.2591107
1732440215310,2024-11-24T09:23:35.310Z,34945,-0.06847192,-0.71836966,-1.2897499
1732440215312,2024-11-24T09:23:35.312Z,34947,-0.06847192,-0.71836966,-1.2897499
1732440215324,2024-11-24T09:23:35.324Z,34959,-0.09840647,-0.699991,-1.0627333
1732440215327,2024-11-24T09:23:35.327Z,34962,-0.09840647,-0.699991,-1.0627333
1732440215334,2024-11-24T09:23:35.334Z,34969,-0.20599718,-0.683523,-1.0809877
1732440215337,2024-11-24T09:23:35.337Z,34972,-0.20599718,-0.683523,-1.0809877
1732440215345,2024-11-24T09:23:35.345Z,34980,-0.23249342,-0.6533016,-1.0803239
1732440215347,2024-11-24T09:23:35.347Z,34982,-0.23249342,-0.6533016,-1.0803239
1732440215354,2024-11-24T09:23:35.354Z,34989,-0.25482082,-0.6631165,-1.1002694
1732440215356,2024-11-24T09:23:35.356Z,34991,-0.25482082,-0.6631165,-1.1002694
1732440215449,2024-11-24T09:23:35.449Z,35084,-0.11333528,-0.7140688,-1.2589152
1732440215455,2024-11-24T09:23:35.455Z,35090,-0.11333528,-0.7140688,-1.2589152
1732440215475,2024-11-24T09:23:35.475Z,35110,-0.10123733,-0.72773856,-1.1946436
1732440215480,2024-11-24T09:23:35.480Z,35115,-0.10123733,-0.72773856,-1.1946436
1732440215495,2024-11-24T09:23:35.495Z,35130,-0.17173901,-0.705045,-1.2019858
1732440215498,2024-11-24T09:23:35.498Z,35133,-0.17173901,-0.705045,-1.2019858
1732440215509,2024-11-24T09:23:35.509Z,35144,-0.20802876,-0.698206,-1.0625811
1732440215512,2024-11-24T09:23:35.512Z,35147,-0.20802876,-0.698206,-1.0625811
1732440215522,2024-11-24T09:23:35.522Z,35157,-0.25170615,-0.6918653,-1.089313
1732440215526,2024-11-24T09:23:35.526Z,35161,-0.25170615,-0.6918653,-1.089313
1732440215536,2024-11-24T09:23:35.536Z,35171,-0.2288801,-0.6999347,-1.1332985
1732440215539,2024-11-24T09:23:35.539Z,35174,-0.2288801,-0.6999347,-1.1332985
1732440215549,2024-11-24T09:23:35.549Z,35184,-0.1379307,-0.7244518,-1.109086
1732440215551,2024-11-24T09:23:35.551Z,35186,-0.1379307,-0.7244518,-1.109086
1732440215560,2024-11-24T09:23:35.560Z,35195,-0.15490207,-0.64630854,-1.0542942
1732440215562,2024-11-24T09:23:35.562Z,35197,-0.15490207,-0.64630854,-1.0542942
1732440215569,2024-11-24T09:23:35.569Z,35204,-0.15523465,-0.6463223,-1.0315001
1732440215572,2024-11-24T09:23:35.572Z,35207,-0.15523465,-0.6463223,-1.0315001
1732440215580,2024-11-24T09:23:35.580Z,35215,-0.07610036,-0.665098,-1.1827967
1732440215582,2024-11-24T09:23:35.582Z,35217,-0.07610036,-0.665098,-1.1827967
1732440215590,2024-11-24T09:23:35.590Z,35225,-0.10194094,-0.66272724,-1.2531219
1732440215592,2024-11-24T09:23:35.592Z,35227,-0.10194094,-0.66272724,-1.2531219
1732440215600,2024-11-24T09:23:35.600Z,35235,-0.08073374,-0.65470743,-1.179045
1732440215602,2024-11-24T09:23:35.602Z,35237,-0.08073374,-0.65470743,-1.179045
1732440215623,2024-11-24T09:23:35.623Z,35258,-0.15465346,-0.63494426,-1.0847481
1732440215626,2024-11-24T09:23:35.626Z,35261,-0.15465346,-0.63494426,-1.0847481
1732440215637,2024-11-24T09:23:35.637Z,35272,-0.17108306,-0.64221805,-1.0836456
1732440215640,2024-11-24T09:23:35.640Z,35275,-0.17108306,-0.64221805,-1.0836456
1732440215649,2024-11-24T09:23:35.649Z,35284,-0.16313161,-0.6256938,-1.1393654
1732440215651,2024-11-24T09:23:35.651Z,35286,-0.16313161,-0.6256938,-1.1393654
1732440215669,2024-11-24T09:23:35.669Z,35304,-0.15274283,-0.64662033,-1.1659921
1732440215672,2024-11-24T09:23:35.672Z,35307,-0.15274283,-0.64662033,-1.1659921
1732440215686,2024-11-24T09:23:35.686Z,35321,-0.104519,-0.65228087,-1.2305657
1732440215689,2024-11-24T09:23:35.689Z,35324,-0.104519,-0.65228087,-1.2305657
1732440215697,2024-11-24T09:23:35.697Z,35332,-0.050593317,-0.685619,-1.1391159
1732440215700,2024-11-24T09:23:35.700Z,35335,-0.050593317,-0.685619,-1.1391159
1732440215712,2024-11-24T09:23:35.712Z,35347,-0.16840054,-0.6457793,-1.0874794
1732440215714,2024-11-24T09:23:35.714Z,35349,-0.16840054,-0.6457793,-1.0874794
1732440215722,2024-11-24T09:23:35.722Z,35357,-0.11926834,-0.6412239,-1.0952901
1732440215725,2024-11-24T09:23:35.725Z,35360,-0.11926834,-0.6412239,-1.0952901
1732440215731,2024-11-24T09:23:35.731Z,35366,-0.06848602,-0.6682376,-1.1309391
1732440215733,2024-11-24T09:23:35.733Z,35368,-0.06848602,-0.6682376,-1.1309391
1732440215740,2024-11-24T09:23:35.740Z,35375,-0.053908274,-0.6838509,-1.2083286
1732440215742,2024-11-24T09:23:35.742Z,35377,-0.053908274,-0.6838509,-1.2083286
1732440215759,2024-11-24T09:23:35.759Z,35394,-0.059488323,-0.7000571,-1.1739172
1732440215762,2024-11-24T09:23:35.762Z,35397,-0.059488323,-0.7000571,-1.1739172
1732440215769,2024-11-24T09:23:35.769Z,35404,-0.061723415,-0.7188988,-1.1004518
1732440215771,2024-11-24T09:23:35.771Z,35406,-0.061723415,-0.7188988,-1.1004518
1732440215778,2024-11-24T09:23:35.778Z,35413,-0.10195686,-0.6903018,-1.0822281
1732440215781,2024-11-24T09:23:35.781Z,35416,-0.10195686,-0.6903018,-1.0822281
1732440215805,2024-11-24T09:23:35.805Z,35440,-0.05601067,-0.70526135,-1.1439115
1732440215807,2024-11-24T09:23:35.807Z,35442,-0.05601067,-0.70526135,-1.1439115
1732440215815,2024-11-24T09:23:35.815Z,35450,-0.06083846,-0.7108925,-1.1556737
1732440215817,2024-11-24T09:23:35.817Z,35452,-0.06083846,-0.7108925,-1.1556737
1732440215826,2024-11-24T09:23:35.826Z,35461,-0.09725073,-0.6978079,-1.1655135
1732440215828,2024-11-24T09:23:35.828Z,35463,-0.09725073,-0.6978079,-1.1655135
1732440215854,2024-11-24T09:23:35.854Z,35489,-0.098871924,-0.7084356,-1.0730687
1732440215860,2024-11-24T09:23:35.860Z,35495,-0.098871924,-0.7084356,-1.0730687
1732440215884,2024-11-24T09:23:35.884Z,35519,-0.11285857,-0.70319504,-1.050746
1732440215891,2024-11-24T09:23:35.891Z,35526,-0.11285857,-0.70319504,-1.050746
1732440215910,2024-11-24T09:23:35.910Z,35545,-0.08664934,-0.70625836,-1.1132543
1732440215916,2024-11-24T09:23:35.916Z,35551,-0.08664934,-0.70625836,-1.1132543
1732440215936,2024-11-24T09:23:35.936Z,35571,-0.13664906,-0.7046293,-1.2010186
1732440215941,2024-11-24T09:23:35.941Z,35576,-0.13664906,-0.7046293,-1.2010186
1732440215959,2024-11-24T09:23:35.959Z,35594,-0.13577196,-0.6907389,-1.1944327
1732440215964,2024-11-24T09:23:35.964Z,35599,-0.13577196,-0.6907389,-1.1944327
1732440215977,2024-11-24T09:23:35.977Z,35612,-0.061536286,-0.7142665,-1.1623739
1732440215980,2024-11-24T09:23:35.980Z,35615,-0.061536286,-0.7142665,-1.1623739
1732440215991,2024-11-24T09:23:35.991Z,35626,-0.10380367,-0.70733964,-1.1215193
1732440215994,2024-11-24T09:23:35.994Z,35629,-0.10380367,-0.70733964,-1.1215193
1732440216004,2024-11-24T09:23:36.004Z,35639,-0.13813719,-0.69604176,-1.1506515
1732440216007,2024-11-24T09:23:36.007Z,35642,-0.13813719,-0.69604176,-1.1506515
1732440216015,2024-11-24T09:23:36.015Z,35650,-0.11009489,-0.7151582,-1.1529902
1732440216017,2024-11-24T09:23:36.017Z,35652,-0.11009489,-0.7151582,-1.1529902
1732440216026,2024-11-24T09:23:36.026Z,35661,-0.08410459,-0.7213414,-1.2006108
1732440216028,2024-11-24T09:23:36.028Z,35663,-0.08410459,-0.7213414,-1.2006108
1732440216035,2024-11-24T09:23:36.035Z,35670,-0.056181367,-0.73782873,-1.1759297
1732440216037,2024-11-24T09:23:36.037Z,35672,-0.056181367,-0.73782873,-1.1759297
1732440216045,2024-11-24T09:23:36.045Z,35680,-0.08987836,-0.73316306,-1.1603907
1732440216047,2024-11-24T09:23:36.047Z,35682,-0.08987836,-0.73316306,-1.1603907
1732440216053,2024-11-24T09:23:36.053Z,35688,-0.113245666,-0.71074545,-1.1183115
1732440216056,2024-11-24T09:23:36.056Z,35691,-0.113245666,-0.71074545,-1.1183115
1732440216063,2024-11-24T09:23:36.063Z,35698,-0.11367149,-0.7105139,-1.1234988
1732440216065,2024-11-24T09:23:36.065Z,35700,-0.11367149,-0.7105139,-1.1234988
1732440216075,2024-11-24T09:23:36.075Z,35710,-0.11123777,-0.7204308,-1.1444134
1732440216080,2024-11-24T09:23:36.080Z,35715,-0.11123777,-0.7204308,-1.1444134
1732440216124,2024-11-24T09:23:36.124Z,35759,-0.036877647,-0.7392749,-1.1422192
1732440216130,2024-11-24T09:23:36.130Z,35765,-0.036877647,-0.7392749,-1.1422192
1732440216148,2024-11-24T09:23:36.148Z,35783,-0.09653051,-0.71228915,-1.1198683
1732440216153,2024-11-24T09:23:36.153Z,35788,-0.09653051,-0.71228915,-1.1198683
1732440216171,2024-11-24T09:23:36.171Z,35806,-0.11642443,-0.7067723,-1.0907421
1732440216176,2024-11-24T09:23:36.176Z,35811,-0.11642443,-0.7067723,-1.0907421
1732440216213,2024-11-24T09:23:36.213Z,35848,-0.12004895,-0.70186895,-1.0982046
1732440216219,2024-11-24T09:23:36.219Z,35854,-0.12004895,-0.70186895,-1.0982046
1732440216235,2024-11-24T09:23:36.235Z,35870,-0.11439346,-0.704313,-1.122524
1732440216238,2024-11-24T09:23:36.238Z,35873,-0.11439346,-0.704313,-1.122524
1732440216249,2024-11-24T09:23:36.249Z,35884,-0.08494632,-0.71997195,-1.1610398
1732440216253,2024-11-24T09:23:36.253Z,35888,-0.08494632,-0.71997195,-1.1610398
1732440216264,2024-11-24T09:23:36.264Z,35899,-0.13370812,-0.7399311,-1.1335102
1732440216267,2024-11-24T09:23:36.267Z,35902,-0.13370812,-0.7399311,-1.1335102
1732440216278,2024-11-24T09:23:36.278Z,35913,-0.14327413,-0.74142426,-1.1314416
1732440216280,2024-11-24T09:23:36.280Z,35915,-0.14327413,-0.74142426,-1.1314416
1732440216289,2024-11-24T09:23:36.289Z,35924,-0.11558333,-0.76662034,-1.1014444
1732440216292,2024-11-24T09:23:36.292Z,35927,-0.11558333,-0.76662034,-1.1014444
1732440216300,2024-11-24T09:23:36.300Z,35935,-0.1958684,-0.87630606,-1.1033697
1732440216302,2024-11-24T09:23:36.302Z,35937,-0.1958684,-0.87630606,-1.1033697
1732440216311,2024-11-24T09:23:36.311Z,35946,-0.19855118,-0.89321095,-1.0824593
1732440216313,2024-11-24T09:23:36.313Z,35948,-0.19855118,-0.89321095,-1.0824593
1732440216342,2024-11-24T09:23:36.342Z,35977,-0.2093862,-0.90784585,-1.0806061
1732440216344,2024-11-24T09:23:36.344Z,35979,-0.2093862,-0.90784585,-1.0806061
1732440216352,2024-11-24T09:23:36.352Z,35987,-0.20051587,-0.92769164,-1.1696693
1732440216354,2024-11-24T09:23:36.354Z,35989,-0.20051587,-0.92769164,-1.1696693
1732440216362,2024-11-24T09:23:36.362Z,35997,-0.19901168,-0.94438326,-1.1720293
1732440216364,2024-11-24T09:23:36.364Z,35999,-0.19901168,-0.94438326,-1.1720293
1732440216371,2024-11-24T09:23:36.371Z,36006,-0.23734121,-0.9196737,-1.1609074
1732440216373,2024-11-24T09:23:36.373Z,36008,-0.23734121,-0.9196737,-1.1609074
1732440216390,2024-11-24T09:23:36.390Z,36025,-0.21211152,-0.8969463,-1.1035249
1732440216393,2024-11-24T09:23:36.393Z,36028,-0.21211152,-0.8969463,-1.1035249
1732440216438,2024-11-24T09:23:36.438Z,36073,-0.2203375,-0.86763436,-1.1534446
1732440216445,2024-11-24T09:23:36.445Z,36080,-0.2203375,-0.86763436,-1.1534446
1732440216468,2024-11-24T09:23:36.468Z,36103,-0.16819729,-0.87315875,-1.1597226
1732440216474,2024-11-24T09:23:36.474Z,36109,-0.16819729,-0.87315875,-1.1597226
1732440216491,2024-11-24T09:23:36.491Z,36126,-0.1862424,-0.83022213,-1.1618916
1732440216496,2024-11-24T09:23:36.496Z,36131,-0.1862424,-0.83022213,-1.1618916
1732440216509,2024-11-24T09:23:36.509Z,36144,-0.15152068,-0.839163,-1.1462598
1732440216513,2024-11-24T09:23:36.513Z,36148,-0.15152068,-0.839163,-1.1462598
1732440216524,2024-11-24T09:23:36.524Z,36159,-0.16071193,-0.8066508,-1.1344078
1732440216527,2024-11-24T09:23:36.527Z,36162,-0.16071193,-0.8066508,-1.1344078
1732440216541,2024-11-24T09:23:36.541Z,36176,-0.13484861,-0.759785,-1.104437
1732440216547,2024-11-24T09:23:36.547Z,36182,-0.13484861,-0.759785,-1.104437
1732440216567,2024-11-24T09:23:36.567Z,36202,-0.10409923,-0.76671547,-1.1051608
1732440216574,2024-11-24T09:23:36.574Z,36209,-0.10409923,-0.76671547,-1.1051608
1732440216593,2024-11-24T09:23:36.593Z,36228,-0.14993344,-0.6897144,-1.1047643
1732440216598,2024-11-24T09:23:36.598Z,36233,-0.14993344,-0.6897144,-1.1047643
1732440216615,2024-11-24T09:23:36.615Z,36250,-0.12089102,-0.6585759,-1.1571702
1732440216618,2024-11-24T09:23:36.618Z,36253,-0.12089102,-0.6585759,-1.1571702
1732440216630,2024-11-24T09:23:36.630Z,36265,0.02920005,-0.7360905,-1.1353642
1732440216634,2024-11-24T09:23:36.634Z,36269,0.02920005,-0.7360905,-1.1353642
1732440216645,2024-11-24T09:23:36.645Z,36280,-0.08703763,-0.6752327,-1.1440879
1732440216648,2024-11-24T09:23:36.648Z,36283,-0.08703763,-0.6752327,-1.1440879
1732440216659,2024-11-24T09:23:36.659Z,36294,-0.06395564,-0.6349843,-1.1528848
1732440216662,2024-11-24T09:23:36.662Z,36297,-0.06395564,-0.6349843,-1.1528848
1732440216671,2024-11-24T09:23:36.671Z,36306,-0.048287816,-0.6259284,-1.098228
1732440216674,2024-11-24T09:23:36.674Z,36309,-0.048287816,-0.6259284,-1.098228
1732440216683,2024-11-24T09:23:36.683Z,36318,-0.11371416,-0.55514264,-1.0966185
1732440216686,2024-11-24T09:23:36.686Z,36321,-0.11371416,-0.55514264,-1.0966185
1732440216695,2024-11-24T09:23:36.695Z,36330,-0.116512805,-0.5797213,-1.1322224
1732440216698,2024-11-24T09:23:36.698Z,36333,-0.116512805,-0.5797213,-1.1322224
1732440216705,2024-11-24T09:23:36.705Z,36340,-0.089513846,-0.5727696,-1.1630896
1732440216708,2024-11-24T09:23:36.708Z,36343,-0.089513846,-0.5727696,-1.1630896
1732440216716,2024-11-24T09:23:36.716Z,36351,0.03457103,-0.5529676,-1.1501876
1732440216717,2024-11-24T09:23:36.717Z,36352,0.03457103,-0.5529676,-1.1501876
1732440216725,2024-11-24T09:23:36.725Z,36360,-0.019415773,-0.52140814,-1.170332
1732440216727,2024-11-24T09:23:36.727Z,36362,-0.019415773,-0.52140814,-1.170332
1732440216734,2024-11-24T09:23:36.734Z,36369,-0.026085533,-0.54720885,-1.162784
1732440216736,2024-11-24T09:23:36.736Z,36371,-0.026085533,-0.54720885,-1.162784
1732440216843,2024-11-24T09:23:36.843Z,36478,0.019525785,-0.53453934,-1.0987424
1732440216849,2024-11-24T09:23:36.849Z,36484,0.019525785,-0.53453934,-1.0987424
1732440216868,2024-11-24T09:23:36.868Z,36503,-0.03542518,-0.52131647,-1.2338657
1732440216874,2024-11-24T09:23:36.874Z,36509,-0.03542518,-0.52131647,-1.2338657
1732440216895,2024-11-24T09:23:36.895Z,36530,0.02117389,-0.52889067,-1.2708137
1732440216901,2024-11-24T09:23:36.901Z,36536,0.02117389,-0.52889067,-1.2708137
1732440216919,2024-11-24T09:23:36.919Z,36554,-0.037086535,-0.5368215,-1.1354655
1732440216926,2024-11-24T09:23:36.926Z,36561,-0.037086535,-0.5368215,-1.1354655
1732440216944,2024-11-24T09:23:36.944Z,36579,0.027311219,-0.5256066,-1.1234059
1732440216950,2024-11-24T09:23:36.950Z,36585,0.027311219,-0.5256066,-1.1234059
1732440216962,2024-11-24T09:23:36.962Z,36597,0.073626764,-0.5299963,-1.1004832
1732440216965,2024-11-24T09:23:36.965Z,36600,0.073626764,-0.5299963,-1.1004832
1732440216979,2024-11-24T09:23:36.979Z,36614,0.10410086,-0.50719076,-1.3504843
1732440216983,2024-11-24T09:23:36.983Z,36618,0.10410086,-0.50719076,-1.3504843
1732440216994,2024-11-24T09:23:36.994Z,36629,-0.039541554,-0.46420792,-1.2650797
1732440216998,2024-11-24T09:23:36.998Z,36633,-0.039541554,-0.46420792,-1.2650797
1732440217008,2024-11-24T09:23:37.008Z,36643,0.063401975,-0.48558146,-1.2915871
1732440217011,2024-11-24T09:23:37.011Z,36646,0.063401975,-0.48558146,-1.2915871
1732440217021,2024-11-24T09:23:37.021Z,36656,0.065900676,-0.50047517,-1.2996801
1732440217024,2024-11-24T09:23:37.024Z,36659,0.065900676,-0.50047517,-1.2996801
1732440217032,2024-11-24T09:23:37.032Z,36667,0.19148648,-0.48747474,-1.4377843
1732440217034,2024-11-24T09:23:37.034Z,36669,0.19148648,-0.48747474,-1.4377843
1732440217042,2024-11-24T09:23:37.042Z,36677,0.1372869,-0.43466446,-1.3673263
1732440217045,2024-11-24T09:23:37.045Z,36680,0.1372869,-0.43466446,-1.3673263
1732440217051,2024-11-24T09:23:37.051Z,36686,0.043628607,-0.43181777,-1.2970266
1732440217053,2024-11-24T09:23:37.053Z,36688,0.043628607,-0.43181777,-1.2970266
