Timestamp (ms),ISO DateTime,Elapsed Time (ms),Acceleration X,Acceleration Y,Acceleration Z
1732436363484,2024-11-24T08:19:23.484Z,98477,-0.016490027,-0.0701689,-0.44473737
1732436363491,2024-11-24T08:19:23.491Z,98484,-0.016490027,-0.0701689,-0.44473737
1732436363512,2024-11-24T08:19:23.512Z,98505,-0.02811052,-0.059972666,-0.45208377
1732436363519,2024-11-24T08:19:23.519Z,98512,-0.02811052,-0.059972666,-0.45208377
1732436363541,2024-11-24T08:19:23.541Z,98534,-0.017627047,-0.039828774,-0.33255848
1732436363547,2024-11-24T08:19:23.547Z,98540,-0.017627047,-0.039828774,-0.33255848
1732436363565,2024-11-24T08:19:23.565Z,98558,-0.0051290877,-0.04684899,-0.34078255
1732436363571,2024-11-24T08:19:23.571Z,98564,-0.0051290877,-0.04684899,-0.34078255
1732436363583,2024-11-24T08:19:23.583Z,98576,0.0022289907,-0.04170945,-0.33887896
1732436363587,2024-11-24T08:19:23.587Z,98580,0.0022289907,-0.04170945,-0.33887896
1732436363600,2024-11-24T08:19:23.600Z,98593,-4.8930186E-4,-0.037591785,-0.31894672
1732436363605,2024-11-24T08:19:23.605Z,98598,-4.8930186E-4,-0.037591785,-0.31894672
1732436363620,2024-11-24T08:19:23.620Z,98613,-8.741354E-4,-0.037079193,-0.31493026
1732436363624,2024-11-24T08:19:23.624Z,98617,-8.741354E-4,-0.037079193,-0.31493026
1732436363636,2024-11-24T08:19:23.636Z,98629,0.0024716966,-0.03766822,-0.2913466
1732436363640,2024-11-24T08:19:23.640Z,98633,0.0024716966,-0.03766822,-0.2913466
1732436363652,2024-11-24T08:19:23.652Z,98645,0.008797976,-0.033619214,-0.25430974
1732436363656,2024-11-24T08:19:23.656Z,98649,0.008797976,-0.033619214,-0.25430974
1732436363669,2024-11-24T08:19:23.669Z,98662,0.01343217,-0.034282736,-0.2525957
1732436363673,2024-11-24T08:19:23.673Z,98666,0.01343217,-0.034282736,-0.2525957
1732436363684,2024-11-24T08:19:23.684Z,98677,0.014157176,-0.022818983,-0.24566834
1732436363687,2024-11-24T08:19:23.687Z,98680,0.014157176,-0.022818983,-0.24566834
1732436363700,2024-11-24T08:19:23.700Z,98693,-0.0023790682,-0.016812867,-0.25394937
1732436363704,2024-11-24T08:19:23.704Z,98697,-0.0023790682,-0.016812867,-0.25394937
1732436363716,2024-11-24T08:19:23.716Z,98709,0.0046237884,-0.017320499,-0.24949929
1732436363719,2024-11-24T08:19:23.719Z,98712,0.0046237884,-0.017320499,-0.24949929
1732436363730,2024-11-24T08:19:23.730Z,98723,0.009126066,-0.017864017,-0.23429245
1732436363734,2024-11-24T08:19:23.734Z,98727,0.009126066,-0.017864017,-0.23429245
1732436363746,2024-11-24T08:19:23.746Z,98739,-0.004778631,-0.016701031,-0.17993708
1732436363750,2024-11-24T08:19:23.750Z,98743,-0.004778631,-0.016701031,-0.17993708
1732436363763,2024-11-24T08:19:23.763Z,98756,0.0018924163,-0.013362517,-0.1917964
1732436363767,2024-11-24T08:19:23.767Z,98760,0.0018924163,-0.013362517,-0.1917964
1732436363788,2024-11-24T08:19:23.788Z,98781,0.009519019,-0.016857307,-0.20760544
1732436363791,2024-11-24T08:19:23.791Z,98784,0.009519019,-0.016857307,-0.20760544
1732436363804,2024-11-24T08:19:23.804Z,98797,-0.006983334,-0.0148403905,-0.17715818
1732436363808,2024-11-24T08:19:23.808Z,98801,-0.006983334,-0.0148403905,-0.17715818
1732436363819,2024-11-24T08:19:23.819Z,98812,-0.022764718,-0.005132637,-0.20192833
1732436363823,2024-11-24T08:19:23.823Z,98816,-0.022764718,-0.005132637,-0.20192833
1732436363835,2024-11-24T08:19:23.835Z,98828,0.0047104363,-0.013455097,-0.18572982
1732436363838,2024-11-24T08:19:23.838Z,98831,0.0047104363,-0.013455097,-0.18572982
1732436363850,2024-11-24T08:19:23.850Z,98843,0.005728547,-0.006039861,-0.1722265
1732436363854,2024-11-24T08:19:23.854Z,98847,0.005728547,-0.006039861,-0.1722265
1732436363865,2024-11-24T08:19:23.865Z,98858,-0.0042912983,-0.0065408815,-0.169711
1732436363868,2024-11-24T08:19:23.868Z,98861,-0.0042912983,-0.0065408815,-0.169711
1732436363879,2024-11-24T08:19:23.879Z,98872,0.0071133785,-0.004118927,-0.17308031
1732436363883,2024-11-24T08:19:23.883Z,98876,0.0071133785,-0.004118927,-0.17308031
1732436363935,2024-11-24T08:19:23.935Z,98928,0.025257152,-0.006817162,-0.13740066
1732436363947,2024-11-24T08:19:23.947Z,98940,0.025257152,-0.006817162,-0.13740066
1732436363980,2024-11-24T08:19:23.980Z,98973,0.0023450071,-0.0045607234,-0.11413415
1732436363989,2024-11-24T08:19:23.989Z,98982,0.0023450071,-0.0045607234,-0.11413415
1732436364016,2024-11-24T08:19:24.016Z,99009,0.002537266,-0.0023804295,-0.12706472
1732436364020,2024-11-24T08:19:24.020Z,99013,0.002537266,-0.0023804295,-0.12706472
1732436364035,2024-11-24T08:19:24.035Z,99028,0.006517639,-0.023772787,-0.09692316
1732436364039,2024-11-24T08:19:24.039Z,99032,0.006517639,-0.023772787,-0.09692316
1732436364055,2024-11-24T08:19:24.055Z,99048,0.0035382851,-0.02874059,-0.09702082
1732436364059,2024-11-24T08:19:24.059Z,99052,0.0035382851,-0.02874059,-0.09702082
1732436364072,2024-11-24T08:19:24.072Z,99065,-0.010465969,-0.023535892,-0.11266564
1732436364075,2024-11-24T08:19:24.075Z,99068,-0.010465969,-0.023535892,-0.11266564
1732436364088,2024-11-24T08:19:24.088Z,99081,-0.037738483,-0.08076014,-0.10813402
1732436364092,2024-11-24T08:19:24.092Z,99085,-0.037738483,-0.08076014,-0.10813402
1732436364104,2024-11-24T08:19:24.104Z,99097,-0.032640003,-0.10459332,-0.10601667
1732436364108,2024-11-24T08:19:24.108Z,99101,-0.032640003,-0.10459332,-0.10601667
1732436364120,2024-11-24T08:19:24.120Z,99113,-0.040575564,-0.11480744,-0.111362055
1732436364124,2024-11-24T08:19:24.124Z,99117,-0.040575564,-0.11480744,-0.111362055
1732436364136,2024-11-24T08:19:24.136Z,99129,-0.078474626,-0.17888561,-0.17465562
1732436364143,2024-11-24T08:19:24.143Z,99136,-0.078474626,-0.17888561,-0.17465562
1732436364156,2024-11-24T08:19:24.156Z,99149,-0.12057523,-0.18180043,-0.20433755
1732436364161,2024-11-24T08:19:24.161Z,99154,-0.12057523,-0.18180043,-0.20433755
1732436364173,2024-11-24T08:19:24.173Z,99166,-0.12163754,-0.21077529,-0.18527275
1732436364177,2024-11-24T08:19:24.177Z,99170,-0.12163754,-0.21077529,-0.18527275
1732436364188,2024-11-24T08:19:24.188Z,99181,-0.13576518,-0.2140714,-0.1684548
1732436364195,2024-11-24T08:19:24.195Z,99188,-0.13576518,-0.2140714,-0.1684548
1732436364214,2024-11-24T08:19:24.214Z,99207,-0.15023199,-0.19763137,-0.19711617
1732436364218,2024-11-24T08:19:24.218Z,99211,-0.15023199,-0.19763137,-0.19711617
1732436364231,2024-11-24T08:19:24.231Z,99224,-0.1250321,-0.19980223,-0.18948962
1732436364235,2024-11-24T08:19:24.235Z,99228,-0.1250321,-0.19980223,-0.18948962
1732436364246,2024-11-24T08:19:24.246Z,99239,-0.13930808,-0.17597003,-0.18543862
1732436364250,2024-11-24T08:19:24.250Z,99243,-0.13930808,-0.17597003,-0.18543862
1732436364262,2024-11-24T08:19:24.262Z,99255,-0.10214666,-0.17388748,-0.16225135
1732436364265,2024-11-24T08:19:24.265Z,99258,-0.10214666,-0.17388748,-0.16225135
1732436364285,2024-11-24T08:19:24.285Z,99278,-0.08770954,-0.16263309,-0.1487704
1732436364289,2024-11-24T08:19:24.289Z,99282,-0.08770954,-0.16263309,-0.1487704
1732436364301,2024-11-24T08:19:24.301Z,99294,-0.07845119,-0.11518156,-0.09908281
1732436364305,2024-11-24T08:19:24.305Z,99298,-0.07845119,-0.11518156,-0.09908281
1732436364322,2024-11-24T08:19:24.322Z,99315,-0.06311578,-0.100363724,-0.09121793
1732436364325,2024-11-24T08:19:24.325Z,99318,-0.06311578,-0.100363724,-0.09121793
1732436364336,2024-11-24T08:19:24.336Z,99329,-0.029701566,-0.099241294,-0.06618805
1732436364339,2024-11-24T08:19:24.339Z,99332,-0.029701566,-0.099241294,-0.06618805
1732436364351,2024-11-24T08:19:24.351Z,99344,0.031931434,-0.095128685,-0.1410291
1732436364354,2024-11-24T08:19:24.354Z,99347,0.031931434,-0.095128685,-0.1410291
1732436364366,2024-11-24T08:19:24.366Z,99359,0.076593444,-0.10424994,-0.06484066
1732436364369,2024-11-24T08:19:24.369Z,99362,0.076593444,-0.10424994,-0.06484066
1732436364379,2024-11-24T08:19:24.379Z,99372,0.038906183,-0.085988276,-0.06930144
1732436364383,2024-11-24T08:19:24.383Z,99376,0.038906183,-0.085988276,-0.06930144
1732436364394,2024-11-24T08:19:24.394Z,99387,0.04199915,-0.111572206,-0.093565024
1732436364398,2024-11-24T08:19:24.398Z,99391,0.04199915,-0.111572206,-0.093565024
1732436364411,2024-11-24T08:19:24.411Z,99404,0.102065004,-0.132762,-0.0980954
1732436364415,2024-11-24T08:19:24.415Z,99408,0.102065004,-0.132762,-0.0980954
1732436364430,2024-11-24T08:19:24.430Z,99423,0.034412514,-0.12752949,-0.072347656
1732436364439,2024-11-24T08:19:24.439Z,99432,0.034412514,-0.12752949,-0.072347656
1732436364465,2024-11-24T08:19:24.465Z,99458,0.068579674,-0.14495005,-0.06468982
1732436364472,2024-11-24T08:19:24.472Z,99465,0.068579674,-0.14495005,-0.06468982
1732436364499,2024-11-24T08:19:24.499Z,99492,0.017250456,-0.12699531,-0.08777519
1732436364507,2024-11-24T08:19:24.507Z,99500,0.017250456,-0.12699531,-0.08777519
1732436364526,2024-11-24T08:19:24.526Z,99519,-0.0025095015,-0.123751216,-0.11267848
1732436364535,2024-11-24T08:19:24.535Z,99528,-0.0025095015,-0.123751216,-0.11267848
1732436364564,2024-11-24T08:19:24.564Z,99557,0.02431137,-0.09716544,-0.07096352
1732436364571,2024-11-24T08:19:24.571Z,99564,0.02431137,-0.09716544,-0.07096352
1732436364595,2024-11-24T08:19:24.595Z,99588,0.04286295,-0.07479847,-0.09595885
1732436364603,2024-11-24T08:19:24.603Z,99596,0.04286295,-0.07479847,-0.09595885
1732436364629,2024-11-24T08:19:24.629Z,99622,0.047958415,-0.07049652,-0.1212577
1732436364634,2024-11-24T08:19:24.634Z,99627,0.047958415,-0.07049652,-0.1212577
1732436364650,2024-11-24T08:19:24.650Z,99643,0.012955827,-0.04159693,-0.18170391
1732436364653,2024-11-24T08:19:24.653Z,99646,0.012955827,-0.04159693,-0.18170391
1732436364667,2024-11-24T08:19:24.667Z,99660,0.06815237,-0.030603759,-0.13297574
1732436364671,2024-11-24T08:19:24.671Z,99664,0.06815237,-0.030603759,-0.13297574
1732436364682,2024-11-24T08:19:24.682Z,99675,0.031420324,-0.034261633,-0.17809005
1732436364685,2024-11-24T08:19:24.685Z,99678,0.031420324,-0.034261633,-0.17809005
1732436364698,2024-11-24T08:19:24.698Z,99691,0.011087358,-0.038731623,-0.16843733
1732436364702,2024-11-24T08:19:24.702Z,99695,0.011087358,-0.038731623,-0.16843733
1732436364716,2024-11-24T08:19:24.716Z,99709,0.0390708,-0.004310894,-0.15910487
1732436364720,2024-11-24T08:19:24.720Z,99713,0.0390708,-0.004310894,-0.15910487
1732436364737,2024-11-24T08:19:24.737Z,99730,-0.011021521,-0.02226642,-0.16725706
1732436364746,2024-11-24T08:19:24.746Z,99739,-0.011021521,-0.02226642,-0.16725706
1732436364774,2024-11-24T08:19:24.774Z,99767,-0.0266838,-0.0033661325,-0.07191719
1732436364781,2024-11-24T08:19:24.781Z,99774,-0.0266838,-0.0033661325,-0.07191719
1732436364803,2024-11-24T08:19:24.803Z,99796,-0.04089918,-0.027106926,-0.056591142
1732436364806,2024-11-24T08:19:24.806Z,99799,-0.04089918,-0.027106926,-0.056591142
1732436364818,2024-11-24T08:19:24.818Z,99811,-0.06337318,-0.019111218,-0.02385704
1732436364821,2024-11-24T08:19:24.821Z,99814,-0.06337318,-0.019111218,-0.02385704
1732436364833,2024-11-24T08:19:24.833Z,99826,0.021581553,-0.036725115,-0.0699785
1732436364837,2024-11-24T08:19:24.837Z,99830,0.021581553,-0.036725115,-0.0699785
1732436364849,2024-11-24T08:19:24.849Z,99842,0.032375783,-0.016254274,-0.058804978
1732436364852,2024-11-24T08:19:24.852Z,99845,0.032375783,-0.016254274,-0.058804978
1732436364864,2024-11-24T08:19:24.864Z,99857,0.021974823,-0.011565379,-0.1024261
1732436364868,2024-11-24T08:19:24.868Z,99861,0.021974823,-0.011565379,-0.1024261
1732436364883,2024-11-24T08:19:24.883Z,99876,0.07336953,-0.011154021,0.015670583
1732436364886,2024-11-24T08:19:24.886Z,99879,0.07336953,-0.011154021,0.015670583
1732436364899,2024-11-24T08:19:24.899Z,99892,0.026874041,-0.00260478,0.024068104
1732436364902,2024-11-24T08:19:24.902Z,99895,0.026874041,-0.00260478,0.024068104
1732436364914,2024-11-24T08:19:24.914Z,99907,0.0033965951,-0.007666329,-0.059570633
1732436364922,2024-11-24T08:19:24.922Z,99915,0.0033965951,-0.007666329,-0.059570633
1732436364939,2024-11-24T08:19:24.939Z,99932,0.039098807,0.010190101,-0.015278345
1732436364943,2024-11-24T08:19:24.943Z,99936,0.039098807,0.010190101,-0.015278345
1732436364955,2024-11-24T08:19:24.955Z,99948,0.030889789,0.035719085,-0.060358934
1732436364958,2024-11-24T08:19:24.958Z,99951,0.030889789,0.035719085,-0.060358934
1732436364969,2024-11-24T08:19:24.969Z,99962,0.13969584,0.038929623,-0.045957044
1732436364973,2024-11-24T08:19:24.973Z,99966,0.13969584,0.038929623,-0.045957044
1732436364983,2024-11-24T08:19:24.983Z,99976,0.024428017,0.035334956,-0.18216981
1732436364987,2024-11-24T08:19:24.987Z,99980,0.024428017,0.035334956,-0.18216981
1732436364996,2024-11-24T08:19:24.996Z,99989,0.21276376,0.037627768,-0.049819835
1732436364999,2024-11-24T08:19:24.999Z,99992,0.21276376,0.037627768,-0.049819835
1732436365010,2024-11-24T08:19:25.010Z,100003,0.18091603,0.083502136,-6.390998E-4
1732436365013,2024-11-24T08:19:25.013Z,100006,0.18091603,0.083502136,-6.390998E-4
1732436365024,2024-11-24T08:19:25.024Z,100017,0.047027245,0.079280905,-0.07308231
1732436365027,2024-11-24T08:19:25.027Z,100020,0.047027245,0.079280905,-0.07308231
1732436365038,2024-11-24T08:19:25.038Z,100031,7.366514E-5,0.06120703,-0.059127353
1732436365041,2024-11-24T08:19:25.041Z,100034,7.366514E-5,0.06120703,-0.059127353
1732436365054,2024-11-24T08:19:25.054Z,100047,0.051429626,0.031418305,0.027316408
1732436365057,2024-11-24T08:19:25.057Z,100050,0.051429626,0.031418305,0.027316408
1732436365068,2024-11-24T08:19:25.068Z,100061,-0.009059281,0.061949324,-0.08420528
1732436365072,2024-11-24T08:19:25.072Z,100065,-0.009059281,0.061949324,-0.08420528
1732436365083,2024-11-24T08:19:25.083Z,100076,0.054233152,0.07580158,-0.07178192
1732436365086,2024-11-24T08:19:25.086Z,100079,0.054233152,0.07580158,-0.07178192
1732436365099,2024-11-24T08:19:25.099Z,100092,0.12107681,0.047471765,-0.043135125
1732436365102,2024-11-24T08:19:25.102Z,100095,0.12107681,0.047471765,-0.043135125
1732436365113,2024-11-24T08:19:25.113Z,100106,0.06335305,0.049083255,-0.12546846
1732436365117,2024-11-24T08:19:25.117Z,100110,0.06335305,0.049083255,-0.12546846
1732436365128,2024-11-24T08:19:25.128Z,100121,0.01763016,0.078260005,-0.12994659
1732436365132,2024-11-24T08:19:25.132Z,100125,0.01763016,0.078260005,-0.12994659
1732436365144,2024-11-24T08:19:25.144Z,100137,0.006048127,0.076167814,-0.104401805
1732436365148,2024-11-24T08:19:25.148Z,100141,0.006048127,0.076167814,-0.104401805
1732436365159,2024-11-24T08:19:25.159Z,100152,0.08777712,0.018525107,-0.06792059
1732436365163,2024-11-24T08:19:25.163Z,100156,0.08777712,0.018525107,-0.06792059
1732436365173,2024-11-24T08:19:25.173Z,100166,0.0076346993,0.06476533,-0.11194065
1732436365177,2024-11-24T08:19:25.177Z,100170,0.0076346993,0.06476533,-0.11194065
1732436365188,2024-11-24T08:19:25.188Z,100181,-0.028157104,0.08602776,-0.18964456
1732436365191,2024-11-24T08:19:25.191Z,100184,-0.028157104,0.08602776,-0.18964456
1732436365200,2024-11-24T08:19:25.200Z,100193,0.009201457,0.01693744,-0.09112155
1732436365203,2024-11-24T08:19:25.203Z,100196,0.009201457,0.01693744,-0.09112155
1732436365214,2024-11-24T08:19:25.214Z,100207,0.03056396,0.073979646,-0.08491539
1732436365217,2024-11-24T08:19:25.217Z,100210,0.03056396,0.073979646,-0.08491539
1732436365227,2024-11-24T08:19:25.227Z,100220,-0.030926159,0.10835749,-0.0986657
1732436365230,2024-11-24T08:19:25.230Z,100223,-0.030926159,0.10835749,-0.0986657
1732436365240,2024-11-24T08:19:25.240Z,100233,-0.00966652,0.10617535,-0.038475294
1732436365242,2024-11-24T08:19:25.242Z,100235,-0.00966652,0.10617535,-0.038475294
1732436365252,2024-11-24T08:19:25.252Z,100245,-0.047094565,0.11997149,-0.032281153
1732436365254,2024-11-24T08:19:25.254Z,100247,-0.047094565,0.11997149,-0.032281153
1732436365263,2024-11-24T08:19:25.263Z,100256,-0.020375852,0.098391056,-0.037547305
1732436365266,2024-11-24T08:19:25.266Z,100259,-0.020375852,0.098391056,-0.037547305
1732436365276,2024-11-24T08:19:25.276Z,100269,-0.12555604,0.07473633,-0.16878474
1732436365280,2024-11-24T08:19:25.280Z,100273,-0.12555604,0.07473633,-0.16878474
1732436365291,2024-11-24T08:19:25.291Z,100284,-0.012882283,0.073552825,-0.040991765
1732436365294,2024-11-24T08:19:25.294Z,100287,-0.012882283,0.073552825,-0.040991765
1732436365303,2024-11-24T08:19:25.303Z,100296,0.07496379,0.13733798,0.008587131
1732436365306,2024-11-24T08:19:25.306Z,100299,0.07496379,0.13733798,0.008587131
1732436365318,2024-11-24T08:19:25.318Z,100311,-0.026225131,0.12095389,-0.08615395
1732436365321,2024-11-24T08:19:25.321Z,100314,-0.026225131,0.12095389,-0.08615395
1732436365330,2024-11-24T08:19:25.330Z,100323,0.03864121,0.102451146,-0.13160704
1732436365332,2024-11-24T08:19:25.332Z,100325,0.03864121,0.102451146,-0.13160704
1732436365341,2024-11-24T08:19:25.341Z,100334,0.03575616,0.098977655,-0.1866409
1732436365344,2024-11-24T08:19:25.344Z,100337,0.03575616,0.098977655,-0.1866409
1732436365353,2024-11-24T08:19:25.353Z,100346,-0.09501549,0.077484064,-0.12826964
1732436365356,2024-11-24T08:19:25.356Z,100349,-0.09501549,0.077484064,-0.12826964
1732436365367,2024-11-24T08:19:25.367Z,100360,0.08237341,0.060069814,-0.05754475
1732436365370,2024-11-24T08:19:25.370Z,100363,0.08237341,0.060069814,-0.05754475
1732436365381,2024-11-24T08:19:25.381Z,100374,0.057945244,0.10617291,-0.0540949
1732436365384,2024-11-24T08:19:25.384Z,100377,0.057945244,0.10617291,-0.0540949
1732436365394,2024-11-24T08:19:25.394Z,100387,-0.1180313,0.07735453,-0.20741192
1732436365397,2024-11-24T08:19:25.397Z,100390,-0.1180313,0.07735453,-0.20741192
1732436365408,2024-11-24T08:19:25.408Z,100401,0.006195214,0.047498602,-0.16097324
1732436365412,2024-11-24T08:19:25.412Z,100405,0.006195214,0.047498602,-0.16097324
1732436365432,2024-11-24T08:19:25.432Z,100425,0.04738908,0.07523414,-0.08631871
1732436365437,2024-11-24T08:19:25.437Z,100430,0.04738908,0.07523414,-0.08631871
1732436365447,2024-11-24T08:19:25.447Z,100440,0.01885536,0.053183317,-0.069849566
1732436365450,2024-11-24T08:19:25.450Z,100443,0.01885536,0.053183317,-0.069849566
1732436365459,2024-11-24T08:19:25.459Z,100452,-0.025329359,0.062119313,-0.118485205
1732436365462,2024-11-24T08:19:25.462Z,100455,-0.025329359,0.062119313,-0.118485205
1732436365473,2024-11-24T08:19:25.473Z,100466,-0.10008876,0.075856425,-0.1947191
1732436365475,2024-11-24T08:19:25.475Z,100468,-0.10008876,0.075856425,-0.1947191
1732436365488,2024-11-24T08:19:25.488Z,100481,-0.0702482,0.04280358,-0.22265463
1732436365498,2024-11-24T08:19:25.498Z,100491,-0.0702482,0.04280358,-0.22265463
1732436365524,2024-11-24T08:19:25.524Z,100517,-0.009918805,0.0730518,-0.07715999
1732436365531,2024-11-24T08:19:25.531Z,100524,-0.009918805,0.0730518,-0.07715999
1732436365558,2024-11-24T08:19:25.558Z,100551,-0.00876304,0.03195638,-0.13664432
1732436365565,2024-11-24T08:19:25.565Z,100558,-0.00876304,0.03195638,-0.13664432
1732436365579,2024-11-24T08:19:25.579Z,100572,-0.032335278,0.038341466,-0.18510951
1732436365583,2024-11-24T08:19:25.583Z,100576,-0.032335278,0.038341466,-0.18510951
1732436365596,2024-11-24T08:19:25.596Z,100589,-0.05060623,0.024782704,-0.059364747
1732436365600,2024-11-24T08:19:25.600Z,100593,-0.05060623,0.024782704,-0.059364747
1732436365611,2024-11-24T08:19:25.611Z,100604,-0.13232349,0.014754715,-0.09061627
1732436365615,2024-11-24T08:19:25.615Z,100608,-0.13232349,0.014754715,-0.09061627
1732436365632,2024-11-24T08:19:25.632Z,100625,-0.15910459,0.012011163,-0.12431926
1732436365640,2024-11-24T08:19:25.640Z,100633,-0.15910459,0.012011163,-0.12431926
1732436365667,2024-11-24T08:19:25.667Z,100660,-0.07463626,0.00425945,-0.014754819
1732436365671,2024-11-24T08:19:25.671Z,100664,-0.07463626,0.00425945,-0.014754819
1732436365688,2024-11-24T08:19:25.688Z,100681,-0.19494005,0.030188996,-0.09218947
1732436365693,2024-11-24T08:19:25.693Z,100686,-0.19494005,0.030188996,-0.09218947
1732436365707,2024-11-24T08:19:25.707Z,100700,-0.13760267,0.02917344,-0.09540368
1732436365711,2024-11-24T08:19:25.711Z,100704,-0.13760267,0.02917344,-0.09540368
1732436365724,2024-11-24T08:19:25.724Z,100717,-0.03686228,0.05650024,-0.09217067
1732436365728,2024-11-24T08:19:25.728Z,100721,-0.03686228,0.05650024,-0.09217067
1732436365739,2024-11-24T08:19:25.739Z,100732,-0.0085010305,0.09618285,-0.123698585
1732436365743,2024-11-24T08:19:25.743Z,100736,-0.0085010305,0.09618285,-0.123698585
1732436365754,2024-11-24T08:19:25.754Z,100747,-0.074858375,0.13684212,-0.15656172
1732436365757,2024-11-24T08:19:25.757Z,100750,-0.074858375,0.13684212,-0.15656172
1732436365768,2024-11-24T08:19:25.768Z,100761,-0.039999004,0.10996334,-0.06209119
1732436365771,2024-11-24T08:19:25.771Z,100764,-0.039999004,0.10996334,-0.06209119
1732436365782,2024-11-24T08:19:25.782Z,100775,-0.03896704,0.13655475,-0.04875474
1732436365785,2024-11-24T08:19:25.785Z,100778,-0.03896704,0.13655475,-0.04875474
1732436365795,2024-11-24T08:19:25.795Z,100788,-0.1279317,0.020327885,-0.02407293
1732436365798,2024-11-24T08:19:25.798Z,100791,-0.1279317,0.020327885,-0.02407293
1732436365812,2024-11-24T08:19:25.812Z,100805,-0.084641956,0.0105699515,-0.08115171
1732436365819,2024-11-24T08:19:25.819Z,100812,-0.084641956,0.0105699515,-0.08115171
1732436365843,2024-11-24T08:19:25.843Z,100836,-0.09050086,-0.04364312,-0.09910584
1732436365850,2024-11-24T08:19:25.850Z,100843,-0.09050086,-0.04364312,-0.09910584
1732436365873,2024-11-24T08:19:25.873Z,100866,-0.07416555,-0.05918243,-0.12402534
1732436365878,2024-11-24T08:19:25.878Z,100871,-0.07416555,-0.05918243,-0.12402534
1732436365891,2024-11-24T08:19:25.891Z,100884,-0.11534678,-0.035231873,-0.15832196
1732436365896,2024-11-24T08:19:25.896Z,100889,-0.11534678,-0.035231873,-0.15832196
1732436365912,2024-11-24T08:19:25.912Z,100905,0.0014942111,-0.037608802,-0.13434839
1732436365915,2024-11-24T08:19:25.915Z,100908,0.0014942111,-0.037608802,-0.13434839
1732436365927,2024-11-24T08:19:25.927Z,100920,-0.10267584,-0.004872694,-0.1638509
1732436365931,2024-11-24T08:19:25.931Z,100924,-0.10267584,-0.004872694,-0.1638509
1732436365942,2024-11-24T08:19:25.942Z,100935,-0.02096758,-0.029465474,-0.10118462
1732436365946,2024-11-24T08:19:25.946Z,100939,-0.02096758,-0.029465474,-0.10118462
1732436365958,2024-11-24T08:19:25.958Z,100951,-0.023710184,-0.0389233,-0.07034622
1732436365961,2024-11-24T08:19:25.961Z,100954,-0.023710184,-0.0389233,-0.07034622
1732436365971,2024-11-24T08:19:25.971Z,100964,-0.064573236,0.0554841,-0.08682389
1732436365974,2024-11-24T08:19:25.974Z,100967,-0.064573236,0.0554841,-0.08682389
1732436365987,2024-11-24T08:19:25.987Z,100980,-0.022701994,0.0731685,-0.085438505
1732436365990,2024-11-24T08:19:25.990Z,100983,-0.022701994,0.0731685,-0.085438505
1732436366000,2024-11-24T08:19:26Z,100993,0.019458197,0.06696945,-0.0544553
1732436366003,2024-11-24T08:19:26.003Z,100996,0.019458197,0.06696945,-0.0544553
1732436366013,2024-11-24T08:19:26.013Z,101006,-0.026160218,0.09523809,-0.11409299
1732436366016,2024-11-24T08:19:26.016Z,101009,-0.026160218,0.09523809,-0.11409299
1732436366026,2024-11-24T08:19:26.026Z,101019,-0.010595965,0.060717292,-0.09752007
1732436366030,2024-11-24T08:19:26.030Z,101023,-0.010595965,0.060717292,-0.09752007
1732436366044,2024-11-24T08:19:26.044Z,101037,-0.053977173,0.0676177,-0.098373845
1732436366048,2024-11-24T08:19:26.048Z,101041,-0.053977173,0.0676177,-0.098373845
1732436366060,2024-11-24T08:19:26.060Z,101053,-0.032170977,0.03837181,-0.0048512993
1732436366067,2024-11-24T08:19:26.067Z,101060,-0.032170977,0.03837181,-0.0048512993
1732436366085,2024-11-24T08:19:26.085Z,101078,-0.08596854,0.024314554,-0.040446177
1732436366088,2024-11-24T08:19:26.088Z,101081,-0.08596854,0.024314554,-0.040446177
1732436366099,2024-11-24T08:19:26.099Z,101092,-0.09197037,0.019570325,-0.07146319
1732436366102,2024-11-24T08:19:26.102Z,101095,-0.09197037,0.019570325,-0.07146319
1732436366112,2024-11-24T08:19:26.112Z,101105,-0.07582818,0.0032778315,-0.0941963
1732436366115,2024-11-24T08:19:26.115Z,101108,-0.07582818,0.0032778315,-0.0941963
1732436366124,2024-11-24T08:19:26.124Z,101117,-0.071264945,0.019564198,-0.089356825
1732436366128,2024-11-24T08:19:26.128Z,101121,-0.071264945,0.019564198,-0.089356825
1732436366138,2024-11-24T08:19:26.138Z,101131,-0.059689917,0.021309989,-0.07292424
1732436366141,2024-11-24T08:19:26.141Z,101134,-0.059689917,0.021309989,-0.07292424
1732436366151,2024-11-24T08:19:26.151Z,101144,-0.07339596,0.04197464,-0.08953852
1732436366154,2024-11-24T08:19:26.154Z,101147,-0.07339596,0.04197464,-0.08953852
1732436366164,2024-11-24T08:19:26.164Z,101157,-0.043453876,0.0579399,-0.059971385
1732436366168,2024-11-24T08:19:26.168Z,101161,-0.043453876,0.0579399,-0.059971385
1732436366180,2024-11-24T08:19:26.180Z,101173,-0.08345697,0.0851748,-0.10122548
1732436366184,2024-11-24T08:19:26.184Z,101177,-0.08345697,0.0851748,-0.10122548
1732436366193,2024-11-24T08:19:26.193Z,101186,-0.035033245,0.06314051,-0.07238357
1732436366196,2024-11-24T08:19:26.196Z,101189,-0.035033245,0.06314051,-0.07238357
1732436366205,2024-11-24T08:19:26.205Z,101198,-0.043089513,0.06049323,-0.08457558
1732436366209,2024-11-24T08:19:26.209Z,101202,-0.043089513,0.06049323,-0.08457558
1732436366225,2024-11-24T08:19:26.225Z,101218,-0.023679284,0.07048213,-0.07704758
1732436366231,2024-11-24T08:19:26.231Z,101224,-0.023679284,0.07048213,-0.07704758
1732436366253,2024-11-24T08:19:26.253Z,101246,-0.039560564,0.073780775,-0.10367699
1732436366257,2024-11-24T08:19:26.257Z,101250,-0.039560564,0.073780775,-0.10367699
1732436366269,2024-11-24T08:19:26.269Z,101262,-0.031591408,0.048114475,-0.11495239
1732436366273,2024-11-24T08:19:26.273Z,101266,-0.031591408,0.048114475,-0.11495239
1732436366283,2024-11-24T08:19:26.283Z,101276,0.013762351,0.026386222,-0.08439545
1732436366286,2024-11-24T08:19:26.286Z,101279,0.013762351,0.026386222,-0.08439545
1732436366300,2024-11-24T08:19:26.300Z,101293,-0.036404878,0.036391165,-0.06332673
1732436366306,2024-11-24T08:19:26.306Z,101299,-0.036404878,0.036391165,-0.06332673
1732436366325,2024-11-24T08:19:26.325Z,101318,-0.08971683,0.035952188,-0.16301769
1732436366327,2024-11-24T08:19:26.327Z,101320,-0.08971683,0.035952188,-0.16301769
1732436366336,2024-11-24T08:19:26.336Z,101329,-0.060882103,0.013439926,-0.10061396
1732436366340,2024-11-24T08:19:26.340Z,101333,-0.060882103,0.013439926,-0.10061396
1732436366350,2024-11-24T08:19:26.350Z,101343,0.002986526,-0.024461495,-0.061713923
1732436366353,2024-11-24T08:19:26.353Z,101346,0.002986526,-0.024461495,-0.061713923
1732436366363,2024-11-24T08:19:26.363Z,101356,-0.01927953,0.013970121,-0.06021829
1732436366366,2024-11-24T08:19:26.366Z,101359,-0.01927953,0.013970121,-0.06021829
1732436366378,2024-11-24T08:19:26.378Z,101371,-0.026243292,0.02696932,-0.06471865
1732436366385,2024-11-24T08:19:26.385Z,101378,-0.026243292,0.02696932,-0.06471865
1732436366405,2024-11-24T08:19:26.405Z,101398,-0.042095058,0.054962464,-0.0848409
1732436366408,2024-11-24T08:19:26.408Z,101401,-0.042095058,0.054962464,-0.0848409
1732436366417,2024-11-24T08:19:26.417Z,101410,0.014107507,0.056169502,-0.048816286
1732436366420,2024-11-24T08:19:26.420Z,101413,0.014107507,0.056169502,-0.048816286
1732436366430,2024-11-24T08:19:26.430Z,101423,0.014497373,0.05014938,-0.07177347
1732436366433,2024-11-24T08:19:26.433Z,101426,0.014497373,0.05014938,-0.07177347
1732436366443,2024-11-24T08:19:26.443Z,101436,-0.040411044,0.07761107,-0.114243954
1732436366446,2024-11-24T08:19:26.446Z,101439,-0.040411044,0.07761107,-0.114243954
1732436366455,2024-11-24T08:19:26.455Z,101448,0.004229911,0.10994691,-0.07418068
1732436366458,2024-11-24T08:19:26.458Z,101451,0.004229911,0.10994691,-0.07418068
1732436366468,2024-11-24T08:19:26.468Z,101461,0.0014643074,0.10956813,-0.100439556
1732436366471,2024-11-24T08:19:26.471Z,101464,0.0014643074,0.10956813,-0.100439556
1732436366484,2024-11-24T08:19:26.484Z,101477,-0.01930552,0.17548852,-0.099513866
1732436366493,2024-11-24T08:19:26.493Z,101486,-0.01930552,0.17548852,-0.099513866
1732436366515,2024-11-24T08:19:26.515Z,101508,-0.025745165,0.19234397,-0.08940814
1732436366522,2024-11-24T08:19:26.522Z,101515,-0.025745165,0.19234397,-0.08940814
1732436366536,2024-11-24T08:19:26.536Z,101529,-0.048886135,0.21488832,-0.08927124
1732436366539,2024-11-24T08:19:26.539Z,101532,-0.048886135,0.21488832,-0.08927124
1732436366550,2024-11-24T08:19:26.550Z,101543,-0.0769273,0.090834714,-0.1531202
1732436366553,2024-11-24T08:19:26.553Z,101546,-0.0769273,0.090834714,-0.1531202
1732436366563,2024-11-24T08:19:26.563Z,101556,0.13794075,0.042446196,-0.13804327
1732436366566,2024-11-24T08:19:26.566Z,101559,0.13794075,0.042446196,-0.13804327
1732436366576,2024-11-24T08:19:26.576Z,101569,0.26198164,-0.031581584,-0.16305938
1732436366579,2024-11-24T08:19:26.579Z,101572,0.26198164,-0.031581584,-0.16305938
1732436366593,2024-11-24T08:19:26.593Z,101586,-0.03200111,0.07140277,-0.09001552
1732436366596,2024-11-24T08:19:26.596Z,101589,-0.03200111,0.07140277,-0.09001552
1732436366607,2024-11-24T08:19:26.607Z,101600,-0.034297373,0.009784287,-0.092685565
1732436366613,2024-11-24T08:19:26.613Z,101606,-0.034297373,0.009784287,-0.092685565
1732436366630,2024-11-24T08:19:26.630Z,101623,-0.08138817,0.05215259,-0.077440955
1732436366633,2024-11-24T08:19:26.633Z,101626,-0.08138817,0.05215259,-0.077440955
1732436366643,2024-11-24T08:19:26.643Z,101636,-0.047368754,0.019652596,-0.1721393
1732436366645,2024-11-24T08:19:26.645Z,101638,-0.047368754,0.019652596,-0.1721393
1732436366655,2024-11-24T08:19:26.655Z,101648,-0.034322415,0.02201591,-0.17679003
1732436366659,2024-11-24T08:19:26.659Z,101652,-0.034322415,0.02201591,-0.17679003
1732436366671,2024-11-24T08:19:26.671Z,101664,-0.03491487,-0.0067262356,-0.095855966
1732436366675,2024-11-24T08:19:26.675Z,101668,-0.03491487,-0.0067262356,-0.095855966
1732436366684,2024-11-24T08:19:26.684Z,101677,0.0077373683,-0.0060396665,-0.02961864
1732436366687,2024-11-24T08:19:26.687Z,101680,0.0077373683,-0.0060396665,-0.02961864
1732436366696,2024-11-24T08:19:26.696Z,101689,-0.022295304,-8.8057807E-4,-0.067963436
1732436366699,2024-11-24T08:19:26.699Z,101692,-0.022295304,-8.8057807E-4,-0.067963436
1732436366708,2024-11-24T08:19:26.708Z,101701,0.10204397,0.037242763,-0.06453224
1732436366712,2024-11-24T08:19:26.712Z,101705,0.10204397,0.037242763,-0.06453224
1732436366722,2024-11-24T08:19:26.722Z,101715,-0.04018003,0.07079235,-0.15828219
1732436366726,2024-11-24T08:19:26.726Z,101719,-0.04018003,0.07079235,-0.15828219
1732436366735,2024-11-24T08:19:26.735Z,101728,-0.021010345,0.023254262,-0.19870509
1732436366739,2024-11-24T08:19:26.739Z,101732,-0.021010345,0.023254262,-0.19870509
1732436366747,2024-11-24T08:19:26.747Z,101740,0.04437819,-0.0012170551,-0.10033652
1732436366750,2024-11-24T08:19:26.750Z,101743,0.04437819,-0.0012170551,-0.10033652
1732436366760,2024-11-24T08:19:26.760Z,101753,0.030035565,-0.036328927,-0.06552793
1732436366763,2024-11-24T08:19:26.763Z,101756,0.030035565,-0.036328927,-0.06552793
1732436366778,2024-11-24T08:19:26.778Z,101771,0.06989183,-0.027967956,-0.04794982
1732436366783,2024-11-24T08:19:26.783Z,101776,0.06989183,-0.027967956,-0.04794982
1732436366804,2024-11-24T08:19:26.804Z,101797,0.06606597,-0.028016387,-0.058092404
1732436366810,2024-11-24T08:19:26.810Z,101803,0.06606597,-0.028016387,-0.058092404
1732436366827,2024-11-24T08:19:26.827Z,101820,0.006010225,0.003307103,-0.103099026
1732436366830,2024-11-24T08:19:26.830Z,101823,0.006010225,0.003307103,-0.103099026
1732436366843,2024-11-24T08:19:26.843Z,101836,-0.014672954,0.0027577507,-0.10634322
1732436366847,2024-11-24T08:19:26.847Z,101840,-0.014672954,0.0027577507,-0.10634322
1732436366858,2024-11-24T08:19:26.858Z,101851,0.031886384,-0.016942594,-0.091037825
1732436366862,2024-11-24T08:19:26.862Z,101855,0.031886384,-0.016942594,-0.091037825
1732436366876,2024-11-24T08:19:26.876Z,101869,0.050414406,-0.028540842,-0.021713385
1732436366885,2024-11-24T08:19:26.885Z,101878,0.050414406,-0.028540842,-0.021713385
1732436366904,2024-11-24T08:19:26.904Z,101897,0.02068583,-0.041211735,-0.05830054
1732436366907,2024-11-24T08:19:26.907Z,101900,0.02068583,-0.041211735,-0.05830054
1732436366919,2024-11-24T08:19:26.919Z,101912,0.03977711,-0.056667022,-0.03555729
1732436366925,2024-11-24T08:19:26.925Z,101918,0.03977711,-0.056667022,-0.03555729
1732436366944,2024-11-24T08:19:26.944Z,101937,0.0323575,-0.04427844,-0.1418627
1732436366947,2024-11-24T08:19:26.947Z,101940,0.0323575,-0.04427844,-0.1418627
1732436366958,2024-11-24T08:19:26.958Z,101951,0.042946633,-0.08955445,-0.066149086
1732436366962,2024-11-24T08:19:26.962Z,101955,0.042946633,-0.08955445,-0.066149086
1732436366972,2024-11-24T08:19:26.972Z,101965,0.046097215,-0.07566631,-0.0785812
1732436366976,2024-11-24T08:19:26.976Z,101969,0.046097215,-0.07566631,-0.0785812
1732436366988,2024-11-24T08:19:26.988Z,101981,0.00627999,-0.067839034,-0.066957675
1732436366991,2024-11-24T08:19:26.991Z,101984,0.00627999,-0.067839034,-0.066957675
1732436367003,2024-11-24T08:19:27.003Z,101996,-0.03258642,-0.03595598,-0.094727054
1732436367006,2024-11-24T08:19:27.006Z,101999,-0.03258642,-0.03595598,-0.094727054
1732436367015,2024-11-24T08:19:27.015Z,102008,0.025016975,-0.062767856,-0.094083995
1732436367019,2024-11-24T08:19:27.019Z,102012,0.025016975,-0.062767856,-0.094083995
1732436367030,2024-11-24T08:19:27.030Z,102023,0.063179456,-0.03142657,-0.12614237
1732436367033,2024-11-24T08:19:27.033Z,102026,0.063179456,-0.03142657,-0.12614237
1732436367042,2024-11-24T08:19:27.042Z,102035,0.085733645,-0.06087376,-0.05679772
1732436367045,2024-11-24T08:19:27.045Z,102038,0.085733645,-0.06087376,-0.05679772
1732436367056,2024-11-24T08:19:27.056Z,102049,0.117657855,-0.04318878,-0.04588101
1732436367059,2024-11-24T08:19:27.059Z,102052,0.117657855,-0.04318878,-0.04588101
1732436367068,2024-11-24T08:19:27.068Z,102061,0.013944666,-0.023286939,-0.08003721
1732436367071,2024-11-24T08:19:27.071Z,102064,0.013944666,-0.023286939,-0.08003721
1732436367080,2024-11-24T08:19:27.080Z,102073,-0.0131072905,-0.024270987,-0.108535305
1732436367082,2024-11-24T08:19:27.082Z,102075,-0.0131072905,-0.024270987,-0.108535305
1732436367091,2024-11-24T08:19:27.091Z,102084,0.046322636,-0.007859366,-0.08413617
1732436367093,2024-11-24T08:19:27.093Z,102086,0.046322636,-0.007859366,-0.08413617
1732436367103,2024-11-24T08:19:27.103Z,102096,0.12071512,-0.031840067,-0.09668211
1732436367106,2024-11-24T08:19:27.106Z,102099,0.12071512,-0.031840067,-0.09668211
1732436367117,2024-11-24T08:19:27.117Z,102110,0.05289821,0.008869575,-0.0909994
1732436367122,2024-11-24T08:19:27.122Z,102115,0.05289821,0.008869575,-0.0909994
1732436367135,2024-11-24T08:19:27.135Z,102128,0.065070316,-0.00948136,-0.09214302
1732436367138,2024-11-24T08:19:27.138Z,102131,0.065070316,-0.00948136,-0.09214302
1732436367152,2024-11-24T08:19:27.152Z,102145,0.10220712,-0.011263522,-0.028749513
1732436367156,2024-11-24T08:19:27.156Z,102149,0.10220712,-0.011263522,-0.028749513
1732436367174,2024-11-24T08:19:27.174Z,102167,0.055099435,-0.023085343,-0.05199371
1732436367178,2024-11-24T08:19:27.178Z,102171,0.055099435,-0.023085343,-0.05199371
1732436367190,2024-11-24T08:19:27.190Z,102183,0.07032785,0.011843993,-0.012235428
1732436367195,2024-11-24T08:19:27.195Z,102188,0.07032785,0.011843993,-0.012235428
1732436367212,2024-11-24T08:19:27.212Z,102205,0.06824811,-0.0064682374,-0.092474274
1732436367216,2024-11-24T08:19:27.216Z,102209,0.06824811,-0.0064682374,-0.092474274
1732436367225,2024-11-24T08:19:27.225Z,102218,0.07365447,0.023419,-0.066981345
1732436367227,2024-11-24T08:19:27.227Z,102220,0.07365447,0.023419,-0.066981345
1732436367237,2024-11-24T08:19:27.237Z,102230,0.053862493,-0.010844482,-0.005524959
1732436367240,2024-11-24T08:19:27.240Z,102233,0.053862493,-0.010844482,-0.005524959
1732436367250,2024-11-24T08:19:27.250Z,102243,0.013913644,-0.01752326,0.024101691
1732436367253,2024-11-24T08:19:27.253Z,102246,0.013913644,-0.01752326,0.024101691
1732436367264,2024-11-24T08:19:27.264Z,102257,0.0456366,-0.053669166,-0.115725584
1732436367269,2024-11-24T08:19:27.269Z,102262,0.0456366,-0.053669166,-0.115725584
1732436367280,2024-11-24T08:19:27.280Z,102273,0.006075089,-0.043162134,-0.11827678
1732436367283,2024-11-24T08:19:27.283Z,102276,0.006075089,-0.043162134,-0.11827678
1732436367296,2024-11-24T08:19:27.296Z,102289,0.06699952,-0.05017058,-0.09959086
1732436367304,2024-11-24T08:19:27.304Z,102297,0.06699952,-0.05017058,-0.09959086
1732436367325,2024-11-24T08:19:27.325Z,102318,-0.041858237,-0.02218872,-0.12683378
1732436367332,2024-11-24T08:19:27.332Z,102325,-0.041858237,-0.02218872,-0.12683378
1732436367356,2024-11-24T08:19:27.356Z,102349,-0.081988454,-0.023458483,-0.18167016
1732436367363,2024-11-24T08:19:27.363Z,102356,-0.081988454,-0.023458483,-0.18167016
1732436367388,2024-11-24T08:19:27.388Z,102381,-1.930124E-4,-0.029792031,-0.09876408
1732436367394,2024-11-24T08:19:27.394Z,102387,-1.930124E-4,-0.029792031,-0.09876408
1732436367409,2024-11-24T08:19:27.409Z,102402,-0.020350955,-0.04492825,-0.027719574
1732436367414,2024-11-24T08:19:27.414Z,102407,-0.020350955,-0.04492825,-0.027719574
1732436367428,2024-11-24T08:19:27.428Z,102421,-0.03733347,-0.05045678,-0.040985182
1732436367433,2024-11-24T08:19:27.433Z,102426,-0.03733347,-0.05045678,-0.040985182
1732436367446,2024-11-24T08:19:27.446Z,102439,-0.021472417,-0.055445783,-0.051941026
1732436367450,2024-11-24T08:19:27.450Z,102443,-0.021472417,-0.055445783,-0.051941026
1732436367461,2024-11-24T08:19:27.461Z,102454,-0.07455997,-0.017154692,-0.10309664
1732436367465,2024-11-24T08:19:27.465Z,102458,-0.07455997,-0.017154692,-0.10309664
1732436367475,2024-11-24T08:19:27.475Z,102468,0.018849548,-0.02136085,-0.08635247
1732436367478,2024-11-24T08:19:27.478Z,102471,0.018849548,-0.02136085,-0.08635247
1732436367488,2024-11-24T08:19:27.488Z,102481,0.048244104,-0.023124436,-0.0969245
1732436367491,2024-11-24T08:19:27.491Z,102484,0.048244104,-0.023124436,-0.0969245
1732436367501,2024-11-24T08:19:27.501Z,102494,-0.0069225784,-0.024931591,-0.10583464
1732436367504,2024-11-24T08:19:27.504Z,102497,-0.0069225784,-0.024931591,-0.10583464
1732436367513,2024-11-24T08:19:27.513Z,102506,0.0075965296,-0.025470732,-0.0595416
1732436367517,2024-11-24T08:19:27.517Z,102510,0.0075965296,-0.025470732,-0.0595416
1732436367527,2024-11-24T08:19:27.527Z,102520,0.0057901046,-0.034845997,-0.07069177
1732436367529,2024-11-24T08:19:27.529Z,102522,0.0057901046,-0.034845997,-0.07069177
1732436367539,2024-11-24T08:19:27.539Z,102532,-0.03632331,-0.016446728,-0.10442238
1732436367542,2024-11-24T08:19:27.542Z,102535,-0.03632331,-0.016446728,-0.10442238
1732436367553,2024-11-24T08:19:27.553Z,102546,-0.02287485,-0.015691891,-0.1137221
1732436367556,2024-11-24T08:19:27.556Z,102549,-0.02287485,-0.015691891,-0.1137221
1732436367569,2024-11-24T08:19:27.569Z,102562,-0.01461796,-0.029602302,-0.14730218
1732436367573,2024-11-24T08:19:27.573Z,102566,-0.01461796,-0.029602302,-0.14730218
1732436367582,2024-11-24T08:19:27.582Z,102575,0.023104599,-0.028283915,-0.10613187
1732436367585,2024-11-24T08:19:27.585Z,102578,0.023104599,-0.028283915,-0.10613187
1732436367595,2024-11-24T08:19:27.595Z,102588,0.07901873,-0.059297085,-0.07014497
1732436367599,2024-11-24T08:19:27.599Z,102592,0.07901873,-0.059297085,-0.07014497
1732436367608,2024-11-24T08:19:27.608Z,102601,-0.021791851,-0.045917455,-0.0853093
1732436367610,2024-11-24T08:19:27.610Z,102603,-0.021791851,-0.045917455,-0.0853093
1732436367619,2024-11-24T08:19:27.619Z,102612,-0.011897553,-0.061184954,-0.09658993
1732436367622,2024-11-24T08:19:27.622Z,102615,-0.011897553,-0.061184954,-0.09658993
1732436367632,2024-11-24T08:19:27.632Z,102625,-0.09202865,-0.059550222,-0.09100427
1732436367634,2024-11-24T08:19:27.634Z,102627,-0.09202865,-0.059550222,-0.09100427
1732436367644,2024-11-24T08:19:27.644Z,102637,-0.015981665,-0.06773955,-0.106441624
1732436367646,2024-11-24T08:19:27.646Z,102639,-0.015981665,-0.06773955,-0.106441624
1732436367659,2024-11-24T08:19:27.659Z,102652,-0.07782397,-0.05063309,-0.13385634
1732436367662,2024-11-24T08:19:27.662Z,102655,-0.07782397,-0.05063309,-0.13385634
1732436367673,2024-11-24T08:19:27.673Z,102666,-0.036169562,-0.033011902,-0.119395174
1732436367677,2024-11-24T08:19:27.677Z,102670,-0.036169562,-0.033011902,-0.119395174
1732436367686,2024-11-24T08:19:27.686Z,102679,-0.012322136,-0.04323818,-0.11524477
1732436367690,2024-11-24T08:19:27.690Z,102683,-0.012322136,-0.04323818,-0.11524477
1732436367700,2024-11-24T08:19:27.700Z,102693,1.708156E-4,-0.050187502,-0.08974368
1732436367703,2024-11-24T08:19:27.703Z,102696,1.708156E-4,-0.050187502,-0.08974368
1732436367719,2024-11-24T08:19:27.719Z,102712,-0.04796532,-0.02790883,-0.094310835
1732436367722,2024-11-24T08:19:27.722Z,102715,-0.04796532,-0.02790883,-0.094310835
1732436367733,2024-11-24T08:19:27.733Z,102726,-0.004111901,-0.024560785,-0.12720877
1732436367736,2024-11-24T08:19:27.736Z,102729,-0.004111901,-0.024560785,-0.12720877
1732436367745,2024-11-24T08:19:27.745Z,102738,-0.026901416,-0.013851381,-0.13627723
1732436367748,2024-11-24T08:19:27.748Z,102741,-0.026901416,-0.013851381,-0.13627723
1732436367758,2024-11-24T08:19:27.758Z,102751,0.008006404,-0.00194758,-0.0909899
1732436367762,2024-11-24T08:19:27.762Z,102755,0.008006404,-0.00194758,-0.0909899
1732436367772,2024-11-24T08:19:27.772Z,102765,0.017012224,0.0033171196,-0.086745
1732436367775,2024-11-24T08:19:27.775Z,102768,0.017012224,0.0033171196,-0.086745
1732436367783,2024-11-24T08:19:27.783Z,102776,-0.08168468,0.005246806,-0.116906
1732436367786,2024-11-24T08:19:27.786Z,102779,-0.08168468,0.005246806,-0.116906
1732436367794,2024-11-24T08:19:27.794Z,102787,-0.070329666,-0.0073799347,-0.118465364
1732436367796,2024-11-24T08:19:27.796Z,102789,-0.070329666,-0.0073799347,-0.118465364
1732436367805,2024-11-24T08:19:27.805Z,102798,-0.009214294,-0.009411925,-0.12687205
1732436367808,2024-11-24T08:19:27.808Z,102801,-0.009214294,-0.009411925,-0.12687205
1732436367817,2024-11-24T08:19:27.817Z,102810,0.011041773,-0.027644122,-0.08810432
1732436367821,2024-11-24T08:19:27.821Z,102814,0.011041773,-0.027644122,-0.08810432
1732436367830,2024-11-24T08:19:27.830Z,102823,-0.060336273,-0.012088475,-0.044982575
1732436367834,2024-11-24T08:19:27.834Z,102827,-0.060336273,-0.012088475,-0.044982575
1732436367844,2024-11-24T08:19:27.844Z,102837,-0.031389836,-4.3673947E-4,-0.04148443
1732436367848,2024-11-24T08:19:27.848Z,102841,-0.031389836,-4.3673947E-4,-0.04148443
1732436367857,2024-11-24T08:19:27.857Z,102850,-0.05479748,-0.009157234,-0.031678483
1732436367860,2024-11-24T08:19:27.860Z,102853,-0.05479748,-0.009157234,-0.031678483
1732436367870,2024-11-24T08:19:27.870Z,102863,-0.05012602,0.0022244442,-0.017895715
1732436367872,2024-11-24T08:19:27.872Z,102865,-0.05012602,0.0022244442,-0.017895715
1732436367881,2024-11-24T08:19:27.881Z,102874,-0.06778093,0.003968971,-0.045919944
1732436367884,2024-11-24T08:19:27.884Z,102877,-0.06778093,0.003968971,-0.045919944
1732436367894,2024-11-24T08:19:27.894Z,102887,-0.100875124,0.015049376,-0.07053636
1732436367896,2024-11-24T08:19:27.896Z,102889,-0.100875124,0.015049376,-0.07053636
1732436367904,2024-11-24T08:19:27.904Z,102897,-0.06818246,0.0012647065,-0.06921428
1732436367908,2024-11-24T08:19:27.908Z,102901,-0.06818246,0.0012647065,-0.06921428
1732436367918,2024-11-24T08:19:27.918Z,102911,-0.013636853,-0.015614482,-0.025878802
1732436367921,2024-11-24T08:19:27.921Z,102914,-0.013636853,-0.015614482,-0.025878802
1732436367931,2024-11-24T08:19:27.931Z,102924,-0.055302393,-0.02089834,-0.0534478
1732436367935,2024-11-24T08:19:27.935Z,102928,-0.055302393,-0.02089834,-0.0534478
1732436367945,2024-11-24T08:19:27.945Z,102938,-0.06084765,-0.021305807,-0.075173095
1732436367948,2024-11-24T08:19:27.948Z,102941,-0.06084765,-0.021305807,-0.075173095
1732436367957,2024-11-24T08:19:27.957Z,102950,0.0054630847,-0.020458488,-0.11643994
1732436367960,2024-11-24T08:19:27.960Z,102953,0.0054630847,-0.020458488,-0.11643994
1732436367970,2024-11-24T08:19:27.970Z,102963,-0.009271889,-0.01477465,-0.08599077
1732436367973,2024-11-24T08:19:27.973Z,102966,-0.009271889,-0.01477465,-0.08599077
1732436367986,2024-11-24T08:19:27.986Z,102979,-0.033107184,-8.791193E-4,-0.11129938
1732436367991,2024-11-24T08:19:27.991Z,102984,-0.033107184,-8.791193E-4,-0.11129938
1732436368011,2024-11-24T08:19:28.011Z,103004,0.059478648,-0.01519904,-0.082384124
1732436368025,2024-11-24T08:19:28.025Z,103018,0.059478648,-0.01519904,-0.082384124
1732436368040,2024-11-24T08:19:28.040Z,103033,0.060350765,-0.018897954,-0.0633717
1732436368043,2024-11-24T08:19:28.043Z,103036,0.060350765,-0.018897954,-0.0633717
1732436368054,2024-11-24T08:19:28.054Z,103047,0.048699565,-0.027863221,-0.014813738
1732436368059,2024-11-24T08:19:28.059Z,103052,0.048699565,-0.027863221,-0.014813738
1732436368069,2024-11-24T08:19:28.069Z,103062,0.023267414,-0.013973232,-0.08268936
1732436368073,2024-11-24T08:19:28.073Z,103066,0.023267414,-0.013973232,-0.08268936
1732436368083,2024-11-24T08:19:28.083Z,103076,-0.013566129,-0.014054629,-0.07090267
1732436368086,2024-11-24T08:19:28.086Z,103079,-0.013566129,-0.014054629,-0.07090267
1732436368095,2024-11-24T08:19:28.095Z,103088,-0.012068077,-0.01666427,-0.120147154
1732436368098,2024-11-24T08:19:28.098Z,103091,-0.012068077,-0.01666427,-0.120147154
1732436368109,2024-11-24T08:19:28.109Z,103102,-0.0029071232,-0.035996243,-0.11214496
1732436368112,2024-11-24T08:19:28.112Z,103105,-0.0029071232,-0.035996243,-0.11214496
1732436368121,2024-11-24T08:19:28.121Z,103114,0.008458071,-0.052143157,-0.10479529
1732436368125,2024-11-24T08:19:28.125Z,103118,0.008458071,-0.052143157,-0.10479529
1732436368138,2024-11-24T08:19:28.138Z,103131,0.003254954,-0.066456266,-0.06559132
1732436368140,2024-11-24T08:19:28.140Z,103133,0.003254954,-0.066456266,-0.06559132
1732436368148,2024-11-24T08:19:28.148Z,103141,-0.08130062,-0.052643593,-0.10087379
1732436368152,2024-11-24T08:19:28.152Z,103145,-0.08130062,-0.052643593,-0.10087379
1732436368161,2024-11-24T08:19:28.161Z,103154,-0.006835882,-0.0666846,-0.05122175
1732436368164,2024-11-24T08:19:28.164Z,103157,-0.006835882,-0.0666846,-0.05122175
1732436368172,2024-11-24T08:19:28.172Z,103165,-0.061870333,-0.057372652,-0.06396868
1732436368174,2024-11-24T08:19:28.174Z,103167,-0.061870333,-0.057372652,-0.06396868
1732436368185,2024-11-24T08:19:28.185Z,103178,-0.04677829,-0.05543966,-0.07915355
1732436368188,2024-11-24T08:19:28.188Z,103181,-0.04677829,-0.05543966,-0.07915355
1732436368200,2024-11-24T08:19:28.200Z,103193,-0.042210758,-0.06234551,-0.05923904
1732436368203,2024-11-24T08:19:28.203Z,103196,-0.042210758,-0.06234551,-0.05923904
1732436368211,2024-11-24T08:19:28.211Z,103204,-0.07846386,-0.057935033,-0.0822884
1732436368214,2024-11-24T08:19:28.214Z,103207,-0.07846386,-0.057935033,-0.0822884
1732436368227,2024-11-24T08:19:28.227Z,103220,-0.046853658,-0.06715548,-0.06790326
1732436368236,2024-11-24T08:19:28.236Z,103229,-0.046853658,-0.06715548,-0.06790326
1732436368253,2024-11-24T08:19:28.253Z,103246,-0.041532237,-0.057318483,-0.104989335
1732436368259,2024-11-24T08:19:28.259Z,103252,-0.041532237,-0.057318483,-0.104989335
1732436368273,2024-11-24T08:19:28.273Z,103266,-0.07459128,-0.02751099,-0.09873001
1732436368277,2024-11-24T08:19:28.277Z,103270,-0.07459128,-0.02751099,-0.09873001
1732436368287,2024-11-24T08:19:28.287Z,103280,-0.009830626,-0.033154275,-0.111367695
1732436368290,2024-11-24T08:19:28.290Z,103283,-0.009830626,-0.033154275,-0.111367695
1732436368299,2024-11-24T08:19:28.299Z,103292,-0.027196199,-0.028325438,-0.108135946
1732436368302,2024-11-24T08:19:28.302Z,103295,-0.027196199,-0.028325438,-0.108135946
1732436368311,2024-11-24T08:19:28.311Z,103304,-0.0156195145,-0.04365547,-0.018695163
1732436368314,2024-11-24T08:19:28.314Z,103307,-0.0156195145,-0.04365547,-0.018695163
1732436368322,2024-11-24T08:19:28.322Z,103315,-0.020152742,-0.022701798,-0.009917845
1732436368325,2024-11-24T08:19:28.325Z,103318,-0.020152742,-0.022701798,-0.009917845
1732436368335,2024-11-24T08:19:28.335Z,103328,-0.036588334,-0.022690421,0.0062098014
1732436368338,2024-11-24T08:19:28.338Z,103331,-0.036588334,-0.022690421,0.0062098014
1732436368346,2024-11-24T08:19:28.346Z,103339,-0.034868434,-0.013382453,-0.049246505
1732436368348,2024-11-24T08:19:28.348Z,103341,-0.034868434,-0.013382453,-0.049246505
1732436368356,2024-11-24T08:19:28.356Z,103349,-0.086603664,-0.01670424,-0.0682814
1732436368359,2024-11-24T08:19:28.359Z,103352,-0.086603664,-0.01670424,-0.0682814
1732436368369,2024-11-24T08:19:28.369Z,103362,-0.06502597,-0.0134830065,-0.08305387
1732436368372,2024-11-24T08:19:28.372Z,103365,-0.06502597,-0.0134830065,-0.08305387
1732436368381,2024-11-24T08:19:28.381Z,103374,-0.032001622,-0.017508965,-0.043790713
1732436368383,2024-11-24T08:19:28.383Z,103376,-0.032001622,-0.017508965,-0.043790713
1732436368392,2024-11-24T08:19:28.392Z,103385,-0.04469697,-0.034690887,0.01593114
1732436368395,2024-11-24T08:19:28.395Z,103388,-0.04469697,-0.034690887,0.01593114
1732436368403,2024-11-24T08:19:28.403Z,103396,-0.05867832,-0.04097396,0.009203296
1732436368406,2024-11-24T08:19:28.406Z,103399,-0.05867832,-0.04097396,0.009203296
1732436368416,2024-11-24T08:19:28.416Z,103409,-0.06879707,-0.057498004,-0.011385817
1732436368419,2024-11-24T08:19:28.419Z,103412,-0.06879707,-0.057498004,-0.011385817
1732436368430,2024-11-24T08:19:28.430Z,103423,-0.09230145,-0.08685981,-0.09076082
1732436368433,2024-11-24T08:19:28.433Z,103426,-0.09230145,-0.08685981,-0.09076082
1732436368443,2024-11-24T08:19:28.443Z,103436,-0.051249083,-0.11573995,-0.048152402
1732436368446,2024-11-24T08:19:28.446Z,103439,-0.051249083,-0.11573995,-0.048152402
1732436368455,2024-11-24T08:19:28.455Z,103448,-0.070669234,-0.13391049,-0.026143657
1732436368458,2024-11-24T08:19:28.458Z,103451,-0.070669234,-0.13391049,-0.026143657
1732436368466,2024-11-24T08:19:28.466Z,103459,-0.11002176,-0.29761925,-0.095761366
1732436368469,2024-11-24T08:19:28.469Z,103462,-0.11002176,-0.29761925,-0.095761366
1732436368477,2024-11-24T08:19:28.477Z,103470,-0.14026077,-0.31009027,-0.100057915
1732436368480,2024-11-24T08:19:28.480Z,103473,-0.14026077,-0.31009027,-0.100057915
1732436368490,2024-11-24T08:19:28.490Z,103483,-0.124883786,-0.29664773,-0.1131276
1732436368492,2024-11-24T08:19:28.492Z,103485,-0.124883786,-0.29664773,-0.1131276
1732436368505,2024-11-24T08:19:28.505Z,103498,-0.084086254,-0.21916582,-0.09445201
1732436368512,2024-11-24T08:19:28.512Z,103505,-0.084086254,-0.21916582,-0.09445201
1732436368533,2024-11-24T08:19:28.533Z,103526,-0.111530684,-0.19522935,-0.112751625
1732436368539,2024-11-24T08:19:28.539Z,103532,-0.111530684,-0.19522935,-0.112751625
1732436368548,2024-11-24T08:19:28.548Z,103541,-0.102042705,-0.14792874,-0.10944042
1732436368551,2024-11-24T08:19:28.551Z,103544,-0.102042705,-0.14792874,-0.10944042
1732436368561,2024-11-24T08:19:28.561Z,103554,-0.09665319,-0.13676403,-0.116539605
1732436368563,2024-11-24T08:19:28.563Z,103556,-0.09665319,-0.13676403,-0.116539605
1732436368573,2024-11-24T08:19:28.573Z,103566,-0.036056194,-0.12610295,-0.09578727
1732436368576,2024-11-24T08:19:28.576Z,103569,-0.036056194,-0.12610295,-0.09578727
1732436368605,2024-11-24T08:19:28.605Z,103598,-0.023222074,-0.135313,-0.13271028
1732436368607,2024-11-24T08:19:28.607Z,103600,-0.023222074,-0.135313,-0.13271028
1732436368616,2024-11-24T08:19:28.616Z,103609,-0.021039762,-0.13756506,-0.07937096
1732436368619,2024-11-24T08:19:28.619Z,103612,-0.021039762,-0.13756506,-0.07937096
1732436368628,2024-11-24T08:19:28.628Z,103621,-0.022395832,-0.14565383,-0.08593957
1732436368631,2024-11-24T08:19:28.631Z,103624,-0.022395832,-0.14565383,-0.08593957
1732436368653,2024-11-24T08:19:28.653Z,103646,0.007130348,-0.13944583,-0.0739346
1732436368656,2024-11-24T08:19:28.656Z,103649,0.007130348,-0.13944583,-0.0739346
1732436368666,2024-11-24T08:19:28.666Z,103659,0.019976335,-0.13004626,-0.05238191
1732436368670,2024-11-24T08:19:28.670Z,103663,0.019976335,-0.13004626,-0.05238191
1732436368695,2024-11-24T08:19:28.695Z,103688,-0.020208415,-0.10934397,-0.09072818
1732436368698,2024-11-24T08:19:28.698Z,103691,-0.020208415,-0.10934397,-0.09072818
1732436368714,2024-11-24T08:19:28.714Z,103707,0.05535831,-0.068467155,-0.05750554
1732436368721,2024-11-24T08:19:28.721Z,103714,0.05535831,-0.068467155,-0.05750554
1732436368745,2024-11-24T08:19:28.745Z,103738,0.076317504,-0.043604612,0.0057364786
1732436368751,2024-11-24T08:19:28.751Z,103744,0.076317504,-0.043604612,0.0057364786
1732436368774,2024-11-24T08:19:28.774Z,103767,-0.009894493,-0.035406727,-0.05957736
1732436368781,2024-11-24T08:19:28.781Z,103774,-0.009894493,-0.035406727,-0.05957736
1732436368800,2024-11-24T08:19:28.800Z,103793,0.07679584,-0.043889254,-0.114147045
1732436368806,2024-11-24T08:19:28.806Z,103799,0.07679584,-0.043889254,-0.114147045
1732436368820,2024-11-24T08:19:28.820Z,103813,0.12137295,-0.06971844,-0.06792875
1732436368825,2024-11-24T08:19:28.825Z,103818,0.12137295,-0.06971844,-0.06792875
1732436368840,2024-11-24T08:19:28.840Z,103833,0.0742038,-0.055855975,-0.042930376
1732436368844,2024-11-24T08:19:28.844Z,103837,0.0742038,-0.055855975,-0.042930376
1732436368856,2024-11-24T08:19:28.856Z,103849,-0.01884014,0.026109748,0.024999002
1732436368860,2024-11-24T08:19:28.860Z,103853,-0.01884014,0.026109748,0.024999002
1732436368872,2024-11-24T08:19:28.872Z,103865,0.046881128,0.021711914,-0.010866897
1732436368876,2024-11-24T08:19:28.876Z,103869,0.046881128,0.021711914,-0.010866897
1732436368887,2024-11-24T08:19:28.887Z,103880,0.10562421,-0.010162483,-0.047884483
1732436368890,2024-11-24T08:19:28.890Z,103883,0.10562421,-0.010162483,-0.047884483
1732436368903,2024-11-24T08:19:28.903Z,103896,0.124199055,0.0018354533,-0.042190652
1732436368912,2024-11-24T08:19:28.912Z,103905,0.124199055,0.0018354533,-0.042190652
1732436368935,2024-11-24T08:19:28.935Z,103928,0.083194725,-0.019592887,-0.004228379
1732436368940,2024-11-24T08:19:28.940Z,103933,0.083194725,-0.019592887,-0.004228379
1732436368958,2024-11-24T08:19:28.958Z,103951,0.11295954,-0.011236779,-0.028291754
1732436368967,2024-11-24T08:19:28.967Z,103960,0.11295954,-0.011236779,-0.028291754
1732436368986,2024-11-24T08:19:28.986Z,103979,0.08078173,-0.011322551,0.0013318439
1732436368992,2024-11-24T08:19:28.992Z,103985,0.08078173,-0.011322551,0.0013318439
1732436369011,2024-11-24T08:19:29.011Z,104004,0.09366967,-0.035388928,0.042486556
1732436369017,2024-11-24T08:19:29.017Z,104010,0.09366967,-0.035388928,0.042486556
1732436369037,2024-11-24T08:19:29.037Z,104030,0.10995782,-0.033129964,0.0727437
1732436369051,2024-11-24T08:19:29.051Z,104044,0.10995782,-0.033129964,0.0727437
1732436369074,2024-11-24T08:19:29.074Z,104067,0.12593427,0.008918783,0.04253442
1732436369079,2024-11-24T08:19:29.079Z,104072,0.12593427,0.008918783,0.04253442
1732436369090,2024-11-24T08:19:29.090Z,104083,0.13696337,-0.01580081,0.016456975
1732436369093,2024-11-24T08:19:29.093Z,104086,0.13696337,-0.01580081,0.016456975
1732436369104,2024-11-24T08:19:29.104Z,104097,0.1622777,0.017566439,5.1896245E-4
1732436369107,2024-11-24T08:19:29.107Z,104100,0.1622777,0.017566439,5.1896245E-4
1732436369116,2024-11-24T08:19:29.116Z,104109,0.16383073,0.084058106,-0.027653858
1732436369119,2024-11-24T08:19:29.119Z,104112,0.16383073,0.084058106,-0.027653858
1732436369127,2024-11-24T08:19:29.127Z,104120,0.17638496,0.07527731,0.03670022
1732436369130,2024-11-24T08:19:29.130Z,104123,0.17638496,0.07527731,0.03670022
1732436369139,2024-11-24T08:19:29.139Z,104132,0.16292493,0.10249578,0.056864806
1732436369142,2024-11-24T08:19:29.142Z,104135,0.16292493,0.10249578,0.056864806
1732436369151,2024-11-24T08:19:29.151Z,104144,0.15000077,0.058565103,0.0062282663
1732436369154,2024-11-24T08:19:29.154Z,104147,0.15000077,0.058565103,0.0062282663
1732436369162,2024-11-24T08:19:29.162Z,104155,0.15995626,0.07097741,0.044985935
1732436369165,2024-11-24T08:19:29.165Z,104158,0.15995626,0.07097741,0.044985935
1732436369177,2024-11-24T08:19:29.177Z,104170,0.12907913,0.07885691,0.07289673
1732436369179,2024-11-24T08:19:29.179Z,104172,0.12907913,0.07885691,0.07289673
1732436369188,2024-11-24T08:19:29.188Z,104181,0.12666468,0.107554026,0.04485811
1732436369191,2024-11-24T08:19:29.191Z,104184,0.12666468,0.107554026,0.04485811
1732436369200,2024-11-24T08:19:29.200Z,104193,0.19590859,0.14480048,0.04796961
1732436369203,2024-11-24T08:19:29.203Z,104196,0.19590859,0.14480048,0.04796961
1732436369212,2024-11-24T08:19:29.212Z,104205,0.15019946,0.16031432,0.008770151
1732436369214,2024-11-24T08:19:29.214Z,104207,0.15019946,0.16031432,0.008770151
1732436369222,2024-11-24T08:19:29.222Z,104215,0.13494915,0.13833848,-0.0037359777
1732436369225,2024-11-24T08:19:29.225Z,104218,0.13494915,0.13833848,-0.0037359777
1732436369234,2024-11-24T08:19:29.234Z,104227,0.10771621,0.13877133,-0.009573527
1732436369238,2024-11-24T08:19:29.238Z,104231,0.10771621,0.13877133,-0.009573527
1732436369247,2024-11-24T08:19:29.247Z,104240,0.12178731,0.13749611,0.020728484
1732436369249,2024-11-24T08:19:29.249Z,104242,0.12178731,0.13749611,0.020728484
1732436369257,2024-11-24T08:19:29.257Z,104250,0.015269739,0.07987898,-0.09828006
1732436369260,2024-11-24T08:19:29.260Z,104253,0.015269739,0.07987898,-0.09828006
1732436369268,2024-11-24T08:19:29.268Z,104261,0.14086111,0.014102669,-0.08284426
1732436369272,2024-11-24T08:19:29.272Z,104265,0.14086111,0.014102669,-0.08284426
1732436369281,2024-11-24T08:19:29.281Z,104274,0.14652926,-0.06998967,-0.07555123
1732436369284,2024-11-24T08:19:29.284Z,104277,0.14652926,-0.06998967,-0.07555123
1732436369294,2024-11-24T08:19:29.294Z,104287,-0.021921895,-0.10872295,-0.09203199
1732436369296,2024-11-24T08:19:29.296Z,104289,-0.021921895,-0.10872295,-0.09203199
1732436369303,2024-11-24T08:19:29.303Z,104296,-0.07073016,-0.105237395,-0.08721862
1732436369306,2024-11-24T08:19:29.306Z,104299,-0.07073016,-0.105237395,-0.08721862
1732436369314,2024-11-24T08:19:29.314Z,104307,-0.099077575,-0.04697415,-0.06157307
1732436369316,2024-11-24T08:19:29.316Z,104309,-0.099077575,-0.04697415,-0.06157307
1732436369324,2024-11-24T08:19:29.324Z,104317,-0.051098835,0.003365257,-0.03390409
1732436369327,2024-11-24T08:19:29.327Z,104320,-0.051098835,0.003365257,-0.03390409
1732436369336,2024-11-24T08:19:29.336Z,104329,0.051668804,0.056221336,0.0075836563
1732436369339,2024-11-24T08:19:29.339Z,104332,0.051668804,0.056221336,0.0075836563
1732436369348,2024-11-24T08:19:29.348Z,104341,0.14602022,0.25799966,-0.11910433
1732436369351,2024-11-24T08:19:29.351Z,104344,0.14602022,0.25799966,-0.11910433
1732436369359,2024-11-24T08:19:29.359Z,104352,0.09717552,0.27114257,-0.14078358
1732436369362,2024-11-24T08:19:29.362Z,104355,0.09717552,0.27114257,-0.14078358
1732436369371,2024-11-24T08:19:29.371Z,104364,-0.03664034,0.27099952,-0.17785521
1732436369374,2024-11-24T08:19:29.374Z,104367,-0.03664034,0.27099952,-0.17785521
1732436369381,2024-11-24T08:19:29.381Z,104374,-0.055466887,0.31563237,-0.110061765
1732436369383,2024-11-24T08:19:29.383Z,104376,-0.055466887,0.31563237,-0.110061765
1732436369391,2024-11-24T08:19:29.391Z,104384,-0.06503361,0.29394537,-0.11302779
1732436369394,2024-11-24T08:19:29.394Z,104387,-0.06503361,0.29394537,-0.11302779
1732436369403,2024-11-24T08:19:29.403Z,104396,-0.06749485,0.25931433,-0.1150798
1732436369407,2024-11-24T08:19:29.407Z,104400,-0.06749485,0.25931433,-0.1150798
1732436369416,2024-11-24T08:19:29.416Z,104409,0.06535409,0.22226574,-0.04185496
1732436369419,2024-11-24T08:19:29.419Z,104412,0.06535409,0.22226574,-0.04185496
1732436369427,2024-11-24T08:19:29.427Z,104420,-0.11966963,0.22330385,-0.12908189
1732436369430,2024-11-24T08:19:29.430Z,104423,-0.11966963,0.22330385,-0.12908189
1732436369440,2024-11-24T08:19:29.440Z,104433,-0.22783363,0.15102297,-0.20793542
1732436369444,2024-11-24T08:19:29.444Z,104437,-0.22783363,0.15102297,-0.20793542
1732436369454,2024-11-24T08:19:29.454Z,104447,-0.08517247,0.11143917,-0.17746334
1732436369457,2024-11-24T08:19:29.457Z,104450,-0.08517247,0.11143917,-0.17746334
1732436369468,2024-11-24T08:19:29.468Z,104461,-0.113740705,0.033215247,-0.1623323
1732436369475,2024-11-24T08:19:29.475Z,104468,-0.113740705,0.033215247,-0.1623323
1732436369485,2024-11-24T08:19:29.485Z,104478,-0.12773135,-0.03205985,-0.1603427
1732436369488,2024-11-24T08:19:29.488Z,104481,-0.12773135,-0.03205985,-0.1603427
1732436369497,2024-11-24T08:19:29.497Z,104490,-0.17022282,-0.05134718,-0.070870005
1732436369500,2024-11-24T08:19:29.500Z,104493,-0.17022282,-0.05134718,-0.070870005
1732436369509,2024-11-24T08:19:29.509Z,104502,-0.24656658,-0.011725449,-0.067578144
1732436369512,2024-11-24T08:19:29.512Z,104505,-0.24656658,-0.011725449,-0.067578144
1732436369522,2024-11-24T08:19:29.522Z,104515,-0.22659484,0.0074559823,-0.042549536
1732436369524,2024-11-24T08:19:29.524Z,104517,-0.22659484,0.0074559823,-0.042549536
1732436369532,2024-11-24T08:19:29.532Z,104525,-0.26682,0.03680291,-0.09356792
1732436369534,2024-11-24T08:19:29.534Z,104527,-0.26682,0.03680291,-0.09356792
1732436369542,2024-11-24T08:19:29.542Z,104535,-0.1146304,0.12800533,-0.08387988
1732436369545,2024-11-24T08:19:29.545Z,104538,-0.1146304,0.12800533,-0.08387988
1732436369552,2024-11-24T08:19:29.552Z,104545,-0.11383954,0.105405726,-0.1600215
1732436369554,2024-11-24T08:19:29.554Z,104547,-0.11383954,0.105405726,-0.1600215
1732436369562,2024-11-24T08:19:29.562Z,104555,-0.014941139,0.0884644,-0.1269418
1732436369565,2024-11-24T08:19:29.565Z,104558,-0.014941139,0.0884644,-0.1269418
1732436369574,2024-11-24T08:19:29.574Z,104567,-0.1376553,0.09175117,0.015097209
1732436369577,2024-11-24T08:19:29.577Z,104570,-0.1376553,0.09175117,0.015097209
1732436369585,2024-11-24T08:19:29.585Z,104578,-0.12604073,0.09371286,0.014436679
1732436369587,2024-11-24T08:19:29.587Z,104580,-0.12604073,0.09371286,0.014436679
1732436369596,2024-11-24T08:19:29.596Z,104589,-0.10936366,0.084199116,0.00515408
1732436369599,2024-11-24T08:19:29.599Z,104592,-0.10936366,0.084199116,0.00515408
1732436369607,2024-11-24T08:19:29.607Z,104600,-0.1002911,0.12983309,-0.060025953
1732436369610,2024-11-24T08:19:29.610Z,104603,-0.1002911,0.12983309,-0.060025953
1732436369622,2024-11-24T08:19:29.622Z,104615,-0.11034506,0.08482179,-0.08044542
1732436369627,2024-11-24T08:19:29.627Z,104620,-0.11034506,0.08482179,-0.08044542
1732436369643,2024-11-24T08:19:29.643Z,104636,-0.034701217,0.049328223,-0.019726146
1732436369645,2024-11-24T08:19:29.645Z,104638,-0.034701217,0.049328223,-0.019726146
1732436369654,2024-11-24T08:19:29.654Z,104647,-0.18681756,-0.02741345,-0.04163019
1732436369657,2024-11-24T08:19:29.657Z,104650,-0.18681756,-0.02741345,-0.04163019
1732436369665,2024-11-24T08:19:29.665Z,104658,-0.15408123,-0.025301911,-0.007836719
1732436369667,2024-11-24T08:19:29.667Z,104660,-0.15408123,-0.025301911,-0.007836719
1732436369675,2024-11-24T08:19:29.675Z,104668,-0.22087611,-0.027134739,0.01972745
1732436369678,2024-11-24T08:19:29.678Z,104671,-0.22087611,-0.027134739,0.01972745
1732436369686,2024-11-24T08:19:29.686Z,104679,-0.19754429,-0.011379636,-0.10395418
1732436369689,2024-11-24T08:19:29.689Z,104682,-0.19754429,-0.011379636,-0.10395418
1732436369697,2024-11-24T08:19:29.697Z,104690,-0.060382493,-8.0530834E-4,-0.023316398
1732436369700,2024-11-24T08:19:29.700Z,104693,-0.060382493,-8.0530834E-4,-0.023316398
1732436369709,2024-11-24T08:19:29.709Z,104702,-0.09697595,0.025243659,-0.01698585
1732436369711,2024-11-24T08:19:29.711Z,104704,-0.09697595,0.025243659,-0.01698585
1732436369729,2024-11-24T08:19:29.729Z,104722,-0.08869001,0.06202858,-0.051103607
1732436369732,2024-11-24T08:19:29.732Z,104725,-0.08869001,0.06202858,-0.051103607
1732436369740,2024-11-24T08:19:29.740Z,104733,-0.10865285,0.05103278,0.001605584
1732436369743,2024-11-24T08:19:29.743Z,104736,-0.10865285,0.05103278,0.001605584
1732436369773,2024-11-24T08:19:29.773Z,104766,-0.13965197,0.07316432,0.023574186
1732436369775,2024-11-24T08:19:29.775Z,104768,-0.13965197,0.07316432,0.023574186
1732436369783,2024-11-24T08:19:29.783Z,104776,-0.09138881,0.07616762,-0.027364383
1732436369786,2024-11-24T08:19:29.786Z,104779,-0.09138881,0.07616762,-0.027364383
1732436369795,2024-11-24T08:19:29.795Z,104788,-0.06057147,0.08308728,-0.10354589
1732436369798,2024-11-24T08:19:29.798Z,104791,-0.06057147,0.08308728,-0.10354589
1732436369817,2024-11-24T08:19:29.817Z,104810,0.023223363,0.04853079,-0.058344707
1732436369820,2024-11-24T08:19:29.820Z,104813,0.023223363,0.04853079,-0.058344707
1732436369828,2024-11-24T08:19:29.828Z,104821,-0.013610912,0.02455923,0.037152212
1732436369831,2024-11-24T08:19:29.831Z,104824,-0.013610912,0.02455923,0.037152212
1732436369839,2024-11-24T08:19:29.839Z,104832,-0.034958705,0.024374265,0.022972688
1732436369842,2024-11-24T08:19:29.842Z,104835,-0.034958705,0.024374265,0.022972688
1732436369862,2024-11-24T08:19:29.862Z,104855,-0.068508245,0.034767516,-0.00796466
1732436369864,2024-11-24T08:19:29.864Z,104857,-0.068508245,0.034767516,-0.00796466
1732436369873,2024-11-24T08:19:29.873Z,104866,-0.029517453,0.063400745,-0.097525366
1732436369876,2024-11-24T08:19:29.876Z,104869,-0.029517453,0.063400745,-0.097525366
1732436369883,2024-11-24T08:19:29.883Z,104876,0.025920844,0.03933991,-0.057602428
1732436369886,2024-11-24T08:19:29.886Z,104879,0.025920844,0.03933991,-0.057602428
1732436369909,2024-11-24T08:19:29.909Z,104902,0.010547803,0.03043406,0.009938431
1732436369911,2024-11-24T08:19:29.911Z,104904,0.010547803,0.03043406,0.009938431
1732436369919,2024-11-24T08:19:29.919Z,104912,-0.1290025,0.03828166,-0.015540143
1732436369922,2024-11-24T08:19:29.922Z,104915,-0.1290025,0.03828166,-0.015540143
1732436369930,2024-11-24T08:19:29.930Z,104923,-0.10729275,0.06529445,-0.050135802
1732436369932,2024-11-24T08:19:29.932Z,104925,-0.10729275,0.06529445,-0.050135802
1732436369940,2024-11-24T08:19:29.940Z,104933,-0.032946747,0.051130127,-0.08260532
1732436369943,2024-11-24T08:19:29.943Z,104936,-0.032946747,0.051130127,-0.08260532
1732436369954,2024-11-24T08:19:29.954Z,104947,-0.08595232,0.0638722,-0.13036604
1732436369956,2024-11-24T08:19:29.956Z,104949,-0.08595232,0.0638722,-0.13036604
1732436369966,2024-11-24T08:19:29.966Z,104959,-0.02784049,0.03533554,-0.09451665
1732436369968,2024-11-24T08:19:29.968Z,104961,-0.02784049,0.03533554,-0.09451665
1732436369998,2024-11-24T08:19:29.998Z,104991,-0.008467553,0.032892775,-0.068761036
1732436370001,2024-11-24T08:19:30.001Z,104994,-0.008467553,0.032892775,-0.068761036
1732436370013,2024-11-24T08:19:30.013Z,105006,-0.06847457,0.066421255,-0.026166467
1732436370017,2024-11-24T08:19:30.017Z,105010,-0.06847457,0.066421255,-0.026166467
1732436370027,2024-11-24T08:19:30.027Z,105020,-0.083533645,0.08913152,-0.0427381
1732436370030,2024-11-24T08:19:30.030Z,105023,-0.083533645,0.08913152,-0.0427381
1732436370038,2024-11-24T08:19:30.038Z,105031,-0.10393541,0.0955064,-0.052794326
1732436370041,2024-11-24T08:19:30.041Z,105034,-0.10393541,0.0955064,-0.052794326
1732436370048,2024-11-24T08:19:30.048Z,105041,0.0036020554,0.03868446,0.020237882
1732436370051,2024-11-24T08:19:30.051Z,105044,0.0036020554,0.03868446,0.020237882
1732436370058,2024-11-24T08:19:30.058Z,105051,-0.0043830276,0.07931796,0.0036926782
1732436370061,2024-11-24T08:19:30.061Z,105054,-0.0043830276,0.07931796,0.0036926782
1732436370087,2024-11-24T08:19:30.087Z,105080,-0.06072281,0.06824115,-0.032789752
1732436370090,2024-11-24T08:19:30.090Z,105083,-0.06072281,0.06824115,-0.032789752
1732436370100,2024-11-24T08:19:30.100Z,105093,-0.033008598,0.09371869,-0.0966418
1732436370103,2024-11-24T08:19:30.103Z,105096,-0.033008598,0.09371869,-0.0966418
1732436370112,2024-11-24T08:19:30.112Z,105105,-0.100239106,0.05642089,-0.13019918
1732436370114,2024-11-24T08:19:30.114Z,105107,-0.100239106,0.05642089,-0.13019918
1732436370122,2024-11-24T08:19:30.122Z,105115,-0.031970844,0.06549264,-0.052732415
1732436370124,2024-11-24T08:19:30.124Z,105117,-0.031970844,0.06549264,-0.052732415
1732436370179,2024-11-24T08:19:30.179Z,105172,-0.012395388,0.044520393,-0.08592487
1732436370182,2024-11-24T08:19:30.182Z,105175,-0.012395388,0.044520393,-0.08592487
1732436370190,2024-11-24T08:19:30.190Z,105183,0.027494336,0.049319763,-0.025401019
1732436370194,2024-11-24T08:19:30.194Z,105187,0.027494336,0.049319763,-0.025401019
1732436370209,2024-11-24T08:19:30.209Z,105202,0.022793187,0.08446266,-0.009956707
1732436370216,2024-11-24T08:19:30.216Z,105209,0.022793187,0.08446266,-0.009956707
1732436370241,2024-11-24T08:19:30.241Z,105234,0.025673397,0.13223676,-0.02519281
1732436370244,2024-11-24T08:19:30.244Z,105237,0.025673397,0.13223676,-0.02519281
1732436370256,2024-11-24T08:19:30.256Z,105249,0.042180248,0.15155944,-0.07484092
1732436370260,2024-11-24T08:19:30.260Z,105253,0.042180248,0.15155944,-0.07484092
1732436370272,2024-11-24T08:19:30.272Z,105265,-0.110940434,0.1267478,-0.25206342
1732436370276,2024-11-24T08:19:30.276Z,105269,-0.110940434,0.1267478,-0.25206342
1732436370287,2024-11-24T08:19:30.287Z,105280,0.052806918,0.088310845,-0.035592616
1732436370291,2024-11-24T08:19:30.291Z,105284,0.052806918,0.088310845,-0.035592616
1732436370316,2024-11-24T08:19:30.316Z,105309,-0.024996115,0.041925628,-0.12923154
1732436370319,2024-11-24T08:19:30.319Z,105312,-0.024996115,0.041925628,-0.12923154
1732436370332,2024-11-24T08:19:30.332Z,105325,0.040646166,0.07470122,-0.08764843
1732436370336,2024-11-24T08:19:30.336Z,105329,0.040646166,0.07470122,-0.08764843
1732436370358,2024-11-24T08:19:30.358Z,105351,-0.075899705,-0.005269562,-0.11439276
1732436370362,2024-11-24T08:19:30.362Z,105355,-0.075899705,-0.005269562,-0.11439276
1732436370373,2024-11-24T08:19:30.373Z,105366,-0.071443036,-0.0045722956,-0.048456106
1732436370377,2024-11-24T08:19:30.377Z,105370,-0.071443036,-0.0045722956,-0.048456106
1732436370388,2024-11-24T08:19:30.388Z,105381,8.099762E-4,0.045181386,-0.0024592488
1732436370394,2024-11-24T08:19:30.394Z,105387,8.099762E-4,0.045181386,-0.0024592488
1732436370406,2024-11-24T08:19:30.406Z,105399,-0.08421431,0.039042428,-0.06298902
1732436370409,2024-11-24T08:19:30.409Z,105402,-0.08421431,0.039042428,-0.06298902
1732436370418,2024-11-24T08:19:30.418Z,105411,-0.0036417567,0.009353772,-0.08050394
1732436370421,2024-11-24T08:19:30.421Z,105414,-0.0036417567,0.009353772,-0.08050394
1732436370430,2024-11-24T08:19:30.430Z,105423,-0.13615529,0.035587996,-0.15547983
1732436370433,2024-11-24T08:19:30.433Z,105426,-0.13615529,0.035587996,-0.15547983
1732436370450,2024-11-24T08:19:30.450Z,105443,-0.040657155,0.059386555,-0.0122192
1732436370453,2024-11-24T08:19:30.453Z,105446,-0.040657155,0.059386555,-0.0122192
1732436370462,2024-11-24T08:19:30.462Z,105455,0.039378833,0.051913746,0.007957343
1732436370465,2024-11-24T08:19:30.465Z,105458,0.039378833,0.051913746,0.007957343
1732436370474,2024-11-24T08:19:30.474Z,105467,0.025134426,0.07024786,-0.042576022
1732436370477,2024-11-24T08:19:30.477Z,105470,0.025134426,0.07024786,-0.042576022
1732436370495,2024-11-24T08:19:30.495Z,105488,-0.0069494676,0.087285176,-0.0755652
1732436370498,2024-11-24T08:19:30.498Z,105491,-0.0069494676,0.087285176,-0.0755652
1732436370506,2024-11-24T08:19:30.506Z,105499,-0.0477637,0.07969032,-0.10040464
1732436370509,2024-11-24T08:19:30.509Z,105502,-0.0477637,0.07969032,-0.10040464
1732436370540,2024-11-24T08:19:30.540Z,105533,0.07377978,0.03692369,0.016287485
1732436370543,2024-11-24T08:19:30.543Z,105536,0.07377978,0.03692369,0.016287485
1732436370557,2024-11-24T08:19:30.557Z,105550,-0.036776897,0.04861034,-0.055670913
1732436370564,2024-11-24T08:19:30.564Z,105557,-0.036776897,0.04861034,-0.055670913
1732436370585,2024-11-24T08:19:30.585Z,105578,0.07794854,0.03513521,-0.12359975
1732436370591,2024-11-24T08:19:30.591Z,105584,0.07794854,0.03513521,-0.12359975
1732436370611,2024-11-24T08:19:30.611Z,105604,0.08782312,-0.0062476792,-0.16430643
1732436370619,2024-11-24T08:19:30.619Z,105612,0.08782312,-0.0062476792,-0.16430643
1732436370639,2024-11-24T08:19:30.639Z,105632,0.08336874,0.0012874625,-0.069451034
1732436370645,2024-11-24T08:19:30.645Z,105638,0.08336874,0.0012874625,-0.069451034
1732436370666,2024-11-24T08:19:30.666Z,105659,0.034996316,-0.043918915,-0.07153019
1732436370673,2024-11-24T08:19:30.673Z,105666,0.034996316,-0.043918915,-0.07153019
1732436370688,2024-11-24T08:19:30.688Z,105681,0.0057409704,-0.007517443,-0.003684789
1732436370692,2024-11-24T08:19:30.692Z,105685,0.0057409704,-0.007517443,-0.003684789
1732436370704,2024-11-24T08:19:30.704Z,105697,-0.02528263,-0.0506894,-0.14517666
1732436370708,2024-11-24T08:19:30.708Z,105701,-0.02528263,-0.0506894,-0.14517666
1732436370722,2024-11-24T08:19:30.722Z,105715,0.008043844,-0.036333982,-0.116514236
1732436370725,2024-11-24T08:19:30.725Z,105718,0.008043844,-0.036333982,-0.116514236
1732436370735,2024-11-24T08:19:30.735Z,105728,0.109072626,-0.07965171,-0.022181304
1732436370737,2024-11-24T08:19:30.737Z,105730,0.109072626,-0.07965171,-0.022181304
1732436370746,2024-11-24T08:19:30.746Z,105739,0.07955206,-0.049495295,-0.053597566
1732436370754,2024-11-24T08:19:30.754Z,105747,0.07955206,-0.049495295,-0.053597566
1732436370771,2024-11-24T08:19:30.771Z,105764,0.138535,-0.058754154,-0.022804419
1732436370774,2024-11-24T08:19:30.774Z,105767,0.138535,-0.058754154,-0.022804419
1732436370782,2024-11-24T08:19:30.782Z,105775,0.1496069,-0.016726997,-0.0443222
1732436370784,2024-11-24T08:19:30.784Z,105777,0.1496069,-0.016726997,-0.0443222
1732436370793,2024-11-24T08:19:30.793Z,105786,-0.019551361,-0.002164734,-0.12481434
1732436370795,2024-11-24T08:19:30.795Z,105788,-0.019551361,-0.002164734,-0.12481434
1732436370802,2024-11-24T08:19:30.802Z,105795,0.024216115,-0.01124485,-0.099640444
1732436370805,2024-11-24T08:19:30.805Z,105798,0.024216115,-0.01124485,-0.099640444
1732436370813,2024-11-24T08:19:30.813Z,105806,0.102631375,-0.024372028,-0.065402605
1732436370816,2024-11-24T08:19:30.816Z,105809,0.102631375,-0.024372028,-0.065402605
1732436370825,2024-11-24T08:19:30.825Z,105818,0.032824337,-0.048440352,-0.00902866
1732436370827,2024-11-24T08:19:30.827Z,105820,0.032824337,-0.048440352,-0.00902866
1732436370834,2024-11-24T08:19:30.834Z,105827,0.058356434,-0.036219425,0.01885841
1732436370836,2024-11-24T08:19:30.836Z,105829,0.058356434,-0.036219425,0.01885841
1732436370843,2024-11-24T08:19:30.843Z,105836,0.036729805,-0.034223903,0.01877677
1732436370846,2024-11-24T08:19:30.846Z,105839,0.036729805,-0.034223903,0.01877677
1732436370902,2024-11-24T08:19:30.902Z,105895,-0.010785452,-0.0685361,0.003404205
1732436370905,2024-11-24T08:19:30.905Z,105898,-0.010785452,-0.0685361,0.003404205
1732436370921,2024-11-24T08:19:30.921Z,105914,-0.0331639,-0.064629175,0.008978493
1732436370927,2024-11-24T08:19:30.927Z,105920,-0.0331639,-0.064629175,0.008978493
1732436370950,2024-11-24T08:19:30.950Z,105943,-0.0054464797,-0.0764084,-0.0071224715
1732436370956,2024-11-24T08:19:30.956Z,105949,-0.0054464797,-0.0764084,-0.0071224715
1732436370978,2024-11-24T08:19:30.978Z,105971,-0.02487453,-0.07449049,0.01812424
1732436370985,2024-11-24T08:19:30.985Z,105978,-0.02487453,-0.07449049,0.01812424
1732436371005,2024-11-24T08:19:31.005Z,105998,0.036236785,-0.09532153,0.081958756
1732436371011,2024-11-24T08:19:31.011Z,106004,0.036236785,-0.09532153,0.081958756
1732436371032,2024-11-24T08:19:31.032Z,106025,0.026501924,-0.11988251,0.033167876
1732436371038,2024-11-24T08:19:31.038Z,106031,0.026501924,-0.11988251,0.033167876
1732436371057,2024-11-24T08:19:31.057Z,106050,0.07527727,-0.015376906,0.0042497492
1732436371063,2024-11-24T08:19:31.063Z,106056,0.07527727,-0.015376906,0.0042497492
1732436371078,2024-11-24T08:19:31.078Z,106071,0.11505404,-0.022881998,0.068097666
1732436371081,2024-11-24T08:19:31.081Z,106074,0.11505404,-0.022881998,0.068097666
1732436371095,2024-11-24T08:19:31.095Z,106088,0.0031963622,0.006953309,-0.0022314948
1732436371101,2024-11-24T08:19:31.101Z,106094,0.0031963622,0.006953309,-0.0022314948
1732436371121,2024-11-24T08:19:31.121Z,106114,0.027139965,-0.0038937014,-3.4189865E-4
1732436371127,2024-11-24T08:19:31.127Z,106120,0.027139965,-0.0038937014,-3.4189865E-4
1732436371148,2024-11-24T08:19:31.148Z,106141,0.01900337,-0.0275248,0.037098605
1732436371153,2024-11-24T08:19:31.153Z,106146,0.01900337,-0.0275248,0.037098605
1732436371172,2024-11-24T08:19:31.172Z,106165,0.02579272,-0.019959899,-0.019615095
1732436371177,2024-11-24T08:19:31.177Z,106170,0.02579272,-0.019959899,-0.019615095
1732436371193,2024-11-24T08:19:31.193Z,106186,-0.00474282,-0.02239576,0.0019573048
1732436371197,2024-11-24T08:19:31.197Z,106190,-0.00474282,-0.02239576,0.0019573048
1732436371210,2024-11-24T08:19:31.210Z,106203,-0.011539074,-0.01750138,-0.10842977
1732436371214,2024-11-24T08:19:31.214Z,106207,-0.011539074,-0.01750138,-0.10842977
1732436371226,2024-11-24T08:19:31.226Z,106219,0.024651907,-0.009658157,-0.124584615
1732436371229,2024-11-24T08:19:31.229Z,106222,0.024651907,-0.009658157,-0.124584615
1732436371241,2024-11-24T08:19:31.241Z,106234,0.04494607,-0.062328298,-0.15660499
1732436371244,2024-11-24T08:19:31.244Z,106237,0.04494607,-0.062328298,-0.15660499
1732436371253,2024-11-24T08:19:31.253Z,106246,0.053477734,-0.08799984,-0.055169955
1732436371257,2024-11-24T08:19:31.257Z,106250,0.053477734,-0.08799984,-0.055169955
1732436371267,2024-11-24T08:19:31.267Z,106260,-0.009953887,-0.10442188,-0.13373263
1732436371270,2024-11-24T08:19:31.270Z,106263,-0.009953887,-0.10442188,-0.13373263
1732436371279,2024-11-24T08:19:31.279Z,106272,-0.100189894,-0.09988527,-0.18798332
1732436371282,2024-11-24T08:19:31.282Z,106275,-0.100189894,-0.09988527,-0.18798332
1732436371291,2024-11-24T08:19:31.291Z,106284,-0.06806243,-0.08956787,-0.21163464
1732436371294,2024-11-24T08:19:31.294Z,106287,-0.06806243,-0.08956787,-0.21163464
1732436371302,2024-11-24T08:19:31.302Z,106295,-0.07626786,-0.12330193,-0.119562685
1732436371304,2024-11-24T08:19:31.304Z,106297,-0.07626786,-0.12330193,-0.119562685
1732436371313,2024-11-24T08:19:31.313Z,106306,-0.046707008,-0.11690439,-0.080054305
1732436371315,2024-11-24T08:19:31.315Z,106308,-0.046707008,-0.11690439,-0.080054305
1732436371323,2024-11-24T08:19:31.323Z,106316,-0.052900616,-0.10939415,-0.079186566
1732436371325,2024-11-24T08:19:31.325Z,106318,-0.052900616,-0.10939415,-0.079186566
1732436371332,2024-11-24T08:19:31.332Z,106325,-0.04305684,-0.10780113,-0.15849799
1732436371334,2024-11-24T08:19:31.334Z,106327,-0.04305684,-0.10780113,-0.15849799
1732436371341,2024-11-24T08:19:31.341Z,106334,-0.11594196,-0.08134509,-0.17060107
1732436371343,2024-11-24T08:19:31.343Z,106336,-0.11594196,-0.08134509,-0.17060107
1732436371352,2024-11-24T08:19:31.352Z,106345,-0.04200987,-0.093018994,-0.15085565
1732436371354,2024-11-24T08:19:31.354Z,106347,-0.04200987,-0.093018994,-0.15085565
1732436371362,2024-11-24T08:19:31.362Z,106355,-0.026267605,-0.045678224,-0.069897
1732436371364,2024-11-24T08:19:31.364Z,106357,-0.026267605,-0.045678224,-0.069897
1732436371371,2024-11-24T08:19:31.371Z,106364,0.0062470958,-0.046657216,-0.072298974
1732436371373,2024-11-24T08:19:31.373Z,106366,0.0062470958,-0.046657216,-0.072298974
1732436371386,2024-11-24T08:19:31.386Z,106379,0.019394938,-0.026905816,-0.04943606
1732436371388,2024-11-24T08:19:31.388Z,106381,0.019394938,-0.026905816,-0.04943606
1732436371398,2024-11-24T08:19:31.398Z,106391,0.019318914,-0.01475773,-0.118440226
1732436371400,2024-11-24T08:19:31.400Z,106393,0.019318914,-0.01475773,-0.118440226
1732436371407,2024-11-24T08:19:31.407Z,106400,0.04487569,0.0025424443,-0.106759295
1732436371410,2024-11-24T08:19:31.410Z,106403,0.04487569,0.0025424443,-0.106759295
1732436371420,2024-11-24T08:19:31.420Z,106413,0.00646002,0.0022527433,-0.080875695
1732436371423,2024-11-24T08:19:31.423Z,106416,0.00646002,0.0022527433,-0.080875695
1732436371433,2024-11-24T08:19:31.433Z,106426,-0.0058338176,0.014679737,-0.08358673
1732436371435,2024-11-24T08:19:31.435Z,106428,-0.0058338176,0.014679737,-0.08358673
1732436371449,2024-11-24T08:19:31.449Z,106442,-0.0047204527,0.013154893,-0.08715487
1732436371452,2024-11-24T08:19:31.452Z,106445,-0.0047204527,0.013154893,-0.08715487
1732436371461,2024-11-24T08:19:31.461Z,106454,-0.02635836,0.019362895,-0.10054209
1732436371464,2024-11-24T08:19:31.464Z,106457,-0.02635836,0.019362895,-0.10054209
1732436371484,2024-11-24T08:19:31.484Z,106477,0.036212374,-0.0065474943,-0.06641986
1732436371486,2024-11-24T08:19:31.486Z,106479,0.036212374,-0.0065474943,-0.06641986
1732436371494,2024-11-24T08:19:31.494Z,106487,0.0615077,-4.2487527E-4,-0.03774879
1732436371497,2024-11-24T08:19:31.497Z,106490,0.0615077,-4.2487527E-4,-0.03774879
1732436371505,2024-11-24T08:19:31.505Z,106498,0.031148346,0.004462503,-0.029674131
1732436371507,2024-11-24T08:19:31.507Z,106500,0.031148346,0.004462503,-0.029674131
1732436371529,2024-11-24T08:19:31.529Z,106522,-0.063451335,-0.0031293342,-0.09741424
1732436371531,2024-11-24T08:19:31.531Z,106524,-0.063451335,-0.0031293342,-0.09741424
1732436371540,2024-11-24T08:19:31.540Z,106533,4.5845003E-4,-0.023207292,-0.08437429
1732436371543,2024-11-24T08:19:31.543Z,106536,4.5845003E-4,-0.023207292,-0.08437429
1732436371551,2024-11-24T08:19:31.551Z,106544,-0.040130194,-0.015026425,-0.072953835
1732436371554,2024-11-24T08:19:31.554Z,106547,-0.040130194,-0.015026425,-0.072953835
1732436371575,2024-11-24T08:19:31.575Z,106568,-0.041726805,-0.05668764,-0.026116634
1732436371577,2024-11-24T08:19:31.577Z,106570,-0.041726805,-0.05668764,-0.026116634
1732436371587,2024-11-24T08:19:31.587Z,106580,-0.033341624,-0.05381883,-0.04789917
1732436371590,2024-11-24T08:19:31.590Z,106583,-0.033341624,-0.05381883,-0.04789917
1732436371618,2024-11-24T08:19:31.618Z,106611,-0.106797025,-0.072044514,-0.09669544
1732436371621,2024-11-24T08:19:31.621Z,106614,-0.106797025,-0.072044514,-0.09669544
1732436371631,2024-11-24T08:19:31.631Z,106624,-0.012014347,-0.06349974,-0.041770265
1732436371634,2024-11-24T08:19:31.634Z,106627,-0.012014347,-0.06349974,-0.041770265
1732436371643,2024-11-24T08:19:31.643Z,106636,-0.058758114,-0.06859261,0.006309523
1732436371646,2024-11-24T08:19:31.646Z,106639,-0.058758114,-0.06859261,0.006309523
1732436371655,2024-11-24T08:19:31.655Z,106648,-0.030013878,-0.07308302,-0.0013422251
1732436371659,2024-11-24T08:19:31.659Z,106652,-0.030013878,-0.07308302,-0.0013422251
1732436371715,2024-11-24T08:19:31.715Z,106708,-0.06254271,-0.0691087,-0.022203075
1732436371721,2024-11-24T08:19:31.721Z,106714,-0.06254271,-0.0691087,-0.022203075
1732436371741,2024-11-24T08:19:31.741Z,106734,-0.09635914,-0.05338034,-0.03807286
1732436371752,2024-11-24T08:19:31.752Z,106745,-0.09635914,-0.05338034,-0.03807286
1732436371771,2024-11-24T08:19:31.771Z,106764,-0.07216736,-0.061705425,-0.05894112
1732436371776,2024-11-24T08:19:31.776Z,106769,-0.07216736,-0.061705425,-0.05894112
1732436371794,2024-11-24T08:19:31.794Z,106787,-0.011929766,-0.05300866,-0.019211639
1732436371800,2024-11-24T08:19:31.800Z,106793,-0.011929766,-0.05300866,-0.019211639
1732436371810,2024-11-24T08:19:31.810Z,106803,-0.03026378,-0.04554344,-0.015917433
1732436371814,2024-11-24T08:19:31.814Z,106807,-0.03026378,-0.04554344,-0.015917433
1732436371825,2024-11-24T08:19:31.825Z,106818,-0.019597821,-0.047723733,0.009129002
1732436371829,2024-11-24T08:19:31.829Z,106822,-0.019597821,-0.047723733,0.009129002
1732436371843,2024-11-24T08:19:31.843Z,106836,-0.038877327,-0.018061332,-0.009188305
1732436371847,2024-11-24T08:19:31.847Z,106840,-0.038877327,-0.018061332,-0.009188305
1732436371894,2024-11-24T08:19:31.894Z,106887,-0.06756552,-0.006649896,-0.015326544
1732436371899,2024-11-24T08:19:31.899Z,106892,-0.06756552,-0.006649896,-0.015326544
1732436371916,2024-11-24T08:19:31.916Z,106909,-0.045919154,-0.010857415,-0.04472776
1732436371922,2024-11-24T08:19:31.922Z,106915,-0.045919154,-0.010857415,-0.04472776
1732436371943,2024-11-24T08:19:31.943Z,106936,-0.0687766,0.0067023123,-0.033523306
1732436371950,2024-11-24T08:19:31.950Z,106943,-0.0687766,0.0067023123,-0.033523306
1732436371971,2024-11-24T08:19:31.971Z,106964,-0.039857656,0.0039016756,-0.021236226
1732436371975,2024-11-24T08:19:31.975Z,106968,-0.039857656,0.0039016756,-0.021236226
1732436371987,2024-11-24T08:19:31.987Z,106980,-0.053462103,0.012779711,0.006173142
1732436371991,2024-11-24T08:19:31.991Z,106984,-0.053462103,0.012779711,0.006173142
1732436372002,2024-11-24T08:19:32.002Z,106995,-0.07444451,0.01077602,-0.022812381
1732436372005,2024-11-24T08:19:32.005Z,106998,-0.07444451,0.01077602,-0.022812381
1732436372016,2024-11-24T08:19:32.016Z,107009,-0.027776305,0.0010947175,-0.07884345
1732436372020,2024-11-24T08:19:32.020Z,107013,-0.027776305,0.0010947175,-0.07884345
1732436372030,2024-11-24T08:19:32.030Z,107023,-0.0163709,-0.004747536,-0.07410832
1732436372033,2024-11-24T08:19:32.033Z,107026,-0.0163709,-0.004747536,-0.07410832
1732436372041,2024-11-24T08:19:32.041Z,107034,0.006129037,-0.004699204,-0.05887429
1732436372044,2024-11-24T08:19:32.044Z,107037,0.006129037,-0.004699204,-0.05887429
1732436372053,2024-11-24T08:19:32.053Z,107046,-0.007137107,-0.014265851,-0.092596516
1732436372055,2024-11-24T08:19:32.055Z,107048,-0.007137107,-0.014265851,-0.092596516
1732436372064,2024-11-24T08:19:32.064Z,107057,0.003855483,-0.012956799,-0.075185195
1732436372067,2024-11-24T08:19:32.067Z,107060,0.003855483,-0.012956799,-0.075185195
1732436372074,2024-11-24T08:19:32.074Z,107067,-0.03945357,-0.012287638,-0.08564858
1732436372077,2024-11-24T08:19:32.077Z,107070,-0.03945357,-0.012287638,-0.08564858
1732436372116,2024-11-24T08:19:32.116Z,107109,-0.0017243722,-0.0138413645,-0.0763285
1732436372119,2024-11-24T08:19:32.119Z,107112,-0.0017243722,-0.0138413645,-0.0763285
1732436372131,2024-11-24T08:19:32.131Z,107124,-0.035044428,-0.00888212,-0.08165096
1732436372135,2024-11-24T08:19:32.135Z,107128,-0.035044428,-0.00888212,-0.08165096
1732436372146,2024-11-24T08:19:32.146Z,107139,-0.050931107,-0.0069689658,-0.06896102
1732436372150,2024-11-24T08:19:32.150Z,107143,-0.050931107,-0.0069689658,-0.06896102
1732436372210,2024-11-24T08:19:32.210Z,107203,-0.027801322,-0.033517007,-0.021184728
1732436372214,2024-11-24T08:19:32.214Z,107207,-0.027801322,-0.033517007,-0.021184728
1732436372235,2024-11-24T08:19:32.235Z,107228,-0.04460106,-0.04432191,-0.0054030283
1732436372241,2024-11-24T08:19:32.241Z,107234,-0.04460106,-0.04432191,-0.0054030283
1732436372250,2024-11-24T08:19:32.250Z,107243,-0.050788566,-0.04202385,-0.023040315
1732436372252,2024-11-24T08:19:32.252Z,107245,-0.050788566,-0.04202385,-0.023040315
1732436372260,2024-11-24T08:19:32.260Z,107253,-0.06475611,-0.051830113,-0.06890507
1732436372262,2024-11-24T08:19:32.262Z,107255,-0.06475611,-0.051830113,-0.06890507
1732436372270,2024-11-24T08:19:32.270Z,107263,-0.057244383,-0.11627481,-0.02391182
1732436372272,2024-11-24T08:19:32.272Z,107265,-0.057244383,-0.11627481,-0.02391182
1732436372280,2024-11-24T08:19:32.280Z,107273,-0.088897854,-0.13513435,-0.048325412
1732436372282,2024-11-24T08:19:32.282Z,107275,-0.088897854,-0.13513435,-0.048325412
1732436372297,2024-11-24T08:19:32.297Z,107290,-0.09504457,-0.1686965,-0.07867156
1732436372302,2024-11-24T08:19:32.302Z,107295,-0.09504457,-0.1686965,-0.07867156
1732436372317,2024-11-24T08:19:32.317Z,107310,-0.09047468,-0.27531344,3.198842E-5
1732436372322,2024-11-24T08:19:32.322Z,107315,-0.09047468,-0.27531344,3.198842E-5
1732436372335,2024-11-24T08:19:32.335Z,107328,-0.082430005,-0.28274208,-0.00990929
1732436372338,2024-11-24T08:19:32.338Z,107331,-0.082430005,-0.28274208,-0.00990929
1732436372348,2024-11-24T08:19:32.348Z,107341,-0.056663983,-0.27849907,0.015811482
1732436372351,2024-11-24T08:19:32.351Z,107344,-0.056663983,-0.27849907,0.015811482
1732436372480,2024-11-24T08:19:32.480Z,107473,-0.025343776,-0.2299395,-0.004434064
1732436372485,2024-11-24T08:19:32.485Z,107478,-0.025343776,-0.2299395,-0.004434064
1732436372504,2024-11-24T08:19:32.504Z,107497,-0.014427379,-0.21065995,0.002823247
1732436372508,2024-11-24T08:19:32.508Z,107501,-0.014427379,-0.21065995,0.002823247
1732436372522,2024-11-24T08:19:32.522Z,107515,-0.070775695,-0.18458734,-0.0079086
1732436372526,2024-11-24T08:19:32.526Z,107519,-0.070775695,-0.18458734,-0.0079086
1732436372538,2024-11-24T08:19:32.538Z,107531,0.0019365423,-0.13550535,-0.02172916
1732436372542,2024-11-24T08:19:32.542Z,107535,0.0019365423,-0.13550535,-0.02172916
1732436372552,2024-11-24T08:19:32.552Z,107545,-0.006104385,-0.11239317,-0.021964923
1732436372556,2024-11-24T08:19:32.556Z,107549,-0.006104385,-0.11239317,-0.021964923
1732436372577,2024-11-24T08:19:32.577Z,107570,0.021283781,-0.099971816,-0.026788605
1732436372580,2024-11-24T08:19:32.580Z,107573,0.021283781,-0.099971816,-0.026788605
1732436372589,2024-11-24T08:19:32.589Z,107582,-0.06269932,-0.11593892,0.0044074003
1732436372592,2024-11-24T08:19:32.592Z,107585,-0.06269932,-0.11593892,0.0044074003
1732436372601,2024-11-24T08:19:32.601Z,107594,-0.017947067,-0.13079418,0.00689496
1732436372604,2024-11-24T08:19:32.604Z,107597,-0.017947067,-0.13079418,0.00689496
1732436372613,2024-11-24T08:19:32.613Z,107606,-0.020852122,-0.09131152,-0.05540962
1732436372616,2024-11-24T08:19:32.616Z,107609,-0.020852122,-0.09131152,-0.05540962
1732436372624,2024-11-24T08:19:32.624Z,107617,-0.03275974,-0.062459096,-0.01048052
1732436372626,2024-11-24T08:19:32.626Z,107619,-0.03275974,-0.062459096,-0.01048052
1732436372634,2024-11-24T08:19:32.634Z,107627,-0.031509183,-0.044413615,-0.025664765
1732436372636,2024-11-24T08:19:32.636Z,107629,-0.031509183,-0.044413615,-0.025664765
1732436372657,2024-11-24T08:19:32.657Z,107650,-0.004332799,0.009293867,-0.051524587
1732436372659,2024-11-24T08:19:32.659Z,107652,-0.004332799,0.009293867,-0.051524587
1732436372668,2024-11-24T08:19:32.668Z,107661,0.05673728,-0.011613905,-0.0630333
1732436372671,2024-11-24T08:19:32.671Z,107664,0.05673728,-0.011613905,-0.0630333
1732436372697,2024-11-24T08:19:32.697Z,107690,0.047218386,0.0030831415,-0.011894429
1732436372699,2024-11-24T08:19:32.699Z,107692,0.047218386,0.0030831415,-0.011894429
1732436372708,2024-11-24T08:19:32.708Z,107701,0.12873751,-0.02556798,0.0782019
1732436372711,2024-11-24T08:19:32.711Z,107704,0.12873751,-0.02556798,0.0782019
1732436372720,2024-11-24T08:19:32.720Z,107713,0.10773492,4.972276E-4,0.12045633
1732436372723,2024-11-24T08:19:32.723Z,107716,0.10773492,4.972276E-4,0.12045633
1732436372747,2024-11-24T08:19:32.747Z,107740,0.03727658,0.013803244,0.0066744755
1732436372754,2024-11-24T08:19:32.754Z,107747,0.03727658,0.013803244,0.0066744755
1732436372777,2024-11-24T08:19:32.777Z,107770,0.023375798,-0.033483945,-0.053322963
1732436372782,2024-11-24T08:19:32.782Z,107775,0.023375798,-0.033483945,-0.053322963
1732436372799,2024-11-24T08:19:32.799Z,107792,0.029149905,-0.06168831,-0.011910365
1732436372803,2024-11-24T08:19:32.803Z,107796,0.029149905,-0.06168831,-0.011910365
1732436372815,2024-11-24T08:19:32.815Z,107808,0.07945912,-0.058266647,0.036137894
1732436372819,2024-11-24T08:19:32.819Z,107812,0.07945912,-0.058266647,0.036137894
1732436372830,2024-11-24T08:19:32.830Z,107823,0.08641668,-0.10412867,0.053862203
1732436372833,2024-11-24T08:19:32.833Z,107826,0.08641668,-0.10412867,0.053862203
1732436372843,2024-11-24T08:19:32.843Z,107836,0.11394211,-0.0914994,0.059189286
1732436372846,2024-11-24T08:19:32.846Z,107839,0.11394211,-0.0914994,0.059189286
1732436372855,2024-11-24T08:19:32.855Z,107848,0.096566215,-0.10847594,0.038760725
1732436372857,2024-11-24T08:19:32.857Z,107850,0.096566215,-0.10847594,0.038760725
1732436372866,2024-11-24T08:19:32.866Z,107859,0.12435327,-0.109667316,-0.014751822
1732436372868,2024-11-24T08:19:32.868Z,107861,0.12435327,-0.109667316,-0.014751822
1732436372875,2024-11-24T08:19:32.875Z,107868,0.077578194,-0.09450883,0.06314581
1732436372878,2024-11-24T08:19:32.878Z,107871,0.077578194,-0.09450883,0.06314581
1732436372885,2024-11-24T08:19:32.885Z,107878,0.05815722,-0.066050746,0.0998621
1732436372887,2024-11-24T08:19:32.887Z,107880,0.05815722,-0.066050746,0.0998621
1732436372895,2024-11-24T08:19:32.895Z,107888,0.01888745,-0.0021221396,0.015087764
1732436372898,2024-11-24T08:19:32.898Z,107891,0.01888745,-0.0021221396,0.015087764
1732436372905,2024-11-24T08:19:32.905Z,107898,0.06376963,-0.0035136573,-0.030933185
1732436372907,2024-11-24T08:19:32.907Z,107900,0.06376963,-0.0035136573,-0.030933185
1732436372925,2024-11-24T08:19:32.925Z,107918,0.14887966,-0.01610461,-0.117753685
1732436372930,2024-11-24T08:19:32.930Z,107923,0.14887966,-0.01610461,-0.117753685
1732436372945,2024-11-24T08:19:32.945Z,107938,0.016875857,-0.040884983,-0.17758784
1732436372948,2024-11-24T08:19:32.948Z,107941,0.016875857,-0.040884983,-0.17758784
1732436372955,2024-11-24T08:19:32.955Z,107948,0.055210568,-0.072083406,-0.06536843
1732436372957,2024-11-24T08:19:32.957Z,107950,0.055210568,-0.072083406,-0.06536843
1732436372966,2024-11-24T08:19:32.966Z,107959,0.14756851,-0.08406997,0.08248405
1732436372970,2024-11-24T08:19:32.970Z,107963,0.14756851,-0.08406997,0.08248405
1732436372981,2024-11-24T08:19:32.981Z,107974,0.06291718,-0.059122622,0.049137313
1732436372983,2024-11-24T08:19:32.983Z,107976,0.06291718,-0.059122622,0.049137313
1732436372996,2024-11-24T08:19:32.996Z,107989,0.035518587,0.016489517,0.0047602025
1732436372998,2024-11-24T08:19:32.998Z,107991,0.035518587,0.016489517,0.0047602025
1732436373011,2024-11-24T08:19:33.011Z,108004,0.053474694,0.040194426,-0.038224015
1732436373018,2024-11-24T08:19:33.018Z,108011,0.053474694,0.040194426,-0.038224015
1732436373035,2024-11-24T08:19:33.035Z,108028,0.15363382,0.06432275,-0.03432374
1732436373040,2024-11-24T08:19:33.040Z,108033,0.15363382,0.06432275,-0.03432374
1732436373057,2024-11-24T08:19:33.057Z,108050,0.03310475,0.061141584,-0.11366138
1732436373063,2024-11-24T08:19:33.063Z,108056,0.03310475,0.061141584,-0.11366138
1732436373079,2024-11-24T08:19:33.079Z,108072,0.013463557,0.06710442,-0.115701705
1732436373083,2024-11-24T08:19:33.083Z,108076,0.013463557,0.06710442,-0.115701705
1732436373094,2024-11-24T08:19:33.094Z,108087,0.07771391,0.060400847,-0.03788964
1732436373098,2024-11-24T08:19:33.098Z,108091,0.07771391,0.060400847,-0.03788964
1732436373112,2024-11-24T08:19:33.112Z,108105,0.09016176,0.044696897,-0.012372097
1732436373117,2024-11-24T08:19:33.117Z,108110,0.09016176,0.044696897,-0.012372097
1732436373133,2024-11-24T08:19:33.133Z,108126,0.1724955,0.03856047,-0.0026266729
1732436373138,2024-11-24T08:19:33.138Z,108131,0.1724955,0.03856047,-0.0026266729
1732436373151,2024-11-24T08:19:33.151Z,108144,0.05281042,0.06409111,-0.033278376
1732436373154,2024-11-24T08:19:33.154Z,108147,0.05281042,0.06409111,-0.033278376
1732436373198,2024-11-24T08:19:33.198Z,108191,0.094050795,0.101944484,-0.015639232
1732436373205,2024-11-24T08:19:33.205Z,108198,0.094050795,0.101944484,-0.015639232
1732436373222,2024-11-24T08:19:33.222Z,108215,-0.0131410835,0.109167755,-0.020203747
1732436373228,2024-11-24T08:19:33.228Z,108221,-0.0131410835,0.109167755,-0.020203747
1732436373250,2024-11-24T08:19:33.250Z,108243,0.038678065,0.08006628,-0.0013918458
1732436373256,2024-11-24T08:19:33.256Z,108249,0.038678065,0.08006628,-0.0013918458
1732436373277,2024-11-24T08:19:33.277Z,108270,0.05880737,0.11039541,-0.062010735
1732436373283,2024-11-24T08:19:33.283Z,108276,0.05880737,0.11039541,-0.062010735
1732436373303,2024-11-24T08:19:33.303Z,108296,-0.027931854,0.07435862,-0.1452988
1732436373309,2024-11-24T08:19:33.309Z,108302,-0.027931854,0.07435862,-0.1452988
1732436373326,2024-11-24T08:19:33.326Z,108319,0.036767635,0.032973394,0.016617617
1732436373332,2024-11-24T08:19:33.332Z,108325,0.036767635,0.032973394,0.016617617
1732436373350,2024-11-24T08:19:33.350Z,108343,-0.06041519,0.025651906,-0.033527475
1732436373355,2024-11-24T08:19:33.355Z,108348,-0.06041519,0.025651906,-0.033527475
1732436373372,2024-11-24T08:19:33.372Z,108365,-0.0010986318,0.061441302,0.045641184
1732436373379,2024-11-24T08:19:33.379Z,108372,-0.0010986318,0.061441302,0.045641184
1732436373391,2024-11-24T08:19:33.391Z,108384,-0.06696181,0.08901103,-0.009196741
1732436373394,2024-11-24T08:19:33.394Z,108387,-0.06696181,0.08901103,-0.009196741
1732436373402,2024-11-24T08:19:33.402Z,108395,-0.0055573666,0.12913135,0.030472692
1732436373405,2024-11-24T08:19:33.405Z,108398,-0.0055573666,0.12913135,0.030472692
1732436373413,2024-11-24T08:19:33.413Z,108406,-0.019837026,0.14895423,0.011400532
1732436373416,2024-11-24T08:19:33.416Z,108409,-0.019837026,0.14895423,0.011400532
1732436373424,2024-11-24T08:19:33.424Z,108417,0.027281703,0.15744318,0.050271876
1732436373426,2024-11-24T08:19:33.426Z,108419,0.027281703,0.15744318,0.050271876
1732436373434,2024-11-24T08:19:33.434Z,108427,-0.05790603,0.17520893,-0.09898112
1732436373436,2024-11-24T08:19:33.436Z,108429,-0.05790603,0.17520893,-0.09898112
1732436373443,2024-11-24T08:19:33.443Z,108436,0.035686824,0.16150638,-0.0031097995
1732436373445,2024-11-24T08:19:33.445Z,108438,0.035686824,0.16150638,-0.0031097995
1732436373463,2024-11-24T08:19:33.463Z,108456,0.06440349,0.22858757,0.049529452
1732436373465,2024-11-24T08:19:33.465Z,108458,0.06440349,0.22858757,0.049529452
1732436373473,2024-11-24T08:19:33.473Z,108466,-0.022677291,0.03679416,-0.10181794
1732436373476,2024-11-24T08:19:33.476Z,108469,-0.022677291,0.03679416,-0.10181794
1732436373485,2024-11-24T08:19:33.485Z,108478,0.04807166,0.01862848,-0.04213042
1732436373490,2024-11-24T08:19:33.490Z,108483,0.04807166,0.01862848,-0.04213042
1732436373507,2024-11-24T08:19:33.507Z,108500,0.021718819,-0.01988706,0.014892382
1732436373509,2024-11-24T08:19:33.509Z,108502,0.021718819,-0.01988706,0.014892382
1732436373518,2024-11-24T08:19:33.518Z,108511,-0.07796215,-0.08495025,-0.13285604
1732436373520,2024-11-24T08:19:33.520Z,108513,-0.07796215,-0.08495025,-0.13285604
1732436373527,2024-11-24T08:19:33.527Z,108520,-0.041265123,-0.09892952,-0.05587737
1732436373529,2024-11-24T08:19:33.529Z,108522,-0.041265123,-0.09892952,-0.05587737
1732436373555,2024-11-24T08:19:33.555Z,108548,-0.12707959,-0.098057985,-0.0046665897
1732436373560,2024-11-24T08:19:33.560Z,108553,-0.12707959,-0.098057985,-0.0046665897
1732436373573,2024-11-24T08:19:33.573Z,108566,-0.025486851,-0.10611233,0.07446691
1732436373575,2024-11-24T08:19:33.575Z,108568,-0.025486851,-0.10611233,0.07446691
1732436373586,2024-11-24T08:19:33.586Z,108579,-0.09448751,-0.042812333,-3.3670806E-4
1732436373588,2024-11-24T08:19:33.588Z,108581,-0.09448751,-0.042812333,-3.3670806E-4
1732436373598,2024-11-24T08:19:33.598Z,108591,-0.09977922,-0.044960245,-0.050187845
1732436373601,2024-11-24T08:19:33.601Z,108594,-0.09977922,-0.044960245,-0.050187845
1732436373609,2024-11-24T08:19:33.609Z,108602,0.0087963715,0.0032133562,-0.072602905
1732436373612,2024-11-24T08:19:33.612Z,108605,0.0087963715,0.0032133562,-0.072602905
1732436373621,2024-11-24T08:19:33.621Z,108614,0.06735046,0.0054609454,-0.014469609
1732436373623,2024-11-24T08:19:33.623Z,108616,0.06735046,0.0054609454,-0.014469609
1732436373631,2024-11-24T08:19:33.631Z,108624,-0.03613504,0.05251571,-0.0558423
1732436373633,2024-11-24T08:19:33.633Z,108626,-0.03613504,0.05251571,-0.0558423
1732436373644,2024-11-24T08:19:33.644Z,108637,-0.051217355,0.050910637,-0.0646657
1732436373647,2024-11-24T08:19:33.647Z,108640,-0.051217355,0.050910637,-0.0646657
1732436373654,2024-11-24T08:19:33.654Z,108647,-0.06406828,0.011046854,-0.03219912
1732436373656,2024-11-24T08:19:33.656Z,108649,-0.06406828,0.011046854,-0.03219912
1732436373664,2024-11-24T08:19:33.664Z,108657,0.077457584,-0.0024906113,0.084341265
1732436373666,2024-11-24T08:19:33.666Z,108659,0.077457584,-0.0024906113,0.084341265
1732436373690,2024-11-24T08:19:33.690Z,108683,-0.08839022,0.0029476755,-0.069363646
1732436373693,2024-11-24T08:19:33.693Z,108686,-0.08839022,0.0029476755,-0.069363646
1732436373702,2024-11-24T08:19:33.702Z,108695,0.062573165,0.02614466,0.047633607
1732436373704,2024-11-24T08:19:33.704Z,108697,0.062573165,0.02614466,0.047633607
1732436373713,2024-11-24T08:19:33.713Z,108706,-0.03326071,0.08606569,0.03894464
1732436373717,2024-11-24T08:19:33.717Z,108710,-0.03326071,0.08606569,0.03894464
1732436373736,2024-11-24T08:19:33.736Z,108729,-0.09836434,0.07122384,-0.063235156
1732436373741,2024-11-24T08:19:33.741Z,108734,-0.09836434,0.07122384,-0.063235156
1732436373755,2024-11-24T08:19:33.755Z,108748,-0.086157314,0.07073556,-0.041262496
1732436373757,2024-11-24T08:19:33.757Z,108750,-0.086157314,0.07073556,-0.041262496
1732436373781,2024-11-24T08:19:33.781Z,108774,-0.05700058,0.075151674,0.01752033
1732436373786,2024-11-24T08:19:33.786Z,108779,-0.05700058,0.075151674,0.01752033
1732436373802,2024-11-24T08:19:33.802Z,108795,-0.107611015,0.059468143,-0.14453454
1732436373807,2024-11-24T08:19:33.807Z,108800,-0.107611015,0.059468143,-0.14453454
1732436373825,2024-11-24T08:19:33.825Z,108818,0.0187682,0.026924293,-0.039800122
1732436373829,2024-11-24T08:19:33.829Z,108822,0.0187682,0.026924293,-0.039800122
1732436373842,2024-11-24T08:19:33.842Z,108835,-0.051592708,0.04676069,-0.0359964
1732436373847,2024-11-24T08:19:33.847Z,108840,-0.051592708,0.04676069,-0.0359964
1732436373861,2024-11-24T08:19:33.861Z,108854,-0.1053141,0.007090039,-0.08822075
1732436373866,2024-11-24T08:19:33.866Z,108859,-0.1053141,0.007090039,-0.08822075
1732436373883,2024-11-24T08:19:33.883Z,108876,-0.16867664,-0.002226292,-0.10955679
1732436373889,2024-11-24T08:19:33.889Z,108882,-0.16867664,-0.002226292,-0.10955679
1732436373900,2024-11-24T08:19:33.900Z,108893,-0.1102792,-0.04089889,-0.06792866
1732436373903,2024-11-24T08:19:33.903Z,108896,-0.1102792,-0.04089889,-0.06792866
1732436373914,2024-11-24T08:19:33.914Z,108907,-0.110729896,-0.045618612,-0.032195218
1732436373917,2024-11-24T08:19:33.917Z,108910,-0.110729896,-0.045618612,-0.032195218
1732436373926,2024-11-24T08:19:33.926Z,108919,-0.04342611,-0.04534972,-0.02827735
1732436373929,2024-11-24T08:19:33.929Z,108922,-0.04342611,-0.04534972,-0.02827735
1732436373938,2024-11-24T08:19:33.938Z,108931,-0.075363554,-0.0127407145,-0.0585286
1732436373940,2024-11-24T08:19:33.940Z,108933,-0.075363554,-0.0127407145,-0.0585286
1732436373948,2024-11-24T08:19:33.948Z,108941,-0.07706475,0.031603366,-0.10932289
1732436373950,2024-11-24T08:19:33.950Z,108943,-0.07706475,0.031603366,-0.10932289
1732436373958,2024-11-24T08:19:33.958Z,108951,-0.098901875,0.042872045,-0.13176836
1732436373961,2024-11-24T08:19:33.961Z,108954,-0.098901875,0.042872045,-0.13176836
1732436373969,2024-11-24T08:19:33.969Z,108962,-0.0034470912,0.03620046,-0.023763172
1732436373971,2024-11-24T08:19:33.971Z,108964,-0.0034470912,0.03620046,-0.023763172
1732436373978,2024-11-24T08:19:33.978Z,108971,-0.056987282,0.0651796,-0.007449114
1732436373981,2024-11-24T08:19:33.981Z,108974,-0.056987282,0.0651796,-0.007449114
1732436373987,2024-11-24T08:19:33.987Z,108980,-0.06013461,0.046155903,-1.3594015E-4
1732436373989,2024-11-24T08:19:33.989Z,108982,-0.06013461,0.046155903,-1.3594015E-4
1732436373997,2024-11-24T08:19:33.997Z,108990,-0.0968225,0.07387598,0.0031842305
1732436374000,2024-11-24T08:19:34Z,108993,-0.0968225,0.07387598,0.0031842305
1732436374007,2024-11-24T08:19:34.007Z,109000,-0.08966283,0.070700355,-0.03597329
1732436374010,2024-11-24T08:19:34.010Z,109003,-0.08966283,0.070700355,-0.03597329
1732436374018,2024-11-24T08:19:34.018Z,109011,-0.03896203,0.036381535,-0.025522286
1732436374020,2024-11-24T08:19:34.020Z,109013,-0.03896203,0.036381535,-0.025522286
1732436374028,2024-11-24T08:19:34.028Z,109021,-0.02171116,0.02120039,-0.040651698
1732436374030,2024-11-24T08:19:34.030Z,109023,-0.02171116,0.02120039,-0.040651698
1732436374037,2024-11-24T08:19:34.037Z,109030,-0.034867827,0.007508885,-0.036129348
1732436374039,2024-11-24T08:19:34.039Z,109032,-0.034867827,0.007508885,-0.036129348
1732436374049,2024-11-24T08:19:34.049Z,109042,-0.060256433,0.0032108277,-0.01461424
1732436374051,2024-11-24T08:19:34.051Z,109044,-0.060256433,0.0032108277,-0.01461424
1732436374058,2024-11-24T08:19:34.058Z,109051,-0.0956882,0.0037655288,-0.035415307
1732436374059,2024-11-24T08:19:34.059Z,109052,-0.0956882,0.0037655288,-0.035415307
1732436374067,2024-11-24T08:19:34.067Z,109060,-0.10045159,-0.007858685,-0.0117760785
1732436374069,2024-11-24T08:19:34.069Z,109062,-0.10045159,-0.007858685,-0.0117760785
1732436374096,2024-11-24T08:19:34.096Z,109089,-0.023176173,0.024811296,-9.897994E-4
1732436374098,2024-11-24T08:19:34.098Z,109091,-0.023176173,0.024811296,-9.897994E-4
1732436374107,2024-11-24T08:19:34.107Z,109100,-0.0519066,0.04165168,-0.02797418
1732436374109,2024-11-24T08:19:34.109Z,109102,-0.0519066,0.04165168,-0.02797418
1732436374118,2024-11-24T08:19:34.118Z,109111,-0.06692532,0.06630913,-0.034072038
1732436374120,2024-11-24T08:19:34.120Z,109113,-0.06692532,0.06630913,-0.034072038
1732436374139,2024-11-24T08:19:34.139Z,109132,-0.047296207,0.07107271,-0.025275812
1732436374142,2024-11-24T08:19:34.142Z,109135,-0.047296207,0.07107271,-0.025275812
1732436374150,2024-11-24T08:19:34.150Z,109143,-0.057006318,0.08337406,-0.013270435
1732436374153,2024-11-24T08:19:34.153Z,109146,-0.057006318,0.08337406,-0.013270435
1732436374160,2024-11-24T08:19:34.160Z,109153,-0.072419666,0.09270556,0.021129413
1732436374163,2024-11-24T08:19:34.163Z,109156,-0.072419666,0.09270556,0.021129413
1732436374184,2024-11-24T08:19:34.184Z,109177,-0.060743596,0.079139024,-0.0643725
1732436374186,2024-11-24T08:19:34.186Z,109179,-0.060743596,0.079139024,-0.0643725
1732436374194,2024-11-24T08:19:34.194Z,109187,0.0089741405,0.075760834,-0.067819014
1732436374197,2024-11-24T08:19:34.197Z,109190,0.0089741405,0.075760834,-0.067819014
1732436374205,2024-11-24T08:19:34.205Z,109198,-0.040626887,0.07628772,-0.1002081
1732436374207,2024-11-24T08:19:34.207Z,109200,-0.040626887,0.07628772,-0.1002081
1732436374232,2024-11-24T08:19:34.232Z,109225,-0.033404443,0.07074411,-0.06587164
1732436374235,2024-11-24T08:19:34.235Z,109228,-0.033404443,0.07074411,-0.06587164
1732436374245,2024-11-24T08:19:34.245Z,109238,-0.097541966,0.09362271,-0.07351938
1732436374249,2024-11-24T08:19:34.249Z,109242,-0.097541966,0.09362271,-0.07351938
1732436374274,2024-11-24T08:19:34.274Z,109267,-0.15139247,0.04904601,-0.17168668
1732436374277,2024-11-24T08:19:34.277Z,109270,-0.15139247,0.04904601,-0.17168668
1732436374288,2024-11-24T08:19:34.288Z,109281,0.042509723,0.0061122132,0.0041781873
1732436374291,2024-11-24T08:19:34.291Z,109284,0.042509723,0.0061122132,0.0041781873
1732436374303,2024-11-24T08:19:34.303Z,109296,-0.103396714,0.005543606,-0.06023386
1732436374306,2024-11-24T08:19:34.306Z,109299,-0.103396714,0.005543606,-0.06023386
1732436374323,2024-11-24T08:19:34.323Z,109316,-0.073032305,0.023110239,-0.033242382
1732436374326,2024-11-24T08:19:34.326Z,109319,-0.073032305,0.023110239,-0.033242382
1732436374334,2024-11-24T08:19:34.334Z,109327,-0.04013394,0.09182956,-0.07398512
1732436374337,2024-11-24T08:19:34.337Z,109330,-0.04013394,0.09182956,-0.07398512
1732436374345,2024-11-24T08:19:34.345Z,109338,-0.10583666,0.059398223,-0.17159472
1732436374347,2024-11-24T08:19:34.347Z,109340,-0.10583666,0.059398223,-0.17159472
1732436374362,2024-11-24T08:19:34.362Z,109355,-0.063327976,0.03125075,-0.09989215
1732436374364,2024-11-24T08:19:34.364Z,109357,-0.063327976,0.03125075,-0.09989215
1732436374371,2024-11-24T08:19:34.371Z,109364,-0.021654781,0.06418835,0.008941101
1732436374373,2024-11-24T08:19:34.373Z,109366,-0.021654781,0.06418835,0.008941101
1732436374379,2024-11-24T08:19:34.379Z,109372,-0.07963978,0.06647572,-0.013031704
1732436374382,2024-11-24T08:19:34.382Z,109375,-0.07963978,0.06647572,-0.013031704
1732436374410,2024-11-24T08:19:34.410Z,109403,1.4822982E-4,0.09469807,0.021713337
1732436374415,2024-11-24T08:19:34.415Z,109408,1.4822982E-4,0.09469807,0.021713337
1732436374438,2024-11-24T08:19:34.438Z,109431,-0.077836975,0.21610115,-0.014523071
1732436374445,2024-11-24T08:19:34.445Z,109438,-0.077836975,0.21610115,-0.014523071
1732436374466,2024-11-24T08:19:34.466Z,109459,-0.14918478,0.15571527,-0.3220932
1732436374473,2024-11-24T08:19:34.473Z,109466,-0.14918478,0.15571527,-0.3220932
1732436374492,2024-11-24T08:19:34.492Z,109485,0.093068615,0.08922108,-0.27480614
1732436374498,2024-11-24T08:19:34.498Z,109491,0.093068615,0.08922108,-0.27480614
1732436374516,2024-11-24T08:19:34.516Z,109509,0.084565274,0.15289082,-0.019765865
1732436374522,2024-11-24T08:19:34.522Z,109515,0.084565274,0.15289082,-0.019765865
1732436374535,2024-11-24T08:19:34.535Z,109528,-0.08562589,0.12614517,-0.08940931
1732436374539,2024-11-24T08:19:34.539Z,109532,-0.08562589,0.12614517,-0.08940931
1732436374550,2024-11-24T08:19:34.550Z,109543,-0.031703047,0.098737456,-0.121365875
1732436374553,2024-11-24T08:19:34.553Z,109546,-0.031703047,0.098737456,-0.121365875
1732436374564,2024-11-24T08:19:34.564Z,109557,-0.053096037,-0.0156213865,-0.08786045
1732436374567,2024-11-24T08:19:34.567Z,109560,-0.053096037,-0.0156213865,-0.08786045
1732436374576,2024-11-24T08:19:34.576Z,109569,0.02271021,3.9871564E-4,0.013962194
1732436374579,2024-11-24T08:19:34.579Z,109572,0.02271021,3.9871564E-4,0.013962194
1732436374587,2024-11-24T08:19:34.587Z,109580,-0.093328945,-0.02327624,-0.047308315
1732436374590,2024-11-24T08:19:34.590Z,109583,-0.093328945,-0.02327624,-0.047308315
1732436374597,2024-11-24T08:19:34.597Z,109590,0.015970992,0.00428629,-0.007212717
1732436374599,2024-11-24T08:19:34.599Z,109592,0.015970992,0.00428629,-0.007212717
1732436374606,2024-11-24T08:19:34.606Z,109599,0.030888451,0.016873062,-0.061301325
1732436374608,2024-11-24T08:19:34.608Z,109601,0.030888451,0.016873062,-0.061301325
1732436374615,2024-11-24T08:19:34.615Z,109608,0.004750478,0.0021132901,-0.13389568
1732436374617,2024-11-24T08:19:34.617Z,109610,0.004750478,0.0021132901,-0.13389568
1732436374623,2024-11-24T08:19:34.623Z,109616,0.04196725,0.035272915,0.0062220427
1732436374626,2024-11-24T08:19:34.626Z,109619,0.04196725,0.035272915,0.0062220427
1732436374633,2024-11-24T08:19:34.633Z,109626,0.058377,0.015566441,-0.026330803
1732436374636,2024-11-24T08:19:34.636Z,109629,0.058377,0.015566441,-0.026330803
1732436374642,2024-11-24T08:19:34.642Z,109635,0.033059675,0.037459917,-0.0043338444
1732436374644,2024-11-24T08:19:34.644Z,109637,0.033059675,0.037459917,-0.0043338444
1732436374650,2024-11-24T08:19:34.650Z,109643,0.073239446,0.0149761485,-0.08449827
1732436374652,2024-11-24T08:19:34.652Z,109645,0.073239446,0.0149761485,-0.08449827
1732436374659,2024-11-24T08:19:34.659Z,109652,0.07551954,0.04560908,-0.054066375
1732436374661,2024-11-24T08:19:34.661Z,109654,0.07551954,0.04560908,-0.054066375
1732436374668,2024-11-24T08:19:34.668Z,109661,0.10321542,0.0055198777,-0.046215177
1732436374671,2024-11-24T08:19:34.671Z,109664,0.10321542,0.0055198777,-0.046215177
1732436374679,2024-11-24T08:19:34.679Z,109672,0.04067393,0.012627616,0.060858727
1732436374682,2024-11-24T08:19:34.682Z,109675,0.04067393,0.012627616,0.060858727
1732436374689,2024-11-24T08:19:34.689Z,109682,-0.02335377,-8.782441E-4,0.02376316
1732436374691,2024-11-24T08:19:34.691Z,109684,-0.02335377,-8.782441E-4,0.02376316
1732436374723,2024-11-24T08:19:34.723Z,109716,0.0055966787,-0.02481606,-0.038463783
1732436374725,2024-11-24T08:19:34.725Z,109718,0.0055966787,-0.02481606,-0.038463783
1732436374732,2024-11-24T08:19:34.732Z,109725,0.09263513,-0.017065613,-0.01117764
1732436374734,2024-11-24T08:19:34.734Z,109727,0.09263513,-0.017065613,-0.01117764
1732436374741,2024-11-24T08:19:34.741Z,109734,0.03159352,-0.028214578,0.031123292
1732436374744,2024-11-24T08:19:34.744Z,109737,0.03159352,-0.028214578,0.031123292
1732436374752,2024-11-24T08:19:34.752Z,109745,0.002802898,-0.010083421,0.044650413
1732436374754,2024-11-24T08:19:34.754Z,109747,0.002802898,-0.010083421,0.044650413
1732436374770,2024-11-24T08:19:34.770Z,109763,0.008026243,-0.05608266,0.064282015
1732436374773,2024-11-24T08:19:34.773Z,109766,0.008026243,-0.05608266,0.064282015
1732436374780,2024-11-24T08:19:34.780Z,109773,-0.08812549,-1.3974497E-4,0.010720235
1732436374783,2024-11-24T08:19:34.783Z,109776,-0.08812549,-1.3974497E-4,0.010720235
1732436374817,2024-11-24T08:19:34.817Z,109810,0.004112873,-0.041053414,-0.03312803
1732436374823,2024-11-24T08:19:34.823Z,109816,0.004112873,-0.041053414,-0.03312803
1732436374843,2024-11-24T08:19:34.843Z,109836,0.018008964,-0.08056623,-0.009935313
1732436374849,2024-11-24T08:19:34.849Z,109842,0.018008964,-0.08056623,-0.009935313
1732436374868,2024-11-24T08:19:34.868Z,109861,0.05637815,-0.084330104,0.067600116
1732436374873,2024-11-24T08:19:34.873Z,109866,0.05637815,-0.084330104,0.067600116
1732436374890,2024-11-24T08:19:34.890Z,109883,0.006567211,-0.096725106,0.051945522
1732436374896,2024-11-24T08:19:34.896Z,109889,0.006567211,-0.096725106,0.051945522
1732436374912,2024-11-24T08:19:34.912Z,109905,-0.01279284,-0.043622017,-0.007880736
1732436374915,2024-11-24T08:19:34.915Z,109908,-0.01279284,-0.043622017,-0.007880736
1732436374927,2024-11-24T08:19:34.927Z,109920,-0.010839401,-0.047657702,-0.06315343
1732436374930,2024-11-24T08:19:34.930Z,109923,-0.010839401,-0.047657702,-0.06315343
1732436374941,2024-11-24T08:19:34.941Z,109934,0.06401572,-0.048408844,-0.08275332
1732436374944,2024-11-24T08:19:34.944Z,109937,0.06401572,-0.048408844,-0.08275332
1732436374954,2024-11-24T08:19:34.954Z,109947,0.09308622,-0.08609914,-0.0035449346
1732436374960,2024-11-24T08:19:34.960Z,109953,0.09308622,-0.08609914,-0.0035449346
1732436374970,2024-11-24T08:19:34.970Z,109963,0.020399265,-0.024580527,0.04408669
1732436374972,2024-11-24T08:19:34.972Z,109965,0.020399265,-0.024580527,0.04408669
1732436374979,2024-11-24T08:19:34.979Z,109972,0.04056861,-0.019616129,0.0632446
1732436374982,2024-11-24T08:19:34.982Z,109975,0.04056861,-0.019616129,0.0632446
1732436374992,2024-11-24T08:19:34.992Z,109985,0.036898457,-0.021066286,-0.041971397
1732436374995,2024-11-24T08:19:34.995Z,109988,0.036898457,-0.021066286,-0.041971397
1732436375002,2024-11-24T08:19:35.002Z,109995,0.083002515,-0.069252335,-0.00976288
1732436375004,2024-11-24T08:19:35.004Z,109997,0.083002515,-0.069252335,-0.00976288
1732436375010,2024-11-24T08:19:35.010Z,110003,0.06286017,-0.03913744,0.00879202
1732436375012,2024-11-24T08:19:35.012Z,110005,0.06286017,-0.03913744,0.00879202
1732436375018,2024-11-24T08:19:35.018Z,110011,0.05665951,-0.066138946,-0.03510161
1732436375021,2024-11-24T08:19:35.021Z,110014,0.05665951,-0.066138946,-0.03510161
1732436375027,2024-11-24T08:19:35.027Z,110020,0.073517084,-0.05770193,0.009062515
1732436375030,2024-11-24T08:19:35.030Z,110023,0.073517084,-0.05770193,0.009062515
1732436375037,2024-11-24T08:19:35.037Z,110030,0.011033969,-0.05207508,0.005545028
1732436375039,2024-11-24T08:19:35.039Z,110032,0.011033969,-0.05207508,0.005545028
1732436375046,2024-11-24T08:19:35.046Z,110039,-0.005140101,-0.047543824,-0.06374444
1732436375048,2024-11-24T08:19:35.048Z,110041,-0.005140101,-0.047543824,-0.06374444
1732436375055,2024-11-24T08:19:35.055Z,110048,0.029312503,-0.04263165,-0.06947255
1732436375057,2024-11-24T08:19:35.057Z,110050,0.029312503,-0.04263165,-0.06947255
1732436375085,2024-11-24T08:19:35.085Z,110078,0.07235347,-0.061147418,-0.053903617
1732436375090,2024-11-24T08:19:35.090Z,110083,0.07235347,-0.061147418,-0.053903617
1732436375111,2024-11-24T08:19:35.111Z,110104,0.039215945,-0.058028,-0.07410363
1732436375117,2024-11-24T08:19:35.117Z,110110,0.039215945,-0.058028,-0.07410363
1732436375136,2024-11-24T08:19:35.136Z,110129,0.051365804,-0.055379752,-0.05005346
1732436375142,2024-11-24T08:19:35.142Z,110135,0.051365804,-0.055379752,-0.05005346
1732436375155,2024-11-24T08:19:35.155Z,110148,-0.030264534,-0.04234039,-0.060010068
1732436375159,2024-11-24T08:19:35.159Z,110152,-0.030264534,-0.04234039,-0.060010068
1732436375175,2024-11-24T08:19:35.175Z,110168,0.046332557,-0.043779172,-0.02966065
1732436375180,2024-11-24T08:19:35.180Z,110173,0.046332557,-0.043779172,-0.02966065
1732436375198,2024-11-24T08:19:35.198Z,110191,0.01345833,-0.030632934,-0.021267286
1732436375203,2024-11-24T08:19:35.203Z,110196,0.01345833,-0.030632934,-0.021267286
1732436375221,2024-11-24T08:19:35.221Z,110214,-0.04170592,-0.027736701,-0.06510236
1732436375226,2024-11-24T08:19:35.226Z,110219,-0.04170592,-0.027736701,-0.06510236
1732436375242,2024-11-24T08:19:35.242Z,110235,0.011911192,-0.005301848,-0.059207726
1732436375246,2024-11-24T08:19:35.246Z,110239,0.011911192,-0.005301848,-0.059207726
1732436375259,2024-11-24T08:19:35.259Z,110252,-0.052841563,-0.014095181,-0.09802562
1732436375263,2024-11-24T08:19:35.263Z,110256,-0.052841563,-0.014095181,-0.09802562
1732436375274,2024-11-24T08:19:35.274Z,110267,4.0017435E-4,-0.018087102,-0.056512337
1732436375277,2024-11-24T08:19:35.277Z,110270,4.0017435E-4,-0.018087102,-0.056512337
1732436375288,2024-11-24T08:19:35.288Z,110281,0.007370307,-0.029436786,-0.058160976
1732436375291,2024-11-24T08:19:35.291Z,110284,0.007370307,-0.029436786,-0.058160976
1732436375300,2024-11-24T08:19:35.300Z,110293,0.03325067,-0.03863749,-0.06711413
1732436375303,2024-11-24T08:19:35.303Z,110296,0.03325067,-0.03863749,-0.06711413
1732436375312,2024-11-24T08:19:35.312Z,110305,0.0024670043,-0.04730508,-0.03550623
1732436375314,2024-11-24T08:19:35.314Z,110307,0.0024670043,-0.04730508,-0.03550623
1732436375322,2024-11-24T08:19:35.322Z,110315,-0.051402345,-0.0464423,-0.04035779
1732436375324,2024-11-24T08:19:35.324Z,110317,-0.051402345,-0.0464423,-0.04035779
1732436375331,2024-11-24T08:19:35.331Z,110324,-0.058999825,-0.055331226,-0.06684388
1732436375334,2024-11-24T08:19:35.334Z,110327,-0.058999825,-0.055331226,-0.06684388
1732436375341,2024-11-24T08:19:35.341Z,110334,0.008906772,-0.054579698,-0.055056974
1732436375343,2024-11-24T08:19:35.343Z,110336,0.008906772,-0.054579698,-0.055056974
1732436375354,2024-11-24T08:19:35.354Z,110347,0.035540003,-0.029461,0.040742766
1732436375357,2024-11-24T08:19:35.357Z,110350,0.035540003,-0.029461,0.040742766
1732436375363,2024-11-24T08:19:35.363Z,110356,0.023356056,-0.04673336,0.0337641
1732436375366,2024-11-24T08:19:35.366Z,110359,0.023356056,-0.04673336,0.0337641
1732436375401,2024-11-24T08:19:35.401Z,110394,-0.031827208,-0.059134778,0.007438046
1732436375403,2024-11-24T08:19:35.403Z,110396,-0.031827208,-0.059134778,0.007438046
1732436375410,2024-11-24T08:19:35.410Z,110403,-0.026726663,-0.095947996,-0.02842657
1732436375412,2024-11-24T08:19:35.412Z,110405,-0.026726663,-0.095947996,-0.02842657
1732436375420,2024-11-24T08:19:35.420Z,110413,0.03431714,-0.076832406,0.0074866246
1732436375422,2024-11-24T08:19:35.422Z,110415,0.03431714,-0.076832406,0.0074866246
1732436375442,2024-11-24T08:19:35.442Z,110435,-0.02622343,-0.07091187,0.031419616
1732436375445,2024-11-24T08:19:35.445Z,110438,-0.02622343,-0.07091187,0.031419616
1732436375453,2024-11-24T08:19:35.453Z,110446,0.062067747,-0.06378468,0.0580597
1732436375455,2024-11-24T08:19:35.455Z,110448,0.062067747,-0.06378468,0.0580597
1732436375462,2024-11-24T08:19:35.462Z,110455,0.04925152,-0.07086801,0.05375148
1732436375465,2024-11-24T08:19:35.465Z,110458,0.04925152,-0.07086801,0.05375148
1732436375472,2024-11-24T08:19:35.472Z,110465,0.035853505,-0.07353298,-0.007303879
1732436375475,2024-11-24T08:19:35.475Z,110468,0.035853505,-0.07353298,-0.007303879
1732436375491,2024-11-24T08:19:35.491Z,110484,-0.032733556,-0.058143046,-0.0025012963
1732436375497,2024-11-24T08:19:35.497Z,110490,-0.032733556,-0.058143046,-0.0025012963
1732436375513,2024-11-24T08:19:35.513Z,110506,-0.006926128,-0.08786302,-0.028302148
1732436375515,2024-11-24T08:19:35.515Z,110508,-0.006926128,-0.08786302,-0.028302148
1732436375524,2024-11-24T08:19:35.524Z,110517,0.07438886,-0.059465908,0.04777498
1732436375526,2024-11-24T08:19:35.526Z,110519,0.07438886,-0.059465908,0.04777498
1732436375535,2024-11-24T08:19:35.535Z,110528,0.009239067,-0.064763576,0.045546394
1732436375538,2024-11-24T08:19:35.538Z,110531,0.009239067,-0.064763576,0.045546394
1732436375550,2024-11-24T08:19:35.550Z,110543,-0.024383478,-0.05356978,0.0098362975
1732436375552,2024-11-24T08:19:35.552Z,110545,-0.024383478,-0.05356978,0.0098362975
1732436375559,2024-11-24T08:19:35.559Z,110552,-0.03294225,-0.049427122,-0.004933405
1732436375561,2024-11-24T08:19:35.561Z,110554,-0.03294225,-0.049427122,-0.004933405
1732436375579,2024-11-24T08:19:35.579Z,110572,0.0043853372,-0.02770918,-0.0018153664
1732436375581,2024-11-24T08:19:35.581Z,110574,0.0043853372,-0.02770918,-0.0018153664
1732436375589,2024-11-24T08:19:35.589Z,110582,-0.004348772,-0.0071317586,0.024433147
1732436375591,2024-11-24T08:19:35.591Z,110584,-0.004348772,-0.0071317586,0.024433147
1732436375598,2024-11-24T08:19:35.598Z,110591,1.1431469E-4,-0.013218882,0.039589982
1732436375600,2024-11-24T08:19:35.600Z,110593,1.1431469E-4,-0.013218882,0.039589982
1732436375607,2024-11-24T08:19:35.607Z,110600,0.02990902,-0.0064516077,0.0738352
1732436375609,2024-11-24T08:19:35.609Z,110602,0.02990902,-0.0064516077,0.0738352
