Timestamp (ms),ISO DateTime,Elapsed Time (ms),Acceleration X,Acceleration Y,Acceleration Z
1732202282748,2024-11-21T15:18:02.748Z,74602,-0.43285662,-0.9150154,-1.3061774
1732202282754,2024-11-21T15:18:02.754Z,74608,-0.43285662,-0.9150154,-1.3061774
1732202282774,2024-11-21T15:18:02.774Z,74628,-0.45717677,-0.8579121,-1.2685841
1732202282780,2024-11-21T15:18:02.780Z,74634,-0.45717677,-0.8579121,-1.2685841
1732202282803,2024-11-21T15:18:02.803Z,74657,-0.41558957,-0.8197559,-1.2334323
1732202282810,2024-11-21T15:18:02.810Z,74664,-0.41558957,-0.8197559,-1.2334323
1732202282828,2024-11-21T15:18:02.828Z,74682,-0.4037134,-0.828007,-1.199256
1732202282832,2024-11-21T15:18:02.832Z,74686,-0.4037134,-0.828007,-1.199256
1732202282844,2024-11-21T15:18:02.844Z,74698,-0.42878565,-0.82441217,-1.2676185
1732202282848,2024-11-21T15:18:02.848Z,74702,-0.42878565,-0.82441217,-1.2676185
1732202282860,2024-11-21T15:18:02.860Z,74714,-0.49099106,-0.8136894,-1.3472098
1732202282865,2024-11-21T15:18:02.865Z,74719,-0.49099106,-0.8136894,-1.3472098
1732202282879,2024-11-21T15:18:02.879Z,74733,-0.46763465,-0.8594107,-1.3223078
1732202282882,2024-11-21T15:18:02.882Z,74736,-0.46763465,-0.8594107,-1.3223078
1732202282894,2024-11-21T15:18:02.894Z,74748,-0.5444052,-0.82201743,-1.3320554
1732202282898,2024-11-21T15:18:02.898Z,74752,-0.5444052,-0.82201743,-1.3320554
1732202282910,2024-11-21T15:18:02.910Z,74764,-0.50512415,-0.8330421,-1.2856598
1732202282913,2024-11-21T15:18:02.913Z,74767,-0.50512415,-0.8330421,-1.2856598
1732202282925,2024-11-21T15:18:02.925Z,74779,-0.46857917,-0.84600997,-1.2915087
1732202282929,2024-11-21T15:18:02.929Z,74783,-0.46857917,-0.84600997,-1.2915087
1732202283009,2024-11-21T15:18:03.009Z,74863,-0.490962,-0.8160906,-1.2831124
1732202283013,2024-11-21T15:18:03.013Z,74867,-0.490962,-0.8160906,-1.2831124
1732202283028,2024-11-21T15:18:03.028Z,74882,-0.5257363,-0.78630775,-1.2791975
1732202283034,2024-11-21T15:18:03.034Z,74888,-0.5257363,-0.78630775,-1.2791975
1732202283050,2024-11-21T15:18:03.050Z,74904,-0.4798607,-0.8043769,-1.2982336
1732202283054,2024-11-21T15:18:03.054Z,74908,-0.4798607,-0.8043769,-1.2982336
1732202283098,2024-11-21T15:18:03.098Z,74952,-0.4534345,-0.8193803,-1.3148439
1732202283101,2024-11-21T15:18:03.101Z,74955,-0.4534345,-0.8193803,-1.3148439
1732202283115,2024-11-21T15:18:03.115Z,74969,-0.45861593,-0.8121277,-1.3212053
1732202283119,2024-11-21T15:18:03.119Z,74973,-0.45861593,-0.8121277,-1.3212053
1732202283134,2024-11-21T15:18:03.134Z,74988,-0.44960442,-0.8178377,-1.309991
1732202283138,2024-11-21T15:18:03.138Z,74992,-0.44960442,-0.8178377,-1.309991
1732202283151,2024-11-21T15:18:03.151Z,75005,-0.4883706,-0.7706822,-1.286595
1732202283155,2024-11-21T15:18:03.155Z,75009,-0.4883706,-0.7706822,-1.286595
1732202283280,2024-11-21T15:18:03.280Z,75134,-0.4544867,-0.7957897,-1.2871523
1732202283283,2024-11-21T15:18:03.283Z,75137,-0.4544867,-0.7957897,-1.2871523
1732202283370,2024-11-21T15:18:03.370Z,75224,-0.4685293,-0.80964166,-1.299359
1732202283375,2024-11-21T15:18:03.375Z,75229,-0.4685293,-0.80964166,-1.299359
1732202283415,2024-11-21T15:18:03.415Z,75269,-0.47439936,-0.8126742,-1.2094983
1732202283420,2024-11-21T15:18:03.420Z,75274,-0.47439936,-0.8126742,-1.2094983
1732202283434,2024-11-21T15:18:03.434Z,75288,-0.5147743,-0.8060525,-1.2456304
1732202283438,2024-11-21T15:18:03.438Z,75292,-0.5147743,-0.8060525,-1.2456304
1732202283451,2024-11-21T15:18:03.451Z,75305,-0.48729905,-0.8313176,-1.271509
1732202283456,2024-11-21T15:18:03.456Z,75310,-0.48729905,-0.8313176,-1.271509
1732202283468,2024-11-21T15:18:03.468Z,75322,-0.49540436,-0.86215276,-1.3613576
1732202283471,2024-11-21T15:18:03.471Z,75325,-0.49540436,-0.86215276,-1.3613576
1732202283483,2024-11-21T15:18:03.483Z,75337,-0.48880023,-0.8763664,-1.3120421
1732202283487,2024-11-21T15:18:03.487Z,75341,-0.48880023,-0.8763664,-1.3120421
1732202283505,2024-11-21T15:18:03.505Z,75359,-0.47033143,-0.86335236,-1.2846975
1732202283513,2024-11-21T15:18:03.513Z,75367,-0.47033143,-0.86335236,-1.2846975
1732202283525,2024-11-21T15:18:03.525Z,75379,-0.5157378,-0.7927697,-1.3075503
1732202283528,2024-11-21T15:18:03.528Z,75382,-0.5157378,-0.7927697,-1.3075503
1732202283550,2024-11-21T15:18:03.550Z,75404,-0.5060593,-0.82622963,-1.3620998
1732202283554,2024-11-21T15:18:03.554Z,75408,-0.5060593,-0.82622963,-1.3620998
1732202283565,2024-11-21T15:18:03.565Z,75419,-0.49228957,-0.8278123,-1.3030049
1732202283568,2024-11-21T15:18:03.568Z,75422,-0.49228957,-0.8278123,-1.3030049
1732202283581,2024-11-21T15:18:03.581Z,75435,-0.47213197,-0.81787884,-1.2287763
1732202283585,2024-11-21T15:18:03.585Z,75439,-0.47213197,-0.81787884,-1.2287763
1732202283598,2024-11-21T15:18:03.598Z,75452,-0.54350406,-0.80208325,-1.362029
1732202283603,2024-11-21T15:18:03.603Z,75457,-0.54350406,-0.80208325,-1.362029
1732202283616,2024-11-21T15:18:03.616Z,75470,-0.49025208,-0.8394678,-1.3786093
1732202283620,2024-11-21T15:18:03.620Z,75474,-0.49025208,-0.8394678,-1.3786093
1732202283633,2024-11-21T15:18:03.633Z,75487,-0.4903185,-0.84142107,-1.4210737
1732202283637,2024-11-21T15:18:03.637Z,75491,-0.4903185,-0.84142107,-1.4210737
1732202283656,2024-11-21T15:18:03.656Z,75510,-0.50966805,-0.90884835,-1.3849132
1732202283667,2024-11-21T15:18:03.667Z,75521,-0.50966805,-0.90884835,-1.3849132
1732202283683,2024-11-21T15:18:03.683Z,75537,-0.74264073,-0.9458013,-1.4737561
1732202283686,2024-11-21T15:18:03.686Z,75540,-0.74264073,-0.9458013,-1.4737561
1732202283698,2024-11-21T15:18:03.698Z,75552,-0.72407573,-1.0058668,-1.5073894
1732202283702,2024-11-21T15:18:03.702Z,75556,-0.72407573,-1.0058668,-1.5073894
1732202283713,2024-11-21T15:18:03.713Z,75567,-0.65699637,-1.1021464,-1.5517215
1732202283716,2024-11-21T15:18:03.716Z,75570,-0.65699637,-1.1021464,-1.5517215
1732202283778,2024-11-21T15:18:03.778Z,75632,-0.6937437,-1.0669948,-1.3179193
1732202283782,2024-11-21T15:18:03.782Z,75636,-0.6937437,-1.0669948,-1.3179193
1732202283793,2024-11-21T15:18:03.793Z,75647,-0.7870266,-0.9996143,-1.2831032
1732202283797,2024-11-21T15:18:03.797Z,75651,-0.7870266,-0.9996143,-1.2831032
1732202283810,2024-11-21T15:18:03.810Z,75664,-0.7590322,-1.0169306,-1.3146607
1732202283815,2024-11-21T15:18:03.815Z,75669,-0.7590322,-1.0169306,-1.3146607
1732202283827,2024-11-21T15:18:03.827Z,75681,-0.64615643,-1.115353,-1.4176867
1732202283830,2024-11-21T15:18:03.830Z,75684,-0.64615643,-1.115353,-1.4176867
1732202283839,2024-11-21T15:18:03.839Z,75693,-0.6350377,-1.1023853,-1.3944962
1732202283843,2024-11-21T15:18:03.843Z,75697,-0.6350377,-1.1023853,-1.3944962
1732202283854,2024-11-21T15:18:03.854Z,75708,-0.6699734,-1.0832481,-1.4025384
1732202283857,2024-11-21T15:18:03.857Z,75711,-0.6699734,-1.0832481,-1.4025384
1732202283871,2024-11-21T15:18:03.871Z,75725,-0.35284913,-0.83460593,-1.3046929
1732202283875,2024-11-21T15:18:03.875Z,75729,-0.35284913,-0.83460593,-1.3046929
1732202283887,2024-11-21T15:18:03.887Z,75741,-0.43037578,-0.9150663,-1.4059832
1732202283890,2024-11-21T15:18:03.890Z,75744,-0.43037578,-0.9150663,-1.4059832
1732202283908,2024-11-21T15:18:03.908Z,75762,-0.3547076,-1.0493094,-1.4543536
1732202283912,2024-11-21T15:18:03.912Z,75766,-0.3547076,-1.0493094,-1.4543536
1732202283923,2024-11-21T15:18:03.923Z,75777,-0.25240457,-0.87899274,-1.3140163
1732202283926,2024-11-21T15:18:03.926Z,75780,-0.25240457,-0.87899274,-1.3140163
1732202283937,2024-11-21T15:18:03.937Z,75791,-0.31751958,-0.8166157,-1.3371791
1732202283940,2024-11-21T15:18:03.940Z,75794,-0.31751958,-0.8166157,-1.3371791
1732202283999,2024-11-21T15:18:03.999Z,75853,-0.2747531,-0.8729309,-1.2685268
1732202284004,2024-11-21T15:18:04.004Z,75858,-0.2747531,-0.8729309,-1.2685268
1732202284016,2024-11-21T15:18:04.016Z,75870,-0.2534186,-0.73666155,-1.2507226
1732202284021,2024-11-21T15:18:04.021Z,75875,-0.2534186,-0.73666155,-1.2507226
1732202284033,2024-11-21T15:18:04.033Z,75887,-0.26540595,-0.6644636,-1.2809626
1732202284037,2024-11-21T15:18:04.037Z,75891,-0.26540595,-0.6644636,-1.2809626
1732202284050,2024-11-21T15:18:04.050Z,75904,-0.20284384,-0.69639415,-1.3052744
1732202284054,2024-11-21T15:18:04.054Z,75908,-0.20284384,-0.69639415,-1.3052744
1732202284065,2024-11-21T15:18:04.065Z,75919,-0.20142975,-0.816806,-1.3115511
1732202284069,2024-11-21T15:18:04.069Z,75923,-0.20142975,-0.816806,-1.3115511
1732202284080,2024-11-21T15:18:04.080Z,75934,-0.31625277,-0.6437357,-1.223274
1732202284083,2024-11-21T15:18:04.083Z,75937,-0.31625277,-0.6437357,-1.223274
1732202284095,2024-11-21T15:18:04.095Z,75949,-0.2973405,-0.53508055,-1.3552331
1732202284098,2024-11-21T15:18:04.098Z,75952,-0.2973405,-0.53508055,-1.3552331
1732202284111,2024-11-21T15:18:04.111Z,75965,0.059692506,-0.6925126,-1.3616182
1732202284115,2024-11-21T15:18:04.115Z,75969,0.059692506,-0.6925126,-1.3616182
1732202284125,2024-11-21T15:18:04.125Z,75979,-0.11575255,-0.64157414,-1.5047175
1732202284129,2024-11-21T15:18:04.129Z,75983,-0.11575255,-0.64157414,-1.5047175
1732202284143,2024-11-21T15:18:04.143Z,75997,-0.32299387,-0.6483998,-1.4343277
1732202284147,2024-11-21T15:18:04.147Z,76001,-0.32299387,-0.6483998,-1.4343277
1732202284159,2024-11-21T15:18:04.159Z,76013,-0.06528023,-0.64431655,-1.3742589
1732202284163,2024-11-21T15:18:04.163Z,76017,-0.06528023,-0.64431655,-1.3742589
1732202284179,2024-11-21T15:18:04.179Z,76033,0.16289641,-0.7127503,-1.3024533
1732202284183,2024-11-21T15:18:04.183Z,76037,0.16289641,-0.7127503,-1.3024533
1732202284193,2024-11-21T15:18:04.193Z,76047,0.14481609,-0.7412561,-1.3375643
1732202284197,2024-11-21T15:18:04.197Z,76051,0.14481609,-0.7412561,-1.3375643
1732202284206,2024-11-21T15:18:04.206Z,76060,-0.32067192,-0.6413518,-1.4019004
1732202284209,2024-11-21T15:18:04.209Z,76063,-0.32067192,-0.6413518,-1.4019004
1732202284220,2024-11-21T15:18:04.220Z,76074,0.011982766,-0.77543885,-1.3069229
1732202284223,2024-11-21T15:18:04.223Z,76077,0.011982766,-0.77543885,-1.3069229
1732202284234,2024-11-21T15:18:04.234Z,76088,0.079391226,-0.64241046,-1.4235036
1732202284237,2024-11-21T15:18:04.237Z,76091,0.079391226,-0.64241046,-1.4235036
1732202284248,2024-11-21T15:18:04.248Z,76102,-0.030624265,-0.49605662,-1.3617092
1732202284251,2024-11-21T15:18:04.251Z,76105,-0.030624265,-0.49605662,-1.3617092
1732202284264,2024-11-21T15:18:04.264Z,76118,-0.13726735,-0.56434,-1.3911614
1732202284270,2024-11-21T15:18:04.270Z,76124,-0.13726735,-0.56434,-1.3911614
1732202284282,2024-11-21T15:18:04.282Z,76136,-0.047502797,-0.6095284,-1.2891865
1732202284286,2024-11-21T15:18:04.286Z,76140,-0.047502797,-0.6095284,-1.2891865
1732202284296,2024-11-21T15:18:04.296Z,76150,-0.07081939,-0.7041922,-1.2430702
1732202284299,2024-11-21T15:18:04.299Z,76153,-0.07081939,-0.7041922,-1.2430702
1732202284312,2024-11-21T15:18:04.312Z,76166,0.04598088,-0.56043875,-1.3700804
1732202284315,2024-11-21T15:18:04.315Z,76169,0.04598088,-0.56043875,-1.3700804
1732202284325,2024-11-21T15:18:04.325Z,76179,-0.27692363,-0.400358,-1.2309207
1732202284328,2024-11-21T15:18:04.328Z,76182,-0.27692363,-0.400358,-1.2309207
1732202284339,2024-11-21T15:18:04.339Z,76193,-0.11055457,-0.54549634,-1.2510685
1732202284343,2024-11-21T15:18:04.343Z,76197,-0.11055457,-0.54549634,-1.2510685
1732202284357,2024-11-21T15:18:04.357Z,76211,-0.020039266,-0.5574843,-1.347404
1732202284362,2024-11-21T15:18:04.362Z,76216,-0.020039266,-0.5574843,-1.347404
1732202284376,2024-11-21T15:18:04.376Z,76230,-0.07481381,-0.50434357,-1.2953291
1732202284380,2024-11-21T15:18:04.380Z,76234,-0.07481381,-0.50434357,-1.2953291
1732202284391,2024-11-21T15:18:04.391Z,76245,-0.246977,-0.5380032,-1.4201206
1732202284395,2024-11-21T15:18:04.395Z,76249,-0.246977,-0.5380032,-1.4201206
1732202284406,2024-11-21T15:18:04.406Z,76260,-0.244396,-0.42541063,-1.2086077
1732202284409,2024-11-21T15:18:04.409Z,76263,-0.244396,-0.42541063,-1.2086077
1732202284422,2024-11-21T15:18:04.422Z,76276,-0.048406534,-0.45721743,-1.4056659
1732202284425,2024-11-21T15:18:04.425Z,76279,-0.048406534,-0.45721743,-1.4056659
1732202284438,2024-11-21T15:18:04.438Z,76292,-0.3435218,-0.56446666,-1.2534338
1732202284441,2024-11-21T15:18:04.441Z,76295,-0.3435218,-0.56446666,-1.2534338
1732202284452,2024-11-21T15:18:04.452Z,76306,-0.4267142,-0.5176079,-1.1305388
1732202284455,2024-11-21T15:18:04.455Z,76309,-0.4267142,-0.5176079,-1.1305388
1732202284466,2024-11-21T15:18:04.466Z,76320,-0.25113782,-0.5275489,-1.2979195
1732202284469,2024-11-21T15:18:04.469Z,76323,-0.25113782,-0.5275489,-1.2979195
1732202284495,2024-11-21T15:18:04.495Z,76349,-0.12336874,-0.65924835,-1.4042666
1732202284498,2024-11-21T15:18:04.498Z,76352,-0.12336874,-0.65924835,-1.4042666
1732202284508,2024-11-21T15:18:04.508Z,76362,-0.16244876,-0.73718333,-1.4292616
1732202284511,2024-11-21T15:18:04.511Z,76365,-0.16244876,-0.73718333,-1.4292616
1732202284522,2024-11-21T15:18:04.522Z,76376,-0.30384398,-0.7515002,-1.5019253
1732202284525,2024-11-21T15:18:04.525Z,76379,-0.30384398,-0.7515002,-1.5019253
1732202284541,2024-11-21T15:18:04.541Z,76395,-0.110920236,-0.8293132,-1.3505255
1732202284545,2024-11-21T15:18:04.545Z,76399,-0.110920236,-0.8293132,-1.3505255
1732202284557,2024-11-21T15:18:04.557Z,76411,-0.28778175,-0.8061933,-1.2965335
1732202284561,2024-11-21T15:18:04.561Z,76415,-0.28778175,-0.8061933,-1.2965335
1732202284572,2024-11-21T15:18:04.572Z,76426,-0.45127612,-0.7798705,-1.2523105
1732202284575,2024-11-21T15:18:04.575Z,76429,-0.45127612,-0.7798705,-1.2523105
1732202284588,2024-11-21T15:18:04.588Z,76442,-0.17856845,-0.8904098,-1.291363
1732202284592,2024-11-21T15:18:04.592Z,76446,-0.17856845,-0.8904098,-1.291363
1732202284602,2024-11-21T15:18:04.602Z,76456,-0.2256793,-0.9030206,-1.1886518
1732202284605,2024-11-21T15:18:04.605Z,76459,-0.2256793,-0.9030206,-1.1886518
1732202284630,2024-11-21T15:18:04.630Z,76484,-0.3359391,-0.71899456,-1.2502286
1732202284634,2024-11-21T15:18:04.634Z,76488,-0.3359391,-0.71899456,-1.2502286
1732202284644,2024-11-21T15:18:04.644Z,76498,-0.33457097,-0.7912727,-1.4833056
1732202284648,2024-11-21T15:18:04.648Z,76502,-0.33457097,-0.7912727,-1.4833056
1732202284721,2024-11-21T15:18:04.721Z,76575,-0.26550674,-0.93225026,-1.4128858
1732202284725,2024-11-21T15:18:04.725Z,76579,-0.26550674,-0.93225026,-1.4128858
1732202284738,2024-11-21T15:18:04.738Z,76592,-0.09254171,-0.9431151,-1.2769942
1732202284745,2024-11-21T15:18:04.745Z,76599,-0.09254171,-0.9431151,-1.2769942
1732202284770,2024-11-21T15:18:04.770Z,76624,-0.10911879,-0.48054263,-1.0375004
1732202284776,2024-11-21T15:18:04.776Z,76630,-0.10911879,-0.48054263,-1.0375004
1732202284790,2024-11-21T15:18:04.790Z,76644,-0.27788764,-0.42240506,-1.2003725
1732202284794,2024-11-21T15:18:04.794Z,76648,-0.27788764,-0.42240506,-1.2003725
1732202284811,2024-11-21T15:18:04.811Z,76665,0.014365742,-0.964988,-1.3219192
1732202284815,2024-11-21T15:18:04.815Z,76669,0.014365742,-0.964988,-1.3219192
1732202284825,2024-11-21T15:18:04.825Z,76679,-0.056133315,-0.67561024,-1.1962793
1732202284829,2024-11-21T15:18:04.829Z,76683,-0.056133315,-0.67561024,-1.1962793
1732202284840,2024-11-21T15:18:04.840Z,76694,-0.21773878,-0.6165042,-1.0722375
1732202284843,2024-11-21T15:18:04.843Z,76697,-0.21773878,-0.6165042,-1.0722375
1732202284853,2024-11-21T15:18:04.853Z,76707,-0.045393925,-1.1160316,-1.1510619
1732202284856,2024-11-21T15:18:04.856Z,76710,-0.045393925,-1.1160316,-1.1510619
1732202284865,2024-11-21T15:18:04.865Z,76719,0.06523028,-0.6085757,-0.9434141
1732202284868,2024-11-21T15:18:04.868Z,76722,0.06523028,-0.6085757,-0.9434141
1732202284877,2024-11-21T15:18:04.877Z,76731,-0.09122885,-0.3211279,-0.94149655
1732202284880,2024-11-21T15:18:04.880Z,76734,-0.09122885,-0.3211279,-0.94149655
1732202284889,2024-11-21T15:18:04.889Z,76743,-0.44389322,-0.63254225,-1.9493
1732202284891,2024-11-21T15:18:04.891Z,76745,-0.44389322,-0.63254225,-1.9493
1732202284901,2024-11-21T15:18:04.901Z,76755,-0.60816467,-1.2974964,-1.5857526
1732202284904,2024-11-21T15:18:04.904Z,76758,-0.60816467,-1.2974964,-1.5857526
1732202284914,2024-11-21T15:18:04.914Z,76768,0.028076563,-1.3525071,-1.1227341
1732202284917,2024-11-21T15:18:04.917Z,76771,0.028076563,-1.3525071,-1.1227341
1732202284927,2024-11-21T15:18:04.927Z,76781,0.027589539,-0.26030624,-1.0021976
1732202284931,2024-11-21T15:18:04.931Z,76785,0.027589539,-0.26030624,-1.0021976
1732202284941,2024-11-21T15:18:04.941Z,76795,-0.25567353,-0.39931172,-1.2435066
1732202284944,2024-11-21T15:18:04.944Z,76798,-0.25567353,-0.39931172,-1.2435066
1732202284956,2024-11-21T15:18:04.956Z,76810,-0.5013697,-0.7164509,-1.6124097
1732202284959,2024-11-21T15:18:04.959Z,76813,-0.5013697,-0.7164509,-1.6124097
1732202284989,2024-11-21T15:18:04.989Z,76843,-0.5483173,-1.0792186,-1.5768964
1732202284992,2024-11-21T15:18:04.992Z,76846,-0.5483173,-1.0792186,-1.5768964
1732202285003,2024-11-21T15:18:05.003Z,76857,0.14964636,-0.65112925,-1.1848768
1732202285006,2024-11-21T15:18:05.006Z,76860,0.14964636,-0.65112925,-1.1848768
1732202285016,2024-11-21T15:18:05.016Z,76870,0.033912253,-0.4637401,-1.154306
1732202285019,2024-11-21T15:18:05.019Z,76873,0.033912253,-0.4637401,-1.154306
1732202285032,2024-11-21T15:18:05.032Z,76886,-0.39916638,-0.87575895,-1.6241156
1732202285036,2024-11-21T15:18:05.036Z,76890,-0.39916638,-0.87575895,-1.6241156
1732202285049,2024-11-21T15:18:05.049Z,76903,-0.18231022,-0.98261493,-1.4718113
1732202285053,2024-11-21T15:18:05.053Z,76907,-0.18231022,-0.98261493,-1.4718113
1732202285064,2024-11-21T15:18:05.064Z,76918,-0.019437538,-0.82616764,-1.2715529
1732202285067,2024-11-21T15:18:05.067Z,76921,-0.019437538,-0.82616764,-1.2715529
1732202285076,2024-11-21T15:18:05.076Z,76930,-0.37307027,-0.63247806,-1.2821915
1732202285080,2024-11-21T15:18:05.080Z,76934,-0.37307027,-0.63247806,-1.2821915
1732202285090,2024-11-21T15:18:05.090Z,76944,-0.20722763,-0.69859326,-1.4875039
1732202285093,2024-11-21T15:18:05.093Z,76947,-0.20722763,-0.69859326,-1.4875039
1732202285103,2024-11-21T15:18:05.103Z,76957,-0.3262566,-0.5576469,-1.3575474
1732202285106,2024-11-21T15:18:05.106Z,76960,-0.3262566,-0.5576469,-1.3575474
1732202285129,2024-11-21T15:18:05.129Z,76983,-0.27321732,-0.5321418,-1.2090223
1732202285136,2024-11-21T15:18:05.136Z,76990,-0.27321732,-0.5321418,-1.2090223
1732202285156,2024-11-21T15:18:05.156Z,77010,-0.20673326,-0.6495683,-1.505026
1732202285159,2024-11-21T15:18:05.159Z,77013,-0.20673326,-0.6495683,-1.505026
1732202285170,2024-11-21T15:18:05.170Z,77024,-0.33697695,-0.7491583,-1.5675826
1732202285173,2024-11-21T15:18:05.173Z,77027,-0.33697695,-0.7491583,-1.5675826
1732202285183,2024-11-21T15:18:05.183Z,77037,-0.44389844,-0.76676893,-1.4819413
1732202285186,2024-11-21T15:18:05.186Z,77040,-0.44389844,-0.76676893,-1.4819413
1732202285217,2024-11-21T15:18:05.217Z,77071,-0.23699431,-0.5698842,-1.2216984
1732202285220,2024-11-21T15:18:05.220Z,77074,-0.23699431,-0.5698842,-1.2216984
1732202285230,2024-11-21T15:18:05.230Z,77084,-0.23905069,-0.52243626,-1.1814592
1732202285234,2024-11-21T15:18:05.234Z,77088,-0.23905069,-0.52243626,-1.1814592
1732202285307,2024-11-21T15:18:05.307Z,77161,-0.4505564,-0.9678282,-1.5196754
1732202285311,2024-11-21T15:18:05.311Z,77165,-0.4505564,-0.9678282,-1.5196754
1732202285326,2024-11-21T15:18:05.326Z,77180,-0.27011782,-0.8235137,-1.2586468
1732202285331,2024-11-21T15:18:05.331Z,77185,-0.27011782,-0.8235137,-1.2586468
1732202285346,2024-11-21T15:18:05.346Z,77200,-0.20259684,-0.5715493,-1.3203101
1732202285350,2024-11-21T15:18:05.350Z,77204,-0.20259684,-0.5715493,-1.3203101
1732202285363,2024-11-21T15:18:05.363Z,77217,-0.3457332,-0.5873893,-1.3397096
1732202285367,2024-11-21T15:18:05.367Z,77221,-0.3457332,-0.5873893,-1.3397096
1732202285386,2024-11-21T15:18:05.386Z,77240,-0.40942854,-0.7130588,-1.4528266
1732202285396,2024-11-21T15:18:05.396Z,77250,-0.40942854,-0.7130588,-1.4528266
1732202285424,2024-11-21T15:18:05.424Z,77278,-0.5959374,-0.79049796,-1.7429022
1732202285432,2024-11-21T15:18:05.432Z,77286,-0.5959374,-0.79049796,-1.7429022
1732202285448,2024-11-21T15:18:05.448Z,77302,-0.6510864,-1.041148,-1.6261166
1732202285452,2024-11-21T15:18:05.452Z,77306,-0.6510864,-1.041148,-1.6261166
1732202285468,2024-11-21T15:18:05.468Z,77322,-0.55985564,-0.6328227,-1.7768279
1732202285472,2024-11-21T15:18:05.472Z,77326,-0.55985564,-0.6328227,-1.7768279
1732202285487,2024-11-21T15:18:05.487Z,77341,-0.6518656,-0.8938299,-1.5417168
1732202285491,2024-11-21T15:18:05.491Z,77345,-0.6518656,-0.8938299,-1.5417168
1732202285502,2024-11-21T15:18:05.502Z,77356,-0.29631978,-0.5215844,-1.2780834
1732202285506,2024-11-21T15:18:05.506Z,77360,-0.29631978,-0.5215844,-1.2780834
1732202285516,2024-11-21T15:18:05.516Z,77370,-0.36385873,-0.6309539,-1.3559492
1732202285520,2024-11-21T15:18:05.520Z,77374,-0.36385873,-0.6309539,-1.3559492
1732202285531,2024-11-21T15:18:05.531Z,77385,-0.36728385,-0.768679,-1.319007
1732202285534,2024-11-21T15:18:05.534Z,77388,-0.36728385,-0.768679,-1.319007
1732202285549,2024-11-21T15:18:05.549Z,77403,-0.36980534,-0.6431858,-1.5766599
1732202285558,2024-11-21T15:18:05.558Z,77412,-0.36980534,-0.6431858,-1.5766599
1732202285585,2024-11-21T15:18:05.585Z,77439,-0.3860604,-0.77703387,-1.3665739
1732202285593,2024-11-21T15:18:05.593Z,77447,-0.3860604,-0.77703387,-1.3665739
1732202285611,2024-11-21T15:18:05.611Z,77465,-0.199742,-0.8380795,-1.1424985
1732202285615,2024-11-21T15:18:05.615Z,77469,-0.199742,-0.8380795,-1.1424985
1732202285630,2024-11-21T15:18:05.630Z,77484,-0.29348424,-0.56800145,-1.0799489
1732202285634,2024-11-21T15:18:05.634Z,77488,-0.29348424,-0.56800145,-1.0799489
1732202285653,2024-11-21T15:18:05.653Z,77507,-0.3819927,-0.53215843,-1.2060474
1732202285664,2024-11-21T15:18:05.664Z,77518,-0.3819927,-0.53215843,-1.2060474
1732202285693,2024-11-21T15:18:05.693Z,77547,-0.24132417,-0.8585297,-1.3660356
1732202285702,2024-11-21T15:18:05.702Z,77556,-0.24132417,-0.8585297,-1.3660356
1732202285721,2024-11-21T15:18:05.721Z,77575,-0.23235513,-0.8135442,-1.2191582
1732202285725,2024-11-21T15:18:05.725Z,77579,-0.23235513,-0.8135442,-1.2191582
1732202285738,2024-11-21T15:18:05.738Z,77592,-0.29312724,-0.7944368,-1.1230556
1732202285742,2024-11-21T15:18:05.742Z,77596,-0.29312724,-0.7944368,-1.1230556
1732202285755,2024-11-21T15:18:05.755Z,77609,-0.48727587,-0.72217447,-1.2952124
1732202285760,2024-11-21T15:18:05.760Z,77614,-0.48727587,-0.72217447,-1.2952124
1732202285773,2024-11-21T15:18:05.773Z,77627,-0.43771547,-0.8791549,-1.2992405
1732202285776,2024-11-21T15:18:05.776Z,77630,-0.43771547,-0.8791549,-1.2992405
1732202285790,2024-11-21T15:18:05.790Z,77644,-0.35100433,-0.9519525,-1.3559307
1732202285798,2024-11-21T15:18:05.798Z,77652,-0.35100433,-0.9519525,-1.3559307
1732202285822,2024-11-21T15:18:05.822Z,77676,-0.37586573,-0.86851776,-1.2169544
1732202285828,2024-11-21T15:18:05.828Z,77682,-0.37586573,-0.86851776,-1.2169544
1732202285840,2024-11-21T15:18:05.840Z,77694,-0.34977552,-0.91285944,-1.1561422
1732202285844,2024-11-21T15:18:05.844Z,77698,-0.34977552,-0.91285944,-1.1561422
1732202285856,2024-11-21T15:18:05.856Z,77710,-0.32662064,-0.8631646,-1.1979289
1732202285860,2024-11-21T15:18:05.860Z,77714,-0.32662064,-0.8631646,-1.1979289
1732202285870,2024-11-21T15:18:05.870Z,77724,-0.3919046,-0.9074897,-1.1691875
1732202285874,2024-11-21T15:18:05.874Z,77728,-0.3919046,-0.9074897,-1.1691875
1732202285884,2024-11-21T15:18:05.884Z,77738,-0.38033286,-0.9018482,-1.1899304
1732202285888,2024-11-21T15:18:05.888Z,77742,-0.38033286,-0.9018482,-1.1899304
1732202285904,2024-11-21T15:18:05.904Z,77758,-0.42354053,-0.8849604,-1.2453303
1732202285908,2024-11-21T15:18:05.908Z,77762,-0.42354053,-0.8849604,-1.2453303
1732202285920,2024-11-21T15:18:05.920Z,77774,-0.53279924,-0.969974,-1.3293705
1732202285924,2024-11-21T15:18:05.924Z,77778,-0.53279924,-0.969974,-1.3293705
1732202285933,2024-11-21T15:18:05.933Z,77787,-0.48474807,-0.98016477,-1.2435085
1732202285935,2024-11-21T15:18:05.935Z,77789,-0.48474807,-0.98016477,-1.2435085
1732202285945,2024-11-21T15:18:05.945Z,77799,-0.46917078,-0.93954647,-1.273372
1732202285949,2024-11-21T15:18:05.949Z,77803,-0.46917078,-0.93954647,-1.273372
1732202285959,2024-11-21T15:18:05.959Z,77813,-0.57245505,-0.9276348,-1.2314761
1732202285962,2024-11-21T15:18:05.962Z,77816,-0.57245505,-0.9276348,-1.2314761
1732202285980,2024-11-21T15:18:05.980Z,77834,-0.71882457,-0.87580526,-1.3772285
1732202285983,2024-11-21T15:18:05.983Z,77837,-0.71882457,-0.87580526,-1.3772285
1732202285993,2024-11-21T15:18:05.993Z,77847,-0.6653005,-0.9698219,-1.3762542
1732202285996,2024-11-21T15:18:05.996Z,77850,-0.6653005,-0.9698219,-1.3762542
1732202286024,2024-11-21T15:18:06.024Z,77878,-0.6206881,-0.9586843,-1.3899924
1732202286027,2024-11-21T15:18:06.027Z,77881,-0.6206881,-0.9586843,-1.3899924
1732202286038,2024-11-21T15:18:06.038Z,77892,-0.6932025,-0.977964,-1.3732611
1732202286042,2024-11-21T15:18:06.042Z,77896,-0.6932025,-0.977964,-1.3732611
1732202286052,2024-11-21T15:18:06.052Z,77906,-0.6507596,-0.8852407,-1.3108327
1732202286056,2024-11-21T15:18:06.056Z,77910,-0.6507596,-0.8852407,-1.3108327
1732202286119,2024-11-21T15:18:06.119Z,77973,-0.6308426,-0.8067649,-1.3259821
1732202286124,2024-11-21T15:18:06.124Z,77978,-0.6308426,-0.8067649,-1.3259821
1732202286139,2024-11-21T15:18:06.139Z,77993,-0.66939163,-0.90498847,-1.3700775
1732202286144,2024-11-21T15:18:06.144Z,77998,-0.66939163,-0.90498847,-1.3700775
1732202286159,2024-11-21T15:18:06.159Z,78013,-0.65050185,-0.8996989,-1.3854839
1732202286164,2024-11-21T15:18:06.164Z,78018,-0.65050185,-0.8996989,-1.3854839
1732202286178,2024-11-21T15:18:06.178Z,78032,-0.67156035,-0.96291214,-1.3687621
1732202286182,2024-11-21T15:18:06.182Z,78036,-0.67156035,-0.96291214,-1.3687621
1732202286194,2024-11-21T15:18:06.194Z,78048,-0.67266166,-0.97201174,-1.3905963
1732202286198,2024-11-21T15:18:06.198Z,78052,-0.67266166,-0.97201174,-1.3905963
1732202286210,2024-11-21T15:18:06.210Z,78064,-0.713471,-0.9962291,-1.4420482
1732202286213,2024-11-21T15:18:06.213Z,78067,-0.713471,-0.9962291,-1.4420482
1732202286223,2024-11-21T15:18:06.223Z,78077,-0.5857171,-1.0662694,-1.4045372
1732202286226,2024-11-21T15:18:06.226Z,78080,-0.5857171,-1.0662694,-1.4045372
1732202286236,2024-11-21T15:18:06.236Z,78090,-0.6216012,-1.0738739,-1.4520311
1732202286238,2024-11-21T15:18:06.238Z,78092,-0.6216012,-1.0738739,-1.4520311
1732202286248,2024-11-21T15:18:06.248Z,78102,-0.63395053,-1.0894343,-1.4444014
1732202286252,2024-11-21T15:18:06.252Z,78106,-0.63395053,-1.0894343,-1.4444014
1732202286262,2024-11-21T15:18:06.262Z,78116,-0.49119315,-1.0094348,-1.3207676
1732202286266,2024-11-21T15:18:06.266Z,78120,-0.49119315,-1.0094348,-1.3207676
1732202286276,2024-11-21T15:18:06.276Z,78130,-0.47485265,-0.9351945,-1.2891722
1732202286279,2024-11-21T15:18:06.279Z,78133,-0.47485265,-0.9351945,-1.2891722
1732202286341,2024-11-21T15:18:06.341Z,78195,-0.53427356,-0.9420849,-1.3394861
1732202286345,2024-11-21T15:18:06.345Z,78199,-0.53427356,-0.9420849,-1.3394861
1732202286360,2024-11-21T15:18:06.360Z,78214,-0.4730106,-1.0352904,-1.4813696
1732202286370,2024-11-21T15:18:06.370Z,78224,-0.4730106,-1.0352904,-1.4813696
1732202286394,2024-11-21T15:18:06.394Z,78248,-0.4558225,-1.0183009,-1.4070641
1732202286401,2024-11-21T15:18:06.401Z,78255,-0.4558225,-1.0183009,-1.4070641
1732202286417,2024-11-21T15:18:06.417Z,78271,-0.4073209,-0.9422112,-1.3498642
1732202286420,2024-11-21T15:18:06.420Z,78274,-0.4073209,-0.9422112,-1.3498642
1732202286432,2024-11-21T15:18:06.432Z,78286,-0.38702762,-0.84890175,-1.217857
1732202286436,2024-11-21T15:18:06.436Z,78290,-0.38702762,-0.84890175,-1.217857
1732202286447,2024-11-21T15:18:06.447Z,78301,-0.29536432,-0.8458506,-1.3626741
1732202286451,2024-11-21T15:18:06.451Z,78305,-0.29536432,-0.8458506,-1.3626741
1732202286475,2024-11-21T15:18:06.475Z,78329,-0.33804822,-0.92783433,-1.3927299
1732202286477,2024-11-21T15:18:06.477Z,78331,-0.33804822,-0.92783433,-1.3927299
1732202286489,2024-11-21T15:18:06.489Z,78343,-0.24178733,-0.8217008,-1.2807525
1732202286492,2024-11-21T15:18:06.492Z,78346,-0.24178733,-0.8217008,-1.2807525
1732202286518,2024-11-21T15:18:06.518Z,78372,-0.22747947,-0.8638924,-1.1825042
1732202286521,2024-11-21T15:18:06.521Z,78375,-0.22747947,-0.8638924,-1.1825042
1732202286531,2024-11-21T15:18:06.531Z,78385,-0.20394684,-0.814862,-1.2410426
1732202286535,2024-11-21T15:18:06.535Z,78389,-0.20394684,-0.814862,-1.2410426
1732202286546,2024-11-21T15:18:06.546Z,78400,-0.14498192,-0.96317804,-1.4742323
1732202286550,2024-11-21T15:18:06.550Z,78404,-0.14498192,-0.96317804,-1.4742323
1732202286564,2024-11-21T15:18:06.564Z,78418,-0.17963037,-0.9974967,-1.3021752
1732202286567,2024-11-21T15:18:06.567Z,78421,-0.17963037,-0.9974967,-1.3021752
1732202286614,2024-11-21T15:18:06.614Z,78468,-0.141533,-0.78738344,-1.124312
1732202286621,2024-11-21T15:18:06.621Z,78475,-0.141533,-0.78738344,-1.124312
1732202286645,2024-11-21T15:18:06.645Z,78499,-0.22811761,-0.95053434,-1.5846809
1732202286653,2024-11-21T15:18:06.653Z,78507,-0.22811761,-0.95053434,-1.5846809
1732202286672,2024-11-21T15:18:06.672Z,78526,-0.22817406,-1.0324975,-1.4385885
1732202286676,2024-11-21T15:18:06.676Z,78530,-0.22817406,-1.0324975,-1.4385885
1732202286691,2024-11-21T15:18:06.691Z,78545,-0.18240607,-0.6801539,-1.2936195
1732202286697,2024-11-21T15:18:06.697Z,78551,-0.18240607,-0.6801539,-1.2936195
1732202286711,2024-11-21T15:18:06.711Z,78565,-0.18731704,-0.768761,-1.5068544
1732202286715,2024-11-21T15:18:06.715Z,78569,-0.18731704,-0.768761,-1.5068544
1732202286728,2024-11-21T15:18:06.728Z,78582,-0.33768833,-0.82551783,-1.6498903
1732202286732,2024-11-21T15:18:06.732Z,78586,-0.33768833,-0.82551783,-1.6498903
1732202286743,2024-11-21T15:18:06.743Z,78597,0.032776885,-0.85370284,-1.5424429
1732202286748,2024-11-21T15:18:06.748Z,78602,0.032776885,-0.85370284,-1.5424429
1732202286766,2024-11-21T15:18:06.766Z,78620,-0.14123537,-0.52758574,-1.3612788
1732202286769,2024-11-21T15:18:06.769Z,78623,-0.14123537,-0.52758574,-1.3612788
1732202286779,2024-11-21T15:18:06.779Z,78633,-0.2702459,-0.7035999,-1.538513
1732202286783,2024-11-21T15:18:06.783Z,78637,-0.2702459,-0.7035999,-1.538513
1732202286794,2024-11-21T15:18:06.794Z,78648,-0.34316507,-0.8208447,-1.4832948
1732202286797,2024-11-21T15:18:06.797Z,78651,-0.34316507,-0.8208447,-1.4832948
1732202286807,2024-11-21T15:18:06.807Z,78661,0.086058825,-0.5680461,-1.0487726
1732202286811,2024-11-21T15:18:06.811Z,78665,0.086058825,-0.5680461,-1.0487726
1732202286822,2024-11-21T15:18:06.822Z,78676,0.061605882,-0.35064393,-1.2196805
1732202286826,2024-11-21T15:18:06.826Z,78680,0.061605882,-0.35064393,-1.2196805
1732202286836,2024-11-21T15:18:06.836Z,78690,-0.13996571,-0.56115973,-1.3305182
1732202286841,2024-11-21T15:18:06.841Z,78695,-0.13996571,-0.56115973,-1.3305182
1732202286854,2024-11-21T15:18:06.854Z,78708,0.021564657,-0.67090124,-1.2061672
1732202286858,2024-11-21T15:18:06.858Z,78712,0.021564657,-0.67090124,-1.2061672
1732202286869,2024-11-21T15:18:06.869Z,78723,-0.30719677,-0.6982442,-1.3682911
1732202286873,2024-11-21T15:18:06.873Z,78727,-0.30719677,-0.6982442,-1.3682911
1732202286885,2024-11-21T15:18:06.885Z,78739,-0.12014085,-0.70700574,-1.2234234
1732202286889,2024-11-21T15:18:06.889Z,78743,-0.12014085,-0.70700574,-1.2234234
1732202286898,2024-11-21T15:18:06.898Z,78752,-0.24623607,-0.7364938,-1.2797954
1732202286902,2024-11-21T15:18:06.902Z,78756,-0.24623607,-0.7364938,-1.2797954
1732202286911,2024-11-21T15:18:06.911Z,78765,-0.28307268,-0.5849799,-1.1571642
1732202286915,2024-11-21T15:18:06.915Z,78769,-0.28307268,-0.5849799,-1.1571642
1732202286926,2024-11-21T15:18:06.926Z,78780,-0.24897762,-0.7024013,-1.1601396
1732202286929,2024-11-21T15:18:06.929Z,78783,-0.24897762,-0.7024013,-1.1601396
1732202286939,2024-11-21T15:18:06.939Z,78793,-0.49527827,-0.6452616,-1.2402301
1732202286942,2024-11-21T15:18:06.942Z,78796,-0.49527827,-0.6452616,-1.2402301
1732202286953,2024-11-21T15:18:06.953Z,78807,-0.4239892,-0.78401726,-1.1708344
1732202286956,2024-11-21T15:18:06.956Z,78810,-0.4239892,-0.78401726,-1.1708344
1732202286967,2024-11-21T15:18:06.967Z,78821,-0.26861364,-0.76114154,-1.2864308
1732202286970,2024-11-21T15:18:06.970Z,78824,-0.26861364,-0.76114154,-1.2864308
1732202286979,2024-11-21T15:18:06.979Z,78833,-0.20656212,-0.806137,-1.2418681
1732202286982,2024-11-21T15:18:06.982Z,78836,-0.20656212,-0.806137,-1.2418681
1732202286993,2024-11-21T15:18:06.993Z,78847,-0.24119118,-0.7742209,-1.260949
1732202286996,2024-11-21T15:18:06.996Z,78850,-0.24119118,-0.7742209,-1.260949
1732202287014,2024-11-21T15:18:07.014Z,78868,-0.36905506,-0.75500774,-1.3336707
1732202287017,2024-11-21T15:18:07.017Z,78871,-0.36905506,-0.75500774,-1.3336707
1732202287029,2024-11-21T15:18:07.029Z,78883,-0.29661313,-0.6711376,-1.2882985
1732202287035,2024-11-21T15:18:07.035Z,78889,-0.29661313,-0.6711376,-1.2882985
1732202287055,2024-11-21T15:18:07.055Z,78909,-0.24744795,-0.84136623,-1.1834389
1732202287062,2024-11-21T15:18:07.062Z,78916,-0.24744795,-0.84136623,-1.1834389
1732202287076,2024-11-21T15:18:07.076Z,78930,-0.38115707,-0.9086266,-1.154988
1732202287083,2024-11-21T15:18:07.083Z,78937,-0.38115707,-0.9086266,-1.154988
1732202287105,2024-11-21T15:18:07.105Z,78959,-0.36910087,-0.9228179,-1.0896721
1732202287111,2024-11-21T15:18:07.111Z,78965,-0.36910087,-0.9228179,-1.0896721
1732202287124,2024-11-21T15:18:07.124Z,78978,-0.42419204,-0.8651352,-1.0632422
1732202287128,2024-11-21T15:18:07.128Z,78982,-0.42419204,-0.8651352,-1.0632422
1732202287140,2024-11-21T15:18:07.140Z,78994,-0.4892833,-0.9031048,-1.2835783
1732202287144,2024-11-21T15:18:07.144Z,78998,-0.4892833,-0.9031048,-1.2835783
1732202287155,2024-11-21T15:18:07.155Z,79009,-0.51174235,-1.0277128,-1.270998
1732202287158,2024-11-21T15:18:07.158Z,79012,-0.51174235,-1.0277128,-1.270998
1732202287169,2024-11-21T15:18:07.169Z,79023,-0.3699615,-1.2505671,-1.1984977
1732202287174,2024-11-21T15:18:07.174Z,79028,-0.3699615,-1.2505671,-1.1984977
1732202287196,2024-11-21T15:18:07.196Z,79050,-0.36782146,-0.94466186,-1.0575722
1732202287203,2024-11-21T15:18:07.203Z,79057,-0.36782146,-0.94466186,-1.0575722
1732202287225,2024-11-21T15:18:07.225Z,79079,-0.35145184,-0.93961287,-1.0669641
1732202287231,2024-11-21T15:18:07.231Z,79085,-0.35145184,-0.93961287,-1.0669641
1732202287254,2024-11-21T15:18:07.254Z,79108,-0.34801862,-0.8676911,-1.2851313
1732202287261,2024-11-21T15:18:07.261Z,79115,-0.34801862,-0.8676911,-1.2851313
1732202287281,2024-11-21T15:18:07.281Z,79135,-0.37624452,-1.2020874,-1.0487537
1732202287286,2024-11-21T15:18:07.286Z,79140,-0.37624452,-1.2020874,-1.0487537
1732202287301,2024-11-21T15:18:07.301Z,79155,-0.14979637,-1.0761185,-1.0975665
1732202287305,2024-11-21T15:18:07.305Z,79159,-0.14979637,-1.0761185,-1.0975665
1732202287316,2024-11-21T15:18:07.316Z,79170,-0.22875954,-0.74098045,-0.97624075
1732202287320,2024-11-21T15:18:07.320Z,79174,-0.22875954,-0.74098045,-0.97624075
1732202287332,2024-11-21T15:18:07.332Z,79186,-0.1583216,-0.72669846,-1.0766094
1732202287336,2024-11-21T15:18:07.336Z,79190,-0.1583216,-0.72669846,-1.0766094
1732202287345,2024-11-21T15:18:07.345Z,79199,-0.37287492,-0.68277526,-1.2965857
1732202287348,2024-11-21T15:18:07.348Z,79202,-0.37287492,-0.68277526,-1.2965857
1732202287358,2024-11-21T15:18:07.358Z,79212,0.013075156,-0.7690807,-0.9364534
1732202287360,2024-11-21T15:18:07.360Z,79214,0.013075156,-0.7690807,-0.9364534
1732202287373,2024-11-21T15:18:07.373Z,79227,-0.22875118,-0.4881561,-0.9416074
1732202287376,2024-11-21T15:18:07.376Z,79230,-0.22875118,-0.4881561,-0.9416074
1732202287386,2024-11-21T15:18:07.386Z,79240,-0.359765,-0.54056185,-1.1844659
1732202287389,2024-11-21T15:18:07.389Z,79243,-0.359765,-0.54056185,-1.1844659
1732202287399,2024-11-21T15:18:07.399Z,79253,-0.041767783,-1.2150791,-1.2034955
1732202287404,2024-11-21T15:18:07.404Z,79258,-0.041767783,-1.2150791,-1.2034955
1732202287416,2024-11-21T15:18:07.416Z,79270,-0.13301083,-0.808039,-1.0722219
1732202287420,2024-11-21T15:18:07.420Z,79274,-0.13301083,-0.808039,-1.0722219
1732202287436,2024-11-21T15:18:07.436Z,79290,-0.31941935,-0.5086926,-0.9799219
1732202287439,2024-11-21T15:18:07.439Z,79293,-0.31941935,-0.5086926,-0.9799219
1732202287448,2024-11-21T15:18:07.448Z,79302,-0.3165824,-0.66627187,-1.2764965
1732202287451,2024-11-21T15:18:07.451Z,79305,-0.3165824,-0.66627187,-1.2764965
1732202287460,2024-11-21T15:18:07.460Z,79314,-0.3605848,-0.82077575,-1.5456696
1732202287463,2024-11-21T15:18:07.463Z,79317,-0.3605848,-0.82077575,-1.5456696
1732202287473,2024-11-21T15:18:07.473Z,79327,-0.29053164,-1.1672496,-1.3750852
1732202287476,2024-11-21T15:18:07.476Z,79330,-0.29053164,-1.1672496,-1.3750852
1732202287484,2024-11-21T15:18:07.484Z,79338,-0.13669048,-0.5703416,-1.1292386
1732202287488,2024-11-21T15:18:07.488Z,79342,-0.13669048,-0.5703416,-1.1292386
1732202287497,2024-11-21T15:18:07.497Z,79351,-0.29506028,-0.43365154,-1.1424183
1732202287501,2024-11-21T15:18:07.501Z,79355,-0.29506028,-0.43365154,-1.1424183
1732202287511,2024-11-21T15:18:07.511Z,79365,-0.2323479,-0.67594534,-1.287817
1732202287514,2024-11-21T15:18:07.514Z,79368,-0.2323479,-0.67594534,-1.287817
1732202287526,2024-11-21T15:18:07.526Z,79380,-0.20132703,-0.890417,-1.3722597
1732202287529,2024-11-21T15:18:07.529Z,79383,-0.20132703,-0.890417,-1.3722597
1732202287539,2024-11-21T15:18:07.539Z,79393,-0.2523858,-0.76347256,-1.3959428
1732202287541,2024-11-21T15:18:07.541Z,79395,-0.2523858,-0.76347256,-1.3959428
1732202287551,2024-11-21T15:18:07.551Z,79405,-0.3155983,-0.75449735,-1.2806247
1732202287554,2024-11-21T15:18:07.554Z,79408,-0.3155983,-0.75449735,-1.2806247
1732202287568,2024-11-21T15:18:07.568Z,79422,-0.080933526,-0.54695517,-1.1791825
1732202287574,2024-11-21T15:18:07.574Z,79428,-0.080933526,-0.54695517,-1.1791825
1732202287594,2024-11-21T15:18:07.594Z,79448,-0.2350205,-0.4102348,-1.2160466
1732202287601,2024-11-21T15:18:07.601Z,79455,-0.2350205,-0.4102348,-1.2160466
1732202287621,2024-11-21T15:18:07.621Z,79475,-0.31412876,-0.6290795,-1.3799443
1732202287626,2024-11-21T15:18:07.626Z,79480,-0.31412876,-0.6290795,-1.3799443
1732202287640,2024-11-21T15:18:07.640Z,79494,-0.32691458,-0.8844391,-1.3340578
1732202287644,2024-11-21T15:18:07.644Z,79498,-0.32691458,-0.8844391,-1.3340578
1732202287657,2024-11-21T15:18:07.657Z,79511,-0.10931504,-0.7987432,-1.3011551
1732202287661,2024-11-21T15:18:07.661Z,79515,-0.10931504,-0.7987432,-1.3011551
1732202287673,2024-11-21T15:18:07.673Z,79527,-0.15037706,-0.6597607,-1.240186
1732202287676,2024-11-21T15:18:07.676Z,79530,-0.15037706,-0.6597607,-1.240186
1732202287687,2024-11-21T15:18:07.687Z,79541,-0.32858533,-0.75460285,-1.4114627
1732202287690,2024-11-21T15:18:07.690Z,79544,-0.32858533,-0.75460285,-1.4114627
1732202287700,2024-11-21T15:18:07.700Z,79554,-0.31253532,-0.8145452,-1.4646393
1732202287703,2024-11-21T15:18:07.703Z,79557,-0.31253532,-0.8145452,-1.4646393
1732202287712,2024-11-21T15:18:07.712Z,79566,-0.24094945,-0.8703898,-1.4025602
1732202287714,2024-11-21T15:18:07.714Z,79568,-0.24094945,-0.8703898,-1.4025602
1732202287724,2024-11-21T15:18:07.724Z,79578,-0.20959602,-0.75583905,-1.1804286
1732202287727,2024-11-21T15:18:07.727Z,79581,-0.20959602,-0.75583905,-1.1804286
1732202287735,2024-11-21T15:18:07.735Z,79589,-0.19650829,-0.6952889,-1.254727
1732202287737,2024-11-21T15:18:07.737Z,79591,-0.19650829,-0.6952889,-1.254727
1732202287746,2024-11-21T15:18:07.746Z,79600,-0.22176075,-0.7612774,-1.2710445
1732202287749,2024-11-21T15:18:07.749Z,79603,-0.22176075,-0.7612774,-1.2710445
1732202287758,2024-11-21T15:18:07.758Z,79612,-0.25611463,-0.8442704,-1.3676395
1732202287761,2024-11-21T15:18:07.761Z,79615,-0.25611463,-0.8442704,-1.3676395
1732202287768,2024-11-21T15:18:07.768Z,79622,-0.25968626,-0.8757951,-1.3682423
1732202287771,2024-11-21T15:18:07.771Z,79625,-0.25968626,-0.8757951,-1.3682423
1732202287782,2024-11-21T15:18:07.782Z,79636,-0.26812443,-0.8829889,-1.449952
1732202287787,2024-11-21T15:18:07.787Z,79641,-0.26812443,-0.8829889,-1.449952
1732202287807,2024-11-21T15:18:07.807Z,79661,-0.11208137,-0.8866451,-1.1541666
1732202287813,2024-11-21T15:18:07.813Z,79667,-0.11208137,-0.8866451,-1.1541666
1732202287833,2024-11-21T15:18:07.833Z,79687,-0.114262745,-0.76814216,-1.1193177
1732202287840,2024-11-21T15:18:07.840Z,79694,-0.114262745,-0.76814216,-1.1193177
1732202287862,2024-11-21T15:18:07.862Z,79716,-0.19511488,-0.74013686,-1.3514807
1732202287870,2024-11-21T15:18:07.870Z,79724,-0.19511488,-0.74013686,-1.3514807
1732202287887,2024-11-21T15:18:07.887Z,79741,-0.272643,-1.0947074,-1.3877918
1732202287891,2024-11-21T15:18:07.891Z,79745,-0.272643,-1.0947074,-1.3877918
1732202287904,2024-11-21T15:18:07.904Z,79758,-0.2647026,-0.999781,-1.4396902
1732202287907,2024-11-21T15:18:07.907Z,79761,-0.2647026,-0.999781,-1.4396902
1732202287921,2024-11-21T15:18:07.921Z,79775,-0.33312607,-0.87003756,-1.3495283
1732202287925,2024-11-21T15:18:07.925Z,79779,-0.33312607,-0.87003756,-1.3495283
1732202287936,2024-11-21T15:18:07.936Z,79790,-0.21028136,-0.95640874,-1.2813584
1732202287938,2024-11-21T15:18:07.938Z,79792,-0.21028136,-0.95640874,-1.2813584
1732202287948,2024-11-21T15:18:07.948Z,79802,-0.32893866,-0.9367922,-1.4112334
1732202287951,2024-11-21T15:18:07.951Z,79805,-0.32893866,-0.9367922,-1.4112334
1732202287961,2024-11-21T15:18:07.961Z,79815,-0.40723833,-0.9716596,-1.3276886
1732202287963,2024-11-21T15:18:07.963Z,79817,-0.40723833,-0.9716596,-1.3276886
1732202287975,2024-11-21T15:18:07.975Z,79829,-0.33004323,-1.0127059,-1.2899499
1732202287981,2024-11-21T15:18:07.981Z,79835,-0.33004323,-1.0127059,-1.2899499
1732202288000,2024-11-21T15:18:08Z,79854,-0.35753238,-1.0014107,-1.2855581
1732202288006,2024-11-21T15:18:08.006Z,79860,-0.35753238,-1.0014107,-1.2855581
1732202288028,2024-11-21T15:18:08.028Z,79882,-0.32279694,-0.96644616,-1.3172822
1732202288035,2024-11-21T15:18:08.035Z,79889,-0.32279694,-0.96644616,-1.3172822
1732202288057,2024-11-21T15:18:08.057Z,79911,-0.27419773,-1.1184167,-1.3105365
1732202288060,2024-11-21T15:18:08.060Z,79914,-0.27419773,-1.1184167,-1.3105365
1732202288080,2024-11-21T15:18:08.080Z,79934,-0.5121359,-1.0500997,-1.3397303
1732202288088,2024-11-21T15:18:08.088Z,79942,-0.5121359,-1.0500997,-1.3397303
1732202288103,2024-11-21T15:18:08.103Z,79957,-0.45439768,-1.1336497,-1.2226738
1732202288106,2024-11-21T15:18:08.106Z,79960,-0.45439768,-1.1336497,-1.2226738
1732202288117,2024-11-21T15:18:08.117Z,79971,-0.37151805,-1.0618271,-1.151073
1732202288121,2024-11-21T15:18:08.121Z,79975,-0.37151805,-1.0618271,-1.151073
1732202288130,2024-11-21T15:18:08.130Z,79984,-0.32569358,-0.9144574,-1.103983
1732202288133,2024-11-21T15:18:08.133Z,79987,-0.32569358,-0.9144574,-1.103983
1732202288144,2024-11-21T15:18:08.144Z,79998,-0.4136643,-0.91453743,-1.1567621
1732202288147,2024-11-21T15:18:08.147Z,80001,-0.4136643,-0.91453743,-1.1567621
1732202288156,2024-11-21T15:18:08.156Z,80010,-0.5652456,-0.9520886,-1.3115405
1732202288159,2024-11-21T15:18:08.159Z,80013,-0.5652456,-0.9520886,-1.3115405
1732202288167,2024-11-21T15:18:08.167Z,80021,-0.5426773,-1.0743808,-1.2597632
1732202288170,2024-11-21T15:18:08.170Z,80024,-0.5426773,-1.0743808,-1.2597632
1732202288178,2024-11-21T15:18:08.178Z,80032,-0.45769194,-1.0381017,-1.1692656
1732202288180,2024-11-21T15:18:08.180Z,80034,-0.45769194,-1.0381017,-1.1692656
1732202288189,2024-11-21T15:18:08.189Z,80043,-0.4516566,-0.94842184,-1.1516348
1732202288191,2024-11-21T15:18:08.191Z,80045,-0.4516566,-0.94842184,-1.1516348
1732202288200,2024-11-21T15:18:08.200Z,80054,-0.52168137,-0.89944977,-1.268753
1732202288204,2024-11-21T15:18:08.204Z,80058,-0.52168137,-0.89944977,-1.268753
1732202288212,2024-11-21T15:18:08.212Z,80066,-0.44372213,-1.0139232,-1.176391
1732202288214,2024-11-21T15:18:08.214Z,80068,-0.44372213,-1.0139232,-1.176391
1732202288222,2024-11-21T15:18:08.222Z,80076,-0.43739718,-0.9293689,-1.1319624
1732202288225,2024-11-21T15:18:08.225Z,80079,-0.43739718,-0.9293689,-1.1319624
1732202288233,2024-11-21T15:18:08.233Z,80087,-0.47727227,-0.8983773,-1.240369
1732202288236,2024-11-21T15:18:08.236Z,80090,-0.47727227,-0.8983773,-1.240369
1732202288279,2024-11-21T15:18:08.279Z,80133,-0.5252903,-1.0604836,-1.2418207
1732202288287,2024-11-21T15:18:08.287Z,80141,-0.5252903,-1.0604836,-1.2418207
1732202288305,2024-11-21T15:18:08.305Z,80159,-0.5257034,-0.9661455,-1.2872043
1732202288308,2024-11-21T15:18:08.308Z,80162,-0.5257034,-0.9661455,-1.2872043
1732202288317,2024-11-21T15:18:08.317Z,80171,-0.5516533,-0.9787754,-1.2827784
1732202288321,2024-11-21T15:18:08.321Z,80175,-0.5516533,-0.9787754,-1.2827784
1732202288331,2024-11-21T15:18:08.331Z,80185,-0.52756536,-0.9203917,-1.2284054
1732202288334,2024-11-21T15:18:08.334Z,80188,-0.52756536,-0.9203917,-1.2284054
1732202288344,2024-11-21T15:18:08.344Z,80198,-0.5229977,-0.96414924,-1.2606025
1732202288347,2024-11-21T15:18:08.347Z,80201,-0.5229977,-0.96414924,-1.2606025
1732202288357,2024-11-21T15:18:08.357Z,80211,-0.49996233,-1.0313171,-1.3035644
1732202288360,2024-11-21T15:18:08.360Z,80214,-0.49996233,-1.0313171,-1.3035644
1732202288370,2024-11-21T15:18:08.370Z,80224,-0.51959425,-1.0197533,-1.3147628
1732202288373,2024-11-21T15:18:08.373Z,80227,-0.51959425,-1.0197533,-1.3147628
1732202288381,2024-11-21T15:18:08.381Z,80235,-0.44435778,-0.9629989,-1.2310642
1732202288383,2024-11-21T15:18:08.383Z,80237,-0.44435778,-0.9629989,-1.2310642
1732202288392,2024-11-21T15:18:08.392Z,80246,-0.43667954,-0.9809239,-1.2534723
1732202288394,2024-11-21T15:18:08.394Z,80248,-0.43667954,-0.9809239,-1.2534723
1732202288408,2024-11-21T15:18:08.408Z,80262,-0.43228087,-1.0143847,-1.2446326
1732202288411,2024-11-21T15:18:08.411Z,80265,-0.43228087,-1.0143847,-1.2446326
1732202288421,2024-11-21T15:18:08.421Z,80275,-0.44413382,-0.97123754,-1.2639585
1732202288426,2024-11-21T15:18:08.426Z,80280,-0.44413382,-0.97123754,-1.2639585
1732202288433,2024-11-21T15:18:08.433Z,80287,-0.42944527,-0.9464531,-1.239754
1732202288437,2024-11-21T15:18:08.437Z,80291,-0.42944527,-0.9464531,-1.239754
1732202288452,2024-11-21T15:18:08.452Z,80306,-0.37590873,-0.938177,-1.173332
1732202288455,2024-11-21T15:18:08.455Z,80309,-0.37590873,-0.938177,-1.173332
1732202288547,2024-11-21T15:18:08.547Z,80401,-0.38836512,-0.93526775,-1.152271
1732202288555,2024-11-21T15:18:08.555Z,80409,-0.38836512,-0.93526775,-1.152271
1732202288594,2024-11-21T15:18:08.594Z,80448,-0.36780977,-0.9467736,-1.1819971
1732202288602,2024-11-21T15:18:08.602Z,80456,-0.36780977,-0.9467736,-1.1819971
1732202288629,2024-11-21T15:18:08.629Z,80483,-0.43460256,-1.1550363,-1.3028316
1732202288635,2024-11-21T15:18:08.635Z,80489,-0.43460256,-1.1550363,-1.3028316
1732202288649,2024-11-21T15:18:08.649Z,80503,-0.44224346,-1.1110796,-1.232925
1732202288653,2024-11-21T15:18:08.653Z,80507,-0.44224346,-1.1110796,-1.232925
1732202288666,2024-11-21T15:18:08.666Z,80520,-0.4207896,-1.1117454,-1.2293978
1732202288671,2024-11-21T15:18:08.671Z,80525,-0.4207896,-1.1117454,-1.2293978
1732202288685,2024-11-21T15:18:08.685Z,80539,-0.50133795,-1.1956321,-1.2946366
1732202288689,2024-11-21T15:18:08.689Z,80543,-0.50133795,-1.1956321,-1.2946366
1732202288701,2024-11-21T15:18:08.701Z,80555,-0.54770356,-1.2246871,-1.3565142
1732202288705,2024-11-21T15:18:08.705Z,80559,-0.54770356,-1.2246871,-1.3565142
1732202288716,2024-11-21T15:18:08.716Z,80570,-0.3204594,-1.0972689,-1.3504934
1732202288719,2024-11-21T15:18:08.719Z,80573,-0.3204594,-1.0972689,-1.3504934
1732202288729,2024-11-21T15:18:08.729Z,80583,-0.31018847,-1.101757,-1.342294
1732202288732,2024-11-21T15:18:08.732Z,80586,-0.31018847,-1.101757,-1.342294
1732202288741,2024-11-21T15:18:08.741Z,80595,-0.21182312,-0.93003106,-1.1217436
1732202288743,2024-11-21T15:18:08.743Z,80597,-0.21182312,-0.93003106,-1.1217436
1732202288771,2024-11-21T15:18:08.771Z,80625,-0.1884273,-0.891831,-1.1459017
1732202288774,2024-11-21T15:18:08.774Z,80628,-0.1884273,-0.891831,-1.1459017
1732202288782,2024-11-21T15:18:08.782Z,80636,-0.26509455,-0.9066983,-1.4013876
1732202288786,2024-11-21T15:18:08.786Z,80640,-0.26509455,-0.9066983,-1.4013876
1732202288812,2024-11-21T15:18:08.812Z,80666,-0.19744699,-1.1890392,-1.4271878
1732202288815,2024-11-21T15:18:08.815Z,80669,-0.19744699,-1.1890392,-1.4271878
1732202288863,2024-11-21T15:18:08.863Z,80717,-0.20658599,-1.0764797,-1.3309222
1732202288869,2024-11-21T15:18:08.869Z,80723,-0.20658599,-1.0764797,-1.3309222
1732202288893,2024-11-21T15:18:08.893Z,80747,-0.18565375,-0.886987,-1.2887434
1732202288903,2024-11-21T15:18:08.903Z,80757,-0.18565375,-0.886987,-1.2887434
1732202288932,2024-11-21T15:18:08.932Z,80786,-0.111428365,-0.91611993,-1.256592
1732202288941,2024-11-21T15:18:08.941Z,80795,-0.111428365,-0.91611993,-1.256592
1732202288972,2024-11-21T15:18:08.972Z,80826,-0.04187134,-0.92157274,-1.3531952
1732202288978,2024-11-21T15:18:08.978Z,80832,-0.04187134,-0.92157274,-1.3531952
1732202289000,2024-11-21T15:18:09Z,80854,-0.10295272,-0.8160049,-1.3155618
1732202289004,2024-11-21T15:18:09.004Z,80858,-0.10295272,-0.8160049,-1.3155618
1732202289016,2024-11-21T15:18:09.016Z,80870,-0.13204183,-0.6729272,-1.3086281
1732202289020,2024-11-21T15:18:09.020Z,80874,-0.13204183,-0.6729272,-1.3086281
1732202289032,2024-11-21T15:18:09.032Z,80886,-0.053767264,-0.7644226,-1.3270857
1732202289036,2024-11-21T15:18:09.036Z,80890,-0.053767264,-0.7644226,-1.3270857
1732202289048,2024-11-21T15:18:09.048Z,80902,-0.06766808,-0.6729719,-1.3475492
1732202289052,2024-11-21T15:18:09.052Z,80906,-0.06766808,-0.6729719,-1.3475492
1732202289062,2024-11-21T15:18:09.062Z,80916,-0.08755032,-0.7200393,-1.3326889
1732202289065,2024-11-21T15:18:09.065Z,80919,-0.08755032,-0.7200393,-1.3326889
1732202289074,2024-11-21T15:18:09.074Z,80928,-0.015234049,-0.83762217,-1.3586111
1732202289076,2024-11-21T15:18:09.076Z,80930,-0.015234049,-0.83762217,-1.3586111
1732202289085,2024-11-21T15:18:09.085Z,80939,0.004180242,-0.56768584,-1.2529017
1732202289088,2024-11-21T15:18:09.088Z,80942,0.004180242,-0.56768584,-1.2529017
1732202289096,2024-11-21T15:18:09.096Z,80950,0.024372805,-0.6384577,-1.3231685
1732202289098,2024-11-21T15:18:09.098Z,80952,0.024372805,-0.6384577,-1.3231685
1732202289106,2024-11-21T15:18:09.106Z,80960,0.020921752,-0.7826532,-1.2651882
1732202289109,2024-11-21T15:18:09.109Z,80963,0.020921752,-0.7826532,-1.2651882
1732202289119,2024-11-21T15:18:09.119Z,80973,0.06714424,-0.74090904,-1.3220016
1732202289122,2024-11-21T15:18:09.122Z,80976,0.06714424,-0.74090904,-1.3220016
1732202289132,2024-11-21T15:18:09.132Z,80986,0.041144304,-0.68290704,-1.2141593
1732202289134,2024-11-21T15:18:09.134Z,80988,0.041144304,-0.68290704,-1.2141593
1732202289143,2024-11-21T15:18:09.143Z,80997,-0.0022091276,-0.6362428,-1.3217913
1732202289146,2024-11-21T15:18:09.146Z,81000,-0.0022091276,-0.6362428,-1.3217913
1732202289156,2024-11-21T15:18:09.156Z,81010,0.17499022,-0.7095314,-1.304219
1732202289160,2024-11-21T15:18:09.160Z,81014,0.17499022,-0.7095314,-1.304219
1732202289167,2024-11-21T15:18:09.167Z,81021,0.005884678,-0.6044256,-1.1872865
1732202289169,2024-11-21T15:18:09.169Z,81023,0.005884678,-0.6044256,-1.1872865
1732202289178,2024-11-21T15:18:09.178Z,81032,0.030568335,-0.5944494,-1.4695785
1732202289180,2024-11-21T15:18:09.180Z,81034,0.030568335,-0.5944494,-1.4695785
1732202289190,2024-11-21T15:18:09.190Z,81044,0.22151557,-0.57934195,-1.3954962
1732202289193,2024-11-21T15:18:09.193Z,81047,0.22151557,-0.57934195,-1.3954962
1732202289201,2024-11-21T15:18:09.201Z,81055,-0.04551971,-0.666003,-1.287805
1732202289205,2024-11-21T15:18:09.205Z,81059,-0.04551971,-0.666003,-1.287805
1732202289212,2024-11-21T15:18:09.212Z,81066,0.100211546,-0.78674614,-1.0288122
1732202289215,2024-11-21T15:18:09.215Z,81069,0.100211546,-0.78674614,-1.0288122
1732202289223,2024-11-21T15:18:09.223Z,81077,0.0054707187,-0.44912714,-1.0825309
1732202289226,2024-11-21T15:18:09.226Z,81080,0.0054707187,-0.44912714,-1.0825309
1732202289234,2024-11-21T15:18:09.234Z,81088,-0.019013168,-0.50782067,-1.3163975
1732202289236,2024-11-21T15:18:09.236Z,81090,-0.019013168,-0.50782067,-1.3163975
1732202289246,2024-11-21T15:18:09.246Z,81100,-0.16434486,-0.6112426,-1.4256784
1732202289248,2024-11-21T15:18:09.248Z,81102,-0.16434486,-0.6112426,-1.4256784
1732202289256,2024-11-21T15:18:09.256Z,81110,0.07811418,-0.69429785,-1.1670147
1732202289259,2024-11-21T15:18:09.259Z,81113,0.07811418,-0.69429785,-1.1670147
1732202289266,2024-11-21T15:18:09.266Z,81120,0.06693034,-0.45561886,-1.156675
1732202289268,2024-11-21T15:18:09.268Z,81122,0.06693034,-0.45561886,-1.156675
1732202289276,2024-11-21T15:18:09.276Z,81130,0.0016265409,-0.41086122,-1.1622915
1732202289279,2024-11-21T15:18:09.279Z,81133,0.0016265409,-0.41086122,-1.1622915
1732202289309,2024-11-21T15:18:09.309Z,81163,-0.034855552,-0.4609958,-1.4127271
1732202289312,2024-11-21T15:18:09.312Z,81166,-0.034855552,-0.4609958,-1.4127271
1732202289321,2024-11-21T15:18:09.321Z,81175,-0.26628488,-0.57522714,-1.447973
1732202289324,2024-11-21T15:18:09.324Z,81178,-0.26628488,-0.57522714,-1.447973
1732202289353,2024-11-21T15:18:09.353Z,81207,-0.043732382,-0.83111215,-1.5139016
1732202289356,2024-11-21T15:18:09.356Z,81210,-0.043732382,-0.83111215,-1.5139016
1732202289366,2024-11-21T15:18:09.366Z,81220,0.11136616,-0.5495611,-1.1271719
1732202289370,2024-11-21T15:18:09.370Z,81224,0.11136616,-0.5495611,-1.1271719
1732202289400,2024-11-21T15:18:09.400Z,81254,-0.2460691,-0.22336842,-1.1724353
1732202289404,2024-11-21T15:18:09.404Z,81258,-0.2460691,-0.22336842,-1.1724353
1732202289416,2024-11-21T15:18:09.416Z,81270,-0.42060006,-0.35089523,-1.2623854
1732202289420,2024-11-21T15:18:09.420Z,81274,-0.42060006,-0.35089523,-1.2623854
1732202289432,2024-11-21T15:18:09.432Z,81286,-0.3696797,-0.4913569,-1.4198624
1732202289435,2024-11-21T15:18:09.435Z,81289,-0.3696797,-0.4913569,-1.4198624
1732202289447,2024-11-21T15:18:09.447Z,81301,-0.1415139,-0.440196,-1.0735112
1732202289450,2024-11-21T15:18:09.450Z,81304,-0.1415139,-0.440196,-1.0735112
1732202289461,2024-11-21T15:18:09.461Z,81315,-0.26658982,-0.3432911,-1.1967514
1732202289464,2024-11-21T15:18:09.464Z,81318,-0.26658982,-0.3432911,-1.1967514
1732202289473,2024-11-21T15:18:09.473Z,81327,-0.40598235,-0.4191574,-1.4842292
1732202289476,2024-11-21T15:18:09.476Z,81330,-0.40598235,-0.4191574,-1.4842292
1732202289487,2024-11-21T15:18:09.487Z,81341,0.08278206,-0.8149248,-1.4366541
1732202289490,2024-11-21T15:18:09.490Z,81344,0.08278206,-0.8149248,-1.4366541
1732202289500,2024-11-21T15:18:09.500Z,81354,-0.23255385,-0.6156438,-1.157741
1732202289503,2024-11-21T15:18:09.503Z,81357,-0.23255385,-0.6156438,-1.157741
1732202289514,2024-11-21T15:18:09.514Z,81368,-0.16998462,-0.63016355,-1.1930467
1732202289517,2024-11-21T15:18:09.517Z,81371,-0.16998462,-0.63016355,-1.1930467
1732202289580,2024-11-21T15:18:09.580Z,81434,-0.2530959,-0.7584748,-1.3484648
1732202289584,2024-11-21T15:18:09.584Z,81438,-0.2530959,-0.7584748,-1.3484648
1732202289592,2024-11-21T15:18:09.592Z,81446,-0.36604697,-0.9336967,-1.4746754
1732202289595,2024-11-21T15:18:09.595Z,81449,-0.36604697,-0.9336967,-1.4746754
1732202289603,2024-11-21T15:18:09.603Z,81457,-0.28525355,-0.79613954,-1.4195012
1732202289605,2024-11-21T15:18:09.605Z,81459,-0.28525355,-0.79613954,-1.4195012
1732202289613,2024-11-21T15:18:09.613Z,81467,-0.29591635,-0.799131,-1.3533363
1732202289616,2024-11-21T15:18:09.616Z,81470,-0.29591635,-0.799131,-1.3533363
1732202289633,2024-11-21T15:18:09.633Z,81487,-0.23411436,-0.73823637,-1.2781264
1732202289639,2024-11-21T15:18:09.639Z,81493,-0.23411436,-0.73823637,-1.2781264
1732202289658,2024-11-21T15:18:09.658Z,81512,-0.26976827,-0.6904697,-1.2572275
1732202289661,2024-11-21T15:18:09.661Z,81515,-0.26976827,-0.6904697,-1.2572275
1732202289671,2024-11-21T15:18:09.671Z,81525,-0.2356284,-0.7615344,-1.3031607
1732202289674,2024-11-21T15:18:09.674Z,81528,-0.2356284,-0.7615344,-1.3031607
1732202289684,2024-11-21T15:18:09.684Z,81538,-0.22736302,-0.80911624,-1.4405185
1732202289687,2024-11-21T15:18:09.687Z,81541,-0.22736302,-0.80911624,-1.4405185
1732202289712,2024-11-21T15:18:09.712Z,81566,-0.11456051,-0.5653371,-1.2159739
1732202289716,2024-11-21T15:18:09.716Z,81570,-0.11456051,-0.5653371,-1.2159739
1732202289726,2024-11-21T15:18:09.726Z,81580,-0.10601485,-0.5859801,-1.262128
1732202289730,2024-11-21T15:18:09.730Z,81584,-0.10601485,-0.5859801,-1.262128
1732202289739,2024-11-21T15:18:09.739Z,81593,-0.20458804,-0.62011987,-1.4397383
1732202289742,2024-11-21T15:18:09.742Z,81596,-0.20458804,-0.62011987,-1.4397383
1732202289765,2024-11-21T15:18:09.765Z,81619,-0.17820275,-0.8856616,-1.3308173
1732202289769,2024-11-21T15:18:09.769Z,81623,-0.17820275,-0.8856616,-1.3308173
1732202289784,2024-11-21T15:18:09.784Z,81638,0.07210204,-0.80996364,-1.1989677
1732202289793,2024-11-21T15:18:09.793Z,81647,0.07210204,-0.80996364,-1.1989677
1732202289817,2024-11-21T15:18:09.817Z,81671,0.07165372,-0.49885845,-1.1034846
1732202289823,2024-11-21T15:18:09.823Z,81677,0.07165372,-0.49885845,-1.1034846
1732202289843,2024-11-21T15:18:09.843Z,81697,-0.07538621,-0.40360665,-1.1289644
1732202289850,2024-11-21T15:18:09.850Z,81704,-0.07538621,-0.40360665,-1.1289644
1732202289874,2024-11-21T15:18:09.874Z,81728,0.20301144,-0.87617373,-1.2786287
1732202289880,2024-11-21T15:18:09.880Z,81734,0.20301144,-0.87617373,-1.2786287
1732202289900,2024-11-21T15:18:09.900Z,81754,0.30791104,-0.509932,-1.1000208
1732202289904,2024-11-21T15:18:09.904Z,81758,0.30791104,-0.509932,-1.1000208
1732202289918,2024-11-21T15:18:09.918Z,81772,0.21457331,-0.1888901,-0.9720825
1732202289922,2024-11-21T15:18:09.922Z,81776,0.21457331,-0.1888901,-0.9720825
1732202289938,2024-11-21T15:18:09.938Z,81792,-0.22275402,-0.7816696,-1.5898519
1732202289942,2024-11-21T15:18:09.942Z,81796,-0.22275402,-0.7816696,-1.5898519
1732202289954,2024-11-21T15:18:09.954Z,81808,-0.10567764,-1.0354562,-1.3382185
1732202289959,2024-11-21T15:18:09.959Z,81813,-0.10567764,-1.0354562,-1.3382185
1732202289985,2024-11-21T15:18:09.985Z,81839,0.20630164,-0.8291459,-1.0493038
1732202289993,2024-11-21T15:18:09.993Z,81847,0.20630164,-0.8291459,-1.0493038
1732202290012,2024-11-21T15:18:10.012Z,81866,0.043612354,-0.18303545,-1.150801
1732202290017,2024-11-21T15:18:10.017Z,81871,0.043612354,-0.18303545,-1.150801
1732202290033,2024-11-21T15:18:10.033Z,81887,-0.10677027,-0.41590542,-1.503196
1732202290038,2024-11-21T15:18:10.038Z,81892,-0.10677027,-0.41590542,-1.503196
1732202290052,2024-11-21T15:18:10.052Z,81906,-0.18290558,-0.93579435,-1.5322998
1732202290057,2024-11-21T15:18:10.057Z,81911,-0.18290558,-0.93579435,-1.5322998
1732202290069,2024-11-21T15:18:10.069Z,81923,0.18339507,-0.41271293,-1.1608384
1732202290073,2024-11-21T15:18:10.073Z,81927,0.18339507,-0.41271293,-1.1608384
1732202290084,2024-11-21T15:18:10.084Z,81938,-0.031621892,-0.8094559,-1.2613704
1732202290087,2024-11-21T15:18:10.087Z,81941,-0.031621892,-0.8094559,-1.2613704
1732202290098,2024-11-21T15:18:10.098Z,81952,-0.03453755,-0.75272596,-1.3007575
1732202290105,2024-11-21T15:18:10.105Z,81959,-0.03453755,-0.75272596,-1.3007575
1732202290125,2024-11-21T15:18:10.125Z,81979,-0.09638082,-0.61332333,-1.494323
1732202290131,2024-11-21T15:18:10.131Z,81985,-0.09638082,-0.61332333,-1.494323
1732202290152,2024-11-21T15:18:10.152Z,82006,0.14231807,-0.9093731,-1.294883
1732202290158,2024-11-21T15:18:10.158Z,82012,0.14231807,-0.9093731,-1.294883
1732202290179,2024-11-21T15:18:10.179Z,82033,0.04764224,-0.7038173,-1.2878482
1732202290185,2024-11-21T15:18:10.185Z,82039,0.04764224,-0.7038173,-1.2878482
1732202290204,2024-11-21T15:18:10.204Z,82058,-0.06196871,-0.9303452,-1.4155475
1732202290208,2024-11-21T15:18:10.208Z,82062,-0.06196871,-0.9303452,-1.4155475
1732202290222,2024-11-21T15:18:10.222Z,82076,-0.09203852,-1.0011507,-1.3602452
1732202290226,2024-11-21T15:18:10.226Z,82080,-0.09203852,-1.0011507,-1.3602452
1732202290239,2024-11-21T15:18:10.239Z,82093,-0.06749536,-0.9811312,-1.3625994
1732202290243,2024-11-21T15:18:10.243Z,82097,-0.06749536,-0.9811312,-1.3625994
1732202290255,2024-11-21T15:18:10.255Z,82109,-0.10068945,-0.85757905,-1.4130837
1732202290259,2024-11-21T15:18:10.259Z,82113,-0.10068945,-0.85757905,-1.4130837
1732202290269,2024-11-21T15:18:10.269Z,82123,-0.039471548,-1.0337089,-1.2855318
1732202290272,2024-11-21T15:18:10.272Z,82126,-0.039471548,-1.0337089,-1.2855318
1732202290285,2024-11-21T15:18:10.285Z,82139,-0.07226108,-1.0062801,-1.302979
1732202290291,2024-11-21T15:18:10.291Z,82145,-0.07226108,-1.0062801,-1.302979
1732202290310,2024-11-21T15:18:10.310Z,82164,-0.20868327,-0.89648914,-1.319575
1732202290317,2024-11-21T15:18:10.317Z,82171,-0.20868327,-0.89648914,-1.319575
1732202290338,2024-11-21T15:18:10.338Z,82192,-0.1511649,-0.9333713,-1.3493296
1732202290345,2024-11-21T15:18:10.345Z,82199,-0.1511649,-0.9333713,-1.3493296
1732202290363,2024-11-21T15:18:10.363Z,82217,-0.05349366,-0.85607785,-1.3349643
1732202290367,2024-11-21T15:18:10.367Z,82221,-0.05349366,-0.85607785,-1.3349643
1732202290377,2024-11-21T15:18:10.377Z,82231,-0.19763076,-0.93129575,-1.427764
1732202290380,2024-11-21T15:18:10.380Z,82234,-0.19763076,-0.93129575,-1.427764
1732202290390,2024-11-21T15:18:10.390Z,82244,-0.23063482,-1.0342792,-1.4408822
1732202290393,2024-11-21T15:18:10.393Z,82247,-0.23063482,-1.0342792,-1.4408822
1732202290402,2024-11-21T15:18:10.402Z,82256,-0.16567355,-0.8284349,-1.1962415
1732202290407,2024-11-21T15:18:10.407Z,82261,-0.16567355,-0.8284349,-1.1962415
1732202290417,2024-11-21T15:18:10.417Z,82271,-0.24543376,-0.73004276,-1.213584
1732202290420,2024-11-21T15:18:10.420Z,82274,-0.24543376,-0.73004276,-1.213584
1732202290478,2024-11-21T15:18:10.478Z,82332,-0.24581487,-0.8332545,-1.185855
1732202290481,2024-11-21T15:18:10.481Z,82335,-0.24581487,-0.8332545,-1.185855
1732202290525,2024-11-21T15:18:10.525Z,82379,-0.2799622,-0.8856706,-1.4622507
1732202290529,2024-11-21T15:18:10.529Z,82383,-0.2799622,-0.8856706,-1.4622507
1732202290541,2024-11-21T15:18:10.541Z,82395,-0.34432507,-0.9874138,-1.4296584
1732202290544,2024-11-21T15:18:10.544Z,82398,-0.34432507,-0.9874138,-1.4296584
1732202290554,2024-11-21T15:18:10.554Z,82408,-0.2526504,-0.97157323,-1.2807975
1732202290558,2024-11-21T15:18:10.558Z,82412,-0.2526504,-0.97157323,-1.2807975
1732202290614,2024-11-21T15:18:10.614Z,82468,-0.2702496,-0.74618924,-1.0613487
1732202290620,2024-11-21T15:18:10.620Z,82474,-0.2702496,-0.74618924,-1.0613487
1732202290660,2024-11-21T15:18:10.660Z,82514,-0.23627168,-0.7215047,-0.9448267
1732202290667,2024-11-21T15:18:10.667Z,82521,-0.23627168,-0.7215047,-0.9448267
1732202290685,2024-11-21T15:18:10.685Z,82539,-0.24690771,-0.6934878,-1.0676557
1732202290688,2024-11-21T15:18:10.688Z,82542,-0.24690771,-0.6934878,-1.0676557
1732202290701,2024-11-21T15:18:10.701Z,82555,-0.427275,-0.9908638,-1.3353038
1732202290705,2024-11-21T15:18:10.705Z,82559,-0.427275,-0.9908638,-1.3353038
1732202290717,2024-11-21T15:18:10.717Z,82571,-0.4411558,-0.8016352,-1.2433733
1732202290721,2024-11-21T15:18:10.721Z,82575,-0.4411558,-0.8016352,-1.2433733
1732202290732,2024-11-21T15:18:10.732Z,82586,-0.40071282,-0.9761151,-1.2141203
1732202290736,2024-11-21T15:18:10.736Z,82590,-0.40071282,-0.9761151,-1.2141203
1732202290895,2024-11-21T15:18:10.895Z,82749,-0.36171317,-0.9158746,-1.1932962
1732202290903,2024-11-21T15:18:10.903Z,82757,-0.36171317,-0.9158746,-1.1932962
1732202290930,2024-11-21T15:18:10.930Z,82784,-0.37437576,-1.049042,-1.3034906
1732202290937,2024-11-21T15:18:10.937Z,82791,-0.37437576,-1.049042,-1.3034906
1732202290965,2024-11-21T15:18:10.965Z,82819,-0.2903796,-1.0569818,-1.236282
1732202290972,2024-11-21T15:18:10.972Z,82826,-0.2903796,-1.0569818,-1.236282
1732202290993,2024-11-21T15:18:10.993Z,82847,-0.3482188,-1.0406967,-1.370112
1732202291000,2024-11-21T15:18:11Z,82854,-0.3482188,-1.0406967,-1.370112
1732202291019,2024-11-21T15:18:11.019Z,82873,-0.4048579,-1.0691733,-1.3921957
1732202291025,2024-11-21T15:18:11.025Z,82879,-0.4048579,-1.0691733,-1.3921957
1732202291039,2024-11-21T15:18:11.039Z,82893,-0.40323478,-1.0659717,-1.3590909
1732202291043,2024-11-21T15:18:11.043Z,82897,-0.40323478,-1.0659717,-1.3590909
1732202291061,2024-11-21T15:18:11.061Z,82915,-0.46575135,-1.1807438,-1.3338635
1732202291068,2024-11-21T15:18:11.068Z,82922,-0.46575135,-1.1807438,-1.3338635
1732202291087,2024-11-21T15:18:11.087Z,82941,-0.27805498,-1.1746055,-1.2950988
1732202291093,2024-11-21T15:18:11.093Z,82947,-0.27805498,-1.1746055,-1.2950988
1732202291115,2024-11-21T15:18:11.115Z,82969,-0.17512697,-1.2401965,-1.2347704
1732202291122,2024-11-21T15:18:11.122Z,82976,-0.17512697,-1.2401965,-1.2347704
1732202291134,2024-11-21T15:18:11.134Z,82988,-0.37353864,-1.1279678,-1.2405068
1732202291137,2024-11-21T15:18:11.137Z,82991,-0.37353864,-1.1279678,-1.2405068
1732202291149,2024-11-21T15:18:11.149Z,83003,-0.36538935,-1.2097661,-1.282922
1732202291153,2024-11-21T15:18:11.153Z,83007,-0.36538935,-1.2097661,-1.282922
1732202291204,2024-11-21T15:18:11.204Z,83058,-0.3870545,-1.2092412,-1.287143
1732202291210,2024-11-21T15:18:11.210Z,83064,-0.3870545,-1.2092412,-1.287143
1732202291230,2024-11-21T15:18:11.230Z,83084,-0.45848256,-1.1350642,-1.3176587
1732202291234,2024-11-21T15:18:11.234Z,83088,-0.45848256,-1.1350642,-1.3176587
1732202291248,2024-11-21T15:18:11.248Z,83102,-0.49711064,-1.1255864,-1.2151532
1732202291252,2024-11-21T15:18:11.252Z,83106,-0.49711064,-1.1255864,-1.2151532
1732202291264,2024-11-21T15:18:11.264Z,83118,-0.36624733,-1.1240473,-1.2992167
1732202291268,2024-11-21T15:18:11.268Z,83122,-0.36624733,-1.1240473,-1.2992167
1732202291280,2024-11-21T15:18:11.280Z,83134,-0.37196895,-0.98581165,-1.3216422
1732202291283,2024-11-21T15:18:11.283Z,83137,-0.37196895,-0.98581165,-1.3216422
1732202291294,2024-11-21T15:18:11.294Z,83148,-0.27296504,-0.89206195,-1.3780055
1732202291297,2024-11-21T15:18:11.297Z,83151,-0.27296504,-0.89206195,-1.3780055
1732202291306,2024-11-21T15:18:11.306Z,83160,-0.08893777,-0.58500814,-1.3474536
1732202291309,2024-11-21T15:18:11.309Z,83163,-0.08893777,-0.58500814,-1.3474536
1732202291317,2024-11-21T15:18:11.317Z,83171,0.02801196,-0.71494174,-1.3179325
1732202291319,2024-11-21T15:18:11.319Z,83173,0.02801196,-0.71494174,-1.3179325
1732202291327,2024-11-21T15:18:11.327Z,83181,0.03241044,-0.8179138,-1.2951512
1732202291330,2024-11-21T15:18:11.330Z,83184,0.03241044,-0.8179138,-1.2951512
1732202291337,2024-11-21T15:18:11.337Z,83191,-0.08102602,-0.63861525,-1.3201928
1732202291340,2024-11-21T15:18:11.340Z,83194,-0.08102602,-0.63861525,-1.3201928
1732202291348,2024-11-21T15:18:11.348Z,83202,-0.11867085,-0.62788934,-1.3684222
1732202291350,2024-11-21T15:18:11.350Z,83204,-0.11867085,-0.62788934,-1.3684222
1732202291356,2024-11-21T15:18:11.356Z,83210,-0.18885033,-0.67493045,-1.3896493
1732202291359,2024-11-21T15:18:11.359Z,83213,-0.18885033,-0.67493045,-1.3896493
1732202291380,2024-11-21T15:18:11.380Z,83234,0.039717548,-0.7228611,-1.3116307
1732202291383,2024-11-21T15:18:11.383Z,83237,0.039717548,-0.7228611,-1.3116307
1732202291393,2024-11-21T15:18:11.393Z,83247,-0.04401264,-0.6653859,-1.3038679
1732202291396,2024-11-21T15:18:11.396Z,83250,-0.04401264,-0.6653859,-1.3038679
1732202291432,2024-11-21T15:18:11.432Z,83286,-0.091125995,-0.5388844,-1.2291338
1732202291438,2024-11-21T15:18:11.438Z,83292,-0.091125995,-0.5388844,-1.2291338
1732202291457,2024-11-21T15:18:11.457Z,83311,-0.01731588,-0.55237645,-1.3744708
1732202291461,2024-11-21T15:18:11.461Z,83315,-0.01731588,-0.55237645,-1.3744708
1732202291472,2024-11-21T15:18:11.472Z,83326,-0.027488379,-0.64861,-1.389141
1732202291475,2024-11-21T15:18:11.475Z,83329,-0.027488379,-0.64861,-1.389141
1732202291489,2024-11-21T15:18:11.489Z,83343,-0.038610943,-0.62107956,-1.2967759
1732202291496,2024-11-21T15:18:11.496Z,83350,-0.038610943,-0.62107956,-1.2967759
1732202291519,2024-11-21T15:18:11.519Z,83373,-0.039477274,-0.43589476,-1.3126853
1732202291526,2024-11-21T15:18:11.526Z,83380,-0.039477274,-0.43589476,-1.3126853
1732202291547,2024-11-21T15:18:11.547Z,83401,0.084874205,-0.501049,-1.2773668
1732202291553,2024-11-21T15:18:11.553Z,83407,0.084874205,-0.501049,-1.2773668
1732202291575,2024-11-21T15:18:11.575Z,83429,0.10911928,-0.47749382,-1.2818389
1732202291581,2024-11-21T15:18:11.581Z,83435,0.10911928,-0.47749382,-1.2818389
1732202291602,2024-11-21T15:18:11.602Z,83456,-0.07014623,-0.46112913,-1.4146234
1732202291608,2024-11-21T15:18:11.608Z,83462,-0.07014623,-0.46112913,-1.4146234
1732202291626,2024-11-21T15:18:11.626Z,83480,-0.040700138,-0.5008136,-1.2672881
1732202291639,2024-11-21T15:18:11.639Z,83493,-0.040700138,-0.5008136,-1.2672881
1732202291659,2024-11-21T15:18:11.659Z,83513,0.0037888316,-0.3605694,-1.3086151
1732202291665,2024-11-21T15:18:11.665Z,83519,0.0037888316,-0.3605694,-1.3086151
1732202291678,2024-11-21T15:18:11.678Z,83532,-0.096258864,-0.41742915,-1.4751145
1732202291682,2024-11-21T15:18:11.682Z,83536,-0.096258864,-0.41742915,-1.4751145
1732202291694,2024-11-21T15:18:11.694Z,83548,-0.03346577,-0.46943134,-1.279908
1732202291697,2024-11-21T15:18:11.697Z,83551,-0.03346577,-0.46943134,-1.279908
1732202291708,2024-11-21T15:18:11.708Z,83562,0.06751587,-0.39109582,-1.3622665
1732202291711,2024-11-21T15:18:11.711Z,83565,0.06751587,-0.39109582,-1.3622665
1732202291722,2024-11-21T15:18:11.722Z,83576,-0.09713078,-0.4869601,-1.2254858
1732202291725,2024-11-21T15:18:11.725Z,83579,-0.09713078,-0.4869601,-1.2254858
1732202291738,2024-11-21T15:18:11.738Z,83592,-0.138979,-0.43955117,-1.2654259
1732202291741,2024-11-21T15:18:11.741Z,83595,-0.138979,-0.43955117,-1.2654259
1732202291752,2024-11-21T15:18:11.752Z,83606,-0.14157005,-0.3006999,-1.4137403
1732202291754,2024-11-21T15:18:11.754Z,83608,-0.14157005,-0.3006999,-1.4137403
1732202291763,2024-11-21T15:18:11.763Z,83617,-0.13684312,-0.40869248,-1.4340311
1732202291766,2024-11-21T15:18:11.766Z,83620,-0.13684312,-0.40869248,-1.4340311
1732202291782,2024-11-21T15:18:11.782Z,83636,-0.052970186,-0.4202718,-1.5301216
1732202291785,2024-11-21T15:18:11.785Z,83639,-0.052970186,-0.4202718,-1.5301216
1732202291828,2024-11-21T15:18:11.828Z,83682,-0.09463509,-0.6626885,-1.5941554
1732202291832,2024-11-21T15:18:11.832Z,83686,-0.09463509,-0.6626885,-1.5941554
1732202291873,2024-11-21T15:18:11.873Z,83727,-0.1950248,-0.48365328,-1.4817572
1732202291877,2024-11-21T15:18:11.877Z,83731,-0.1950248,-0.48365328,-1.4817572
1732202291919,2024-11-21T15:18:11.919Z,83773,-0.40378597,-0.28640068,-1.2975825
1732202291925,2024-11-21T15:18:11.925Z,83779,-0.40378597,-0.28640068,-1.2975825
1732202291947,2024-11-21T15:18:11.947Z,83801,-0.3060942,-0.5066524,-1.4725996
1732202291953,2024-11-21T15:18:11.953Z,83807,-0.3060942,-0.5066524,-1.4725996
1732202292013,2024-11-21T15:18:12.013Z,83867,-0.33215576,-0.38833654,-1.4938035
1732202292020,2024-11-21T15:18:12.020Z,83874,-0.33215576,-0.38833654,-1.4938035
1732202292044,2024-11-21T15:18:12.044Z,83898,-0.46131307,-0.45184624,-1.2926507
1732202292051,2024-11-21T15:18:12.051Z,83905,-0.46131307,-0.45184624,-1.2926507
1732202292102,2024-11-21T15:18:12.102Z,83956,-0.4277971,-0.6335116,-1.665314
1732202292109,2024-11-21T15:18:12.109Z,83963,-0.4277971,-0.6335116,-1.665314
1732202292133,2024-11-21T15:18:12.133Z,83987,-0.41166922,-0.58525515,-1.2600293
1732202292139,2024-11-21T15:18:12.139Z,83993,-0.41166922,-0.58525515,-1.2600293
1732202292158,2024-11-21T15:18:12.158Z,84012,-0.026974425,-0.9659082,-1.4257832
1732202292164,2024-11-21T15:18:12.164Z,84018,-0.026974425,-0.9659082,-1.4257832
1732202292190,2024-11-21T15:18:12.190Z,84044,-0.048357725,-0.46587554,-1.2159433
1732202292197,2024-11-21T15:18:12.197Z,84051,-0.048357725,-0.46587554,-1.2159433
1732202292332,2024-11-21T15:18:12.332Z,84186,-0.24105921,-0.4709017,-1.2683134
1732202292340,2024-11-21T15:18:12.340Z,84194,-0.24105921,-0.4709017,-1.2683134
1732202292365,2024-11-21T15:18:12.365Z,84219,-0.18395194,-0.5202473,-1.5862896
1732202292372,2024-11-21T15:18:12.372Z,84226,-0.18395194,-0.5202473,-1.5862896
1732202292395,2024-11-21T15:18:12.395Z,84249,-0.28736657,-0.43469068,-1.6453447
1732202292403,2024-11-21T15:18:12.403Z,84257,-0.28736657,-0.43469068,-1.6453447
1732202292426,2024-11-21T15:18:12.426Z,84280,-0.158307,-0.47374165,-1.6738039
1732202292433,2024-11-21T15:18:12.433Z,84287,-0.158307,-0.47374165,-1.6738039
1732202292455,2024-11-21T15:18:12.455Z,84309,-0.1657393,-0.7759029,-1.5259656
1732202292462,2024-11-21T15:18:12.462Z,84316,-0.1657393,-0.7759029,-1.5259656
1732202292483,2024-11-21T15:18:12.483Z,84337,0.114618756,-0.9955691,-1.386124
1732202292489,2024-11-21T15:18:12.489Z,84343,0.114618756,-0.9955691,-1.386124
1732202292509,2024-11-21T15:18:12.509Z,84363,0.052059438,-0.8817814,-1.2302375
1732202292514,2024-11-21T15:18:12.514Z,84368,0.052059438,-0.8817814,-1.2302375
1732202292527,2024-11-21T15:18:12.527Z,84381,-0.04322408,-0.6052972,-1.2088382
1732202292532,2024-11-21T15:18:12.532Z,84386,-0.04322408,-0.6052972,-1.2088382
1732202292546,2024-11-21T15:18:12.546Z,84400,0.009836302,-0.57727474,-1.1127683
1732202292550,2024-11-21T15:18:12.550Z,84404,0.009836302,-0.57727474,-1.1127683
1732202292565,2024-11-21T15:18:12.565Z,84419,-0.050904755,-0.8914272,-1.405765
1732202292568,2024-11-21T15:18:12.568Z,84422,-0.050904755,-0.8914272,-1.405765
1732202292575,2024-11-21T15:18:12.575Z,84429,0.09365844,-0.9295967,-1.2115437
1732202292578,2024-11-21T15:18:12.578Z,84432,0.09365844,-0.9295967,-1.2115437
1732202292593,2024-11-21T15:18:12.593Z,84447,0.064970866,-0.7437792,-1.1790076
1732202292596,2024-11-21T15:18:12.596Z,84450,0.064970866,-0.7437792,-1.1790076
1732202292640,2024-11-21T15:18:12.640Z,84494,-0.10824624,-0.7409531,-1.3316431
1732202292643,2024-11-21T15:18:12.643Z,84497,-0.10824624,-0.7409531,-1.3316431
1732202292686,2024-11-21T15:18:12.686Z,84540,-0.04202741,-0.95964295,-1.4000069
1732202292691,2024-11-21T15:18:12.691Z,84545,-0.04202741,-0.95964295,-1.4000069
1732202292731,2024-11-21T15:18:12.731Z,84585,0.0307635,-0.9823345,-1.2053446
1732202292736,2024-11-21T15:18:12.736Z,84590,0.0307635,-0.9823345,-1.2053446
1732202292758,2024-11-21T15:18:12.758Z,84612,-0.04855458,-0.850952,-1.1949478
1732202292765,2024-11-21T15:18:12.765Z,84619,-0.04855458,-0.850952,-1.1949478
1732202292785,2024-11-21T15:18:12.785Z,84639,-0.055716414,-0.7763773,-1.2585784
1732202292789,2024-11-21T15:18:12.789Z,84643,-0.055716414,-0.7763773,-1.2585784
1732202292803,2024-11-21T15:18:12.803Z,84657,-0.12260424,-0.8094545,-1.3546498
1732202292806,2024-11-21T15:18:12.806Z,84660,-0.12260424,-0.8094545,-1.3546498
1732202292818,2024-11-21T15:18:12.818Z,84672,-0.08570565,-0.8505466,-1.2115674
1732202292822,2024-11-21T15:18:12.822Z,84676,-0.08570565,-0.8505466,-1.2115674
1732202292870,2024-11-21T15:18:12.870Z,84724,-0.22717036,-0.78064483,-1.2878493
1732202292877,2024-11-21T15:18:12.877Z,84731,-0.22717036,-0.78064483,-1.2878493
1732202292897,2024-11-21T15:18:12.897Z,84751,-0.33562428,-0.82280016,-1.3328443
1732202292901,2024-11-21T15:18:12.901Z,84755,-0.33562428,-0.82280016,-1.3328443
1732202292914,2024-11-21T15:18:12.914Z,84768,-0.40590724,-0.7979294,-1.3285445
1732202292917,2024-11-21T15:18:12.917Z,84771,-0.40590724,-0.7979294,-1.3285445
1732202292928,2024-11-21T15:18:12.928Z,84782,-0.2602142,-0.7723147,-1.4052969
1732202292932,2024-11-21T15:18:12.932Z,84786,-0.2602142,-0.7723147,-1.4052969
1732202292943,2024-11-21T15:18:12.943Z,84797,-0.32420993,-0.8460783,-1.5154465
1732202292947,2024-11-21T15:18:12.947Z,84801,-0.32420993,-0.8460783,-1.5154465
1732202292958,2024-11-21T15:18:12.958Z,84812,-0.27562982,-0.97035676,-1.418609
1732202292962,2024-11-21T15:18:12.962Z,84816,-0.27562982,-0.97035676,-1.418609
1732202292973,2024-11-21T15:18:12.973Z,84827,-0.3626895,-0.65740454,-1.20532
1732202292976,2024-11-21T15:18:12.976Z,84830,-0.3626895,-0.65740454,-1.20532
1732202292986,2024-11-21T15:18:12.986Z,84840,-0.4713995,-0.8588951,-1.4366202
1732202292989,2024-11-21T15:18:12.989Z,84843,-0.4713995,-0.8588951,-1.4366202
1732202292998,2024-11-21T15:18:12.998Z,84852,-0.29926142,-0.9750824,-1.3147088
1732202293001,2024-11-21T15:18:13.001Z,84855,-0.29926142,-0.9750824,-1.3147088
1732202293009,2024-11-21T15:18:13.009Z,84863,-0.15791497,-0.8843073,-1.290547
1732202293012,2024-11-21T15:18:13.012Z,84866,-0.15791497,-0.8843073,-1.290547
1732202293020,2024-11-21T15:18:13.020Z,84874,-0.40294367,-0.9086007,-1.2294859
1732202293023,2024-11-21T15:18:13.023Z,84877,-0.40294367,-0.9086007,-1.2294859
1732202293030,2024-11-21T15:18:13.030Z,84884,-0.32009,-0.77621984,-1.3123296
1732202293033,2024-11-21T15:18:13.033Z,84887,-0.32009,-0.77621984,-1.3123296
1732202293046,2024-11-21T15:18:13.046Z,84900,-0.24277398,-0.8376834,-1.3647714
1732202293049,2024-11-21T15:18:13.049Z,84903,-0.24277398,-0.8376834,-1.3647714
1732202293057,2024-11-21T15:18:13.057Z,84911,-0.34468397,-0.95770776,-1.3975213
1732202293059,2024-11-21T15:18:13.059Z,84913,-0.34468397,-0.95770776,-1.3975213
1732202293067,2024-11-21T15:18:13.067Z,84921,-0.36744288,-0.849868,-1.3188852
1732202293069,2024-11-21T15:18:13.069Z,84923,-0.36744288,-0.849868,-1.3188852
1732202293090,2024-11-21T15:18:13.090Z,84944,-0.28275487,-0.8362703,-1.2548215
1732202293094,2024-11-21T15:18:13.094Z,84948,-0.28275487,-0.8362703,-1.2548215
1732202293114,2024-11-21T15:18:13.114Z,84968,-0.36766577,-0.90724146,-1.4070084
1732202293120,2024-11-21T15:18:13.120Z,84974,-0.36766577,-0.90724146,-1.4070084
1732202293135,2024-11-21T15:18:13.135Z,84989,-0.36228475,-1.0134393,-1.4506292
1732202293138,2024-11-21T15:18:13.138Z,84992,-0.36228475,-1.0134393,-1.4506292
1732202293148,2024-11-21T15:18:13.148Z,85002,-0.32908925,-1.0087961,-1.3990301
1732202293152,2024-11-21T15:18:13.152Z,85006,-0.32908925,-1.0087961,-1.3990301
1732202293161,2024-11-21T15:18:13.161Z,85015,-0.35401425,-0.95056915,-1.2587293
1732202293164,2024-11-21T15:18:13.164Z,85018,-0.35401425,-0.95056915,-1.2587293
1732202293178,2024-11-21T15:18:13.178Z,85032,-0.307142,-0.9434854,-1.1851741
1732202293182,2024-11-21T15:18:13.182Z,85036,-0.307142,-0.9434854,-1.1851741
1732202293190,2024-11-21T15:18:13.190Z,85044,-0.2745529,-0.8977237,-1.2415099
1732202293193,2024-11-21T15:18:13.193Z,85047,-0.2745529,-0.8977237,-1.2415099
1732202293201,2024-11-21T15:18:13.201Z,85055,-0.4189273,-1.0069474,-1.4034225
1732202293204,2024-11-21T15:18:13.204Z,85058,-0.4189273,-1.0069474,-1.4034225
1732202293222,2024-11-21T15:18:13.222Z,85076,-0.481261,-1.0488492,-1.4172049
1732202293225,2024-11-21T15:18:13.225Z,85079,-0.481261,-1.0488492,-1.4172049
1732202293233,2024-11-21T15:18:13.233Z,85087,-0.42601702,-1.0431902,-1.3719006
1732202293236,2024-11-21T15:18:13.236Z,85090,-0.42601702,-1.0431902,-1.3719006
1732202293244,2024-11-21T15:18:13.244Z,85098,-0.4222466,-0.9286444,-1.2300187
1732202293247,2024-11-21T15:18:13.247Z,85101,-0.4222466,-0.9286444,-1.2300187
1732202293267,2024-11-21T15:18:13.267Z,85121,-0.40975428,-0.9689872,-1.2168406
1732202293270,2024-11-21T15:18:13.270Z,85124,-0.40975428,-0.9689872,-1.2168406
1732202293277,2024-11-21T15:18:13.277Z,85131,-0.47305658,-1.0489894,-1.3016773
1732202293280,2024-11-21T15:18:13.280Z,85134,-0.47305658,-1.0489894,-1.3016773
1732202293288,2024-11-21T15:18:13.288Z,85142,-0.51286584,-1.1240699,-1.3313962
1732202293290,2024-11-21T15:18:13.290Z,85144,-0.51286584,-1.1240699,-1.3313962
1732202293313,2024-11-21T15:18:13.313Z,85167,-0.5341975,-1.1306146,-1.2663729
1732202293318,2024-11-21T15:18:13.318Z,85172,-0.5341975,-1.1306146,-1.2663729
1732202293335,2024-11-21T15:18:13.335Z,85189,-0.48491785,-1.046872,-1.0551529
1732202293340,2024-11-21T15:18:13.340Z,85194,-0.48491785,-1.046872,-1.0551529
1732202293352,2024-11-21T15:18:13.352Z,85206,-0.5011543,-1.1006002,-1.101448
1732202293354,2024-11-21T15:18:13.354Z,85208,-0.5011543,-1.1006002,-1.101448
1732202293361,2024-11-21T15:18:13.361Z,85215,-0.5295874,-1.1709521,-1.1731572
1732202293364,2024-11-21T15:18:13.364Z,85218,-0.5295874,-1.1709521,-1.1731572
1732202293451,2024-11-21T15:18:13.451Z,85305,-0.5711106,-1.2966853,-1.1951127
1732202293455,2024-11-21T15:18:13.455Z,85309,-0.5711106,-1.2966853,-1.1951127
1732202293466,2024-11-21T15:18:13.466Z,85320,-0.6044762,-1.2315719,-1.2185775
1732202293470,2024-11-21T15:18:13.470Z,85324,-0.6044762,-1.2315719,-1.2185775
1732202293480,2024-11-21T15:18:13.480Z,85334,-0.5437439,-1.2317209,-1.1605505
1732202293484,2024-11-21T15:18:13.484Z,85338,-0.5437439,-1.2317209,-1.1605505
1732202293500,2024-11-21T15:18:13.500Z,85354,-0.49393803,-1.0933684,-0.97900546
1732202293506,2024-11-21T15:18:13.506Z,85360,-0.49393803,-1.0933684,-0.97900546
1732202293527,2024-11-21T15:18:13.527Z,85381,-0.49211767,-1.1915534,-1.1093773
1732202293533,2024-11-21T15:18:13.533Z,85387,-0.49211767,-1.1915534,-1.1093773
1732202293552,2024-11-21T15:18:13.552Z,85406,-0.44343036,-1.3712561,-1.1146877
1732202293559,2024-11-21T15:18:13.559Z,85413,-0.44343036,-1.3712561,-1.1146877
1732202293573,2024-11-21T15:18:13.573Z,85427,-0.1610754,-1.160863,-1.0891501
1732202293577,2024-11-21T15:18:13.577Z,85431,-0.1610754,-1.160863,-1.0891501
1732202293589,2024-11-21T15:18:13.589Z,85443,-0.2793425,-1.1339786,-1.1790919
1732202293592,2024-11-21T15:18:13.592Z,85446,-0.2793425,-1.1339786,-1.1790919
1732202293603,2024-11-21T15:18:13.603Z,85457,-0.16930321,-1.1395591,-1.1451105
1732202293607,2024-11-21T15:18:13.607Z,85461,-0.16930321,-1.1395591,-1.1451105
1732202293618,2024-11-21T15:18:13.618Z,85472,-0.28492063,-1.1006925,-1.4077984
1732202293621,2024-11-21T15:18:13.621Z,85475,-0.28492063,-1.1006925,-1.4077984
1732202293632,2024-11-21T15:18:13.632Z,85486,-0.25009474,-1.1870457,-1.3381397
1732202293635,2024-11-21T15:18:13.635Z,85489,-0.25009474,-1.1870457,-1.3381397
1732202293643,2024-11-21T15:18:13.643Z,85497,-0.12456409,-1.1380471,-1.2221476
1732202293646,2024-11-21T15:18:13.646Z,85500,-0.12456409,-1.1380471,-1.2221476
1732202293655,2024-11-21T15:18:13.655Z,85509,-0.11340461,-1.0557702,-1.1938663
1732202293657,2024-11-21T15:18:13.657Z,85511,-0.11340461,-1.0557702,-1.1938663
1732202293676,2024-11-21T15:18:13.676Z,85530,-3.7003972E-4,-1.003437,-1.1194824
1732202293683,2024-11-21T15:18:13.683Z,85537,-3.7003972E-4,-1.003437,-1.1194824
1732202293700,2024-11-21T15:18:13.700Z,85554,0.02337395,-1.0679696,-1.2692661
1732202293703,2024-11-21T15:18:13.703Z,85557,0.02337395,-1.0679696,-1.2692661
1732202293710,2024-11-21T15:18:13.710Z,85564,0.09550077,-1.0287287,-1.3215188
1732202293712,2024-11-21T15:18:13.712Z,85566,0.09550077,-1.0287287,-1.3215188
1732202293721,2024-11-21T15:18:13.721Z,85575,0.22864647,-0.77547115,-1.0034974
1732202293723,2024-11-21T15:18:13.723Z,85577,0.22864647,-0.77547115,-1.0034974
1732202293731,2024-11-21T15:18:13.731Z,85585,0.12553011,-0.78688055,-1.212337
1732202293734,2024-11-21T15:18:13.734Z,85588,0.12553011,-0.78688055,-1.212337
1732202293741,2024-11-21T15:18:13.741Z,85595,0.0044743186,-0.8830787,-1.3014123
1732202293743,2024-11-21T15:18:13.743Z,85597,0.0044743186,-0.8830787,-1.3014123
1732202293765,2024-11-21T15:18:13.765Z,85619,0.122156076,-0.90348303,-1.2392179
1732202293767,2024-11-21T15:18:13.767Z,85621,0.122156076,-0.90348303,-1.2392179
1732202293812,2024-11-21T15:18:13.812Z,85666,0.20904967,-0.74276096,-1.2010353
1732202293816,2024-11-21T15:18:13.816Z,85670,0.20904967,-0.74276096,-1.2010353
1732202293826,2024-11-21T15:18:13.826Z,85680,0.3156942,-0.82386523,-1.0919838
1732202293829,2024-11-21T15:18:13.829Z,85683,0.3156942,-0.82386523,-1.0919838
1732202293840,2024-11-21T15:18:13.840Z,85694,0.17818801,-0.6427581,-1.0162048
1732202293843,2024-11-21T15:18:13.843Z,85697,0.17818801,-0.6427581,-1.0162048
1732202293855,2024-11-21T15:18:13.855Z,85709,0.16174877,-0.66209066,-1.2420237
1732202293858,2024-11-21T15:18:13.858Z,85712,0.16174877,-0.66209066,-1.2420237
1732202293868,2024-11-21T15:18:13.868Z,85722,0.06697803,-0.8431438,-1.3212901
1732202293871,2024-11-21T15:18:13.871Z,85725,0.06697803,-0.8431438,-1.3212901
1732202293898,2024-11-21T15:18:13.898Z,85752,0.24701627,-0.66305166,-1.1739349
1732202293902,2024-11-21T15:18:13.902Z,85756,0.24701627,-0.66305166,-1.1739349
1732202293910,2024-11-21T15:18:13.910Z,85764,0.06214581,-0.6384966,-1.3236402
1732202293913,2024-11-21T15:18:13.913Z,85767,0.06214581,-0.6384966,-1.3236402
1732202293921,2024-11-21T15:18:13.921Z,85775,0.012351092,-0.79744583,-1.520181
1732202293924,2024-11-21T15:18:13.924Z,85778,0.012351092,-0.79744583,-1.520181
1732202293993,2024-11-21T15:18:13.993Z,85847,-0.04871712,-0.87550193,-1.4813478
1732202293997,2024-11-21T15:18:13.997Z,85851,-0.04871712,-0.87550193,-1.4813478
1732202294008,2024-11-21T15:18:14.008Z,85862,0.1738211,-0.5435877,-1.0710984
1732202294011,2024-11-21T15:18:14.011Z,85865,0.1738211,-0.5435877,-1.0710984
1732202294023,2024-11-21T15:18:14.023Z,85877,0.0078962715,-0.49797434,-1.3976911
1732202294026,2024-11-21T15:18:14.026Z,85880,0.0078962715,-0.49797434,-1.3976911
1732202294038,2024-11-21T15:18:14.038Z,85892,-0.120427266,-0.65248716,-1.3509226
1732202294041,2024-11-21T15:18:14.041Z,85895,-0.120427266,-0.65248716,-1.3509226
1732202294057,2024-11-21T15:18:14.057Z,85911,0.2502402,-0.60661805,-1.4458232
1732202294064,2024-11-21T15:18:14.064Z,85918,0.2502402,-0.60661805,-1.4458232
1732202294084,2024-11-21T15:18:14.084Z,85938,0.11662841,-0.5752699,-1.2353203
1732202294089,2024-11-21T15:18:14.089Z,85943,0.11662841,-0.5752699,-1.2353203
1732202294106,2024-11-21T15:18:14.106Z,85960,0.2023796,-0.5770254,-1.2682337
1732202294112,2024-11-21T15:18:14.112Z,85966,0.2023796,-0.5770254,-1.2682337
1732202294135,2024-11-21T15:18:14.135Z,85989,0.012895169,-0.22003429,-1.1618512
1732202294141,2024-11-21T15:18:14.141Z,85995,0.012895169,-0.22003429,-1.1618512
1732202294154,2024-11-21T15:18:14.154Z,86008,-0.025562802,-0.11738723,-1.2691091
1732202294158,2024-11-21T15:18:14.158Z,86012,-0.025562802,-0.11738723,-1.2691091
1732202294169,2024-11-21T15:18:14.169Z,86023,0.15143621,-0.40073758,-1.2441788
1732202294172,2024-11-21T15:18:14.172Z,86026,0.15143621,-0.40073758,-1.2441788
1732202294183,2024-11-21T15:18:14.183Z,86037,0.13880724,-0.4520063,-1.3076116
1732202294186,2024-11-21T15:18:14.186Z,86040,0.13880724,-0.4520063,-1.3076116
1732202294217,2024-11-21T15:18:14.217Z,86071,-0.0067149545,-0.39426982,-1.4467671
1732202294220,2024-11-21T15:18:14.220Z,86074,-0.0067149545,-0.39426982,-1.4467671
1732202294230,2024-11-21T15:18:14.230Z,86084,-0.07864056,-0.50523186,-1.3464909
1732202294233,2024-11-21T15:18:14.233Z,86087,-0.07864056,-0.50523186,-1.3464909
1732202294240,2024-11-21T15:18:14.240Z,86094,-0.08002322,-0.71276593,-1.0914689
1732202294242,2024-11-21T15:18:14.242Z,86096,-0.08002322,-0.71276593,-1.0914689
1732202294248,2024-11-21T15:18:14.248Z,86102,0.041200634,-0.5535637,-1.0736203
1732202294250,2024-11-21T15:18:14.250Z,86104,0.041200634,-0.5535637,-1.0736203
1732202294355,2024-11-21T15:18:14.355Z,86209,0.03721287,-0.42325863,-1.0470159
1732202294362,2024-11-21T15:18:14.362Z,86216,0.03721287,-0.42325863,-1.0470159
1732202294382,2024-11-21T15:18:14.382Z,86236,-0.25949007,-0.62933624,-1.37612
1732202294387,2024-11-21T15:18:14.387Z,86241,-0.25949007,-0.62933624,-1.37612
1732202294407,2024-11-21T15:18:14.407Z,86261,-0.060965735,-1.0287509,-1.3844202
1732202294414,2024-11-21T15:18:14.414Z,86268,-0.060965735,-1.0287509,-1.3844202
1732202294434,2024-11-21T15:18:14.434Z,86288,0.19260123,-1.1763631,-1.4695206
1732202294440,2024-11-21T15:18:14.440Z,86294,0.19260123,-1.1763631,-1.4695206
1732202294458,2024-11-21T15:18:14.458Z,86312,-0.09072796,-0.78152007,-1.2955936
1732202294464,2024-11-21T15:18:14.464Z,86318,-0.09072796,-0.78152007,-1.2955936
1732202294485,2024-11-21T15:18:14.485Z,86339,-0.1509947,-0.9740226,-1.2890655
1732202294491,2024-11-21T15:18:14.491Z,86345,-0.1509947,-0.9740226,-1.2890655
1732202294511,2024-11-21T15:18:14.511Z,86365,-0.14292876,-1.0291775,-1.4075129
1732202294515,2024-11-21T15:18:14.515Z,86369,-0.14292876,-1.0291775,-1.4075129
1732202294528,2024-11-21T15:18:14.528Z,86382,-0.06516296,-0.92198455,-1.4264305
1732202294531,2024-11-21T15:18:14.531Z,86385,-0.06516296,-0.92198455,-1.4264305
1732202294576,2024-11-21T15:18:14.576Z,86430,0.05856255,-0.773166,-1.2811099
1732202294582,2024-11-21T15:18:14.582Z,86436,0.05856255,-0.773166,-1.2811099
1732202294620,2024-11-21T15:18:14.620Z,86474,-0.045001853,-0.5091167,-1.1313653
1732202294625,2024-11-21T15:18:14.625Z,86479,-0.045001853,-0.5091167,-1.1313653
1732202294644,2024-11-21T15:18:14.644Z,86498,-0.3213682,-0.52588457,-1.603132
1732202294649,2024-11-21T15:18:14.649Z,86503,-0.3213682,-0.52588457,-1.603132
1732202294661,2024-11-21T15:18:14.661Z,86515,-0.44561622,-0.6509171,-1.4755205
1732202294665,2024-11-21T15:18:14.665Z,86519,-0.44561622,-0.6509171,-1.4755205
1732202294676,2024-11-21T15:18:14.676Z,86530,-0.11046454,-1.022662,-1.301888
1732202294679,2024-11-21T15:18:14.679Z,86533,-0.11046454,-1.022662,-1.301888
1732202294690,2024-11-21T15:18:14.690Z,86544,-0.14898005,-0.4306906,-1.1808378
1732202294694,2024-11-21T15:18:14.694Z,86548,-0.14898005,-0.4306906,-1.1808378
1732202294703,2024-11-21T15:18:14.703Z,86557,0.3657027,-0.68436784,-1.2068404
1732202294707,2024-11-21T15:18:14.707Z,86561,0.3657027,-0.68436784,-1.2068404
1732202294715,2024-11-21T15:18:14.715Z,86569,0.18873373,-0.50478834,-1.1127354
1732202294718,2024-11-21T15:18:14.718Z,86572,0.18873373,-0.50478834,-1.1127354
1732202294726,2024-11-21T15:18:14.726Z,86580,-0.47187003,-0.61020285,-1.4304984
1732202294729,2024-11-21T15:18:14.729Z,86583,-0.47187003,-0.61020285,-1.4304984
1732202294736,2024-11-21T15:18:14.736Z,86590,-0.21342538,-0.7537556,-1.2967179
1732202294739,2024-11-21T15:18:14.739Z,86593,-0.21342538,-0.7537556,-1.2967179
1732202294802,2024-11-21T15:18:14.802Z,86656,-0.14853184,-0.40320235,-1.3721093
1732202294808,2024-11-21T15:18:14.808Z,86662,-0.14853184,-0.40320235,-1.3721093
1732202294846,2024-11-21T15:18:14.846Z,86700,-0.14198317,-0.6208436,-1.4357711
1732202294852,2024-11-21T15:18:14.852Z,86706,-0.14198317,-0.6208436,-1.4357711
1732202294869,2024-11-21T15:18:14.869Z,86723,0.03636731,-0.7846145,-1.2874959
1732202294873,2024-11-21T15:18:14.873Z,86727,0.03636731,-0.7846145,-1.2874959
1732202294891,2024-11-21T15:18:14.891Z,86745,-0.3070502,-0.2211782,-1.3122514
1732202294898,2024-11-21T15:18:14.898Z,86752,-0.3070502,-0.2211782,-1.3122514
1732202294921,2024-11-21T15:18:14.921Z,86775,-0.17553042,-0.48040596,-1.5191163
1732202294926,2024-11-21T15:18:14.926Z,86780,-0.17553042,-0.48040596,-1.5191163
1732202294945,2024-11-21T15:18:14.945Z,86799,-0.12375739,-0.75508773,-1.5824337
1732202294949,2024-11-21T15:18:14.949Z,86803,-0.12375739,-0.75508773,-1.5824337
1732202294965,2024-11-21T15:18:14.965Z,86819,-0.06902298,-0.8937065,-1.4287547
1732202294973,2024-11-21T15:18:14.973Z,86827,-0.06902298,-0.8937065,-1.4287547
1732202294996,2024-11-21T15:18:14.996Z,86850,-0.14916745,-0.65841883,-1.2182809
1732202295002,2024-11-21T15:18:15.002Z,86856,-0.14916745,-0.65841883,-1.2182809
1732202295021,2024-11-21T15:18:15.021Z,86875,-0.054475665,-0.7051207,-1.2732466
1732202295026,2024-11-21T15:18:15.026Z,86880,-0.054475665,-0.7051207,-1.2732466
1732202295037,2024-11-21T15:18:15.037Z,86891,-0.11755391,-0.7267912,-1.598597
1732202295040,2024-11-21T15:18:15.040Z,86894,-0.11755391,-0.7267912,-1.598597
1732202295051,2024-11-21T15:18:15.051Z,86905,-0.18026567,-0.7295798,-1.2980112
1732202295055,2024-11-21T15:18:15.055Z,86909,-0.18026567,-0.7295798,-1.2980112
1732202295067,2024-11-21T15:18:15.067Z,86921,-0.1874976,-0.67344874,-1.2826724
1732202295071,2024-11-21T15:18:15.071Z,86925,-0.1874976,-0.67344874,-1.2826724
1732202295082,2024-11-21T15:18:15.082Z,86936,-0.17029725,-0.81560475,-1.3460125
1732202295085,2024-11-21T15:18:15.085Z,86939,-0.17029725,-0.81560475,-1.3460125
1732202295095,2024-11-21T15:18:15.095Z,86949,-0.14209163,-0.88855606,-1.4195187
1732202295098,2024-11-21T15:18:15.098Z,86952,-0.14209163,-0.88855606,-1.4195187
1732202295108,2024-11-21T15:18:15.108Z,86962,-0.24467437,-0.8779004,-1.4149863
1732202295111,2024-11-21T15:18:15.111Z,86965,-0.24467437,-0.8779004,-1.4149863
1732202295124,2024-11-21T15:18:15.124Z,86978,-0.17955734,-0.9268749,-1.2182379
1732202295126,2024-11-21T15:18:15.126Z,86980,-0.17955734,-0.9268749,-1.2182379
1732202295133,2024-11-21T15:18:15.133Z,86987,-0.1796608,-0.78334147,-1.1832283
1732202295136,2024-11-21T15:18:15.136Z,86990,-0.1796608,-0.78334147,-1.1832283
1732202295143,2024-11-21T15:18:15.143Z,86997,-0.13074858,-0.7899394,-1.2901685
1732202295146,2024-11-21T15:18:15.146Z,87000,-0.13074858,-0.7899394,-1.2901685
1732202295154,2024-11-21T15:18:15.154Z,87008,-0.29288596,-1.0191718,-1.4089043
1732202295157,2024-11-21T15:18:15.157Z,87011,-0.29288596,-1.0191718,-1.4089043
1732202295164,2024-11-21T15:18:15.164Z,87018,-0.32080853,-0.85463315,-1.2999315
1732202295166,2024-11-21T15:18:15.166Z,87020,-0.32080853,-0.85463315,-1.2999315
1732202295173,2024-11-21T15:18:15.173Z,87027,-0.1693527,-0.85609645,-1.2552577
1732202295175,2024-11-21T15:18:15.175Z,87029,-0.1693527,-0.85609645,-1.2552577
1732202295183,2024-11-21T15:18:15.183Z,87037,-0.0835552,-0.9591823,-1.2976384
1732202295185,2024-11-21T15:18:15.185Z,87039,-0.0835552,-0.9591823,-1.2976384
1732202295193,2024-11-21T15:18:15.193Z,87047,-0.1676831,-0.9882911,-1.3442146
1732202295195,2024-11-21T15:18:15.195Z,87049,-0.1676831,-0.9882911,-1.3442146
1732202295202,2024-11-21T15:18:15.202Z,87056,-0.22940835,-1.0023943,-1.3283178
1732202295204,2024-11-21T15:18:15.204Z,87058,-0.22940835,-1.0023943,-1.3283178
1732202295293,2024-11-21T15:18:15.293Z,87147,-0.14219192,-1.0603915,-1.2429092
1732202295298,2024-11-21T15:18:15.298Z,87152,-0.14219192,-1.0603915,-1.2429092
1732202295316,2024-11-21T15:18:15.316Z,87170,-0.046717405,-0.94724,-1.1908488
1732202295322,2024-11-21T15:18:15.322Z,87176,-0.046717405,-0.94724,-1.1908488
1732202295341,2024-11-21T15:18:15.341Z,87195,-0.10258467,-0.9196135,-1.2251326
1732202295346,2024-11-21T15:18:15.346Z,87200,-0.10258467,-0.9196135,-1.2251326
1732202295356,2024-11-21T15:18:15.356Z,87210,-0.20071262,-1.0439336,-1.1993068
1732202295359,2024-11-21T15:18:15.359Z,87213,-0.20071262,-1.0439336,-1.1993068
1732202295383,2024-11-21T15:18:15.383Z,87237,-0.09552858,-0.9766287,-1.2281284
1732202295386,2024-11-21T15:18:15.386Z,87240,-0.09552858,-0.9766287,-1.2281284
1732202295396,2024-11-21T15:18:15.396Z,87250,-0.12018703,-1.0558481,-1.2202541
1732202295400,2024-11-21T15:18:15.400Z,87254,-0.12018703,-1.0558481,-1.2202541
1732202295410,2024-11-21T15:18:15.410Z,87264,-0.14374149,-1.0809553,-1.0753908
1732202295413,2024-11-21T15:18:15.413Z,87267,-0.14374149,-1.0809553,-1.0753908
1732202295427,2024-11-21T15:18:15.427Z,87281,-0.172196,-1.1200424,-1.0750458
1732202295430,2024-11-21T15:18:15.430Z,87284,-0.172196,-1.1200424,-1.0750458
1732202295440,2024-11-21T15:18:15.440Z,87294,-0.1902189,-1.151999,-1.0184919
1732202295442,2024-11-21T15:18:15.442Z,87296,-0.1902189,-1.151999,-1.0184919
1732202295451,2024-11-21T15:18:15.451Z,87305,-0.15720764,-1.1675797,-1.0302787
1732202295453,2024-11-21T15:18:15.453Z,87307,-0.15720764,-1.1675797,-1.0302787
1732202295471,2024-11-21T15:18:15.471Z,87325,-0.19515432,-1.1429634,-1.0439768
1732202295474,2024-11-21T15:18:15.474Z,87328,-0.19515432,-1.1429634,-1.0439768
1732202295519,2024-11-21T15:18:15.519Z,87373,-0.21455364,-1.1456198,-0.9760719
1732202295523,2024-11-21T15:18:15.523Z,87377,-0.21455364,-1.1456198,-0.9760719
1732202295532,2024-11-21T15:18:15.532Z,87386,-0.20886883,-1.0988148,-0.97291124
1732202295536,2024-11-21T15:18:15.536Z,87390,-0.20886883,-1.0988148,-0.97291124
1732202295545,2024-11-21T15:18:15.545Z,87399,-0.28255668,-1.1120706,-0.97907454
1732202295548,2024-11-21T15:18:15.548Z,87402,-0.28255668,-1.1120706,-0.97907454
1732202295563,2024-11-21T15:18:15.563Z,87417,-0.30748445,-1.2127916,-1.0389055
1732202295566,2024-11-21T15:18:15.566Z,87420,-0.30748445,-1.2127916,-1.0389055
1732202295576,2024-11-21T15:18:15.576Z,87430,-0.33773005,-1.1808503,-1.00271
1732202295579,2024-11-21T15:18:15.579Z,87433,-0.33773005,-1.1808503,-1.00271
1732202295612,2024-11-21T15:18:15.612Z,87466,-0.3598179,-1.1651773,-0.9826444
1732202295620,2024-11-21T15:18:15.620Z,87474,-0.3598179,-1.1651773,-0.9826444
1732202295706,2024-11-21T15:18:15.706Z,87560,-0.35867754,-1.156696,-0.9918986
1732202295714,2024-11-21T15:18:15.714Z,87568,-0.35867754,-1.156696,-0.9918986
1732202295734,2024-11-21T15:18:15.734Z,87588,-0.4167901,-1.14525,-1.0249705
1732202295737,2024-11-21T15:18:15.737Z,87591,-0.4167901,-1.14525,-1.0249705
1732202295749,2024-11-21T15:18:15.749Z,87603,-0.40463647,-1.1061233,-1.016801
1732202295753,2024-11-21T15:18:15.753Z,87607,-0.40463647,-1.1061233,-1.016801
1732202295764,2024-11-21T15:18:15.764Z,87618,-0.4513056,-1.0626963,-1.0609206
1732202295768,2024-11-21T15:18:15.768Z,87622,-0.4513056,-1.0626963,-1.0609206
1732202295779,2024-11-21T15:18:15.779Z,87633,-0.4549286,-1.1150981,-1.0457639
1732202295783,2024-11-21T15:18:15.783Z,87637,-0.4549286,-1.1150981,-1.0457639
1732202295793,2024-11-21T15:18:15.793Z,87647,-0.43167642,-1.0742666,-1.0401173
1732202295796,2024-11-21T15:18:15.796Z,87650,-0.43167642,-1.0742666,-1.0401173
1732202295805,2024-11-21T15:18:15.805Z,87659,-0.445945,-1.050266,-1.0641954
1732202295809,2024-11-21T15:18:15.809Z,87663,-0.445945,-1.050266,-1.0641954
1732202295832,2024-11-21T15:18:15.832Z,87686,-0.32964984,-0.95207983,-1.0656866
1732202295835,2024-11-21T15:18:15.835Z,87689,-0.32964984,-0.95207983,-1.0656866
1732202295845,2024-11-21T15:18:15.845Z,87699,-0.31926894,-0.9398885,-1.0681258
1732202295848,2024-11-21T15:18:15.848Z,87702,-0.31926894,-0.9398885,-1.0681258
1732202295880,2024-11-21T15:18:15.880Z,87734,-0.30331102,-0.92642266,-1.0602872
1732202295887,2024-11-21T15:18:15.887Z,87741,-0.30331102,-0.92642266,-1.0602872
1732202295929,2024-11-21T15:18:15.929Z,87783,-0.28670108,-0.98135245,-1.1207349
1732202295936,2024-11-21T15:18:15.936Z,87790,-0.28670108,-0.98135245,-1.1207349
1732202295971,2024-11-21T15:18:15.971Z,87825,-0.28448275,-1.0046173,-1.1236383
1732202295977,2024-11-21T15:18:15.977Z,87831,-0.28448275,-1.0046173,-1.1236383
1732202295999,2024-11-21T15:18:15.999Z,87853,-0.22727032,-1.0213281,-1.0791545
1732202296005,2024-11-21T15:18:16.005Z,87859,-0.22727032,-1.0213281,-1.0791545
1732202296029,2024-11-21T15:18:16.029Z,87883,-0.21369337,-1.1102692,-1.1705352
1732202296035,2024-11-21T15:18:16.035Z,87889,-0.21369337,-1.1102692,-1.1705352
1732202296048,2024-11-21T15:18:16.048Z,87902,-0.22929205,-1.1413941,-1.1715789
1732202296051,2024-11-21T15:18:16.051Z,87905,-0.22929205,-1.1413941,-1.1715789
1732202296062,2024-11-21T15:18:16.062Z,87916,-0.2665923,-1.1255227,-1.1311209
1732202296064,2024-11-21T15:18:16.064Z,87918,-0.2665923,-1.1255227,-1.1311209
1732202296073,2024-11-21T15:18:16.073Z,87927,-0.2063495,-1.0891786,-1.1701108
1732202296076,2024-11-21T15:18:16.076Z,87930,-0.2063495,-1.0891786,-1.1701108
1732202296084,2024-11-21T15:18:16.084Z,87938,-0.22393851,-1.0906588,-1.1643531
1732202296087,2024-11-21T15:18:16.087Z,87941,-0.22393851,-1.0906588,-1.1643531
1732202296095,2024-11-21T15:18:16.095Z,87949,-0.22195962,-0.9930426,-1.1119895
1732202296098,2024-11-21T15:18:16.098Z,87952,-0.22195962,-0.9930426,-1.1119895
1732202296105,2024-11-21T15:18:16.105Z,87959,-0.2292179,-0.965081,-1.1301332
1732202296108,2024-11-21T15:18:16.108Z,87962,-0.2292179,-0.965081,-1.1301332
1732202296115,2024-11-21T15:18:16.115Z,87969,-0.23225978,-0.96875215,-1.1214117
1732202296117,2024-11-21T15:18:16.117Z,87971,-0.23225978,-0.96875215,-1.1214117
1732202296125,2024-11-21T15:18:16.125Z,87979,-0.22417213,-0.9820925,-1.1380745
1732202296127,2024-11-21T15:18:16.127Z,87981,-0.22417213,-0.9820925,-1.1380745
1732202296195,2024-11-21T15:18:16.195Z,88049,-0.23216169,-0.9764685,-1.134173
1732202296198,2024-11-21T15:18:16.198Z,88052,-0.23216169,-0.9764685,-1.134173
1732202296217,2024-11-21T15:18:16.217Z,88071,-0.2241644,-0.84823257,-1.1175941
1732202296222,2024-11-21T15:18:16.222Z,88076,-0.2241644,-0.84823257,-1.1175941
1732202296233,2024-11-21T15:18:16.233Z,88087,-0.2224928,-0.8192648,-1.1128074
1732202296236,2024-11-21T15:18:16.236Z,88090,-0.2224928,-0.8192648,-1.1128074
1732202296247,2024-11-21T15:18:16.247Z,88101,-0.18485008,-0.79458106,-1.101309
1732202296250,2024-11-21T15:18:16.250Z,88104,-0.18485008,-0.79458106,-1.101309
1732202296261,2024-11-21T15:18:16.261Z,88115,-0.19055726,-0.7280524,-1.1083691
1732202296264,2024-11-21T15:18:16.264Z,88118,-0.19055726,-0.7280524,-1.1083691
1732202296273,2024-11-21T15:18:16.273Z,88127,-0.18841948,-0.7145646,-1.0956569
1732202296276,2024-11-21T15:18:16.276Z,88130,-0.18841948,-0.7145646,-1.0956569
1732202296284,2024-11-21T15:18:16.284Z,88138,-0.18069941,-0.6845537,-1.0937561
1732202296286,2024-11-21T15:18:16.286Z,88140,-0.18069941,-0.6845537,-1.0937561
1732202296294,2024-11-21T15:18:16.294Z,88148,-0.2203692,-0.6244162,-1.0755689
1732202296296,2024-11-21T15:18:16.296Z,88150,-0.2203692,-0.6244162,-1.0755689
1732202296303,2024-11-21T15:18:16.303Z,88157,-0.22371653,-0.6195916,-1.0469792
1732202296306,2024-11-21T15:18:16.306Z,88160,-0.22371653,-0.6195916,-1.0469792
1732202296420,2024-11-21T15:18:16.420Z,88274,-0.21987876,-0.60463274,-1.0057371
1732202296422,2024-11-21T15:18:16.422Z,88276,-0.21987876,-0.60463274,-1.0057371
1732202296429,2024-11-21T15:18:16.429Z,88283,-0.23552866,-0.5692845,-1.0402781
1732202296431,2024-11-21T15:18:16.431Z,88285,-0.23552866,-0.5692845,-1.0402781
1732202296439,2024-11-21T15:18:16.439Z,88293,-0.26789376,-0.58302104,-1.0743446
1732202296442,2024-11-21T15:18:16.442Z,88296,-0.26789376,-0.58302104,-1.0743446
1732202296452,2024-11-21T15:18:16.452Z,88306,-0.26443115,-0.61720264,-1.0834659
1732202296456,2024-11-21T15:18:16.456Z,88310,-0.26443115,-0.61720264,-1.0834659
1732202296468,2024-11-21T15:18:16.468Z,88322,-0.2871427,-0.58857256,-1.0456388
1732202296471,2024-11-21T15:18:16.471Z,88325,-0.2871427,-0.58857256,-1.0456388
1732202296480,2024-11-21T15:18:16.480Z,88334,-0.29110405,-0.5628863,-1.042311
1732202296482,2024-11-21T15:18:16.482Z,88336,-0.29110405,-0.5628863,-1.042311
1732202296492,2024-11-21T15:18:16.492Z,88346,-0.29465866,-0.5717153,-1.0262294
1732202296496,2024-11-21T15:18:16.496Z,88350,-0.29465866,-0.5717153,-1.0262294
1732202296508,2024-11-21T15:18:16.508Z,88362,-0.30069095,-0.55107754,-1.0219691
1732202296511,2024-11-21T15:18:16.511Z,88365,-0.30069095,-0.55107754,-1.0219691
1732202296517,2024-11-21T15:18:16.517Z,88371,-0.3010071,-0.5766369,-1.0422388
1732202296519,2024-11-21T15:18:16.519Z,88373,-0.3010071,-0.5766369,-1.0422388
1732202296551,2024-11-21T15:18:16.551Z,88405,-0.32026926,-0.58821523,-1.0664748
1732202296553,2024-11-21T15:18:16.553Z,88407,-0.32026926,-0.58821523,-1.0664748
1732202296563,2024-11-21T15:18:16.563Z,88417,-0.28451464,-0.48567528,-0.9495541
1732202296565,2024-11-21T15:18:16.565Z,88419,-0.28451464,-0.48567528,-0.9495541
1732202296573,2024-11-21T15:18:16.573Z,88427,-0.2715223,-0.47757608,-0.9173963
1732202296576,2024-11-21T15:18:16.576Z,88430,-0.2715223,-0.47757608,-0.9173963
1732202296596,2024-11-21T15:18:16.596Z,88450,-0.26654565,-0.4770285,-0.9388797
1732202296598,2024-11-21T15:18:16.598Z,88452,-0.26654565,-0.4770285,-0.9388797
1732202296605,2024-11-21T15:18:16.605Z,88459,-0.30301565,-0.52650636,-1.0003172
1732202296607,2024-11-21T15:18:16.607Z,88461,-0.30301565,-0.52650636,-1.0003172
1732202296615,2024-11-21T15:18:16.615Z,88469,-0.30315042,-0.54933405,-1.0119666
1732202296617,2024-11-21T15:18:16.617Z,88471,-0.30315042,-0.54933405,-1.0119666
1732202296641,2024-11-21T15:18:16.641Z,88495,-0.28447282,-0.55518246,-1.0002176
1732202296644,2024-11-21T15:18:16.644Z,88498,-0.28447282,-0.55518246,-1.0002176
1732202296650,2024-11-21T15:18:16.650Z,88504,-0.29413062,-0.94224936,-1.078171
1732202296653,2024-11-21T15:18:16.653Z,88507,-0.29413062,-0.94224936,-1.078171
