Timestamp (ms),ISO DateTime,Elapsed Time (ms),Acceleration X,Acceleration Y,Acceleration Z
1732436221012,2024-11-24T08:17:01.012Z,70623,-0.098869786,-0.20480806,-0.75653934
1732436221018,2024-11-24T08:17:01.018Z,70629,-0.098869786,-0.20480806,-0.75653934
1732436221041,2024-11-24T08:17:01.041Z,70652,-0.09540633,-0.20307647,-0.7560436
1732436221048,2024-11-24T08:17:01.048Z,70659,-0.09540633,-0.20307647,-0.7560436
1732436221069,2024-11-24T08:17:01.069Z,70680,-0.06656078,-0.20401846,-0.7407851
1732436221074,2024-11-24T08:17:01.074Z,70685,-0.06656078,-0.20401846,-0.7407851
1732436221089,2024-11-24T08:17:01.089Z,70700,-0.057401653,-0.13122933,-0.6867543
1732436221094,2024-11-24T08:17:01.094Z,70705,-0.057401653,-0.13122933,-0.6867543
1732436221107,2024-11-24T08:17:01.107Z,70718,-0.04139067,-0.1155015,-0.6579237
1732436221110,2024-11-24T08:17:01.110Z,70721,-0.04139067,-0.1155015,-0.6579237
1732436221123,2024-11-24T08:17:01.123Z,70734,-0.047310237,-0.098945566,-0.6120149
1732436221126,2024-11-24T08:17:01.126Z,70737,-0.047310237,-0.098945566,-0.6120149
1732436221139,2024-11-24T08:17:01.139Z,70750,-0.02655852,-0.06721675,-0.59695154
1732436221142,2024-11-24T08:17:01.142Z,70753,-0.02655852,-0.06721675,-0.59695154
1732436221154,2024-11-24T08:17:01.154Z,70765,-0.034730926,-0.05899027,-0.58342934
1732436221157,2024-11-24T08:17:01.157Z,70768,-0.034730926,-0.05899027,-0.58342934
1732436221170,2024-11-24T08:17:01.170Z,70781,-0.022963613,-0.050823502,-0.55669355
1732436221174,2024-11-24T08:17:01.174Z,70785,-0.022963613,-0.050823502,-0.55669355
1732436221187,2024-11-24T08:17:01.187Z,70798,-3.3244133E-4,-0.030886069,-0.54837275
1732436221190,2024-11-24T08:17:01.190Z,70801,-3.3244133E-4,-0.030886069,-0.54837275
1732436221202,2024-11-24T08:17:01.202Z,70813,-0.0037939495,-0.02736998,-0.53035045
1732436221206,2024-11-24T08:17:01.206Z,70817,-0.0037939495,-0.02736998,-0.53035045
1732436221218,2024-11-24T08:17:01.218Z,70829,-0.02277894,-0.012071748,-0.5106042
1732436221221,2024-11-24T08:17:01.221Z,70832,-0.02277894,-0.012071748,-0.5106042
1732436221234,2024-11-24T08:17:01.234Z,70845,0.015710004,-0.042856775,-0.4682899
1732436221237,2024-11-24T08:17:01.237Z,70848,0.015710004,-0.042856775,-0.4682899
1732436221248,2024-11-24T08:17:01.248Z,70859,-0.04284146,-0.036173817,-0.4658466
1732436221253,2024-11-24T08:17:01.253Z,70864,-0.04284146,-0.036173817,-0.4658466
1732436221267,2024-11-24T08:17:01.267Z,70878,0.0037053567,-0.03592525,-0.47867167
1732436221273,2024-11-24T08:17:01.273Z,70884,0.0037053567,-0.03592525,-0.47867167
1732436221290,2024-11-24T08:17:01.290Z,70901,0.014716011,-0.05002325,-0.50274324
1732436221293,2024-11-24T08:17:01.293Z,70904,0.014716011,-0.05002325,-0.50274324
1732436221308,2024-11-24T08:17:01.308Z,70919,-0.0063668564,-0.048670243,-0.5208097
1732436221312,2024-11-24T08:17:01.312Z,70923,-0.0063668564,-0.048670243,-0.5208097
1732436221326,2024-11-24T08:17:01.326Z,70937,0.005191083,-0.06589029,-0.5199615
1732436221331,2024-11-24T08:17:01.331Z,70942,0.005191083,-0.06589029,-0.5199615
1732436221344,2024-11-24T08:17:01.344Z,70955,0.006720838,-0.0908352,-0.46405667
1732436221348,2024-11-24T08:17:01.348Z,70959,0.006720838,-0.0908352,-0.46405667
1732436221360,2024-11-24T08:17:01.360Z,70971,0.03103729,-0.0966654,-0.456292
1732436221364,2024-11-24T08:17:01.364Z,70975,0.03103729,-0.0966654,-0.456292
1732436221379,2024-11-24T08:17:01.379Z,70990,0.047170393,-0.09245836,-0.47002664
1732436221382,2024-11-24T08:17:01.382Z,70993,0.047170393,-0.09245836,-0.47002664
1732436221395,2024-11-24T08:17:01.395Z,71006,0.028980257,-0.084272824,-0.48462388
1732436221398,2024-11-24T08:17:01.398Z,71009,0.028980257,-0.084272824,-0.48462388
1732436221412,2024-11-24T08:17:01.412Z,71023,0.020426761,-0.09130918,-0.5010878
1732436221415,2024-11-24T08:17:01.415Z,71026,0.020426761,-0.09130918,-0.5010878
1732436221429,2024-11-24T08:17:01.429Z,71040,0.05468025,-0.088258624,-0.4751823
1732436221434,2024-11-24T08:17:01.434Z,71045,0.05468025,-0.088258624,-0.4751823
1732436221447,2024-11-24T08:17:01.447Z,71058,0.05452424,-0.0714405,-0.42735305
1732436221451,2024-11-24T08:17:01.451Z,71062,0.05452424,-0.0714405,-0.42735305
1732436221464,2024-11-24T08:17:01.464Z,71075,0.0535795,-0.077640146,-0.4224925
1732436221468,2024-11-24T08:17:01.468Z,71079,0.0535795,-0.077640146,-0.4224925
1732436221480,2024-11-24T08:17:01.480Z,71091,0.026054146,-0.0755816,-0.43406183
1732436221484,2024-11-24T08:17:01.484Z,71095,0.026054146,-0.0755816,-0.43406183
1732436221497,2024-11-24T08:17:01.497Z,71108,0.061111484,-0.05560731,-0.38822767
1732436221501,2024-11-24T08:17:01.501Z,71112,0.061111484,-0.05560731,-0.38822767
1732436221514,2024-11-24T08:17:01.514Z,71125,0.050536964,-0.047511343,-0.37771925
1732436221519,2024-11-24T08:17:01.519Z,71130,0.050536964,-0.047511343,-0.37771925
1732436221533,2024-11-24T08:17:01.533Z,71144,0.031673096,-0.045013245,-0.3831274
1732436221537,2024-11-24T08:17:01.537Z,71148,0.031673096,-0.045013245,-0.3831274
1732436221549,2024-11-24T08:17:01.549Z,71160,0.02355573,-0.018387986,-0.30461973
1732436221554,2024-11-24T08:17:01.554Z,71165,0.02355573,-0.018387986,-0.30461973
1732436221565,2024-11-24T08:17:01.565Z,71176,0.019671997,-0.019032836,-0.29802188
1732436221569,2024-11-24T08:17:01.569Z,71180,0.019671997,-0.019032836,-0.29802188
1732436221581,2024-11-24T08:17:01.581Z,71192,-0.0082413545,-0.012577144,-0.300851
1732436221585,2024-11-24T08:17:01.585Z,71196,-0.0082413545,-0.012577144,-0.300851
1732436221596,2024-11-24T08:17:01.596Z,71207,-0.0015543832,-0.01842037,-0.3046189
1732436221600,2024-11-24T08:17:01.600Z,71211,-0.0015543832,-0.01842037,-0.3046189
1732436221611,2024-11-24T08:17:01.611Z,71222,-0.010762477,-0.016795458,-0.31334049
1732436221614,2024-11-24T08:17:01.614Z,71225,-0.010762477,-0.016795458,-0.31334049
1732436221635,2024-11-24T08:17:01.635Z,71246,0.0021955373,-0.022047127,-0.30822366
1732436221639,2024-11-24T08:17:01.639Z,71250,0.0021955373,-0.022047127,-0.30822366
1732436221650,2024-11-24T08:17:01.650Z,71261,-0.018477138,-0.03017723,-0.29106018
1732436221654,2024-11-24T08:17:01.654Z,71265,-0.018477138,-0.03017723,-0.29106018
1732436221666,2024-11-24T08:17:01.666Z,71277,-0.027775941,-0.051112425,-0.30275807
1732436221670,2024-11-24T08:17:01.670Z,71281,-0.027775941,-0.051112425,-0.30275807
1732436221728,2024-11-24T08:17:01.728Z,71339,-0.05008539,-0.082209915,-0.2824059
1732436221731,2024-11-24T08:17:01.731Z,71342,-0.05008539,-0.082209915,-0.2824059
1732436221744,2024-11-24T08:17:01.744Z,71355,-0.092964314,-0.1252356,-0.3221987
1732436221748,2024-11-24T08:17:01.748Z,71359,-0.092964314,-0.1252356,-0.3221987
1732436221760,2024-11-24T08:17:01.760Z,71371,-0.08009832,-0.16441467,-0.32119802
1732436221765,2024-11-24T08:17:01.765Z,71376,-0.08009832,-0.16441467,-0.32119802
1732436221777,2024-11-24T08:17:01.777Z,71388,-0.10439795,-0.17771144,-0.29196352
1732436221782,2024-11-24T08:17:01.782Z,71393,-0.10439795,-0.17771144,-0.29196352
1732436221794,2024-11-24T08:17:01.794Z,71405,-0.11744614,-0.24422072,-0.3196103
1732436221798,2024-11-24T08:17:01.798Z,71409,-0.11744614,-0.24422072,-0.3196103
1732436221810,2024-11-24T08:17:01.810Z,71421,-0.081816055,-0.23086715,-0.29360962
1732436221815,2024-11-24T08:17:01.815Z,71426,-0.081816055,-0.23086715,-0.29360962
1732436221828,2024-11-24T08:17:01.828Z,71439,-0.09992011,-0.22289827,-0.3209695
1732436221832,2024-11-24T08:17:01.832Z,71443,-0.09992011,-0.22289827,-0.3209695
1732436221844,2024-11-24T08:17:01.844Z,71455,0.0040351967,-0.14345185,-0.28955746
1732436221848,2024-11-24T08:17:01.848Z,71459,0.0040351967,-0.14345185,-0.28955746
1732436221859,2024-11-24T08:17:01.859Z,71470,0.0037693458,-0.12482065,-0.29744744
1732436221864,2024-11-24T08:17:01.864Z,71475,0.0037693458,-0.12482065,-0.29744744
1732436221876,2024-11-24T08:17:01.876Z,71487,-0.0040483736,-0.11388125,-0.29611
1732436221880,2024-11-24T08:17:01.880Z,71491,-0.0040483736,-0.11388125,-0.29611
1732436221891,2024-11-24T08:17:01.891Z,71502,0.023852166,-0.12402497,-0.31265053
1732436221895,2024-11-24T08:17:01.895Z,71506,0.023852166,-0.12402497,-0.31265053
1732436221906,2024-11-24T08:17:01.906Z,71517,-0.005729471,-0.11712612,-0.30406997
1732436221909,2024-11-24T08:17:01.909Z,71520,-0.005729471,-0.11712612,-0.30406997
1732436221920,2024-11-24T08:17:01.920Z,71531,0.016841773,-0.11652192,-0.31958938
1732436221924,2024-11-24T08:17:01.924Z,71535,0.016841773,-0.11652192,-0.31958938
1732436221954,2024-11-24T08:17:01.954Z,71565,0.059310116,-0.16457182,-0.3034632
1732436221957,2024-11-24T08:17:01.957Z,71568,0.059310116,-0.16457182,-0.3034632
1732436221968,2024-11-24T08:17:01.968Z,71579,0.036240894,-0.15268095,-0.24989337
1732436221971,2024-11-24T08:17:01.971Z,71582,0.036240894,-0.15268095,-0.24989337
1732436221982,2024-11-24T08:17:01.982Z,71593,-0.020674985,-0.1422276,-0.2638901
1732436221985,2024-11-24T08:17:01.985Z,71596,-0.020674985,-0.1422276,-0.2638901
1732436221998,2024-11-24T08:17:01.998Z,71609,0.025697028,-0.16519421,-0.28973192
1732436222002,2024-11-24T08:17:02.002Z,71613,0.025697028,-0.16519421,-0.28973192
1732436222014,2024-11-24T08:17:02.014Z,71625,0.00998768,-0.18011336,-0.3162772
1732436222019,2024-11-24T08:17:02.019Z,71630,0.00998768,-0.18011336,-0.3162772
1732436222030,2024-11-24T08:17:02.030Z,71641,-0.009852093,-0.16635942,-0.30162627
1732436222034,2024-11-24T08:17:02.034Z,71645,-0.009852093,-0.16635942,-0.30162627
1732436222045,2024-11-24T08:17:02.045Z,71656,-0.011117262,-0.17607749,-0.2820896
1732436222048,2024-11-24T08:17:02.048Z,71659,-0.011117262,-0.17607749,-0.2820896
1732436222059,2024-11-24T08:17:02.059Z,71670,0.028352814,-0.1308083,-0.28121138
1732436222062,2024-11-24T08:17:02.062Z,71673,0.028352814,-0.1308083,-0.28121138
1732436222074,2024-11-24T08:17:02.074Z,71685,0.024894273,-0.124672346,-0.24393933
1732436222078,2024-11-24T08:17:02.078Z,71689,0.024894273,-0.124672346,-0.24393933
1732436222089,2024-11-24T08:17:02.089Z,71700,-0.011419677,-0.09848276,-0.30451897
1732436222092,2024-11-24T08:17:02.092Z,71703,-0.011419677,-0.09848276,-0.30451897
1732436222102,2024-11-24T08:17:02.102Z,71713,0.07631558,-0.05940464,-0.25539637
1732436222105,2024-11-24T08:17:02.105Z,71716,0.07631558,-0.05940464,-0.25539637
1732436222115,2024-11-24T08:17:02.115Z,71726,0.08393338,-0.04037161,-0.24840331
1732436222118,2024-11-24T08:17:02.118Z,71729,0.08393338,-0.04037161,-0.24840331
1732436222129,2024-11-24T08:17:02.129Z,71740,0.09634878,0.003297281,-0.24409069
1732436222132,2024-11-24T08:17:02.132Z,71743,0.09634878,0.003297281,-0.24409069
1732436222142,2024-11-24T08:17:02.142Z,71753,0.11411985,0.051846065,-0.20786531
1732436222145,2024-11-24T08:17:02.145Z,71756,0.11411985,0.051846065,-0.20786531
1732436222156,2024-11-24T08:17:02.156Z,71767,0.06198173,0.056406885,-0.2732392
1732436222159,2024-11-24T08:17:02.159Z,71770,0.06198173,0.056406885,-0.2732392
1732436222174,2024-11-24T08:17:02.174Z,71785,0.07695185,0.004458127,-0.29513693
1732436222178,2024-11-24T08:17:02.178Z,71789,0.07695185,0.004458127,-0.29513693
1732436222189,2024-11-24T08:17:02.189Z,71800,0.13697238,0.025956485,-0.21143311
1732436222192,2024-11-24T08:17:02.192Z,71803,0.13697238,0.025956485,-0.21143311
1732436222202,2024-11-24T08:17:02.202Z,71813,0.114248976,0.03952186,-0.19395716
1732436222206,2024-11-24T08:17:02.206Z,71817,0.114248976,0.03952186,-0.19395716
1732436222216,2024-11-24T08:17:02.216Z,71827,0.04823645,0.063651256,-0.21480009
1732436222221,2024-11-24T08:17:02.221Z,71832,0.04823645,0.063651256,-0.21480009
1732436222232,2024-11-24T08:17:02.232Z,71843,0.102275394,0.008220641,-0.119126275
1732436222236,2024-11-24T08:17:02.236Z,71847,0.102275394,0.008220641,-0.119126275
1732436222247,2024-11-24T08:17:02.247Z,71858,0.086375326,0.028014246,-0.0725985
1732436222251,2024-11-24T08:17:02.251Z,71862,0.086375326,0.028014246,-0.0725985
1732436222264,2024-11-24T08:17:02.264Z,71875,0.040387705,0.051117387,-0.10535096
1732436222267,2024-11-24T08:17:02.267Z,71878,0.040387705,0.051117387,-0.10535096
1732436222278,2024-11-24T08:17:02.278Z,71889,0.15387298,0.09790083,-0.101876184
1732436222282,2024-11-24T08:17:02.282Z,71893,0.15387298,0.09790083,-0.101876184
1732436222294,2024-11-24T08:17:02.294Z,71905,0.11430024,0.10332365,-0.1397344
1732436222297,2024-11-24T08:17:02.297Z,71908,0.11430024,0.10332365,-0.1397344
1732436222307,2024-11-24T08:17:02.307Z,71918,0.020940933,0.1168902,-0.17027205
1732436222310,2024-11-24T08:17:02.310Z,71921,0.020940933,0.1168902,-0.17027205
1732436222323,2024-11-24T08:17:02.323Z,71934,0.12793961,0.16437684,-0.1184367
1732436222331,2024-11-24T08:17:02.331Z,71942,0.12793961,0.16437684,-0.1184367
1732436222358,2024-11-24T08:17:02.358Z,71969,0.018823948,0.15790237,-0.16567905
1732436222364,2024-11-24T08:17:02.364Z,71975,0.018823948,0.15790237,-0.16567905
1732436222388,2024-11-24T08:17:02.388Z,71999,0.1673233,0.11907798,-0.123480216
1732436222396,2024-11-24T08:17:02.396Z,72007,0.1673233,0.11907798,-0.123480216
1732436222415,2024-11-24T08:17:02.415Z,72026,0.114560604,0.130522,-0.20799184
1732436222418,2024-11-24T08:17:02.418Z,72029,0.114560604,0.130522,-0.20799184
1732436222429,2024-11-24T08:17:02.429Z,72040,0.039068952,0.1064597,-0.1729383
1732436222433,2024-11-24T08:17:02.433Z,72044,0.039068952,0.1064597,-0.1729383
1732436222444,2024-11-24T08:17:02.444Z,72055,-0.069544904,0.10532861,-0.26410225
1732436222447,2024-11-24T08:17:02.447Z,72058,-0.069544904,0.10532861,-0.26410225
1732436222457,2024-11-24T08:17:02.457Z,72068,-0.037079312,0.057684135,-0.24892347
1732436222460,2024-11-24T08:17:02.460Z,72071,-0.037079312,0.057684135,-0.24892347
1732436222470,2024-11-24T08:17:02.470Z,72081,0.017479425,0.03853499,-0.17211385
1732436222473,2024-11-24T08:17:02.473Z,72084,0.017479425,0.03853499,-0.17211385
1732436222484,2024-11-24T08:17:02.484Z,72095,0.030183528,0.036235373,-0.20816927
1732436222488,2024-11-24T08:17:02.488Z,72099,0.030183528,0.036235373,-0.20816927
1732436222498,2024-11-24T08:17:02.498Z,72109,-0.012667512,0.07895999,-0.22068292
1732436222501,2024-11-24T08:17:02.501Z,72112,-0.012667512,0.07895999,-0.22068292
1732436222512,2024-11-24T08:17:02.512Z,72123,0.023388367,0.09463136,-0.20229079
1732436222515,2024-11-24T08:17:02.515Z,72126,0.023388367,0.09463136,-0.20229079
1732436222526,2024-11-24T08:17:02.526Z,72137,0.065503165,0.10824283,-0.15746717
1732436222528,2024-11-24T08:17:02.528Z,72139,0.065503165,0.10824283,-0.15746717
1732436222539,2024-11-24T08:17:02.539Z,72150,0.051267732,0.17250063,-0.21650429
1732436222543,2024-11-24T08:17:02.543Z,72154,0.051267732,0.17250063,-0.21650429
1732436222556,2024-11-24T08:17:02.556Z,72167,0.04608703,0.19796197,-0.16942234
1732436222559,2024-11-24T08:17:02.559Z,72170,0.04608703,0.19796197,-0.16942234
1732436222568,2024-11-24T08:17:02.568Z,72179,-0.07778874,0.18750775,-0.20877546
1732436222572,2024-11-24T08:17:02.572Z,72183,-0.07778874,0.18750775,-0.20877546
1732436222582,2024-11-24T08:17:02.582Z,72193,0.012229484,0.179764,-0.3164435
1732436222585,2024-11-24T08:17:02.585Z,72196,0.012229484,0.179764,-0.3164435
1732436222595,2024-11-24T08:17:02.595Z,72206,0.25697142,0.18526278,-0.24027246
1732436222598,2024-11-24T08:17:02.598Z,72209,0.25697142,0.18526278,-0.24027246
1732436222609,2024-11-24T08:17:02.609Z,72220,0.1748325,0.26496753,-0.239436
1732436222612,2024-11-24T08:17:02.612Z,72223,0.1748325,0.26496753,-0.239436
1732436222624,2024-11-24T08:17:02.624Z,72235,0.12201284,0.19771749,-0.23045263
1732436222627,2024-11-24T08:17:02.627Z,72238,0.12201284,0.19771749,-0.23045263
1732436222636,2024-11-24T08:17:02.636Z,72247,0.10387343,0.18068212,-0.2422559
1732436222639,2024-11-24T08:17:02.639Z,72250,0.10387343,0.18068212,-0.2422559
1732436222649,2024-11-24T08:17:02.649Z,72260,0.089287356,0.14016196,-0.20091899
1732436222652,2024-11-24T08:17:02.652Z,72263,0.089287356,0.14016196,-0.20091899
1732436222662,2024-11-24T08:17:02.662Z,72273,-0.10734555,0.09495199,-0.36096862
1732436222665,2024-11-24T08:17:02.665Z,72276,-0.10734555,0.09495199,-0.36096862
1732436222677,2024-11-24T08:17:02.677Z,72288,0.042677086,0.0668474,-0.26601052
1732436222679,2024-11-24T08:17:02.679Z,72290,0.042677086,0.0668474,-0.26601052
1732436222688,2024-11-24T08:17:02.688Z,72299,-0.047063127,0.068551764,-0.27967376
1732436222691,2024-11-24T08:17:02.691Z,72302,-0.047063127,0.068551764,-0.27967376
1732436222702,2024-11-24T08:17:02.702Z,72313,-0.08929091,0.04329556,-0.32100645
1732436222706,2024-11-24T08:17:02.706Z,72317,-0.08929091,0.04329556,-0.32100645
1732436222718,2024-11-24T08:17:02.718Z,72329,0.05891512,0.0044427617,-0.3102659
1732436222722,2024-11-24T08:17:02.722Z,72333,0.05891512,0.0044427617,-0.3102659
1732436222735,2024-11-24T08:17:02.735Z,72346,0.026261138,0.038083762,-0.32852608
1732436222740,2024-11-24T08:17:02.740Z,72351,0.026261138,0.038083762,-0.32852608
1732436222761,2024-11-24T08:17:02.761Z,72372,0.013184286,0.029941598,-0.2944535
1732436222768,2024-11-24T08:17:02.768Z,72379,0.013184286,0.029941598,-0.2944535
1732436222789,2024-11-24T08:17:02.789Z,72400,-0.11968573,0.023683708,-0.31344676
1732436222793,2024-11-24T08:17:02.793Z,72404,-0.11968573,0.023683708,-0.31344676
1732436222811,2024-11-24T08:17:02.811Z,72422,-0.07021871,-0.017340338,-0.26990628
1732436222818,2024-11-24T08:17:02.818Z,72429,-0.07021871,-0.017340338,-0.26990628
1732436222840,2024-11-24T08:17:02.840Z,72451,-0.096452326,-0.008996386,-0.2639192
1732436222843,2024-11-24T08:17:02.843Z,72454,-0.096452326,-0.008996386,-0.2639192
1732436222856,2024-11-24T08:17:02.856Z,72467,0.014257074,0.034843467,-0.29284197
1732436222861,2024-11-24T08:17:02.861Z,72472,0.014257074,0.034843467,-0.29284197
1732436222875,2024-11-24T08:17:02.875Z,72486,-0.042127054,0.045848213,-0.30308017
1732436222879,2024-11-24T08:17:02.879Z,72490,-0.042127054,0.045848213,-0.30308017
1732436222892,2024-11-24T08:17:02.892Z,72503,-0.0829187,0.057843816,-0.38457826
1732436222895,2024-11-24T08:17:02.895Z,72506,-0.0829187,0.057843816,-0.38457826
1732436222906,2024-11-24T08:17:02.906Z,72517,-0.06816705,0.027229069,-0.34187883
1732436222910,2024-11-24T08:17:02.910Z,72521,-0.06816705,0.027229069,-0.34187883
1732436222925,2024-11-24T08:17:02.925Z,72536,-0.050281446,0.03283073,-0.27294886
1732436222935,2024-11-24T08:17:02.935Z,72546,-0.050281446,0.03283073,-0.27294886
1732436222965,2024-11-24T08:17:02.965Z,72576,-0.10049443,0.023996457,-0.33320242
1732436222973,2024-11-24T08:17:02.973Z,72584,-0.10049443,0.023996457,-0.33320242
1732436223000,2024-11-24T08:17:03Z,72611,-0.03283224,0.053268213,-0.29302138
1732436223007,2024-11-24T08:17:03.007Z,72618,-0.03283224,0.053268213,-0.29302138
1732436223033,2024-11-24T08:17:03.033Z,72644,-0.092830844,0.11238996,-0.29296687
1732436223042,2024-11-24T08:17:03.042Z,72653,-0.092830844,0.11238996,-0.29296687
1732436223070,2024-11-24T08:17:03.070Z,72681,-0.12290507,0.105148315,-0.37098894
1732436223078,2024-11-24T08:17:03.078Z,72689,-0.12290507,0.105148315,-0.37098894
1732436223106,2024-11-24T08:17:03.106Z,72717,0.003411085,0.08921175,-0.30454183
1732436223114,2024-11-24T08:17:03.114Z,72725,0.003411085,0.08921175,-0.30454183
1732436223141,2024-11-24T08:17:03.141Z,72752,-0.029092724,0.14659034,-0.31629547
1732436223150,2024-11-24T08:17:03.150Z,72761,-0.029092724,0.14659034,-0.31629547
1732436223174,2024-11-24T08:17:03.174Z,72785,-0.013612346,0.10702471,-0.34616312
1732436223179,2024-11-24T08:17:03.179Z,72790,-0.013612346,0.10702471,-0.34616312
1732436223196,2024-11-24T08:17:03.196Z,72807,-0.055727996,0.14297359,-0.34818518
1732436223201,2024-11-24T08:17:03.201Z,72812,-0.055727996,0.14297359,-0.34818518
1732436223214,2024-11-24T08:17:03.214Z,72825,-0.03183078,0.11249071,-0.31054544
1732436223218,2024-11-24T08:17:03.218Z,72829,-0.03183078,0.11249071,-0.31054544
1732436223229,2024-11-24T08:17:03.229Z,72840,-0.022341982,0.09022643,-0.30465513
1732436223233,2024-11-24T08:17:03.233Z,72844,-0.022341982,0.09022643,-0.30465513
1732436223243,2024-11-24T08:17:03.243Z,72854,0.019532155,0.04404699,-0.2758437
1732436223246,2024-11-24T08:17:03.246Z,72857,0.019532155,0.04404699,-0.2758437
1732436223257,2024-11-24T08:17:03.257Z,72868,-0.046874054,0.03335538,-0.33173636
1732436223261,2024-11-24T08:17:03.261Z,72872,-0.046874054,0.03335538,-0.33173636
1732436223276,2024-11-24T08:17:03.276Z,72887,-0.03465014,0.018742066,-0.31257352
1732436223280,2024-11-24T08:17:03.280Z,72891,-0.03465014,0.018742066,-0.31257352
1732436223291,2024-11-24T08:17:03.291Z,72902,-0.038862765,-0.0042278445,-0.288116
1732436223294,2024-11-24T08:17:03.294Z,72905,-0.038862765,-0.0042278445,-0.288116
1732436223306,2024-11-24T08:17:03.306Z,72917,-0.03985824,0.0043017524,-0.24952942
1732436223309,2024-11-24T08:17:03.309Z,72920,-0.03985824,0.0043017524,-0.24952942
1732436223319,2024-11-24T08:17:03.319Z,72930,-0.036797974,0.024127353,-0.2639627
1732436223322,2024-11-24T08:17:03.322Z,72933,-0.036797974,0.024127353,-0.2639627
1732436223332,2024-11-24T08:17:03.332Z,72943,-0.048063636,0.0485871,-0.24518065
1732436223335,2024-11-24T08:17:03.335Z,72946,-0.048063636,0.0485871,-0.24518065
1732436223347,2024-11-24T08:17:03.347Z,72958,0.0070459372,0.050430622,-0.17917581
1732436223354,2024-11-24T08:17:03.354Z,72965,0.0070459372,0.050430622,-0.17917581
1732436223373,2024-11-24T08:17:03.373Z,72984,-0.039599925,0.06403256,-0.21258457
1732436223376,2024-11-24T08:17:03.376Z,72987,-0.039599925,0.06403256,-0.21258457
1732436223392,2024-11-24T08:17:03.392Z,73003,-0.03872217,0.054353885,-0.3490032
1732436223399,2024-11-24T08:17:03.399Z,73010,-0.03872217,0.054353885,-0.3490032
1732436223423,2024-11-24T08:17:03.423Z,73034,-0.058926452,0.021828903,-0.364096
1732436223429,2024-11-24T08:17:03.429Z,73040,-0.058926452,0.021828903,-0.364096
1732436223453,2024-11-24T08:17:03.453Z,73064,-0.007395154,0.057063792,-0.2632586
1732436223460,2024-11-24T08:17:03.460Z,73071,-0.007395154,0.057063792,-0.2632586
1732436223478,2024-11-24T08:17:03.478Z,73089,0.003445219,0.060383927,-0.25947493
1732436223482,2024-11-24T08:17:03.482Z,73093,0.003445219,0.060383927,-0.25947493
1732436223496,2024-11-24T08:17:03.496Z,73107,-0.06335132,0.06322161,-0.26045185
1732436223501,2024-11-24T08:17:03.501Z,73112,-0.06335132,0.06322161,-0.26045185
1732436223515,2024-11-24T08:17:03.515Z,73126,-0.052435312,0.06210735,-0.27095342
1732436223519,2024-11-24T08:17:03.519Z,73130,-0.052435312,0.06210735,-0.27095342
1732436223531,2024-11-24T08:17:03.531Z,73142,-0.023933465,0.034740385,-0.25580955
1732436223535,2024-11-24T08:17:03.535Z,73146,-0.023933465,0.034740385,-0.25580955
1732436223546,2024-11-24T08:17:03.546Z,73157,0.0030068993,0.06894795,-0.33417422
1732436223549,2024-11-24T08:17:03.549Z,73160,0.0030068993,0.06894795,-0.33417422
1732436223560,2024-11-24T08:17:03.560Z,73171,-6.4234546E-4,0.047346704,-0.30991116
1732436223564,2024-11-24T08:17:03.564Z,73175,-6.4234546E-4,0.047346704,-0.30991116
1732436223576,2024-11-24T08:17:03.576Z,73187,-0.008797612,0.06630855,-0.29481515
1732436223581,2024-11-24T08:17:03.581Z,73192,-0.008797612,0.06630855,-0.29481515
1732436223589,2024-11-24T08:17:03.589Z,73200,-0.025003409,0.0018750331,-0.1961643
1732436223592,2024-11-24T08:17:03.592Z,73203,-0.025003409,0.0018750331,-0.1961643
1732436223603,2024-11-24T08:17:03.603Z,73214,-0.05624657,0.043585066,-0.22390921
1732436223606,2024-11-24T08:17:03.606Z,73217,-0.05624657,0.043585066,-0.22390921
1732436223617,2024-11-24T08:17:03.617Z,73228,-0.010289951,0.028610082,-0.25856045
1732436223620,2024-11-24T08:17:03.620Z,73231,-0.010289951,0.028610082,-0.25856045
1732436223632,2024-11-24T08:17:03.632Z,73243,-0.051080406,0.018133003,-0.34883994
1732436223634,2024-11-24T08:17:03.634Z,73245,-0.051080406,0.018133003,-0.34883994
1732436223643,2024-11-24T08:17:03.643Z,73254,0.0106320195,0.01239568,-0.32775563
1732436223646,2024-11-24T08:17:03.646Z,73257,0.0106320195,0.01239568,-0.32775563
1732436223656,2024-11-24T08:17:03.656Z,73267,0.006555833,0.024853988,-0.31023943
1732436223659,2024-11-24T08:17:03.659Z,73270,0.006555833,0.024853988,-0.31023943
1732436223668,2024-11-24T08:17:03.668Z,73279,-0.023877377,0.030189872,-0.20985247
1732436223671,2024-11-24T08:17:03.671Z,73282,-0.023877377,0.030189872,-0.20985247
1732436223682,2024-11-24T08:17:03.682Z,73293,-0.037054323,0.0508766,-0.23947783
1732436223686,2024-11-24T08:17:03.686Z,73297,-0.037054323,0.0508766,-0.23947783
1732436223698,2024-11-24T08:17:03.698Z,73309,-0.021110049,0.04948985,-0.2701231
1732436223701,2024-11-24T08:17:03.701Z,73312,-0.021110049,0.04948985,-0.2701231
1732436223714,2024-11-24T08:17:03.714Z,73325,0.028177915,0.03199051,-0.26402822
1732436223717,2024-11-24T08:17:03.717Z,73328,0.028177915,0.03199051,-0.26402822
1732436223729,2024-11-24T08:17:03.729Z,73340,0.047537528,0.030616693,-0.2601522
1732436223732,2024-11-24T08:17:03.732Z,73343,0.047537528,0.030616693,-0.2601522
1732436223744,2024-11-24T08:17:03.744Z,73355,0.024323162,0.0513925,-0.23587005
1732436223751,2024-11-24T08:17:03.751Z,73362,0.024323162,0.0513925,-0.23587005
1732436223770,2024-11-24T08:17:03.770Z,73381,0.029322568,0.055419527,-0.21725526
1732436223775,2024-11-24T08:17:03.775Z,73386,0.029322568,0.055419527,-0.21725526
1732436223796,2024-11-24T08:17:03.796Z,73407,-0.009074403,0.07081559,-0.22814691
1732436223804,2024-11-24T08:17:03.804Z,73415,-0.009074403,0.07081559,-0.22814691
1732436223823,2024-11-24T08:17:03.823Z,73434,0.041683286,0.072936274,-0.23081023
1732436223827,2024-11-24T08:17:03.827Z,73438,0.041683286,0.072936274,-0.23081023
1732436223841,2024-11-24T08:17:03.841Z,73452,0.102722324,0.030844543,-0.20591734
1732436223845,2024-11-24T08:17:03.845Z,73456,0.102722324,0.030844543,-0.20591734
1732436223858,2024-11-24T08:17:03.858Z,73469,0.07888895,0.04938443,-0.20308399
1732436223862,2024-11-24T08:17:03.862Z,73473,0.07888895,0.04938443,-0.20308399
1732436223873,2024-11-24T08:17:03.873Z,73484,-0.033358883,0.05425382,-0.258626
1732436223876,2024-11-24T08:17:03.876Z,73487,-0.033358883,0.05425382,-0.258626
1732436223888,2024-11-24T08:17:03.888Z,73499,0.059464645,0.057487305,-0.18542518
1732436223891,2024-11-24T08:17:03.891Z,73502,0.059464645,0.057487305,-0.18542518
1732436223907,2024-11-24T08:17:03.907Z,73518,0.03427165,0.060673237,-0.23577884
1732436223911,2024-11-24T08:17:03.911Z,73522,0.03427165,0.060673237,-0.23577884
1732436223922,2024-11-24T08:17:03.922Z,73533,0.07880551,0.06764288,-0.23584941
1732436223928,2024-11-24T08:17:03.928Z,73539,0.07880551,0.06764288,-0.23584941
1732436223944,2024-11-24T08:17:03.944Z,73555,0.12734182,0.0932449,-0.2344385
1732436223947,2024-11-24T08:17:03.947Z,73558,0.12734182,0.0932449,-0.2344385
1732436223958,2024-11-24T08:17:03.958Z,73569,0.07486063,0.090600155,-0.2579544
1732436223961,2024-11-24T08:17:03.961Z,73572,0.07486063,0.090600155,-0.2579544
1732436223971,2024-11-24T08:17:03.971Z,73582,0.04603471,0.08755931,-0.2665867
1732436223975,2024-11-24T08:17:03.975Z,73586,0.04603471,0.08755931,-0.2665867
1732436223985,2024-11-24T08:17:03.985Z,73596,0.101071,0.006969744,-0.2677319
1732436223988,2024-11-24T08:17:03.988Z,73599,0.101071,0.006969744,-0.2677319
1732436223998,2024-11-24T08:17:03.998Z,73609,0.071483366,-0.007058628,-0.21659629
1732436224001,2024-11-24T08:17:04.001Z,73612,0.071483366,-0.007058628,-0.21659629
1732436224011,2024-11-24T08:17:04.011Z,73622,0.06332039,-0.017177641,-0.20111029
1732436224015,2024-11-24T08:17:04.015Z,73626,0.06332039,-0.017177641,-0.20111029
1732436224026,2024-11-24T08:17:04.026Z,73637,-0.065496214,-0.03966715,-0.32367364
1732436224029,2024-11-24T08:17:04.029Z,73640,-0.065496214,-0.03966715,-0.32367364
1732436224038,2024-11-24T08:17:04.038Z,73649,-0.006288961,-0.041807864,-0.3116948
1732436224041,2024-11-24T08:17:04.041Z,73652,-0.006288961,-0.041807864,-0.3116948
1732436224050,2024-11-24T08:17:04.050Z,73661,0.092851706,-0.066044815,-0.29488322
1732436224053,2024-11-24T08:17:04.053Z,73664,0.092851706,-0.066044815,-0.29488322
1732436224065,2024-11-24T08:17:04.065Z,73676,0.03373929,-0.028077653,-0.3043456
1732436224067,2024-11-24T08:17:04.067Z,73678,0.03373929,-0.028077653,-0.3043456
1732436224077,2024-11-24T08:17:04.077Z,73688,0.07248548,-0.02584815,-0.27063522
1732436224080,2024-11-24T08:17:04.080Z,73691,0.07248548,-0.02584815,-0.27063522
1732436224090,2024-11-24T08:17:04.090Z,73701,0.03409923,-0.029976122,-0.28982157
1732436224093,2024-11-24T08:17:04.093Z,73704,0.03409923,-0.029976122,-0.28982157
1732436224103,2024-11-24T08:17:04.103Z,73714,0.088782154,0.016211972,-0.2556628
1732436224108,2024-11-24T08:17:04.108Z,73719,0.088782154,0.016211972,-0.2556628
1732436224119,2024-11-24T08:17:04.119Z,73730,0.09292598,0.0061703674,-0.27748463
1732436224122,2024-11-24T08:17:04.122Z,73733,0.09292598,0.0061703674,-0.27748463
1732436224132,2024-11-24T08:17:04.132Z,73743,0.08830093,0.058130212,-0.25442967
1732436224134,2024-11-24T08:17:04.134Z,73745,0.08830093,0.058130212,-0.25442967
1732436224147,2024-11-24T08:17:04.147Z,73758,0.11304048,0.046727236,-0.2693383
1732436224150,2024-11-24T08:17:04.150Z,73761,0.11304048,0.046727236,-0.2693383
1732436224165,2024-11-24T08:17:04.165Z,73776,0.14031778,0.10743879,-0.21191262
1732436224168,2024-11-24T08:17:04.168Z,73779,0.14031778,0.10743879,-0.21191262
1732436224184,2024-11-24T08:17:04.184Z,73795,0.103110634,0.064642206,-0.26146004
1732436224191,2024-11-24T08:17:04.191Z,73802,0.103110634,0.064642206,-0.26146004
1732436224207,2024-11-24T08:17:04.207Z,73818,0.12391287,0.11170534,-0.21523608
1732436224210,2024-11-24T08:17:04.210Z,73821,0.12391287,0.11170534,-0.21523608
1732436224220,2024-11-24T08:17:04.220Z,73831,0.110541575,0.078539394,-0.24468318
1732436224223,2024-11-24T08:17:04.223Z,73834,0.110541575,0.078539394,-0.24468318
1732436224234,2024-11-24T08:17:04.234Z,73845,0.09699334,0.0942732,-0.25618604
1732436224237,2024-11-24T08:17:04.237Z,73848,0.09699334,0.0942732,-0.25618604
1732436224247,2024-11-24T08:17:04.247Z,73858,0.15203394,0.02750535,-0.176467
1732436224250,2024-11-24T08:17:04.250Z,73861,0.15203394,0.02750535,-0.176467
1732436224259,2024-11-24T08:17:04.259Z,73870,0.08743449,0.048255775,-0.19739956
1732436224262,2024-11-24T08:17:04.262Z,73873,0.08743449,0.048255775,-0.19739956
1732436224271,2024-11-24T08:17:04.271Z,73882,0.03468758,0.023539199,-0.23471451
1732436224275,2024-11-24T08:17:04.275Z,73886,0.03468758,0.023539199,-0.23471451
1732436224285,2024-11-24T08:17:04.285Z,73896,0.02924302,-0.009298146,-0.26248795
1732436224289,2024-11-24T08:17:04.289Z,73900,0.02924302,-0.009298146,-0.26248795
1732436224304,2024-11-24T08:17:04.304Z,73915,0.0418331,0.0071816463,-0.25663713
1732436224310,2024-11-24T08:17:04.310Z,73921,0.0418331,0.0071816463,-0.25663713
1732436224334,2024-11-24T08:17:04.334Z,73945,0.022146003,-0.030525474,-0.29816148
1732436224337,2024-11-24T08:17:04.337Z,73948,0.022146003,-0.030525474,-0.29816148
1732436224351,2024-11-24T08:17:04.351Z,73962,0.09730815,-0.060505874,-0.26272342
1732436224355,2024-11-24T08:17:04.355Z,73966,0.09730815,-0.060505874,-0.26272342
1732436224368,2024-11-24T08:17:04.368Z,73979,0.010267146,-0.044215813,-0.31479126
1732436224372,2024-11-24T08:17:04.372Z,73983,0.010267146,-0.044215813,-0.31479126
1732436224384,2024-11-24T08:17:04.384Z,73995,0.0589353,-0.026441654,-0.27039498
1732436224387,2024-11-24T08:17:04.387Z,73998,0.0589353,-0.026441654,-0.27039498
1732436224398,2024-11-24T08:17:04.398Z,74009,0.024861768,-0.023652978,-0.283025
1732436224401,2024-11-24T08:17:04.401Z,74012,0.024861768,-0.023652978,-0.283025
1732436224412,2024-11-24T08:17:04.412Z,74023,0.028174972,-0.020838533,-0.23262689
1732436224416,2024-11-24T08:17:04.416Z,74027,0.028174972,-0.020838533,-0.23262689
1732436224429,2024-11-24T08:17:04.429Z,74040,0.019342545,-0.03611148,-0.22658253
1732436224433,2024-11-24T08:17:04.433Z,74044,0.019342545,-0.03611148,-0.22658253
1732436224445,2024-11-24T08:17:04.445Z,74056,0.014906032,-0.018627703,-0.22396477
1732436224448,2024-11-24T08:17:04.448Z,74059,0.014906032,-0.018627703,-0.22396477
1732436224459,2024-11-24T08:17:04.459Z,74070,0.056254182,-0.021638006,-0.27398935
1732436224463,2024-11-24T08:17:04.463Z,74074,0.056254182,-0.021638006,-0.27398935
1732436224475,2024-11-24T08:17:04.475Z,74086,0.09789996,0.002662448,-0.29180306
1732436224481,2024-11-24T08:17:04.481Z,74092,0.09789996,0.002662448,-0.29180306
1732436224498,2024-11-24T08:17:04.498Z,74109,0.06377007,0.011022931,-0.25237957
1732436224502,2024-11-24T08:17:04.502Z,74113,0.06377007,0.011022931,-0.25237957
1732436224513,2024-11-24T08:17:04.513Z,74124,0.057789795,0.02384543,-0.25471237
1732436224516,2024-11-24T08:17:04.516Z,74127,0.057789795,0.02384543,-0.25471237
1732436224527,2024-11-24T08:17:04.527Z,74138,0.059591647,-0.0024348884,-0.24068362
1732436224530,2024-11-24T08:17:04.530Z,74141,0.059591647,-0.0024348884,-0.24068362
1732436224540,2024-11-24T08:17:04.540Z,74151,0.023643278,-0.005191958,-0.24253865
1732436224543,2024-11-24T08:17:04.543Z,74154,0.023643278,-0.005191958,-0.24253865
1732436224553,2024-11-24T08:17:04.553Z,74164,0.038683414,-0.0011638607,-0.25811395
1732436224556,2024-11-24T08:17:04.556Z,74167,0.038683414,-0.0011638607,-0.25811395
1732436224569,2024-11-24T08:17:04.569Z,74180,0.09824098,-0.014781069,-0.22885448
1732436224573,2024-11-24T08:17:04.573Z,74184,0.09824098,-0.014781069,-0.22885448
1732436224583,2024-11-24T08:17:04.583Z,74194,0.08444911,-0.022117145,-0.23118174
1732436224586,2024-11-24T08:17:04.586Z,74197,0.08444911,-0.022117145,-0.23118174
1732436224598,2024-11-24T08:17:04.598Z,74209,0.05921756,-0.047609564,-0.20603348
1732436224601,2024-11-24T08:17:04.601Z,74212,0.05921756,-0.047609564,-0.20603348
1732436224612,2024-11-24T08:17:04.612Z,74223,0.086471185,-0.014497981,-0.17140439
1732436224615,2024-11-24T08:17:04.615Z,74226,0.086471185,-0.014497981,-0.17140439
1732436224623,2024-11-24T08:17:04.623Z,74234,0.050789807,-0.011267509,-0.22945273
1732436224626,2024-11-24T08:17:04.626Z,74237,0.050789807,-0.011267509,-0.22945273
1732436224635,2024-11-24T08:17:04.635Z,74246,0.09267765,7.9986244E-4,-0.17287923
1732436224637,2024-11-24T08:17:04.637Z,74248,0.09267765,7.9986244E-4,-0.17287923
1732436224647,2024-11-24T08:17:04.647Z,74258,0.08896809,4.0056332E-4,-0.15115488
1732436224651,2024-11-24T08:17:04.651Z,74262,0.08896809,4.0056332E-4,-0.15115488
1732436224662,2024-11-24T08:17:04.662Z,74273,0.076787405,-0.004183791,-0.20888092
1732436224665,2024-11-24T08:17:04.665Z,74276,0.076787405,-0.004183791,-0.20888092
1732436224675,2024-11-24T08:17:04.675Z,74286,0.09496667,-0.0088064615,-0.21593726
1732436224679,2024-11-24T08:17:04.679Z,74290,0.09496667,-0.0088064615,-0.21593726
1732436224690,2024-11-24T08:17:04.690Z,74301,-0.0013768817,-0.029840656,-0.2441554
1732436224695,2024-11-24T08:17:04.695Z,74306,-0.0013768817,-0.029840656,-0.2441554
1732436224709,2024-11-24T08:17:04.709Z,74320,0.026871659,-0.018970987,-0.20368621
1732436224715,2024-11-24T08:17:04.715Z,74326,0.026871659,-0.018970987,-0.20368621
1732436224738,2024-11-24T08:17:04.738Z,74349,0.05644301,-0.039987773,-0.1889357
1732436224745,2024-11-24T08:17:04.745Z,74356,0.05644301,-0.039987773,-0.1889357
1732436224758,2024-11-24T08:17:04.758Z,74369,0.030343354,-0.031719774,-0.17923702
1732436224761,2024-11-24T08:17:04.761Z,74372,0.030343354,-0.031719774,-0.17923702
1732436224770,2024-11-24T08:17:04.770Z,74381,-0.012280199,-0.065543115,-0.2633014
1732436224773,2024-11-24T08:17:04.773Z,74384,-0.012280199,-0.065543115,-0.2633014
1732436224784,2024-11-24T08:17:04.784Z,74395,0.014022124,-0.0716069,-0.25122625
1732436224787,2024-11-24T08:17:04.787Z,74398,0.014022124,-0.0716069,-0.25122625
1732436224796,2024-11-24T08:17:04.796Z,74407,0.026652025,-0.08774944,-0.2719384
1732436224799,2024-11-24T08:17:04.799Z,74410,0.026652025,-0.08774944,-0.2719384
1732436224808,2024-11-24T08:17:04.808Z,74419,0.013157786,-0.0856304,-0.2327508
1732436224810,2024-11-24T08:17:04.810Z,74421,0.013157786,-0.0856304,-0.2327508
1732436224819,2024-11-24T08:17:04.819Z,74430,-0.034374613,-0.09159918,-0.24450763
1732436224821,2024-11-24T08:17:04.821Z,74432,-0.034374613,-0.09159918,-0.24450763
1732436224832,2024-11-24T08:17:04.832Z,74443,-0.022029817,-0.088871285,-0.25111422
1732436224834,2024-11-24T08:17:04.834Z,74445,-0.022029817,-0.088871285,-0.25111422
1732436224842,2024-11-24T08:17:04.842Z,74453,0.014093041,-0.085363075,-0.26184317
1732436224846,2024-11-24T08:17:04.846Z,74457,0.014093041,-0.085363075,-0.26184317
1732436224854,2024-11-24T08:17:04.854Z,74465,-0.004163345,-0.069667,-0.2643545
1732436224857,2024-11-24T08:17:04.857Z,74468,-0.004163345,-0.069667,-0.2643545
1732436224868,2024-11-24T08:17:04.868Z,74479,0.047724657,-0.072376125,-0.24109668
1732436224872,2024-11-24T08:17:04.872Z,74483,0.047724657,-0.072376125,-0.24109668
1732436224884,2024-11-24T08:17:04.884Z,74495,-0.023712104,-0.08097185,-0.25251624
1732436224890,2024-11-24T08:17:04.890Z,74501,-0.023712104,-0.08097185,-0.25251624
1732436224906,2024-11-24T08:17:04.906Z,74517,0.030638622,-0.0807157,-0.22886343
1732436224909,2024-11-24T08:17:04.909Z,74520,0.030638622,-0.0807157,-0.22886343
1732436224922,2024-11-24T08:17:04.922Z,74533,0.028416779,-0.06380393,-0.18027109
1732436224925,2024-11-24T08:17:04.925Z,74536,0.028416779,-0.06380393,-0.18027109
1732436224941,2024-11-24T08:17:04.941Z,74552,0.059536777,-0.06992782,-0.1398295
1732436224948,2024-11-24T08:17:04.948Z,74559,0.059536777,-0.06992782,-0.1398295
1732436224974,2024-11-24T08:17:04.974Z,74585,0.05954108,-0.056709714,-0.14834265
1732436224979,2024-11-24T08:17:04.979Z,74590,0.05954108,-0.056709714,-0.14834265
1732436224998,2024-11-24T08:17:04.998Z,74609,0.013872313,-0.04748781,-0.20013161
1732436225004,2024-11-24T08:17:05.004Z,74615,0.013872313,-0.04748781,-0.20013161
1732436225018,2024-11-24T08:17:05.018Z,74629,0.0044645453,-0.07411706,-0.21765971
1732436225021,2024-11-24T08:17:05.021Z,74632,0.0044645453,-0.07411706,-0.21765971
1732436225032,2024-11-24T08:17:05.032Z,74643,0.01145211,-0.072379045,-0.19710208
1732436225036,2024-11-24T08:17:05.036Z,74647,0.01145211,-0.072379045,-0.19710208
1732436225047,2024-11-24T08:17:05.047Z,74658,-0.035555027,-0.07658442,-0.21746019
1732436225049,2024-11-24T08:17:05.049Z,74660,-0.035555027,-0.07658442,-0.21746019
1732436225059,2024-11-24T08:17:05.059Z,74670,-0.03711843,-0.07592926,-0.22404203
1732436225062,2024-11-24T08:17:05.062Z,74673,-0.03711843,-0.07592926,-0.22404203
1732436225070,2024-11-24T08:17:05.070Z,74681,-0.036704376,-0.08006939,-0.22617762
1732436225072,2024-11-24T08:17:05.072Z,74683,-0.036704376,-0.08006939,-0.22617762
1732436225081,2024-11-24T08:17:05.081Z,74692,-0.028378779,-0.06923804,-0.25187993
1732436225084,2024-11-24T08:17:05.084Z,74695,-0.028378779,-0.06923804,-0.25187993
1732436225093,2024-11-24T08:17:05.093Z,74704,-0.010593899,-0.062697545,-0.25235716
1732436225097,2024-11-24T08:17:05.097Z,74708,-0.010593899,-0.062697545,-0.25235716
1732436225105,2024-11-24T08:17:05.105Z,74716,-0.0014256272,-0.07092071,-0.24752182
1732436225108,2024-11-24T08:17:05.108Z,74719,-0.0014256272,-0.07092071,-0.24752182
1732436225117,2024-11-24T08:17:05.117Z,74728,-0.0071480717,-0.052467767,-0.22463381
1732436225119,2024-11-24T08:17:05.119Z,74730,-0.0071480717,-0.052467767,-0.22463381
1732436225129,2024-11-24T08:17:05.129Z,74740,-0.08527871,-0.028596371,-0.2652846
1732436225132,2024-11-24T08:17:05.132Z,74743,-0.08527871,-0.028596371,-0.2652846
1732436225141,2024-11-24T08:17:05.141Z,74752,-0.034077276,-0.015573735,-0.24466182
1732436225144,2024-11-24T08:17:05.144Z,74755,-0.034077276,-0.015573735,-0.24466182
1732436225154,2024-11-24T08:17:05.154Z,74765,0.011504697,-0.0047892556,-0.23907116
1732436225158,2024-11-24T08:17:05.158Z,74769,0.011504697,-0.0047892556,-0.23907116
1732436225168,2024-11-24T08:17:05.168Z,74779,-0.023104355,0.0035896075,-0.26086792
1732436225170,2024-11-24T08:17:05.170Z,74781,-0.023104355,0.0035896075,-0.26086792
1732436225179,2024-11-24T08:17:05.179Z,74790,-0.007825281,0.012510918,-0.23765416
1732436225182,2024-11-24T08:17:05.182Z,74793,-0.007825281,0.012510918,-0.23765416
1732436225192,2024-11-24T08:17:05.192Z,74803,-0.02853868,0.008596989,-0.26859885
1732436225194,2024-11-24T08:17:05.194Z,74805,-0.02853868,0.008596989,-0.26859885
1732436225204,2024-11-24T08:17:05.204Z,74815,0.022446766,8.028771E-4,-0.24045545
1732436225207,2024-11-24T08:17:05.207Z,74818,0.022446766,8.028771E-4,-0.24045545
1732436225217,2024-11-24T08:17:05.217Z,74828,0.08683917,0.012565474,-0.17538983
1732436225220,2024-11-24T08:17:05.220Z,74831,0.08683917,0.012565474,-0.17538983
1732436225230,2024-11-24T08:17:05.230Z,74841,0.04597038,0.020118997,-0.18119432
1732436225233,2024-11-24T08:17:05.233Z,74844,0.04597038,0.020118997,-0.18119432
1732436225241,2024-11-24T08:17:05.241Z,74852,0.042234585,0.0076330705,-0.19058569
1732436225244,2024-11-24T08:17:05.244Z,74855,0.042234585,0.0076330705,-0.19058569
1732436225253,2024-11-24T08:17:05.253Z,74864,0.04077385,0.0024564774,-0.2315433
1732436225255,2024-11-24T08:17:05.255Z,74866,0.04077385,0.0024564774,-0.2315433
1732436225265,2024-11-24T08:17:05.265Z,74876,0.048634507,0.002069334,-0.21546902
1732436225268,2024-11-24T08:17:05.268Z,74879,0.048634507,0.002069334,-0.21546902
1732436225277,2024-11-24T08:17:05.277Z,74888,0.029840559,-8.028771E-4,-0.23647584
1732436225280,2024-11-24T08:17:05.280Z,74891,0.029840559,-8.028771E-4,-0.23647584
1732436225288,2024-11-24T08:17:05.288Z,74899,0.06663919,-0.008332865,-0.18429181
1732436225291,2024-11-24T08:17:05.291Z,74902,0.06663919,-0.008332865,-0.18429181
1732436225299,2024-11-24T08:17:05.299Z,74910,0.04219058,-0.013505374,-0.21924266
1732436225302,2024-11-24T08:17:05.302Z,74913,0.04219058,-0.013505374,-0.21924266
1732436225310,2024-11-24T08:17:05.310Z,74921,0.05916748,-0.022552134,-0.20869797
1732436225312,2024-11-24T08:17:05.312Z,74923,0.05916748,-0.022552134,-0.20869797
1732436225323,2024-11-24T08:17:05.323Z,74934,0.015715133,-0.012887364,-0.21173415
1732436225327,2024-11-24T08:17:05.327Z,74938,0.015715133,-0.012887364,-0.21173415
1732436225335,2024-11-24T08:17:05.335Z,74946,0.04682312,-0.00440396,-0.20275867
1732436225337,2024-11-24T08:17:05.337Z,74948,0.04682312,-0.00440396,-0.20275867
1732436225346,2024-11-24T08:17:05.346Z,74957,0.0025485465,-0.004387817,-0.207546
1732436225348,2024-11-24T08:17:05.348Z,74959,0.0025485465,-0.004387817,-0.207546
1732436225356,2024-11-24T08:17:05.356Z,74967,0.020912489,-0.010330041,-0.21226752
1732436225358,2024-11-24T08:17:05.358Z,74969,0.020912489,-0.010330041,-0.21226752
1732436225367,2024-11-24T08:17:05.367Z,74978,-0.032249313,0.0024962516,-0.17258714
1732436225369,2024-11-24T08:17:05.369Z,74980,-0.032249313,0.0024962516,-0.17258714
1732436225377,2024-11-24T08:17:05.377Z,74988,-0.03490758,-0.0052604205,-0.181691
1732436225380,2024-11-24T08:17:05.380Z,74991,-0.03490758,-0.0052604205,-0.181691
1732436225390,2024-11-24T08:17:05.390Z,75001,0.021920923,-0.009571996,-0.1727437
1732436225393,2024-11-24T08:17:05.393Z,75004,0.021920923,-0.009571996,-0.1727437
1732436225402,2024-11-24T08:17:05.402Z,75013,-0.02531409,0.0018190185,-0.13930573
1732436225405,2024-11-24T08:17:05.405Z,75016,-0.02531409,0.0018190185,-0.13930573
1732436225415,2024-11-24T08:17:05.415Z,75026,-0.013499879,-0.005989195,-0.15499477
1732436225418,2024-11-24T08:17:05.418Z,75029,-0.013499879,-0.005989195,-0.15499477
1732436225429,2024-11-24T08:17:05.429Z,75040,-0.018223152,-0.005530283,-0.14028345
1732436225432,2024-11-24T08:17:05.432Z,75043,-0.018223152,-0.005530283,-0.14028345
1732436225442,2024-11-24T08:17:05.442Z,75053,-0.034271117,-0.0108902855,-0.13275374
1732436225450,2024-11-24T08:17:05.450Z,75061,-0.034271117,-0.0108902855,-0.13275374
1732436225463,2024-11-24T08:17:05.463Z,75074,-0.009888658,-0.013432341,-0.11491744
1732436225466,2024-11-24T08:17:05.466Z,75077,-0.009888658,-0.013432341,-0.11491744
1732436225474,2024-11-24T08:17:05.474Z,75085,1.5754129E-5,-0.011955926,-0.12042621
1732436225477,2024-11-24T08:17:05.477Z,75088,1.5754129E-5,-0.011955926,-0.12042621
1732436225485,2024-11-24T08:17:05.485Z,75096,-0.02183153,-0.022760438,-0.112597235
1732436225488,2024-11-24T08:17:05.488Z,75099,-0.02183153,-0.022760438,-0.112597235
1732436225496,2024-11-24T08:17:05.496Z,75107,-0.026424319,-0.025220223,-0.11706028
1732436225499,2024-11-24T08:17:05.499Z,75110,-0.026424319,-0.025220223,-0.11706028
1732436225508,2024-11-24T08:17:05.508Z,75119,-0.015065397,-0.023719205,-0.1113532
1732436225512,2024-11-24T08:17:05.512Z,75123,-0.015065397,-0.023719205,-0.1113532
1732436225520,2024-11-24T08:17:05.520Z,75131,0.0023366194,-0.028216813,-0.11145805
1732436225522,2024-11-24T08:17:05.522Z,75133,0.0023366194,-0.028216813,-0.11145805
1732436225531,2024-11-24T08:17:05.531Z,75142,0.01046806,-0.029724931,-0.11757172
1732436225534,2024-11-24T08:17:05.534Z,75145,0.01046806,-0.029724931,-0.11757172
1732436225544,2024-11-24T08:17:05.544Z,75155,0.00959147,-0.038491424,-0.086991414
1732436225547,2024-11-24T08:17:05.547Z,75158,0.00959147,-0.038491424,-0.086991414
1732436225558,2024-11-24T08:17:05.558Z,75169,-0.016298328,-0.03601073,-0.09464897
1732436225561,2024-11-24T08:17:05.561Z,75172,-0.016298328,-0.03601073,-0.09464897
1732436225569,2024-11-24T08:17:05.569Z,75180,0.0016466469,-0.04925791,-0.09384261
1732436225571,2024-11-24T08:17:05.571Z,75182,0.0016466469,-0.04925791,-0.09384261
1732436225579,2024-11-24T08:17:05.579Z,75190,0.017695973,-0.046288744,-0.09623303
1732436225582,2024-11-24T08:17:05.582Z,75193,0.017695973,-0.046288744,-0.09623303
1732436225592,2024-11-24T08:17:05.592Z,75203,0.022875872,-0.051082864,-0.07944487
1732436225598,2024-11-24T08:17:05.598Z,75209,0.022875872,-0.051082864,-0.07944487
1732436225605,2024-11-24T08:17:05.605Z,75216,-0.063153684,-0.038381048,-0.11449241
1732436225608,2024-11-24T08:17:05.608Z,75219,-0.063153684,-0.038381048,-0.11449241
1732436225616,2024-11-24T08:17:05.616Z,75227,-0.036868967,-0.043947507,-0.097659655
1732436225619,2024-11-24T08:17:05.619Z,75230,-0.036868967,-0.043947507,-0.097659655
1732436225627,2024-11-24T08:17:05.627Z,75238,-0.012843871,-0.035424814,-0.09089117
1732436225629,2024-11-24T08:17:05.629Z,75240,-0.012843871,-0.035424814,-0.09089117
1732436225637,2024-11-24T08:17:05.637Z,75248,-8.729198E-4,-0.03988012,-0.06572749
1732436225639,2024-11-24T08:17:05.639Z,75250,-8.729198E-4,-0.03988012,-0.06572749
1732436225647,2024-11-24T08:17:05.647Z,75258,-0.010037837,-0.03643026,-0.06097479
1732436225650,2024-11-24T08:17:05.650Z,75261,-0.010037837,-0.03643026,-0.06097479
1732436225659,2024-11-24T08:17:05.659Z,75270,-0.044262636,-0.036008008,-0.070015356
1732436225663,2024-11-24T08:17:05.663Z,75274,-0.044262636,-0.036008008,-0.070015356
1732436225682,2024-11-24T08:17:05.682Z,75293,-0.060243815,-0.0345243,-0.08727194
1732436225685,2024-11-24T08:17:05.685Z,75296,-0.060243815,-0.0345243,-0.08727194
1732436225693,2024-11-24T08:17:05.693Z,75304,-0.06623347,-0.03651389,-0.084488146
1732436225696,2024-11-24T08:17:05.696Z,75307,-0.06623347,-0.03651389,-0.084488146
1732436225704,2024-11-24T08:17:05.704Z,75315,-0.033856526,-0.03126835,-0.08856322
1732436225708,2024-11-24T08:17:05.708Z,75319,-0.033856526,-0.03126835,-0.08856322
1732436225716,2024-11-24T08:17:05.716Z,75327,0.0055973595,-0.024733206,-0.054140612
1732436225718,2024-11-24T08:17:05.718Z,75329,0.0055973595,-0.024733206,-0.054140612
1732436225730,2024-11-24T08:17:05.730Z,75341,-0.032145597,-0.014658245,-0.07113514
1732436225733,2024-11-24T08:17:05.733Z,75344,-0.032145597,-0.014658245,-0.07113514
1732436225740,2024-11-24T08:17:05.740Z,75351,-0.05479617,-0.018735453,-0.087582335
1732436225742,2024-11-24T08:17:05.742Z,75353,-0.05479617,-0.018735453,-0.087582335
1732436225774,2024-11-24T08:17:05.774Z,75385,-0.04541777,-0.019380497,-0.09519447
1732436225777,2024-11-24T08:17:05.777Z,75388,-0.04541777,-0.019380497,-0.09519447
1732436225790,2024-11-24T08:17:05.790Z,75401,-0.0046724365,-0.017915752,-0.06424614
1732436225793,2024-11-24T08:17:05.793Z,75404,-0.0046724365,-0.017915752,-0.06424614
1732436225803,2024-11-24T08:17:05.803Z,75414,-0.03498664,-0.0190094,-0.075486
1732436225806,2024-11-24T08:17:05.806Z,75417,-0.03498664,-0.0190094,-0.075486
1732436225819,2024-11-24T08:17:05.819Z,75430,-0.04126009,-0.029904062,-0.087736286
1732436225821,2024-11-24T08:17:05.821Z,75432,-0.04126009,-0.029904062,-0.087736286
1732436225831,2024-11-24T08:17:05.831Z,75442,0.025230482,-0.014375644,-0.094167456
1732436225834,2024-11-24T08:17:05.834Z,75445,0.025230482,-0.014375644,-0.094167456
1732436225842,2024-11-24T08:17:05.842Z,75453,0.004308876,-0.013556915,-0.08722468
1732436225845,2024-11-24T08:17:05.845Z,75456,0.004308876,-0.013556915,-0.08722468
1732436225854,2024-11-24T08:17:05.854Z,75465,-0.009833081,-0.01711268,-0.08817758
1732436225856,2024-11-24T08:17:05.856Z,75467,-0.009833081,-0.01711268,-0.08817758
1732436225866,2024-11-24T08:17:05.866Z,75477,-0.010456658,0.0061582117,-0.08367155
1732436225868,2024-11-24T08:17:05.868Z,75479,-0.010456658,0.0061582117,-0.08367155
1732436225878,2024-11-24T08:17:05.878Z,75489,-0.017813083,0.0055418555,-0.076377355
1732436225881,2024-11-24T08:17:05.881Z,75492,-0.017813083,0.0055418555,-0.076377355
1732436225888,2024-11-24T08:17:05.888Z,75499,0.011061077,-0.004190793,-0.059310153
1732436225891,2024-11-24T08:17:05.891Z,75502,0.011061077,-0.004190793,-0.059310153
1732436225910,2024-11-24T08:17:05.910Z,75521,-0.0025920162,-0.013912647,-0.062218115
1732436225912,2024-11-24T08:17:05.912Z,75523,-0.0025920162,-0.013912647,-0.062218115
1732436225920,2024-11-24T08:17:05.920Z,75531,-0.030691087,-0.031344008,-0.07608904
1732436225922,2024-11-24T08:17:05.922Z,75533,-0.030691087,-0.031344008,-0.07608904
1732436225931,2024-11-24T08:17:05.931Z,75542,-0.00906339,-0.028249392,-0.07769326
1732436225934,2024-11-24T08:17:05.934Z,75545,-0.00906339,-0.028249392,-0.07769326
1732436225955,2024-11-24T08:17:05.955Z,75566,-0.025260216,-0.043864556,-0.06204964
1732436225959,2024-11-24T08:17:05.959Z,75570,-0.025260216,-0.043864556,-0.06204964
1732436225971,2024-11-24T08:17:05.971Z,75582,-0.05037001,-0.043026764,-0.08803417
1732436225977,2024-11-24T08:17:05.977Z,75588,-0.05037001,-0.043026764,-0.08803417
1732436225987,2024-11-24T08:17:05.987Z,75598,-0.07498956,-0.05588583,-0.12107055
1732436225989,2024-11-24T08:17:05.989Z,75600,-0.07498956,-0.05588583,-0.12107055
1732436226000,2024-11-24T08:17:06Z,75611,-0.063207224,-0.13537495,-0.07804556
1732436226003,2024-11-24T08:17:06.003Z,75614,-0.063207224,-0.13537495,-0.07804556
1732436226011,2024-11-24T08:17:06.011Z,75622,-0.092369184,-0.14664246,-0.09329037
1732436226014,2024-11-24T08:17:06.014Z,75625,-0.092369184,-0.14664246,-0.09329037
1732436226045,2024-11-24T08:17:06.045Z,75656,-0.14740172,-0.16574726,-0.12690438
1732436226048,2024-11-24T08:17:06.048Z,75659,-0.14740172,-0.16574726,-0.12690438
1732436226056,2024-11-24T08:17:06.056Z,75667,-0.13175695,-0.18945003,-0.10125966
1732436226059,2024-11-24T08:17:06.059Z,75670,-0.13175695,-0.18945003,-0.10125966
1732436226068,2024-11-24T08:17:06.068Z,75679,-0.1316845,-0.19017296,-0.0940723
1732436226070,2024-11-24T08:17:06.070Z,75681,-0.1316845,-0.19017296,-0.0940723
1732436226078,2024-11-24T08:17:06.078Z,75689,-0.14952986,-0.19288258,-0.11782221
1732436226081,2024-11-24T08:17:06.081Z,75692,-0.14952986,-0.19288258,-0.11782221
1732436226089,2024-11-24T08:17:06.089Z,75700,-0.120509125,-0.19008379,-0.1678702
1732436226092,2024-11-24T08:17:06.092Z,75703,-0.120509125,-0.19008379,-0.1678702
1732436226101,2024-11-24T08:17:06.101Z,75712,-0.096461564,-0.18221557,-0.19327155
1732436226103,2024-11-24T08:17:06.103Z,75714,-0.096461564,-0.18221557,-0.19327155
1732436226112,2024-11-24T08:17:06.112Z,75723,-0.089461185,-0.1832145,-0.16488525
1732436226115,2024-11-24T08:17:06.115Z,75726,-0.089461185,-0.1832145,-0.16488525
1732436226136,2024-11-24T08:17:06.136Z,75747,-0.083018355,-0.15129721,-0.096694425
1732436226138,2024-11-24T08:17:06.138Z,75749,-0.083018355,-0.15129721,-0.096694425
1732436226146,2024-11-24T08:17:06.146Z,75757,-0.064889416,-0.15600255,-0.103904516
1732436226149,2024-11-24T08:17:06.149Z,75760,-0.064889416,-0.15600255,-0.103904516
1732436226157,2024-11-24T08:17:06.157Z,75768,-0.06261651,-0.1475987,-0.11851866
1732436226159,2024-11-24T08:17:06.159Z,75770,-0.06261651,-0.1475987,-0.11851866
1732436226181,2024-11-24T08:17:06.181Z,75792,-0.0417748,-0.13982666,-0.10262455
1732436226183,2024-11-24T08:17:06.183Z,75794,-0.0417748,-0.13982666,-0.10262455
1732436226192,2024-11-24T08:17:06.192Z,75803,-0.04693819,-0.14530316,-0.104936495
1732436226195,2024-11-24T08:17:06.195Z,75806,-0.04693819,-0.14530316,-0.104936495
1732436226231,2024-11-24T08:17:06.231Z,75842,0.046177033,-0.1537467,-0.06194468
1732436226238,2024-11-24T08:17:06.238Z,75849,0.046177033,-0.1537467,-0.06194468
1732436226264,2024-11-24T08:17:06.264Z,75875,0.016369367,-0.16723582,-0.08211318
1732436226271,2024-11-24T08:17:06.271Z,75882,0.016369367,-0.16723582,-0.08211318
1732436226291,2024-11-24T08:17:06.291Z,75902,-0.022533365,-0.13934422,-0.059603233
1732436226296,2024-11-24T08:17:06.296Z,75907,-0.022533365,-0.13934422,-0.059603233
1732436226309,2024-11-24T08:17:06.309Z,75920,-0.04566495,-0.15693466,-0.093192436
1732436226314,2024-11-24T08:17:06.314Z,75925,-0.04566495,-0.15693466,-0.093192436
1732436226327,2024-11-24T08:17:06.327Z,75938,-0.015366087,-0.15829186,-0.038858168
1732436226331,2024-11-24T08:17:06.331Z,75942,-0.015366087,-0.15829186,-0.038858168
1732436226342,2024-11-24T08:17:06.342Z,75953,-0.023739528,-0.14986593,-0.008486346
1732436226345,2024-11-24T08:17:06.345Z,75956,-0.023739528,-0.14986593,-0.008486346
1732436226355,2024-11-24T08:17:06.355Z,75966,-0.10141281,-0.1408922,-0.039661944
1732436226358,2024-11-24T08:17:06.358Z,75969,-0.10141281,-0.1408922,-0.039661944
1732436226368,2024-11-24T08:17:06.368Z,75979,-0.057589706,-0.12763898,-0.038091797
1732436226371,2024-11-24T08:17:06.371Z,75982,-0.057589706,-0.12763898,-0.038091797
1732436226379,2024-11-24T08:17:06.379Z,75990,-0.08520582,-0.11561586,-0.07297488
1732436226383,2024-11-24T08:17:06.383Z,75994,-0.08520582,-0.11561586,-0.07297488
1732436226390,2024-11-24T08:17:06.390Z,76001,-0.041662697,-0.10152156,-0.019447124
1732436226393,2024-11-24T08:17:06.393Z,76004,-0.041662697,-0.10152156,-0.019447124
1732436226401,2024-11-24T08:17:06.401Z,76012,-0.049994975,-0.056842748,-0.051914696
1732436226404,2024-11-24T08:17:06.404Z,76015,-0.049994975,-0.056842748,-0.051914696
1732436226414,2024-11-24T08:17:06.414Z,76025,-0.02344742,-0.037477423,-0.062425215
1732436226416,2024-11-24T08:17:06.416Z,76027,-0.02344742,-0.037477423,-0.062425215
1732436226423,2024-11-24T08:17:06.423Z,76034,-0.023221102,-0.027002579,-0.02061073
1732436226426,2024-11-24T08:17:06.426Z,76037,-0.023221102,-0.027002579,-0.02061073
1732436226434,2024-11-24T08:17:06.434Z,76045,0.027538024,-0.05753632,-0.033650115
1732436226437,2024-11-24T08:17:06.437Z,76048,0.027538024,-0.05753632,-0.033650115
1732436226451,2024-11-24T08:17:06.451Z,76062,0.046004806,-0.020556124,-0.002930572
1732436226453,2024-11-24T08:17:06.453Z,76064,0.046004806,-0.020556124,-0.002930572
1732436226461,2024-11-24T08:17:06.461Z,76072,0.10958203,-0.056689195,-0.047169797
1732436226464,2024-11-24T08:17:06.464Z,76075,0.10958203,-0.056689195,-0.047169797
1732436226472,2024-11-24T08:17:06.472Z,76083,0.08390424,-0.03168885,-0.002833519
1732436226475,2024-11-24T08:17:06.475Z,76086,0.08390424,-0.03168885,-0.002833519
1732436226493,2024-11-24T08:17:06.493Z,76104,0.010716407,-0.014502844,-0.00753327
1732436226498,2024-11-24T08:17:06.498Z,76109,0.010716407,-0.014502844,-0.00753327
1732436226506,2024-11-24T08:17:06.506Z,76117,0.10590074,-0.04078501,-0.025368087
1732436226508,2024-11-24T08:17:06.508Z,76119,0.10590074,-0.04078501,-0.025368087
1732436226517,2024-11-24T08:17:06.517Z,76128,0.094965,-0.013152559,4.7917597E-4
1732436226519,2024-11-24T08:17:06.519Z,76130,0.094965,-0.013152559,4.7917597E-4
1732436226538,2024-11-24T08:17:06.538Z,76149,0.0931412,-0.010923155,0.004704577
1732436226541,2024-11-24T08:17:06.541Z,76152,0.0931412,-0.010923155,0.004704577
1732436226551,2024-11-24T08:17:06.551Z,76162,0.01959488,-0.045623764,-0.011969054
1732436226553,2024-11-24T08:17:06.553Z,76164,0.01959488,-0.045623764,-0.011969054
1732436226562,2024-11-24T08:17:06.562Z,76173,0.08949411,-0.076007456,0.022861589
1732436226568,2024-11-24T08:17:06.568Z,76179,0.08949411,-0.076007456,0.022861589
1732436226582,2024-11-24T08:17:06.582Z,76193,0.11035966,-0.07759707,0.030399563
1732436226585,2024-11-24T08:17:06.585Z,76196,0.11035966,-0.07759707,0.030399563
1732436226593,2024-11-24T08:17:06.593Z,76204,0.04830615,-0.088540345,0.055778738
1732436226596,2024-11-24T08:17:06.596Z,76207,0.04830615,-0.088540345,0.055778738
1732436226605,2024-11-24T08:17:06.605Z,76216,-0.053778887,-0.09469156,0.0055054
1732436226607,2024-11-24T08:17:06.607Z,76218,-0.053778887,-0.09469156,0.0055054
1732436226615,2024-11-24T08:17:06.615Z,76226,0.09526024,-0.0828181,-0.06423992
1732436226618,2024-11-24T08:17:06.618Z,76229,0.09526024,-0.0828181,-0.06423992
1732436226632,2024-11-24T08:17:06.632Z,76243,0.12540494,-0.06508225,0.03921276
1732436226638,2024-11-24T08:17:06.638Z,76249,0.12540494,-0.06508225,0.03921276
1732436226654,2024-11-24T08:17:06.654Z,76265,0.16527782,-0.07472077,0.0031834648
1732436226656,2024-11-24T08:17:06.656Z,76267,0.16527782,-0.07472077,0.0031834648
1732436226673,2024-11-24T08:17:06.673Z,76284,0.073484555,-0.043371994,-0.018729642
1732436226675,2024-11-24T08:17:06.675Z,76286,0.073484555,-0.043371994,-0.018729642
1732436226686,2024-11-24T08:17:06.686Z,76297,0.11856724,-0.029925942,-0.07925484
1732436226689,2024-11-24T08:17:06.689Z,76300,0.11856724,-0.029925942,-0.07925484
1732436226698,2024-11-24T08:17:06.698Z,76309,0.10939305,0.001077213,-0.0682167
1732436226701,2024-11-24T08:17:06.701Z,76312,0.10939305,0.001077213,-0.0682167
1732436226710,2024-11-24T08:17:06.710Z,76321,0.08990617,6.982386E-4,-0.12602647
1732436226712,2024-11-24T08:17:06.712Z,76323,0.08990617,6.982386E-4,-0.12602647
1732436226721,2024-11-24T08:17:06.721Z,76332,0.15380813,0.031865936,-0.097983494
1732436226723,2024-11-24T08:17:06.723Z,76334,0.15380813,0.031865936,-0.097983494
1732436226731,2024-11-24T08:17:06.731Z,76342,0.12337567,0.055889525,-0.041119203
1732436226733,2024-11-24T08:17:06.733Z,76344,0.12337567,0.055889525,-0.041119203
1732436226741,2024-11-24T08:17:06.741Z,76352,0.1861466,0.014606218,-0.056630123
1732436226744,2024-11-24T08:17:06.744Z,76355,0.1861466,0.014606218,-0.056630123
1732436226764,2024-11-24T08:17:06.764Z,76375,0.07467409,0.047679972,-0.04705964
1732436226767,2024-11-24T08:17:06.767Z,76378,0.07467409,0.047679972,-0.04705964
1732436226775,2024-11-24T08:17:06.775Z,76386,-0.0024088016,0.03405868,-0.0361884
1732436226778,2024-11-24T08:17:06.778Z,76389,-0.0024088016,0.03405868,-0.0361884
1732436226787,2024-11-24T08:17:06.787Z,76398,0.04466055,0.02819153,-0.046704274
1732436226789,2024-11-24T08:17:06.789Z,76400,0.04466055,0.02819153,-0.046704274
1732436226813,2024-11-24T08:17:06.813Z,76424,0.17142566,0.10777274,0.076973245
1732436226816,2024-11-24T08:17:06.816Z,76427,0.17142566,0.10777274,0.076973245
1732436226826,2024-11-24T08:17:06.826Z,76437,0.09007448,0.094563775,0.009285285
1732436226829,2024-11-24T08:17:06.829Z,76440,0.09007448,0.094563775,0.009285285
1732436226853,2024-11-24T08:17:06.853Z,76464,0.0975939,0.116106085,-0.038167503
1732436226856,2024-11-24T08:17:06.856Z,76467,0.0975939,0.116106085,-0.038167503
1732436226866,2024-11-24T08:17:06.866Z,76477,0.16914512,0.1872797,-0.017239952
1732436226869,2024-11-24T08:17:06.869Z,76480,0.16914512,0.1872797,-0.017239952
1732436226878,2024-11-24T08:17:06.878Z,76489,0.05254418,0.16614966,-0.0562835
1732436226881,2024-11-24T08:17:06.881Z,76492,0.05254418,0.16614966,-0.0562835
1732436226904,2024-11-24T08:17:06.904Z,76515,0.037982795,0.18402335,-0.06693022
1732436226911,2024-11-24T08:17:06.911Z,76522,0.037982795,0.18402335,-0.06693022
1732436226933,2024-11-24T08:17:06.933Z,76544,0.17976794,0.15171207,-0.017906927
1732436226939,2024-11-24T08:17:06.939Z,76550,0.17976794,0.15171207,-0.017906927
1732436226955,2024-11-24T08:17:06.955Z,76566,0.070697896,0.21697749,-0.10333062
1732436226959,2024-11-24T08:17:06.959Z,76570,0.070697896,0.21697749,-0.10333062
1732436226972,2024-11-24T08:17:06.972Z,76583,-0.057108868,0.1529759,-0.14391167
1732436226976,2024-11-24T08:17:06.976Z,76587,-0.057108868,0.1529759,-0.14391167
1732436226988,2024-11-24T08:17:06.988Z,76599,-0.04430263,0.09060355,-0.03248183
1732436226991,2024-11-24T08:17:06.991Z,76602,-0.04430263,0.09060355,-0.03248183
1732436227005,2024-11-24T08:17:07.005Z,76616,-0.091636375,0.09992806,-0.023320816
1732436227010,2024-11-24T08:17:07.010Z,76621,-0.091636375,0.09992806,-0.023320816
1732436227019,2024-11-24T08:17:07.019Z,76630,-0.060018834,0.04828359,-0.047368813
1732436227022,2024-11-24T08:17:07.022Z,76633,-0.060018834,0.04828359,-0.047368813
1732436227034,2024-11-24T08:17:07.034Z,76645,-0.045500405,0.07698362,-0.04816695
1732436227038,2024-11-24T08:17:07.038Z,76649,-0.045500405,0.07698362,-0.04816695
1732436227048,2024-11-24T08:17:07.048Z,76659,-0.10742535,0.04354607,-0.08334924
1732436227051,2024-11-24T08:17:07.051Z,76662,-0.10742535,0.04354607,-0.08334924
1732436227061,2024-11-24T08:17:07.061Z,76672,-0.02996117,0.01454641,-0.060318638
1732436227064,2024-11-24T08:17:07.064Z,76675,-0.02996117,0.01454641,-0.060318638
1732436227080,2024-11-24T08:17:07.080Z,76691,-0.11379541,0.060767956,-0.0033152597
1732436227083,2024-11-24T08:17:07.083Z,76694,-0.11379541,0.060767956,-0.0033152597
1732436227092,2024-11-24T08:17:07.092Z,76703,-0.09511713,0.083348684,-0.03157158
1732436227095,2024-11-24T08:17:07.095Z,76706,-0.09511713,0.083348684,-0.03157158
1732436227103,2024-11-24T08:17:07.103Z,76714,-5.2880874E-4,0.11506787,0.012718244
1732436227106,2024-11-24T08:17:07.106Z,76717,-5.2880874E-4,0.11506787,0.012718244
1732436227123,2024-11-24T08:17:07.123Z,76734,0.039779276,0.16591462,-0.042697288
1732436227126,2024-11-24T08:17:07.126Z,76737,0.039779276,0.16591462,-0.042697288
1732436227139,2024-11-24T08:17:07.139Z,76750,-0.007974921,0.18259464,-0.09675489
1732436227145,2024-11-24T08:17:07.145Z,76756,-0.007974921,0.18259464,-0.09675489
1732436227165,2024-11-24T08:17:07.165Z,76776,-0.03597132,0.1625233,-0.13825348
1732436227171,2024-11-24T08:17:07.171Z,76782,-0.03597132,0.1625233,-0.13825348
1732436227182,2024-11-24T08:17:07.182Z,76793,-0.055360924,0.03341198,-0.065296434
1732436227187,2024-11-24T08:17:07.187Z,76798,-0.055360924,0.03341198,-0.065296434
1732436227201,2024-11-24T08:17:07.201Z,76812,-0.10862396,0.029448748,-0.06922372
1732436227204,2024-11-24T08:17:07.204Z,76815,-0.10862396,0.029448748,-0.06922372
1732436227214,2024-11-24T08:17:07.214Z,76825,-0.068136625,0.0033708003,-0.05360716
1732436227217,2024-11-24T08:17:07.217Z,76828,-0.068136625,0.0033708003,-0.05360716
1732436227224,2024-11-24T08:17:07.224Z,76835,-0.07604911,0.014285884,-0.013130751
1732436227226,2024-11-24T08:17:07.226Z,76837,-0.07604911,0.014285884,-0.013130751
1732436227234,2024-11-24T08:17:07.234Z,76845,-0.026090967,0.0098906765,-0.012828542
1732436227237,2024-11-24T08:17:07.237Z,76848,-0.026090967,0.0098906765,-0.012828542
1732436227247,2024-11-24T08:17:07.247Z,76858,-0.03984859,0.025614465,-0.03894799
1732436227252,2024-11-24T08:17:07.252Z,76863,-0.03984859,0.025614465,-0.03894799
1732436227262,2024-11-24T08:17:07.262Z,76873,-0.052143045,0.056203637,0.0010288444
1732436227265,2024-11-24T08:17:07.265Z,76876,-0.052143045,0.056203637,0.0010288444
1732436227273,2024-11-24T08:17:07.273Z,76884,0.012294895,0.019046646,-0.017692702
1732436227276,2024-11-24T08:17:07.276Z,76887,0.012294895,0.019046646,-0.017692702
1732436227284,2024-11-24T08:17:07.284Z,76895,-0.013691178,0.031221086,-0.07792164
1732436227287,2024-11-24T08:17:07.287Z,76898,-0.013691178,0.031221086,-0.07792164
1732436227305,2024-11-24T08:17:07.305Z,76916,-0.0028896793,0.023911074,-0.080191836
1732436227307,2024-11-24T08:17:07.307Z,76918,-0.0028896793,0.023911074,-0.080191836
1732436227317,2024-11-24T08:17:07.317Z,76928,-0.023752524,0.038708482,-0.070127025
1732436227320,2024-11-24T08:17:07.320Z,76931,-0.023752524,0.038708482,-0.070127025
1732436227328,2024-11-24T08:17:07.328Z,76939,-0.06225298,0.026039146,-0.054364245
1732436227331,2024-11-24T08:17:07.331Z,76942,-0.06225298,0.026039146,-0.054364245
1732436227349,2024-11-24T08:17:07.349Z,76960,-0.03433271,0.040771008,-0.07810866
1732436227351,2024-11-24T08:17:07.351Z,76962,-0.03433271,0.040771008,-0.07810866
1732436227360,2024-11-24T08:17:07.360Z,76971,0.01881257,0.024413649,-0.09733636
1732436227363,2024-11-24T08:17:07.363Z,76974,0.01881257,0.024413649,-0.09733636
1732436227373,2024-11-24T08:17:07.373Z,76984,0.012873689,0.029598607,-0.083077095
1732436227376,2024-11-24T08:17:07.376Z,76987,0.012873689,0.029598607,-0.083077095
1732436227397,2024-11-24T08:17:07.397Z,77008,0.0054754475,0.041744553,-0.07249128
1732436227400,2024-11-24T08:17:07.400Z,77011,0.0054754475,0.041744553,-0.07249128
1732436227409,2024-11-24T08:17:07.409Z,77020,-0.039648138,-6.8102573E-4,-0.11412075
1732436227412,2024-11-24T08:17:07.412Z,77023,-0.039648138,-6.8102573E-4,-0.11412075
1732436227443,2024-11-24T08:17:07.443Z,77054,-0.060542002,-0.011491568,-0.107953265
1732436227451,2024-11-24T08:17:07.451Z,77062,-0.060542002,-0.011491568,-0.107953265
1732436227473,2024-11-24T08:17:07.473Z,77084,-0.034899265,-0.01408215,-0.037821423
1732436227479,2024-11-24T08:17:07.479Z,77090,-0.034899265,-0.01408215,-0.037821423
1732436227498,2024-11-24T08:17:07.498Z,77109,-0.044909626,0.007983648,-0.048820782
1732436227504,2024-11-24T08:17:07.504Z,77115,-0.044909626,0.007983648,-0.048820782
1732436227517,2024-11-24T08:17:07.517Z,77128,-0.027778665,0.0023021451,-0.0865747
1732436227521,2024-11-24T08:17:07.521Z,77132,-0.027778665,0.0023021451,-0.0865747
1732436227535,2024-11-24T08:17:07.535Z,77146,-0.020631395,-0.0043882057,-0.09080188
1732436227539,2024-11-24T08:17:07.539Z,77150,-0.020631395,-0.0043882057,-0.09080188
1732436227551,2024-11-24T08:17:07.551Z,77162,-0.11177023,-0.00898034,-0.13930172
1732436227555,2024-11-24T08:17:07.555Z,77166,-0.11177023,-0.00898034,-0.13930172
1732436227566,2024-11-24T08:17:07.566Z,77177,-0.08140487,-0.03700791,-0.10321573
1732436227569,2024-11-24T08:17:07.569Z,77180,-0.08140487,-0.03700791,-0.10321573
1732436227583,2024-11-24T08:17:07.583Z,77194,-0.11209868,-0.012419992,-0.07676027
1732436227588,2024-11-24T08:17:07.588Z,77199,-0.11209868,-0.012419992,-0.07676027
1732436227609,2024-11-24T08:17:07.609Z,77220,-0.07235201,0.0022048973,-0.10569296
1732436227614,2024-11-24T08:17:07.614Z,77225,-0.07235201,0.0022048973,-0.10569296
1732436227633,2024-11-24T08:17:07.633Z,77244,-0.0794904,0.025096426,-0.13830292
1732436227639,2024-11-24T08:17:07.639Z,77250,-0.0794904,0.025096426,-0.13830292
1732436227657,2024-11-24T08:17:07.657Z,77268,-0.027880628,0.064434685,-0.10344835
1732436227664,2024-11-24T08:17:07.664Z,77275,-0.027880628,0.064434685,-0.10344835
1732436227680,2024-11-24T08:17:07.680Z,77291,-0.06759944,0.07008273,-0.15771277
1732436227684,2024-11-24T08:17:07.684Z,77295,-0.06759944,0.07008273,-0.15771277
1732436227696,2024-11-24T08:17:07.696Z,77307,-0.0895236,0.04303163,-0.16965382
1732436227700,2024-11-24T08:17:07.700Z,77311,-0.0895236,0.04303163,-0.16965382
1732436227712,2024-11-24T08:17:07.712Z,77323,-0.04884901,0.0400893,-0.048882756
1732436227716,2024-11-24T08:17:07.716Z,77327,-0.04884901,0.0400893,-0.048882756
1732436227727,2024-11-24T08:17:07.727Z,77338,-0.09136425,0.045631155,-0.05143033
1732436227731,2024-11-24T08:17:07.731Z,77342,-0.09136425,0.045631155,-0.05143033
1732436227742,2024-11-24T08:17:07.742Z,77353,-0.039842922,0.030650923,-0.08267374
1732436227745,2024-11-24T08:17:07.745Z,77356,-0.039842922,0.030650923,-0.08267374
1732436227755,2024-11-24T08:17:07.755Z,77366,0.0076513286,0.011298239,-0.08836297
1732436227757,2024-11-24T08:17:07.757Z,77368,0.0076513286,0.011298239,-0.08836297
1732436227766,2024-11-24T08:17:07.766Z,77377,-0.07299173,0.018865181,-0.094285674
1732436227769,2024-11-24T08:17:07.769Z,77380,-0.07299173,0.018865181,-0.094285674
1732436227777,2024-11-24T08:17:07.777Z,77388,-0.08123622,0.01419661,-0.09828991
1732436227779,2024-11-24T08:17:07.779Z,77390,-0.08123622,0.01419661,-0.09828991
1732436227788,2024-11-24T08:17:07.788Z,77399,-0.043285638,-0.010831062,-0.09407654
1732436227790,2024-11-24T08:17:07.790Z,77401,-0.043285638,-0.010831062,-0.09407654
1732436227798,2024-11-24T08:17:07.798Z,77409,-0.06463346,-0.006718456,-0.07766915
1732436227801,2024-11-24T08:17:07.801Z,77412,-0.06463346,-0.006718456,-0.07766915
1732436227808,2024-11-24T08:17:07.808Z,77419,-0.043345664,-0.0060297474,-0.04438258
1732436227811,2024-11-24T08:17:07.811Z,77422,-0.043345664,-0.0060297474,-0.04438258
1732436227823,2024-11-24T08:17:07.823Z,77434,-0.072849676,-0.002083435,-0.080454946
1732436227826,2024-11-24T08:17:07.826Z,77437,-0.072849676,-0.002083435,-0.080454946
1732436227834,2024-11-24T08:17:07.834Z,77445,-0.041125547,0.0011437304,-0.074919544
1732436227837,2024-11-24T08:17:07.837Z,77448,-0.041125547,0.0011437304,-0.074919544
1732436227846,2024-11-24T08:17:07.846Z,77457,-0.070678815,0.015802072,-0.07707799
1732436227848,2024-11-24T08:17:07.848Z,77459,-0.070678815,0.015802072,-0.07707799
1732436227856,2024-11-24T08:17:07.856Z,77467,-0.071608886,0.043795995,-0.06617844
1732436227860,2024-11-24T08:17:07.860Z,77471,-0.071608886,0.043795995,-0.06617844
1732436227875,2024-11-24T08:17:07.875Z,77486,-0.05445974,0.06708624,-0.068400845
1732436227882,2024-11-24T08:17:07.882Z,77493,-0.05445974,0.06708624,-0.068400845
1732436227901,2024-11-24T08:17:07.901Z,77512,-0.059768543,0.07963401,-0.07209955
1732436227907,2024-11-24T08:17:07.907Z,77518,-0.059768543,0.07963401,-0.07209955
1732436227929,2024-11-24T08:17:07.929Z,77540,-0.06915623,0.10863688,-0.088919275
1732436227935,2024-11-24T08:17:07.935Z,77546,-0.06915623,0.10863688,-0.088919275
1732436227953,2024-11-24T08:17:07.953Z,77564,-0.12582675,0.091297515,-0.14362493
1732436227959,2024-11-24T08:17:07.959Z,77570,-0.12582675,0.091297515,-0.14362493
1732436227977,2024-11-24T08:17:07.977Z,77588,-0.03164416,0.06558337,-0.07723219
1732436227981,2024-11-24T08:17:07.981Z,77592,-0.03164416,0.06558337,-0.07723219
1732436227992,2024-11-24T08:17:07.992Z,77603,-0.02299376,0.05364009,-0.021865407
1732436227995,2024-11-24T08:17:07.995Z,77606,-0.02299376,0.05364009,-0.021865407
1732436228004,2024-11-24T08:17:08.004Z,77615,-0.06571964,0.087856114,-0.031427458
1732436228007,2024-11-24T08:17:08.007Z,77618,-0.06571964,0.087856114,-0.031427458
1732436228016,2024-11-24T08:17:08.016Z,77627,-0.08649484,0.09801578,-0.054177772
1732436228019,2024-11-24T08:17:08.019Z,77630,-0.08649484,0.09801578,-0.054177772
1732436228027,2024-11-24T08:17:08.027Z,77638,-0.08163858,0.06739568,-0.12913212
1732436228030,2024-11-24T08:17:08.030Z,77641,-0.08163858,0.06739568,-0.12913212
1732436228037,2024-11-24T08:17:08.037Z,77648,-0.0021277799,0.043775573,-0.04060306
1732436228039,2024-11-24T08:17:08.039Z,77650,-0.0021277799,0.043775573,-0.04060306
1732436228046,2024-11-24T08:17:08.046Z,77657,-0.02021549,0.054481477,-0.010345261
1732436228049,2024-11-24T08:17:08.049Z,77660,-0.02021549,0.054481477,-0.010345261
1732436228056,2024-11-24T08:17:08.056Z,77667,-0.076216824,0.081134446,-0.057010636
1732436228058,2024-11-24T08:17:08.058Z,77669,-0.076216824,0.081134446,-0.057010636
1732436228067,2024-11-24T08:17:08.067Z,77678,-0.13280034,0.070073105,-0.14482746
1732436228070,2024-11-24T08:17:08.070Z,77681,-0.13280034,0.070073105,-0.14482746
1732436228079,2024-11-24T08:17:08.079Z,77690,-0.06138278,-2.1958534E-4,-0.07525161
1732436228082,2024-11-24T08:17:08.082Z,77693,-0.06138278,-2.1958534E-4,-0.07525161
1732436228091,2024-11-24T08:17:08.091Z,77702,-0.02127075,0.03375235,-0.011424248
1732436228094,2024-11-24T08:17:08.094Z,77705,-0.02127075,0.03375235,-0.011424248
1732436228102,2024-11-24T08:17:08.102Z,77713,-0.037794642,0.02092654,-0.030565735
1732436228106,2024-11-24T08:17:08.106Z,77717,-0.037794642,0.02092654,-0.030565735
1732436228122,2024-11-24T08:17:08.122Z,77733,-0.06310433,0.045695826,-0.03752669
1732436228127,2024-11-24T08:17:08.127Z,77738,-0.06310433,0.045695826,-0.03752669
1732436228142,2024-11-24T08:17:08.142Z,77753,-0.06663623,0.08644476,-0.07920589
1732436228145,2024-11-24T08:17:08.145Z,77756,-0.06663623,0.08644476,-0.07920589
1732436228154,2024-11-24T08:17:08.154Z,77765,-0.07758476,0.0656814,-0.1284868
1732436228157,2024-11-24T08:17:08.157Z,77768,-0.07758476,0.0656814,-0.1284868
1732436228166,2024-11-24T08:17:08.166Z,77777,0.043388307,-6.943487E-5,0.019115096
1732436228169,2024-11-24T08:17:08.169Z,77780,0.043388307,-6.943487E-5,0.019115096
1732436228177,2024-11-24T08:17:08.177Z,77788,0.0039820992,0.03126485,0.032742064
1732436228179,2024-11-24T08:17:08.179Z,77790,0.0039820992,0.03126485,0.032742064
1732436228188,2024-11-24T08:17:08.188Z,77799,-0.0147131905,0.024817325,-0.0011971801
1732436228191,2024-11-24T08:17:08.191Z,77802,-0.0147131905,0.024817325,-0.0011971801
1732436228199,2024-11-24T08:17:08.199Z,77810,0.017875418,0.02921934,-0.010274123
1732436228201,2024-11-24T08:17:08.201Z,77812,0.017875418,0.02921934,-0.010274123
1732436228209,2024-11-24T08:17:08.209Z,77820,0.01003205,0.096611425,-0.07589232
1732436228211,2024-11-24T08:17:08.211Z,77822,0.01003205,0.096611425,-0.07589232
1732436228220,2024-11-24T08:17:08.220Z,77831,-0.022037571,0.06034454,-0.15189599
1732436228222,2024-11-24T08:17:08.222Z,77833,-0.022037571,0.06034454,-0.15189599
1732436228230,2024-11-24T08:17:08.230Z,77841,0.07176468,0.06835172,-0.041931245
1732436228232,2024-11-24T08:17:08.232Z,77843,0.07176468,0.06835172,-0.041931245
1732436228244,2024-11-24T08:17:08.244Z,77855,0.011659953,0.029662887,-0.020969233
1732436228254,2024-11-24T08:17:08.254Z,77865,0.011659953,0.029662887,-0.020969233
1732436228270,2024-11-24T08:17:08.270Z,77881,0.040468566,0.054843336,-0.03805968
1732436228276,2024-11-24T08:17:08.276Z,77887,0.040468566,0.054843336,-0.03805968
1732436228295,2024-11-24T08:17:08.295Z,77906,0.0010061006,0.038440175,-0.07981838
1732436228300,2024-11-24T08:17:08.300Z,77911,0.0010061006,0.038440175,-0.07981838
1732436228313,2024-11-24T08:17:08.313Z,77924,0.051087264,0.07083942,-0.016206114
1732436228319,2024-11-24T08:17:08.319Z,77930,0.051087264,0.07083942,-0.016206114
1732436228340,2024-11-24T08:17:08.340Z,77951,0.083499104,0.053746965,-0.066703595
1732436228345,2024-11-24T08:17:08.345Z,77956,0.083499104,0.053746965,-0.066703595
1732436228359,2024-11-24T08:17:08.359Z,77970,0.112920314,0.068858,-0.047684956
1732436228363,2024-11-24T08:17:08.363Z,77974,0.112920314,0.068858,-0.047684956
1732436228374,2024-11-24T08:17:08.374Z,77985,0.10056447,0.047643404,-0.044766795
1732436228378,2024-11-24T08:17:08.378Z,77989,0.10056447,0.047643404,-0.044766795
1732436228390,2024-11-24T08:17:08.390Z,78001,0.04527528,0.035577297,-0.0198247
1732436228393,2024-11-24T08:17:08.393Z,78004,0.04527528,0.035577297,-0.0198247
1732436228403,2024-11-24T08:17:08.403Z,78014,0.025324691,0.015709396,0.04970733
1732436228406,2024-11-24T08:17:08.406Z,78017,0.025324691,0.015709396,0.04970733
1732436228415,2024-11-24T08:17:08.415Z,78026,-0.012770935,-0.015523847,-0.0607973
1732436228417,2024-11-24T08:17:08.417Z,78028,-0.012770935,-0.015523847,-0.0607973
1732436228427,2024-11-24T08:17:08.427Z,78038,0.043861274,-0.011914498,-0.013659924
1732436228430,2024-11-24T08:17:08.430Z,78041,0.043861274,-0.011914498,-0.013659924
1732436228445,2024-11-24T08:17:08.445Z,78056,0.043178737,-0.017654253,-0.021309478
1732436228447,2024-11-24T08:17:08.447Z,78058,0.043178737,-0.017654253,-0.021309478
1732436228456,2024-11-24T08:17:08.456Z,78067,-0.012912746,0.026267484,-0.041782506
1732436228458,2024-11-24T08:17:08.458Z,78069,-0.012912746,0.026267484,-0.041782506
1732436228465,2024-11-24T08:17:08.465Z,78076,0.029781261,0.002351547,-0.066270135
1732436228467,2024-11-24T08:17:08.467Z,78078,0.029781261,0.002351547,-0.066270135
1732436228475,2024-11-24T08:17:08.475Z,78086,0.030085452,-0.0045325216,-0.03254256
1732436228477,2024-11-24T08:17:08.477Z,78088,0.030085452,-0.0045325216,-0.03254256
1732436228485,2024-11-24T08:17:08.485Z,78096,0.05599431,0.009516564,0.0045700106
1732436228488,2024-11-24T08:17:08.488Z,78099,0.05599431,0.009516564,0.0045700106
1732436228498,2024-11-24T08:17:08.498Z,78109,0.042633712,-0.0029044002,-0.040405136
1732436228502,2024-11-24T08:17:08.502Z,78113,0.042633712,-0.0029044002,-0.040405136
1732436228513,2024-11-24T08:17:08.513Z,78124,-0.0010360285,0.01101554,-0.07555659
1732436228520,2024-11-24T08:17:08.520Z,78131,-0.0010360285,0.01101554,-0.07555659
1732436228537,2024-11-24T08:17:08.537Z,78148,0.017033035,0.040554825,-0.09960439
1732436228539,2024-11-24T08:17:08.539Z,78150,0.017033035,0.040554825,-0.09960439
1732436228546,2024-11-24T08:17:08.546Z,78157,0.034818206,-0.015168309,-0.042985022
1732436228549,2024-11-24T08:17:08.549Z,78160,0.034818206,-0.015168309,-0.042985022
1732436228556,2024-11-24T08:17:08.556Z,78167,0.03651496,-0.0041219415,-0.02580743
1732436228559,2024-11-24T08:17:08.559Z,78170,0.03651496,-0.0041219415,-0.02580743
1732436228568,2024-11-24T08:17:08.568Z,78179,0.04948253,-0.03603018,-0.029260013
1732436228571,2024-11-24T08:17:08.571Z,78182,0.04948253,-0.03603018,-0.029260013
1732436228579,2024-11-24T08:17:08.579Z,78190,-0.006005411,-0.00617134,-0.086037554
1732436228581,2024-11-24T08:17:08.581Z,78192,-0.006005411,-0.00617134,-0.086037554
1732436228590,2024-11-24T08:17:08.590Z,78201,0.033263873,0.007777775,-0.0016671176
1732436228592,2024-11-24T08:17:08.592Z,78203,0.033263873,0.007777775,-0.0016671176
1732436228598,2024-11-24T08:17:08.598Z,78209,0.006497071,-0.026903192,-0.04535969
1732436228601,2024-11-24T08:17:08.601Z,78212,0.006497071,-0.026903192,-0.04535969
1732436228608,2024-11-24T08:17:08.608Z,78219,0.0060781282,0.013665735,0.023566063
1732436228610,2024-11-24T08:17:08.610Z,78221,0.0060781282,0.013665735,0.023566063
1732436228617,2024-11-24T08:17:08.617Z,78228,-0.0018204043,0.01458531,0.028613852
1732436228619,2024-11-24T08:17:08.619Z,78230,-0.0018204043,0.01458531,0.028613852
1732436228631,2024-11-24T08:17:08.631Z,78242,0.043046847,0.005268395,0.018188605
1732436228638,2024-11-24T08:17:08.638Z,78249,0.043046847,0.005268395,0.018188605
1732436228656,2024-11-24T08:17:08.656Z,78267,0.07813311,0.029246278,-0.038506083
1732436228658,2024-11-24T08:17:08.658Z,78269,0.07813311,0.029246278,-0.038506083
1732436228666,2024-11-24T08:17:08.666Z,78277,0.06608145,0.07228987,-0.042028103
1732436228669,2024-11-24T08:17:08.669Z,78280,0.06608145,0.07228987,-0.042028103
1732436228676,2024-11-24T08:17:08.676Z,78287,-0.068030395,0.018081656,-0.16441637
1732436228678,2024-11-24T08:17:08.678Z,78289,-0.068030395,0.018081656,-0.16441637
1732436228703,2024-11-24T08:17:08.703Z,78314,0.17320906,0.05197064,0.02607413
1732436228705,2024-11-24T08:17:08.705Z,78316,0.17320906,0.05197064,0.02607413
1732436228714,2024-11-24T08:17:08.714Z,78325,0.08845285,0.005315463,-0.024397664
1732436228717,2024-11-24T08:17:08.717Z,78328,0.08845285,0.005315463,-0.024397664
1732436228725,2024-11-24T08:17:08.725Z,78336,0.060111195,0.03802619,-0.028065084
1732436228728,2024-11-24T08:17:08.728Z,78339,0.060111195,0.03802619,-0.028065084
1732436228744,2024-11-24T08:17:08.744Z,78355,0.074679315,0.010559157,-0.044144675
1732436228746,2024-11-24T08:17:08.746Z,78357,0.074679315,0.010559157,-0.044144675
1732436228756,2024-11-24T08:17:08.756Z,78367,0.110332616,-0.056320332,-0.009788213
1732436228759,2024-11-24T08:17:08.759Z,78370,0.110332616,-0.056320332,-0.009788213
1732436228767,2024-11-24T08:17:08.767Z,78378,0.043486964,-0.053603135,-0.03932367
1732436228770,2024-11-24T08:17:08.770Z,78381,0.043486964,-0.053603135,-0.03932367
1732436228788,2024-11-24T08:17:08.788Z,78399,0.067201674,-0.0860122,-0.028378062
1732436228791,2024-11-24T08:17:08.791Z,78402,0.067201674,-0.0860122,-0.028378062
1732436228800,2024-11-24T08:17:08.800Z,78411,-0.07434454,-0.058356117,-0.08942405
1732436228802,2024-11-24T08:17:08.802Z,78413,-0.07434454,-0.058356117,-0.08942405
1732436228811,2024-11-24T08:17:08.811Z,78422,0.030366255,-0.080704905,-0.07081142
1732436228813,2024-11-24T08:17:08.813Z,78424,0.030366255,-0.080704905,-0.07081142
1732436228821,2024-11-24T08:17:08.821Z,78432,0.035048466,-0.070528224,-0.07518165
1732436228824,2024-11-24T08:17:08.824Z,78435,0.035048466,-0.070528224,-0.07518165
1732436228835,2024-11-24T08:17:08.835Z,78446,0.08639924,-0.05042761,-0.021780778
1732436228838,2024-11-24T08:17:08.838Z,78449,0.08639924,-0.05042761,-0.021780778
1732436228846,2024-11-24T08:17:08.846Z,78457,0.03013043,-0.051408157,-0.040379304
1732436228848,2024-11-24T08:17:08.848Z,78459,0.03013043,-0.051408157,-0.040379304
1732436228855,2024-11-24T08:17:08.855Z,78466,0.105806,-0.043070138,-0.0042233346
1732436228857,2024-11-24T08:17:08.857Z,78468,0.105806,-0.043070138,-0.0042233346
1732436228880,2024-11-24T08:17:08.880Z,78491,-0.025784818,-0.038584393,-0.082210995
1732436228883,2024-11-24T08:17:08.883Z,78494,-0.025784818,-0.038584393,-0.082210995
1732436228892,2024-11-24T08:17:08.892Z,78503,7.4725144E-4,-0.041919988,-0.109702386
1732436228895,2024-11-24T08:17:08.895Z,78506,7.4725144E-4,-0.041919988,-0.109702386
1732436228903,2024-11-24T08:17:08.903Z,78514,0.060046867,-0.040480915,-0.057169963
1732436228905,2024-11-24T08:17:08.905Z,78516,0.060046867,-0.040480915,-0.057169963
1732436228925,2024-11-24T08:17:08.925Z,78536,0.016243894,-0.06732051,-0.01674331
1732436228927,2024-11-24T08:17:08.927Z,78538,0.016243894,-0.06732051,-0.01674331
1732436228936,2024-11-24T08:17:08.936Z,78547,0.021931207,-0.08747957,-0.0223502
1732436228939,2024-11-24T08:17:08.939Z,78550,0.021931207,-0.08747957,-0.0223502
1732436228968,2024-11-24T08:17:08.968Z,78579,0.034623567,-0.0574134,-0.009455164
1732436228971,2024-11-24T08:17:08.971Z,78582,0.034623567,-0.0574134,-0.009455164
1732436228980,2024-11-24T08:17:08.980Z,78591,0.037926875,-0.08762535,-0.06011878
1732436228983,2024-11-24T08:17:08.983Z,78594,0.037926875,-0.08762535,-0.06011878
1732436229000,2024-11-24T08:17:09Z,78611,-0.028820721,-0.054670528,-0.045361392
1732436229003,2024-11-24T08:17:09.003Z,78614,-0.028820721,-0.054670528,-0.045361392
1732436229016,2024-11-24T08:17:09.016Z,78627,0.07402246,-0.08251644,-0.032579746
1732436229019,2024-11-24T08:17:09.019Z,78630,0.07402246,-0.08251644,-0.032579746
1732436229027,2024-11-24T08:17:09.027Z,78638,-0.04400243,-0.06839334,-0.10040206
1732436229030,2024-11-24T08:17:09.030Z,78641,-0.04400243,-0.06839334,-0.10040206
1732436229061,2024-11-24T08:17:09.061Z,78672,-0.0030104732,-0.07517647,-0.06874392
1732436229065,2024-11-24T08:17:09.065Z,78676,-0.0030104732,-0.07517647,-0.06874392
1732436229076,2024-11-24T08:17:09.076Z,78687,0.07285529,-0.10242616,-0.00982676
1732436229079,2024-11-24T08:17:09.079Z,78690,0.07285529,-0.10242616,-0.00982676
1732436229110,2024-11-24T08:17:09.110Z,78721,0.016076336,-0.0679674,-0.06044958
1732436229119,2024-11-24T08:17:09.119Z,78730,0.016076336,-0.0679674,-0.06044958
1732436229149,2024-11-24T08:17:09.149Z,78760,0.01402526,-0.087003544,-0.0933187
1732436229158,2024-11-24T08:17:09.158Z,78769,0.01402526,-0.087003544,-0.0933187
1732436229182,2024-11-24T08:17:09.182Z,78793,0.021312809,-0.07129123,-0.05087857
1732436229189,2024-11-24T08:17:09.189Z,78800,0.021312809,-0.07129123,-0.05087857
1732436229206,2024-11-24T08:17:09.206Z,78817,-0.033992622,-0.083635755,-0.047309652
1732436229210,2024-11-24T08:17:09.210Z,78821,-0.033992622,-0.083635755,-0.047309652
1732436229223,2024-11-24T08:17:09.223Z,78834,-0.038206805,-0.03196688,-0.036137216
1732436229227,2024-11-24T08:17:09.227Z,78838,-0.038206805,-0.03196688,-0.036137216
1732436229239,2024-11-24T08:17:09.239Z,78850,-0.03682968,-0.03927242,-0.073575094
1732436229243,2024-11-24T08:17:09.243Z,78854,-0.03682968,-0.03927242,-0.073575094
1732436229255,2024-11-24T08:17:09.255Z,78866,-0.045470674,-0.040162627,-0.07808866
1732436229258,2024-11-24T08:17:09.258Z,78869,-0.045470674,-0.040162627,-0.07808866
1732436229269,2024-11-24T08:17:09.269Z,78880,-0.016651556,-0.046649534,-0.02760442
1732436229272,2024-11-24T08:17:09.272Z,78883,-0.016651556,-0.046649534,-0.02760442
1732436229281,2024-11-24T08:17:09.281Z,78892,-0.03664194,-0.044619,-0.030735213
1732436229284,2024-11-24T08:17:09.284Z,78895,-0.03664194,-0.044619,-0.030735213
1732436229293,2024-11-24T08:17:09.293Z,78904,-0.106476426,-0.041084923,-0.10094988
1732436229296,2024-11-24T08:17:09.296Z,78907,-0.106476426,-0.041084923,-0.10094988
1732436229304,2024-11-24T08:17:09.304Z,78915,-0.09554009,-0.037149988,-0.06554298
1732436229306,2024-11-24T08:17:09.306Z,78917,-0.09554009,-0.037149988,-0.06554298
1732436229313,2024-11-24T08:17:09.313Z,78924,-0.089264184,-0.04799593,-0.05223865
1732436229316,2024-11-24T08:17:09.316Z,78927,-0.089264184,-0.04799593,-0.05223865
1732436229323,2024-11-24T08:17:09.323Z,78934,-0.027632743,-0.041626494,-0.02777864
1732436229326,2024-11-24T08:17:09.326Z,78937,-0.027632743,-0.041626494,-0.02777864
1732436229333,2024-11-24T08:17:09.333Z,78944,-0.0939003,-0.057954192,-0.0391115
1732436229336,2024-11-24T08:17:09.336Z,78947,-0.0939003,-0.057954192,-0.0391115
1732436229343,2024-11-24T08:17:09.343Z,78954,-0.087098554,-0.042048454,-0.013924195
1732436229345,2024-11-24T08:17:09.345Z,78956,-0.087098554,-0.042048454,-0.013924195
1732436229352,2024-11-24T08:17:09.352Z,78963,-0.05920662,-0.061297666,-0.033009216
1732436229355,2024-11-24T08:17:09.355Z,78966,-0.05920662,-0.061297666,-0.033009216
1732436229363,2024-11-24T08:17:09.363Z,78974,-0.05216562,-0.06057492,-0.0678923
1732436229366,2024-11-24T08:17:09.366Z,78977,-0.05216562,-0.06057492,-0.0678923
1732436229375,2024-11-24T08:17:09.375Z,78986,-0.03195618,-0.056794222,-0.021735035
1732436229377,2024-11-24T08:17:09.377Z,78988,-0.03195618,-0.056794222,-0.021735035
1732436229387,2024-11-24T08:17:09.387Z,78998,-0.058346223,-0.047569692,-0.043954507
1732436229389,2024-11-24T08:17:09.389Z,79000,-0.058346223,-0.047569692,-0.043954507
1732436229396,2024-11-24T08:17:09.396Z,79007,-0.09081366,-0.04658253,-0.06904887
1732436229399,2024-11-24T08:17:09.399Z,79010,-0.09081366,-0.04658253,-0.06904887
1732436229406,2024-11-24T08:17:09.406Z,79017,-0.009051064,-0.061646394,-0.03637444
1732436229409,2024-11-24T08:17:09.409Z,79020,-0.009051064,-0.061646394,-0.03637444
1732436229417,2024-11-24T08:17:09.417Z,79028,-0.052399233,-0.054977927,-0.030444114
1732436229420,2024-11-24T08:17:09.420Z,79031,-0.052399233,-0.054977927,-0.030444114
1732436229427,2024-11-24T08:17:09.427Z,79038,-0.015350844,-0.0433082,0.008725356
1732436229429,2024-11-24T08:17:09.429Z,79040,-0.015350844,-0.0433082,0.008725356
1732436229436,2024-11-24T08:17:09.436Z,79047,-0.0048937965,-0.013979846,-0.032014895
1732436229439,2024-11-24T08:17:09.439Z,79050,-0.0048937965,-0.013979846,-0.032014895
1732436229445,2024-11-24T08:17:09.445Z,79056,0.10675212,-0.030447092,-0.079980716
1732436229448,2024-11-24T08:17:09.448Z,79059,0.10675212,-0.030447092,-0.079980716
1732436229466,2024-11-24T08:17:09.466Z,79077,0.039521374,-0.017230544,-0.07457549
1732436229469,2024-11-24T08:17:09.469Z,79080,0.039521374,-0.017230544,-0.07457549
1732436229477,2024-11-24T08:17:09.477Z,79088,0.04318822,-0.01590321,-0.0077323723
1732436229479,2024-11-24T08:17:09.479Z,79090,0.04318822,-0.01590321,-0.0077323723
1732436229487,2024-11-24T08:17:09.487Z,79098,-0.013175607,-0.01995105,0.03552905
1732436229490,2024-11-24T08:17:09.490Z,79101,-0.013175607,-0.01995105,0.03552905
1732436229510,2024-11-24T08:17:09.510Z,79121,0.029651824,-0.026460715,-0.01709841
1732436229513,2024-11-24T08:17:09.513Z,79124,0.029651824,-0.026460715,-0.01709841
1732436229521,2024-11-24T08:17:09.521Z,79132,0.042312603,-0.035898995,-0.027325744
1732436229524,2024-11-24T08:17:09.524Z,79135,0.042312603,-0.035898995,-0.027325744
1732436229557,2024-11-24T08:17:09.557Z,79168,0.025386347,-0.011191656,-0.031960472
1732436229564,2024-11-24T08:17:09.564Z,79175,0.025386347,-0.011191656,-0.031960472
1732436229587,2024-11-24T08:17:09.587Z,79198,0.049699027,-0.033603072,-0.013031741
1732436229594,2024-11-24T08:17:09.594Z,79205,0.049699027,-0.033603072,-0.013031741
1732436229615,2024-11-24T08:17:09.615Z,79226,0.027084291,-0.022512555,-0.011408676
1732436229621,2024-11-24T08:17:09.621Z,79232,0.027084291,-0.022512555,-0.011408676
1732436229641,2024-11-24T08:17:09.641Z,79252,-0.030794097,-0.030058587,-0.02520358
1732436229647,2024-11-24T08:17:09.647Z,79258,-0.030794097,-0.030058587,-0.02520358
1732436229669,2024-11-24T08:17:09.669Z,79280,0.03424746,-0.027558057,-0.01575695
1732436229680,2024-11-24T08:17:09.680Z,79291,0.03424746,-0.027558057,-0.01575695
1732436229700,2024-11-24T08:17:09.700Z,79311,-0.003555425,-0.021242693,-0.018466307
1732436229705,2024-11-24T08:17:09.705Z,79316,-0.003555425,-0.021242693,-0.018466307
1732436229722,2024-11-24T08:17:09.722Z,79333,-7.567574E-4,-0.030089416,-0.028015073
1732436229725,2024-11-24T08:17:09.725Z,79336,-7.567574E-4,-0.030089416,-0.028015073
1732436229738,2024-11-24T08:17:09.738Z,79349,0.020094782,-0.036073845,-0.056252748
1732436229742,2024-11-24T08:17:09.742Z,79353,0.020094782,-0.036073845,-0.056252748
1732436229753,2024-11-24T08:17:09.753Z,79364,0.016451176,-0.053714193,-0.08611547
1732436229757,2024-11-24T08:17:09.757Z,79368,0.016451176,-0.053714193,-0.08611547
1732436229768,2024-11-24T08:17:09.768Z,79379,-0.008603724,-0.05874637,-0.11635927
1732436229771,2024-11-24T08:17:09.771Z,79382,-0.008603724,-0.05874637,-0.11635927
1732436229780,2024-11-24T08:17:09.780Z,79391,-0.034888394,-0.058572102,-0.1149652
1732436229783,2024-11-24T08:17:09.783Z,79394,-0.034888394,-0.058572102,-0.1149652
1732436229792,2024-11-24T08:17:09.792Z,79403,-0.016935958,-0.06234084,-0.0379114
1732436229795,2024-11-24T08:17:09.795Z,79406,-0.016935958,-0.06234084,-0.0379114
1732436229806,2024-11-24T08:17:09.806Z,79417,0.017763073,-0.06976395,-0.06875918
1732436229812,2024-11-24T08:17:09.812Z,79423,0.017763073,-0.06976395,-0.06875918
1732436229829,2024-11-24T08:17:09.829Z,79440,-0.015759673,-0.05768287,-0.059719615
1732436229834,2024-11-24T08:17:09.834Z,79445,-0.015759673,-0.05768287,-0.059719615
1732436229848,2024-11-24T08:17:09.848Z,79459,-0.008776339,-0.040891204,-0.064794496
1732436229851,2024-11-24T08:17:09.851Z,79462,-0.008776339,-0.040891204,-0.064794496
1732436229861,2024-11-24T08:17:09.861Z,79472,-0.030593645,-0.043216594,-0.057356372
1732436229864,2024-11-24T08:17:09.864Z,79475,-0.030593645,-0.043216594,-0.057356372
1732436229875,2024-11-24T08:17:09.875Z,79486,0.040317565,-0.030856991,-0.006242264
1732436229878,2024-11-24T08:17:09.878Z,79489,0.040317565,-0.030856991,-0.006242264
1732436229887,2024-11-24T08:17:09.887Z,79498,0.0071618324,-0.015283937,-0.049981516
1732436229889,2024-11-24T08:17:09.889Z,79500,0.0071618324,-0.015283937,-0.049981516
1732436229898,2024-11-24T08:17:09.898Z,79509,0.0034565728,-0.0061782445,-0.06144421
1732436229901,2024-11-24T08:17:09.901Z,79512,0.0034565728,-0.0061782445,-0.06144421
1732436229911,2024-11-24T08:17:09.911Z,79522,0.008362404,0.004907217,-0.07166328
1732436229914,2024-11-24T08:17:09.914Z,79525,0.008362404,0.004907217,-0.07166328
1732436229926,2024-11-24T08:17:09.926Z,79537,0.006496099,-0.004403182,-0.044731572
1732436229931,2024-11-24T08:17:09.931Z,79542,0.006496099,-0.004403182,-0.044731572
1732436229947,2024-11-24T08:17:09.947Z,79558,-0.009847133,0.0022320296,-0.027159499
1732436229953,2024-11-24T08:17:09.953Z,79564,-0.009847133,0.0022320296,-0.027159499
1732436229970,2024-11-24T08:17:09.970Z,79581,-0.027610328,0.0024961543,-0.029519277
1732436229976,2024-11-24T08:17:09.976Z,79587,-0.027610328,0.0024961543,-0.029519277
1732436229994,2024-11-24T08:17:09.994Z,79605,-0.011883112,2.3903488E-4,-0.03205903
1732436229998,2024-11-24T08:17:09.998Z,79609,-0.011883112,2.3903488E-4,-0.03205903
1732436230014,2024-11-24T08:17:10.014Z,79625,-0.029690068,0.0021154296,-0.05511366
1732436230017,2024-11-24T08:17:10.017Z,79628,-0.029690068,0.0021154296,-0.05511366
1732436230028,2024-11-24T08:17:10.028Z,79639,-0.03739019,-0.006022259,-0.07905789
1732436230031,2024-11-24T08:17:10.031Z,79642,-0.03739019,-0.006022259,-0.07905789
1732436230043,2024-11-24T08:17:10.043Z,79654,-0.053399086,-0.014330229,-0.08341373
1732436230047,2024-11-24T08:17:10.047Z,79658,-0.053399086,-0.014330229,-0.08341373
1732436230059,2024-11-24T08:17:10.059Z,79670,-0.06597601,-0.035807483,-0.041620266
1732436230062,2024-11-24T08:17:10.062Z,79673,-0.06597601,-0.035807483,-0.041620266
1732436230073,2024-11-24T08:17:10.073Z,79684,-0.05271106,-0.040658686,-0.015113431
1732436230076,2024-11-24T08:17:10.076Z,79687,-0.05271106,-0.040658686,-0.015113431
1732436230085,2024-11-24T08:17:10.085Z,79696,-0.04598448,-0.04528262,-0.04872166
1732436230088,2024-11-24T08:17:10.088Z,79699,-0.04598448,-0.04528262,-0.04872166
1732436230098,2024-11-24T08:17:10.098Z,79709,-0.06641039,-0.029994404,-0.063564256
1732436230103,2024-11-24T08:17:10.103Z,79714,-0.06641039,-0.029994404,-0.063564256
1732436230122,2024-11-24T08:17:10.122Z,79733,-0.082911894,-0.035135794,-0.05798422
1732436230128,2024-11-24T08:17:10.128Z,79739,-0.082911894,-0.035135794,-0.05798422
1732436230151,2024-11-24T08:17:10.151Z,79762,-0.053016633,-0.034669396,-0.03860517
1732436230156,2024-11-24T08:17:10.156Z,79767,-0.053016633,-0.034669396,-0.03860517
1732436230174,2024-11-24T08:17:10.174Z,79785,-0.06849489,-0.03220961,-0.035899267
1732436230181,2024-11-24T08:17:10.181Z,79792,-0.06849489,-0.03220961,-0.035899267
1732436230202,2024-11-24T08:17:10.202Z,79813,-0.08810135,-0.0153464675,-0.056188088
1732436230207,2024-11-24T08:17:10.207Z,79818,-0.08810135,-0.0153464675,-0.056188088
1732436230219,2024-11-24T08:17:10.219Z,79830,-0.043511156,0.0017236185,-0.015657624
1732436230223,2024-11-24T08:17:10.223Z,79834,-0.043511156,0.0017236185,-0.015657624
1732436230235,2024-11-24T08:17:10.235Z,79846,-0.049856108,-0.0075553693,-0.03459923
1732436230238,2024-11-24T08:17:10.238Z,79849,-0.049856108,-0.0075553693,-0.03459923
1732436230248,2024-11-24T08:17:10.248Z,79859,-0.0076575037,-0.013595814,-0.012201683
1732436230251,2024-11-24T08:17:10.251Z,79862,-0.0076575037,-0.013595814,-0.012201683
1732436230262,2024-11-24T08:17:10.262Z,79873,-0.017343497,-0.009616729,-0.052119955
1732436230265,2024-11-24T08:17:10.265Z,79876,-0.017343497,-0.009616729,-0.052119955
1732436230275,2024-11-24T08:17:10.275Z,79886,-0.006601685,-0.005353195,-0.046356425
1732436230278,2024-11-24T08:17:10.278Z,79889,-0.006601685,-0.005353195,-0.046356425
1732436230285,2024-11-24T08:17:10.285Z,79896,-0.0272571,-8.92734E-5,-0.047673207
1732436230288,2024-11-24T08:17:10.288Z,79899,-0.0272571,-8.92734E-5,-0.047673207
1732436230296,2024-11-24T08:17:10.296Z,79907,-0.00841679,5.9136335E-4,-0.02551715
1732436230298,2024-11-24T08:17:10.298Z,79909,-0.00841679,5.9136335E-4,-0.02551715
1732436230305,2024-11-24T08:17:10.305Z,79916,-0.0031197066,0.0045835767,-0.029982194
1732436230308,2024-11-24T08:17:10.308Z,79919,-0.0031197066,0.0045835767,-0.029982194
1732436230318,2024-11-24T08:17:10.318Z,79929,0.0128711,-5.406973E-4,-0.037240192
1732436230323,2024-11-24T08:17:10.323Z,79934,0.0128711,-5.406973E-4,-0.037240192
1732436230331,2024-11-24T08:17:10.331Z,79942,-0.0063336464,-0.021699661,-0.050354466
1732436230334,2024-11-24T08:17:10.334Z,79945,-0.0063336464,-0.021699661,-0.050354466
1732436230343,2024-11-24T08:17:10.343Z,79954,0.017446969,-0.010644443,-0.04273661
1732436230346,2024-11-24T08:17:10.346Z,79957,0.017446969,-0.010644443,-0.04273661
1732436230360,2024-11-24T08:17:10.360Z,79971,5.094808E-4,-0.03129791,-0.057735465
1732436230363,2024-11-24T08:17:10.363Z,79974,5.094808E-4,-0.03129791,-0.057735465
1732436230372,2024-11-24T08:17:10.372Z,79983,-0.017213697,-0.04165392,-0.046420414
1732436230375,2024-11-24T08:17:10.375Z,79986,-0.017213697,-0.04165392,-0.046420414
1732436230382,2024-11-24T08:17:10.382Z,79993,-0.026616894,-0.068564504,-0.031662416
1732436230384,2024-11-24T08:17:10.384Z,79995,-0.026616894,-0.068564504,-0.031662416
1732436230391,2024-11-24T08:17:10.391Z,80002,-0.040276818,-0.0891675,-0.013660241
1732436230393,2024-11-24T08:17:10.393Z,80004,-0.040276818,-0.0891675,-0.013660241
1732436230401,2024-11-24T08:17:10.401Z,80012,-0.04058592,-0.15239319,-0.08184164
1732436230404,2024-11-24T08:17:10.404Z,80015,-0.04058592,-0.15239319,-0.08184164
1732436230412,2024-11-24T08:17:10.412Z,80023,-0.030935131,-0.16551259,-0.06554622
1732436230414,2024-11-24T08:17:10.414Z,80025,-0.030935131,-0.16551259,-0.06554622
1732436230422,2024-11-24T08:17:10.422Z,80033,-0.047767445,-0.18643223,-0.07246412
1732436230424,2024-11-24T08:17:10.424Z,80035,-0.047767445,-0.18643223,-0.07246412
1732436230430,2024-11-24T08:17:10.430Z,80041,-0.03130793,-0.2487723,-0.064994715
1732436230432,2024-11-24T08:17:10.432Z,80043,-0.03130793,-0.2487723,-0.064994715
1732436230439,2024-11-24T08:17:10.439Z,80050,-0.077142045,-0.25993165,-0.10407548
1732436230442,2024-11-24T08:17:10.442Z,80053,-0.077142045,-0.25993165,-0.10407548
1732436230449,2024-11-24T08:17:10.449Z,80060,-0.093450315,-0.2897453,-0.09785468
1732436230453,2024-11-24T08:17:10.453Z,80064,-0.093450315,-0.2897453,-0.09785468
1732436230461,2024-11-24T08:17:10.461Z,80072,-0.09824287,-0.32587358,-0.06787606
1732436230464,2024-11-24T08:17:10.464Z,80075,-0.09824287,-0.32587358,-0.06787606
1732436230474,2024-11-24T08:17:10.474Z,80085,-0.08875855,-0.3052667,-0.07869711
1732436230477,2024-11-24T08:17:10.477Z,80088,-0.08875855,-0.3052667,-0.07869711
1732436230483,2024-11-24T08:17:10.483Z,80094,-0.10261261,-0.30873698,-0.050145973
1732436230486,2024-11-24T08:17:10.486Z,80097,-0.10261261,-0.30873698,-0.050145973
1732436230493,2024-11-24T08:17:10.493Z,80104,-0.09360642,-0.2628463,-0.049168218
1732436230495,2024-11-24T08:17:10.495Z,80106,-0.09360642,-0.2628463,-0.049168218
1732436230501,2024-11-24T08:17:10.501Z,80112,-0.07686861,-0.24076152,-0.05809628
1732436230504,2024-11-24T08:17:10.504Z,80115,-0.07686861,-0.24076152,-0.05809628
1732436230545,2024-11-24T08:17:10.545Z,80156,-0.062219672,-0.21823321,-0.044153266
1732436230547,2024-11-24T08:17:10.547Z,80158,-0.062219672,-0.21823321,-0.044153266
1732436230555,2024-11-24T08:17:10.555Z,80166,-0.044023674,-0.15102327,-0.035912476
1732436230558,2024-11-24T08:17:10.558Z,80169,-0.044023674,-0.15102327,-0.035912476
1732436230566,2024-11-24T08:17:10.566Z,80177,-0.05168823,-0.13945994,-0.048513018
1732436230568,2024-11-24T08:17:10.568Z,80179,-0.05168823,-0.13945994,-0.048513018
1732436230589,2024-11-24T08:17:10.589Z,80200,-0.033432912,-0.14012823,-0.079616055
1732436230592,2024-11-24T08:17:10.592Z,80203,-0.033432912,-0.14012823,-0.079616055
1732436230601,2024-11-24T08:17:10.601Z,80212,-0.008326179,-0.12590885,-0.0479879
1732436230604,2024-11-24T08:17:10.604Z,80215,-0.008326179,-0.12590885,-0.0479879
1732436230613,2024-11-24T08:17:10.613Z,80224,0.013438248,-0.13195318,-0.017453564
1732436230615,2024-11-24T08:17:10.615Z,80226,0.013438248,-0.13195318,-0.017453564
1732436230637,2024-11-24T08:17:10.637Z,80248,0.066077515,-0.15744483,-0.0733329
1732436230640,2024-11-24T08:17:10.640Z,80251,0.066077515,-0.15744483,-0.0733329
1732436230649,2024-11-24T08:17:10.649Z,80260,0.06395734,-0.14601511,0.02834596
1732436230652,2024-11-24T08:17:10.652Z,80263,0.06395734,-0.14601511,0.02834596
1732436230679,2024-11-24T08:17:10.679Z,80290,0.06638909,-0.13555223,0.034149807
1732436230681,2024-11-24T08:17:10.681Z,80292,0.06638909,-0.13555223,0.034149807
1732436230690,2024-11-24T08:17:10.690Z,80301,0.08170938,-0.15743996,0.07249293
1732436230693,2024-11-24T08:17:10.693Z,80304,0.08170938,-0.15743996,0.07249293
1732436230702,2024-11-24T08:17:10.702Z,80313,0.0336543,-0.14581808,0.04709033
1732436230705,2024-11-24T08:17:10.705Z,80316,0.0336543,-0.14581808,0.04709033
1732436230714,2024-11-24T08:17:10.714Z,80325,0.0599406,-0.14489414,0.06240539
1732436230716,2024-11-24T08:17:10.716Z,80327,0.0599406,-0.14489414,0.06240539
1732436230725,2024-11-24T08:17:10.725Z,80336,0.13995826,-0.13054523,0.0542091
1732436230728,2024-11-24T08:17:10.728Z,80339,0.13995826,-0.13054523,0.0542091
1732436230735,2024-11-24T08:17:10.735Z,80346,0.111375265,-0.084432214,0.0980776
1732436230738,2024-11-24T08:17:10.738Z,80349,0.111375265,-0.084432214,0.0980776
1732436230769,2024-11-24T08:17:10.769Z,80380,0.06306019,-0.07199822,0.0124450335
1732436230772,2024-11-24T08:17:10.772Z,80383,0.06306019,-0.07199822,0.0124450335
1732436230779,2024-11-24T08:17:10.779Z,80390,0.11371679,-0.06777504,0.029830579
1732436230782,2024-11-24T08:17:10.782Z,80393,0.11371679,-0.06777504,0.029830579
1732436230790,2024-11-24T08:17:10.790Z,80401,0.042716205,-0.06338431,-0.023528222
1732436230793,2024-11-24T08:17:10.793Z,80404,0.042716205,-0.06338431,-0.023528222
1732436230800,2024-11-24T08:17:10.800Z,80411,0.04076607,-0.08265278,-0.05766557
1732436230802,2024-11-24T08:17:10.802Z,80413,0.04076607,-0.08265278,-0.05766557
1732436230815,2024-11-24T08:17:10.815Z,80426,0.10859988,-0.049909376,0.060120337
1732436230818,2024-11-24T08:17:10.818Z,80429,0.10859988,-0.049909376,0.060120337
1732436230827,2024-11-24T08:17:10.827Z,80438,0.11661455,0.0021853507,0.057437103
1732436230829,2024-11-24T08:17:10.829Z,80440,0.11661455,0.0021853507,0.057437103
1732436230837,2024-11-24T08:17:10.837Z,80448,0.13298744,0.006465514,0.03640027
1732436230839,2024-11-24T08:17:10.839Z,80450,0.13298744,0.006465514,0.03640027
1732436230913,2024-11-24T08:17:10.913Z,80524,0.052570645,0.06020081,-0.0671203
1732436230920,2024-11-24T08:17:10.920Z,80531,0.052570645,0.06020081,-0.0671203
1732436230938,2024-11-24T08:17:10.938Z,80549,0.13868317,0.059677325,-6.7787734E-4
1732436230943,2024-11-24T08:17:10.943Z,80554,0.13868317,0.059677325,-6.7787734E-4
1732436230957,2024-11-24T08:17:10.957Z,80568,0.1166649,0.064031884,-0.0047457977
1732436230959,2024-11-24T08:17:10.959Z,80570,0.1166649,0.064031884,-0.0047457977
1732436230974,2024-11-24T08:17:10.974Z,80585,0.13191378,0.08907735,0.07119388
1732436230979,2024-11-24T08:17:10.979Z,80590,0.13191378,0.08907735,0.07119388
1732436230989,2024-11-24T08:17:10.989Z,80600,0.07912786,0.0976088,0.08855624
1732436230992,2024-11-24T08:17:10.992Z,80603,0.07912786,0.0976088,0.08855624
1732436231001,2024-11-24T08:17:11.001Z,80612,0.06500233,0.08181674,0.117036335
1732436231003,2024-11-24T08:17:11.003Z,80614,0.06500233,0.08181674,0.117036335
1732436231012,2024-11-24T08:17:11.012Z,80623,0.053095795,0.09389889,0.089284346
1732436231015,2024-11-24T08:17:11.015Z,80626,0.053095795,0.09389889,0.089284346
1732436231023,2024-11-24T08:17:11.023Z,80634,0.061697196,0.083222166,0.079352364
1732436231026,2024-11-24T08:17:11.026Z,80637,0.061697196,0.083222166,0.079352364
1732436231033,2024-11-24T08:17:11.033Z,80644,0.059044715,0.045108743,0.004409406
1732436231036,2024-11-24T08:17:11.036Z,80647,0.059044715,0.045108743,0.004409406
1732436231045,2024-11-24T08:17:11.045Z,80656,0.069092706,0.034936924,0.025559701
1732436231047,2024-11-24T08:17:11.047Z,80658,0.069092706,0.034936924,0.025559701
1732436231054,2024-11-24T08:17:11.054Z,80665,0.07934661,0.01968284,0.035383303
1732436231056,2024-11-24T08:17:11.056Z,80667,0.07934661,0.01968284,0.035383303
1732436231064,2024-11-24T08:17:11.064Z,80675,0.08207752,6.1762024E-4,0.08503442
1732436231066,2024-11-24T08:17:11.066Z,80677,0.08207752,6.1762024E-4,0.08503442
1732436231087,2024-11-24T08:17:11.087Z,80698,-0.009352483,0.02237028,0.07180444
1732436231091,2024-11-24T08:17:11.091Z,80702,-0.009352483,0.02237028,0.07180444
1732436231109,2024-11-24T08:17:11.109Z,80720,-0.07064081,0.04643841,0.050929636
1732436231114,2024-11-24T08:17:11.114Z,80725,-0.07064081,0.04643841,0.050929636
1732436231129,2024-11-24T08:17:11.129Z,80740,0.02408561,0.036767125,0.08027519
1732436231133,2024-11-24T08:17:11.133Z,80744,0.02408561,0.036767125,0.08027519
1732436231144,2024-11-24T08:17:11.144Z,80755,0.10754801,0.024936842,0.06820548
1732436231147,2024-11-24T08:17:11.147Z,80758,0.10754801,0.024936842,0.06820548
1732436231156,2024-11-24T08:17:11.156Z,80767,-0.03560905,0.065191366,0.008699525
1732436231160,2024-11-24T08:17:11.160Z,80771,-0.03560905,0.065191366,0.008699525
1732436231168,2024-11-24T08:17:11.168Z,80779,-0.033369727,0.048461843,0.020013373
1732436231171,2024-11-24T08:17:11.171Z,80782,-0.033369727,0.048461843,0.020013373
1732436231180,2024-11-24T08:17:11.180Z,80791,0.05193632,0.15238144,-0.005296439
1732436231182,2024-11-24T08:17:11.182Z,80793,0.05193632,0.15238144,-0.005296439
1732436231190,2024-11-24T08:17:11.190Z,80801,0.03144042,0.14167349,-0.04222085
1732436231193,2024-11-24T08:17:11.193Z,80804,0.03144042,0.14167349,-0.04222085
1732436231200,2024-11-24T08:17:11.200Z,80811,0.057317037,0.19396995,-0.057645347
1732436231202,2024-11-24T08:17:11.202Z,80813,0.057317037,0.19396995,-0.057645347
1732436231219,2024-11-24T08:17:11.219Z,80830,0.111074686,0.18969679,0.05514856
1732436231222,2024-11-24T08:17:11.222Z,80833,0.111074686,0.18969679,0.05514856
1732436231264,2024-11-24T08:17:11.264Z,80875,0.060249433,0.2225881,0.009494258
1732436231267,2024-11-24T08:17:11.267Z,80878,0.060249433,0.2225881,0.009494258
1732436231280,2024-11-24T08:17:11.280Z,80891,0.02720145,0.20229854,0.027805638
1732436231289,2024-11-24T08:17:11.289Z,80900,0.02720145,0.20229854,0.027805638
1732436231313,2024-11-24T08:17:11.313Z,80924,-0.0037525948,0.21244906,-0.045038883
1732436231318,2024-11-24T08:17:11.318Z,80929,-0.0037525948,0.21244906,-0.045038883
1732436231336,2024-11-24T08:17:11.336Z,80947,-0.04342215,0.18238376,-0.12723915
1732436231341,2024-11-24T08:17:11.341Z,80952,-0.04342215,0.18238376,-0.12723915
1732436231357,2024-11-24T08:17:11.357Z,80968,0.117732726,0.13948308,-0.05073524
1732436231360,2024-11-24T08:17:11.360Z,80971,0.117732726,0.13948308,-0.05073524
1732436231370,2024-11-24T08:17:11.370Z,80981,-0.06446608,0.124550305,-0.08171065
1732436231373,2024-11-24T08:17:11.373Z,80984,-0.06446608,0.124550305,-0.08171065
1732436231388,2024-11-24T08:17:11.388Z,80999,-0.06354279,0.11040124,-0.12766017
1732436231395,2024-11-24T08:17:11.395Z,81006,-0.06354279,0.11040124,-0.12766017
1732436231416,2024-11-24T08:17:11.416Z,81027,-0.03855862,0.11274287,-0.15326317
1732436231424,2024-11-24T08:17:11.424Z,81035,-0.03855862,0.11274287,-0.15326317
1732436231446,2024-11-24T08:17:11.446Z,81057,-0.017109593,0.07648912,-0.15376617
1732436231453,2024-11-24T08:17:11.453Z,81064,-0.017109593,0.07648912,-0.15376617
1732436231473,2024-11-24T08:17:11.473Z,81084,0.06548537,0.035892867,-0.07375663
1732436231480,2024-11-24T08:17:11.480Z,81091,0.06548537,0.035892867,-0.07375663
1732436231495,2024-11-24T08:17:11.495Z,81106,0.02413077,0.027272051,-0.08853765
1732436231498,2024-11-24T08:17:11.498Z,81109,0.02413077,0.027272051,-0.08853765
1732436231510,2024-11-24T08:17:11.510Z,81121,-0.04198213,0.018712308,-0.15942071
1732436231514,2024-11-24T08:17:11.514Z,81125,-0.04198213,0.018712308,-0.15942071
1732436231525,2024-11-24T08:17:11.525Z,81136,0.014260284,-0.03347179,-0.13143747
1732436231528,2024-11-24T08:17:11.528Z,81139,0.014260284,-0.03347179,-0.13143747
1732436231538,2024-11-24T08:17:11.538Z,81149,-0.054691434,-0.021091085,-0.1025811
1732436231542,2024-11-24T08:17:11.542Z,81153,-0.054691434,-0.021091085,-0.1025811
1732436231551,2024-11-24T08:17:11.551Z,81162,-0.07188823,-0.039515443,-0.08722665
1732436231554,2024-11-24T08:17:11.554Z,81165,-0.07188823,-0.039515443,-0.08722665
1732436231563,2024-11-24T08:17:11.563Z,81174,-0.0010444404,-0.06520984,-0.13367732
1732436231566,2024-11-24T08:17:11.566Z,81177,-0.0010444404,-0.06520984,-0.13367732
1732436231574,2024-11-24T08:17:11.574Z,81185,-0.019874273,-0.032806225,-0.16675846
1732436231577,2024-11-24T08:17:11.577Z,81188,-0.019874273,-0.032806225,-0.16675846
1732436231585,2024-11-24T08:17:11.585Z,81196,0.0692372,-0.0704549,-0.09456601
1732436231588,2024-11-24T08:17:11.588Z,81199,0.0692372,-0.0704549,-0.09456601
1732436231595,2024-11-24T08:17:11.595Z,81206,0.0055360934,-0.016451104,-0.02168235
1732436231597,2024-11-24T08:17:11.597Z,81208,0.0055360934,-0.016451104,-0.02168235
1732436231604,2024-11-24T08:17:11.604Z,81215,0.01699839,0.023079898,-0.008590267
1732436231607,2024-11-24T08:17:11.607Z,81218,0.01699839,0.023079898,-0.008590267
1732436231614,2024-11-24T08:17:11.614Z,81225,-0.12678406,0.046227675,-0.082274154
1732436231616,2024-11-24T08:17:11.616Z,81227,-0.12678406,0.046227675,-0.082274154
1732436231626,2024-11-24T08:17:11.626Z,81237,0.07765328,0.06455634,-0.09006022
1732436231629,2024-11-24T08:17:11.629Z,81240,0.07765328,0.06455634,-0.09006022
1732436231636,2024-11-24T08:17:11.636Z,81247,0.09351029,0.09210837,-0.09129488
1732436231639,2024-11-24T08:17:11.639Z,81250,0.09351029,0.09210837,-0.09129488
1732436231656,2024-11-24T08:17:11.656Z,81267,0.13318981,0.08883102,-0.0867206
1732436231659,2024-11-24T08:17:11.659Z,81270,0.13318981,0.08883102,-0.0867206
1732436231666,2024-11-24T08:17:11.666Z,81277,0.04481092,0.06132927,-0.08610821
1732436231668,2024-11-24T08:17:11.668Z,81279,0.04481092,0.06132927,-0.08610821
1732436231675,2024-11-24T08:17:11.675Z,81286,-0.014486238,0.03460278,-0.08243281
1732436231677,2024-11-24T08:17:11.677Z,81288,-0.014486238,0.03460278,-0.08243281
1732436231685,2024-11-24T08:17:11.685Z,81296,-0.0725688,-0.016135147,-0.020530026
1732436231688,2024-11-24T08:17:11.688Z,81299,-0.0725688,-0.016135147,-0.020530026
1732436231697,2024-11-24T08:17:11.697Z,81308,-0.04649486,3.6370647E-4,-0.0019420611
1732436231699,2024-11-24T08:17:11.699Z,81310,-0.04649486,3.6370647E-4,-0.0019420611
1732436231707,2024-11-24T08:17:11.707Z,81318,-0.06730514,8.111432E-4,-0.05739149
1732436231710,2024-11-24T08:17:11.710Z,81321,-0.06730514,8.111432E-4,-0.05739149
1732436231719,2024-11-24T08:17:11.719Z,81330,-0.028816298,0.020366492,-0.07329975
1732436231721,2024-11-24T08:17:11.721Z,81332,-0.028816298,0.020366492,-0.07329975
1732436231727,2024-11-24T08:17:11.727Z,81338,0.029473472,-0.026410436,-0.047208052
1732436231729,2024-11-24T08:17:11.729Z,81340,0.029473472,-0.026410436,-0.047208052
1732436231735,2024-11-24T08:17:11.735Z,81346,-0.043649662,-0.013602135,-0.07695527
1732436231737,2024-11-24T08:17:11.737Z,81348,-0.043649662,-0.013602135,-0.07695527
1732436231757,2024-11-24T08:17:11.757Z,81368,-0.072090484,-0.04219121,-0.054696478
1732436231759,2024-11-24T08:17:11.759Z,81370,-0.072090484,-0.04219121,-0.054696478
1732436231765,2024-11-24T08:17:11.765Z,81376,-0.10969389,-0.005043947,0.008053655
1732436231767,2024-11-24T08:17:11.767Z,81378,-0.10969389,-0.005043947,0.008053655
1732436231774,2024-11-24T08:17:11.774Z,81385,-0.14385976,0.023777163,-0.05572045
1732436231776,2024-11-24T08:17:11.776Z,81387,-0.14385976,0.023777163,-0.05572045
1732436231803,2024-11-24T08:17:11.803Z,81414,-0.13441332,0.038358584,-0.07538369
1732436231805,2024-11-24T08:17:11.805Z,81416,-0.13441332,0.038358584,-0.07538369
1732436231813,2024-11-24T08:17:11.813Z,81424,-0.049638517,0.07922431,-0.06753709
1732436231815,2024-11-24T08:17:11.815Z,81426,-0.049638517,0.07922431,-0.06753709
1732436231823,2024-11-24T08:17:11.823Z,81434,-0.020411517,0.085037485,-0.041356243
1732436231825,2024-11-24T08:17:11.825Z,81436,-0.020411517,0.085037485,-0.041356243
1732436231848,2024-11-24T08:17:11.848Z,81459,-0.09053495,0.10695624,-0.0924137
1732436231851,2024-11-24T08:17:11.851Z,81462,-0.09053495,0.10695624,-0.0924137
1732436231859,2024-11-24T08:17:11.859Z,81470,-0.06967662,0.07572621,0.001806741
1732436231862,2024-11-24T08:17:11.862Z,81473,-0.06967662,0.07572621,0.001806741
1732436231870,2024-11-24T08:17:11.870Z,81481,-0.103449516,0.07389037,-0.043208644
1732436231872,2024-11-24T08:17:11.872Z,81483,-0.103449516,0.07389037,-0.043208644
1732436231894,2024-11-24T08:17:11.894Z,81505,-0.086423725,0.053949144,-0.060695544
1732436231896,2024-11-24T08:17:11.896Z,81507,-0.086423725,0.053949144,-0.060695544
1732436231904,2024-11-24T08:17:11.904Z,81515,-0.0913157,0.058609836,-0.047753856
1732436231906,2024-11-24T08:17:11.906Z,81517,-0.0913157,0.058609836,-0.047753856
1732436231914,2024-11-24T08:17:11.914Z,81525,-0.053919848,0.022583254,-0.023240551
1732436231917,2024-11-24T08:17:11.917Z,81528,-0.053919848,0.022583254,-0.023240551
1732436231939,2024-11-24T08:17:11.939Z,81550,-0.01934065,3.71778E-4,-0.016997976
1732436231942,2024-11-24T08:17:11.942Z,81553,-0.01934065,3.71778E-4,-0.016997976
1732436231950,2024-11-24T08:17:11.950Z,81561,-0.062458925,-0.012402099,-0.023785308
1732436231953,2024-11-24T08:17:11.953Z,81564,-0.062458925,-0.012402099,-0.023785308
1732436231962,2024-11-24T08:17:11.962Z,81573,-0.049609706,-0.033824895,-0.030745521
1732436231965,2024-11-24T08:17:11.965Z,81576,-0.049609706,-0.033824895,-0.030745521
1732436231973,2024-11-24T08:17:11.973Z,81584,-0.078898944,-0.024474721,-0.020437593
1732436231976,2024-11-24T08:17:11.976Z,81587,-0.078898944,-0.024474721,-0.020437593
1732436231984,2024-11-24T08:17:11.984Z,81595,-0.04914039,-0.0054426626,0.011072357
1732436231986,2024-11-24T08:17:11.986Z,81597,-0.04914039,-0.0054426626,0.011072357
1732436231995,2024-11-24T08:17:11.995Z,81606,-0.032934226,4.3080738E-4,-0.017975522
1732436231997,2024-11-24T08:17:11.997Z,81608,-0.032934226,4.3080738E-4,-0.017975522
1732436232004,2024-11-24T08:17:12.004Z,81615,0.03204193,-0.005255072,-0.019191459
1732436232007,2024-11-24T08:17:12.007Z,81618,0.03204193,-0.005255072,-0.019191459
1732436232029,2024-11-24T08:17:12.029Z,81640,0.00288303,0.004751815,0.006330656
1732436232031,2024-11-24T08:17:12.031Z,81642,0.00288303,0.004751815,0.006330656
1732436232039,2024-11-24T08:17:12.039Z,81650,-0.021464637,-0.0031385727,0.030699085
1732436232042,2024-11-24T08:17:12.042Z,81653,-0.021464637,-0.0031385727,0.030699085
1732436232050,2024-11-24T08:17:12.050Z,81661,-0.023211377,-0.006684808,0.053651918
1732436232052,2024-11-24T08:17:12.052Z,81663,-0.023211377,-0.006684808,0.053651918
1732436232074,2024-11-24T08:17:12.074Z,81685,-0.01408035,-9.340643E-4,9.6485537E-4
1732436232077,2024-11-24T08:17:12.077Z,81688,-0.01408035,-9.340643E-4,9.6485537E-4
1732436232085,2024-11-24T08:17:12.085Z,81696,8.1469276E-4,-0.0011791285,0.0144822635
1732436232087,2024-11-24T08:17:12.087Z,81698,8.1469276E-4,-0.0011791285,0.0144822635
1732436232096,2024-11-24T08:17:12.096Z,81707,-9.771694E-4,-0.0038996334,0.028306378
1732436232098,2024-11-24T08:17:12.098Z,81709,-9.771694E-4,-0.0038996334,0.028306378
1732436232121,2024-11-24T08:17:12.121Z,81732,-0.04069615,-0.038321532,0.023924604
1732436232125,2024-11-24T08:17:12.125Z,81736,-0.04069615,-0.038321532,0.023924604
1732436232140,2024-11-24T08:17:12.140Z,81751,-0.024826685,-0.04755005,0.03481682
1732436232146,2024-11-24T08:17:12.146Z,81757,-0.024826685,-0.04755005,0.03481682
1732436232168,2024-11-24T08:17:12.168Z,81779,-0.04131844,-0.052318394,0.052858654
1732436232174,2024-11-24T08:17:12.174Z,81785,-0.04131844,-0.052318394,0.052858654
1732436232191,2024-11-24T08:17:12.191Z,81802,-0.10334855,-0.03903105,0.015210746
1732436232197,2024-11-24T08:17:12.197Z,81808,-0.10334855,-0.03903105,0.015210746
1732436232216,2024-11-24T08:17:12.216Z,81827,-0.028568145,-0.030844739,0.018382505
1732436232222,2024-11-24T08:17:12.222Z,81833,-0.028568145,-0.030844739,0.018382505
1732436232238,2024-11-24T08:17:12.238Z,81849,-0.022055855,-0.0065723895,-0.0028580253
1732436232242,2024-11-24T08:17:12.242Z,81853,-0.022055855,-0.0065723895,-0.0028580253
1732436232255,2024-11-24T08:17:12.255Z,81866,-0.020635065,0.023113642,-0.022075754
1732436232259,2024-11-24T08:17:12.259Z,81870,-0.020635065,0.023113642,-0.022075754
1732436232271,2024-11-24T08:17:12.271Z,81882,0.007066481,0.037739117,-0.015771415
1732436232278,2024-11-24T08:17:12.278Z,81889,0.007066481,0.037739117,-0.015771415
1732436232288,2024-11-24T08:17:12.288Z,81899,-0.027921181,0.06603898,-0.026248021
1732436232291,2024-11-24T08:17:12.291Z,81902,-0.027921181,0.06603898,-0.026248021
1732436232301,2024-11-24T08:17:12.301Z,81912,-0.018682865,0.068367474,-0.026402183
1732436232303,2024-11-24T08:17:12.303Z,81914,-0.018682865,0.068367474,-0.026402183
1732436232314,2024-11-24T08:17:12.314Z,81925,-0.044026203,0.07942289,-0.040218435
1732436232319,2024-11-24T08:17:12.319Z,81930,-0.044026203,0.07942289,-0.040218435
1732436232338,2024-11-24T08:17:12.338Z,81949,-0.002061384,0.067752875,-0.009366317
1732436232344,2024-11-24T08:17:12.344Z,81955,-0.002061384,0.067752875,-0.009366317
1732436232356,2024-11-24T08:17:12.356Z,81967,-0.07518663,0.080482595,-0.026992634
1732436232358,2024-11-24T08:17:12.358Z,81969,-0.07518663,0.080482595,-0.026992634
1732436232366,2024-11-24T08:17:12.366Z,81977,-0.017596269,0.06647786,-0.008735446
1732436232368,2024-11-24T08:17:12.368Z,81979,-0.017596269,0.06647786,-0.008735446
1732436232376,2024-11-24T08:17:12.376Z,81987,-0.051392063,0.057448503,-0.06467685
1732436232379,2024-11-24T08:17:12.379Z,81990,-0.051392063,0.057448503,-0.06467685
1732436232387,2024-11-24T08:17:12.387Z,81998,-0.046273306,0.045469433,-0.08963031
1732436232389,2024-11-24T08:17:12.389Z,82000,-0.046273306,0.045469433,-0.08963031
1732436232397,2024-11-24T08:17:12.397Z,82008,-0.048893843,0.055389088,-0.090559185
1732436232399,2024-11-24T08:17:12.399Z,82010,-0.048893843,0.055389088,-0.090559185
1732436232406,2024-11-24T08:17:12.406Z,82017,-0.09228441,0.021144278,-0.09100866
1732436232408,2024-11-24T08:17:12.408Z,82019,-0.09228441,0.021144278,-0.09100866
1732436232415,2024-11-24T08:17:12.415Z,82026,-0.043844134,0.019550582,-0.027279638
1732436232417,2024-11-24T08:17:12.417Z,82028,-0.043844134,0.019550582,-0.027279638
1732436232423,2024-11-24T08:17:12.423Z,82034,-0.015209153,-0.006010006,0.009038106
1732436232425,2024-11-24T08:17:12.425Z,82036,-0.015209153,-0.006010006,0.009038106
1732436232432,2024-11-24T08:17:12.432Z,82043,-0.05783295,0.023338577,-0.018669372
1732436232435,2024-11-24T08:17:12.435Z,82046,-0.05783295,0.023338577,-0.018669372
1732436232441,2024-11-24T08:17:12.441Z,82052,-0.10574947,0.023384964,-0.09383318
1732436232443,2024-11-24T08:17:12.443Z,82054,-0.10574947,0.023384964,-0.09383318
1732436232449,2024-11-24T08:17:12.449Z,82060,0.0048023597,0.01974012,-0.046575822
1732436232451,2024-11-24T08:17:12.451Z,82062,0.0048023597,0.01974012,-0.046575822
1732436232460,2024-11-24T08:17:12.460Z,82071,-0.06939641,0.04587933,-0.065178454
1732436232463,2024-11-24T08:17:12.463Z,82074,-0.06939641,0.04587933,-0.065178454
1732436232477,2024-11-24T08:17:12.477Z,82088,-0.05681231,0.032777924,-0.0751947
1732436232479,2024-11-24T08:17:12.479Z,82090,-0.05681231,0.032777924,-0.0751947
1732436232485,2024-11-24T08:17:12.485Z,82096,0.013644535,0.025339643,-0.0013135249
1732436232487,2024-11-24T08:17:12.487Z,82098,0.013644535,0.025339643,-0.0013135249
1732436232494,2024-11-24T08:17:12.494Z,82105,-0.03859047,0.058341723,-0.038799554
1732436232496,2024-11-24T08:17:12.496Z,82107,-0.03859047,0.058341723,-0.038799554
1732436232504,2024-11-24T08:17:12.504Z,82115,-0.052837674,0.031129286,-0.1360577
1732436232506,2024-11-24T08:17:12.506Z,82117,-0.052837674,0.031129286,-0.1360577
1732436232524,2024-11-24T08:17:12.524Z,82135,0.10042443,-0.022334883,-0.04285522
1732436232527,2024-11-24T08:17:12.527Z,82138,0.10042443,-0.022334883,-0.04285522
1732436232535,2024-11-24T08:17:12.535Z,82146,-0.064264424,0.037536353,-0.030450325
1732436232537,2024-11-24T08:17:12.537Z,82148,-0.064264424,0.037536353,-0.030450325
1732436232544,2024-11-24T08:17:12.544Z,82155,0.0017524768,0.007231243,-0.040339567
1732436232546,2024-11-24T08:17:12.546Z,82157,0.0017524768,0.007231243,-0.040339567
1732436232567,2024-11-24T08:17:12.567Z,82178,0.019480735,0.007684903,-0.034662317
1732436232569,2024-11-24T08:17:12.569Z,82180,0.019480735,0.007684903,-0.034662317
1732436232576,2024-11-24T08:17:12.576Z,82187,0.041061703,-1.9741285E-4,-0.049524102
1732436232579,2024-11-24T08:17:12.579Z,82190,0.041061703,-1.9741285E-4,-0.049524102
1732436232586,2024-11-24T08:17:12.586Z,82197,0.0021524809,0.01304442,-0.05740703
1732436232587,2024-11-24T08:17:12.587Z,82198,0.0021524809,0.01304442,-0.05740703
1732436232614,2024-11-24T08:17:12.614Z,82225,0.0067843166,-0.013257683,-0.07273356
1732436232617,2024-11-24T08:17:12.617Z,82228,0.0067843166,-0.013257683,-0.07273356
1732436232625,2024-11-24T08:17:12.625Z,82236,0.039770108,-0.013354445,-0.070427574
1732436232627,2024-11-24T08:17:12.627Z,82238,0.039770108,-0.013354445,-0.070427574
1732436232635,2024-11-24T08:17:12.635Z,82246,0.07354059,-0.022136496,-0.050766297
1732436232637,2024-11-24T08:17:12.637Z,82248,0.07354059,-0.022136496,-0.050766297
1732436232659,2024-11-24T08:17:12.659Z,82270,0.07103334,-0.021122495,-0.0505993
1732436232662,2024-11-24T08:17:12.662Z,82273,0.07103334,-0.021122495,-0.0505993
1732436232670,2024-11-24T08:17:12.670Z,82281,0.028739398,-0.013075734,-0.09117931
1732436232673,2024-11-24T08:17:12.673Z,82284,0.028739398,-0.013075734,-0.09117931
1732436232681,2024-11-24T08:17:12.681Z,82292,0.06670687,-0.028082028,-0.061993863
