Timestamp (ms),ISO DateTime,Elapsed Time (ms),Acceleration X,Acceleration Y,Acceleration Z
1732440101152,2024-11-24T09:21:41.152Z,35871,-0.23648901,-0.6509912,-1.2549987
1732440101159,2024-11-24T09:21:41.159Z,35878,-0.23648901,-0.6509912,-1.2549987
1732440101181,2024-11-24T09:21:41.181Z,35900,-0.22940984,-0.63133526,-1.2690431
1732440101187,2024-11-24T09:21:41.187Z,35906,-0.22940984,-0.63133526,-1.2690431
1732440101208,2024-11-24T09:21:41.208Z,35927,-0.20419689,-0.6122545,-1.2440244
1732440101214,2024-11-24T09:21:41.214Z,35933,-0.20419689,-0.6122545,-1.2440244
1732440101230,2024-11-24T09:21:41.230Z,35949,-0.21053515,-0.58277345,-1.2166272
1732440101238,2024-11-24T09:21:41.238Z,35957,-0.21053515,-0.58277345,-1.2166272
1732440101253,2024-11-24T09:21:41.253Z,35972,-0.20708211,-0.54987276,-1.2210994
1732440101256,2024-11-24T09:21:41.256Z,35975,-0.20708211,-0.54987276,-1.2210994
1732440101271,2024-11-24T09:21:41.271Z,35990,-0.17940325,-0.5213108,-1.219363
1732440101275,2024-11-24T09:21:41.275Z,35994,-0.17940325,-0.5213108,-1.219363
1732440101287,2024-11-24T09:21:41.287Z,36006,-0.17032965,-0.48919815,-1.2123504
1732440101291,2024-11-24T09:21:41.291Z,36010,-0.17032965,-0.48919815,-1.2123504
1732440101302,2024-11-24T09:21:41.302Z,36021,-0.16905369,-0.46290496,-1.1834959
1732440101306,2024-11-24T09:21:41.306Z,36025,-0.16905369,-0.46290496,-1.1834959
1732440101318,2024-11-24T09:21:41.318Z,36037,-0.16696407,-0.42789888,-1.1695076
1732440101322,2024-11-24T09:21:41.322Z,36041,-0.16696407,-0.42789888,-1.1695076
1732440101334,2024-11-24T09:21:41.334Z,36053,-0.15615201,-0.40274882,-1.1528851
1732440101338,2024-11-24T09:21:41.338Z,36057,-0.15615201,-0.40274882,-1.1528851
1732440101350,2024-11-24T09:21:41.350Z,36069,-0.1548623,-0.38034734,-1.1166612
1732440101354,2024-11-24T09:21:41.354Z,36073,-0.1548623,-0.38034734,-1.1166612
1732440101366,2024-11-24T09:21:41.366Z,36085,-0.13498662,-0.36214125,-1.1258421
1732440101369,2024-11-24T09:21:41.369Z,36088,-0.13498662,-0.36214125,-1.1258421
1732440101380,2024-11-24T09:21:41.380Z,36099,-0.11684495,-0.34142286,-1.0828825
1732440101384,2024-11-24T09:21:41.384Z,36103,-0.11684495,-0.34142286,-1.0828825
1732440101395,2024-11-24T09:21:41.395Z,36114,-0.1298219,-0.3157664,-1.0757608
1732440101399,2024-11-24T09:21:41.399Z,36118,-0.1298219,-0.3157664,-1.0757608
1732440101411,2024-11-24T09:21:41.411Z,36130,-0.09858956,-0.2933667,-1.047395
1732440101415,2024-11-24T09:21:41.415Z,36134,-0.09858956,-0.2933667,-1.047395
1732440101426,2024-11-24T09:21:41.426Z,36145,-0.12868391,-0.26256284,-1.052405
1732440101430,2024-11-24T09:21:41.430Z,36149,-0.12868391,-0.26256284,-1.052405
1732440101444,2024-11-24T09:21:41.444Z,36163,-0.11654509,-0.24473545,-1.047866
1732440101447,2024-11-24T09:21:41.447Z,36166,-0.11654509,-0.24473545,-1.047866
1732440101460,2024-11-24T09:21:41.460Z,36179,-0.10376374,-0.2311867,-1.0119609
1732440101464,2024-11-24T09:21:41.464Z,36183,-0.10376374,-0.2311867,-1.0119609
1732440101476,2024-11-24T09:21:41.476Z,36195,-0.07276998,-0.2262081,-0.9984794
1732440101480,2024-11-24T09:21:41.480Z,36199,-0.07276998,-0.2262081,-0.9984794
1732440101493,2024-11-24T09:21:41.493Z,36212,-0.07943925,-0.20456597,-0.9566882
1732440101500,2024-11-24T09:21:41.500Z,36219,-0.07943925,-0.20456597,-0.9566882
1732440101513,2024-11-24T09:21:41.513Z,36232,-0.051839367,-0.15966606,-0.96438164
1732440101516,2024-11-24T09:21:41.516Z,36235,-0.051839367,-0.15966606,-0.96438164
1732440101529,2024-11-24T09:21:41.529Z,36248,-0.03427875,-0.17176689,-0.9557242
1732440101533,2024-11-24T09:21:41.533Z,36252,-0.03427875,-0.17176689,-0.9557242
1732440101549,2024-11-24T09:21:41.549Z,36268,-0.07719262,-0.17878851,-0.946802
1732440101553,2024-11-24T09:21:41.553Z,36272,-0.07719262,-0.17878851,-0.946802
1732440101569,2024-11-24T09:21:41.569Z,36288,-0.08461736,-0.184757,-0.9501754
1732440101574,2024-11-24T09:21:41.574Z,36293,-0.08461736,-0.184757,-0.9501754
1732440101589,2024-11-24T09:21:41.589Z,36308,-0.10099015,-0.19505957,-0.9825367
1732440101593,2024-11-24T09:21:41.593Z,36312,-0.10099015,-0.19505957,-0.9825367
1732440101608,2024-11-24T09:21:41.608Z,36327,-0.08485074,-0.20640598,-0.9494695
1732440101612,2024-11-24T09:21:41.612Z,36331,-0.08485074,-0.20640598,-0.9494695
1732440101625,2024-11-24T09:21:41.625Z,36344,-0.1171549,-0.20760924,-0.98675907
1732440101629,2024-11-24T09:21:41.629Z,36348,-0.1171549,-0.20760924,-0.98675907
1732440101642,2024-11-24T09:21:41.642Z,36361,-0.11439058,-0.20384322,-0.9739067
1732440101647,2024-11-24T09:21:41.647Z,36366,-0.11439058,-0.20384322,-0.9739067
1732440101663,2024-11-24T09:21:41.663Z,36382,-0.103648424,-0.2236217,-0.9616253
1732440101667,2024-11-24T09:21:41.667Z,36386,-0.103648424,-0.2236217,-0.9616253
1732440101682,2024-11-24T09:21:41.682Z,36401,-0.08805081,-0.19855882,-0.942151
1732440101687,2024-11-24T09:21:41.687Z,36406,-0.08805081,-0.19855882,-0.942151
1732440101700,2024-11-24T09:21:41.700Z,36419,-0.07452342,-0.21601075,-0.83687377
1732440101705,2024-11-24T09:21:41.705Z,36424,-0.07452342,-0.21601075,-0.83687377
1732440101718,2024-11-24T09:21:41.718Z,36437,-0.021357082,-0.25852144,-0.88642937
1732440101722,2024-11-24T09:21:41.722Z,36441,-0.021357082,-0.25852144,-0.88642937
1732440101742,2024-11-24T09:21:41.742Z,36461,-0.00493272,-0.33601347,-0.82820404
1732440101747,2024-11-24T09:21:41.747Z,36466,-0.00493272,-0.33601347,-0.82820404
1732440101758,2024-11-24T09:21:41.758Z,36477,-0.16074692,-0.41666654,-0.9214012
1732440101762,2024-11-24T09:21:41.762Z,36481,-0.16074692,-0.41666654,-0.9214012
1732440101775,2024-11-24T09:21:41.775Z,36494,-0.12779994,-0.42938128,-0.89218056
1732440101779,2024-11-24T09:21:41.779Z,36498,-0.12779994,-0.42938128,-0.89218056
1732440101791,2024-11-24T09:21:41.791Z,36510,-0.13018128,-0.46319824,-0.8784383
1732440101795,2024-11-24T09:21:41.795Z,36514,-0.13018128,-0.46319824,-0.8784383
1732440101869,2024-11-24T09:21:41.869Z,36588,-0.16114683,-0.45744815,-0.8566584
1732440101872,2024-11-24T09:21:41.872Z,36591,-0.16114683,-0.45744815,-0.8566584
1732440101887,2024-11-24T09:21:41.887Z,36606,-0.18866347,-0.44398037,-0.83277214
1732440101892,2024-11-24T09:21:41.892Z,36611,-0.18866347,-0.44398037,-0.83277214
1732440101906,2024-11-24T09:21:41.906Z,36625,-0.21977405,-0.41577005,-0.880888
1732440101910,2024-11-24T09:21:41.910Z,36629,-0.21977405,-0.41577005,-0.880888
1732440101957,2024-11-24T09:21:41.957Z,36676,-0.17144564,-0.36723003,-0.86704916
1732440101962,2024-11-24T09:21:41.962Z,36681,-0.17144564,-0.36723003,-0.86704916
1732440101975,2024-11-24T09:21:41.975Z,36694,-0.15881267,-0.35165653,-0.84452784
1732440101978,2024-11-24T09:21:41.978Z,36697,-0.15881267,-0.35165653,-0.84452784
1732440101989,2024-11-24T09:21:41.989Z,36708,-0.15768158,-0.3213278,-0.8416994
1732440101993,2024-11-24T09:21:41.993Z,36712,-0.15768158,-0.3213278,-0.8416994
1732440102005,2024-11-24T09:21:42.005Z,36724,-0.09750406,-0.09966704,-0.84269065
1732440102008,2024-11-24T09:21:42.008Z,36727,-0.09750406,-0.09966704,-0.84269065
1732440102029,2024-11-24T09:21:42.029Z,36748,0.13629887,-0.1817592,-0.89954644
1732440102043,2024-11-24T09:21:42.043Z,36762,0.13629887,-0.1817592,-0.89954644
1732440102067,2024-11-24T09:21:42.067Z,36786,0.06711168,-0.123744704,-0.9055351
1732440102075,2024-11-24T09:21:42.075Z,36794,0.06711168,-0.123744704,-0.9055351
1732440102103,2024-11-24T09:21:42.103Z,36822,-0.013197973,-0.05747661,-0.7578606
1732440102111,2024-11-24T09:21:42.111Z,36830,-0.013197973,-0.05747661,-0.7578606
1732440102132,2024-11-24T09:21:42.132Z,36851,0.039484665,-0.08748375,-0.8672595
1732440102137,2024-11-24T09:21:42.137Z,36856,0.039484665,-0.08748375,-0.8672595
1732440102153,2024-11-24T09:21:42.153Z,36872,0.0055860304,-0.080005206,-0.7996375
1732440102158,2024-11-24T09:21:42.158Z,36877,0.0055860304,-0.080005206,-0.7996375
1732440102173,2024-11-24T09:21:42.173Z,36892,0.016626125,-0.09224636,-0.78688496
1732440102177,2024-11-24T09:21:42.177Z,36896,0.016626125,-0.09224636,-0.78688496
1732440102190,2024-11-24T09:21:42.190Z,36909,-0.07810458,-0.06696711,-0.85731107
1732440102194,2024-11-24T09:21:42.194Z,36913,-0.07810458,-0.06696711,-0.85731107
1732440102205,2024-11-24T09:21:42.205Z,36924,0.049214832,-0.08762418,-0.87805426
1732440102209,2024-11-24T09:21:42.209Z,36928,0.049214832,-0.08762418,-0.87805426
1732440102223,2024-11-24T09:21:42.223Z,36942,-0.0039401855,-0.09310097,-0.7006482
1732440102228,2024-11-24T09:21:42.228Z,36947,-0.0039401855,-0.09310097,-0.7006482
1732440102239,2024-11-24T09:21:42.239Z,36958,-0.01408796,-0.115806855,-0.88328856
1732440102242,2024-11-24T09:21:42.242Z,36961,-0.01408796,-0.115806855,-0.88328856
1732440102253,2024-11-24T09:21:42.253Z,36972,0.08140164,-0.17366701,-0.98827064
1732440102257,2024-11-24T09:21:42.257Z,36976,0.08140164,-0.17366701,-0.98827064
1732440102271,2024-11-24T09:21:42.271Z,36990,0.16834362,-0.19088705,-1.0622047
1732440102275,2024-11-24T09:21:42.275Z,36994,0.16834362,-0.19088705,-1.0622047
1732440102291,2024-11-24T09:21:42.291Z,37010,0.12719846,-0.18085594,-0.9331527
1732440102298,2024-11-24T09:21:42.298Z,37017,0.12719846,-0.18085594,-0.9331527
1732440102323,2024-11-24T09:21:42.323Z,37042,-0.061894573,-0.15249765,-0.8436212
1732440102329,2024-11-24T09:21:42.329Z,37048,-0.061894573,-0.15249765,-0.8436212
1732440102351,2024-11-24T09:21:42.351Z,37070,0.0014696075,-0.15655297,-0.9190485
1732440102356,2024-11-24T09:21:42.356Z,37075,0.0014696075,-0.15655297,-0.9190485
1732440102370,2024-11-24T09:21:42.370Z,37089,0.07073761,-0.15865692,-0.993966
1732440102374,2024-11-24T09:21:42.374Z,37093,0.07073761,-0.15865692,-0.993966
1732440102385,2024-11-24T09:21:42.385Z,37104,0.104246825,-0.1831932,-1.0417821
1732440102389,2024-11-24T09:21:42.389Z,37108,0.104246825,-0.1831932,-1.0417821
1732440102401,2024-11-24T09:21:42.401Z,37120,-0.015465766,-0.19119076,-0.9909927
1732440102404,2024-11-24T09:21:42.404Z,37123,-0.015465766,-0.19119076,-0.9909927
1732440102416,2024-11-24T09:21:42.416Z,37135,0.028920863,-0.15801616,-0.92857313
1732440102420,2024-11-24T09:21:42.420Z,37139,0.028920863,-0.15801616,-0.92857313
1732440102432,2024-11-24T09:21:42.432Z,37151,-0.020671582,-0.13850039,-0.81553286
1732440102436,2024-11-24T09:21:42.436Z,37155,-0.020671582,-0.13850039,-0.81553286
1732440102447,2024-11-24T09:21:42.447Z,37166,-0.060391996,-0.12199084,-0.8273403
1732440102451,2024-11-24T09:21:42.451Z,37170,-0.060391996,-0.12199084,-0.8273403
1732440102461,2024-11-24T09:21:42.461Z,37180,0.06814102,-0.13839673,-0.8459106
1732440102465,2024-11-24T09:21:42.465Z,37184,0.06814102,-0.13839673,-0.8459106
1732440102477,2024-11-24T09:21:42.477Z,37196,0.14423531,-0.12149137,-0.82272726
1732440102481,2024-11-24T09:21:42.481Z,37200,0.14423531,-0.12149137,-0.82272726
1732440102493,2024-11-24T09:21:42.493Z,37212,0.15770996,-0.15192689,-0.96959627
1732440102497,2024-11-24T09:21:42.497Z,37216,0.15770996,-0.15192689,-0.96959627
1732440102508,2024-11-24T09:21:42.508Z,37227,0.22674736,-0.13778815,-0.8877671
1732440102514,2024-11-24T09:21:42.514Z,37233,0.22674736,-0.13778815,-0.8877671
1732440102530,2024-11-24T09:21:42.530Z,37249,-0.0874369,-0.026597202,-0.8524822
1732440102534,2024-11-24T09:21:42.534Z,37253,-0.0874369,-0.026597202,-0.8524822
1732440102544,2024-11-24T09:21:42.544Z,37263,0.08995523,-0.03551759,-0.856998
1732440102547,2024-11-24T09:21:42.547Z,37266,0.08995523,-0.03551759,-0.856998
1732440102557,2024-11-24T09:21:42.557Z,37276,0.29103687,-0.07067657,-0.7808401
1732440102561,2024-11-24T09:21:42.561Z,37280,0.29103687,-0.07067657,-0.7808401
1732440102573,2024-11-24T09:21:42.573Z,37292,0.16506873,0.005644695,-0.77523017
1732440102578,2024-11-24T09:21:42.578Z,37297,0.16506873,0.005644695,-0.77523017
1732440102591,2024-11-24T09:21:42.591Z,37310,1.6002111E-4,0.07934451,-0.84580547
1732440102595,2024-11-24T09:21:42.595Z,37314,1.6002111E-4,0.07934451,-0.84580547
1732440102606,2024-11-24T09:21:42.606Z,37325,0.05775712,0.057466593,-0.9223618
1732440102609,2024-11-24T09:21:42.609Z,37328,0.05775712,0.057466593,-0.9223618
1732440102621,2024-11-24T09:21:42.621Z,37340,0.17760149,0.05180867,-0.83003676
1732440102625,2024-11-24T09:21:42.625Z,37344,0.17760149,0.05180867,-0.83003676
1732440102635,2024-11-24T09:21:42.635Z,37354,0.250439,0.06074982,-0.81063604
1732440102637,2024-11-24T09:21:42.637Z,37356,0.250439,0.06074982,-0.81063604
1732440102647,2024-11-24T09:21:42.647Z,37366,0.15819272,0.010157427,-0.87437326
1732440102650,2024-11-24T09:21:42.650Z,37369,0.15819272,0.010157427,-0.87437326
1732440102663,2024-11-24T09:21:42.663Z,37382,-0.010146583,0.08570038,-0.831707
1732440102668,2024-11-24T09:21:42.668Z,37387,-0.010146583,0.08570038,-0.831707
1732440102681,2024-11-24T09:21:42.681Z,37400,0.24023929,-0.009835002,-0.913231
1732440102685,2024-11-24T09:21:42.685Z,37404,0.24023929,-0.009835002,-0.913231
1732440102697,2024-11-24T09:21:42.697Z,37416,0.13293137,-0.022443509,-0.90859145
1732440102700,2024-11-24T09:21:42.700Z,37419,0.13293137,-0.022443509,-0.90859145
1732440102710,2024-11-24T09:21:42.710Z,37429,0.023135839,0.018810917,-0.7450848
1732440102713,2024-11-24T09:21:42.713Z,37432,0.023135839,0.018810917,-0.7450848
1732440102725,2024-11-24T09:21:42.725Z,37444,-0.022953646,0.054884665,-0.9106565
1732440102728,2024-11-24T09:21:42.728Z,37447,-0.022953646,0.054884665,-0.9106565
1732440102741,2024-11-24T09:21:42.741Z,37460,0.13120244,0.017685372,-0.8618313
1732440102745,2024-11-24T09:21:42.745Z,37464,0.13120244,0.017685372,-0.8618313
1732440102757,2024-11-24T09:21:42.757Z,37476,0.11204957,-0.038418584,-0.79867077
1732440102761,2024-11-24T09:21:42.761Z,37480,0.11204957,-0.038418584,-0.79867077
1732440102772,2024-11-24T09:21:42.772Z,37491,0.114989564,-0.02316392,-0.8086166
1732440102776,2024-11-24T09:21:42.776Z,37495,0.114989564,-0.02316392,-0.8086166
1732440102786,2024-11-24T09:21:42.786Z,37505,-0.017779896,0.05942307,-0.83329797
1732440102790,2024-11-24T09:21:42.790Z,37509,-0.017779896,0.05942307,-0.83329797
1732440102801,2024-11-24T09:21:42.801Z,37520,0.010639314,0.0035855232,-0.7305972
1732440102805,2024-11-24T09:21:42.805Z,37524,0.010639314,0.0035855232,-0.7305972
1732440102815,2024-11-24T09:21:42.815Z,37534,-0.0653685,-0.06630179,-0.8461316
1732440102818,2024-11-24T09:21:42.818Z,37537,-0.0653685,-0.06630179,-0.8461316
1732440102827,2024-11-24T09:21:42.827Z,37546,0.017707083,-0.061240193,-0.7930052
1732440102829,2024-11-24T09:21:42.829Z,37548,0.017707083,-0.061240193,-0.7930052
1732440102839,2024-11-24T09:21:42.839Z,37558,0.10144831,-0.063955106,-0.893504
1732440102843,2024-11-24T09:21:42.843Z,37562,0.10144831,-0.063955106,-0.893504
1732440102853,2024-11-24T09:21:42.853Z,37572,-1.9019222E-4,-0.05184616,-0.7945688
1732440102856,2024-11-24T09:21:42.856Z,37575,-1.9019222E-4,-0.05184616,-0.7945688
1732440102868,2024-11-24T09:21:42.868Z,37587,0.01683164,-0.061969697,-0.7009168
1732440102871,2024-11-24T09:21:42.871Z,37590,0.01683164,-0.061969697,-0.7009168
1732440102883,2024-11-24T09:21:42.883Z,37602,0.03464066,-0.044148713,-0.7091472
1732440102886,2024-11-24T09:21:42.886Z,37605,0.03464066,-0.044148713,-0.7091472
1732440102897,2024-11-24T09:21:42.897Z,37616,0.12737963,-0.07138187,-0.88781834
1732440102901,2024-11-24T09:21:42.901Z,37620,0.12737963,-0.07138187,-0.88781834
1732440102912,2024-11-24T09:21:42.912Z,37631,0.08198006,-0.07923151,-0.9177871
1732440102915,2024-11-24T09:21:42.915Z,37634,0.08198006,-0.07923151,-0.9177871
1732440102925,2024-11-24T09:21:42.925Z,37644,0.06868998,-0.07261764,-0.77004355
1732440102929,2024-11-24T09:21:42.929Z,37648,0.06868998,-0.07261764,-0.77004355
1732440102940,2024-11-24T09:21:42.940Z,37659,-0.09077736,-0.05950602,-0.78113264
1732440102946,2024-11-24T09:21:42.946Z,37665,-0.09077736,-0.05950602,-0.78113264
1732440102955,2024-11-24T09:21:42.955Z,37674,-0.062953256,-0.11251318,-0.77087396
1732440102958,2024-11-24T09:21:42.958Z,37677,-0.062953256,-0.11251318,-0.77087396
1732440102967,2024-11-24T09:21:42.967Z,37686,-0.105455555,-0.111212,-0.82816017
1732440102970,2024-11-24T09:21:42.970Z,37689,-0.105455555,-0.111212,-0.82816017
1732440102987,2024-11-24T09:21:42.987Z,37706,0.015431356,-0.16856082,-0.88641983
1732440102990,2024-11-24T09:21:42.990Z,37709,0.015431356,-0.16856082,-0.88641983
1732440103000,2024-11-24T09:21:43Z,37719,0.061169382,-0.20422526,-0.7665485
1732440103003,2024-11-24T09:21:43.003Z,37722,0.061169382,-0.20422526,-0.7665485
1732440103014,2024-11-24T09:21:43.014Z,37733,-0.06576887,-0.16993834,-0.7619911
1732440103018,2024-11-24T09:21:43.018Z,37737,-0.06576887,-0.16993834,-0.7619911
1732440103034,2024-11-24T09:21:43.034Z,37753,-0.0313461,-0.15705389,-0.9330496
1732440103037,2024-11-24T09:21:43.037Z,37756,-0.0313461,-0.15705389,-0.9330496
1732440103046,2024-11-24T09:21:43.046Z,37765,-0.01445883,-0.23483261,-0.8428219
1732440103049,2024-11-24T09:21:43.049Z,37768,-0.01445883,-0.23483261,-0.8428219
1732440103061,2024-11-24T09:21:43.061Z,37780,-0.11891972,-0.16128008,-0.85322946
1732440103065,2024-11-24T09:21:43.065Z,37784,-0.11891972,-0.16128008,-0.85322946
1732440103082,2024-11-24T09:21:43.082Z,37801,-0.06225022,-0.2027823,-0.8874123
1732440103088,2024-11-24T09:21:43.088Z,37807,-0.06225022,-0.2027823,-0.8874123
1732440103100,2024-11-24T09:21:43.100Z,37819,-0.07192182,-0.111931145,-0.8114614
1732440103103,2024-11-24T09:21:43.103Z,37822,-0.07192182,-0.111931145,-0.8114614
1732440103113,2024-11-24T09:21:43.113Z,37832,-0.05855553,-0.098120704,-0.82779056
1732440103117,2024-11-24T09:21:43.117Z,37836,-0.05855553,-0.098120704,-0.82779056
1732440103127,2024-11-24T09:21:43.127Z,37846,-0.03452913,-0.051702235,-0.8521058
1732440103130,2024-11-24T09:21:43.130Z,37849,-0.03452913,-0.051702235,-0.8521058
1732440103140,2024-11-24T09:21:43.140Z,37859,-0.0027457718,-0.07192198,-0.9267355
1732440103144,2024-11-24T09:21:43.144Z,37863,-0.0027457718,-0.07192198,-0.9267355
1732440103154,2024-11-24T09:21:43.154Z,37873,-0.07268559,-0.040086966,-0.8978976
1732440103157,2024-11-24T09:21:43.157Z,37876,-0.07268559,-0.040086966,-0.8978976
1732440103167,2024-11-24T09:21:43.167Z,37886,-0.16905749,-0.031340506,-0.84601897
1732440103170,2024-11-24T09:21:43.170Z,37889,-0.16905749,-0.031340506,-0.84601897
1732440103181,2024-11-24T09:21:43.181Z,37900,-0.103142165,-0.07107271,-0.83349025
1732440103185,2024-11-24T09:21:43.185Z,37904,-0.103142165,-0.07107271,-0.83349025
1732440103196,2024-11-24T09:21:43.196Z,37915,-0.060206827,-0.06210025,-0.8369337
1732440103199,2024-11-24T09:21:43.199Z,37918,-0.060206827,-0.06210025,-0.8369337
1732440103212,2024-11-24T09:21:43.212Z,37931,-0.073372975,-0.043723546,-0.89337605
1732440103215,2024-11-24T09:21:43.215Z,37934,-0.073372975,-0.043723546,-0.89337605
1732440103259,2024-11-24T09:21:43.259Z,37978,-0.09095276,-0.08772551,-0.92174107
1732440103262,2024-11-24T09:21:43.262Z,37981,-0.09095276,-0.08772551,-0.92174107
1732440103273,2024-11-24T09:21:43.273Z,37992,-0.08625778,-0.10335069,-0.9275593
1732440103276,2024-11-24T09:21:43.276Z,37995,-0.08625778,-0.10335069,-0.9275593
1732440103306,2024-11-24T09:21:43.306Z,38025,-0.109523825,-0.08869721,-0.89380443
1732440103309,2024-11-24T09:21:43.309Z,38028,-0.109523825,-0.08869721,-0.89380443
1732440103321,2024-11-24T09:21:43.321Z,38040,-0.122231275,-0.07774546,-0.8135448
1732440103325,2024-11-24T09:21:43.325Z,38044,-0.122231275,-0.07774546,-0.8135448
1732440103336,2024-11-24T09:21:43.336Z,38055,-0.120875664,-0.07018572,-0.832907
1732440103339,2024-11-24T09:21:43.339Z,38058,-0.120875664,-0.07018572,-0.832907
1732440103360,2024-11-24T09:21:43.360Z,38079,-0.13663705,-0.051865805,-0.9249786
1732440103371,2024-11-24T09:21:43.371Z,38090,-0.13663705,-0.051865805,-0.9249786
1732440103400,2024-11-24T09:21:43.400Z,38119,-0.1692278,-0.035451557,-0.88708276
1732440103408,2024-11-24T09:21:43.408Z,38127,-0.1692278,-0.035451557,-0.88708276
1732440103426,2024-11-24T09:21:43.426Z,38145,-0.06530728,-0.027754596,-0.9294081
1732440103431,2024-11-24T09:21:43.431Z,38150,-0.06530728,-0.027754596,-0.9294081
1732440103446,2024-11-24T09:21:43.446Z,38165,-0.036285415,-0.026898038,-0.8607754
1732440103449,2024-11-24T09:21:43.449Z,38168,-0.036285415,-0.026898038,-0.8607754
1732440103461,2024-11-24T09:21:43.461Z,38180,-0.06527906,-0.010403852,-0.8668424
1732440103465,2024-11-24T09:21:43.465Z,38184,-0.06527906,-0.010403852,-0.8668424
1732440103483,2024-11-24T09:21:43.483Z,38202,-0.044420265,-0.020108785,-0.8686263
1732440103487,2024-11-24T09:21:43.487Z,38206,-0.044420265,-0.020108785,-0.8686263
1732440103498,2024-11-24T09:21:43.498Z,38217,-0.075935945,0.0054663913,-0.91655016
1732440103501,2024-11-24T09:21:43.501Z,38220,-0.075935945,0.0054663913,-0.91655016
1732440103510,2024-11-24T09:21:43.510Z,38229,-0.076796606,-0.0080090305,-0.9546565
1732440103514,2024-11-24T09:21:43.514Z,38233,-0.076796606,-0.0080090305,-0.9546565
1732440103527,2024-11-24T09:21:43.527Z,38246,-0.09829708,-0.007671872,-0.8702477
1732440103530,2024-11-24T09:21:43.530Z,38249,-0.09829708,-0.007671872,-0.8702477
1732440103542,2024-11-24T09:21:43.542Z,38261,-0.07918083,0.012413573,-0.8587949
1732440103546,2024-11-24T09:21:43.546Z,38265,-0.07918083,0.012413573,-0.8587949
1732440103557,2024-11-24T09:21:43.557Z,38276,-0.023139678,-0.023735445,-0.8631246
1732440103561,2024-11-24T09:21:43.561Z,38280,-0.023139678,-0.023735445,-0.8631246
1732440103572,2024-11-24T09:21:43.572Z,38291,-0.06563144,-0.04157661,-0.9786106
1732440103575,2024-11-24T09:21:43.575Z,38294,-0.06563144,-0.04157661,-0.9786106
1732440103670,2024-11-24T09:21:43.670Z,38389,-0.16527577,-0.022231411,-0.86908627
1732440103678,2024-11-24T09:21:43.678Z,38397,-0.16527577,-0.022231411,-0.86908627
1732440103703,2024-11-24T09:21:43.703Z,38422,-0.16458566,-0.045405734,-0.94083506
1732440103711,2024-11-24T09:21:43.711Z,38430,-0.16458566,-0.045405734,-0.94083506
1732440103734,2024-11-24T09:21:43.734Z,38453,-0.08523031,-0.08967572,-0.8593896
1732440103739,2024-11-24T09:21:43.739Z,38458,-0.08523031,-0.08967572,-0.8593896
1732440103759,2024-11-24T09:21:43.759Z,38478,-0.06168434,-0.054204028,-0.9094727
1732440103764,2024-11-24T09:21:43.764Z,38483,-0.06168434,-0.054204028,-0.9094727
1732440103779,2024-11-24T09:21:43.779Z,38498,-0.089859575,-0.024105666,-0.91942346
1732440103783,2024-11-24T09:21:43.783Z,38502,-0.089859575,-0.024105666,-0.91942346
1732440103796,2024-11-24T09:21:43.796Z,38515,-0.096850775,0.005329661,-0.9385892
1732440103800,2024-11-24T09:21:43.800Z,38519,-0.096850775,0.005329661,-0.9385892
1732440103812,2024-11-24T09:21:43.812Z,38531,-0.08391897,-0.012415518,-0.851347
1732440103815,2024-11-24T09:21:43.815Z,38534,-0.08391897,-0.012415518,-0.851347
1732440103848,2024-11-24T09:21:43.848Z,38567,-0.06267693,-0.006431575,-0.8494773
1732440103854,2024-11-24T09:21:43.854Z,38573,-0.06267693,-0.006431575,-0.8494773
1732440103872,2024-11-24T09:21:43.872Z,38591,-0.124400094,-0.0053090444,-0.79454386
1732440103875,2024-11-24T09:21:43.875Z,38594,-0.124400094,-0.0053090444,-0.79454386
1732440103888,2024-11-24T09:21:43.888Z,38607,-0.15695447,-3.8218353E-4,-0.82911843
1732440103892,2024-11-24T09:21:43.892Z,38611,-0.15695447,-3.8218353E-4,-0.82911843
1732440103912,2024-11-24T09:21:43.912Z,38631,-0.11953047,-0.030192401,-0.8369508
1732440103916,2024-11-24T09:21:43.916Z,38635,-0.11953047,-0.030192401,-0.8369508
1732440103936,2024-11-24T09:21:43.936Z,38655,-0.16490324,-0.03626231,-0.83172643
1732440103943,2024-11-24T09:21:43.943Z,38662,-0.16490324,-0.03626231,-0.83172643
1732440103965,2024-11-24T09:21:43.965Z,38684,-0.16858752,-0.044310823,-0.88798493
1732440103972,2024-11-24T09:21:43.972Z,38691,-0.16858752,-0.044310823,-0.88798493
1732440103999,2024-11-24T09:21:43.999Z,38718,-0.12314449,0.0020864496,-0.7747406
1732440104006,2024-11-24T09:21:44.006Z,38725,-0.12314449,0.0020864496,-0.7747406
1732440104031,2024-11-24T09:21:44.031Z,38750,-0.16514973,0.023406649,-0.7731345
1732440104035,2024-11-24T09:21:44.035Z,38754,-0.16514973,0.023406649,-0.7731345
1732440104049,2024-11-24T09:21:44.049Z,38768,-0.15591496,0.011908858,-0.9039681
1732440104053,2024-11-24T09:21:44.053Z,38772,-0.15591496,0.011908858,-0.9039681
1732440104067,2024-11-24T09:21:44.067Z,38786,-0.08265676,0.019927515,-0.7283472
1732440104072,2024-11-24T09:21:44.072Z,38791,-0.08265676,0.019927515,-0.7283472
1732440104084,2024-11-24T09:21:44.084Z,38803,-0.18038636,0.024161097,-0.7783002
1732440104088,2024-11-24T09:21:44.088Z,38807,-0.18038636,0.024161097,-0.7783002
1732440104099,2024-11-24T09:21:44.099Z,38818,-0.112521455,0.033759154,-0.7916965
1732440104103,2024-11-24T09:21:44.103Z,38822,-0.112521455,0.033759154,-0.7916965
1732440104115,2024-11-24T09:21:44.115Z,38834,-0.08778289,-0.0020671948,-0.85285527
1732440104122,2024-11-24T09:21:44.122Z,38841,-0.08778289,-0.0020671948,-0.85285527
1732440104141,2024-11-24T09:21:44.141Z,38860,-0.08836339,-0.02061107,-0.7989979
1732440104144,2024-11-24T09:21:44.144Z,38863,-0.08836339,-0.02061107,-0.7989979
1732440104154,2024-11-24T09:21:44.154Z,38873,-0.137406,-0.01190312,-0.7042379
1732440104157,2024-11-24T09:21:44.157Z,38876,-0.137406,-0.01190312,-0.7042379
1732440104167,2024-11-24T09:21:44.167Z,38886,-0.12196183,-0.024265736,-0.8042812
1732440104171,2024-11-24T09:21:44.171Z,38890,-0.12196183,-0.024265736,-0.8042812
1732440104181,2024-11-24T09:21:44.181Z,38900,-0.022781821,-0.022389537,-0.8043353
1732440104184,2024-11-24T09:21:44.184Z,38903,-0.022781821,-0.022389537,-0.8043353
1732440104197,2024-11-24T09:21:44.197Z,38916,-0.123452924,-0.031234605,-0.8469311
1732440104201,2024-11-24T09:21:44.201Z,38920,-0.123452924,-0.031234605,-0.8469311
1732440104210,2024-11-24T09:21:44.210Z,38929,-0.16492721,-0.07822402,-0.74978137
1732440104213,2024-11-24T09:21:44.213Z,38932,-0.16492721,-0.07822402,-0.74978137
1732440104224,2024-11-24T09:21:44.224Z,38943,-0.12908839,-0.06126713,-0.7246792
1732440104227,2024-11-24T09:21:44.227Z,38946,-0.12908839,-0.06126713,-0.7246792
1732440104238,2024-11-24T09:21:44.238Z,38957,-0.15057017,-0.03447908,-0.70087653
1732440104241,2024-11-24T09:21:44.241Z,38960,-0.15057017,-0.03447908,-0.70087653
1732440104251,2024-11-24T09:21:44.251Z,38970,-0.063407995,-0.073143214,-0.7700768
1732440104255,2024-11-24T09:21:44.255Z,38974,-0.063407995,-0.073143214,-0.7700768
1732440104264,2024-11-24T09:21:44.264Z,38983,-0.10364076,-0.046719845,-0.73665184
1732440104268,2024-11-24T09:21:44.268Z,38987,-0.10364076,-0.046719845,-0.73665184
1732440104278,2024-11-24T09:21:44.278Z,38997,-0.18286304,-0.027052466,-0.780283
1732440104282,2024-11-24T09:21:44.282Z,39001,-0.18286304,-0.027052466,-0.780283
1732440104294,2024-11-24T09:21:44.294Z,39013,-0.10436135,-0.082609795,-0.79564524
1732440104297,2024-11-24T09:21:44.297Z,39016,-0.10436135,-0.082609795,-0.79564524
1732440104308,2024-11-24T09:21:44.308Z,39027,-0.16579136,-0.080712296,-0.7643781
1732440104311,2024-11-24T09:21:44.311Z,39030,-0.16579136,-0.080712296,-0.7643781
1732440104320,2024-11-24T09:21:44.320Z,39039,-0.1292586,-0.08145517,-0.764762
1732440104322,2024-11-24T09:21:44.322Z,39041,-0.1292586,-0.08145517,-0.764762
1732440104331,2024-11-24T09:21:44.331Z,39050,-0.14062022,-0.037650425,-0.7302058
1732440104334,2024-11-24T09:21:44.334Z,39053,-0.14062022,-0.037650425,-0.7302058
1732440104343,2024-11-24T09:21:44.343Z,39062,-0.14600883,-0.04740719,-0.6937302
1732440104347,2024-11-24T09:21:44.347Z,39066,-0.14600883,-0.04740719,-0.6937302
1732440104356,2024-11-24T09:21:44.356Z,39075,-0.21102609,-0.024069587,-0.78213096
1732440104359,2024-11-24T09:21:44.359Z,39078,-0.21102609,-0.024069587,-0.78213096
1732440104368,2024-11-24T09:21:44.368Z,39087,-0.11087314,-0.06336204,-0.84876966
1732440104371,2024-11-24T09:21:44.371Z,39090,-0.11087314,-0.06336204,-0.84876966
1732440104379,2024-11-24T09:21:44.379Z,39098,-0.13369977,-0.018691497,-0.6459626
1732440104382,2024-11-24T09:21:44.382Z,39101,-0.13369977,-0.018691497,-0.6459626
1732440104392,2024-11-24T09:21:44.392Z,39111,-0.2144706,0.00294398,-0.64303017
1732440104396,2024-11-24T09:21:44.396Z,39115,-0.2144706,0.00294398,-0.64303017
1732440104407,2024-11-24T09:21:44.407Z,39126,-0.15982679,-0.005306613,-0.73595375
1732440104410,2024-11-24T09:21:44.410Z,39129,-0.15982679,-0.005306613,-0.73595375
1732440104420,2024-11-24T09:21:44.420Z,39139,-0.06503388,-0.033215735,-0.92693096
1732440104423,2024-11-24T09:21:44.423Z,39142,-0.06503388,-0.033215735,-0.92693096
1732440104433,2024-11-24T09:21:44.433Z,39152,0.032917995,-0.060333453,-0.8609051
1732440104436,2024-11-24T09:21:44.436Z,39155,0.032917995,-0.060333453,-0.8609051
1732440104446,2024-11-24T09:21:44.446Z,39165,-0.086066544,-0.0382238,-0.7971195
1732440104449,2024-11-24T09:21:44.449Z,39168,-0.086066544,-0.0382238,-0.7971195
1732440104458,2024-11-24T09:21:44.458Z,39177,-0.23949744,-0.027505836,-0.63814974
1732440104461,2024-11-24T09:21:44.461Z,39180,-0.23949744,-0.027505836,-0.63814974
1732440104473,2024-11-24T09:21:44.473Z,39192,-0.19291085,-0.020113746,-0.63731885
1732440104476,2024-11-24T09:21:44.476Z,39195,-0.19291085,-0.020113746,-0.63731885
1732440104486,2024-11-24T09:21:44.486Z,39205,-0.18652084,0.0054353694,-0.8248282
1732440104489,2024-11-24T09:21:44.489Z,39208,-0.18652084,0.0054353694,-0.8248282
1732440104501,2024-11-24T09:21:44.501Z,39220,0.023632726,-0.13155748,-0.96948016
1732440104505,2024-11-24T09:21:44.505Z,39224,0.023632726,-0.13155748,-0.96948016
1732440104516,2024-11-24T09:21:44.516Z,39235,0.06018582,-0.14522031,-0.9245653
1732440104524,2024-11-24T09:21:44.524Z,39243,0.06018582,-0.14522031,-0.9245653
1732440104534,2024-11-24T09:21:44.534Z,39253,-0.1456945,0.01990865,-0.7339714
1732440104537,2024-11-24T09:21:44.537Z,39256,-0.1456945,0.01990865,-0.7339714
1732440104545,2024-11-24T09:21:44.545Z,39264,-0.3781878,-0.071646474,-0.58465034
1732440104548,2024-11-24T09:21:44.548Z,39267,-0.3781878,-0.071646474,-0.58465034
1732440104557,2024-11-24T09:21:44.557Z,39276,-0.2727622,-0.017097997,-0.70255923
1732440104560,2024-11-24T09:21:44.560Z,39279,-0.2727622,-0.017097997,-0.70255923
1732440104570,2024-11-24T09:21:44.570Z,39289,-0.16625105,-0.07749894,-0.90527725
1732440104573,2024-11-24T09:21:44.573Z,39292,-0.16625105,-0.07749894,-0.90527725
1732440104582,2024-11-24T09:21:44.582Z,39301,-0.040462803,-0.10209113,-1.0070724
1732440104585,2024-11-24T09:21:44.585Z,39304,-0.040462803,-0.10209113,-1.0070724
1732440104595,2024-11-24T09:21:44.595Z,39314,-0.19182163,-0.09915464,-0.761282
1732440104598,2024-11-24T09:21:44.598Z,39317,-0.19182163,-0.09915464,-0.761282
1732440104610,2024-11-24T09:21:44.610Z,39329,-0.26903954,-0.07954999,-0.65512156
1732440104613,2024-11-24T09:21:44.613Z,39332,-0.26903954,-0.07954999,-0.65512156
1732440104622,2024-11-24T09:21:44.622Z,39341,-0.23763196,-0.06215218,-0.6583412
1732440104625,2024-11-24T09:21:44.625Z,39344,-0.23763196,-0.06215218,-0.6583412
1732440104636,2024-11-24T09:21:44.636Z,39355,-0.1486654,-0.052760582,-0.8259742
1732440104639,2024-11-24T09:21:44.639Z,39358,-0.1486654,-0.052760582,-0.8259742
1732440104654,2024-11-24T09:21:44.654Z,39373,-0.077473655,-0.08386682,-0.83688235
1732440104657,2024-11-24T09:21:44.657Z,39376,-0.077473655,-0.08386682,-0.83688235
1732440104668,2024-11-24T09:21:44.668Z,39387,-0.21455416,-0.10199671,-0.6510634
1732440104671,2024-11-24T09:21:44.671Z,39390,-0.21455416,-0.10199671,-0.6510634
1732440104698,2024-11-24T09:21:44.698Z,39417,-0.23468286,-0.075406075,-0.6647536
1732440104700,2024-11-24T09:21:44.700Z,39419,-0.23468286,-0.075406075,-0.6647536
1732440104709,2024-11-24T09:21:44.709Z,39428,-0.23811585,-0.054801907,-0.6909517
1732440104712,2024-11-24T09:21:44.712Z,39431,-0.23811585,-0.054801907,-0.6909517
1732440104723,2024-11-24T09:21:44.723Z,39442,-0.1928526,-0.07545197,-0.9260967
1732440104725,2024-11-24T09:21:44.725Z,39444,-0.1928526,-0.07545197,-0.9260967
1732440104887,2024-11-24T09:21:44.887Z,39606,-0.03406487,-0.13853724,-0.9119979
1732440104897,2024-11-24T09:21:44.897Z,39616,-0.03406487,-0.13853724,-0.9119979
1732440104928,2024-11-24T09:21:44.928Z,39647,-0.3582319,-0.10211428,-0.70668155
1732440104937,2024-11-24T09:21:44.937Z,39656,-0.3582319,-0.10211428,-0.70668155
1732440104955,2024-11-24T09:21:44.955Z,39674,-0.2835592,-0.08364859,-0.72440934
1732440104959,2024-11-24T09:21:44.959Z,39678,-0.2835592,-0.08364859,-0.72440934
1732440104974,2024-11-24T09:21:44.974Z,39693,-0.20031415,-0.11422357,-0.785425
1732440104980,2024-11-24T09:21:44.980Z,39699,-0.20031415,-0.11422357,-0.785425
1732440104994,2024-11-24T09:21:44.994Z,39713,-0.14418493,-0.13320652,-0.83718944
1732440104998,2024-11-24T09:21:44.998Z,39717,-0.14418493,-0.13320652,-0.83718944
1732440105010,2024-11-24T09:21:45.010Z,39729,-0.15707378,-0.12450061,-0.7741336
1732440105014,2024-11-24T09:21:45.014Z,39733,-0.15707378,-0.12450061,-0.7741336
1732440105025,2024-11-24T09:21:45.025Z,39744,-0.117403105,-0.16440387,-0.72426313
1732440105029,2024-11-24T09:21:45.029Z,39748,-0.117403105,-0.16440387,-0.72426313
1732440105040,2024-11-24T09:21:45.040Z,39759,-0.13094568,-0.12549828,-0.74986553
1732440105043,2024-11-24T09:21:45.043Z,39762,-0.13094568,-0.12549828,-0.74986553
1732440105055,2024-11-24T09:21:45.055Z,39774,-0.2676809,-0.08000939,-0.82347476
1732440105059,2024-11-24T09:21:45.059Z,39778,-0.2676809,-0.08000939,-0.82347476
1732440105073,2024-11-24T09:21:45.073Z,39792,-0.14146228,-0.08573077,-0.8390679
1732440105076,2024-11-24T09:21:45.076Z,39795,-0.14146228,-0.08573077,-0.8390679
1732440105089,2024-11-24T09:21:45.089Z,39808,-0.107066035,-0.12090215,-0.8377453
1732440105092,2024-11-24T09:21:45.092Z,39811,-0.107066035,-0.12090215,-0.8377453
1732440105107,2024-11-24T09:21:45.107Z,39826,-0.17397273,-0.08930364,-0.7244383
1732440105110,2024-11-24T09:21:45.110Z,39829,-0.17397273,-0.08930364,-0.7244383
1732440105120,2024-11-24T09:21:45.120Z,39839,-0.18003698,-0.07096273,-0.78653514
1732440105123,2024-11-24T09:21:45.123Z,39842,-0.18003698,-0.07096273,-0.78653514
1732440105134,2024-11-24T09:21:45.134Z,39853,-0.21144193,-0.06365145,-0.80873847
1732440105139,2024-11-24T09:21:45.139Z,39858,-0.21144193,-0.06365145,-0.80873847
1732440105150,2024-11-24T09:21:45.150Z,39869,-0.06633818,-0.10067365,-0.8264422
1732440105154,2024-11-24T09:21:45.154Z,39873,-0.06633818,-0.10067365,-0.8264422
1732440105164,2024-11-24T09:21:45.164Z,39883,-0.09789985,-0.098425284,-0.7796513
1732440105168,2024-11-24T09:21:45.168Z,39887,-0.09789985,-0.098425284,-0.7796513
1732440105178,2024-11-24T09:21:45.178Z,39897,-0.21298122,-0.08638466,-0.7088926
1732440105182,2024-11-24T09:21:45.182Z,39901,-0.21298122,-0.08638466,-0.7088926
1732440105193,2024-11-24T09:21:45.193Z,39912,-0.059705965,-0.12505929,-0.8319229
1732440105196,2024-11-24T09:21:45.196Z,39915,-0.059705965,-0.12505929,-0.8319229
1732440105208,2024-11-24T09:21:45.208Z,39927,-0.34348977,-0.14713249,-0.6756801
1732440105210,2024-11-24T09:21:45.210Z,39929,-0.34348977,-0.14713249,-0.6756801
1732440105219,2024-11-24T09:21:45.219Z,39938,-0.33117542,-0.14415817,-0.6330383
1732440105222,2024-11-24T09:21:45.222Z,39941,-0.33117542,-0.14415817,-0.6330383
1732440105285,2024-11-24T09:21:45.285Z,40004,-0.30346617,-0.17119963,-0.66781574
1732440105289,2024-11-24T09:21:45.289Z,40008,-0.30346617,-0.17119963,-0.66781574
1732440105300,2024-11-24T09:21:45.300Z,40019,-0.097411215,-0.15538774,-0.8475527
1732440105304,2024-11-24T09:21:45.304Z,40023,-0.097411215,-0.15538774,-0.8475527
1732440105315,2024-11-24T09:21:45.315Z,40034,-0.2535103,-0.16133133,-0.88550615
1732440105318,2024-11-24T09:21:45.318Z,40037,-0.2535103,-0.16133133,-0.88550615
1732440105331,2024-11-24T09:21:45.331Z,40050,-0.1733263,-0.19630414,-0.88341427
1732440105334,2024-11-24T09:21:45.334Z,40053,-0.1733263,-0.19630414,-0.88341427
1732440105351,2024-11-24T09:21:45.351Z,40070,-0.24800186,-0.1925637,-0.6678951
1732440105353,2024-11-24T09:21:45.353Z,40072,-0.24800186,-0.1925637,-0.6678951
1732440105361,2024-11-24T09:21:45.361Z,40080,-0.32994494,-0.15853205,-0.6184006
1732440105364,2024-11-24T09:21:45.364Z,40083,-0.32994494,-0.15853205,-0.6184006
1732440105426,2024-11-24T09:21:45.426Z,40145,-0.3264611,-0.1540432,-0.7109605
1732440105435,2024-11-24T09:21:45.435Z,40154,-0.3264611,-0.1540432,-0.7109605
1732440105469,2024-11-24T09:21:45.469Z,40188,-0.19464397,-0.1296274,-0.7138667
1732440105475,2024-11-24T09:21:45.475Z,40194,-0.19464397,-0.1296274,-0.7138667
1732440105495,2024-11-24T09:21:45.495Z,40214,-0.20464332,-0.11450773,-0.7558158
1732440105499,2024-11-24T09:21:45.499Z,40218,-0.20464332,-0.11450773,-0.7558158
1732440105515,2024-11-24T09:21:45.515Z,40234,-0.2251785,-0.13341764,-0.79661137
1732440105520,2024-11-24T09:21:45.520Z,40239,-0.2251785,-0.13341764,-0.79661137
1732440105534,2024-11-24T09:21:45.534Z,40253,-0.15229599,-0.13010217,-0.78285265
1732440105539,2024-11-24T09:21:45.539Z,40258,-0.15229599,-0.13010217,-0.78285265
1732440105551,2024-11-24T09:21:45.551Z,40270,-0.14680666,-0.15269962,-0.794973
1732440105554,2024-11-24T09:21:45.554Z,40273,-0.14680666,-0.15269962,-0.794973
1732440105565,2024-11-24T09:21:45.565Z,40284,-0.15990438,-0.14937279,-0.78261715
1732440105568,2024-11-24T09:21:45.568Z,40287,-0.15990438,-0.14937279,-0.78261715
1732440105579,2024-11-24T09:21:45.579Z,40298,-0.25708827,-0.13409331,-0.7882846
1732440105582,2024-11-24T09:21:45.582Z,40301,-0.25708827,-0.13409331,-0.7882846
1732440105593,2024-11-24T09:21:45.593Z,40312,-0.23115405,-0.15759964,-0.76530015
1732440105596,2024-11-24T09:21:45.596Z,40315,-0.23115405,-0.15759964,-0.76530015
1732440105607,2024-11-24T09:21:45.607Z,40326,-0.18697906,-0.16339396,-0.7825795
1732440105611,2024-11-24T09:21:45.611Z,40330,-0.18697906,-0.16339396,-0.7825795
1732440105622,2024-11-24T09:21:45.622Z,40341,-0.21414693,-0.15090978,-0.7851242
1732440105625,2024-11-24T09:21:45.625Z,40344,-0.21414693,-0.15090978,-0.7851242
1732440105637,2024-11-24T09:21:45.637Z,40356,-0.23433118,-0.15071411,-0.7633451
1732440105640,2024-11-24T09:21:45.640Z,40359,-0.23433118,-0.15071411,-0.7633451
1732440105651,2024-11-24T09:21:45.651Z,40370,-0.22140186,-0.13186285,-0.80175465
1732440105654,2024-11-24T09:21:45.654Z,40373,-0.22140186,-0.13186285,-0.80175465
1732440105663,2024-11-24T09:21:45.663Z,40382,-0.13345948,-0.1676818,-0.810289
1732440105668,2024-11-24T09:21:45.668Z,40387,-0.13345948,-0.1676818,-0.810289
1732440105687,2024-11-24T09:21:45.687Z,40406,-0.18125877,-0.16298191,-0.8358624
1732440105690,2024-11-24T09:21:45.690Z,40409,-0.18125877,-0.16298191,-0.8358624
1732440105699,2024-11-24T09:21:45.699Z,40418,-0.21260864,-0.14243703,-0.76228964
1732440105701,2024-11-24T09:21:45.701Z,40420,-0.21260864,-0.14243703,-0.76228964
1732440105711,2024-11-24T09:21:45.711Z,40430,-0.23094238,-0.14325532,-0.79651713
1732440105714,2024-11-24T09:21:45.714Z,40433,-0.23094238,-0.14325532,-0.79651713
1732440105724,2024-11-24T09:21:45.724Z,40443,-0.22465146,-0.13821702,-0.80048484
1732440105726,2024-11-24T09:21:45.726Z,40445,-0.22465146,-0.13821702,-0.80048484
1732440105737,2024-11-24T09:21:45.737Z,40456,-0.16822186,-0.17031907,-0.7954124
1732440105740,2024-11-24T09:21:45.740Z,40459,-0.16822186,-0.17031907,-0.7954124
1732440105747,2024-11-24T09:21:45.747Z,40466,-0.12934947,-0.17635381,-0.79288447
1732440105750,2024-11-24T09:21:45.750Z,40469,-0.12934947,-0.17635381,-0.79288447
1732440105760,2024-11-24T09:21:45.760Z,40479,-0.1806536,-0.17256102,-0.75996995
1732440105762,2024-11-24T09:21:45.762Z,40481,-0.1806536,-0.17256102,-0.75996995
1732440105824,2024-11-24T09:21:45.824Z,40543,-0.19636133,-0.17075804,-0.77505004
1732440105827,2024-11-24T09:21:45.827Z,40546,-0.19636133,-0.17075804,-0.77505004
1732440105836,2024-11-24T09:21:45.836Z,40555,-0.18394019,-0.16559584,-0.7687703
1732440105840,2024-11-24T09:21:45.840Z,40559,-0.18394019,-0.16559584,-0.7687703
1732440105849,2024-11-24T09:21:45.849Z,40568,-0.16677234,-0.16477011,-0.73710424
1732440105853,2024-11-24T09:21:45.853Z,40572,-0.16677234,-0.16477011,-0.73710424
1732440105870,2024-11-24T09:21:45.870Z,40589,-0.15351789,-0.15565051,-0.7084972
1732440105874,2024-11-24T09:21:45.874Z,40593,-0.15351789,-0.15565051,-0.7084972
1732440105888,2024-11-24T09:21:45.888Z,40607,-0.14490816,-0.1420228,-0.6784257
1732440105901,2024-11-24T09:21:45.901Z,40620,-0.14490816,-0.1420228,-0.6784257
1732440105912,2024-11-24T09:21:45.912Z,40631,-0.1511945,-0.13344944,-0.6660813
1732440105915,2024-11-24T09:21:45.915Z,40634,-0.1511945,-0.13344944,-0.6660813
1732440105926,2024-11-24T09:21:45.926Z,40645,-0.17107925,-0.11989856,-0.6601595
1732440105929,2024-11-24T09:21:45.929Z,40648,-0.17107925,-0.11989856,-0.6601595
1732440105940,2024-11-24T09:21:45.940Z,40659,-0.20315246,-0.111812696,-0.6175225
1732440105942,2024-11-24T09:21:45.942Z,40661,-0.20315246,-0.111812696,-0.6175225
1732440105950,2024-11-24T09:21:45.950Z,40669,-0.19996345,-0.120991714,-0.70107156
1732440105953,2024-11-24T09:21:45.953Z,40672,-0.19996345,-0.120991714,-0.70107156
1732440105963,2024-11-24T09:21:45.963Z,40682,-0.17084803,-0.120103166,-0.6328539
1732440105966,2024-11-24T09:21:45.966Z,40685,-0.17084803,-0.120103166,-0.6328539
1732440105974,2024-11-24T09:21:45.974Z,40693,-0.20096393,-0.11986636,-0.5949076
1732440105977,2024-11-24T09:21:45.977Z,40696,-0.20096393,-0.11986636,-0.5949076
1732440106003,2024-11-24T09:21:46.003Z,40722,-0.19925453,-0.121132046,-0.6068218
1732440106006,2024-11-24T09:21:46.006Z,40725,-0.19925453,-0.121132046,-0.6068218
1732440106016,2024-11-24T09:21:46.016Z,40735,-0.15033866,-0.145422,-0.64292216
1732440106020,2024-11-24T09:21:46.020Z,40739,-0.15033866,-0.145422,-0.64292216
1732440106046,2024-11-24T09:21:46.046Z,40765,-0.16104259,-0.14961016,-0.6450244
1732440106050,2024-11-24T09:21:46.050Z,40769,-0.16104259,-0.14961016,-0.6450244
1732440106064,2024-11-24T09:21:46.064Z,40783,-0.15021144,-0.15115601,-0.6477195
1732440106070,2024-11-24T09:21:46.070Z,40789,-0.15021144,-0.15115601,-0.6477195
1732440106094,2024-11-24T09:21:46.094Z,40813,-0.20501716,-0.15366918,-0.53773165
1732440106101,2024-11-24T09:21:46.101Z,40820,-0.20501716,-0.15366918,-0.53773165
1732440106111,2024-11-24T09:21:46.111Z,40830,-0.20570612,-0.14661464,-0.5447628
1732440106113,2024-11-24T09:21:46.113Z,40832,-0.20570612,-0.14661464,-0.5447628
1732440106123,2024-11-24T09:21:46.123Z,40842,-0.16125137,-0.20730685,-0.60463244
1732440106126,2024-11-24T09:21:46.126Z,40845,-0.16125137,-0.20730685,-0.60463244
1732440106135,2024-11-24T09:21:46.135Z,40854,-0.16250558,-0.23223679,-0.60194886
1732440106137,2024-11-24T09:21:46.137Z,40856,-0.16250558,-0.23223679,-0.60194886
1732440106146,2024-11-24T09:21:46.146Z,40865,-0.19458897,-0.24487266,-0.60885686
1732440106148,2024-11-24T09:21:46.148Z,40867,-0.19458897,-0.24487266,-0.60885686
1732440106157,2024-11-24T09:21:46.157Z,40876,-0.27287048,-0.28134716,-0.5977965
1732440106160,2024-11-24T09:21:46.160Z,40879,-0.27287048,-0.28134716,-0.5977965
1732440106188,2024-11-24T09:21:46.188Z,40907,-0.18618645,-0.3249399,-0.6265105
1732440106195,2024-11-24T09:21:46.195Z,40914,-0.18618645,-0.3249399,-0.6265105
1732440106216,2024-11-24T09:21:46.216Z,40935,-0.24105048,-0.32783118,-0.6284813
1732440106223,2024-11-24T09:21:46.223Z,40942,-0.24105048,-0.32783118,-0.6284813
1732440106235,2024-11-24T09:21:46.235Z,40954,-0.2159377,-0.37747478,-0.6740754
1732440106242,2024-11-24T09:21:46.242Z,40961,-0.2159377,-0.37747478,-0.6740754
1732440106262,2024-11-24T09:21:46.262Z,40981,-0.2388751,-0.35110754,-0.6363971
1732440106270,2024-11-24T09:21:46.270Z,40989,-0.2388751,-0.35110754,-0.6363971
1732440106290,2024-11-24T09:21:46.290Z,41009,-0.25262192,-0.33962005,-0.6541889
1732440106293,2024-11-24T09:21:46.293Z,41012,-0.25262192,-0.33962005,-0.6541889
1732440106304,2024-11-24T09:21:46.304Z,41023,-0.21974118,-0.33862054,-0.6679758
1732440106308,2024-11-24T09:21:46.308Z,41027,-0.21974118,-0.33862054,-0.6679758
1732440106320,2024-11-24T09:21:46.320Z,41039,-0.23928063,-0.28927314,-0.59415644
1732440106324,2024-11-24T09:21:46.324Z,41043,-0.23928063,-0.28927314,-0.59415644
1732440106363,2024-11-24T09:21:46.363Z,41082,-0.16378869,-0.2741947,-0.64245725
1732440106367,2024-11-24T09:21:46.367Z,41086,-0.16378869,-0.2741947,-0.64245725
1732440106411,2024-11-24T09:21:46.411Z,41130,-0.116156004,-0.27555606,-0.64975125
1732440106415,2024-11-24T09:21:46.415Z,41134,-0.116156004,-0.27555606,-0.64975125
1732440106457,2024-11-24T09:21:46.457Z,41176,-0.09004148,-0.21652874,-0.68305403
1732440106462,2024-11-24T09:21:46.462Z,41181,-0.09004148,-0.21652874,-0.68305403
1732440106475,2024-11-24T09:21:46.475Z,41194,-0.08865269,-0.20800517,-0.6257666
1732440106479,2024-11-24T09:21:46.479Z,41198,-0.08865269,-0.20800517,-0.6257666
1732440106492,2024-11-24T09:21:46.492Z,41211,-0.10280126,-0.19308358,-0.595023
1732440106496,2024-11-24T09:21:46.496Z,41215,-0.10280126,-0.19308358,-0.595023
1732440106507,2024-11-24T09:21:46.507Z,41226,-0.022786733,-0.14785571,-0.5727424
1732440106510,2024-11-24T09:21:46.510Z,41229,-0.022786733,-0.14785571,-0.5727424
1732440106522,2024-11-24T09:21:46.522Z,41241,-0.06617933,-0.12457627,-0.5519858
1732440106526,2024-11-24T09:21:46.526Z,41245,-0.06617933,-0.12457627,-0.5519858
1732440106538,2024-11-24T09:21:46.538Z,41257,0.0431327,-0.114092864,-0.53879833
1732440106542,2024-11-24T09:21:46.542Z,41261,0.0431327,-0.114092864,-0.53879833
1732440106552,2024-11-24T09:21:46.552Z,41271,-0.009547489,-0.060998823,-0.47921112
1732440106555,2024-11-24T09:21:46.555Z,41274,-0.009547489,-0.060998823,-0.47921112
1732440106564,2024-11-24T09:21:46.564Z,41283,0.052265134,-0.07768449,-0.5184531
1732440106567,2024-11-24T09:21:46.567Z,41286,0.052265134,-0.07768449,-0.5184531
1732440106576,2024-11-24T09:21:46.576Z,41295,0.05922285,-0.050889533,-0.50671613
1732440106579,2024-11-24T09:21:46.579Z,41298,0.05922285,-0.050889533,-0.50671613
1732440106589,2024-11-24T09:21:46.589Z,41308,0.043114446,-0.02912783,-0.55239457
1732440106592,2024-11-24T09:21:46.592Z,41311,0.043114446,-0.02912783,-0.55239457
1732440106600,2024-11-24T09:21:46.600Z,41319,0.056616865,-0.030386312,-0.5980315
1732440106604,2024-11-24T09:21:46.604Z,41323,0.056616865,-0.030386312,-0.5980315
1732440106612,2024-11-24T09:21:46.612Z,41331,0.10200455,-0.03692107,-0.57589483
1732440106615,2024-11-24T09:21:46.615Z,41334,0.10200455,-0.03692107,-0.57589483
1732440106625,2024-11-24T09:21:46.625Z,41344,0.026330633,-0.020311644,-0.55195683
1732440106627,2024-11-24T09:21:46.627Z,41346,0.026330633,-0.020311644,-0.55195683
1732440106636,2024-11-24T09:21:46.636Z,41355,0.0699627,-0.027400808,-0.6156237
1732440106639,2024-11-24T09:21:46.639Z,41358,0.0699627,-0.027400808,-0.6156237
1732440106647,2024-11-24T09:21:46.647Z,41366,-3.381546E-4,0.012545344,-0.5336018
1732440106650,2024-11-24T09:21:46.650Z,41369,-3.381546E-4,0.012545344,-0.5336018
1732440106661,2024-11-24T09:21:46.661Z,41380,-0.015694419,0.018863626,-0.55175525
1732440106663,2024-11-24T09:21:46.663Z,41382,-0.015694419,0.018863626,-0.55175525
1732440106672,2024-11-24T09:21:46.672Z,41391,0.052511286,0.009854792,-0.60317975
1732440106676,2024-11-24T09:21:46.676Z,41395,0.052511286,0.009854792,-0.60317975
1732440106686,2024-11-24T09:21:46.686Z,41405,0.1592828,-0.022646075,-0.66428035
1732440106689,2024-11-24T09:21:46.689Z,41408,0.1592828,-0.022646075,-0.66428035
1732440106698,2024-11-24T09:21:46.698Z,41417,-0.008103166,0.052299432,-0.5873112
1732440106701,2024-11-24T09:21:46.701Z,41420,-0.008103166,0.052299432,-0.5873112
1732440106710,2024-11-24T09:21:46.710Z,41429,-0.035493884,0.06908682,-0.7230057
1732440106713,2024-11-24T09:21:46.713Z,41432,-0.035493884,0.06908682,-0.7230057
1732440106724,2024-11-24T09:21:46.724Z,41443,0.10049846,0.01668343,-0.59365016
1732440106727,2024-11-24T09:21:46.727Z,41446,0.10049846,0.01668343,-0.59365016
1732440106736,2024-11-24T09:21:46.736Z,41455,0.0225975,0.047779456,-0.57984513
1732440106740,2024-11-24T09:21:46.740Z,41459,0.0225975,0.047779456,-0.57984513
1732440106749,2024-11-24T09:21:46.749Z,41468,0.0368236,0.06912863,-0.5997359
1732440106752,2024-11-24T09:21:46.752Z,41471,0.0368236,0.06912863,-0.5997359
1732440106813,2024-11-24T09:21:46.813Z,41532,0.05985976,0.05289031,-0.7005617
1732440106816,2024-11-24T09:21:46.816Z,41535,0.05985976,0.05289031,-0.7005617
1732440106825,2024-11-24T09:21:46.825Z,41544,0.0983732,0.041885175,-0.57434237
1732440106828,2024-11-24T09:21:46.828Z,41547,0.0983732,0.041885175,-0.57434237
1732440106836,2024-11-24T09:21:46.836Z,41555,-0.026129294,0.07262284,-0.60249937
1732440106839,2024-11-24T09:21:46.839Z,41558,-0.026129294,0.07262284,-0.60249937
1732440106848,2024-11-24T09:21:46.848Z,41567,-0.05686322,0.09457243,-0.6554438
1732440106851,2024-11-24T09:21:46.851Z,41570,-0.05686322,0.09457243,-0.6554438
1732440106860,2024-11-24T09:21:46.860Z,41579,0.20242229,0.02475888,-0.6299866
1732440106863,2024-11-24T09:21:46.863Z,41582,0.20242229,0.02475888,-0.6299866
1732440106871,2024-11-24T09:21:46.871Z,41590,0.2265431,0.0651371,-0.61064494
1732440106874,2024-11-24T09:21:46.874Z,41593,0.2265431,0.0651371,-0.61064494
1732440106885,2024-11-24T09:21:46.885Z,41604,0.038455855,0.1826823,-0.71739787
1732440106892,2024-11-24T09:21:46.892Z,41611,0.038455855,0.1826823,-0.71739787
1732440106959,2024-11-24T09:21:46.959Z,41678,0.039416008,0.2243816,-0.65106434
1732440106966,2024-11-24T09:21:46.966Z,41685,0.039416008,0.2243816,-0.65106434
1732440106988,2024-11-24T09:21:46.988Z,41707,0.09276136,0.237091,-0.5146007
1732440106994,2024-11-24T09:21:46.994Z,41713,0.09276136,0.237091,-0.5146007
1732440107008,2024-11-24T09:21:47.008Z,41727,0.051085733,0.30288243,-0.6187671
1732440107012,2024-11-24T09:21:47.012Z,41731,0.051085733,0.30288243,-0.6187671
1732440107026,2024-11-24T09:21:47.026Z,41745,0.06899092,0.25168127,-0.7235449
1732440107030,2024-11-24T09:21:47.030Z,41749,0.06899092,0.25168127,-0.7235449
1732440107043,2024-11-24T09:21:47.043Z,41762,0.0950567,0.2184736,-0.5232403
1732440107046,2024-11-24T09:21:47.046Z,41765,0.0950567,0.2184736,-0.5232403
1732440107056,2024-11-24T09:21:47.056Z,41775,-0.055602875,0.28655657,-0.58291507
1732440107060,2024-11-24T09:21:47.060Z,41779,-0.055602875,0.28655657,-0.58291507
1732440107069,2024-11-24T09:21:47.069Z,41788,-0.14493269,0.28843433,-0.67001754
1732440107073,2024-11-24T09:21:47.073Z,41792,-0.14493269,0.28843433,-0.67001754
1732440107082,2024-11-24T09:21:47.082Z,41801,-0.12574835,0.24114545,-0.808332
1732440107085,2024-11-24T09:21:47.085Z,41804,-0.12574835,0.24114545,-0.808332
1732440107095,2024-11-24T09:21:47.095Z,41814,-0.07198638,0.17334819,-0.7563691
1732440107098,2024-11-24T09:21:47.098Z,41817,-0.07198638,0.17334819,-0.7563691
1732440107111,2024-11-24T09:21:47.111Z,41830,-0.008040423,0.1341291,-0.61730474
1732440107117,2024-11-24T09:21:47.117Z,41836,-0.008040423,0.1341291,-0.61730474
1732440107134,2024-11-24T09:21:47.134Z,41853,-0.19126438,0.14779212,-0.6710682
1732440107138,2024-11-24T09:21:47.138Z,41857,-0.19126438,0.14779212,-0.6710682
1732440107147,2024-11-24T09:21:47.147Z,41866,-0.08394223,0.10952465,-0.6700524
1732440107150,2024-11-24T09:21:47.150Z,41869,-0.08394223,0.10952465,-0.6700524
1732440107161,2024-11-24T09:21:47.161Z,41880,-0.11657171,0.14144738,-0.60937005
1732440107164,2024-11-24T09:21:47.164Z,41883,-0.11657171,0.14144738,-0.60937005
1732440107179,2024-11-24T09:21:47.179Z,41898,-0.066713914,0.077545136,-0.82328504
1732440107185,2024-11-24T09:21:47.185Z,41904,-0.066713914,0.077545136,-0.82328504
1732440107202,2024-11-24T09:21:47.202Z,41921,-0.004199205,0.022099154,-0.6763286
1732440107207,2024-11-24T09:21:47.207Z,41926,-0.004199205,0.022099154,-0.6763286
1732440107218,2024-11-24T09:21:47.218Z,41937,-0.06919444,0.053793933,-0.66159743
1732440107222,2024-11-24T09:21:47.222Z,41941,-0.06919444,0.053793933,-0.66159743
1732440107231,2024-11-24T09:21:47.231Z,41950,-0.12899007,0.010362716,-0.6957556
1732440107235,2024-11-24T09:21:47.235Z,41954,-0.12899007,0.010362716,-0.6957556
1732440107244,2024-11-24T09:21:47.244Z,41963,4.1472504E-4,-0.059024405,-0.67187375
1732440107247,2024-11-24T09:21:47.247Z,41966,4.1472504E-4,-0.059024405,-0.67187375
1732440107256,2024-11-24T09:21:47.256Z,41975,0.003866788,-0.018013874,-0.7350469
1732440107259,2024-11-24T09:21:47.259Z,41978,0.003866788,-0.018013874,-0.7350469
1732440107271,2024-11-24T09:21:47.271Z,41990,-0.034547277,-0.036036987,-0.6365331
1732440107277,2024-11-24T09:21:47.277Z,41996,-0.034547277,-0.036036987,-0.6365331
1732440107296,2024-11-24T09:21:47.296Z,42015,-0.11500962,7.168129E-4,-0.69420016
1732440107302,2024-11-24T09:21:47.302Z,42021,-0.11500962,7.168129E-4,-0.69420016
1732440107316,2024-11-24T09:21:47.316Z,42035,-0.14211217,-0.024036815,-0.70293754
1732440107319,2024-11-24T09:21:47.319Z,42038,-0.14211217,-0.024036815,-0.70293754
1732440107328,2024-11-24T09:21:47.328Z,42047,-0.036177706,-0.025570897,-0.691853
1732440107331,2024-11-24T09:21:47.331Z,42050,-0.036177706,-0.025570897,-0.691853
1732440107341,2024-11-24T09:21:47.341Z,42060,-0.03883658,-0.03646449,-0.6201684
1732440107344,2024-11-24T09:21:47.344Z,42063,-0.03883658,-0.03646449,-0.6201684
1732440107353,2024-11-24T09:21:47.353Z,42072,-0.06944256,0.014530268,-0.62992746
1732440107356,2024-11-24T09:21:47.356Z,42075,-0.06944256,0.014530268,-0.62992746
1732440107365,2024-11-24T09:21:47.365Z,42084,-0.02924714,0.0093857655,-0.62597626
1732440107368,2024-11-24T09:21:47.368Z,42087,-0.02924714,0.0093857655,-0.62597626
1732440107377,2024-11-24T09:21:47.377Z,42096,-0.083260864,0.051093075,-0.6731812
1732440107379,2024-11-24T09:21:47.379Z,42098,-0.083260864,0.051093075,-0.6731812
1732440107388,2024-11-24T09:21:47.388Z,42107,-0.11326514,0.0441775,-0.7261135
1732440107391,2024-11-24T09:21:47.391Z,42110,-0.11326514,0.0441775,-0.7261135
1732440107400,2024-11-24T09:21:47.400Z,42119,-0.025397299,-0.018350158,-0.65821517
1732440107402,2024-11-24T09:21:47.402Z,42121,-0.025397299,-0.018350158,-0.65821517
1732440107410,2024-11-24T09:21:47.410Z,42129,-0.026609126,-0.0048921434,-0.6943108
1732440107413,2024-11-24T09:21:47.413Z,42132,-0.026609126,-0.0048921434,-0.6943108
1732440107423,2024-11-24T09:21:47.423Z,42142,0.0011133039,-0.019682353,-0.66013354
1732440107430,2024-11-24T09:21:47.430Z,42149,0.0011133039,-0.019682353,-0.66013354
1732440107442,2024-11-24T09:21:47.442Z,42161,0.005258743,0.006633461,-0.6449532
1732440107445,2024-11-24T09:21:47.445Z,42164,0.005258743,0.006633461,-0.6449532
1732440107452,2024-11-24T09:21:47.452Z,42171,-0.07560377,-0.0053965673,-0.7137722
1732440107456,2024-11-24T09:21:47.456Z,42175,-0.07560377,-0.0053965673,-0.7137722
1732440107463,2024-11-24T09:21:47.463Z,42182,-0.016863313,-0.054523487,-0.6137208
1732440107465,2024-11-24T09:21:47.465Z,42184,-0.016863313,-0.054523487,-0.6137208
1732440107474,2024-11-24T09:21:47.474Z,42193,-0.050084554,-0.014009798,-0.60654104
1732440107477,2024-11-24T09:21:47.477Z,42196,-0.050084554,-0.014009798,-0.60654104
1732440107490,2024-11-24T09:21:47.490Z,42209,-0.023358062,-0.003495083,-0.66217494
1732440107493,2024-11-24T09:21:47.493Z,42212,-0.023358062,-0.003495083,-0.66217494
1732440107500,2024-11-24T09:21:47.500Z,42219,-0.05323195,-0.002230668,-0.67171896
1732440107503,2024-11-24T09:21:47.503Z,42222,-0.05323195,-0.002230668,-0.67171896
1732440107532,2024-11-24T09:21:47.532Z,42251,-0.053939175,-0.017995981,-0.65328175
1732440107535,2024-11-24T09:21:47.535Z,42254,-0.053939175,-0.017995981,-0.65328175
1732440107543,2024-11-24T09:21:47.543Z,42262,-0.06402295,-0.009116487,-0.60892034
1732440107545,2024-11-24T09:21:47.545Z,42264,-0.06402295,-0.009116487,-0.60892034
1732440107554,2024-11-24T09:21:47.554Z,42273,-0.040482253,-0.008970519,-0.63104945
1732440107556,2024-11-24T09:21:47.556Z,42275,-0.040482253,-0.008970519,-0.63104945
1732440107565,2024-11-24T09:21:47.565Z,42284,-0.04410117,-0.0010308258,-0.6780722
1732440107568,2024-11-24T09:21:47.568Z,42287,-0.04410117,-0.0010308258,-0.6780722
1732440107581,2024-11-24T09:21:47.581Z,42300,0.011991355,-0.0071726996,-0.60800534
1732440107584,2024-11-24T09:21:47.584Z,42303,0.011991355,-0.0071726996,-0.60800534
1732440107592,2024-11-24T09:21:47.592Z,42311,0.011915501,0.014392273,-0.58078426
1732440107595,2024-11-24T09:21:47.595Z,42314,0.011915501,0.014392273,-0.58078426
1732440107603,2024-11-24T09:21:47.603Z,42322,-0.0018018057,0.027572352,-0.61650044
1732440107606,2024-11-24T09:21:47.606Z,42325,-0.0018018057,0.027572352,-0.61650044
1732440107631,2024-11-24T09:21:47.631Z,42350,-0.06356956,0.04518644,-0.6536399
1732440107639,2024-11-24T09:21:47.639Z,42358,-0.06356956,0.04518644,-0.6536399
1732440107662,2024-11-24T09:21:47.662Z,42381,-0.07676957,0.05759457,-0.64600164
1732440107670,2024-11-24T09:21:47.670Z,42389,-0.07676957,0.05759457,-0.64600164
1732440107691,2024-11-24T09:21:47.691Z,42410,-0.06620586,0.028552901,-0.6603641
1732440107697,2024-11-24T09:21:47.697Z,42416,-0.06620586,0.028552901,-0.6603641
1732440107716,2024-11-24T09:21:47.716Z,42435,-0.008337497,0.0036226718,-0.5822476
1732440107723,2024-11-24T09:21:47.723Z,42442,-0.008337497,0.0036226718,-0.5822476
1732440107744,2024-11-24T09:21:47.744Z,42463,-0.049585916,0.02618035,-0.61193746
1732440107748,2024-11-24T09:21:47.748Z,42467,-0.049585916,0.02618035,-0.61193746
1732440107762,2024-11-24T09:21:47.762Z,42481,-0.019832006,0.016950957,-0.6291942
1732440107766,2024-11-24T09:21:47.766Z,42485,-0.019832006,0.016950957,-0.6291942
1732440107779,2024-11-24T09:21:47.779Z,42498,0.008228877,0.0140486,-0.6539237
1732440107782,2024-11-24T09:21:47.782Z,42501,0.008228877,0.0140486,-0.6539237
1732440107794,2024-11-24T09:21:47.794Z,42513,-0.0662829,0.023077855,-0.67520255
1732440107797,2024-11-24T09:21:47.797Z,42516,-0.0662829,0.023077855,-0.67520255
1732440107809,2024-11-24T09:21:47.809Z,42528,-0.083266266,-0.012382163,-0.6852918
1732440107812,2024-11-24T09:21:47.812Z,42531,-0.083266266,-0.012382163,-0.6852918
1732440107822,2024-11-24T09:21:47.822Z,42541,-0.0676071,-0.014181926,-0.6313679
1732440107826,2024-11-24T09:21:47.826Z,42545,-0.0676071,-0.014181926,-0.6313679
1732440107835,2024-11-24T09:21:47.835Z,42554,-0.049697656,-0.006923454,-0.5811275
1732440107838,2024-11-24T09:21:47.838Z,42557,-0.049697656,-0.006923454,-0.5811275
1732440107848,2024-11-24T09:21:47.848Z,42567,-0.08019324,0.020756941,-0.6565511
1732440107850,2024-11-24T09:21:47.850Z,42569,-0.08019324,0.020756941,-0.6565511
1732440107858,2024-11-24T09:21:47.858Z,42577,-0.0733913,0.018218484,-0.6513358
1732440107861,2024-11-24T09:21:47.861Z,42580,-0.0733913,0.018218484,-0.6513358
1732440107868,2024-11-24T09:21:47.868Z,42587,-0.050833423,-0.01909702,-0.68384945
1732440107871,2024-11-24T09:21:47.871Z,42590,-0.050833423,-0.01909702,-0.68384945
1732440107878,2024-11-24T09:21:47.878Z,42597,-0.03648226,0.001796068,-0.6404806
1732440107880,2024-11-24T09:21:47.880Z,42599,-0.03648226,0.001796068,-0.6404806
1732440107888,2024-11-24T09:21:47.888Z,42607,-0.06191244,0.026628077,-0.63712704
1732440107891,2024-11-24T09:21:47.891Z,42610,-0.06191244,0.026628077,-0.63712704
1732440107898,2024-11-24T09:21:47.898Z,42617,-0.09459898,0.07008575,-0.5822406
1732440107900,2024-11-24T09:21:47.900Z,42619,-0.09459898,0.07008575,-0.5822406
1732440107909,2024-11-24T09:21:47.909Z,42628,-0.106347315,0.06518524,-0.627046
1732440107912,2024-11-24T09:21:47.912Z,42631,-0.106347315,0.06518524,-0.627046
1732440107920,2024-11-24T09:21:47.920Z,42639,-0.097700916,0.052920844,-0.67672056
1732440107923,2024-11-24T09:21:47.923Z,42642,-0.097700916,0.052920844,-0.67672056
1732440107931,2024-11-24T09:21:47.931Z,42650,-0.061982617,0.091614835,-0.66115034
1732440107935,2024-11-24T09:21:47.935Z,42654,-0.061982617,0.091614835,-0.66115034
1732440107945,2024-11-24T09:21:47.945Z,42664,-0.028125802,0.0716314,-0.6524682
1732440107948,2024-11-24T09:21:47.948Z,42667,-0.028125802,0.0716314,-0.6524682
1732440107957,2024-11-24T09:21:47.957Z,42676,-0.030436287,0.079646364,-0.6378692
1732440107960,2024-11-24T09:21:47.960Z,42679,-0.030436287,0.079646364,-0.6378692
1732440107982,2024-11-24T09:21:47.982Z,42701,-0.08329831,0.057808902,-0.58199775
1732440107985,2024-11-24T09:21:47.985Z,42704,-0.08329831,0.057808902,-0.58199775
1732440107996,2024-11-24T09:21:47.996Z,42715,-0.07198799,0.077061035,-0.5661999
1732440108000,2024-11-24T09:21:48Z,42719,-0.07198799,0.077061035,-0.5661999
1732440108015,2024-11-24T09:21:48.015Z,42734,-0.06329271,0.05742643,-0.65038127
1732440108018,2024-11-24T09:21:48.018Z,42737,-0.06329271,0.05742643,-0.65038127
1732440108028,2024-11-24T09:21:48.028Z,42747,-0.06522127,0.066953205,-0.6759395
1732440108031,2024-11-24T09:21:48.031Z,42750,-0.06522127,0.066953205,-0.6759395
1732440108040,2024-11-24T09:21:48.040Z,42759,-0.044777818,0.035115276,-0.68248844
1732440108043,2024-11-24T09:21:48.043Z,42762,-0.044777818,0.035115276,-0.68248844
1732440108051,2024-11-24T09:21:48.051Z,42770,-0.009664466,0.018945897,-0.58534443
1732440108054,2024-11-24T09:21:48.054Z,42773,-0.009664466,0.018945897,-0.58534443
1732440108120,2024-11-24T09:21:48.120Z,42839,-0.1066894,0.08231212,-0.5793305
1732440108123,2024-11-24T09:21:48.123Z,42842,-0.1066894,0.08231212,-0.5793305
1732440108135,2024-11-24T09:21:48.135Z,42854,-0.008993468,0.002997369,-0.60493284
1732440108139,2024-11-24T09:21:48.139Z,42858,-0.008993468,0.002997369,-0.60493284
1732440108165,2024-11-24T09:21:48.165Z,42884,-0.10933822,0.048147928,-0.62033755
1732440108168,2024-11-24T09:21:48.168Z,42887,-0.10933822,0.048147928,-0.62033755
1732440108214,2024-11-24T09:21:48.214Z,42933,-0.031700566,-0.029210491,-0.649482
1732440108221,2024-11-24T09:21:48.221Z,42940,-0.031700566,-0.029210491,-0.649482
1732440108243,2024-11-24T09:21:48.243Z,42962,-0.03218318,-0.01511599,-0.54082644
1732440108249,2024-11-24T09:21:48.249Z,42968,-0.03218318,-0.01511599,-0.54082644
1732440108269,2024-11-24T09:21:48.269Z,42988,-0.13696134,0.0100968415,-0.6163298
1732440108276,2024-11-24T09:21:48.276Z,42995,-0.13696134,0.0100968415,-0.6163298
1732440108296,2024-11-24T09:21:48.296Z,43015,-0.087555595,0.03646731,-0.61195594
1732440108302,2024-11-24T09:21:48.302Z,43021,-0.087555595,0.03646731,-0.61195594
1732440108317,2024-11-24T09:21:48.317Z,43036,-0.036932833,0.022685364,-0.60076344
1732440108321,2024-11-24T09:21:48.321Z,43040,-0.036932833,0.022685364,-0.60076344
1732440108333,2024-11-24T09:21:48.333Z,43052,-0.03474915,0.032666285,-0.58216923
1732440108337,2024-11-24T09:21:48.337Z,43056,-0.03474915,0.032666285,-0.58216923
1732440108348,2024-11-24T09:21:48.348Z,43067,-0.060604945,0.067618184,-0.55267453
1732440108351,2024-11-24T09:21:48.351Z,43070,-0.060604945,0.067618184,-0.55267453
1732440108364,2024-11-24T09:21:48.364Z,43083,-0.10862594,0.068642005,-0.46817982
1732440108371,2024-11-24T09:21:48.371Z,43090,-0.10862594,0.068642005,-0.46817982
1732440108390,2024-11-24T09:21:48.390Z,43109,-0.1085195,0.070068434,-0.5266839
1732440108396,2024-11-24T09:21:48.396Z,43115,-0.1085195,0.070068434,-0.5266839
1732440108409,2024-11-24T09:21:48.409Z,43128,-0.09656522,0.08608708,-0.5990085
1732440108413,2024-11-24T09:21:48.413Z,43132,-0.09656522,0.08608708,-0.5990085
1732440108423,2024-11-24T09:21:48.423Z,43142,0.009586923,-0.010252729,-0.70751935
1732440108426,2024-11-24T09:21:48.426Z,43145,0.009586923,-0.010252729,-0.70751935
1732440108437,2024-11-24T09:21:48.437Z,43156,0.0015072302,0.015271586,-0.60472697
1732440108440,2024-11-24T09:21:48.440Z,43159,0.0015072302,0.015271586,-0.60472697
1732440108449,2024-11-24T09:21:48.449Z,43168,-0.08826662,0.02233712,-0.5981576
1732440108452,2024-11-24T09:21:48.452Z,43171,-0.08826662,0.02233712,-0.5981576
1732440108461,2024-11-24T09:21:48.461Z,43180,-0.11472117,0.0748644,-0.49639356
1732440108464,2024-11-24T09:21:48.464Z,43183,-0.11472117,0.0748644,-0.49639356
1732440108472,2024-11-24T09:21:48.472Z,43191,-0.010345394,0.09178366,-0.69489753
1732440108475,2024-11-24T09:21:48.475Z,43194,-0.010345394,0.09178366,-0.69489753
1732440108483,2024-11-24T09:21:48.483Z,43202,0.032657716,0.07820428,-0.6280588
1732440108486,2024-11-24T09:21:48.486Z,43205,0.032657716,0.07820428,-0.6280588
1732440108495,2024-11-24T09:21:48.495Z,43214,-0.028093588,0.10582205,-0.5630351
1732440108498,2024-11-24T09:21:48.498Z,43217,-0.028093588,0.10582205,-0.5630351
1732440108524,2024-11-24T09:21:48.524Z,43243,-0.19743219,0.16580112,-0.51476115
1732440108527,2024-11-24T09:21:48.527Z,43246,-0.19743219,0.16580112,-0.51476115
1732440108535,2024-11-24T09:21:48.535Z,43254,-0.17854328,0.13693859,-0.6906549
1732440108538,2024-11-24T09:21:48.538Z,43257,-0.17854328,0.13693859,-0.6906549
1732440108567,2024-11-24T09:21:48.567Z,43286,0.012334803,0.06546784,-0.6459552
1732440108571,2024-11-24T09:21:48.571Z,43290,0.012334803,0.06546784,-0.6459552
1732440108580,2024-11-24T09:21:48.580Z,43299,-0.023572518,0.0948242,-0.6114254
1732440108583,2024-11-24T09:21:48.583Z,43302,-0.023572518,0.0948242,-0.6114254
1732440108591,2024-11-24T09:21:48.591Z,43310,-0.09489613,0.10709103,-0.54087317
1732440108594,2024-11-24T09:21:48.594Z,43313,-0.09489613,0.10709103,-0.54087317
1732440108664,2024-11-24T09:21:48.664Z,43383,-0.14308527,0.116910815,-0.5649287
1732440108670,2024-11-24T09:21:48.670Z,43389,-0.14308527,0.116910815,-0.5649287
1732440108689,2024-11-24T09:21:48.689Z,43408,-0.055969596,0.07393122,-0.56319773
1732440108696,2024-11-24T09:21:48.696Z,43415,-0.055969596,0.07393122,-0.56319773
1732440108717,2024-11-24T09:21:48.717Z,43436,-0.09222887,0.051231164,-0.61323017
1732440108723,2024-11-24T09:21:48.723Z,43442,-0.09222887,0.051231164,-0.61323017
1732440108753,2024-11-24T09:21:48.753Z,43472,-0.07521991,0.02064073,-0.6149209
1732440108759,2024-11-24T09:21:48.759Z,43478,-0.07521991,0.02064073,-0.6149209
1732440108844,2024-11-24T09:21:48.844Z,43563,-0.054683886,0.015444688,-0.63737327
1732440108849,2024-11-24T09:21:48.849Z,43568,-0.054683886,0.015444688,-0.63737327
1732440108871,2024-11-24T09:21:48.871Z,43590,-0.09443784,0.0084151365,-0.632625
1732440108877,2024-11-24T09:21:48.877Z,43596,-0.09443784,0.0084151365,-0.632625
1732440108890,2024-11-24T09:21:48.890Z,43609,-0.11812692,0.04880036,-0.60932654
1732440108893,2024-11-24T09:21:48.893Z,43612,-0.11812692,0.04880036,-0.60932654
1732440108905,2024-11-24T09:21:48.905Z,43624,-0.12445005,0.038121007,-0.6220032
1732440108909,2024-11-24T09:21:48.909Z,43628,-0.12445005,0.038121007,-0.6220032
1732440108922,2024-11-24T09:21:48.922Z,43641,-0.105185635,0.03578531,-0.6148117
1732440108926,2024-11-24T09:21:48.926Z,43645,-0.105185635,0.03578531,-0.6148117
1732440108937,2024-11-24T09:21:48.937Z,43656,-0.017324304,0.035196282,-0.60050327
1732440108944,2024-11-24T09:21:48.944Z,43663,-0.017324304,0.035196282,-0.60050327
1732440108953,2024-11-24T09:21:48.953Z,43672,-0.10942105,0.062972076,-0.57325196
1732440108956,2024-11-24T09:21:48.956Z,43675,-0.10942105,0.062972076,-0.57325196
1732440108964,2024-11-24T09:21:48.964Z,43683,-0.15467653,0.029118106,-0.5097482
1732440108966,2024-11-24T09:21:48.966Z,43685,-0.15467653,0.029118106,-0.5097482
1732440108973,2024-11-24T09:21:48.973Z,43692,-0.20652412,0.04280747,-0.4548939
1732440108976,2024-11-24T09:21:48.976Z,43695,-0.20652412,0.04280747,-0.4548939
1732440109018,2024-11-24T09:21:49.018Z,43737,-0.058762796,0.044185665,-0.6709469
1732440109021,2024-11-24T09:21:49.021Z,43740,-0.058762796,0.044185665,-0.6709469
1732440109030,2024-11-24T09:21:49.030Z,43749,-0.0955128,0.029267576,-0.65153277
1732440109033,2024-11-24T09:21:49.033Z,43752,-0.0955128,0.029267576,-0.65153277
1732440109064,2024-11-24T09:21:49.064Z,43783,-0.13215464,0.071098484,-0.6309041
1732440109067,2024-11-24T09:21:49.067Z,43786,-0.13215464,0.071098484,-0.6309041
1732440109078,2024-11-24T09:21:49.078Z,43797,-0.19012971,0.07208895,-0.53221756
1732440109083,2024-11-24T09:21:49.083Z,43802,-0.19012971,0.07208895,-0.53221756
1732440109096,2024-11-24T09:21:49.096Z,43815,-0.13853331,0.059384413,-0.47977412
1732440109100,2024-11-24T09:21:49.100Z,43819,-0.13853331,0.059384413,-0.47977412
1732440109112,2024-11-24T09:21:49.112Z,43831,-0.11366156,0.032777924,-0.5674086
1732440109115,2024-11-24T09:21:49.115Z,43834,-0.11366156,0.032777924,-0.5674086
1732440109125,2024-11-24T09:21:49.125Z,43844,-0.08327667,0.057812598,-0.72769874
1732440109128,2024-11-24T09:21:49.128Z,43847,-0.08327667,0.057812598,-0.72769874
1732440109137,2024-11-24T09:21:49.137Z,43856,-0.06461098,0.06266555,-0.610945
1732440109140,2024-11-24T09:21:49.140Z,43859,-0.06461098,0.06266555,-0.610945
1732440109154,2024-11-24T09:21:49.154Z,43873,-0.0069257393,0.054228146,-0.5754181
1732440109157,2024-11-24T09:21:49.157Z,43876,-0.0069257393,0.054228146,-0.5754181
1732440109165,2024-11-24T09:21:49.165Z,43884,-0.06816933,0.065987825,-0.5531457
1732440109167,2024-11-24T09:21:49.167Z,43886,-0.06816933,0.065987825,-0.5531457
1732440109176,2024-11-24T09:21:49.176Z,43895,-0.09141067,0.04807217,-0.5363489
1732440109178,2024-11-24T09:21:49.178Z,43897,-0.09141067,0.04807217,-0.5363489
1732440109197,2024-11-24T09:21:49.197Z,43916,-0.14492038,0.042280193,-0.4583686
1732440109200,2024-11-24T09:21:49.200Z,43919,-0.14492038,0.042280193,-0.4583686
1732440109209,2024-11-24T09:21:49.209Z,43928,-0.029313525,0.004684228,-0.63940424
1732440109212,2024-11-24T09:21:49.212Z,43931,-0.029313525,0.004684228,-0.63940424
1732440109219,2024-11-24T09:21:49.219Z,43938,-0.01846046,-0.013820553,-0.69630545
1732440109222,2024-11-24T09:21:49.222Z,43941,-0.01846046,-0.013820553,-0.69630545
1732440109230,2024-11-24T09:21:49.230Z,43949,0.005162152,0.0022857103,-0.65865666
1732440109232,2024-11-24T09:21:49.232Z,43951,0.005162152,0.0022857103,-0.65865666
1732440109289,2024-11-24T09:21:49.289Z,44008,-0.14293703,0.026876157,-0.50493556
1732440109292,2024-11-24T09:21:49.292Z,44011,-0.14293703,0.026876157,-0.50493556
1732440109302,2024-11-24T09:21:49.302Z,44021,-0.14036986,0.052296612,-0.50716895
1732440109304,2024-11-24T09:21:49.304Z,44023,-0.14036986,0.052296612,-0.50716895
1732440109313,2024-11-24T09:21:49.313Z,44032,-0.10649806,0.03911935,-0.58904445
1732440109316,2024-11-24T09:21:49.316Z,44035,-0.10649806,0.03911935,-0.58904445
1732440109326,2024-11-24T09:21:49.326Z,44045,-0.050534703,0.030905519,-0.6412346
1732440109329,2024-11-24T09:21:49.329Z,44048,-0.050534703,0.030905519,-0.6412346
1732440109381,2024-11-24T09:21:49.381Z,44100,0.024734251,0.022294233,-0.6777922
1732440109385,2024-11-24T09:21:49.385Z,44104,0.024734251,0.022294233,-0.6777922
1732440109396,2024-11-24T09:21:49.396Z,44115,-0.024647385,0.036704693,-0.65439427
1732440109399,2024-11-24T09:21:49.399Z,44118,-0.024647385,0.036704693,-0.65439427
1732440109411,2024-11-24T09:21:49.411Z,44130,-0.026909925,0.0053573768,-0.5563529
1732440109415,2024-11-24T09:21:49.415Z,44134,-0.026909925,0.0053573768,-0.5563529
1732440109431,2024-11-24T09:21:49.431Z,44150,-0.06530664,8.0025144E-4,-0.57144344
1732440109440,2024-11-24T09:21:49.440Z,44159,-0.06530664,8.0025144E-4,-0.57144344
1732440109462,2024-11-24T09:21:49.462Z,44181,-0.12732413,0.02609448,-0.5032178
1732440109469,2024-11-24T09:21:49.469Z,44188,-0.12732413,0.02609448,-0.5032178
1732440109489,2024-11-24T09:21:49.489Z,44208,-0.21325257,0.0556502,-0.49459755
1732440109495,2024-11-24T09:21:49.495Z,44214,-0.21325257,0.0556502,-0.49459755
1732440109511,2024-11-24T09:21:49.511Z,44230,-0.1636328,0.009594362,-0.49104184
1732440109514,2024-11-24T09:21:49.514Z,44233,-0.1636328,0.009594362,-0.49104184
1732440109526,2024-11-24T09:21:49.526Z,44245,-0.17131977,0.011176777,-0.50535756
1732440109530,2024-11-24T09:21:49.530Z,44249,-0.17131977,0.011176777,-0.50535756
1732440109540,2024-11-24T09:21:49.540Z,44259,-0.089650385,0.0024624094,-0.6006585
1732440109544,2024-11-24T09:21:49.544Z,44263,-0.089650385,0.0024624094,-0.6006585
1732440109553,2024-11-24T09:21:49.553Z,44272,-0.17131583,0.0043799398,-0.60961264
1732440109557,2024-11-24T09:21:49.557Z,44276,-0.17131583,0.0043799398,-0.60961264
1732440109566,2024-11-24T09:21:49.566Z,44285,-0.12981944,-0.009119015,-0.5978974
1732440109568,2024-11-24T09:21:49.568Z,44287,-0.12981944,-0.009119015,-0.5978974
1732440109576,2024-11-24T09:21:49.576Z,44295,-0.06974554,-0.019334013,-0.5578619
1732440109579,2024-11-24T09:21:49.579Z,44298,-0.06974554,-0.019334013,-0.5578619
1732440109654,2024-11-24T09:21:49.654Z,44373,-0.10101382,0.03642209,-0.58472466
1732440109657,2024-11-24T09:21:49.657Z,44376,-0.10101382,0.03642209,-0.58472466
1732440109669,2024-11-24T09:21:49.669Z,44388,-0.080262855,0.022577224,-0.63402957
1732440109673,2024-11-24T09:21:49.673Z,44392,-0.080262855,0.022577224,-0.63402957
1732440109687,2024-11-24T09:21:49.687Z,44406,-0.116205975,0.026511477,-0.6459845
1732440109691,2024-11-24T09:21:49.691Z,44410,-0.116205975,0.026511477,-0.6459845
1732440109705,2024-11-24T09:21:49.705Z,44424,-0.06612874,0.01721722,-0.5427717
1732440109709,2024-11-24T09:21:49.709Z,44428,-0.06612874,0.01721722,-0.5427717
1732440109726,2024-11-24T09:21:49.726Z,44445,-0.113362,0.037662,-0.5069791
1732440109729,2024-11-24T09:21:49.729Z,44448,-0.113362,0.037662,-0.5069791
1732440109740,2024-11-24T09:21:49.740Z,44459,-0.20860817,0.07375189,-0.4599443
1732440109744,2024-11-24T09:21:49.744Z,44463,-0.20860817,0.07375189,-0.4599443
1732440109788,2024-11-24T09:21:49.788Z,44507,-0.13826396,-0.030730667,-0.62301236
1732440109792,2024-11-24T09:21:49.792Z,44511,-0.13826396,-0.030730667,-0.62301236
1732440109803,2024-11-24T09:21:49.803Z,44522,-0.10611653,-0.039305486,-0.61187214
1732440109807,2024-11-24T09:21:49.807Z,44526,-0.10611653,-0.039305486,-0.61187214
1732440109828,2024-11-24T09:21:49.828Z,44547,-0.16089907,-0.011302713,-0.52520144
1732440109832,2024-11-24T09:21:49.832Z,44551,-0.16089907,-0.011302713,-0.52520144
1732440109844,2024-11-24T09:21:49.844Z,44563,-0.15481709,0.010432054,-0.49280426
1732440109848,2024-11-24T09:21:49.848Z,44567,-0.15481709,0.010432054,-0.49280426
1732440109859,2024-11-24T09:21:49.859Z,44578,-0.14808248,0.019760542,-0.5924373
1732440109862,2024-11-24T09:21:49.862Z,44581,-0.14808248,0.019760542,-0.5924373
1732440109873,2024-11-24T09:21:49.873Z,44592,-0.09231913,-0.0024836094,-0.6217836
1732440109876,2024-11-24T09:21:49.876Z,44595,-0.09231913,-0.0024836094,-0.6217836
1732440109886,2024-11-24T09:21:49.886Z,44605,-0.14706217,-1.9391194E-4,-0.5824112
1732440109889,2024-11-24T09:21:49.889Z,44608,-0.14706217,-1.9391194E-4,-0.5824112
1732440109897,2024-11-24T09:21:49.897Z,44616,-0.19475067,0.0076472685,-0.61152506
1732440109900,2024-11-24T09:21:49.900Z,44619,-0.19475067,0.0076472685,-0.61152506
1732440109917,2024-11-24T09:21:49.917Z,44636,-0.1247301,-0.02738904,-0.6681591
1732440109919,2024-11-24T09:21:49.919Z,44638,-0.1247301,-0.02738904,-0.6681591
1732440109929,2024-11-24T09:21:49.929Z,44648,-0.19185774,-0.025605032,-0.56386685
1732440109931,2024-11-24T09:21:49.931Z,44650,-0.19185774,-0.025605032,-0.56386685
1732440109939,2024-11-24T09:21:49.939Z,44658,-0.20700659,-0.028100409,-0.51557875
1732440109942,2024-11-24T09:21:49.942Z,44661,-0.20700659,-0.028100409,-0.51557875
1732440109965,2024-11-24T09:21:49.965Z,44684,-0.19619316,-0.023895513,-0.5565438
1732440109971,2024-11-24T09:21:49.971Z,44690,-0.19619316,-0.023895513,-0.5565438
1732440110015,2024-11-24T09:21:50.015Z,44734,-0.17511201,-0.032793194,-0.69317085
1732440110021,2024-11-24T09:21:50.021Z,44740,-0.17511201,-0.032793194,-0.69317085
1732440110041,2024-11-24T09:21:50.041Z,44760,-0.08617296,-0.052015956,-0.6714127
1732440110047,2024-11-24T09:21:50.047Z,44766,-0.08617296,-0.052015956,-0.6714127
1732440110062,2024-11-24T09:21:50.062Z,44781,-0.19386265,-0.026072599,-0.6473856
1732440110066,2024-11-24T09:21:50.066Z,44785,-0.19386265,-0.026072599,-0.6473856
1732440110078,2024-11-24T09:21:50.078Z,44797,-0.24802223,-0.029199598,-0.5125495
1732440110082,2024-11-24T09:21:50.082Z,44801,-0.24802223,-0.029199598,-0.5125495
1732440110093,2024-11-24T09:21:50.093Z,44812,-0.20492223,-0.041551616,-0.47960442
1732440110096,2024-11-24T09:21:50.096Z,44815,-0.20492223,-0.041551616,-0.47960442
1732440110107,2024-11-24T09:21:50.107Z,44826,-0.197462,-0.029656079,-0.5703793
1732440110111,2024-11-24T09:21:50.111Z,44830,-0.197462,-0.029656079,-0.5703793
1732440110144,2024-11-24T09:21:50.144Z,44863,-0.096050635,-0.07151295,-0.7017487
1732440110148,2024-11-24T09:21:50.148Z,44867,-0.096050635,-0.07151295,-0.7017487
1732440110159,2024-11-24T09:21:50.159Z,44878,-0.21698302,0.0072071254,-0.54179096
1732440110163,2024-11-24T09:21:50.163Z,44882,-0.21698302,0.0072071254,-0.54179096
1732440110173,2024-11-24T09:21:50.173Z,44892,-0.17523637,-0.006941639,-0.5756019
1732440110177,2024-11-24T09:21:50.177Z,44896,-0.17523637,-0.006941639,-0.5756019
1732440110237,2024-11-24T09:21:50.237Z,44956,-0.18366157,0.002338905,-0.61180717
1732440110243,2024-11-24T09:21:50.243Z,44962,-0.18366157,0.002338905,-0.61180717
1732440110262,2024-11-24T09:21:50.262Z,44981,-0.08398007,-0.04015008,-0.65511626
1732440110265,2024-11-24T09:21:50.265Z,44984,-0.08398007,-0.04015008,-0.65511626
1732440110281,2024-11-24T09:21:50.281Z,45000,-0.081798464,-0.053305946,-0.5981415
1732440110284,2024-11-24T09:21:50.284Z,45003,-0.081798464,-0.053305946,-0.5981415
1732440110296,2024-11-24T09:21:50.296Z,45015,-0.12393565,-0.04889294,-0.56520563
1732440110300,2024-11-24T09:21:50.300Z,45019,-0.12393565,-0.04889294,-0.56520563
1732440110312,2024-11-24T09:21:50.312Z,45031,-0.1391531,-0.04902267,-0.5630124
1732440110315,2024-11-24T09:21:50.315Z,45034,-0.1391531,-0.04902267,-0.5630124
1732440110327,2024-11-24T09:21:50.327Z,45046,-0.13901459,-0.07856993,-0.52413553
1732440110331,2024-11-24T09:21:50.331Z,45050,-0.13901459,-0.07856993,-0.52413553
1732440110342,2024-11-24T09:21:50.342Z,45061,-0.15966746,-0.06810433,-0.5376313
1732440110344,2024-11-24T09:21:50.344Z,45063,-0.15966746,-0.06810433,-0.5376313
1732440110353,2024-11-24T09:21:50.353Z,45072,-0.18246786,-0.066287346,-0.5262687
1732440110356,2024-11-24T09:21:50.356Z,45075,-0.18246786,-0.066287346,-0.5262687
1732440110365,2024-11-24T09:21:50.365Z,45084,-0.18057562,-0.074186005,-0.554196
1732440110367,2024-11-24T09:21:50.367Z,45086,-0.18057562,-0.074186005,-0.554196
1732440110415,2024-11-24T09:21:50.415Z,45134,-0.17923746,-0.0665648,-0.57453907
1732440110417,2024-11-24T09:21:50.417Z,45136,-0.17923746,-0.0665648,-0.57453907
1732440110426,2024-11-24T09:21:50.426Z,45145,-0.14923666,-0.06649653,-0.6337472
1732440110428,2024-11-24T09:21:50.428Z,45147,-0.14923666,-0.06649653,-0.6337472
1732440110438,2024-11-24T09:21:50.438Z,45157,-0.08291078,-0.08174905,-0.5990022
1732440110441,2024-11-24T09:21:50.441Z,45160,-0.08291078,-0.08174905,-0.5990022
1732440110452,2024-11-24T09:21:50.452Z,45171,-0.1290264,-0.08668301,-0.61967677
1732440110455,2024-11-24T09:21:50.455Z,45174,-0.1290264,-0.08668301,-0.61967677
1732440110510,2024-11-24T09:21:50.510Z,45229,-0.14741004,-0.048793264,-0.56650734
1732440110515,2024-11-24T09:21:50.515Z,45234,-0.14741004,-0.048793264,-0.56650734
1732440110530,2024-11-24T09:21:50.530Z,45249,-0.13960338,-0.05597423,-0.587429
1732440110533,2024-11-24T09:21:50.533Z,45252,-0.13960338,-0.05597423,-0.587429
1732440110545,2024-11-24T09:21:50.545Z,45264,-0.13465694,-0.057523288,-0.6057918
1732440110549,2024-11-24T09:21:50.549Z,45268,-0.13465694,-0.057523288,-0.6057918
1732440110561,2024-11-24T09:21:50.561Z,45280,-0.13371086,-0.077905536,-0.5454896
1732440110565,2024-11-24T09:21:50.565Z,45284,-0.13371086,-0.077905536,-0.5454896
1732440110578,2024-11-24T09:21:50.578Z,45297,-0.13336687,-0.08967834,-0.57688785
1732440110582,2024-11-24T09:21:50.582Z,45301,-0.13336687,-0.08967834,-0.57688785
1732440110594,2024-11-24T09:21:50.594Z,45313,-0.11295825,-0.09701831,-0.5915882
1732440110598,2024-11-24T09:21:50.598Z,45317,-0.11295825,-0.09701831,-0.5915882
1732440110608,2024-11-24T09:21:50.608Z,45327,-0.045300964,-0.18009907,-0.58876646
1732440110611,2024-11-24T09:21:50.611Z,45330,-0.045300964,-0.18009907,-0.58876646
1732440110626,2024-11-24T09:21:50.626Z,45345,-0.12658113,-0.053967815,-0.5988466
1732440110629,2024-11-24T09:21:50.629Z,45348,-0.12658113,-0.053967815,-0.5988466
1732440110637,2024-11-24T09:21:50.637Z,45356,-0.15445529,-0.13623841,-0.614511
1732440110639,2024-11-24T09:21:50.639Z,45358,-0.15445529,-0.13623841,-0.614511
1732440110647,2024-11-24T09:21:50.647Z,45366,-0.12424396,-0.16312906,-0.5768166
1732440110649,2024-11-24T09:21:50.649Z,45368,-0.12424396,-0.16312906,-0.5768166
1732440110655,2024-11-24T09:21:50.655Z,45374,-0.13472551,-0.15292747,-0.56999093
1732440110657,2024-11-24T09:21:50.657Z,45376,-0.13472551,-0.15292747,-0.56999093
1732440110686,2024-11-24T09:21:50.686Z,45405,-0.14327948,-0.15835303,-0.6066182
1732440110693,2024-11-24T09:21:50.693Z,45412,-0.14327948,-0.15835303,-0.6066182
1732440110717,2024-11-24T09:21:50.717Z,45436,-0.23142573,-0.15978666,-0.6111968
1732440110726,2024-11-24T09:21:50.726Z,45445,-0.23142573,-0.15978666,-0.6111968
1732440110777,2024-11-24T09:21:50.777Z,45496,-0.15380743,-0.19707045,-0.6084661
1732440110784,2024-11-24T09:21:50.784Z,45503,-0.15380743,-0.19707045,-0.6084661
1732440110821,2024-11-24T09:21:50.821Z,45540,-0.22079778,-0.18025224,-0.6219909
1732440110828,2024-11-24T09:21:50.828Z,45547,-0.22079778,-0.18025224,-0.6219909
1732440110849,2024-11-24T09:21:50.849Z,45568,-0.20334402,-0.23283865,-0.6736326
1732440110853,2024-11-24T09:21:50.853Z,45572,-0.20334402,-0.23283865,-0.6736326
1732440110864,2024-11-24T09:21:50.864Z,45583,-0.20940658,-0.25214106,-0.6703214
1732440110868,2024-11-24T09:21:50.868Z,45587,-0.20940658,-0.25214106,-0.6703214
1732440110912,2024-11-24T09:21:50.912Z,45631,-0.20726582,-0.2723999,-0.6844532
1732440110919,2024-11-24T09:21:50.919Z,45638,-0.20726582,-0.2723999,-0.6844532
1732440110937,2024-11-24T09:21:50.937Z,45656,-0.29308686,-0.26016963,-0.62490606
1732440110941,2024-11-24T09:21:50.941Z,45660,-0.29308686,-0.26016963,-0.62490606
1732440110953,2024-11-24T09:21:50.953Z,45672,-0.22981675,-0.2953488,-0.6675306
1732440110957,2024-11-24T09:21:50.957Z,45676,-0.22981675,-0.2953488,-0.6675306
1732440110969,2024-11-24T09:21:50.969Z,45688,-0.11647518,-0.20507404,-0.54970086
1732440110972,2024-11-24T09:21:50.972Z,45691,-0.11647518,-0.20507404,-0.54970086
1732440110987,2024-11-24T09:21:50.987Z,45706,-0.16459416,-0.18019369,-0.55238706
1732440110995,2024-11-24T09:21:50.995Z,45714,-0.16459416,-0.18019369,-0.55238706
1732440111014,2024-11-24T09:21:51.014Z,45733,-0.11633524,-0.18407242,-0.5449348
1732440111021,2024-11-24T09:21:51.021Z,45740,-0.11633524,-0.18407242,-0.5449348
1732440111046,2024-11-24T09:21:51.046Z,45765,-0.052867237,-0.12710276,-0.55682003
1732440111052,2024-11-24T09:21:51.052Z,45771,-0.052867237,-0.12710276,-0.55682003
1732440111070,2024-11-24T09:21:51.070Z,45789,-0.09390407,-0.13056304,-0.5150333
1732440111074,2024-11-24T09:21:51.074Z,45793,-0.09390407,-0.13056304,-0.5150333
1732440111135,2024-11-24T09:21:51.135Z,45854,-0.1270989,-0.113187104,-0.5478028
1732440111141,2024-11-24T09:21:51.141Z,45860,-0.1270989,-0.113187104,-0.5478028
1732440111160,2024-11-24T09:21:51.160Z,45879,-0.021798307,-0.11859067,-0.5215394
1732440111166,2024-11-24T09:21:51.166Z,45885,-0.021798307,-0.11859067,-0.5215394
1732440111182,2024-11-24T09:21:51.182Z,45901,-0.0067123533,-0.10561938,-0.46123502
1732440111184,2024-11-24T09:21:51.184Z,45903,-0.0067123533,-0.10561938,-0.46123502
1732440111196,2024-11-24T09:21:51.196Z,45915,-0.05788009,-0.08052801,-0.49026623
1732440111203,2024-11-24T09:21:51.203Z,45922,-0.05788009,-0.08052801,-0.49026623
1732440111222,2024-11-24T09:21:51.222Z,45941,0.027037272,-0.030817704,-0.4900472
1732440111228,2024-11-24T09:21:51.228Z,45947,0.027037272,-0.030817704,-0.4900472
1732440111245,2024-11-24T09:21:51.245Z,45964,0.033291187,-0.029595591,-0.49812943
1732440111251,2024-11-24T09:21:51.251Z,45970,0.033291187,-0.029595591,-0.49812943
1732440111270,2024-11-24T09:21:51.270Z,45989,0.07727236,0.03696201,-0.5214624
1732440111275,2024-11-24T09:21:51.275Z,45994,0.07727236,0.03696201,-0.5214624
1732440111294,2024-11-24T09:21:51.294Z,46013,0.15839249,-0.0026843287,-0.52850145
1732440111300,2024-11-24T09:21:51.300Z,46019,0.15839249,-0.0026843287,-0.52850145
1732440111312,2024-11-24T09:21:51.312Z,46031,0.14484602,0.016851375,-0.56971765
1732440111316,2024-11-24T09:21:51.316Z,46035,0.14484602,0.016851375,-0.56971765
1732440111327,2024-11-24T09:21:51.327Z,46046,0.093864016,0.06440911,-0.5153929
1732440111330,2024-11-24T09:21:51.330Z,46049,0.093864016,0.06440911,-0.5153929
1732440111339,2024-11-24T09:21:51.339Z,46058,0.1074562,0.05437645,-0.5616593
1732440111341,2024-11-24T09:21:51.341Z,46060,0.1074562,0.05437645,-0.5616593
1732440111357,2024-11-24T09:21:51.357Z,46076,0.15927549,0.058556058,-0.52412456
1732440111360,2024-11-24T09:21:51.360Z,46079,0.15927549,0.058556058,-0.52412456
1732440111368,2024-11-24T09:21:51.368Z,46087,0.05201413,0.1212008,-0.5681944
1732440111370,2024-11-24T09:21:51.370Z,46089,0.05201413,0.1212008,-0.5681944
1732440111378,2024-11-24T09:21:51.378Z,46097,0.119761325,0.11956451,-0.6481957
1732440111380,2024-11-24T09:21:51.380Z,46099,0.119761325,0.11956451,-0.6481957
1732440111403,2024-11-24T09:21:51.403Z,46122,0.07428957,0.12833771,-0.5360544
1732440111407,2024-11-24T09:21:51.407Z,46126,0.07428957,0.12833771,-0.5360544
1732440111416,2024-11-24T09:21:51.416Z,46135,0.078264534,0.19566984,-0.54851
1732440111419,2024-11-24T09:21:51.419Z,46138,0.078264534,0.19566984,-0.54851
1732440111427,2024-11-24T09:21:51.427Z,46146,0.011615291,0.23727664,-0.5622072
1732440111430,2024-11-24T09:21:51.430Z,46149,0.011615291,0.23727664,-0.5622072
1732440111448,2024-11-24T09:21:51.448Z,46167,0.018208103,0.26862764,-0.6240805
1732440111451,2024-11-24T09:21:51.451Z,46170,0.018208103,0.26862764,-0.6240805
1732440111459,2024-11-24T09:21:51.459Z,46178,-0.10745036,0.29775184,-0.5863697
1732440111462,2024-11-24T09:21:51.462Z,46181,-0.10745036,0.29775184,-0.5863697
1732440111471,2024-11-24T09:21:51.471Z,46190,-0.10913393,0.29006478,-0.43960014
1732440111474,2024-11-24T09:21:51.474Z,46193,-0.10913393,0.29006478,-0.43960014
1732440111589,2024-11-24T09:21:51.589Z,46308,0.009493881,0.25778034,-0.71387154
1732440111595,2024-11-24T09:21:51.595Z,46314,0.009493881,0.25778034,-0.71387154
1732440111613,2024-11-24T09:21:51.613Z,46332,0.100159034,0.23544897,-0.7241973
1732440111619,2024-11-24T09:21:51.619Z,46338,0.100159034,0.23544897,-0.7241973
1732440111634,2024-11-24T09:21:51.634Z,46353,0.03052055,0.25924373,-0.73640734
1732440111637,2024-11-24T09:21:51.637Z,46356,0.03052055,0.25924373,-0.73640734
1732440111649,2024-11-24T09:21:51.649Z,46368,-0.06728562,0.2559172,-0.75053924
1732440111652,2024-11-24T09:21:51.652Z,46371,-0.06728562,0.2559172,-0.75053924
1732440111662,2024-11-24T09:21:51.662Z,46381,-0.083013386,0.23679857,-0.6961605
1732440111665,2024-11-24T09:21:51.665Z,46384,-0.083013386,0.23679857,-0.6961605
1732440111676,2024-11-24T09:21:51.676Z,46395,-0.040789984,0.22776917,-0.6201489
1732440111678,2024-11-24T09:21:51.678Z,46397,-0.040789984,0.22776917,-0.6201489
1732440111720,2024-11-24T09:21:51.720Z,46439,-0.02754589,0.15491998,-0.7229643
1732440111724,2024-11-24T09:21:51.724Z,46443,-0.02754589,0.15491998,-0.7229643
1732440111735,2024-11-24T09:21:51.735Z,46454,0.03334457,0.14373484,-0.6662635
1732440111739,2024-11-24T09:21:51.739Z,46458,0.03334457,0.14373484,-0.6662635
1732440111751,2024-11-24T09:21:51.751Z,46470,-0.0035566771,0.11389438,-0.6480544
1732440111754,2024-11-24T09:21:51.754Z,46473,-0.0035566771,0.11389438,-0.6480544
1732440111772,2024-11-24T09:21:51.772Z,46491,-0.16769575,0.18604252,-0.4939967
1732440111781,2024-11-24T09:21:51.781Z,46500,-0.16769575,0.18604252,-0.4939967
1732440111860,2024-11-24T09:21:51.860Z,46579,-0.28035742,0.20417756,-0.66929424
1732440111868,2024-11-24T09:21:51.868Z,46587,-0.28035742,0.20417756,-0.66929424
1732440111893,2024-11-24T09:21:51.893Z,46612,-0.18936048,0.15805389,-0.6369011
1732440111900,2024-11-24T09:21:51.900Z,46619,-0.18936048,0.15805389,-0.6369011
1732440111920,2024-11-24T09:21:51.920Z,46639,-0.061506007,0.09103845,-0.5363944
1732440111925,2024-11-24T09:21:51.925Z,46644,-0.061506007,0.09103845,-0.5363944
1732440111937,2024-11-24T09:21:51.937Z,46656,-0.18458387,0.047188677,-0.55037355
1732440111940,2024-11-24T09:21:51.940Z,46659,-0.18458387,0.047188677,-0.55037355
1732440111952,2024-11-24T09:21:51.952Z,46671,-0.12313452,0.043501433,-0.56149626
1732440111955,2024-11-24T09:21:51.955Z,46674,-0.12313452,0.043501433,-0.56149626
1732440111965,2024-11-24T09:21:51.965Z,46684,0.06713837,-0.008522887,-0.5928219
1732440111968,2024-11-24T09:21:51.968Z,46687,0.06713837,-0.008522887,-0.5928219
1732440111977,2024-11-24T09:21:51.977Z,46696,-0.11613557,8.1882573E-4,-0.57080907
1732440111980,2024-11-24T09:21:51.980Z,46699,-0.11613557,8.1882573E-4,-0.57080907
1732440111989,2024-11-24T09:21:51.989Z,46708,-0.040884495,-0.07522276,-0.4894227
1732440111991,2024-11-24T09:21:51.991Z,46710,-0.040884495,-0.07522276,-0.4894227
1732440111999,2024-11-24T09:21:51.999Z,46718,-0.057611052,-0.039902586,-0.5340713
1732440112001,2024-11-24T09:21:52.001Z,46720,-0.057611052,-0.039902586,-0.5340713
1732440112008,2024-11-24T09:21:52.008Z,46727,-0.024935165,-0.027816348,-0.6020603
1732440112011,2024-11-24T09:21:52.011Z,46730,-0.024935165,-0.027816348,-0.6020603
1732440112018,2024-11-24T09:21:52.018Z,46737,-0.08061764,-0.01706075,-0.5841716
1732440112020,2024-11-24T09:21:52.020Z,46739,-0.08061764,-0.01706075,-0.5841716
1732440112027,2024-11-24T09:21:52.027Z,46746,-0.13416179,0.020182401,-0.5711806
1732440112030,2024-11-24T09:21:52.030Z,46749,-0.13416179,0.020182401,-0.5711806
1732440112086,2024-11-24T09:21:52.086Z,46805,-0.10516915,0.013668555,-0.5208987
1732440112092,2024-11-24T09:21:52.092Z,46811,-0.10516915,0.013668555,-0.5208987
1732440112112,2024-11-24T09:21:52.112Z,46831,-0.0370189,-0.00186278,-0.5704524
1732440112116,2024-11-24T09:21:52.116Z,46835,-0.0370189,-0.00186278,-0.5704524
1732440112128,2024-11-24T09:21:52.128Z,46847,0.032457057,-0.004714861,-0.56495833
1732440112132,2024-11-24T09:21:52.132Z,46851,0.032457057,-0.004714861,-0.56495833
1732440112148,2024-11-24T09:21:52.148Z,46867,0.0019678683,0.0032448645,-0.53696346
1732440112155,2024-11-24T09:21:52.155Z,46874,0.0019678683,0.0032448645,-0.53696346
1732440112176,2024-11-24T09:21:52.176Z,46895,-0.061867367,0.01768479,-0.5538938
1732440112183,2024-11-24T09:21:52.183Z,46902,-0.061867367,0.01768479,-0.5538938
1732440112202,2024-11-24T09:21:52.202Z,46921,-0.1007158,0.029269034,-0.56321794
1732440112208,2024-11-24T09:21:52.208Z,46927,-0.1007158,0.029269034,-0.56321794
1732440112227,2024-11-24T09:21:52.227Z,46946,-0.058450278,-0.006741017,-0.582107
1732440112232,2024-11-24T09:21:52.232Z,46951,-0.058450278,-0.006741017,-0.582107
1732440112246,2024-11-24T09:21:52.246Z,46965,-0.065510474,-0.00931565,-0.5806093
1732440112249,2024-11-24T09:21:52.249Z,46968,-0.065510474,-0.00931565,-0.5806093
1732440112264,2024-11-24T09:21:52.264Z,46983,-0.051359303,-0.037783947,-0.5702141
1732440112267,2024-11-24T09:21:52.267Z,46986,-0.051359303,-0.037783947,-0.5702141
1732440112277,2024-11-24T09:21:52.277Z,46996,-0.041977424,-0.040521957,-0.5997137
1732440112280,2024-11-24T09:21:52.280Z,46999,-0.041977424,-0.040521957,-0.5997137
1732440112290,2024-11-24T09:21:52.290Z,47009,0.005070058,-0.027043909,-0.5734764
1732440112293,2024-11-24T09:21:52.293Z,47012,0.005070058,-0.027043909,-0.5734764
1732440112302,2024-11-24T09:21:52.302Z,47021,-0.037605,0.016731858,-0.5675671
1732440112305,2024-11-24T09:21:52.305Z,47024,-0.037605,0.016731858,-0.5675671
1732440112313,2024-11-24T09:21:52.313Z,47032,0.02575585,-0.005204406,-0.5658438
1732440112316,2024-11-24T09:21:52.316Z,47035,0.02575585,-0.005204406,-0.5658438
1732440112323,2024-11-24T09:21:52.323Z,47042,0.0060981247,0.0013235414,-0.5892967
1732440112325,2024-11-24T09:21:52.325Z,47044,0.0060981247,0.0013235414,-0.5892967
1732440112333,2024-11-24T09:21:52.333Z,47052,-0.025239028,0.020558264,-0.6369047
1732440112336,2024-11-24T09:21:52.336Z,47055,-0.025239028,0.020558264,-0.6369047
1732440112353,2024-11-24T09:21:52.353Z,47072,-0.02613451,0.051816307,-0.612168
1732440112359,2024-11-24T09:21:52.359Z,47078,-0.02613451,0.051816307,-0.612168
1732440112372,2024-11-24T09:21:52.372Z,47091,-0.022196172,0.058278706,-0.5759274
1732440112374,2024-11-24T09:21:52.374Z,47093,-0.022196172,0.058278706,-0.5759274
1732440112381,2024-11-24T09:21:52.381Z,47100,-0.04013423,0.061237372,-0.58844143
1732440112384,2024-11-24T09:21:52.384Z,47103,-0.04013423,0.061237372,-0.58844143
1732440112393,2024-11-24T09:21:52.393Z,47112,0.015389037,0.061428465,-0.58883834
1732440112396,2024-11-24T09:21:52.396Z,47115,0.015389037,0.061428465,-0.58883834
1732440112410,2024-11-24T09:21:52.410Z,47129,-0.01128911,0.07578913,-0.622823
1732440112413,2024-11-24T09:21:52.413Z,47132,-0.01128911,0.07578913,-0.622823
1732440112438,2024-11-24T09:21:52.438Z,47157,0.011251329,0.06275677,-0.6716948
1732440112441,2024-11-24T09:21:52.441Z,47160,0.011251329,0.06275677,-0.6716948
1732440112449,2024-11-24T09:21:52.449Z,47168,-0.055571184,0.018028852,-0.65264714
1732440112452,2024-11-24T09:21:52.452Z,47171,-0.055571184,0.018028852,-0.65264714
1732440112482,2024-11-24T09:21:52.482Z,47201,-0.049699817,0.01802467,-0.6700288
1732440112485,2024-11-24T09:21:52.485Z,47204,-0.049699817,0.01802467,-0.6700288
1732440112535,2024-11-24T09:21:52.535Z,47254,-0.050689302,0.0077374172,-0.69402
1732440112541,2024-11-24T09:21:52.541Z,47260,-0.050689302,0.0077374172,-0.69402
1732440112562,2024-11-24T09:21:52.562Z,47281,0.018837333,5.7201105E-4,-0.593464
1732440112567,2024-11-24T09:21:52.567Z,47286,0.018837333,5.7201105E-4,-0.593464
1732440112580,2024-11-24T09:21:52.580Z,47299,-0.038671516,-0.014814911,-0.5964774
1732440112584,2024-11-24T09:21:52.584Z,47303,-0.038671516,-0.014814911,-0.5964774
1732440112595,2024-11-24T09:21:52.595Z,47314,-0.056235813,-0.005762413,-0.6105627
1732440112599,2024-11-24T09:21:52.599Z,47318,-0.056235813,-0.005762413,-0.6105627
1732440112614,2024-11-24T09:21:52.614Z,47333,-0.032628506,-0.028986335,-0.676228
1732440112620,2024-11-24T09:21:52.620Z,47339,-0.032628506,-0.028986335,-0.676228
1732440112641,2024-11-24T09:21:52.641Z,47360,-0.001679541,0.002096369,-0.61106473
1732440112647,2024-11-24T09:21:52.647Z,47366,-0.001679541,0.002096369,-0.61106473
1732440112669,2024-11-24T09:21:52.669Z,47388,-0.015091739,0.04855384,-0.60017264
1732440112675,2024-11-24T09:21:52.675Z,47394,-0.015091739,0.04855384,-0.60017264
1732440112694,2024-11-24T09:21:52.694Z,47413,0.011827753,0.068978,-0.6237227
1732440112700,2024-11-24T09:21:52.700Z,47419,0.011827753,0.068978,-0.6237227
1732440112719,2024-11-24T09:21:52.719Z,47438,-0.01825494,0.09807043,-0.58787227
1732440112725,2024-11-24T09:21:52.725Z,47444,-0.01825494,0.09807043,-0.58787227
1732440112741,2024-11-24T09:21:52.741Z,47460,-0.014940081,0.09549522,-0.61788696
1732440112744,2024-11-24T09:21:52.744Z,47463,-0.014940081,0.09549522,-0.61788696
1732440112757,2024-11-24T09:21:52.757Z,47476,0.029156895,0.07547434,-0.62129855
1732440112762,2024-11-24T09:21:52.762Z,47481,0.029156895,0.07547434,-0.62129855
1732440112773,2024-11-24T09:21:52.773Z,47492,0.006617354,0.0946442,-0.57213265
1732440112776,2024-11-24T09:21:52.776Z,47495,0.006617354,0.0946442,-0.57213265
1732440112786,2024-11-24T09:21:52.786Z,47505,-0.043812953,0.10750161,-0.6260977
1732440112789,2024-11-24T09:21:52.789Z,47508,-0.043812953,0.10750161,-0.6260977
1732440112800,2024-11-24T09:21:52.800Z,47519,-0.0129831415,0.059909552,-0.5818227
1732440112803,2024-11-24T09:21:52.803Z,47522,-0.0129831415,0.059909552,-0.5818227
1732440112812,2024-11-24T09:21:52.812Z,47531,-0.0065258685,0.06415013,-0.5210034
1732440112815,2024-11-24T09:21:52.815Z,47534,-0.0065258685,0.06415013,-0.5210034
1732440112823,2024-11-24T09:21:52.823Z,47542,-0.0844345,0.067863345,-0.5286206
1732440112825,2024-11-24T09:21:52.825Z,47544,-0.0844345,0.067863345,-0.5286206
1732440112833,2024-11-24T09:21:52.833Z,47552,-0.06933693,0.04426327,-0.5968912
1732440112836,2024-11-24T09:21:52.836Z,47555,-0.06933693,0.04426327,-0.5968912
1732440112843,2024-11-24T09:21:52.843Z,47562,0.0066594384,-0.016781358,-0.59711635
1732440112845,2024-11-24T09:21:52.845Z,47564,0.0066594384,-0.016781358,-0.59711635
1732440112852,2024-11-24T09:21:52.852Z,47571,-0.0050873803,0.0076510613,-0.54089993
1732440112856,2024-11-24T09:21:52.856Z,47575,-0.0050873803,0.0076510613,-0.54089993
1732440112888,2024-11-24T09:21:52.888Z,47607,-0.04207038,0.011697441,-0.5864657
1732440112891,2024-11-24T09:21:52.891Z,47610,-0.04207038,0.011697441,-0.5864657
1732440112898,2024-11-24T09:21:52.898Z,47617,0.020363417,-0.0010054441,-0.5201779
1732440112901,2024-11-24T09:21:52.901Z,47620,0.020363417,-0.0010054441,-0.5201779
1732440112908,2024-11-24T09:21:52.908Z,47627,-0.03134717,0.04490073,-0.48350203
1732440112911,2024-11-24T09:21:52.911Z,47630,-0.03134717,0.04490073,-0.48350203
1732440112918,2024-11-24T09:21:52.918Z,47637,-0.094091214,0.06399075,-0.5680168
1732440112921,2024-11-24T09:21:52.921Z,47640,-0.094091214,0.06399075,-0.5680168
1732440112934,2024-11-24T09:21:52.934Z,47653,-0.038687535,0.0739247,-0.48099688
1732440112937,2024-11-24T09:21:52.937Z,47656,-0.038687535,0.0739247,-0.48099688
1732440112981,2024-11-24T09:21:52.981Z,47700,-0.09114068,0.08579981,-0.5599675
1732440112985,2024-11-24T09:21:52.985Z,47704,-0.09114068,0.08579981,-0.5599675
1732440112995,2024-11-24T09:21:52.995Z,47714,0.011685383,0.04985064,-0.58067524
1732440112998,2024-11-24T09:21:52.998Z,47717,0.011685383,0.04985064,-0.58067524
1732440113023,2024-11-24T09:21:53.023Z,47742,0.031591162,0.042728797,-0.5534945
1732440113026,2024-11-24T09:21:53.026Z,47745,0.031591162,0.042728797,-0.5534945
1732440113037,2024-11-24T09:21:53.037Z,47756,0.046801824,0.022828512,-0.55519205
1732440113040,2024-11-24T09:21:53.040Z,47759,0.046801824,0.022828512,-0.55519205
1732440113051,2024-11-24T09:21:53.051Z,47770,0.003163468,0.041169528,-0.53485715
1732440113054,2024-11-24T09:21:53.054Z,47773,0.003163468,0.041169528,-0.53485715
1732440113067,2024-11-24T09:21:53.067Z,47786,-0.11667705,0.09264673,-0.40028128
1732440113070,2024-11-24T09:21:53.070Z,47789,-0.11667705,0.09264673,-0.40028128
1732440113118,2024-11-24T09:21:53.118Z,47837,0.012349658,0.034783076,-0.57760423
1732440113124,2024-11-24T09:21:53.124Z,47843,0.012349658,0.034783076,-0.57760423
1732440113149,2024-11-24T09:21:53.149Z,47868,0.0022861601,0.04852097,-0.5673291
1732440113156,2024-11-24T09:21:53.156Z,47875,0.0022861601,0.04852097,-0.5673291
1732440113182,2024-11-24T09:21:53.182Z,47901,-0.099523336,0.12904325,-0.44363606
1732440113188,2024-11-24T09:21:53.188Z,47907,-0.099523336,0.12904325,-0.44363606
1732440113208,2024-11-24T09:21:53.208Z,47927,-0.116831906,0.11874782,-0.58179617
1732440113213,2024-11-24T09:21:53.213Z,47932,-0.116831906,0.11874782,-0.58179617
1732440113224,2024-11-24T09:21:53.224Z,47943,-0.022868032,0.09570079,-0.6123966
1732440113228,2024-11-24T09:21:53.228Z,47947,-0.022868032,0.09570079,-0.6123966
1732440113241,2024-11-24T09:21:53.241Z,47960,-0.0033055956,0.042625714,-0.59303886
1732440113249,2024-11-24T09:21:53.249Z,47968,-0.0033055956,0.042625714,-0.59303886
1732440113260,2024-11-24T09:21:53.260Z,47979,-0.06728271,0.067674294,-0.49508983
1732440113263,2024-11-24T09:21:53.263Z,47982,-0.06728271,0.067674294,-0.49508983
1732440113273,2024-11-24T09:21:53.273Z,47992,-0.16370346,0.116854705,-0.5803357
1732440113275,2024-11-24T09:21:53.275Z,47994,-0.16370346,0.116854705,-0.5803357
1732440113284,2024-11-24T09:21:53.284Z,48003,-0.062428474,0.08546323,-0.6026098
1732440113287,2024-11-24T09:21:53.287Z,48006,-0.062428474,0.08546323,-0.6026098
1732440113294,2024-11-24T09:21:53.294Z,48013,-0.023915863,0.056399688,-0.63890105
1732440113297,2024-11-24T09:21:53.297Z,48016,-0.023915863,0.056399688,-0.63890105
1732440113305,2024-11-24T09:21:53.305Z,48024,-0.08968955,0.13070433,-0.47473544
1732440113307,2024-11-24T09:21:53.307Z,48026,-0.08968955,0.13070433,-0.47473544
1732440113314,2024-11-24T09:21:53.314Z,48033,-0.056955192,0.11933539,-0.5135843
1732440113316,2024-11-24T09:21:53.316Z,48035,-0.056955192,0.11933539,-0.5135843
1732440113323,2024-11-24T09:21:53.323Z,48042,-0.012685417,0.10400701,-0.5675142
1732440113325,2024-11-24T09:21:53.325Z,48044,-0.012685417,0.10400701,-0.5675142
1732440113337,2024-11-24T09:21:53.337Z,48056,-0.080032706,0.12900415,-0.5992891
1732440113340,2024-11-24T09:21:53.340Z,48059,-0.080032706,0.12900415,-0.5992891
1732440113347,2024-11-24T09:21:53.347Z,48066,0.008087509,0.10342693,-0.6092624
1732440113349,2024-11-24T09:21:53.349Z,48068,0.008087509,0.10342693,-0.6092624
1732440113357,2024-11-24T09:21:53.357Z,48076,0.022208996,0.081283435,-0.6325921
1732440113359,2024-11-24T09:21:53.359Z,48078,0.022208996,0.081283435,-0.6325921
1732440113383,2024-11-24T09:21:53.383Z,48102,-0.099334225,0.083195224,-0.4520543
1732440113385,2024-11-24T09:21:53.385Z,48104,-0.099334225,0.083195224,-0.4520543
1732440113393,2024-11-24T09:21:53.393Z,48112,-0.014402824,-0.0021014258,-0.59906316
1732440113395,2024-11-24T09:21:53.395Z,48114,-0.014402824,-0.0021014258,-0.59906316
1732440113403,2024-11-24T09:21:53.403Z,48122,-0.09219663,-0.013499247,-0.49601138
1732440113405,2024-11-24T09:21:53.405Z,48124,-0.09219663,-0.013499247,-0.49601138
1732440113431,2024-11-24T09:21:53.431Z,48150,-0.10628604,-4.5803672E-4,-0.53637487
1732440113434,2024-11-24T09:21:53.434Z,48153,-0.10628604,-4.5803672E-4,-0.53637487
1732440113444,2024-11-24T09:21:53.444Z,48163,-0.06347803,-0.022392161,-0.5801394
1732440113446,2024-11-24T09:21:53.446Z,48165,-0.06347803,-0.022392161,-0.5801394
1732440113455,2024-11-24T09:21:53.455Z,48174,-0.012525846,-0.028096713,-0.5722366
1732440113458,2024-11-24T09:21:53.458Z,48177,-0.012525846,-0.028096713,-0.5722366
1732440113474,2024-11-24T09:21:53.474Z,48193,-0.12161053,0.0035932057,-0.43719918
1732440113477,2024-11-24T09:21:53.477Z,48196,-0.12161053,0.0035932057,-0.43719918
1732440113486,2024-11-24T09:21:53.486Z,48205,-0.13123776,0.007719037,-0.45392355
1732440113489,2024-11-24T09:21:53.489Z,48208,-0.13123776,0.007719037,-0.45392355
1732440113498,2024-11-24T09:21:53.498Z,48217,-0.07018747,-0.012613418,-0.50124955
1732440113500,2024-11-24T09:21:53.500Z,48219,-0.07018747,-0.012613418,-0.50124955
1732440113521,2024-11-24T09:21:53.521Z,48240,-0.03471933,-0.020430967,-0.5115125
1732440113523,2024-11-24T09:21:53.523Z,48242,-0.03471933,-0.020430967,-0.5115125
1732440113531,2024-11-24T09:21:53.531Z,48250,-0.11756996,4.9100374E-4,-0.52342165
1732440113534,2024-11-24T09:21:53.534Z,48253,-0.11756996,4.9100374E-4,-0.52342165
1732440113564,2024-11-24T09:21:53.564Z,48283,-0.07989656,-0.015205264,-0.5363719
1732440113567,2024-11-24T09:21:53.567Z,48286,-0.07989656,-0.015205264,-0.5363719
1732440113576,2024-11-24T09:21:53.576Z,48295,-0.14549279,0.038729876,-0.4093114
1732440113579,2024-11-24T09:21:53.579Z,48298,-0.14549279,0.038729876,-0.4093114
1732440113589,2024-11-24T09:21:53.589Z,48308,-0.11535137,0.046837807,-0.48742962
1732440113592,2024-11-24T09:21:53.592Z,48311,-0.11535137,0.046837807,-0.48742962
1732440113609,2024-11-24T09:21:53.609Z,48328,-0.1036116,0.026009874,-0.5132051
1732440113612,2024-11-24T09:21:53.612Z,48331,-0.1036116,0.026009874,-0.5132051
1732440113622,2024-11-24T09:21:53.622Z,48341,0.027640937,0.037301112,-0.5328138
1732440113625,2024-11-24T09:21:53.625Z,48344,0.027640937,0.037301112,-0.5328138
1732440113634,2024-11-24T09:21:53.634Z,48353,0.047332652,0.031552702,-0.52638525
1732440113637,2024-11-24T09:21:53.637Z,48356,0.047332652,0.031552702,-0.52638525
1732440113656,2024-11-24T09:21:53.656Z,48375,0.018696178,0.06510083,-0.4651726
1732440113658,2024-11-24T09:21:53.658Z,48377,0.018696178,0.06510083,-0.4651726
1732440113667,2024-11-24T09:21:53.667Z,48386,-0.04443879,0.1141799,-0.48027086
1732440113670,2024-11-24T09:21:53.670Z,48389,-0.04443879,0.1141799,-0.48027086
1732440113678,2024-11-24T09:21:53.678Z,48397,-0.007025953,0.1113004,-0.51768196
1732440113680,2024-11-24T09:21:53.680Z,48399,-0.007025953,0.1113004,-0.51768196
1732440113704,2024-11-24T09:21:53.704Z,48423,-7.455253E-5,0.08790571,-0.6139414
1732440113712,2024-11-24T09:21:53.712Z,48431,-7.455253E-5,0.08790571,-0.6139414
1732440113733,2024-11-24T09:21:53.733Z,48452,0.033516876,0.10013636,-0.46031767
1732440113737,2024-11-24T09:21:53.737Z,48456,0.033516876,0.10013636,-0.46031767
1732440113747,2024-11-24T09:21:53.747Z,48466,-0.069073424,0.07477698,-0.4409603
1732440113750,2024-11-24T09:21:53.750Z,48469,-0.069073424,0.07477698,-0.4409603
1732440113760,2024-11-24T09:21:53.760Z,48479,-0.072824426,0.08995774,-0.42958683
1732440113763,2024-11-24T09:21:53.763Z,48482,-0.072824426,0.08995774,-0.42958683
1732440113777,2024-11-24T09:21:53.777Z,48496,0.015453866,0.039228853,-0.6437004
1732440113784,2024-11-24T09:21:53.784Z,48503,0.015453866,0.039228853,-0.6437004
1732440113803,2024-11-24T09:21:53.803Z,48522,0.089668445,0.013242416,-0.60733974
1732440113809,2024-11-24T09:21:53.809Z,48528,0.089668445,0.013242416,-0.60733974
1732440113825,2024-11-24T09:21:53.825Z,48544,-0.023326907,0.009423207,-0.5380773
1732440113831,2024-11-24T09:21:53.831Z,48550,-0.023326907,0.009423207,-0.5380773
1732440113848,2024-11-24T09:21:53.848Z,48567,-0.08500299,0.010168999,-0.42220655
1732440113854,2024-11-24T09:21:53.854Z,48573,-0.08500299,0.010168999,-0.42220655
1732440113872,2024-11-24T09:21:53.872Z,48591,-0.07360948,0.016997734,-0.45049867
1732440113878,2024-11-24T09:21:53.878Z,48597,-0.07360948,0.016997734,-0.45049867
1732440113896,2024-11-24T09:21:53.896Z,48615,-0.039574303,0.02418852,-0.49676087
1732440113902,2024-11-24T09:21:53.902Z,48621,-0.039574303,0.02418852,-0.49676087
1732440113918,2024-11-24T09:21:53.918Z,48637,0.07676772,0.015296871,-0.56796086
1732440113923,2024-11-24T09:21:53.923Z,48642,0.07676772,0.015296871,-0.56796086
1732440113936,2024-11-24T09:21:53.936Z,48655,0.036575522,5.1395415E-4,-0.5537483
1732440113941,2024-11-24T09:21:53.941Z,48660,0.036575522,5.1395415E-4,-0.5537483
1732440113955,2024-11-24T09:21:53.955Z,48674,0.08726641,-0.045898296,-0.5052182
1732440113958,2024-11-24T09:21:53.958Z,48677,0.08726641,-0.045898296,-0.5052182
1732440113968,2024-11-24T09:21:53.968Z,48687,-0.020417206,-0.010500808,-0.4734446
1732440113970,2024-11-24T09:21:53.970Z,48689,-0.020417206,-0.010500808,-0.4734446
1732440113978,2024-11-24T09:21:53.978Z,48697,-0.010831171,0.009554394,-0.5675874
1732440113980,2024-11-24T09:21:53.980Z,48699,-0.010831171,0.009554394,-0.5675874
1732440113988,2024-11-24T09:21:53.988Z,48707,0.08641716,-0.040125478,-0.4809349
1732440113990,2024-11-24T09:21:53.990Z,48709,0.08641716,-0.040125478,-0.4809349
1732440114001,2024-11-24T09:21:54.001Z,48720,-0.054701183,-0.0062194774,-0.42510885
1732440114005,2024-11-24T09:21:54.005Z,48724,-0.054701183,-0.0062194774,-0.42510885
1732440114020,2024-11-24T09:21:54.020Z,48739,-0.06537508,-0.0022350443,-0.4836046
1732440114025,2024-11-24T09:21:54.025Z,48744,-0.06537508,-0.0022350443,-0.4836046
1732440114043,2024-11-24T09:21:54.043Z,48762,0.04277244,-0.013939779,-0.62265706
1732440114048,2024-11-24T09:21:54.048Z,48767,0.04277244,-0.013939779,-0.62265706
1732440114063,2024-11-24T09:21:54.063Z,48782,1.7362364E-4,0.011792064,-0.55172676
1732440114069,2024-11-24T09:21:54.069Z,48788,1.7362364E-4,0.011792064,-0.55172676
1732440114088,2024-11-24T09:21:54.088Z,48807,-0.04042382,0.009713004,-0.5207011
1732440114093,2024-11-24T09:21:54.093Z,48812,-0.04042382,0.009713004,-0.5207011
1732440114109,2024-11-24T09:21:54.109Z,48828,-0.030691074,-5.1084225E-4,-0.45595953
1732440114114,2024-11-24T09:21:54.114Z,48833,-0.030691074,-5.1084225E-4,-0.45595953
1732440114130,2024-11-24T09:21:54.130Z,48849,-0.052745253,-0.0027620296,-0.46905568
1732440114136,2024-11-24T09:21:54.136Z,48855,-0.052745253,-0.0027620296,-0.46905568
1732440114153,2024-11-24T09:21:54.153Z,48872,-0.041100677,0.0086031165,-0.50288767
1732440114157,2024-11-24T09:21:54.157Z,48876,-0.041100677,0.0086031165,-0.50288767
1732440114168,2024-11-24T09:21:54.168Z,48887,-0.0311504,0.012287346,-0.6519149
1732440114171,2024-11-24T09:21:54.171Z,48890,-0.0311504,0.012287346,-0.6519149
1732440114182,2024-11-24T09:21:54.182Z,48901,0.04448665,-0.008998525,-0.5943211
1732440114186,2024-11-24T09:21:54.186Z,48905,0.04448665,-0.008998525,-0.5943211
1732440114197,2024-11-24T09:21:54.197Z,48916,-0.054774534,-0.0028219342,-0.5650975
1732440114200,2024-11-24T09:21:54.200Z,48919,-0.054774534,-0.0028219342,-0.5650975
1732440114211,2024-11-24T09:21:54.211Z,48930,-0.0047590113,-0.04162815,-0.5137806
1732440114213,2024-11-24T09:21:54.213Z,48932,-0.0047590113,-0.04162815,-0.5137806
1732440114238,2024-11-24T09:21:54.238Z,48957,-0.10176678,-0.002046578,-0.5350295
1732440114241,2024-11-24T09:21:54.241Z,48960,-0.10176678,-0.002046578,-0.5350295
1732440114252,2024-11-24T09:21:54.252Z,48971,-0.05295804,-0.018435638,-0.564909
1732440114256,2024-11-24T09:21:54.256Z,48975,-0.05295804,-0.018435638,-0.564909
1732440114283,2024-11-24T09:21:54.283Z,49002,-0.07327187,-0.012373119,-0.62932086
1732440114287,2024-11-24T09:21:54.287Z,49006,-0.07327187,-0.012373119,-0.62932086
1732440114297,2024-11-24T09:21:54.297Z,49016,-0.06358932,-0.016148081,-0.5102419
1732440114300,2024-11-24T09:21:54.300Z,49019,-0.06358932,-0.016148081,-0.5102419
1732440114311,2024-11-24T09:21:54.311Z,49030,-0.08052602,-0.028548623,-0.4174789
1732440114314,2024-11-24T09:21:54.314Z,49033,-0.08052602,-0.028548623,-0.4174789
1732440114328,2024-11-24T09:21:54.328Z,49047,-0.10243405,-0.017612826,-0.43160695
1732440114331,2024-11-24T09:21:54.331Z,49050,-0.10243405,-0.017612826,-0.43160695
1732440114341,2024-11-24T09:21:54.341Z,49060,0.026409794,-0.03820678,-0.60965556
1732440114343,2024-11-24T09:21:54.343Z,49062,0.026409794,-0.03820678,-0.60965556
1732440114352,2024-11-24T09:21:54.352Z,49071,-0.13836996,-0.04037307,-0.41160795
1732440114355,2024-11-24T09:21:54.355Z,49074,-0.13836996,-0.04037307,-0.41160795
1732440114373,2024-11-24T09:21:54.373Z,49092,8.8072394E-4,-0.07279273,-0.5568474
1732440114376,2024-11-24T09:21:54.376Z,49095,8.8072394E-4,-0.07279273,-0.5568474
1732440114384,2024-11-24T09:21:54.384Z,49103,-0.0628583,-0.048939817,-0.5324277
1732440114386,2024-11-24T09:21:54.386Z,49105,-0.0628583,-0.048939817,-0.5324277
1732440114422,2024-11-24T09:21:54.422Z,49141,-0.102000795,-0.03542102,-0.47350398
1732440114428,2024-11-24T09:21:54.428Z,49147,-0.102000795,-0.03542102,-0.47350398
1732440114451,2024-11-24T09:21:54.451Z,49170,-0.10621827,-0.019640343,-0.50274986
1732440114456,2024-11-24T09:21:54.456Z,49175,-0.10621827,-0.019640343,-0.50274986
1732440114474,2024-11-24T09:21:54.474Z,49193,-0.066259146,-0.02754736,-0.5675352
1732440114479,2024-11-24T09:21:54.479Z,49198,-0.066259146,-0.02754736,-0.5675352
1732440114495,2024-11-24T09:21:54.495Z,49214,-0.08018993,-0.023157792,-0.5892873
1732440114501,2024-11-24T09:21:54.501Z,49220,-0.08018993,-0.023157792,-0.5892873
1732440114514,2024-11-24T09:21:54.514Z,49233,0.00824815,-0.037235275,-0.6102176
1732440114518,2024-11-24T09:21:54.518Z,49237,0.00824815,-0.037235275,-0.6102176
1732440114529,2024-11-24T09:21:54.529Z,49248,-0.043809924,-0.043191016,-0.55991906
1732440114532,2024-11-24T09:21:54.532Z,49251,-0.043809924,-0.043191016,-0.55991906
1732440114542,2024-11-24T09:21:54.542Z,49261,-0.111640155,-0.039260846,-0.50880015
1732440114545,2024-11-24T09:21:54.545Z,49264,-0.111640155,-0.039260846,-0.50880015
1732440114555,2024-11-24T09:21:54.555Z,49274,-0.08760876,-0.036724724,-0.5330602
1732440114558,2024-11-24T09:21:54.558Z,49277,-0.08760876,-0.036724724,-0.5330602
1732440114570,2024-11-24T09:21:54.570Z,49289,-0.065694466,-0.036809817,-0.59250414
1732440114573,2024-11-24T09:21:54.573Z,49292,-0.065694466,-0.036809817,-0.59250414
1732440114580,2024-11-24T09:21:54.580Z,49299,-0.025455173,-0.061548565,-0.60584456
1732440114583,2024-11-24T09:21:54.583Z,49302,-0.025455173,-0.061548565,-0.60584456
1732440114591,2024-11-24T09:21:54.591Z,49310,-0.0747872,-0.075635284,-0.49640825
1732440114594,2024-11-24T09:21:54.594Z,49313,-0.0747872,-0.075635284,-0.49640825
1732440114602,2024-11-24T09:21:54.602Z,49321,-0.100646935,-0.07396982,-0.4662525
1732440114605,2024-11-24T09:21:54.605Z,49324,-0.100646935,-0.07396982,-0.4662525
1732440114615,2024-11-24T09:21:54.615Z,49334,-0.08778655,-0.0719104,-0.48643672
1732440114618,2024-11-24T09:21:54.618Z,49337,-0.08778655,-0.0719104,-0.48643672
1732440114627,2024-11-24T09:21:54.627Z,49346,-0.07611825,-0.063312836,-0.5598584
1732440114629,2024-11-24T09:21:54.629Z,49348,-0.07611825,-0.063312836,-0.5598584
1732440114636,2024-11-24T09:21:54.636Z,49355,-0.097250365,-0.06713146,-0.5753363
1732440114638,2024-11-24T09:21:54.638Z,49357,-0.097250365,-0.06713146,-0.5753363
1732440114647,2024-11-24T09:21:54.647Z,49366,-0.06527261,-0.07087044,-0.54079145
1732440114649,2024-11-24T09:21:54.649Z,49368,-0.06527261,-0.07087044,-0.54079145
1732440114657,2024-11-24T09:21:54.657Z,49376,-0.1596896,-0.05389099,-0.49942225
1732440114659,2024-11-24T09:21:54.659Z,49378,-0.1596896,-0.05389099,-0.49942225
1732440114667,2024-11-24T09:21:54.667Z,49386,-0.1524755,-0.0490286,-0.5376339
1732440114670,2024-11-24T09:21:54.670Z,49389,-0.1524755,-0.0490286,-0.5376339
1732440114678,2024-11-24T09:21:54.678Z,49397,-0.1420917,-0.04815454,-0.5784098
1732440114680,2024-11-24T09:21:54.680Z,49399,-0.1420917,-0.04815454,-0.5784098
1732440114687,2024-11-24T09:21:54.687Z,49406,-0.1273412,-0.048623566,-0.61563915
1732440114689,2024-11-24T09:21:54.689Z,49408,-0.1273412,-0.048623566,-0.61563915
1732440114695,2024-11-24T09:21:54.695Z,49414,-0.13087584,-0.047011588,-0.59741867
1732440114697,2024-11-24T09:21:54.697Z,49416,-0.13087584,-0.047011588,-0.59741867
1732440114703,2024-11-24T09:21:54.703Z,49422,-0.1877787,-0.034327958,-0.5663602
1732440114705,2024-11-24T09:21:54.705Z,49424,-0.1877787,-0.034327958,-0.5663602
1732440114734,2024-11-24T09:21:54.734Z,49453,-0.1530283,-0.031162057,-0.5412949
1732440114737,2024-11-24T09:21:54.737Z,49456,-0.1530283,-0.031162057,-0.5412949
1732440114744,2024-11-24T09:21:54.744Z,49463,-0.11513062,-0.03753869,-0.55352885
1732440114746,2024-11-24T09:21:54.746Z,49465,-0.11513062,-0.03753869,-0.55352885
1732440114753,2024-11-24T09:21:54.753Z,49472,-0.11750687,-0.025035257,-0.5442653
1732440114755,2024-11-24T09:21:54.755Z,49474,-0.11750687,-0.025035257,-0.5442653
1732440114762,2024-11-24T09:21:54.762Z,49481,-0.11151315,-0.0150227295,-0.5585484
1732440114764,2024-11-24T09:21:54.764Z,49483,-0.11151315,-0.0150227295,-0.5585484
1732440114778,2024-11-24T09:21:54.778Z,49497,-0.056683905,-0.02770704,-0.5414276
1732440114780,2024-11-24T09:21:54.780Z,49499,-0.056683905,-0.02770704,-0.5414276
1732440114787,2024-11-24T09:21:54.787Z,49506,-0.039365925,-0.02402709,-0.51747006
1732440114789,2024-11-24T09:21:54.789Z,49508,-0.039365925,-0.02402709,-0.51747006
1732440114822,2024-11-24T09:21:54.822Z,49541,-0.04585569,-0.009031784,-0.49245533
1732440114825,2024-11-24T09:21:54.825Z,49544,-0.04585569,-0.009031784,-0.49245533
1732440114831,2024-11-24T09:21:54.831Z,49550,0.015308954,-0.015992483,-0.53314996
1732440114833,2024-11-24T09:21:54.833Z,49552,0.015308954,-0.015992483,-0.53314996
1732440114840,2024-11-24T09:21:54.840Z,49559,-0.005655866,-0.0035741453,-0.5242842
1732440114843,2024-11-24T09:21:54.843Z,49562,-0.005655866,-0.0035741453,-0.5242842
1732440114849,2024-11-24T09:21:54.849Z,49568,-0.009389473,-0.0012537176,-0.5312209
1732440114851,2024-11-24T09:21:54.851Z,49570,-0.009389473,-0.0012537176,-0.5312209
1732440114923,2024-11-24T09:21:54.923Z,49642,-0.054498192,0.013969342,-0.486962
1732440114927,2024-11-24T09:21:54.927Z,49646,-0.054498192,0.013969342,-0.486962
1732440114943,2024-11-24T09:21:54.943Z,49662,-0.030894943,0.0038039417,-0.5147204
1732440114949,2024-11-24T09:21:54.949Z,49668,-0.030894943,0.0038039417,-0.5147204
1732440114962,2024-11-24T09:21:54.962Z,49681,-0.022570757,-0.0019447597,-0.53904456
1732440114966,2024-11-24T09:21:54.966Z,49685,-0.022570757,-0.0019447597,-0.53904456
1732440115005,2024-11-24T09:21:55.005Z,49724,-0.017804561,-0.0037684462,-0.5237313
1732440115011,2024-11-24T09:21:55.011Z,49730,-0.017804561,-0.0037684462,-0.5237313
1732440115029,2024-11-24T09:21:55.029Z,49748,-0.040571637,-0.007376434,-0.52706766
1732440115035,2024-11-24T09:21:55.035Z,49754,-0.040571637,-0.007376434,-0.52706766
1732440115052,2024-11-24T09:21:55.052Z,49771,-0.05226982,-0.0035650039,-0.48539513
1732440115057,2024-11-24T09:21:55.057Z,49776,-0.05226982,-0.0035650039,-0.48539513
1732440115075,2024-11-24T09:21:55.075Z,49794,-0.065951325,-0.08583239,-0.539989
1732440115081,2024-11-24T09:21:55.081Z,49800,-0.065951325,-0.08583239,-0.539989
1732440115097,2024-11-24T09:21:55.097Z,49816,-0.074326366,-0.116671875,-0.5450321
1732440115101,2024-11-24T09:21:55.101Z,49820,-0.074326366,-0.116671875,-0.5450321
1732440115113,2024-11-24T09:21:55.113Z,49832,-0.081755705,-0.14843376,-0.5386619
1732440115117,2024-11-24T09:21:55.117Z,49836,-0.081755705,-0.14843376,-0.5386619
1732440115128,2024-11-24T09:21:55.128Z,49847,-0.088025846,-0.21360849,-0.5942966
1732440115131,2024-11-24T09:21:55.131Z,49850,-0.088025846,-0.21360849,-0.5942966
1732440115141,2024-11-24T09:21:55.141Z,49860,-0.1742791,-0.33266363,-0.5595967
1732440115144,2024-11-24T09:21:55.144Z,49863,-0.1742791,-0.33266363,-0.5595967
1732440115153,2024-11-24T09:21:55.153Z,49872,-0.17850894,-0.35468596,-0.5356909
1732440115155,2024-11-24T09:21:55.155Z,49874,-0.17850894,-0.35468596,-0.5356909
1732440115163,2024-11-24T09:21:55.163Z,49882,-0.20601,-0.35964334,-0.52839816
1732440115165,2024-11-24T09:21:55.165Z,49884,-0.20601,-0.35964334,-0.52839816
1732440115173,2024-11-24T09:21:55.173Z,49892,-0.15784033,-0.36293313,-0.5892736
1732440115176,2024-11-24T09:21:55.176Z,49895,-0.15784033,-0.36293313,-0.5892736
1732440115183,2024-11-24T09:21:55.183Z,49902,-0.151225,-0.35812065,-0.57164353
1732440115185,2024-11-24T09:21:55.185Z,49904,-0.151225,-0.35812065,-0.57164353
1732440115194,2024-11-24T09:21:55.194Z,49913,-0.14562568,-0.34992442,-0.5427186
1732440115196,2024-11-24T09:21:55.196Z,49915,-0.14562568,-0.34992442,-0.5427186
1732440115203,2024-11-24T09:21:55.203Z,49922,-0.16912888,-0.30735868,-0.5220435
1732440115205,2024-11-24T09:21:55.205Z,49924,-0.16912888,-0.30735868,-0.5220435
1732440115212,2024-11-24T09:21:55.212Z,49931,-0.16836861,-0.28426325,-0.5294243
1732440115213,2024-11-24T09:21:55.213Z,49932,-0.16836861,-0.28426325,-0.5294243
1732440115220,2024-11-24T09:21:55.220Z,49939,-0.11153456,-0.27927482,-0.52942425
1732440115222,2024-11-24T09:21:55.222Z,49941,-0.11153456,-0.27927482,-0.52942425
1732440115229,2024-11-24T09:21:55.229Z,49948,-0.105528355,-0.23151782,-0.5400086
1732440115232,2024-11-24T09:21:55.232Z,49951,-0.105528355,-0.23151782,-0.5400086
1732440115239,2024-11-24T09:21:55.239Z,49958,-0.04231592,-0.23947881,-0.56543314
1732440115242,2024-11-24T09:21:55.242Z,49961,-0.04231592,-0.23947881,-0.56543314
1732440115250,2024-11-24T09:21:55.250Z,49969,-0.06620531,-0.22099368,-0.509785
1732440115252,2024-11-24T09:21:55.252Z,49971,-0.06620531,-0.22099368,-0.509785
1732440115273,2024-11-24T09:21:55.273Z,49992,-0.09745224,-0.18902709,-0.47314027
1732440115275,2024-11-24T09:21:55.275Z,49994,-0.09745224,-0.18902709,-0.47314027
1732440115281,2024-11-24T09:21:55.281Z,50000,-0.069550924,-0.18294084,-0.500631
1732440115283,2024-11-24T09:21:55.283Z,50002,-0.069550924,-0.18294084,-0.500631
1732440115324,2024-11-24T09:21:55.324Z,50043,-0.045436587,-0.1783596,-0.50660557
1732440115333,2024-11-24T09:21:55.333Z,50052,-0.045436587,-0.1783596,-0.50660557
1732440115352,2024-11-24T09:21:55.352Z,50071,0.03281736,-0.19016129,-0.4943267
1732440115355,2024-11-24T09:21:55.355Z,50074,0.03281736,-0.19016129,-0.4943267
1732440115365,2024-11-24T09:21:55.365Z,50084,-0.017424736,-0.14834215,-0.4627795
1732440115368,2024-11-24T09:21:55.368Z,50087,-0.017424736,-0.14834215,-0.4627795
1732440115377,2024-11-24T09:21:55.377Z,50096,0.009197689,-0.16364194,-0.47572365
1732440115380,2024-11-24T09:21:55.380Z,50099,0.009197689,-0.16364194,-0.47572365
1732440115389,2024-11-24T09:21:55.389Z,50108,0.003328996,-0.15355852,-0.47268048
1732440115392,2024-11-24T09:21:55.392Z,50111,0.003328996,-0.15355852,-0.47268048
1732440115400,2024-11-24T09:21:55.400Z,50119,-0.004516962,-0.13949096,-0.4383726
1732440115403,2024-11-24T09:21:55.403Z,50122,-0.004516962,-0.13949096,-0.4383726
1732440115411,2024-11-24T09:21:55.411Z,50130,0.076414436,-0.13995415,-0.4787049
1732440115413,2024-11-24T09:21:55.413Z,50132,0.076414436,-0.13995415,-0.4787049
1732440115457,2024-11-24T09:21:55.457Z,50176,0.083618134,-0.114909455,-0.46569946
1732440115461,2024-11-24T09:21:55.461Z,50180,0.083618134,-0.114909455,-0.46569946
1732440115470,2024-11-24T09:21:55.470Z,50189,0.029007388,-0.10090695,-0.432942
1732440115473,2024-11-24T09:21:55.473Z,50192,0.029007388,-0.10090695,-0.432942
1732440115499,2024-11-24T09:21:55.499Z,50218,0.028043311,-0.08355543,-0.40390652
1732440115502,2024-11-24T09:21:55.502Z,50221,0.028043311,-0.08355543,-0.40390652
1732440115513,2024-11-24T09:21:55.513Z,50232,0.10589141,-0.07950351,-0.471786
1732440115516,2024-11-24T09:21:55.516Z,50235,0.10589141,-0.07950351,-0.471786
1732440115526,2024-11-24T09:21:55.526Z,50245,0.123895824,-0.084487356,-0.5124947
