Timestamp (ms),ISO DateTime,Elapsed Time (ms),Acceleration X,Acceleration Y,Acceleration Z
1732440150381,2024-11-24T09:22:30.381Z,21468,-0.2665695,-0.881223,-1.1839722
1732440150388,2024-11-24T09:22:30.388Z,21475,-0.2665695,-0.881223,-1.1839722
1732440150410,2024-11-24T09:22:30.410Z,21497,-0.24709807,-0.88421005,-1.1619557
1732440150416,2024-11-24T09:22:30.416Z,21503,-0.24709807,-0.88421005,-1.1619557
1732440150438,2024-11-24T09:22:30.438Z,21525,-0.2662186,-0.8700549,-1.1531094
1732440150443,2024-11-24T09:22:30.443Z,21530,-0.2662186,-0.8700549,-1.1531094
1732440150460,2024-11-24T09:22:30.460Z,21547,-0.27008,-0.8676628,-1.1447548
1732440150465,2024-11-24T09:22:30.465Z,21552,-0.27008,-0.8676628,-1.1447548
1732440150482,2024-11-24T09:22:30.482Z,21569,-0.26914042,-0.8324084,-1.1435951
1732440150485,2024-11-24T09:22:30.485Z,21572,-0.26914042,-0.8324084,-1.1435951
1732440150498,2024-11-24T09:22:30.498Z,21585,-0.26733607,-0.79356664,-1.1596276
1732440150502,2024-11-24T09:22:30.502Z,21589,-0.26733607,-0.79356664,-1.1596276
1732440150515,2024-11-24T09:22:30.515Z,21602,-0.22438183,-0.76168126,-1.1659812
1732440150519,2024-11-24T09:22:30.519Z,21606,-0.22438183,-0.76168126,-1.1659812
1732440150531,2024-11-24T09:22:30.531Z,21618,-0.18937868,-0.72254777,-1.1414543
1732440150535,2024-11-24T09:22:30.535Z,21622,-0.18937868,-0.72254777,-1.1414543
1732440150547,2024-11-24T09:22:30.547Z,21634,-0.21402177,-0.7086999,-1.0944757
1732440150551,2024-11-24T09:22:30.551Z,21638,-0.21402177,-0.7086999,-1.0944757
1732440150562,2024-11-24T09:22:30.562Z,21649,-0.2063602,-0.703864,-1.0880977
1732440150566,2024-11-24T09:22:30.566Z,21653,-0.2063602,-0.703864,-1.0880977
1732440150579,2024-11-24T09:22:30.579Z,21666,-0.1984211,-0.6940819,-1.1460742
1732440150583,2024-11-24T09:22:30.583Z,21670,-0.1984211,-0.6940819,-1.1460742
1732440150594,2024-11-24T09:22:30.594Z,21681,-0.1886851,-0.7052831,-1.1527858
1732440150599,2024-11-24T09:22:30.599Z,21686,-0.1886851,-0.7052831,-1.1527858
1732440150611,2024-11-24T09:22:30.611Z,21698,-0.20319481,-0.7017416,-1.1604419
1732440150614,2024-11-24T09:22:30.614Z,21701,-0.20319481,-0.7017416,-1.1604419
1732440150628,2024-11-24T09:22:30.628Z,21715,-0.18105304,-0.6893849,-1.0981455
1732440150632,2024-11-24T09:22:30.632Z,21719,-0.18105304,-0.6893849,-1.0981455
1732440150648,2024-11-24T09:22:30.648Z,21735,-0.19549018,-0.68009686,-1.0916642
1732440150652,2024-11-24T09:22:30.652Z,21739,-0.19549018,-0.68009686,-1.0916642
1732440150665,2024-11-24T09:22:30.665Z,21752,-0.17467993,-0.68896085,-1.081318
1732440150669,2024-11-24T09:22:30.669Z,21756,-0.17467993,-0.68896085,-1.081318
1732440150681,2024-11-24T09:22:30.681Z,21768,-0.2053478,-0.6699736,-1.1085755
1732440150685,2024-11-24T09:22:30.685Z,21772,-0.2053478,-0.6699736,-1.1085755
1732440150698,2024-11-24T09:22:30.698Z,21785,-0.19476376,-0.67500234,-1.1430947
1732440150702,2024-11-24T09:22:30.702Z,21789,-0.19476376,-0.67500234,-1.1430947
1732440150714,2024-11-24T09:22:30.714Z,21801,-0.17720528,-0.68488806,-1.1283801
1732440150718,2024-11-24T09:22:30.718Z,21805,-0.17720528,-0.68488806,-1.1283801
1732440150731,2024-11-24T09:22:30.731Z,21818,-0.17077118,-0.68168414,-1.1249137
1732440150735,2024-11-24T09:22:30.735Z,21822,-0.17077118,-0.68168414,-1.1249137
1732440150747,2024-11-24T09:22:30.747Z,21834,-0.19949491,-0.68587583,-1.1219531
1732440150750,2024-11-24T09:22:30.750Z,21837,-0.19949491,-0.68587583,-1.1219531
1732440150762,2024-11-24T09:22:30.762Z,21849,-0.21082507,-0.64038634,-1.1405637
1732440150767,2024-11-24T09:22:30.767Z,21854,-0.21082507,-0.64038634,-1.1405637
1732440150778,2024-11-24T09:22:30.778Z,21865,-0.19117175,-0.63181955,-1.1305183
1732440150783,2024-11-24T09:22:30.783Z,21870,-0.19117175,-0.63181955,-1.1305183
1732440150793,2024-11-24T09:22:30.793Z,21880,-0.1844315,-0.6579056,-1.1389518
1732440150797,2024-11-24T09:22:30.797Z,21884,-0.1844315,-0.6579056,-1.1389518
1732440150811,2024-11-24T09:22:30.811Z,21898,-0.20938602,-0.6735016,-1.1331763
1732440150815,2024-11-24T09:22:30.815Z,21902,-0.20938602,-0.6735016,-1.1331763
1732440150828,2024-11-24T09:22:30.828Z,21915,-0.19496164,-0.6491665,-1.1383672
1732440150832,2024-11-24T09:22:30.832Z,21919,-0.19496164,-0.6491665,-1.1383672
1732440150843,2024-11-24T09:22:30.843Z,21930,-0.20147672,-0.6304892,-1.1212149
1732440150847,2024-11-24T09:22:30.847Z,21934,-0.20147672,-0.6304892,-1.1212149
1732440150859,2024-11-24T09:22:30.859Z,21946,-0.17665371,-0.6127741,-1.1176759
1732440150863,2024-11-24T09:22:30.863Z,21950,-0.17665371,-0.6127741,-1.1176759
1732440150875,2024-11-24T09:22:30.875Z,21962,-0.16437508,-0.6254175,-1.1105661
1732440150880,2024-11-24T09:22:30.880Z,21967,-0.16437508,-0.6254175,-1.1105661
1732440150892,2024-11-24T09:22:30.892Z,21979,-0.19529516,-0.5894277,-1.1106055
1732440150897,2024-11-24T09:22:30.897Z,21984,-0.19529516,-0.5894277,-1.1106055
1732440150914,2024-11-24T09:22:30.914Z,22001,-0.15422377,-0.55390245,-1.074128
1732440150918,2024-11-24T09:22:30.918Z,22005,-0.15422377,-0.55390245,-1.074128
1732440150931,2024-11-24T09:22:30.931Z,22018,-0.15443829,-0.52240384,-1.0636435
1732440150935,2024-11-24T09:22:30.935Z,22022,-0.15443829,-0.52240384,-1.0636435
1732440150947,2024-11-24T09:22:30.947Z,22034,-0.1412575,-0.50379944,-1.05647
1732440150951,2024-11-24T09:22:30.951Z,22038,-0.1412575,-0.50379944,-1.05647
1732440150965,2024-11-24T09:22:30.965Z,22052,-0.14534251,-0.44932213,-1.0273217
1732440150969,2024-11-24T09:22:30.969Z,22056,-0.14534251,-0.44932213,-1.0273217
1732440150980,2024-11-24T09:22:30.980Z,22067,-0.15525569,-0.42680368,-1.0088649
1732440150984,2024-11-24T09:22:30.984Z,22071,-0.15525569,-0.42680368,-1.0088649
1732440151001,2024-11-24T09:22:31.001Z,22088,-0.15530954,-0.41012117,-0.9881319
1732440151005,2024-11-24T09:22:31.005Z,22092,-0.15530954,-0.41012117,-0.9881319
1732440151019,2024-11-24T09:22:31.019Z,22106,-0.16471015,-0.4230496,-0.9931465
1732440151023,2024-11-24T09:22:31.023Z,22110,-0.16471015,-0.4230496,-0.9931465
1732440151037,2024-11-24T09:22:31.037Z,22124,-0.14716804,-0.46508297,-1.0250334
1732440151041,2024-11-24T09:22:31.041Z,22128,-0.14716804,-0.46508297,-1.0250334
1732440151056,2024-11-24T09:22:31.056Z,22143,-0.15718459,-0.47413215,-1.0269458
1732440151061,2024-11-24T09:22:31.061Z,22148,-0.15718459,-0.47413215,-1.0269458
1732440151078,2024-11-24T09:22:31.078Z,22165,-0.22103569,-0.51432484,-1.0127708
1732440151082,2024-11-24T09:22:31.082Z,22169,-0.22103569,-0.51432484,-1.0127708
1732440151093,2024-11-24T09:22:31.093Z,22180,-0.20869106,-0.5426812,-1.0178667
1732440151097,2024-11-24T09:22:31.097Z,22184,-0.20869106,-0.5426812,-1.0178667
1732440151108,2024-11-24T09:22:31.108Z,22195,-0.17670569,-0.55147064,-0.998652
1732440151112,2024-11-24T09:22:31.112Z,22199,-0.17670569,-0.55147064,-0.998652
1732440151123,2024-11-24T09:22:31.123Z,22210,-0.20667425,-0.5645033,-0.97620213
1732440151127,2024-11-24T09:22:31.127Z,22214,-0.20667425,-0.5645033,-0.97620213
1732440151141,2024-11-24T09:22:31.141Z,22228,-0.19105087,-0.5568124,-1.0226147
1732440151145,2024-11-24T09:22:31.145Z,22232,-0.19105087,-0.5568124,-1.0226147
1732440151157,2024-11-24T09:22:31.157Z,22244,-0.19165887,-0.57175785,-0.9726193
1732440151161,2024-11-24T09:22:31.161Z,22248,-0.19165887,-0.57175785,-0.9726193
1732440151175,2024-11-24T09:22:31.175Z,22262,-0.14475684,-0.5885249,-0.98878896
1732440151179,2024-11-24T09:22:31.179Z,22266,-0.14475684,-0.5885249,-0.98878896
1732440151193,2024-11-24T09:22:31.193Z,22280,-0.22343081,-0.5747387,-0.9943593
1732440151197,2024-11-24T09:22:31.197Z,22284,-0.22343081,-0.5747387,-0.9943593
1732440151209,2024-11-24T09:22:31.209Z,22296,-0.1516999,-0.562277,-0.97723186
1732440151213,2024-11-24T09:22:31.213Z,22300,-0.1516999,-0.562277,-0.97723186
1732440151226,2024-11-24T09:22:31.226Z,22313,-0.0895457,-0.5205653,-0.97398156
1732440151229,2024-11-24T09:22:31.229Z,22316,-0.0895457,-0.5205653,-0.97398156
1732440151240,2024-11-24T09:22:31.240Z,22327,-0.12755759,-0.45798582,-0.98398113
1732440151243,2024-11-24T09:22:31.243Z,22330,-0.12755759,-0.45798582,-0.98398113
1732440151254,2024-11-24T09:22:31.254Z,22341,-0.092621766,-0.5162902,-0.97419894
1732440151257,2024-11-24T09:22:31.257Z,22344,-0.092621766,-0.5162902,-0.97419894
1732440151268,2024-11-24T09:22:31.268Z,22355,-0.1962938,-0.43150473,-1.0368944
1732440151271,2024-11-24T09:22:31.271Z,22358,-0.1962938,-0.43150473,-1.0368944
1732440151282,2024-11-24T09:22:31.282Z,22369,-0.093832694,-0.4612624,-1.0232872
1732440151285,2024-11-24T09:22:31.285Z,22372,-0.093832694,-0.4612624,-1.0232872
1732440151297,2024-11-24T09:22:31.297Z,22384,-0.064908765,-0.47657734,-0.96150583
1732440151300,2024-11-24T09:22:31.300Z,22387,-0.064908765,-0.47657734,-0.96150583
1732440151312,2024-11-24T09:22:31.312Z,22399,-0.117336154,-0.45862782,-0.9501886
1732440151316,2024-11-24T09:22:31.316Z,22403,-0.117336154,-0.45862782,-0.9501886
1732440151328,2024-11-24T09:22:31.328Z,22415,-0.04548465,-0.4263972,-0.98347646
1732440151332,2024-11-24T09:22:31.332Z,22419,-0.04548465,-0.4263972,-0.98347646
1732440151344,2024-11-24T09:22:31.344Z,22431,-0.07700689,-0.40756848,-0.99757856
1732440151347,2024-11-24T09:22:31.347Z,22434,-0.07700689,-0.40756848,-0.99757856
1732440151361,2024-11-24T09:22:31.361Z,22448,-0.068577945,-0.40469056,-0.9765569
1732440151365,2024-11-24T09:22:31.365Z,22452,-0.068577945,-0.40469056,-0.9765569
1732440151377,2024-11-24T09:22:31.377Z,22464,-0.045991167,-0.38116878,-0.91277766
1732440151381,2024-11-24T09:22:31.381Z,22468,-0.045991167,-0.38116878,-0.91277766
1732440151394,2024-11-24T09:22:31.394Z,22481,0.026772661,-0.39632192,-0.79186463
1732440151398,2024-11-24T09:22:31.398Z,22485,0.026772661,-0.39632192,-0.79186463
1732440151411,2024-11-24T09:22:31.411Z,22498,-0.0025385544,-0.35686076,-0.8490702
1732440151415,2024-11-24T09:22:31.415Z,22502,-0.0025385544,-0.35686076,-0.8490702
1732440151426,2024-11-24T09:22:31.426Z,22513,-0.013214627,-0.33413866,-0.8906144
1732440151430,2024-11-24T09:22:31.430Z,22517,-0.013214627,-0.33413866,-0.8906144
1732440151441,2024-11-24T09:22:31.441Z,22528,0.12709877,-0.34207028,-0.9261932
1732440151445,2024-11-24T09:22:31.445Z,22532,0.12709877,-0.34207028,-0.9261932
1732440151457,2024-11-24T09:22:31.457Z,22544,0.15348843,-0.318348,-0.8767826
1732440151461,2024-11-24T09:22:31.461Z,22548,0.15348843,-0.318348,-0.8767826
1732440151474,2024-11-24T09:22:31.474Z,22561,0.10459003,-0.28505638,-0.7291859
1732440151478,2024-11-24T09:22:31.478Z,22565,0.10459003,-0.28505638,-0.7291859
1732440151489,2024-11-24T09:22:31.489Z,22576,0.072190076,-0.27288306,-0.7488272
1732440151493,2024-11-24T09:22:31.493Z,22580,0.072190076,-0.27288306,-0.7488272
1732440151509,2024-11-24T09:22:31.509Z,22596,0.13125421,-0.27933836,-0.8117885
1732440151518,2024-11-24T09:22:31.518Z,22605,0.13125421,-0.27933836,-0.8117885
1732440151544,2024-11-24T09:22:31.544Z,22631,0.19378611,-0.29777333,-0.84563625
1732440151551,2024-11-24T09:22:31.551Z,22638,0.19378611,-0.29777333,-0.84563625
1732440151577,2024-11-24T09:22:31.577Z,22664,0.18325643,-0.28668612,-0.7128147
1732440151586,2024-11-24T09:22:31.586Z,22673,0.18325643,-0.28668612,-0.7128147
1732440151612,2024-11-24T09:22:31.612Z,22699,0.11174767,-0.25820917,-0.7475975
1732440151620,2024-11-24T09:22:31.620Z,22707,0.11174767,-0.25820917,-0.7475975
1732440151645,2024-11-24T09:22:31.645Z,22732,0.16739076,-0.3293024,-0.8132236
1732440151649,2024-11-24T09:22:31.649Z,22736,0.16739076,-0.3293024,-0.8132236
1732440151660,2024-11-24T09:22:31.660Z,22747,0.2235504,-0.2612261,-0.7342522
1732440151665,2024-11-24T09:22:31.665Z,22752,0.2235504,-0.2612261,-0.7342522
1732440151681,2024-11-24T09:22:31.681Z,22768,0.0050335173,-0.2506211,-0.8347234
1732440151685,2024-11-24T09:22:31.685Z,22772,0.0050335173,-0.2506211,-0.8347234
1732440151703,2024-11-24T09:22:31.703Z,22790,0.21856967,-0.2948461,-0.8378617
1732440151711,2024-11-24T09:22:31.711Z,22798,0.21856967,-0.2948461,-0.8378617
1732440151735,2024-11-24T09:22:31.735Z,22822,0.15201637,-0.2641243,-0.78778225
1732440151741,2024-11-24T09:22:31.741Z,22828,0.15201637,-0.2641243,-0.78778225
1732440151757,2024-11-24T09:22:31.757Z,22844,0.07506218,-0.24656744,-0.83658934
1732440151759,2024-11-24T09:22:31.759Z,22846,0.07506218,-0.24656744,-0.83658934
1732440151770,2024-11-24T09:22:31.770Z,22857,0.14118095,-0.2634635,-0.8648029
1732440151774,2024-11-24T09:22:31.774Z,22861,0.14118095,-0.2634635,-0.8648029
1732440151785,2024-11-24T09:22:31.785Z,22872,0.17047296,-0.27029458,-0.9396785
1732440151789,2024-11-24T09:22:31.789Z,22876,0.17047296,-0.27029458,-0.9396785
1732440151801,2024-11-24T09:22:31.801Z,22888,0.11649235,-0.22385879,-0.93313247
1732440151804,2024-11-24T09:22:31.804Z,22891,0.11649235,-0.22385879,-0.93313247
1732440151815,2024-11-24T09:22:31.815Z,22902,0.120900325,-0.16963696,-0.96626157
1732440151819,2024-11-24T09:22:31.819Z,22906,0.120900325,-0.16963696,-0.96626157
1732440151831,2024-11-24T09:22:31.831Z,22918,0.12025563,-0.20993885,-0.9808072
1732440151834,2024-11-24T09:22:31.834Z,22921,0.12025563,-0.20993885,-0.9808072
1732440151846,2024-11-24T09:22:31.846Z,22933,0.13994974,-0.13697292,-0.97812974
1732440151850,2024-11-24T09:22:31.850Z,22937,0.13994974,-0.13697292,-0.97812974
1732440151864,2024-11-24T09:22:31.864Z,22951,0.040732544,-0.12535998,-0.97086996
1732440151868,2024-11-24T09:22:31.868Z,22955,0.040732544,-0.12535998,-0.97086996
1732440151878,2024-11-24T09:22:31.878Z,22965,0.036013283,-0.12966189,-0.9263784
1732440151882,2024-11-24T09:22:31.882Z,22969,0.036013283,-0.12966189,-0.9263784
1732440151893,2024-11-24T09:22:31.893Z,22980,0.2273812,-0.18292771,-0.8287607
1732440151897,2024-11-24T09:22:31.897Z,22984,0.2273812,-0.18292771,-0.8287607
1732440151909,2024-11-24T09:22:31.909Z,22996,0.07598236,-0.07925869,-0.99404126
1732440151913,2024-11-24T09:22:31.913Z,23000,0.07598236,-0.07925869,-0.99404126
1732440151925,2024-11-24T09:22:31.925Z,23012,0.07914214,-0.15516928,-1.0669591
1732440151929,2024-11-24T09:22:31.929Z,23016,0.07914214,-0.15516928,-1.0669591
1732440151940,2024-11-24T09:22:31.940Z,23027,0.016497735,-0.073800415,-1.061385
1732440151944,2024-11-24T09:22:31.944Z,23031,0.016497735,-0.073800415,-1.061385
1732440151959,2024-11-24T09:22:31.959Z,23046,0.19216514,-0.15731315,-1.0338423
1732440151961,2024-11-24T09:22:31.961Z,23048,0.19216514,-0.15731315,-1.0338423
1732440151970,2024-11-24T09:22:31.970Z,23057,0.18526272,-0.12682302,-1.0089924
1732440151973,2024-11-24T09:22:31.973Z,23060,0.18526272,-0.12682302,-1.0089924
1732440151984,2024-11-24T09:22:31.984Z,23071,0.109312944,-0.13225271,-0.9974374
1732440151987,2024-11-24T09:22:31.987Z,23074,0.109312944,-0.13225271,-0.9974374
1732440151998,2024-11-24T09:22:31.998Z,23085,-0.023792164,-0.12467969,-1.0955327
1732440152001,2024-11-24T09:22:32.001Z,23088,-0.023792164,-0.12467969,-1.0955327
1732440152011,2024-11-24T09:22:32.011Z,23098,-0.039233886,-0.15672208,-1.030907
1732440152014,2024-11-24T09:22:32.014Z,23101,-0.039233886,-0.15672208,-1.030907
1732440152030,2024-11-24T09:22:32.030Z,23117,-0.1308247,-0.13809039,-1.1242756
1732440152035,2024-11-24T09:22:32.035Z,23122,-0.1308247,-0.13809039,-1.1242756
1732440152047,2024-11-24T09:22:32.047Z,23134,0.1776172,-0.24722776,-1.065863
1732440152050,2024-11-24T09:22:32.050Z,23137,0.1776172,-0.24722776,-1.065863
1732440152062,2024-11-24T09:22:32.062Z,23149,0.14653218,-0.23826657,-0.9496992
1732440152065,2024-11-24T09:22:32.065Z,23152,0.14653218,-0.23826657,-0.9496992
1732440152077,2024-11-24T09:22:32.077Z,23164,0.019132832,-0.20373128,-0.7844636
1732440152081,2024-11-24T09:22:32.081Z,23168,0.019132832,-0.20373128,-0.7844636
1732440152092,2024-11-24T09:22:32.092Z,23179,0.047020074,-0.109793596,-1.1500027
1732440152095,2024-11-24T09:22:32.095Z,23182,0.047020074,-0.109793596,-1.1500027
1732440152104,2024-11-24T09:22:32.104Z,23191,0.034561582,-0.13901444,-1.0581197
1732440152107,2024-11-24T09:22:32.107Z,23194,0.034561582,-0.13901444,-1.0581197
1732440152117,2024-11-24T09:22:32.117Z,23204,0.064054444,-0.13270438,-0.82569176
1732440152120,2024-11-24T09:22:32.120Z,23207,0.064054444,-0.13270438,-0.82569176
1732440152129,2024-11-24T09:22:32.129Z,23216,0.07186157,-0.00583073,-0.85406804
1732440152132,2024-11-24T09:22:32.132Z,23219,0.07186157,-0.00583073,-0.85406804
1732440152140,2024-11-24T09:22:32.140Z,23227,0.06925351,0.024487607,-0.77609336
1732440152143,2024-11-24T09:22:32.143Z,23230,0.06925351,0.024487607,-0.77609336
1732440152152,2024-11-24T09:22:32.152Z,23239,0.0062172897,0.06601778,-0.792786
1732440152155,2024-11-24T09:22:32.155Z,23242,0.0062172897,0.06601778,-0.792786
1732440152164,2024-11-24T09:22:32.164Z,23251,0.058076337,0.010655773,-1.0822692
1732440152167,2024-11-24T09:22:32.167Z,23254,0.058076337,0.010655773,-1.0822692
1732440152177,2024-11-24T09:22:32.177Z,23264,0.21392238,0.018032547,-1.0493116
1732440152180,2024-11-24T09:22:32.180Z,23267,0.21392238,0.018032547,-1.0493116
1732440152190,2024-11-24T09:22:32.190Z,23277,0.37032804,0.07615892,-0.8717678
1732440152193,2024-11-24T09:22:32.193Z,23280,0.37032804,0.07615892,-0.8717678
1732440152204,2024-11-24T09:22:32.204Z,23291,-0.0015700036,0.105824426,-0.7857177
1732440152208,2024-11-24T09:22:32.208Z,23295,-0.0015700036,0.105824426,-0.7857177
1732440152219,2024-11-24T09:22:32.219Z,23306,-0.020275917,0.10554484,-0.910487
1732440152222,2024-11-24T09:22:32.222Z,23309,-0.020275917,0.10554484,-0.910487
1732440152232,2024-11-24T09:22:32.232Z,23319,0.1281616,0.06316944,-0.9272944
1732440152235,2024-11-24T09:22:32.235Z,23322,0.1281616,0.06316944,-0.9272944
1732440152248,2024-11-24T09:22:32.248Z,23335,0.17666273,-0.05736526,-0.965475
1732440152251,2024-11-24T09:22:32.251Z,23338,0.17666273,-0.05736526,-0.965475
1732440152261,2024-11-24T09:22:32.261Z,23348,0.100570664,-0.12944342,-1.0714457
1732440152264,2024-11-24T09:22:32.264Z,23351,0.100570664,-0.12944342,-1.0714457
1732440152275,2024-11-24T09:22:32.275Z,23362,0.059976738,-0.19430983,-1.1896952
1732440152279,2024-11-24T09:22:32.279Z,23366,0.059976738,-0.19430983,-1.1896952
1732440152293,2024-11-24T09:22:32.293Z,23380,0.060159918,-0.35361755,-0.9652842
1732440152296,2024-11-24T09:22:32.296Z,23383,0.060159918,-0.35361755,-0.9652842
1732440152304,2024-11-24T09:22:32.304Z,23391,0.15582523,-0.454169,-0.8770877
1732440152307,2024-11-24T09:22:32.307Z,23394,0.15582523,-0.454169,-0.8770877
1732440152317,2024-11-24T09:22:32.317Z,23404,0.2199969,-0.50589705,-0.810383
1732440152319,2024-11-24T09:22:32.319Z,23406,0.2199969,-0.50589705,-0.810383
1732440152328,2024-11-24T09:22:32.328Z,23415,0.3284411,-0.5736043,-1.0681989
1732440152331,2024-11-24T09:22:32.331Z,23418,0.3284411,-0.5736043,-1.0681989
1732440152342,2024-11-24T09:22:32.342Z,23429,0.32951152,-0.55782354,-1.2570261
1732440152346,2024-11-24T09:22:32.346Z,23433,0.32951152,-0.55782354,-1.2570261
1732440152356,2024-11-24T09:22:32.356Z,23443,0.29715085,-0.52887034,-1.1413548
1732440152360,2024-11-24T09:22:32.360Z,23447,0.29715085,-0.52887034,-1.1413548
1732440152369,2024-11-24T09:22:32.369Z,23456,0.065465935,-0.38083017,-0.915961
1732440152372,2024-11-24T09:22:32.372Z,23459,0.065465935,-0.38083017,-0.915961
1732440152397,2024-11-24T09:22:32.397Z,23484,0.28494275,-0.23921469,-0.9393175
1732440152400,2024-11-24T09:22:32.400Z,23487,0.28494275,-0.23921469,-0.9393175
1732440152410,2024-11-24T09:22:32.410Z,23497,0.2145173,-0.18462202,-1.0139679
1732440152413,2024-11-24T09:22:32.413Z,23500,0.2145173,-0.18462202,-1.0139679
1732440152423,2024-11-24T09:22:32.423Z,23510,0.28256845,-0.19689876,-0.9316142
1732440152427,2024-11-24T09:22:32.427Z,23514,0.28256845,-0.19689876,-0.9316142
1732440152443,2024-11-24T09:22:32.443Z,23530,0.23615107,-0.14564805,-0.9675705
1732440152446,2024-11-24T09:22:32.446Z,23533,0.23615107,-0.14564805,-0.9675705
1732440152454,2024-11-24T09:22:32.454Z,23541,0.24631044,-0.14228338,-0.9403754
1732440152457,2024-11-24T09:22:32.457Z,23544,0.24631044,-0.14228338,-0.9403754
1732440152491,2024-11-24T09:22:32.491Z,23578,0.17781627,-0.16552849,-0.96888286
1732440152495,2024-11-24T09:22:32.495Z,23582,0.17781627,-0.16552849,-0.96888286
1732440152507,2024-11-24T09:22:32.507Z,23594,0.21686049,-0.21529846,-0.9061376
1732440152510,2024-11-24T09:22:32.510Z,23597,0.21686049,-0.21529846,-0.9061376
1732440152579,2024-11-24T09:22:32.579Z,23666,0.18206643,-0.27531374,-0.96097195
1732440152583,2024-11-24T09:22:32.583Z,23670,0.18206643,-0.27531374,-0.96097195
1732440152593,2024-11-24T09:22:32.593Z,23680,0.18773381,-0.28945535,-0.9570024
1732440152596,2024-11-24T09:22:32.596Z,23683,0.18773381,-0.28945535,-0.9570024
1732440152607,2024-11-24T09:22:32.607Z,23694,0.17517002,-0.30073074,-1.0239687
1732440152610,2024-11-24T09:22:32.610Z,23697,0.17517002,-0.30073074,-1.0239687
1732440152621,2024-11-24T09:22:32.621Z,23708,0.14972734,-0.28708133,-0.93307674
1732440152625,2024-11-24T09:22:32.625Z,23712,0.14972734,-0.28708133,-0.93307674
1732440152635,2024-11-24T09:22:32.635Z,23722,0.18847656,-0.25382024,-0.9311247
1732440152639,2024-11-24T09:22:32.639Z,23726,0.18847656,-0.25382024,-0.9311247
1732440152649,2024-11-24T09:22:32.649Z,23736,0.21455882,-0.22910297,-0.9636083
1732440152652,2024-11-24T09:22:32.652Z,23739,0.21455882,-0.22910297,-0.9636083
1732440152668,2024-11-24T09:22:32.668Z,23755,0.20559032,-0.21528995,-0.9636412
1732440152672,2024-11-24T09:22:32.672Z,23759,0.20559032,-0.21528995,-0.9636412
1732440152682,2024-11-24T09:22:32.682Z,23769,0.1814106,-0.18589255,-0.922857
1732440152686,2024-11-24T09:22:32.686Z,23773,0.1814106,-0.18589255,-0.922857
1732440152695,2024-11-24T09:22:32.695Z,23782,0.16916214,-0.18781622,-0.926499
1732440152697,2024-11-24T09:22:32.697Z,23784,0.16916214,-0.18781622,-0.926499
1732440152712,2024-11-24T09:22:32.712Z,23799,0.18408082,-0.20372123,-0.92756397
1732440152715,2024-11-24T09:22:32.715Z,23802,0.18408082,-0.20372123,-0.92756397
1732440152727,2024-11-24T09:22:32.727Z,23814,0.14686967,-0.2279698,-0.9630467
1732440152731,2024-11-24T09:22:32.731Z,23818,0.14686967,-0.2279698,-0.9630467
1732440152742,2024-11-24T09:22:32.742Z,23829,0.18987848,-0.2554655,-0.96216196
1732440152746,2024-11-24T09:22:32.746Z,23833,0.18987848,-0.2554655,-0.96216196
1732440152757,2024-11-24T09:22:32.757Z,23844,0.17897919,-0.25753057,-0.9940228
1732440152760,2024-11-24T09:22:32.760Z,23847,0.17897919,-0.25753057,-0.9940228
1732440152775,2024-11-24T09:22:32.775Z,23862,0.07936419,-0.25461635,-0.9368336
1732440152782,2024-11-24T09:22:32.782Z,23869,0.07936419,-0.25461635,-0.9368336
1732440152855,2024-11-24T09:22:32.855Z,23942,0.1040973,-0.24279365,-0.96014875
1732440152863,2024-11-24T09:22:32.863Z,23950,0.1040973,-0.24279365,-0.96014875
1732440152890,2024-11-24T09:22:32.890Z,23977,0.15602693,-0.29083943,-0.91677713
1732440152898,2024-11-24T09:22:32.898Z,23985,0.15602693,-0.29083943,-0.91677713
1732440152920,2024-11-24T09:22:32.920Z,24007,0.13403882,-0.2585528,-0.9607296
1732440152924,2024-11-24T09:22:32.924Z,24011,0.13403882,-0.2585528,-0.9607296
1732440152940,2024-11-24T09:22:32.940Z,24027,0.1589492,-0.25849706,-0.97996414
1732440152945,2024-11-24T09:22:32.945Z,24032,0.1589492,-0.25849706,-0.97996414
1732440152959,2024-11-24T09:22:32.959Z,24046,0.14108013,-0.24112147,-0.99758536
1732440152963,2024-11-24T09:22:32.963Z,24050,0.14108013,-0.24112147,-0.99758536
1732440152974,2024-11-24T09:22:32.974Z,24061,0.19404925,-0.26922947,-0.94526714
1732440152978,2024-11-24T09:22:32.978Z,24065,0.19404925,-0.26922947,-0.94526714
1732440152989,2024-11-24T09:22:32.989Z,24076,0.10799703,-0.23922339,-0.9076476
1732440152992,2024-11-24T09:22:32.992Z,24079,0.10799703,-0.23922339,-0.9076476
1732440153003,2024-11-24T09:22:33.003Z,24090,0.14326142,-0.18016832,-0.9201937
1732440153006,2024-11-24T09:22:33.006Z,24093,0.14326142,-0.18016832,-0.9201937
1732440153032,2024-11-24T09:22:33.032Z,24119,0.1337549,-0.15491731,-0.87535024
1732440153038,2024-11-24T09:22:33.038Z,24125,0.1337549,-0.15491731,-0.87535024
1732440153059,2024-11-24T09:22:33.059Z,24146,0.10144981,-0.10836498,-0.91300946
1732440153062,2024-11-24T09:22:33.062Z,24149,0.10144981,-0.10836498,-0.91300946
1732440153080,2024-11-24T09:22:33.080Z,24167,0.09861074,-0.1074011,-0.8797873
1732440153084,2024-11-24T09:22:33.084Z,24171,0.09861074,-0.1074011,-0.8797873
1732440153094,2024-11-24T09:22:33.094Z,24181,0.07178104,-0.115738444,-0.9013119
1732440153098,2024-11-24T09:22:33.098Z,24185,0.07178104,-0.115738444,-0.9013119
1732440153109,2024-11-24T09:22:33.109Z,24196,0.17967722,-0.14489818,-0.8796387
1732440153112,2024-11-24T09:22:33.112Z,24199,0.17967722,-0.14489818,-0.8796387
1732440153123,2024-11-24T09:22:33.123Z,24210,0.10023803,-0.10215357,-0.91436017
1732440153126,2024-11-24T09:22:33.126Z,24213,0.10023803,-0.10215357,-0.91436017
1732440153135,2024-11-24T09:22:33.135Z,24222,0.0342315,-0.121018894,-0.89754
1732440153138,2024-11-24T09:22:33.138Z,24225,0.0342315,-0.121018894,-0.89754
1732440153149,2024-11-24T09:22:33.149Z,24236,0.12581676,-0.15407194,-0.91075283
1732440153151,2024-11-24T09:22:33.151Z,24238,0.12581676,-0.15407194,-0.91075283
1732440153161,2024-11-24T09:22:33.161Z,24248,0.108049616,-0.16963993,-0.8498919
1732440153164,2024-11-24T09:22:33.164Z,24251,0.108049616,-0.16963993,-0.8498919
1732440153174,2024-11-24T09:22:33.174Z,24261,0.05096992,-0.17858182,-0.9344473
1732440153177,2024-11-24T09:22:33.177Z,24264,0.05096992,-0.17858182,-0.9344473
1732440153188,2024-11-24T09:22:33.188Z,24275,0.033165067,-0.16559769,-0.85814446
1732440153191,2024-11-24T09:22:33.191Z,24278,0.033165067,-0.16559769,-0.85814446
1732440153202,2024-11-24T09:22:33.202Z,24289,0.09296269,-0.17251895,-0.8425419
1732440153205,2024-11-24T09:22:33.205Z,24292,0.09296269,-0.17251895,-0.8425419
1732440153216,2024-11-24T09:22:33.216Z,24303,0.052342452,-0.14556159,-0.8824674
1732440153219,2024-11-24T09:22:33.219Z,24306,0.052342452,-0.14556159,-0.8824674
1732440153228,2024-11-24T09:22:33.228Z,24315,0.10044504,-0.14373523,-0.92922205
1732440153231,2024-11-24T09:22:33.231Z,24318,0.10044504,-0.14373523,-0.92922205
1732440153240,2024-11-24T09:22:33.240Z,24327,0.14885522,-0.14368822,-0.89045435
1732440153242,2024-11-24T09:22:33.242Z,24329,0.14885522,-0.14368822,-0.89045435
1732440153252,2024-11-24T09:22:33.252Z,24339,0.12234236,-0.1512999,-0.92497486
1732440153256,2024-11-24T09:22:33.256Z,24343,0.12234236,-0.1512999,-0.92497486
1732440153266,2024-11-24T09:22:33.266Z,24353,0.032854874,-0.089902304,-0.84426916
1732440153269,2024-11-24T09:22:33.269Z,24356,0.032854874,-0.089902304,-0.84426916
1732440153280,2024-11-24T09:22:33.280Z,24367,0.020156741,-0.111964114,-0.84444964
1732440153283,2024-11-24T09:22:33.283Z,24370,0.020156741,-0.111964114,-0.84444964
1732440153293,2024-11-24T09:22:33.293Z,24380,0.04610294,-0.08380754,-0.8738215
1732440153296,2024-11-24T09:22:33.296Z,24383,0.04610294,-0.08380754,-0.8738215
1732440153307,2024-11-24T09:22:33.307Z,24394,0.12794447,-0.112122096,-0.8400685
1732440153310,2024-11-24T09:22:33.310Z,24397,0.12794447,-0.112122096,-0.8400685
1732440153322,2024-11-24T09:22:33.322Z,24409,0.08115088,-0.123231865,-0.8612263
1732440153325,2024-11-24T09:22:33.325Z,24412,0.08115088,-0.123231865,-0.8612263
1732440153341,2024-11-24T09:22:33.341Z,24428,0.068360195,-0.09572083,-0.8447862
1732440153345,2024-11-24T09:22:33.345Z,24432,0.068360195,-0.09572083,-0.8447862
1732440153356,2024-11-24T09:22:33.356Z,24443,-0.010529059,-0.0629555,-0.88161445
1732440153359,2024-11-24T09:22:33.359Z,24446,-0.010529059,-0.0629555,-0.88161445
1732440153368,2024-11-24T09:22:33.368Z,24455,0.06615919,-0.11176057,-0.93528205
1732440153371,2024-11-24T09:22:33.371Z,24458,0.06615919,-0.11176057,-0.93528205
1732440153387,2024-11-24T09:22:33.387Z,24474,0.09610188,-0.1418585,-0.86449367
1732440153389,2024-11-24T09:22:33.389Z,24476,0.09610188,-0.1418585,-0.86449367
1732440153400,2024-11-24T09:22:33.400Z,24487,0.049031958,-0.14940843,-0.82903785
1732440153403,2024-11-24T09:22:33.403Z,24490,0.049031958,-0.14940843,-0.82903785
1732440153413,2024-11-24T09:22:33.413Z,24500,-0.02008389,-0.12667254,-0.8152595
1732440153417,2024-11-24T09:22:33.417Z,24504,-0.02008389,-0.12667254,-0.8152595
1732440153432,2024-11-24T09:22:33.432Z,24519,-0.062055275,-0.13219674,-0.8991249
1732440153435,2024-11-24T09:22:33.435Z,24522,-0.062055275,-0.13219674,-0.8991249
1732440153445,2024-11-24T09:22:33.445Z,24532,0.008691527,-0.182949,-0.82276976
1732440153448,2024-11-24T09:22:33.448Z,24535,0.008691527,-0.182949,-0.82276976
1732440153458,2024-11-24T09:22:33.458Z,24545,-0.008170194,-0.20128381,-0.8992462
1732440153461,2024-11-24T09:22:33.461Z,24548,-0.008170194,-0.20128381,-0.8992462
1732440153472,2024-11-24T09:22:33.472Z,24559,0.06701663,-0.1989189,-0.93079704
1732440153475,2024-11-24T09:22:33.475Z,24562,0.06701663,-0.1989189,-0.93079704
1732440153486,2024-11-24T09:22:33.486Z,24573,0.033411384,-0.15403226,-0.8639526
1732440153489,2024-11-24T09:22:33.489Z,24576,0.033411384,-0.15403226,-0.8639526
1732440153498,2024-11-24T09:22:33.498Z,24585,-0.0024349976,-0.13150531,-0.87061006
1732440153501,2024-11-24T09:22:33.501Z,24588,-0.0024349976,-0.13150531,-0.87061006
1732440153511,2024-11-24T09:22:33.511Z,24598,0.0037996992,-0.13001762,-0.8641107
1732440153515,2024-11-24T09:22:33.515Z,24602,0.0037996992,-0.13001762,-0.8641107
1732440153526,2024-11-24T09:22:33.526Z,24613,0.027561596,-0.13333756,-0.89708894
1732440153531,2024-11-24T09:22:33.531Z,24618,0.027561596,-0.13333756,-0.89708894
1732440153569,2024-11-24T09:22:33.569Z,24656,0.09935686,-0.14470309,-0.87349355
1732440153573,2024-11-24T09:22:33.573Z,24660,0.09935686,-0.14470309,-0.87349355
1732440153582,2024-11-24T09:22:33.582Z,24669,0.045848615,-0.13637616,-0.8523833
1732440153586,2024-11-24T09:22:33.586Z,24673,0.045848615,-0.13637616,-0.8523833
1732440153596,2024-11-24T09:22:33.596Z,24683,0.07109756,-0.16032118,-0.87638074
1732440153599,2024-11-24T09:22:33.599Z,24686,0.07109756,-0.16032118,-0.87638074
1732440153706,2024-11-24T09:22:33.706Z,24793,0.059748072,-0.19060707,-0.8782316
1732440153710,2024-11-24T09:22:33.710Z,24797,0.059748072,-0.19060707,-0.8782316
1732440153724,2024-11-24T09:22:33.724Z,24811,-0.0072136167,-0.17947055,-0.9052374
1732440153728,2024-11-24T09:22:33.728Z,24815,-0.0072136167,-0.17947055,-0.9052374
1732440153745,2024-11-24T09:22:33.745Z,24832,0.084198005,-0.18430986,-0.8779615
1732440153754,2024-11-24T09:22:33.754Z,24841,0.084198005,-0.18430986,-0.8779615
1732440153768,2024-11-24T09:22:33.768Z,24855,0.060727723,-0.19255431,-0.82402736
1732440153772,2024-11-24T09:22:33.772Z,24859,0.060727723,-0.19255431,-0.82402736
1732440153783,2024-11-24T09:22:33.783Z,24870,-0.024351813,-0.200998,-0.88531375
1732440153786,2024-11-24T09:22:33.786Z,24873,-0.024351813,-0.200998,-0.88531375
1732440153796,2024-11-24T09:22:33.796Z,24883,0.084687844,-0.2026216,-0.89542
1732440153799,2024-11-24T09:22:33.799Z,24886,0.084687844,-0.2026216,-0.89542
1732440153809,2024-11-24T09:22:33.809Z,24896,0.03058353,-0.13246924,-0.8495899
1732440153812,2024-11-24T09:22:33.812Z,24899,0.03058353,-0.13246924,-0.8495899
1732440153822,2024-11-24T09:22:33.822Z,24909,0.024362048,-0.16581577,-0.83910763
1732440153825,2024-11-24T09:22:33.825Z,24912,0.024362048,-0.16581577,-0.83910763
1732440153834,2024-11-24T09:22:33.834Z,24921,-0.03150004,-0.152022,-0.8508527
1732440153837,2024-11-24T09:22:33.837Z,24924,-0.03150004,-0.152022,-0.8508527
1732440153848,2024-11-24T09:22:33.848Z,24935,0.027110718,-0.1679963,-0.93609774
1732440153851,2024-11-24T09:22:33.851Z,24938,0.027110718,-0.1679963,-0.93609774
1732440153859,2024-11-24T09:22:33.859Z,24946,0.03696112,-0.15679872,-0.8742616
1732440153862,2024-11-24T09:22:33.862Z,24949,0.03696112,-0.15679872,-0.8742616
1732440153883,2024-11-24T09:22:33.883Z,24970,-0.05638351,-0.1372972,-0.8679734
1732440153886,2024-11-24T09:22:33.886Z,24973,-0.05638351,-0.1372972,-0.8679734
1732440153895,2024-11-24T09:22:33.895Z,24982,-0.048342314,-0.11591972,-0.8312966
1732440153897,2024-11-24T09:22:33.897Z,24984,-0.048342314,-0.11591972,-0.8312966
1732440153908,2024-11-24T09:22:33.908Z,24995,-0.02792575,-0.11353613,-0.88922465
1732440153911,2024-11-24T09:22:33.911Z,24998,-0.02792575,-0.11353613,-0.88922465
1732440153929,2024-11-24T09:22:33.929Z,25016,0.081801824,-0.12878734,-0.9184298
1732440153932,2024-11-24T09:22:33.932Z,25019,0.081801824,-0.12878734,-0.9184298
1732440153941,2024-11-24T09:22:33.941Z,25028,0.044923156,-0.1293416,-0.937899
1732440153944,2024-11-24T09:22:33.944Z,25031,0.044923156,-0.1293416,-0.937899
1732440153954,2024-11-24T09:22:33.954Z,25041,0.031758625,-0.13811363,-0.90297616
1732440153956,2024-11-24T09:22:33.956Z,25043,0.031758625,-0.13811363,-0.90297616
1732440153974,2024-11-24T09:22:33.974Z,25061,-0.019949956,-0.099847294,-0.821908
1732440153977,2024-11-24T09:22:33.977Z,25064,-0.019949956,-0.099847294,-0.821908
1732440153987,2024-11-24T09:22:33.987Z,25074,-0.064263016,-0.09557287,-0.7853994
1732440153990,2024-11-24T09:22:33.990Z,25077,-0.064263016,-0.09557287,-0.7853994
1732440154001,2024-11-24T09:22:34.001Z,25088,-0.04333679,-0.09465247,-0.88602275
1732440154004,2024-11-24T09:22:34.004Z,25091,-0.04333679,-0.09465247,-0.88602275
1732440154023,2024-11-24T09:22:34.023Z,25110,-0.022821827,-0.16381961,-0.8567343
1732440154029,2024-11-24T09:22:34.029Z,25116,-0.022821827,-0.16381961,-0.8567343
1732440154049,2024-11-24T09:22:34.049Z,25136,-0.07118017,-0.12825929,-0.8061756
1732440154052,2024-11-24T09:22:34.052Z,25139,-0.07118017,-0.12825929,-0.8061756
1732440154065,2024-11-24T09:22:34.065Z,25152,-0.08537413,-0.14463696,-0.87013394
1732440154069,2024-11-24T09:22:34.069Z,25156,-0.08537413,-0.14463696,-0.87013394
1732440154080,2024-11-24T09:22:34.080Z,25167,-0.0047774157,-0.16007154,-0.8673108
1732440154083,2024-11-24T09:22:34.083Z,25170,-0.0047774157,-0.16007154,-0.8673108
1732440154093,2024-11-24T09:22:34.093Z,25180,-0.054575514,-0.1951888,-0.8953669
1732440154096,2024-11-24T09:22:34.096Z,25183,-0.054575514,-0.1951888,-0.8953669
1732440154109,2024-11-24T09:22:34.109Z,25196,-0.008890265,-0.19416274,-0.90073705
1732440154113,2024-11-24T09:22:34.113Z,25200,-0.008890265,-0.19416274,-0.90073705
1732440154123,2024-11-24T09:22:34.123Z,25210,-0.081365414,-0.17842919,-0.8469206
1732440154126,2024-11-24T09:22:34.126Z,25213,-0.081365414,-0.17842919,-0.8469206
1732440154139,2024-11-24T09:22:34.139Z,25226,-0.089555375,-0.161488,-0.89492285
1732440154143,2024-11-24T09:22:34.143Z,25230,-0.089555375,-0.161488,-0.89492285
1732440154155,2024-11-24T09:22:34.155Z,25242,-0.046415433,-0.16265395,-0.9300722
1732440154158,2024-11-24T09:22:34.158Z,25245,-0.046415433,-0.16265395,-0.9300722
1732440154170,2024-11-24T09:22:34.170Z,25257,-0.09549713,-0.16296455,-0.91159326
1732440154173,2024-11-24T09:22:34.173Z,25260,-0.09549713,-0.16296455,-0.91159326
1732440154181,2024-11-24T09:22:34.181Z,25268,-0.10692544,-0.19008996,-0.86662483
1732440154185,2024-11-24T09:22:34.185Z,25272,-0.10692544,-0.19008996,-0.86662483
1732440154195,2024-11-24T09:22:34.195Z,25282,-0.121837966,-0.18704227,-0.8127646
1732440154199,2024-11-24T09:22:34.199Z,25286,-0.121837966,-0.18704227,-0.8127646
1732440154209,2024-11-24T09:22:34.209Z,25296,-0.024873145,-0.15291716,-0.8921768
1732440154213,2024-11-24T09:22:34.213Z,25300,-0.024873145,-0.15291716,-0.8921768
1732440154224,2024-11-24T09:22:34.224Z,25311,-0.11740089,-0.09320007,-0.8923742
1732440154227,2024-11-24T09:22:34.227Z,25314,-0.11740089,-0.09320007,-0.8923742
1732440154238,2024-11-24T09:22:34.238Z,25325,-0.1045932,-0.11834556,-0.9180461
1732440154241,2024-11-24T09:22:34.241Z,25328,-0.1045932,-0.11834556,-0.9180461
1732440154252,2024-11-24T09:22:34.252Z,25339,-0.049960893,-0.089132294,-0.84903437
1732440154255,2024-11-24T09:22:34.255Z,25342,-0.049960893,-0.089132294,-0.84903437
1732440154268,2024-11-24T09:22:34.268Z,25355,-0.017486598,-0.11195405,-0.90241987
1732440154275,2024-11-24T09:22:34.275Z,25362,-0.017486598,-0.11195405,-0.90241987
1732440154297,2024-11-24T09:22:34.297Z,25384,0.023002367,-0.09561308,-0.8330244
1732440154304,2024-11-24T09:22:34.304Z,25391,0.023002367,-0.09561308,-0.8330244
1732440154336,2024-11-24T09:22:34.336Z,25423,0.049835928,-0.11938713,-0.883874
1732440154342,2024-11-24T09:22:34.342Z,25429,0.049835928,-0.11938713,-0.883874
1732440154358,2024-11-24T09:22:34.358Z,25445,0.0054386025,-0.07168625,-0.83363307
1732440154363,2024-11-24T09:22:34.363Z,25450,0.0054386025,-0.07168625,-0.83363307
1732440154380,2024-11-24T09:22:34.380Z,25467,-0.09692864,-0.059170566,-0.87304926
1732440154383,2024-11-24T09:22:34.383Z,25470,-0.09692864,-0.059170566,-0.87304926
1732440154394,2024-11-24T09:22:34.394Z,25481,0.042978372,-0.1635301,-0.8251138
1732440154399,2024-11-24T09:22:34.399Z,25486,0.042978372,-0.1635301,-0.8251138
1732440154418,2024-11-24T09:22:34.418Z,25505,0.026597105,-0.16030614,-0.87171084
1732440154428,2024-11-24T09:22:34.428Z,25515,0.026597105,-0.16030614,-0.87171084
1732440154451,2024-11-24T09:22:34.451Z,25538,0.019726468,-0.14142993,-0.85016364
1732440154459,2024-11-24T09:22:34.459Z,25546,0.019726468,-0.14142993,-0.85016364
1732440154479,2024-11-24T09:22:34.479Z,25566,-0.016961545,-0.17989247,-0.83718234
1732440154483,2024-11-24T09:22:34.483Z,25570,-0.016961545,-0.17989247,-0.83718234
1732440154496,2024-11-24T09:22:34.496Z,25583,-0.0029027592,-0.16673237,-0.8904515
1732440154500,2024-11-24T09:22:34.500Z,25587,-0.0029027592,-0.16673237,-0.8904515
1732440154512,2024-11-24T09:22:34.512Z,25599,0.027582198,-0.15097056,-0.89456356
1732440154517,2024-11-24T09:22:34.517Z,25604,0.027582198,-0.15097056,-0.89456356
1732440154527,2024-11-24T09:22:34.527Z,25614,-0.09150367,-0.17552614,-0.84420705
1732440154531,2024-11-24T09:22:34.531Z,25618,-0.09150367,-0.17552614,-0.84420705
1732440154541,2024-11-24T09:22:34.541Z,25628,-0.038888145,-0.19358596,-0.83721316
1732440154544,2024-11-24T09:22:34.544Z,25631,-0.038888145,-0.19358596,-0.83721316
1732440154555,2024-11-24T09:22:34.555Z,25642,-0.023713855,-0.194535,-0.80460316
1732440154557,2024-11-24T09:22:34.557Z,25644,-0.023713855,-0.194535,-0.80460316
1732440154567,2024-11-24T09:22:34.567Z,25654,0.017805375,-0.22002943,-0.8356883
1732440154570,2024-11-24T09:22:34.570Z,25657,0.017805375,-0.22002943,-0.8356883
1732440154580,2024-11-24T09:22:34.580Z,25667,-0.040716354,-0.22094029,-0.8264902
1732440154583,2024-11-24T09:22:34.583Z,25670,-0.040716354,-0.22094029,-0.8264902
1732440154593,2024-11-24T09:22:34.593Z,25680,-0.0649453,-0.22076733,-0.8263912
1732440154596,2024-11-24T09:22:34.596Z,25683,-0.0649453,-0.22076733,-0.8263912
1732440154607,2024-11-24T09:22:34.607Z,25694,-0.026153933,-0.24196467,-0.81787664
1732440154609,2024-11-24T09:22:34.609Z,25696,-0.026153933,-0.24196467,-0.81787664
1732440154618,2024-11-24T09:22:34.618Z,25705,-0.084407456,-0.1988605,-0.8075069
1732440154622,2024-11-24T09:22:34.622Z,25709,-0.084407456,-0.1988605,-0.8075069
1732440154632,2024-11-24T09:22:34.632Z,25719,-0.046375163,-0.23048627,-0.81877404
1732440154636,2024-11-24T09:22:34.636Z,25723,-0.046375163,-0.23048627,-0.81877404
1732440154701,2024-11-24T09:22:34.701Z,25788,-0.13303776,-0.17893745,-0.85494065
1732440154709,2024-11-24T09:22:34.709Z,25796,-0.13303776,-0.17893745,-0.85494065
1732440154744,2024-11-24T09:22:34.744Z,25831,-0.11855679,-0.18197921,-0.8806892
1732440154751,2024-11-24T09:22:34.751Z,25838,-0.11855679,-0.18197921,-0.8806892
1732440154772,2024-11-24T09:22:34.772Z,25859,-0.13284825,-0.16680463,-0.8502243
1732440154776,2024-11-24T09:22:34.776Z,25863,-0.13284825,-0.16680463,-0.8502243
1732440154790,2024-11-24T09:22:34.790Z,25877,-0.10850876,-0.14665301,-0.8801556
1732440154795,2024-11-24T09:22:34.795Z,25882,-0.10850876,-0.14665301,-0.8801556
1732440154807,2024-11-24T09:22:34.807Z,25894,-0.09302026,-0.14401147,-0.89285177
1732440154811,2024-11-24T09:22:34.811Z,25898,-0.09302026,-0.14401147,-0.89285177
1732440154823,2024-11-24T09:22:34.823Z,25910,-0.107200384,-0.10996485,-0.9345885
1732440154826,2024-11-24T09:22:34.826Z,25913,-0.107200384,-0.10996485,-0.9345885
1732440154837,2024-11-24T09:22:34.837Z,25924,-0.13153353,-0.17405838,-0.81389683
1732440154840,2024-11-24T09:22:34.840Z,25927,-0.13153353,-0.17405838,-0.81389683
1732440154849,2024-11-24T09:22:34.849Z,25936,-0.12657303,-0.17818509,-0.8607259
1732440154852,2024-11-24T09:22:34.852Z,25939,-0.12657303,-0.17818509,-0.8607259
1732440154872,2024-11-24T09:22:34.872Z,25959,-0.1436048,-0.16343145,-0.8648704
1732440154875,2024-11-24T09:22:34.875Z,25962,-0.1436048,-0.16343145,-0.8648704
1732440154884,2024-11-24T09:22:34.884Z,25971,-0.08724688,-0.23804091,-0.8300166
1732440154887,2024-11-24T09:22:34.887Z,25974,-0.08724688,-0.23804091,-0.8300166
1732440154895,2024-11-24T09:22:34.895Z,25982,-0.16778219,-0.21861622,-0.76201355
1732440154897,2024-11-24T09:22:34.897Z,25984,-0.16778219,-0.21861622,-0.76201355
1732440154970,2024-11-24T09:22:34.970Z,26057,-0.17625645,-0.21600331,-0.76515615
1732440154979,2024-11-24T09:22:34.979Z,26066,-0.17625645,-0.21600331,-0.76515615
1732440155002,2024-11-24T09:22:35.002Z,26089,-0.17430525,-0.20777592,-0.81909436
1732440155009,2024-11-24T09:22:35.009Z,26096,-0.17430525,-0.20777592,-0.81909436
1732440155023,2024-11-24T09:22:35.023Z,26110,-0.211274,-0.23093288,-0.9094059
1732440155028,2024-11-24T09:22:35.028Z,26115,-0.211274,-0.23093288,-0.9094059
1732440155152,2024-11-24T09:22:35.152Z,26239,-0.086849086,-0.23185289,-1.0150331
1732440155161,2024-11-24T09:22:35.161Z,26248,-0.086849086,-0.23185289,-1.0150331
1732440155189,2024-11-24T09:22:35.189Z,26276,-0.19466777,-0.24418278,-0.7628221
1732440155195,2024-11-24T09:22:35.195Z,26282,-0.19466777,-0.24418278,-0.7628221
1732440155218,2024-11-24T09:22:35.218Z,26305,-0.24829648,-0.18050143,-0.81870246
1732440155223,2024-11-24T09:22:35.223Z,26310,-0.24829648,-0.18050143,-0.81870246
1732440155239,2024-11-24T09:22:35.239Z,26326,-0.22407475,-0.19437611,-0.8281349
1732440155243,2024-11-24T09:22:35.243Z,26330,-0.22407475,-0.19437611,-0.8281349
1732440155257,2024-11-24T09:22:35.257Z,26344,-0.13635245,-0.19407761,-0.7912031
1732440155261,2024-11-24T09:22:35.261Z,26348,-0.13635245,-0.19407761,-0.7912031
1732440155273,2024-11-24T09:22:35.273Z,26360,-0.10376608,-0.17479911,-0.81375945
1732440155277,2024-11-24T09:22:35.277Z,26364,-0.10376608,-0.17479911,-0.81375945
1732440155289,2024-11-24T09:22:35.289Z,26376,-0.11870931,-0.17307205,-0.8046051
1732440155292,2024-11-24T09:22:35.292Z,26379,-0.11870931,-0.17307205,-0.8046051
1732440155303,2024-11-24T09:22:35.303Z,26390,-0.14419796,-0.13516732,-0.89278656
1732440155307,2024-11-24T09:22:35.307Z,26394,-0.14419796,-0.13516732,-0.89278656
1732440155318,2024-11-24T09:22:35.318Z,26405,-0.06340546,-0.16041239,-0.9073839
1732440155325,2024-11-24T09:22:35.325Z,26412,-0.06340546,-0.16041239,-0.9073839
1732440155334,2024-11-24T09:22:35.334Z,26421,-0.05211133,-0.18150105,-0.9128619
1732440155337,2024-11-24T09:22:35.337Z,26424,-0.05211133,-0.18150105,-0.9128619
1732440155348,2024-11-24T09:22:35.348Z,26435,-0.096348055,-0.14101356,-0.93196464
1732440155351,2024-11-24T09:22:35.351Z,26438,-0.096348055,-0.14101356,-0.93196464
1732440155359,2024-11-24T09:22:35.359Z,26446,-0.0881401,-0.15226361,-0.9226848
1732440155361,2024-11-24T09:22:35.361Z,26448,-0.0881401,-0.15226361,-0.9226848
1732440155371,2024-11-24T09:22:35.371Z,26458,-0.095397264,-0.15443103,-0.8621325
1732440155374,2024-11-24T09:22:35.374Z,26461,-0.095397264,-0.15443103,-0.8621325
1732440155382,2024-11-24T09:22:35.382Z,26469,-0.05440047,-0.1475419,-0.83475834
1732440155385,2024-11-24T09:22:35.385Z,26472,-0.05440047,-0.1475419,-0.83475834
1732440155394,2024-11-24T09:22:35.394Z,26481,-0.06415225,-0.15621737,-0.82913244
1732440155396,2024-11-24T09:22:35.396Z,26483,-0.06415225,-0.15621737,-0.82913244
1732440155405,2024-11-24T09:22:35.405Z,26492,-0.09155547,-0.15873934,-0.8257596
1732440155407,2024-11-24T09:22:35.407Z,26494,-0.09155547,-0.15873934,-0.8257596
1732440155417,2024-11-24T09:22:35.417Z,26504,-0.11555199,-0.1317249,-0.8408327
1732440155420,2024-11-24T09:22:35.420Z,26507,-0.11555199,-0.1317249,-0.8408327
1732440155432,2024-11-24T09:22:35.432Z,26519,-0.07657353,-0.1640884,-0.8525715
1732440155434,2024-11-24T09:22:35.434Z,26521,-0.07657353,-0.1640884,-0.8525715
1732440155443,2024-11-24T09:22:35.443Z,26530,-0.0838341,-0.16241044,-0.85318476
1732440155445,2024-11-24T09:22:35.445Z,26532,-0.0838341,-0.16241044,-0.85318476
1732440155453,2024-11-24T09:22:35.453Z,26540,-0.114992484,-0.17056179,-0.8421762
1732440155456,2024-11-24T09:22:35.456Z,26543,-0.114992484,-0.17056179,-0.8421762
1732440155465,2024-11-24T09:22:35.465Z,26552,-0.1669459,-0.16274688,-0.8845596
1732440155468,2024-11-24T09:22:35.468Z,26555,-0.1669459,-0.16274688,-0.8845596
1732440155477,2024-11-24T09:22:35.477Z,26564,-0.041021883,-0.17570329,-0.8395266
1732440155481,2024-11-24T09:22:35.481Z,26568,-0.041021883,-0.17570329,-0.8395266
1732440155490,2024-11-24T09:22:35.490Z,26577,-0.047125634,-0.18971127,-0.86519676
1732440155493,2024-11-24T09:22:35.493Z,26580,-0.047125634,-0.18971127,-0.86519676
1732440155502,2024-11-24T09:22:35.502Z,26589,-0.060877483,-0.20858414,-0.8854531
1732440155505,2024-11-24T09:22:35.505Z,26592,-0.060877483,-0.20858414,-0.8854531
1732440155515,2024-11-24T09:22:35.515Z,26602,-0.07282762,-0.19487746,-0.85153097
1732440155518,2024-11-24T09:22:35.518Z,26605,-0.07282762,-0.19487746,-0.85153097
1732440155527,2024-11-24T09:22:35.527Z,26614,-0.09744537,-0.19101542,-0.77068573
1732440155529,2024-11-24T09:22:35.529Z,26616,-0.09744537,-0.19101542,-0.77068573
1732440155538,2024-11-24T09:22:35.538Z,26625,-0.08596287,-0.19604716,-0.8400127
1732440155541,2024-11-24T09:22:35.541Z,26628,-0.08596287,-0.19604716,-0.8400127
1732440155550,2024-11-24T09:22:35.550Z,26637,-0.036221247,-0.2288338,-0.8456752
1732440155552,2024-11-24T09:22:35.552Z,26639,-0.036221247,-0.2288338,-0.8456752
1732440155561,2024-11-24T09:22:35.561Z,26648,-0.056697145,-0.21315168,-0.80591154
1732440155564,2024-11-24T09:22:35.564Z,26651,-0.056697145,-0.21315168,-0.80591154
1732440155573,2024-11-24T09:22:35.573Z,26660,-0.046403717,-0.21954532,-0.78613067
1732440155575,2024-11-24T09:22:35.575Z,26662,-0.046403717,-0.21954532,-0.78613067
1732440155591,2024-11-24T09:22:35.591Z,26678,-0.07871986,-0.19898395,-0.76675415
1732440155594,2024-11-24T09:22:35.594Z,26681,-0.07871986,-0.19898395,-0.76675415
1732440155603,2024-11-24T09:22:35.603Z,26690,-0.07622286,-0.18349332,-0.8025317
1732440155605,2024-11-24T09:22:35.605Z,26692,-0.07622286,-0.18349332,-0.8025317
1732440155613,2024-11-24T09:22:35.613Z,26700,-0.087548494,-0.19630317,-0.8375968
1732440155615,2024-11-24T09:22:35.615Z,26702,-0.087548494,-0.19630317,-0.8375968
1732440155624,2024-11-24T09:22:35.624Z,26711,-0.037823115,-0.18452291,-0.8377572
1732440155626,2024-11-24T09:22:35.626Z,26713,-0.037823115,-0.18452291,-0.8377572
1732440155777,2024-11-24T09:22:35.777Z,26864,-0.09263295,-0.16679966,-0.8207916
1732440155784,2024-11-24T09:22:35.784Z,26871,-0.09263295,-0.16679966,-0.8207916
1732440155806,2024-11-24T09:22:35.806Z,26893,-0.08765386,-0.16543344,-0.80598634
1732440155813,2024-11-24T09:22:35.813Z,26900,-0.08765386,-0.16543344,-0.80598634
1732440155827,2024-11-24T09:22:35.827Z,26914,-0.12651259,-0.14339341,-0.795323
1732440155833,2024-11-24T09:22:35.833Z,26920,-0.12651259,-0.14339341,-0.795323
1732440155865,2024-11-24T09:22:35.865Z,26952,-0.131024,-0.14949279,-0.8666346
1732440155869,2024-11-24T09:22:35.869Z,26956,-0.131024,-0.14949279,-0.8666346
1732440155911,2024-11-24T09:22:35.911Z,26998,-0.048933227,-0.17004716,-0.82961404
1732440155919,2024-11-24T09:22:35.919Z,27006,-0.048933227,-0.17004716,-0.82961404
1732440155936,2024-11-24T09:22:35.936Z,27023,-0.11352659,-0.15442485,-0.809518
1732440155941,2024-11-24T09:22:35.941Z,27028,-0.11352659,-0.15442485,-0.809518
1732440155956,2024-11-24T09:22:35.956Z,27043,-0.10306213,-0.14770645,-0.7545357
1732440155960,2024-11-24T09:22:35.960Z,27047,-0.10306213,-0.14770645,-0.7545357
1732440155976,2024-11-24T09:22:35.976Z,27063,-0.108931966,-0.27784815,-0.7131319
1732440155980,2024-11-24T09:22:35.980Z,27067,-0.108931966,-0.27784815,-0.7131319
1732440155992,2024-11-24T09:22:35.992Z,27079,-0.0895073,-0.3073038,-0.7326167
1732440155997,2024-11-24T09:22:35.997Z,27084,-0.0895073,-0.3073038,-0.7326167
1732440156006,2024-11-24T09:22:36.006Z,27093,-0.15104316,-0.3927398,-0.8347291
1732440156009,2024-11-24T09:22:36.009Z,27096,-0.15104316,-0.3927398,-0.8347291
1732440156018,2024-11-24T09:22:36.018Z,27105,-0.21362092,-0.37306106,-0.8472378
1732440156021,2024-11-24T09:22:36.021Z,27108,-0.21362092,-0.37306106,-0.8472378
1732440156029,2024-11-24T09:22:36.029Z,27116,-0.19963612,-0.36175916,-0.8025798
1732440156032,2024-11-24T09:22:36.032Z,27119,-0.19963612,-0.36175916,-0.8025798
1732440156044,2024-11-24T09:22:36.044Z,27131,-0.16827744,-0.33156365,-0.7895007
1732440156050,2024-11-24T09:22:36.050Z,27137,-0.16827744,-0.33156365,-0.7895007
1732440156058,2024-11-24T09:22:36.058Z,27145,-0.12005939,-0.33749947,-0.7978569
1732440156060,2024-11-24T09:22:36.060Z,27147,-0.12005939,-0.33749947,-0.7978569
1732440156069,2024-11-24T09:22:36.069Z,27156,-0.076422356,-0.32168663,-0.76370645
1732440156072,2024-11-24T09:22:36.072Z,27159,-0.076422356,-0.32168663,-0.76370645
1732440156088,2024-11-24T09:22:36.088Z,27175,-0.08997988,-0.31509757,-0.70689136
1732440156092,2024-11-24T09:22:36.092Z,27179,-0.08997988,-0.31509757,-0.70689136
1732440156134,2024-11-24T09:22:36.134Z,27221,-0.12131793,-0.27912444,-0.66518885
1732440156137,2024-11-24T09:22:36.137Z,27224,-0.12131793,-0.27912444,-0.66518885
1732440156146,2024-11-24T09:22:36.146Z,27233,-0.1710546,-0.26076344,-0.7007766
1732440156149,2024-11-24T09:22:36.149Z,27236,-0.1710546,-0.26076344,-0.7007766
1732440156158,2024-11-24T09:22:36.158Z,27245,0.063324615,-0.29403305,-0.76720434
1732440156161,2024-11-24T09:22:36.161Z,27248,0.063324615,-0.29403305,-0.76720434
1732440156179,2024-11-24T09:22:36.179Z,27266,-0.029843476,-0.2582071,-0.7301807
1732440156182,2024-11-24T09:22:36.182Z,27269,-0.029843476,-0.2582071,-0.7301807
1732440156224,2024-11-24T09:22:36.224Z,27311,-0.10853397,-0.23066308,-0.70781034
1732440156228,2024-11-24T09:22:36.228Z,27315,-0.10853397,-0.23066308,-0.70781034
1732440156238,2024-11-24T09:22:36.238Z,27325,-0.073491365,-0.24202083,-0.66448885
1732440156241,2024-11-24T09:22:36.241Z,27328,-0.073491365,-0.24202083,-0.66448885
1732440156269,2024-11-24T09:22:36.269Z,27356,-0.00796223,-0.23050742,-0.784993
1732440156273,2024-11-24T09:22:36.273Z,27360,-0.00796223,-0.23050742,-0.784993
1732440156284,2024-11-24T09:22:36.284Z,27371,0.108187914,-0.27238908,-0.819297
1732440156288,2024-11-24T09:22:36.288Z,27375,0.108187914,-0.27238908,-0.819297
1732440156299,2024-11-24T09:22:36.299Z,27386,0.058598652,-0.2511716,-0.82085705
1732440156303,2024-11-24T09:22:36.303Z,27390,0.058598652,-0.2511716,-0.82085705
1732440156314,2024-11-24T09:22:36.314Z,27401,-0.08331637,-0.22449158,-0.75139916
1732440156317,2024-11-24T09:22:36.317Z,27404,-0.08331637,-0.22449158,-0.75139916
1732440156330,2024-11-24T09:22:36.330Z,27417,-0.011008538,-0.18590564,-0.69575346
1732440156338,2024-11-24T09:22:36.338Z,27425,-0.011008538,-0.18590564,-0.69575346
1732440156359,2024-11-24T09:22:36.359Z,27446,0.009830383,-0.18027033,-0.72094196
1732440156365,2024-11-24T09:22:36.365Z,27452,0.009830383,-0.18027033,-0.72094196
1732440156381,2024-11-24T09:22:36.381Z,27468,0.09009714,-0.19614767,-0.7969942
1732440156385,2024-11-24T09:22:36.385Z,27472,0.09009714,-0.19614767,-0.7969942
1732440156398,2024-11-24T09:22:36.398Z,27485,0.15740487,-0.18749613,-0.83325905
1732440156401,2024-11-24T09:22:36.401Z,27488,0.15740487,-0.18749613,-0.83325905
1732440156412,2024-11-24T09:22:36.412Z,27499,0.14645067,-0.17727529,-0.7314064
1732440156415,2024-11-24T09:22:36.415Z,27502,0.14645067,-0.17727529,-0.7314064
1732440156425,2024-11-24T09:22:36.425Z,27512,0.05679551,-0.15760218,-0.7069027
1732440156428,2024-11-24T09:22:36.428Z,27515,0.05679551,-0.15760218,-0.7069027
1732440156451,2024-11-24T09:22:36.451Z,27538,0.11667611,-0.18581052,-0.71577793
1732440156454,2024-11-24T09:22:36.454Z,27541,0.11667611,-0.18581052,-0.71577793
1732440156463,2024-11-24T09:22:36.463Z,27550,0.10011155,-0.1513717,-0.7375455
1732440156466,2024-11-24T09:22:36.466Z,27553,0.10011155,-0.1513717,-0.7375455
1732440156474,2024-11-24T09:22:36.474Z,27561,0.1328998,-0.15162192,-0.73566455
1732440156477,2024-11-24T09:22:36.477Z,27564,0.1328998,-0.15162192,-0.73566455
1732440156494,2024-11-24T09:22:36.494Z,27581,0.23007552,-0.15162368,-0.7509845
1732440156497,2024-11-24T09:22:36.497Z,27584,0.23007552,-0.15162368,-0.7509845
1732440156543,2024-11-24T09:22:36.543Z,27630,0.14415546,-0.13013913,-0.7629139
1732440156550,2024-11-24T09:22:36.550Z,27637,0.14415546,-0.13013913,-0.7629139
1732440156572,2024-11-24T09:22:36.572Z,27659,0.11271869,-0.08927111,-0.7913097
1732440156577,2024-11-24T09:22:36.577Z,27664,0.11271869,-0.08927111,-0.7913097
1732440156595,2024-11-24T09:22:36.595Z,27682,0.22793761,-0.09188338,-0.8348617
1732440156600,2024-11-24T09:22:36.600Z,27687,0.22793761,-0.09188338,-0.8348617
1732440156613,2024-11-24T09:22:36.613Z,27700,0.2218808,-0.09605876,-0.817693
1732440156617,2024-11-24T09:22:36.617Z,27704,0.2218808,-0.09605876,-0.817693
1732440156630,2024-11-24T09:22:36.630Z,27717,0.117292926,-0.081932366,-0.7378863
1732440156634,2024-11-24T09:22:36.634Z,27721,0.117292926,-0.081932366,-0.7378863
1732440156643,2024-11-24T09:22:36.643Z,27730,0.0128321275,-0.047632758,-0.76108325
1732440156646,2024-11-24T09:22:36.646Z,27733,0.0128321275,-0.047632758,-0.76108325
1732440156656,2024-11-24T09:22:36.656Z,27743,0.20165841,-0.10886181,-0.7085837
1732440156659,2024-11-24T09:22:36.659Z,27746,0.20165841,-0.10886181,-0.7085837
1732440156669,2024-11-24T09:22:36.669Z,27756,0.12464027,-0.055667024,-0.85068166
1732440156672,2024-11-24T09:22:36.672Z,27759,0.12464027,-0.055667024,-0.85068166
1732440156681,2024-11-24T09:22:36.681Z,27768,0.106746726,-0.019754123,-0.75380224
1732440156683,2024-11-24T09:22:36.683Z,27770,0.106746726,-0.019754123,-0.75380224
1732440156692,2024-11-24T09:22:36.692Z,27779,0.03779936,0.012789436,-0.79486555
1732440156694,2024-11-24T09:22:36.694Z,27781,0.03779936,0.012789436,-0.79486555
1732440156701,2024-11-24T09:22:36.701Z,27788,0.13503034,-0.043232445,-0.7980299
1732440156704,2024-11-24T09:22:36.704Z,27791,0.13503034,-0.043232445,-0.7980299
1732440156719,2024-11-24T09:22:36.719Z,27806,0.23067659,-0.10813372,-0.77692103
1732440156723,2024-11-24T09:22:36.723Z,27810,0.23067659,-0.10813372,-0.77692103
1732440156732,2024-11-24T09:22:36.732Z,27819,-0.1553432,0.025482304,-0.8883192
1732440156735,2024-11-24T09:22:36.735Z,27822,-0.1553432,0.025482304,-0.8883192
1732440156745,2024-11-24T09:22:36.745Z,27832,-0.06118729,0.015554189,-0.76036316
1732440156747,2024-11-24T09:22:36.747Z,27834,-0.06118729,0.015554189,-0.76036316
1732440156762,2024-11-24T09:22:36.762Z,27849,-0.024615707,0.010998813,-0.6308209
1732440156765,2024-11-24T09:22:36.765Z,27852,-0.024615707,0.010998813,-0.6308209
1732440156774,2024-11-24T09:22:36.774Z,27861,-0.07293435,0.11066673,-0.75757664
1732440156778,2024-11-24T09:22:36.778Z,27865,-0.07293435,0.11066673,-0.75757664
1732440156793,2024-11-24T09:22:36.793Z,27880,-0.014078771,0.13061759,-0.95872146
1732440156797,2024-11-24T09:22:36.797Z,27884,-0.014078771,0.13061759,-0.95872146
1732440156807,2024-11-24T09:22:36.807Z,27894,0.22933167,0.06315748,-0.79472303
1732440156810,2024-11-24T09:22:36.810Z,27897,0.22933167,0.06315748,-0.79472303
1732440156852,2024-11-24T09:22:36.852Z,27939,0.08935767,0.14732388,-0.7637216
1732440156855,2024-11-24T09:22:36.855Z,27942,0.08935767,0.14732388,-0.7637216
1732440156862,2024-11-24T09:22:36.862Z,27949,-0.11776004,0.1933925,-0.75465226
1732440156865,2024-11-24T09:22:36.865Z,27952,-0.11776004,0.1933925,-0.75465226
1732440156873,2024-11-24T09:22:36.873Z,27960,-0.06301562,0.18998386,-0.82706165
1732440156876,2024-11-24T09:22:36.876Z,27963,-0.06301562,0.18998386,-0.82706165
1732440156883,2024-11-24T09:22:36.883Z,27970,-0.052268773,0.13555427,-0.6859473
1732440156885,2024-11-24T09:22:36.885Z,27972,-0.052268773,0.13555427,-0.6859473
1732440156901,2024-11-24T09:22:36.901Z,27988,-0.113069095,0.14519249,-0.7700578
1732440156905,2024-11-24T09:22:36.905Z,27992,-0.113069095,0.14519249,-0.7700578
1732440156913,2024-11-24T09:22:36.913Z,28000,-0.04489696,0.13762419,-0.7850712
1732440156916,2024-11-24T09:22:36.916Z,28003,-0.04489696,0.13762419,-0.7850712
1732440156947,2024-11-24T09:22:36.947Z,28034,-0.024499957,0.09456096,-0.8022781
1732440156954,2024-11-24T09:22:36.954Z,28041,-0.024499957,0.09456096,-0.8022781
1732440156977,2024-11-24T09:22:36.977Z,28064,0.12021802,-0.040221266,-0.8052508
1732440156984,2024-11-24T09:22:36.984Z,28071,0.12021802,-0.040221266,-0.8052508
1732440157004,2024-11-24T09:22:37.004Z,28091,0.05983408,-0.07183883,-0.7833006
1732440157011,2024-11-24T09:22:37.011Z,28098,0.05983408,-0.07183883,-0.7833006
1732440157023,2024-11-24T09:22:37.023Z,28110,-0.06464445,-0.1000254,-0.75157994
1732440157027,2024-11-24T09:22:37.027Z,28114,-0.06464445,-0.1000254,-0.75157994
1732440157042,2024-11-24T09:22:37.042Z,28129,-0.07031105,-0.20971665,-0.78061074
1732440157046,2024-11-24T09:22:37.046Z,28133,-0.07031105,-0.20971665,-0.78061074
1732440157058,2024-11-24T09:22:37.058Z,28145,-0.08822388,-0.23000923,-0.8502924
1732440157061,2024-11-24T09:22:37.061Z,28148,-0.08822388,-0.23000923,-0.8502924
1732440157071,2024-11-24T09:22:37.071Z,28158,0.02949353,-0.27334923,-0.8121182
1732440157074,2024-11-24T09:22:37.074Z,28161,0.02949353,-0.27334923,-0.8121182
1732440157085,2024-11-24T09:22:37.085Z,28172,0.11309308,-0.25478494,-0.8514523
1732440157088,2024-11-24T09:22:37.088Z,28175,0.11309308,-0.25478494,-0.8514523
1732440157097,2024-11-24T09:22:37.097Z,28184,0.05233703,-0.24773534,-0.8458957
1732440157099,2024-11-24T09:22:37.099Z,28186,0.05233703,-0.24773534,-0.8458957
1732440157108,2024-11-24T09:22:37.108Z,28195,-0.010760034,-0.21070905,-0.81401986
1732440157110,2024-11-24T09:22:37.110Z,28197,-0.010760034,-0.21070905,-0.81401986
1732440157118,2024-11-24T09:22:37.118Z,28205,0.05575266,-0.14376412,-0.7903913
1732440157120,2024-11-24T09:22:37.120Z,28207,0.05575266,-0.14376412,-0.7903913
1732440157129,2024-11-24T09:22:37.129Z,28216,0.06913249,-0.124617405,-0.78688425
1732440157131,2024-11-24T09:22:37.131Z,28218,0.06913249,-0.124617405,-0.78688425
1732440157140,2024-11-24T09:22:37.140Z,28227,0.07071252,-0.12274247,-0.78941953
1732440157143,2024-11-24T09:22:37.143Z,28230,0.07071252,-0.12274247,-0.78941953
1732440157167,2024-11-24T09:22:37.167Z,28254,0.03400107,-0.04839027,-0.77046245
1732440157170,2024-11-24T09:22:37.170Z,28257,0.03400107,-0.04839027,-0.77046245
1732440157215,2024-11-24T09:22:37.215Z,28302,0.083498605,-0.07436912,-0.8209797
1732440157219,2024-11-24T09:22:37.219Z,28306,0.083498605,-0.07436912,-0.8209797
1732440157232,2024-11-24T09:22:37.232Z,28319,0.09767465,-0.094684266,-0.84714884
1732440157236,2024-11-24T09:22:37.236Z,28323,0.09767465,-0.094684266,-0.84714884
1732440157248,2024-11-24T09:22:37.248Z,28335,0.13834153,-0.13401979,-0.8014423
1732440157251,2024-11-24T09:22:37.251Z,28338,0.13834153,-0.13401979,-0.8014423
1732440157262,2024-11-24T09:22:37.262Z,28349,0.087970674,-0.15051378,-0.74374676
1732440157266,2024-11-24T09:22:37.266Z,28353,0.087970674,-0.15051378,-0.74374676
1732440157276,2024-11-24T09:22:37.276Z,28363,0.043116152,-0.14036094,-0.7288223
1732440157279,2024-11-24T09:22:37.279Z,28366,0.043116152,-0.14036094,-0.7288223
1732440157288,2024-11-24T09:22:37.288Z,28375,0.03070075,-0.16997452,-0.7579969
1732440157292,2024-11-24T09:22:37.292Z,28379,0.03070075,-0.16997452,-0.7579969
1732440157305,2024-11-24T09:22:37.305Z,28392,0.096305385,-0.13736823,-0.78421587
1732440157308,2024-11-24T09:22:37.308Z,28395,0.096305385,-0.13736823,-0.78421587
1732440157316,2024-11-24T09:22:37.316Z,28403,0.14465944,-0.14619842,-0.77436763
1732440157318,2024-11-24T09:22:37.318Z,28405,0.14465944,-0.14619842,-0.77436763
1732440157328,2024-11-24T09:22:37.328Z,28415,0.104424424,-0.13704032,-0.7919041
1732440157330,2024-11-24T09:22:37.330Z,28417,0.104424424,-0.13704032,-0.7919041
1732440157349,2024-11-24T09:22:37.349Z,28436,0.06402747,-0.12917453,-0.70343786
1732440157352,2024-11-24T09:22:37.352Z,28439,0.06402747,-0.12917453,-0.70343786
1732440157361,2024-11-24T09:22:37.361Z,28448,0.035322655,-0.10147469,-0.7077185
1732440157364,2024-11-24T09:22:37.364Z,28451,0.035322655,-0.10147469,-0.7077185
1732440157392,2024-11-24T09:22:37.392Z,28479,0.043811847,-0.12902087,-0.74577904
1732440157394,2024-11-24T09:22:37.394Z,28481,0.043811847,-0.12902087,-0.74577904
1732440157407,2024-11-24T09:22:37.407Z,28494,0.1038758,-0.12821752,-0.7802944
1732440157414,2024-11-24T09:22:37.414Z,28501,0.1038758,-0.12821752,-0.7802944
1732440157438,2024-11-24T09:22:37.438Z,28525,0.07130186,-0.1344577,-0.73450214
1732440157446,2024-11-24T09:22:37.446Z,28533,0.07130186,-0.1344577,-0.73450214
1732440157467,2024-11-24T09:22:37.467Z,28554,0.034790784,-0.12950964,-0.76691395
1732440157473,2024-11-24T09:22:37.473Z,28560,0.034790784,-0.12950964,-0.76691395
1732440157487,2024-11-24T09:22:37.487Z,28574,0.0064928164,-0.14199041,-0.7978119
1732440157491,2024-11-24T09:22:37.491Z,28578,0.0064928164,-0.14199041,-0.7978119
1732440157502,2024-11-24T09:22:37.502Z,28589,0.11654516,-0.13036232,-0.74532735
1732440157505,2024-11-24T09:22:37.505Z,28592,0.11654516,-0.13036232,-0.74532735
1732440157517,2024-11-24T09:22:37.517Z,28604,0.07862801,-0.105463006,-0.7390882
1732440157521,2024-11-24T09:22:37.521Z,28608,0.07862801,-0.105463006,-0.7390882
1732440157536,2024-11-24T09:22:37.536Z,28623,0.017195595,-0.1036224,-0.7221691
1732440157539,2024-11-24T09:22:37.539Z,28626,0.017195595,-0.1036224,-0.7221691
1732440157548,2024-11-24T09:22:37.548Z,28635,0.045114648,-0.11317271,-0.76020336
1732440157550,2024-11-24T09:22:37.550Z,28637,0.045114648,-0.11317271,-0.76020336
1732440157559,2024-11-24T09:22:37.559Z,28646,0.071830645,-0.121832035,-0.78852373
1732440157562,2024-11-24T09:22:37.562Z,28649,0.071830645,-0.121832035,-0.78852373
1732440157573,2024-11-24T09:22:37.573Z,28660,0.08211636,-0.10395606,-0.76115584
1732440157576,2024-11-24T09:22:37.576Z,28663,0.08211636,-0.10395606,-0.76115584
1732440157584,2024-11-24T09:22:37.584Z,28671,0.057174254,-0.08747568,-0.7833329
1732440157586,2024-11-24T09:22:37.586Z,28673,0.057174254,-0.08747568,-0.7833329
1732440157595,2024-11-24T09:22:37.595Z,28682,0.061938006,-0.1011347,-0.74134296
1732440157597,2024-11-24T09:22:37.597Z,28684,0.061938006,-0.1011347,-0.74134296
1732440157605,2024-11-24T09:22:37.605Z,28692,0.036057774,-0.09309835,-0.7249769
1732440157608,2024-11-24T09:22:37.608Z,28695,0.036057774,-0.09309835,-0.7249769
1732440157617,2024-11-24T09:22:37.617Z,28704,0.027994687,-0.1052301,-0.7688543
1732440157620,2024-11-24T09:22:37.620Z,28707,0.027994687,-0.1052301,-0.7688543
1732440157628,2024-11-24T09:22:37.628Z,28715,0.059695948,-0.12283524,-0.7439766
1732440157630,2024-11-24T09:22:37.630Z,28717,0.059695948,-0.12283524,-0.7439766
1732440157641,2024-11-24T09:22:37.641Z,28728,0.093933746,-0.12004656,-0.706069
1732440157644,2024-11-24T09:22:37.644Z,28731,0.093933746,-0.12004656,-0.706069
1732440157653,2024-11-24T09:22:37.653Z,28740,0.09447246,-0.12768392,-0.74279946
1732440157656,2024-11-24T09:22:37.656Z,28743,0.09447246,-0.12768392,-0.74279946
1732440157664,2024-11-24T09:22:37.664Z,28751,0.06743325,-0.10419179,-0.7297207
1732440157666,2024-11-24T09:22:37.666Z,28753,0.06743325,-0.10419179,-0.7297207
1732440157673,2024-11-24T09:22:37.673Z,28760,0.03162768,-0.080081254,-0.7398484
1732440157676,2024-11-24T09:22:37.676Z,28763,0.03162768,-0.080081254,-0.7398484
1732440157685,2024-11-24T09:22:37.685Z,28772,0.09168587,-0.12653853,-0.7357862
1732440157688,2024-11-24T09:22:37.688Z,28775,0.09168587,-0.12653853,-0.7357862
1732440157696,2024-11-24T09:22:37.696Z,28783,0.09464624,-0.107895754,-0.70430887
1732440157699,2024-11-24T09:22:37.699Z,28786,0.09464624,-0.107895754,-0.70430887
1732440157708,2024-11-24T09:22:37.708Z,28795,0.04579717,-0.06660486,-0.7353664
1732440157711,2024-11-24T09:22:37.711Z,28798,0.04579717,-0.06660486,-0.7353664
1732440157717,2024-11-24T09:22:37.717Z,28804,0.0058432505,-0.06871339,-0.7451876
1732440157720,2024-11-24T09:22:37.720Z,28807,0.0058432505,-0.06871339,-0.7451876
1732440157727,2024-11-24T09:22:37.727Z,28814,0.062340695,-0.11730788,-0.6874958
1732440157730,2024-11-24T09:22:37.730Z,28817,0.062340695,-0.11730788,-0.6874958
1732440157739,2024-11-24T09:22:37.739Z,28826,0.034249563,-0.110824175,-0.6874456
1732440157741,2024-11-24T09:22:37.741Z,28828,0.034249563,-0.110824175,-0.6874456
1732440157753,2024-11-24T09:22:37.753Z,28840,0.025482694,-0.1176285,-0.70319086
1732440157757,2024-11-24T09:22:37.757Z,28844,0.025482694,-0.1176285,-0.70319086
1732440157765,2024-11-24T09:22:37.765Z,28852,-0.012472992,-0.10037754,-0.7729609
1732440157767,2024-11-24T09:22:37.767Z,28854,-0.012472992,-0.10037754,-0.7729609
1732440157775,2024-11-24T09:22:37.775Z,28862,0.0050616707,-0.13043408,-0.7777564
1732440157778,2024-11-24T09:22:37.778Z,28865,0.0050616707,-0.13043408,-0.7777564
1732440157799,2024-11-24T09:22:37.799Z,28886,0.03666517,-0.12686636,-0.72117954
1732440157801,2024-11-24T09:22:37.801Z,28888,0.03666517,-0.12686636,-0.72117954
1732440157810,2024-11-24T09:22:37.810Z,28897,-0.0043704095,-0.113915294,-0.7364477
1732440157812,2024-11-24T09:22:37.812Z,28899,-0.0043704095,-0.113915294,-0.7364477
1732440157842,2024-11-24T09:22:37.842Z,28929,-0.014763188,-0.11313381,-0.7438775
1732440157845,2024-11-24T09:22:37.845Z,28932,-0.014763188,-0.11313381,-0.7438775
1732440157855,2024-11-24T09:22:37.855Z,28942,-0.011738565,-0.12557937,-0.7129074
1732440157858,2024-11-24T09:22:37.858Z,28945,-0.011738565,-0.12557937,-0.7129074
1732440157867,2024-11-24T09:22:37.867Z,28954,-0.015533851,-0.10906234,-0.7332296
1732440157871,2024-11-24T09:22:37.871Z,28958,-0.015533851,-0.10906234,-0.7332296
1732440157893,2024-11-24T09:22:37.893Z,28980,-0.016493456,-0.10670788,-0.74724525
1732440157901,2024-11-24T09:22:37.901Z,28988,-0.016493456,-0.10670788,-0.74724525
1732440157920,2024-11-24T09:22:37.920Z,29007,0.048377104,-0.088621356,-0.72407126
1732440157923,2024-11-24T09:22:37.923Z,29010,0.048377104,-0.088621356,-0.72407126
1732440157933,2024-11-24T09:22:37.933Z,29020,0.025703702,-0.07735793,-0.71079767
1732440157937,2024-11-24T09:22:37.937Z,29024,0.025703702,-0.07735793,-0.71079767
1732440157948,2024-11-24T09:22:37.948Z,29035,-0.0010829627,-0.057805307,-0.7052474
1732440157951,2024-11-24T09:22:37.951Z,29038,-0.0010829627,-0.057805307,-0.7052474
1732440157963,2024-11-24T09:22:37.963Z,29050,0.04068544,-0.062918395,-0.7359076
1732440157966,2024-11-24T09:22:37.966Z,29053,0.04068544,-0.062918395,-0.7359076
1732440157978,2024-11-24T09:22:37.978Z,29065,0.068153605,-0.062936194,-0.76390976
1732440157981,2024-11-24T09:22:37.981Z,29068,0.068153605,-0.062936194,-0.76390976
1732440157990,2024-11-24T09:22:37.990Z,29077,0.07302488,-0.045745518,-0.71166945
1732440157993,2024-11-24T09:22:37.993Z,29080,0.07302488,-0.045745518,-0.71166945
1732440158028,2024-11-24T09:22:38.028Z,29115,-0.033679545,0.0010981212,-0.6862175
1732440158036,2024-11-24T09:22:38.036Z,29123,-0.033679545,0.0010981212,-0.6862175
1732440158059,2024-11-24T09:22:38.059Z,29146,-0.04226776,-0.011927432,-0.78644043
1732440158066,2024-11-24T09:22:38.066Z,29153,-0.04226776,-0.011927432,-0.78644043
1732440158086,2024-11-24T09:22:38.086Z,29173,0.04265704,-0.06507282,-0.7625072
1732440158092,2024-11-24T09:22:38.092Z,29179,0.04265704,-0.06507282,-0.7625072
1732440158105,2024-11-24T09:22:38.105Z,29192,0.0659335,-0.07307485,-0.7355547
1732440158108,2024-11-24T09:22:38.108Z,29195,0.0659335,-0.07307485,-0.7355547
1732440158124,2024-11-24T09:22:38.124Z,29211,-0.07791387,-0.04373191,-0.65675086
1732440158129,2024-11-24T09:22:38.129Z,29216,-0.07791387,-0.04373191,-0.65675086
1732440158148,2024-11-24T09:22:38.148Z,29235,-0.0688208,-0.07237,-0.6698037
1732440158155,2024-11-24T09:22:38.155Z,29242,-0.0688208,-0.07237,-0.6698037
1732440158174,2024-11-24T09:22:38.174Z,29261,0.02106862,-0.083581395,-0.74573517
1732440158179,2024-11-24T09:22:38.179Z,29266,0.02106862,-0.083581395,-0.74573517
1732440158191,2024-11-24T09:22:38.191Z,29278,0.066808246,-0.08373709,-0.7447581
1732440158194,2024-11-24T09:22:38.194Z,29281,0.066808246,-0.08373709,-0.7447581
1732440158203,2024-11-24T09:22:38.203Z,29290,0.021910712,-0.0641371,-0.7163653
1732440158206,2024-11-24T09:22:38.206Z,29293,0.021910712,-0.0641371,-0.7163653
1732440158215,2024-11-24T09:22:38.215Z,29302,-0.010451127,-0.062073607,-0.7678422
1732440158218,2024-11-24T09:22:38.218Z,29305,-0.010451127,-0.062073607,-0.7678422
1732440158227,2024-11-24T09:22:38.227Z,29314,-0.04650663,-0.057278417,-0.68226296
1732440158231,2024-11-24T09:22:38.231Z,29318,-0.04650663,-0.057278417,-0.68226296
1732440158239,2024-11-24T09:22:38.239Z,29326,0.021715548,-0.056419525,-0.70847267
1732440158241,2024-11-24T09:22:38.241Z,29328,0.021715548,-0.056419525,-0.70847267
1732440158251,2024-11-24T09:22:38.251Z,29338,0.06644135,-0.05352777,-0.73015916
1732440158257,2024-11-24T09:22:38.257Z,29344,0.06644135,-0.05352777,-0.73015916
1732440158271,2024-11-24T09:22:38.271Z,29358,0.05279096,-0.064049,-0.72885305
1732440158274,2024-11-24T09:22:38.274Z,29361,0.05279096,-0.064049,-0.72885305
1732440158282,2024-11-24T09:22:38.282Z,29369,0.02821454,-0.049061667,-0.78134316
1732440158285,2024-11-24T09:22:38.285Z,29372,0.02821454,-0.049061667,-0.78134316
1732440158295,2024-11-24T09:22:38.295Z,29382,0.040095367,-0.09318908,-0.6784848
1732440158297,2024-11-24T09:22:38.297Z,29384,0.040095367,-0.09318908,-0.6784848
1732440158305,2024-11-24T09:22:38.305Z,29392,-0.039354254,-0.06474306,-0.66630673
1732440158308,2024-11-24T09:22:38.308Z,29395,-0.039354254,-0.06474306,-0.66630673
1732440158315,2024-11-24T09:22:38.315Z,29402,0.016013319,-0.040074617,-0.6600613
1732440158317,2024-11-24T09:22:38.317Z,29404,0.016013319,-0.040074617,-0.6600613
1732440158325,2024-11-24T09:22:38.325Z,29412,0.05777968,-0.040668312,-0.6698096
1732440158328,2024-11-24T09:22:38.328Z,29415,0.05777968,-0.040668312,-0.6698096
1732440158335,2024-11-24T09:22:38.335Z,29422,0.068629354,-0.059132833,-0.77884483
1732440158338,2024-11-24T09:22:38.338Z,29425,0.068629354,-0.059132833,-0.77884483
1732440158346,2024-11-24T09:22:38.346Z,29433,0.037300017,-0.07429726,-0.6966165
1732440158348,2024-11-24T09:22:38.348Z,29435,0.037300017,-0.07429726,-0.6966165
1732440158355,2024-11-24T09:22:38.355Z,29442,-0.05005307,-0.051283583,-0.7345749
1732440158357,2024-11-24T09:22:38.357Z,29444,-0.05005307,-0.051283583,-0.7345749
1732440158366,2024-11-24T09:22:38.366Z,29453,-0.036289323,-0.015251943,-0.66423047
1732440158369,2024-11-24T09:22:38.369Z,29456,-0.036289323,-0.015251943,-0.66423047
1732440158378,2024-11-24T09:22:38.378Z,29465,0.14524847,-0.054194983,-0.7336974
1732440158380,2024-11-24T09:22:38.380Z,29467,0.14524847,-0.054194983,-0.7336974
1732440158387,2024-11-24T09:22:38.387Z,29474,0.035236627,-0.015329255,-0.6812679
1732440158390,2024-11-24T09:22:38.390Z,29477,0.035236627,-0.015329255,-0.6812679
1732440158397,2024-11-24T09:22:38.397Z,29484,-0.026035013,-0.015968854,-0.69882226
1732440158399,2024-11-24T09:22:38.399Z,29486,-0.026035013,-0.015968854,-0.69882226
1732440158406,2024-11-24T09:22:38.406Z,29493,0.04122327,-0.021426491,-0.7057655
1732440158408,2024-11-24T09:22:38.408Z,29495,0.04122327,-0.021426491,-0.7057655
1732440158416,2024-11-24T09:22:38.416Z,29503,0.07421971,-0.03784453,-0.76026374
1732440158419,2024-11-24T09:22:38.419Z,29506,0.07421971,-0.03784453,-0.76026374
1732440158431,2024-11-24T09:22:38.431Z,29518,0.12396203,-0.05844364,-0.76152074
1732440158433,2024-11-24T09:22:38.433Z,29520,0.12396203,-0.05844364,-0.76152074
1732440158441,2024-11-24T09:22:38.441Z,29528,0.02489527,-0.04388556,-0.734635
1732440158444,2024-11-24T09:22:38.444Z,29531,0.02489527,-0.04388556,-0.734635
1732440158451,2024-11-24T09:22:38.451Z,29538,0.021943083,-0.022312904,-0.71419775
1732440158454,2024-11-24T09:22:38.454Z,29541,0.021943083,-0.022312904,-0.71419775
1732440158471,2024-11-24T09:22:38.471Z,29558,0.047838375,-0.044704676,-0.67911845
1732440158474,2024-11-24T09:22:38.474Z,29561,0.047838375,-0.044704676,-0.67911845
1732440158519,2024-11-24T09:22:38.519Z,29606,-0.02375504,-0.038792018,-0.6888549
1732440158521,2024-11-24T09:22:38.521Z,29608,-0.02375504,-0.038792018,-0.6888549
1732440158530,2024-11-24T09:22:38.530Z,29617,6.04662E-4,-0.056294758,-0.6733353
1732440158532,2024-11-24T09:22:38.532Z,29619,6.04662E-4,-0.056294758,-0.6733353
1732440158541,2024-11-24T09:22:38.541Z,29628,0.030240975,-0.07856438,-0.7489682
1732440158544,2024-11-24T09:22:38.544Z,29631,0.030240975,-0.07856438,-0.7489682
1732440158551,2024-11-24T09:22:38.551Z,29638,0.013682316,-0.036116246,-0.79421204
1732440158554,2024-11-24T09:22:38.554Z,29641,0.013682316,-0.036116246,-0.79421204
1732440158612,2024-11-24T09:22:38.612Z,29699,0.06114845,-0.043975223,-0.7351723
1732440158614,2024-11-24T09:22:38.614Z,29701,0.06114845,-0.043975223,-0.7351723
1732440158624,2024-11-24T09:22:38.624Z,29711,0.02432491,-0.009251953,-0.74465996
1732440158626,2024-11-24T09:22:38.626Z,29713,0.02432491,-0.009251953,-0.74465996
1732440158634,2024-11-24T09:22:38.634Z,29721,0.05858442,-0.05252631,-0.74030846
1732440158637,2024-11-24T09:22:38.637Z,29724,0.05858442,-0.05252631,-0.74030846
1732440158750,2024-11-24T09:22:38.750Z,29837,-0.10660732,0.006411931,-0.7161619
1732440158756,2024-11-24T09:22:38.756Z,29843,-0.10660732,0.006411931,-0.7161619
1732440158777,2024-11-24T09:22:38.777Z,29864,-0.02713323,-0.006815995,-0.62914896
1732440158787,2024-11-24T09:22:38.787Z,29874,-0.02713323,-0.006815995,-0.62914896
1732440158806,2024-11-24T09:22:38.806Z,29893,-0.04737009,-0.021364253,-0.7635416
1732440158812,2024-11-24T09:22:38.812Z,29899,-0.04737009,-0.021364253,-0.7635416
1732440158833,2024-11-24T09:22:38.833Z,29920,0.05547625,-0.0654023,-0.8262594
1732440158839,2024-11-24T09:22:38.839Z,29926,0.05547625,-0.0654023,-0.8262594
1732440158858,2024-11-24T09:22:38.858Z,29945,-0.14349513,-0.06394621,-0.6257521
1732440158867,2024-11-24T09:22:38.867Z,29954,-0.14349513,-0.06394621,-0.6257521
1732440158887,2024-11-24T09:22:38.887Z,29974,-0.06925224,-0.084461,-0.790035
1732440158892,2024-11-24T09:22:38.892Z,29979,-0.06925224,-0.084461,-0.790035
1732440158901,2024-11-24T09:22:38.901Z,29988,0.07666759,-0.08646751,-0.8255594
1732440158904,2024-11-24T09:22:38.904Z,29991,0.07666759,-0.08646751,-0.8255594
1732440158912,2024-11-24T09:22:38.912Z,29999,-0.03879231,-0.12022025,-0.61099535
1732440158915,2024-11-24T09:22:38.915Z,30002,-0.03879231,-0.12022025,-0.61099535
1732440158925,2024-11-24T09:22:38.925Z,30012,-0.10424226,-0.04341702,-0.6723564
1732440158931,2024-11-24T09:22:38.931Z,30018,-0.10424226,-0.04341702,-0.6723564
1732440158947,2024-11-24T09:22:38.947Z,30034,0.016908972,-0.12370094,-0.8326203
1732440158952,2024-11-24T09:22:38.952Z,30039,0.016908972,-0.12370094,-0.8326203
1732440158971,2024-11-24T09:22:38.971Z,30058,-0.094493054,-0.10246885,-0.81978714
1732440158976,2024-11-24T09:22:38.976Z,30063,-0.094493054,-0.10246885,-0.81978714
1732440158995,2024-11-24T09:22:38.995Z,30082,-0.004779555,-0.09774436,-0.7060061
1732440159001,2024-11-24T09:22:39.001Z,30088,-0.004779555,-0.09774436,-0.7060061
1732440159020,2024-11-24T09:22:39.020Z,30107,-0.101528995,-0.07371756,-0.6844406
1732440159026,2024-11-24T09:22:39.026Z,30113,-0.101528995,-0.07371756,-0.6844406
1732440159044,2024-11-24T09:22:39.044Z,30131,-0.004715177,-0.0961424,-0.72872627
1732440159049,2024-11-24T09:22:39.049Z,30136,-0.004715177,-0.0961424,-0.72872627
1732440159068,2024-11-24T09:22:39.068Z,30155,0.017507458,-0.072122306,-0.7369002
1732440159073,2024-11-24T09:22:39.073Z,30160,0.017507458,-0.072122306,-0.7369002
1732440159086,2024-11-24T09:22:39.086Z,30173,0.12305986,-0.109773606,-0.70981914
1732440159090,2024-11-24T09:22:39.090Z,30177,0.12305986,-0.109773606,-0.70981914
1732440159105,2024-11-24T09:22:39.105Z,30192,0.080445096,-0.15442081,-0.7175697
1732440159112,2024-11-24T09:22:39.112Z,30199,0.080445096,-0.15442081,-0.7175697
1732440159134,2024-11-24T09:22:39.134Z,30221,-0.05804986,-0.046134025,-0.6655665
1732440159140,2024-11-24T09:22:39.140Z,30227,-0.05804986,-0.046134025,-0.6655665
1732440159163,2024-11-24T09:22:39.163Z,30250,-0.020658696,-0.06678642,-0.59238404
1732440159170,2024-11-24T09:22:39.170Z,30257,-0.020658696,-0.06678642,-0.59238404
1732440159189,2024-11-24T09:22:39.189Z,30276,0.005904103,-0.065825224,-0.6632014
1732440159195,2024-11-24T09:22:39.195Z,30282,0.005904103,-0.065825224,-0.6632014
1732440159211,2024-11-24T09:22:39.211Z,30298,0.073630124,-0.08596319,-0.6769987
1732440159218,2024-11-24T09:22:39.218Z,30305,0.073630124,-0.08596319,-0.6769987
1732440159239,2024-11-24T09:22:39.239Z,30326,0.0917049,-0.085637994,-0.68240833
1732440159245,2024-11-24T09:22:39.245Z,30332,0.0917049,-0.085637994,-0.68240833
1732440159267,2024-11-24T09:22:39.267Z,30354,0.05059118,-0.074176766,-0.7312492
1732440159274,2024-11-24T09:22:39.274Z,30361,0.05059118,-0.074176766,-0.7312492
1732440159297,2024-11-24T09:22:39.297Z,30384,-0.0657986,-0.01868819,-0.61189085
1732440159305,2024-11-24T09:22:39.305Z,30392,-0.0657986,-0.01868819,-0.61189085
1732440159326,2024-11-24T09:22:39.326Z,30413,-0.07132578,-0.042550933,-0.56723833
1732440159333,2024-11-24T09:22:39.333Z,30420,-0.07132578,-0.042550933,-0.56723833
1732440159355,2024-11-24T09:22:39.355Z,30442,-0.114085644,-0.011822599,-0.6264263
1732440159361,2024-11-24T09:22:39.361Z,30448,-0.114085644,-0.011822599,-0.6264263
1732440159380,2024-11-24T09:22:39.380Z,30467,-0.078966066,-0.0071399272,-0.6995523
1732440159387,2024-11-24T09:22:39.387Z,30474,-0.078966066,-0.0071399272,-0.6995523
1732440159402,2024-11-24T09:22:39.402Z,30489,-0.032504804,-0.031390104,-0.7076603
1732440159405,2024-11-24T09:22:39.405Z,30492,-0.032504804,-0.031390104,-0.7076603
1732440159419,2024-11-24T09:22:39.419Z,30506,-0.12921715,0.012075054,-0.71589744
1732440159423,2024-11-24T09:22:39.423Z,30510,-0.12921715,0.012075054,-0.71589744
1732440159434,2024-11-24T09:22:39.434Z,30521,-0.12806682,-0.0012678185,-0.7380215
1732440159437,2024-11-24T09:22:39.437Z,30524,-0.12806682,-0.0012678185,-0.7380215
1732440159452,2024-11-24T09:22:39.452Z,30539,0.055730585,-0.05311398,-0.7720084
1732440159460,2024-11-24T09:22:39.460Z,30547,0.055730585,-0.05311398,-0.7720084
1732440159481,2024-11-24T09:22:39.481Z,30568,0.02074352,-0.090931766,-0.74718726
1732440159487,2024-11-24T09:22:39.487Z,30574,0.02074352,-0.090931766,-0.74718726
1732440159508,2024-11-24T09:22:39.508Z,30595,-0.0128384,-0.08942657,-0.6572021
1732440159514,2024-11-24T09:22:39.514Z,30601,-0.0128384,-0.08942657,-0.6572021
1732440159533,2024-11-24T09:22:39.533Z,30620,-0.014156228,-0.10579754,-0.70332026
1732440159540,2024-11-24T09:22:39.540Z,30627,-0.014156228,-0.10579754,-0.70332026
1732440159561,2024-11-24T09:22:39.561Z,30648,-0.09226795,-0.06057181,-0.7488805
1732440159568,2024-11-24T09:22:39.568Z,30655,-0.09226795,-0.06057181,-0.7488805
1732440159588,2024-11-24T09:22:39.588Z,30675,-0.011864221,-0.09902006,-0.7887374
1732440159593,2024-11-24T09:22:39.593Z,30680,-0.011864221,-0.09902006,-0.7887374
1732440159616,2024-11-24T09:22:39.616Z,30703,8.4712484E-4,-0.12052464,-0.7015436
1732440159622,2024-11-24T09:22:39.622Z,30709,8.4712484E-4,-0.12052464,-0.7015436
1732440159638,2024-11-24T09:22:39.638Z,30725,-0.031005682,-0.11692414,-0.7052346
1732440159642,2024-11-24T09:22:39.642Z,30729,-0.031005682,-0.11692414,-0.7052346
1732440159655,2024-11-24T09:22:39.655Z,30742,-0.050947323,-0.118531935,-0.7087689
1732440159659,2024-11-24T09:22:39.659Z,30746,-0.050947323,-0.118531935,-0.7087689
1732440159671,2024-11-24T09:22:39.671Z,30758,-0.13936898,-0.12323756,-0.67694706
1732440159675,2024-11-24T09:22:39.675Z,30762,-0.13936898,-0.12323756,-0.67694706
1732440159686,2024-11-24T09:22:39.686Z,30773,-0.14343235,-0.10213548,-0.68843794
1732440159689,2024-11-24T09:22:39.689Z,30776,-0.14343235,-0.10213548,-0.68843794
1732440159700,2024-11-24T09:22:39.700Z,30787,-0.07147272,-0.13798682,-0.70602083
1732440159703,2024-11-24T09:22:39.703Z,30790,-0.07147272,-0.13798682,-0.70602083
1732440159715,2024-11-24T09:22:39.715Z,30802,-0.02411065,-0.13857439,-0.8931226
1732440159718,2024-11-24T09:22:39.718Z,30805,-0.02411065,-0.13857439,-0.8931226
1732440159729,2024-11-24T09:22:39.729Z,30816,-0.05938806,-0.117096364,-0.82465947
1732440159732,2024-11-24T09:22:39.732Z,30819,-0.05938806,-0.117096364,-0.82465947
1732440159742,2024-11-24T09:22:39.742Z,30829,-0.13913627,-0.08133857,-0.80576444
1732440159745,2024-11-24T09:22:39.745Z,30832,-0.13913627,-0.08133857,-0.80576444
1732440159759,2024-11-24T09:22:39.759Z,30846,-0.14324999,-0.08793139,-0.6968955
1732440159762,2024-11-24T09:22:39.762Z,30849,-0.14324999,-0.08793139,-0.6968955
1732440159771,2024-11-24T09:22:39.771Z,30858,-0.096071914,-0.07684894,-0.7496904
1732440159774,2024-11-24T09:22:39.774Z,30861,-0.096071914,-0.07684894,-0.7496904
1732440159782,2024-11-24T09:22:39.782Z,30869,-0.079386175,-0.07312474,-0.82614666
1732440159784,2024-11-24T09:22:39.784Z,30871,-0.079386175,-0.07312474,-0.82614666
1732440159791,2024-11-24T09:22:39.791Z,30878,-0.18568495,-0.034254633,-0.79748124
1732440159793,2024-11-24T09:22:39.793Z,30880,-0.18568495,-0.034254633,-0.79748124
1732440159800,2024-11-24T09:22:39.800Z,30887,-0.064934194,-0.06903693,-0.7682264
1732440159803,2024-11-24T09:22:39.803Z,30890,-0.064934194,-0.06903693,-0.7682264
1732440159809,2024-11-24T09:22:39.809Z,30896,-0.049624,-0.099070914,-0.73490167
1732440159812,2024-11-24T09:22:39.812Z,30899,-0.049624,-0.099070914,-0.73490167
1732440159820,2024-11-24T09:22:39.820Z,30907,-0.09995842,-0.03757506,-0.64847857
1732440159823,2024-11-24T09:22:39.823Z,30910,-0.09995842,-0.03757506,-0.64847857
1732440159832,2024-11-24T09:22:39.832Z,30919,-0.077553935,-0.051049605,-0.74020904
1732440159834,2024-11-24T09:22:39.834Z,30921,-0.077553935,-0.051049605,-0.74020904
1732440159841,2024-11-24T09:22:39.841Z,30928,0.013557766,-0.07856711,-0.75298166
1732440159843,2024-11-24T09:22:39.843Z,30930,0.013557766,-0.07856711,-0.75298166
1732440159851,2024-11-24T09:22:39.851Z,30938,-0.028088251,-0.06630291,-0.6888181
1732440159854,2024-11-24T09:22:39.854Z,30941,-0.028088251,-0.06630291,-0.6888181
1732440159862,2024-11-24T09:22:39.862Z,30949,-0.04241228,-0.06648797,-0.6797659
1732440159866,2024-11-24T09:22:39.866Z,30953,-0.04241228,-0.06648797,-0.6797659
1732440159874,2024-11-24T09:22:39.874Z,30961,-0.020657165,-0.07077883,-0.6687094
1732440159877,2024-11-24T09:22:39.877Z,30964,-0.020657165,-0.07077883,-0.6687094
1732440159885,2024-11-24T09:22:39.885Z,30972,-0.022164578,-0.07425553,-0.6582536
1732440159888,2024-11-24T09:22:39.888Z,30975,-0.022164578,-0.07425553,-0.6582536
1732440159896,2024-11-24T09:22:39.896Z,30983,-0.055151317,-0.053044155,-0.6806165
1732440159898,2024-11-24T09:22:39.898Z,30985,-0.055151317,-0.053044155,-0.6806165
1732440159907,2024-11-24T09:22:39.907Z,30994,0.0028779733,-0.06848962,-0.72892076
1732440159910,2024-11-24T09:22:39.910Z,30997,0.0028779733,-0.06848962,-0.72892076
1732440159918,2024-11-24T09:22:39.918Z,31005,-0.034322634,-0.06615684,-0.7032003
1732440159920,2024-11-24T09:22:39.920Z,31007,-0.034322634,-0.06615684,-0.7032003
1732440159926,2024-11-24T09:22:39.926Z,31013,-0.036054347,-0.05937673,-0.75219476
1732440159929,2024-11-24T09:22:39.929Z,31016,-0.036054347,-0.05937673,-0.75219476
1732440159957,2024-11-24T09:22:39.957Z,31044,0.024106031,-0.06900299,-0.7169748
1732440159961,2024-11-24T09:22:39.961Z,31048,0.024106031,-0.06900299,-0.7169748
1732440159969,2024-11-24T09:22:39.969Z,31056,-0.016449159,-0.08272892,-0.69728345
1732440159971,2024-11-24T09:22:39.971Z,31058,-0.016449159,-0.08272892,-0.69728345
1732440159979,2024-11-24T09:22:39.979Z,31066,-0.005738685,-0.08136901,-0.6674259
1732440159981,2024-11-24T09:22:39.981Z,31068,-0.005738685,-0.08136901,-0.6674259
1732440159989,2024-11-24T09:22:39.989Z,31076,-0.03601635,-0.07855106,-0.66592044
1732440159991,2024-11-24T09:22:39.991Z,31078,-0.03601635,-0.07855106,-0.66592044
1732440160002,2024-11-24T09:22:40.002Z,31089,-0.019807098,-0.10052506,-0.66978544
1732440160005,2024-11-24T09:22:40.005Z,31092,-0.019807098,-0.10052506,-0.66978544
1732440160015,2024-11-24T09:22:40.015Z,31102,-0.008119139,-0.09911653,-0.7128886
1732440160020,2024-11-24T09:22:40.020Z,31107,-0.008119139,-0.09911653,-0.7128886
1732440160037,2024-11-24T09:22:40.037Z,31124,0.055516314,-0.116762415,-0.6940329
1732440160043,2024-11-24T09:22:40.043Z,31130,0.055516314,-0.116762415,-0.6940329
1732440160056,2024-11-24T09:22:40.056Z,31143,-0.04551971,-0.0892984,-0.7199425
1732440160059,2024-11-24T09:22:40.059Z,31146,-0.04551971,-0.0892984,-0.7199425
1732440160071,2024-11-24T09:22:40.071Z,31158,-0.010533872,-0.10579705,-0.73313165
1732440160077,2024-11-24T09:22:40.077Z,31164,-0.010533872,-0.10579705,-0.73313165
1732440160093,2024-11-24T09:22:40.093Z,31180,-0.013660362,-0.09714891,-0.7112335
1732440160095,2024-11-24T09:22:40.095Z,31182,-0.013660362,-0.09714891,-0.7112335
1732440160103,2024-11-24T09:22:40.103Z,31190,0.004938628,-0.09307939,-0.6560746
1732440160105,2024-11-24T09:22:40.105Z,31192,0.004938628,-0.09307939,-0.6560746
1732440160114,2024-11-24T09:22:40.114Z,31201,-0.011920503,-0.082364924,-0.627396
1732440160117,2024-11-24T09:22:40.117Z,31204,-0.011920503,-0.082364924,-0.627396
1732440160124,2024-11-24T09:22:40.124Z,31211,-0.02543283,-0.08436015,-0.63296896
1732440160127,2024-11-24T09:22:40.127Z,31214,-0.02543283,-0.08436015,-0.63296896
1732440160139,2024-11-24T09:22:40.139Z,31226,-0.05115568,-0.07346841,-0.6760233
1732440160141,2024-11-24T09:22:40.141Z,31228,-0.05115568,-0.07346841,-0.6760233
1732440160149,2024-11-24T09:22:40.149Z,31236,0.01589774,-0.09139437,-0.6822599
1732440160151,2024-11-24T09:22:40.151Z,31238,0.01589774,-0.09139437,-0.6822599
1732440160181,2024-11-24T09:22:40.181Z,31268,0.014085164,-0.09460734,-0.6771227
1732440160184,2024-11-24T09:22:40.184Z,31271,0.014085164,-0.09460734,-0.6771227
1732440160322,2024-11-24T09:22:40.322Z,31409,-0.006422798,-0.070848264,-0.6551667
1732440160328,2024-11-24T09:22:40.328Z,31415,-0.006422798,-0.070848264,-0.6551667
1732440160347,2024-11-24T09:22:40.347Z,31434,-0.024972728,-0.066914596,-0.6457815
1732440160352,2024-11-24T09:22:40.352Z,31439,-0.024972728,-0.066914596,-0.6457815
1732440160367,2024-11-24T09:22:40.367Z,31454,-0.033663854,-0.06113886,-0.65855014
1732440160371,2024-11-24T09:22:40.371Z,31458,-0.033663854,-0.06113886,-0.65855014
1732440160383,2024-11-24T09:22:40.383Z,31470,-0.019325333,-0.02815759,-0.6356569
1732440160387,2024-11-24T09:22:40.387Z,31474,-0.019325333,-0.02815759,-0.6356569
1732440160399,2024-11-24T09:22:40.399Z,31486,0.022533705,-0.04009815,-0.6096618
1732440160402,2024-11-24T09:22:40.402Z,31489,0.022533705,-0.04009815,-0.6096618
1732440160414,2024-11-24T09:22:40.414Z,31501,-0.016118834,-0.026667852,-0.56227946
1732440160417,2024-11-24T09:22:40.417Z,31504,-0.016118834,-0.026667852,-0.56227946
1732440160430,2024-11-24T09:22:40.430Z,31517,-0.13584094,-0.19423734,-0.53787583
1732440160433,2024-11-24T09:22:40.433Z,31520,-0.13584094,-0.19423734,-0.53787583
1732440160440,2024-11-24T09:22:40.440Z,31527,-0.11320699,-0.2138239,-0.49247858
1732440160444,2024-11-24T09:22:40.444Z,31531,-0.11320699,-0.2138239,-0.49247858
1732440160452,2024-11-24T09:22:40.452Z,31539,-0.16732109,-0.20764984,-0.4949809
1732440160455,2024-11-24T09:22:40.455Z,31542,-0.16732109,-0.20764984,-0.4949809
1732440160462,2024-11-24T09:22:40.462Z,31549,-0.1304987,-0.24016957,-0.5373817
1732440160465,2024-11-24T09:22:40.465Z,31552,-0.1304987,-0.24016957,-0.5373817
1732440160472,2024-11-24T09:22:40.472Z,31559,-0.1723192,-0.22701992,-0.5124636
1732440160475,2024-11-24T09:22:40.475Z,31562,-0.1723192,-0.22701992,-0.5124636
1732440160497,2024-11-24T09:22:40.497Z,31584,-0.09755905,-0.25646237,-0.49003458
1732440160499,2024-11-24T09:22:40.499Z,31586,-0.09755905,-0.25646237,-0.49003458
1732440160507,2024-11-24T09:22:40.507Z,31594,-0.072312355,-0.23776667,-0.53743577
1732440160510,2024-11-24T09:22:40.510Z,31597,-0.072312355,-0.23776667,-0.53743577
1732440160517,2024-11-24T09:22:40.517Z,31604,-0.05978843,-0.2509319,-0.4945981
1732440160520,2024-11-24T09:22:40.520Z,31607,-0.05978843,-0.2509319,-0.4945981
1732440160542,2024-11-24T09:22:40.542Z,31629,-0.1360638,-0.22255917,-0.45643649
1732440160544,2024-11-24T09:22:40.544Z,31631,-0.1360638,-0.22255917,-0.45643649
1732440160591,2024-11-24T09:22:40.591Z,31678,-0.062474266,-0.22226548,-0.47870615
1732440160595,2024-11-24T09:22:40.595Z,31682,-0.062474266,-0.22226548,-0.47870615
1732440160606,2024-11-24T09:22:40.606Z,31693,-0.03274452,-0.21260072,-0.48736173
1732440160609,2024-11-24T09:22:40.609Z,31696,-0.03274452,-0.21260072,-0.48736173
1732440160620,2024-11-24T09:22:40.620Z,31707,-0.045650948,-0.19354677,-0.4566698
1732440160623,2024-11-24T09:22:40.623Z,31710,-0.045650948,-0.19354677,-0.4566698
1732440160634,2024-11-24T09:22:40.634Z,31721,-0.017873473,-0.18329589,-0.46520963
1732440160637,2024-11-24T09:22:40.637Z,31724,-0.017873473,-0.18329589,-0.46520963
1732440160646,2024-11-24T09:22:40.646Z,31733,0.0036021282,-0.1877162,-0.48268688
1732440160649,2024-11-24T09:22:40.649Z,31736,0.0036021282,-0.1877162,-0.48268688
1732440160657,2024-11-24T09:22:40.657Z,31744,-0.030044511,-0.16334805,-0.47231668
1732440160660,2024-11-24T09:22:40.660Z,31747,-0.030044511,-0.16334805,-0.47231668
1732440160678,2024-11-24T09:22:40.678Z,31765,-0.01502803,-0.13672805,-0.48642433
1732440160681,2024-11-24T09:22:40.681Z,31768,-0.01502803,-0.13672805,-0.48642433
1732440160689,2024-11-24T09:22:40.689Z,31776,0.050568275,-0.13357061,-0.48953897
1732440160692,2024-11-24T09:22:40.692Z,31779,0.050568275,-0.13357061,-0.48953897
1732440160700,2024-11-24T09:22:40.700Z,31787,0.1172157,-0.14660841,-0.5285121
1732440160702,2024-11-24T09:22:40.702Z,31789,0.1172157,-0.14660841,-0.5285121
1732440160729,2024-11-24T09:22:40.729Z,31816,0.10472784,-0.124906324,-0.4875768
1732440160736,2024-11-24T09:22:40.736Z,31823,0.10472784,-0.124906324,-0.4875768
1732440160761,2024-11-24T09:22:40.761Z,31848,0.08667535,-0.094028816,-0.39506748
1732440160767,2024-11-24T09:22:40.767Z,31854,0.08667535,-0.094028816,-0.39506748
1732440160787,2024-11-24T09:22:40.787Z,31874,0.11046264,-0.100852594,-0.3599801
1732440160792,2024-11-24T09:22:40.792Z,31879,0.11046264,-0.100852594,-0.3599801
1732440160815,2024-11-24T09:22:40.815Z,31902,0.097500704,-0.082349464,-0.4615456
1732440160821,2024-11-24T09:22:40.821Z,31908,0.097500704,-0.082349464,-0.4615456
1732440160836,2024-11-24T09:22:40.836Z,31923,0.11878613,-0.08042775,-0.44617844
1732440160840,2024-11-24T09:22:40.840Z,31927,0.11878613,-0.08042775,-0.44617844
1732440160852,2024-11-24T09:22:40.852Z,31939,0.11234884,-0.07396982,-0.49020478
1732440160856,2024-11-24T09:22:40.856Z,31943,0.11234884,-0.07396982,-0.49020478
1732440160871,2024-11-24T09:22:40.871Z,31958,0.19062246,-0.09669302,-0.47007173
1732440160879,2024-11-24T09:22:40.879Z,31966,0.19062246,-0.09669302,-0.47007173
1732440160900,2024-11-24T09:22:40.900Z,31987,0.14361505,-0.08891933,-0.39905134
1732440160905,2024-11-24T09:22:40.905Z,31992,0.14361505,-0.08891933,-0.39905134
1732440160920,2024-11-24T09:22:40.920Z,32007,0.07900723,-0.060547885,-0.3878498
1732440160924,2024-11-24T09:22:40.924Z,32011,0.07900723,-0.060547885,-0.3878498
1732440160935,2024-11-24T09:22:40.935Z,32022,0.14484094,-0.06890283,-0.43364885
1732440160938,2024-11-24T09:22:40.938Z,32025,0.14484094,-0.06890283,-0.43364885
1732440160948,2024-11-24T09:22:40.948Z,32035,0.19313248,-0.080967374,-0.4432936
1732440160951,2024-11-24T09:22:40.951Z,32038,0.19313248,-0.080967374,-0.4432936
1732440160963,2024-11-24T09:22:40.963Z,32050,0.18199301,-0.064826496,-0.4157084
1732440160969,2024-11-24T09:22:40.969Z,32056,0.18199301,-0.064826496,-0.4157084
1732440160989,2024-11-24T09:22:40.989Z,32076,0.1815431,-0.05652562,-0.47136706
1732440160995,2024-11-24T09:22:40.995Z,32082,0.1815431,-0.05652562,-0.47136706
1732440161013,2024-11-24T09:22:41.013Z,32100,0.16039078,-0.023375822,-0.39279187
1732440161019,2024-11-24T09:22:41.019Z,32106,0.16039078,-0.023375822,-0.39279187
1732440161039,2024-11-24T09:22:41.039Z,32126,0.18580724,-0.033799317,-0.4144366
1732440161042,2024-11-24T09:22:41.042Z,32129,0.18580724,-0.033799317,-0.4144366
1732440161053,2024-11-24T09:22:41.053Z,32140,0.18264867,-0.018439626,-0.4179105
1732440161057,2024-11-24T09:22:41.057Z,32144,0.18264867,-0.018439626,-0.4179105
1732440161067,2024-11-24T09:22:41.067Z,32154,0.11821775,0.0016093524,-0.3685814
1732440161072,2024-11-24T09:22:41.072Z,32159,0.11821775,0.0016093524,-0.3685814
1732440161082,2024-11-24T09:22:41.082Z,32169,0.16140999,-0.0113736065,-0.3762313
1732440161085,2024-11-24T09:22:41.085Z,32172,0.16140999,-0.0113736065,-0.3762313
1732440161095,2024-11-24T09:22:41.095Z,32182,0.19465017,-0.01798898,-0.38274205
1732440161097,2024-11-24T09:22:41.097Z,32184,0.19465017,-0.01798898,-0.38274205
1732440161106,2024-11-24T09:22:41.106Z,32193,0.11334812,0.027729895,-0.35514376
1732440161109,2024-11-24T09:22:41.109Z,32196,0.11334812,0.027729895,-0.35514376
1732440161117,2024-11-24T09:22:41.117Z,32204,0.04558037,0.06525166,-0.3501063
1732440161119,2024-11-24T09:22:41.119Z,32206,0.04558037,0.06525166,-0.3501063
1732440161126,2024-11-24T09:22:41.126Z,32213,0.14157984,0.033773452,-0.4131641
1732440161129,2024-11-24T09:22:41.129Z,32216,0.14157984,0.033773452,-0.4131641
1732440161139,2024-11-24T09:22:41.139Z,32226,0.21475738,0.018477941,-0.43742868
1732440161142,2024-11-24T09:22:41.142Z,32229,0.21475738,0.018477941,-0.43742868
1732440161152,2024-11-24T09:22:41.152Z,32239,0.20278417,0.06231799,-0.45334283
1732440161155,2024-11-24T09:22:41.155Z,32242,0.20278417,0.06231799,-0.45334283
1732440161174,2024-11-24T09:22:41.174Z,32261,0.16509418,0.07763285,-0.43409887
1732440161178,2024-11-24T09:22:41.178Z,32265,0.16509418,0.07763285,-0.43409887
1732440161186,2024-11-24T09:22:41.186Z,32273,0.19632669,0.06775637,-0.42629105
1732440161188,2024-11-24T09:22:41.188Z,32275,0.19632669,0.06775637,-0.42629105
1732440161196,2024-11-24T09:22:41.196Z,32283,0.109087564,0.14990385,-0.33944732
1732440161198,2024-11-24T09:22:41.198Z,32285,0.109087564,0.14990385,-0.33944732
1732440161217,2024-11-24T09:22:41.217Z,32304,-0.028063137,0.19287261,-0.30137172
1732440161219,2024-11-24T09:22:41.219Z,32306,-0.028063137,0.19287261,-0.30137172
1732440161226,2024-11-24T09:22:41.226Z,32313,0.08968867,0.19346271,-0.52994865
1732440161229,2024-11-24T09:22:41.229Z,32316,0.08968867,0.19346271,-0.52994865
1732440161237,2024-11-24T09:22:41.237Z,32324,0.21686454,0.11361791,-0.54918766
1732440161239,2024-11-24T09:22:41.239Z,32326,0.21686454,0.11361791,-0.54918766
1732440161246,2024-11-24T09:22:41.246Z,32333,0.24759229,0.16288894,-0.44322842
1732440161250,2024-11-24T09:22:41.250Z,32337,0.24759229,0.16288894,-0.44322842
1732440161311,2024-11-24T09:22:41.311Z,32398,-0.021788921,0.26365566,-0.29373315
1732440161315,2024-11-24T09:22:41.315Z,32402,-0.021788921,0.26365566,-0.29373315
1732440161325,2024-11-24T09:22:41.325Z,32412,-0.038264446,0.29169393,-0.36066183
1732440161328,2024-11-24T09:22:41.328Z,32415,-0.038264446,0.29169393,-0.36066183
1732440161338,2024-11-24T09:22:41.338Z,32425,-0.04830428,0.31252396,-0.43715474
1732440161341,2024-11-24T09:22:41.341Z,32428,-0.04830428,0.31252396,-0.43715474
1732440161353,2024-11-24T09:22:41.353Z,32440,-0.030268861,0.32218513,-0.4990115
1732440161356,2024-11-24T09:22:41.356Z,32443,-0.030268861,0.32218513,-0.4990115
1732440161366,2024-11-24T09:22:41.366Z,32453,0.03065301,0.25297573,-0.4637411
1732440161369,2024-11-24T09:22:41.369Z,32456,0.03065301,0.25297573,-0.4637411
1732440161377,2024-11-24T09:22:41.377Z,32464,-0.08044567,0.29316705,-0.4769611
1732440161380,2024-11-24T09:22:41.380Z,32467,-0.08044567,0.29316705,-0.4769611
1732440161401,2024-11-24T09:22:41.401Z,32488,-0.022789607,0.29321432,-0.52443695
1732440161404,2024-11-24T09:22:41.404Z,32491,-0.022789607,0.29321432,-0.52443695
1732440161414,2024-11-24T09:22:41.414Z,32501,-0.03497271,0.21251957,-0.41974068
1732440161417,2024-11-24T09:22:41.417Z,32504,-0.03497271,0.21251957,-0.41974068
1732440161426,2024-11-24T09:22:41.426Z,32513,-0.10134318,0.19211888,-0.43950793
1732440161429,2024-11-24T09:22:41.429Z,32516,-0.10134318,0.19211888,-0.43950793
1732440161442,2024-11-24T09:22:41.442Z,32529,-0.12335137,0.19568905,-0.44599286
1732440161445,2024-11-24T09:22:41.445Z,32532,-0.12335137,0.19568905,-0.44599286
1732440161454,2024-11-24T09:22:41.454Z,32541,-0.15088718,0.14328468,-0.53029644
1732440161456,2024-11-24T09:22:41.456Z,32543,-0.15088718,0.14328468,-0.53029644
1732440161465,2024-11-24T09:22:41.465Z,32552,-0.044984587,0.10733123,-0.573072
1732440161468,2024-11-24T09:22:41.468Z,32555,-0.044984587,0.10733123,-0.573072
1732440161486,2024-11-24T09:22:41.486Z,32573,0.089368254,0.04216233,-0.560173
1732440161489,2024-11-24T09:22:41.489Z,32576,0.089368254,0.04216233,-0.560173
1732440161498,2024-11-24T09:22:41.498Z,32585,-0.12196791,0.05984255,-0.4029436
1732440161501,2024-11-24T09:22:41.501Z,32588,-0.12196791,0.05984255,-0.4029436
1732440161509,2024-11-24T09:22:41.509Z,32596,-0.08535097,0.02400978,-0.3928586
1732440161512,2024-11-24T09:22:41.512Z,32599,-0.08535097,0.02400978,-0.3928586
1732440161533,2024-11-24T09:22:41.533Z,32620,-0.043325067,-0.056889523,-0.40082964
1732440161535,2024-11-24T09:22:41.535Z,32622,-0.043325067,-0.056889523,-0.40082964
1732440161544,2024-11-24T09:22:41.544Z,32631,-0.072813146,-0.03206082,-0.52625567
1732440161546,2024-11-24T09:22:41.546Z,32633,-0.072813146,-0.03206082,-0.52625567
1732440161554,2024-11-24T09:22:41.554Z,32641,0.006897197,-0.04878597,-0.47130054
1732440161556,2024-11-24T09:22:41.556Z,32643,0.006897197,-0.04878597,-0.47130054
1732440161564,2024-11-24T09:22:41.564Z,32651,0.02316778,-0.029827818,-0.47804016
1732440161566,2024-11-24T09:22:41.566Z,32653,0.02316778,-0.029827818,-0.47804016
1732440161580,2024-11-24T09:22:41.580Z,32667,0.049005058,-0.04805661,-0.46536285
1732440161582,2024-11-24T09:22:41.582Z,32669,0.049005058,-0.04805661,-0.46536285
1732440161589,2024-11-24T09:22:41.589Z,32676,0.041976545,-0.04118227,-0.44560254
1732440161591,2024-11-24T09:22:41.591Z,32678,0.041976545,-0.04118227,-0.44560254
1732440161599,2024-11-24T09:22:41.599Z,32686,0.01957154,-0.04181681,-0.42526883
1732440161601,2024-11-24T09:22:41.601Z,32688,0.01957154,-0.04181681,-0.42526883
1732440161624,2024-11-24T09:22:41.624Z,32711,0.0013810756,-0.008655435,-0.44469947
1732440161626,2024-11-24T09:22:41.626Z,32713,0.0013810756,-0.008655435,-0.44469947
1732440161636,2024-11-24T09:22:41.636Z,32723,-0.03139364,0.029231885,-0.43968737
1732440161638,2024-11-24T09:22:41.638Z,32725,-0.03139364,0.029231885,-0.43968737
1732440161647,2024-11-24T09:22:41.647Z,32734,-0.012893697,0.03840215,-0.43754435
1732440161649,2024-11-24T09:22:41.649Z,32736,-0.012893697,0.03840215,-0.43754435
1732440161672,2024-11-24T09:22:41.672Z,32759,0.11307348,0.016492823,-0.43523097
1732440161679,2024-11-24T09:22:41.679Z,32766,0.11307348,0.016492823,-0.43523097
1732440161697,2024-11-24T09:22:41.697Z,32784,0.11070252,0.017258747,-0.44398487
1732440161700,2024-11-24T09:22:41.700Z,32787,0.11070252,0.017258747,-0.44398487
1732440161713,2024-11-24T09:22:41.713Z,32800,0.024265943,0.050348546,-0.45893648
1732440161717,2024-11-24T09:22:41.717Z,32804,0.024265943,0.050348546,-0.45893648
1732440161726,2024-11-24T09:22:41.726Z,32813,0.032541424,0.011522201,-0.4777442
1732440161729,2024-11-24T09:22:41.729Z,32816,0.032541424,0.011522201,-0.4777442
1732440161739,2024-11-24T09:22:41.739Z,32826,0.049645055,7.322753E-5,-0.4123218
1732440161742,2024-11-24T09:22:41.742Z,32829,0.049645055,7.322753E-5,-0.4123218
1732440161758,2024-11-24T09:22:41.758Z,32845,-0.018209197,0.024217209,-0.3814743
1732440161761,2024-11-24T09:22:41.761Z,32848,-0.018209197,0.024217209,-0.3814743
1732440161774,2024-11-24T09:22:41.774Z,32861,-0.01991722,0.02282715,-0.4072534
1732440161776,2024-11-24T09:22:41.776Z,32863,-0.01991722,0.02282715,-0.4072534
1732440161783,2024-11-24T09:22:41.783Z,32870,0.01108878,0.0066202353,-0.408308
1732440161785,2024-11-24T09:22:41.785Z,32872,0.01108878,0.0066202353,-0.408308
1732440161791,2024-11-24T09:22:41.791Z,32878,0.04267543,0.013852548,-0.43407646
1732440161793,2024-11-24T09:22:41.793Z,32880,0.04267543,0.013852548,-0.43407646
1732440161806,2024-11-24T09:22:41.806Z,32893,0.013643684,-0.021918759,-0.51723987
1732440161812,2024-11-24T09:22:41.812Z,32899,0.013643684,-0.021918759,-0.51723987
1732440161829,2024-11-24T09:22:41.829Z,32916,0.027578468,-0.011034309,-0.46617767
1732440161832,2024-11-24T09:22:41.832Z,32919,0.027578468,-0.011034309,-0.46617767
1732440161840,2024-11-24T09:22:41.840Z,32927,-0.013662441,3.5894132E-4,-0.43647176
1732440161843,2024-11-24T09:22:41.843Z,32930,-0.013662441,3.5894132E-4,-0.43647176
1732440161852,2024-11-24T09:22:41.852Z,32939,-0.043372102,4.514239E-4,-0.39034605
1732440161855,2024-11-24T09:22:41.855Z,32942,-0.043372102,4.514239E-4,-0.39034605
1732440161893,2024-11-24T09:22:41.893Z,32980,-0.05455903,0.02426272,-0.4301635
1732440161896,2024-11-24T09:22:41.896Z,32983,-0.05455903,0.02426272,-0.4301635
1732440161905,2024-11-24T09:22:41.905Z,32992,-0.0017904398,0.026499808,-0.44278723
1732440161908,2024-11-24T09:22:41.908Z,32995,-0.0017904398,0.026499808,-0.44278723
1732440161919,2024-11-24T09:22:41.919Z,33006,0.06585658,0.035203185,-0.43239796
1732440161922,2024-11-24T09:22:41.922Z,33009,0.06585658,0.035203185,-0.43239796
1732440161943,2024-11-24T09:22:41.943Z,33030,0.026925242,0.050718088,-0.43742967
1732440161950,2024-11-24T09:22:41.950Z,33037,0.026925242,0.050718088,-0.43742967
1732440161971,2024-11-24T09:22:41.971Z,33058,-0.011517776,0.076494955,-0.44778177
1732440161976,2024-11-24T09:22:41.976Z,33063,-0.011517776,0.076494955,-0.44778177
1732440161995,2024-11-24T09:22:41.995Z,33082,-0.02236988,0.07136514,-0.4409536
1732440162001,2024-11-24T09:22:42.001Z,33088,-0.02236988,0.07136514,-0.4409536
1732440162018,2024-11-24T09:22:42.018Z,33105,-0.00925295,0.08146976,-0.4661133
1732440162024,2024-11-24T09:22:42.024Z,33111,-0.00925295,0.08146976,-0.4661133
1732440162041,2024-11-24T09:22:42.041Z,33128,-0.014826593,0.027828503,-0.4505169
1732440162048,2024-11-24T09:22:42.048Z,33135,-0.014826593,0.027828503,-0.4505169
1732440162063,2024-11-24T09:22:42.063Z,33150,0.02715099,3.4989728E-4,-0.46998537
1732440162067,2024-11-24T09:22:42.067Z,33154,0.02715099,3.4989728E-4,-0.46998537
1732440162079,2024-11-24T09:22:42.079Z,33166,-0.009876587,-0.00951744,-0.48182932
1732440162083,2024-11-24T09:22:42.083Z,33170,-0.009876587,-0.00951744,-0.48182932
1732440162096,2024-11-24T09:22:42.096Z,33183,-0.019509776,-0.020518295,-0.39603654
1732440162101,2024-11-24T09:22:42.101Z,33188,-0.019509776,-0.020518295,-0.39603654
1732440162120,2024-11-24T09:22:42.120Z,33207,-0.03280964,-0.02173428,-0.4133157
1732440162124,2024-11-24T09:22:42.124Z,33211,-0.03280964,-0.02173428,-0.4133157
1732440162139,2024-11-24T09:22:42.139Z,33226,-0.016827356,-0.012223746,-0.45607534
1732440162143,2024-11-24T09:22:42.143Z,33230,-0.016827356,-0.012223746,-0.45607534
1732440162154,2024-11-24T09:22:42.154Z,33241,0.02289035,0.006364474,-0.4650803
1732440162157,2024-11-24T09:22:42.157Z,33244,0.02289035,0.006364474,-0.4650803
1732440162167,2024-11-24T09:22:42.167Z,33254,0.046624407,0.012032265,-0.4459356
1732440162170,2024-11-24T09:22:42.170Z,33257,0.046624407,0.012032265,-0.4459356
1732440162178,2024-11-24T09:22:42.178Z,33265,0.07156717,0.014305236,-0.48256388
1732440162181,2024-11-24T09:22:42.181Z,33268,0.07156717,0.014305236,-0.48256388
1732440162189,2024-11-24T09:22:42.189Z,33276,-0.010058149,0.029904839,-0.43591785
1732440162191,2024-11-24T09:22:42.191Z,33278,-0.010058149,0.029904839,-0.43591785
1732440162198,2024-11-24T09:22:42.198Z,33285,-0.038538527,0.03531191,-0.42072102
1732440162200,2024-11-24T09:22:42.200Z,33287,-0.038538527,0.03531191,-0.42072102
1732440162209,2024-11-24T09:22:42.209Z,33296,-0.011458808,0.029888308,-0.3939625
1732440162211,2024-11-24T09:22:42.211Z,33298,-0.011458808,0.029888308,-0.3939625
1732440162219,2024-11-24T09:22:42.219Z,33306,0.011257688,0.030374935,-0.4318328
1732440162221,2024-11-24T09:22:42.221Z,33308,0.011257688,0.030374935,-0.4318328
1732440162229,2024-11-24T09:22:42.229Z,33316,0.022429492,0.03542773,-0.46407777
1732440162235,2024-11-24T09:22:42.235Z,33322,0.022429492,0.03542773,-0.46407777
1732440162249,2024-11-24T09:22:42.249Z,33336,0.03922145,0.030278757,-0.46205842
1732440162254,2024-11-24T09:22:42.254Z,33341,0.03922145,0.030278757,-0.46205842
1732440162271,2024-11-24T09:22:42.271Z,33358,0.019071566,0.04570876,-0.45161468
1732440162275,2024-11-24T09:22:42.275Z,33362,0.019071566,0.04570876,-0.45161468
1732440162291,2024-11-24T09:22:42.291Z,33378,0.089053765,0.025280418,-0.43363205
1732440162298,2024-11-24T09:22:42.298Z,33385,0.089053765,0.025280418,-0.43363205
1732440162315,2024-11-24T09:22:42.315Z,33402,0.07985443,0.009106179,-0.47496298
1732440162320,2024-11-24T09:22:42.320Z,33407,0.07985443,0.009106179,-0.47496298
1732440162336,2024-11-24T09:22:42.336Z,33423,-0.02667579,0.0302419,-0.37612593
1732440162341,2024-11-24T09:22:42.341Z,33428,-0.02667579,0.0302419,-0.37612593
1732440162353,2024-11-24T09:22:42.353Z,33440,0.046824384,-0.023084663,-0.3986213
1732440162356,2024-11-24T09:22:42.356Z,33443,0.046824384,-0.023084663,-0.3986213
1732440162369,2024-11-24T09:22:42.369Z,33456,0.0187351,0.012933752,-0.38690296
1732440162373,2024-11-24T09:22:42.373Z,33460,0.0187351,0.012933752,-0.38690296
1732440162391,2024-11-24T09:22:42.391Z,33478,-0.043598156,0.03676304,-0.42934206
1732440162397,2024-11-24T09:22:42.397Z,33484,-0.043598156,0.03676304,-0.42934206
1732440162413,2024-11-24T09:22:42.413Z,33500,0.010273892,0.060125537,-0.39888883
1732440162416,2024-11-24T09:22:42.416Z,33503,0.010273892,0.060125537,-0.39888883
1732440162427,2024-11-24T09:22:42.427Z,33514,-0.018976105,0.056773216,-0.49606574
1732440162430,2024-11-24T09:22:42.430Z,33517,-0.018976105,0.056773216,-0.49606574
1732440162441,2024-11-24T09:22:42.441Z,33528,-0.046593264,0.035306465,-0.3892178
1732440162444,2024-11-24T09:22:42.444Z,33531,-0.046593264,0.035306465,-0.3892178
1732440162454,2024-11-24T09:22:42.454Z,33541,-0.043471187,0.03404156,-0.3902924
1732440162457,2024-11-24T09:22:42.457Z,33544,-0.043471187,0.03404156,-0.3902924
1732440162466,2024-11-24T09:22:42.466Z,33553,-0.02154032,0.021010952,-0.36404005
1732440162469,2024-11-24T09:22:42.469Z,33556,-0.02154032,0.021010952,-0.36404005
1732440162479,2024-11-24T09:22:42.479Z,33566,-0.052850924,0.04208677,-0.36851248
1732440162483,2024-11-24T09:22:42.483Z,33570,-0.052850924,0.04208677,-0.36851248
1732440162492,2024-11-24T09:22:42.492Z,33579,0.020278823,0.045421686,-0.4335889
1732440162497,2024-11-24T09:22:42.497Z,33584,0.020278823,0.045421686,-0.4335889
1732440162505,2024-11-24T09:22:42.505Z,33592,0.04700135,0.044370435,-0.43759575
1732440162508,2024-11-24T09:22:42.508Z,33595,0.04700135,0.044370435,-0.43759575
1732440162516,2024-11-24T09:22:42.516Z,33603,0.026372084,0.08398303,-0.4715038
1732440162519,2024-11-24T09:22:42.519Z,33606,0.026372084,0.08398303,-0.4715038
1732440162615,2024-11-24T09:22:42.615Z,33702,0.029988885,0.07552705,-0.36473402
1732440162618,2024-11-24T09:22:42.618Z,33705,0.029988885,0.07552705,-0.36473402
1732440162632,2024-11-24T09:22:42.632Z,33719,0.036921516,0.06196381,-0.44135383
1732440162638,2024-11-24T09:22:42.638Z,33725,0.036921516,0.06196381,-0.44135383
1732440162658,2024-11-24T09:22:42.658Z,33745,-0.010075933,0.07477036,-0.39380488
1732440162664,2024-11-24T09:22:42.664Z,33751,-0.010075933,0.07477036,-0.39380488
1732440162706,2024-11-24T09:22:42.706Z,33793,-0.0073118005,0.060709316,-0.4137617
1732440162711,2024-11-24T09:22:42.711Z,33798,-0.0073118005,0.060709316,-0.4137617
1732440162731,2024-11-24T09:22:42.731Z,33818,-0.03258263,0.08078134,-0.35404363
1732440162737,2024-11-24T09:22:42.737Z,33824,-0.03258263,0.08078134,-0.35404363
1732440162756,2024-11-24T09:22:42.756Z,33843,0.02019959,0.07237087,-0.40196157
1732440162761,2024-11-24T09:22:42.761Z,33848,0.02019959,0.07237087,-0.40196157
1732440162776,2024-11-24T09:22:42.776Z,33863,-0.011419872,0.0086309295,-0.38008842
1732440162780,2024-11-24T09:22:42.780Z,33867,-0.011419872,0.0086309295,-0.38008842
1732440162793,2024-11-24T09:22:42.793Z,33880,-0.051317472,0.035593927,-0.4026739
1732440162799,2024-11-24T09:22:42.799Z,33886,-0.051317472,0.035593927,-0.4026739
1732440162818,2024-11-24T09:22:42.818Z,33905,0.07082715,0.097769156,-0.4440422
1732440162824,2024-11-24T09:22:42.824Z,33911,0.07082715,0.097769156,-0.4440422
1732440162838,2024-11-24T09:22:42.838Z,33925,0.09900325,0.059044145,-0.3830641
1732440162842,2024-11-24T09:22:42.842Z,33929,0.09900325,0.059044145,-0.3830641
1732440162853,2024-11-24T09:22:42.853Z,33940,0.08838301,0.055521347,-0.30003047
1732440162857,2024-11-24T09:22:42.857Z,33944,0.08838301,0.055521347,-0.30003047
1732440162867,2024-11-24T09:22:42.867Z,33954,0.06044879,0.09534711,-0.38793698
1732440162870,2024-11-24T09:22:42.870Z,33957,0.06044879,0.09534711,-0.38793698
1732440162880,2024-11-24T09:22:42.880Z,33967,0.027782444,0.074227914,-0.44943285
1732440162883,2024-11-24T09:22:42.883Z,33970,0.027782444,0.074227914,-0.44943285
1732440162893,2024-11-24T09:22:42.893Z,33980,0.039968956,0.057052705,-0.42960176
1732440162895,2024-11-24T09:22:42.895Z,33982,0.039968956,0.057052705,-0.42960176
1732440162905,2024-11-24T09:22:42.905Z,33992,-0.013607921,0.02859112,-0.3397945
1732440162908,2024-11-24T09:22:42.908Z,33995,-0.013607921,0.02859112,-0.3397945
1732440162916,2024-11-24T09:22:42.916Z,34003,-0.063370176,0.06698549,-0.42120612
1732440162919,2024-11-24T09:22:42.919Z,34006,-0.063370176,0.06698549,-0.42120612
1732440162927,2024-11-24T09:22:42.927Z,34014,0.02669282,0.017320013,-0.36819318
1732440162929,2024-11-24T09:22:42.929Z,34016,0.02669282,0.017320013,-0.36819318
1732440162938,2024-11-24T09:22:42.938Z,34025,0.041812215,0.01917297,-0.33392555
1732440162940,2024-11-24T09:22:42.940Z,34027,0.041812215,0.01917297,-0.33392555
1732440162947,2024-11-24T09:22:42.947Z,34034,-0.08034588,0.054245844,-0.44119105
1732440162949,2024-11-24T09:22:42.949Z,34036,-0.08034588,0.054245844,-0.44119105
1732440162957,2024-11-24T09:22:42.957Z,34044,0.018735489,0.024701988,-0.41997287
1732440162959,2024-11-24T09:22:42.959Z,34046,0.018735489,0.024701988,-0.41997287
1732440162974,2024-11-24T09:22:42.974Z,34061,0.11551499,-0.021749645,-0.41697237
1732440162976,2024-11-24T09:22:42.976Z,34063,0.11551499,-0.021749645,-0.41697237
1732440162984,2024-11-24T09:22:42.984Z,34071,0.1524765,-0.027259216,-0.40299055
1732440162986,2024-11-24T09:22:42.986Z,34073,0.1524765,-0.027259216,-0.40299055
1732440162994,2024-11-24T09:22:42.994Z,34081,0.042513516,0.05537528,-0.35970294
1732440162996,2024-11-24T09:22:42.996Z,34083,0.042513516,0.05537528,-0.35970294
1732440163019,2024-11-24T09:22:43.019Z,34106,-0.012830085,0.037743684,-0.44302246
1732440163021,2024-11-24T09:22:43.021Z,34108,-0.012830085,0.037743684,-0.44302246
1732440163028,2024-11-24T09:22:43.028Z,34115,0.023290839,0.01646822,-0.47627112
1732440163031,2024-11-24T09:22:43.031Z,34118,0.023290839,0.01646822,-0.47627112
1732440163038,2024-11-24T09:22:43.038Z,34125,0.06679508,-0.055090927,-0.471684
1732440163040,2024-11-24T09:22:43.040Z,34127,0.06679508,-0.055090927,-0.471684
1732440163068,2024-11-24T09:22:43.068Z,34155,0.015331224,-0.029909896,-0.35081285
1732440163073,2024-11-24T09:22:43.073Z,34160,0.015331224,-0.029909896,-0.35081285
1732440163091,2024-11-24T09:22:43.091Z,34178,-0.02663936,-0.0011167928,-0.34492335
1732440163096,2024-11-24T09:22:43.096Z,34183,-0.02663936,-0.0011167928,-0.34492335
1732440163112,2024-11-24T09:22:43.112Z,34199,-0.07587359,0.034676492,-0.43124625
1732440163116,2024-11-24T09:22:43.116Z,34203,-0.07587359,0.034676492,-0.43124625
1732440163127,2024-11-24T09:22:43.127Z,34214,0.010203984,0.010761238,-0.4375652
1732440163129,2024-11-24T09:22:43.129Z,34216,0.010203984,0.010761238,-0.4375652
1732440163140,2024-11-24T09:22:43.140Z,34227,0.005567213,-0.008293577,-0.4225668
1732440163143,2024-11-24T09:22:43.143Z,34230,0.005567213,-0.008293577,-0.4225668
1732440163152,2024-11-24T09:22:43.152Z,34239,-0.014280122,-0.008271405,-0.37929323
1732440163155,2024-11-24T09:22:43.155Z,34242,-0.014280122,-0.008271405,-0.37929323
1732440163164,2024-11-24T09:22:43.164Z,34251,-9.208143E-4,-0.023934608,-0.48642135
1732440163167,2024-11-24T09:22:43.167Z,34254,-9.208143E-4,-0.023934608,-0.48642135
1732440163175,2024-11-24T09:22:43.175Z,34262,-0.07671145,0.03634225,-0.33827254
1732440163177,2024-11-24T09:22:43.177Z,34264,-0.07671145,0.03634225,-0.33827254
1732440163184,2024-11-24T09:22:43.184Z,34271,-0.091322094,0.06425653,-0.42987734
1732440163186,2024-11-24T09:22:43.186Z,34273,-0.091322094,0.06425653,-0.42987734
1732440163200,2024-11-24T09:22:43.200Z,34287,0.022856228,-0.006589602,-0.42801088
1732440163208,2024-11-24T09:22:43.208Z,34295,0.022856228,-0.006589602,-0.42801088
1732440163219,2024-11-24T09:22:43.219Z,34306,0.08112882,-0.032783274,-0.43951988
1732440163222,2024-11-24T09:22:43.222Z,34309,0.08112882,-0.032783274,-0.43951988
1732440163228,2024-11-24T09:22:43.228Z,34315,0.0654956,-0.027564865,-0.3240636
1732440163230,2024-11-24T09:22:43.230Z,34317,0.0654956,-0.027564865,-0.3240636
1732440163238,2024-11-24T09:22:43.238Z,34325,-0.064567424,0.04425656,-0.31089428
1732440163241,2024-11-24T09:22:43.241Z,34328,-0.064567424,0.04425656,-0.31089428
1732440163248,2024-11-24T09:22:43.248Z,34335,-0.06340816,0.046255387,-0.37276152
1732440163251,2024-11-24T09:22:43.251Z,34338,-0.06340816,0.046255387,-0.37276152
1732440163259,2024-11-24T09:22:43.259Z,34346,0.04730057,0.04977362,-0.3795644
1732440163261,2024-11-24T09:22:43.261Z,34348,0.04730057,0.04977362,-0.3795644
1732440163287,2024-11-24T09:22:43.287Z,34374,0.08233503,0.018128335,-0.4083559
1732440163289,2024-11-24T09:22:43.289Z,34376,0.08233503,0.018128335,-0.4083559
1732440163296,2024-11-24T09:22:43.296Z,34383,0.07808801,0.0577137,-0.2861851
1732440163298,2024-11-24T09:22:43.298Z,34385,0.07808801,0.0577137,-0.2861851
1732440163307,2024-11-24T09:22:43.307Z,34394,-0.019121721,0.0844821,-0.31040084
1732440163310,2024-11-24T09:22:43.310Z,34397,-0.019121721,0.0844821,-0.31040084
1732440163318,2024-11-24T09:22:43.318Z,34405,-0.022528624,0.10442265,-0.36129725
1732440163321,2024-11-24T09:22:43.321Z,34408,-0.022528624,0.10442265,-0.36129725
1732440163335,2024-11-24T09:22:43.335Z,34422,0.078263104,0.0649429,-0.39928973
1732440163338,2024-11-24T09:22:43.338Z,34425,0.078263104,0.0649429,-0.39928973
1732440163352,2024-11-24T09:22:43.352Z,34439,0.12355745,7.142845E-4,-0.4567377
1732440163357,2024-11-24T09:22:43.357Z,34444,0.12355745,7.142845E-4,-0.4567377
1732440163380,2024-11-24T09:22:43.380Z,34467,0.11368053,0.04558292,-0.37728566
1732440163385,2024-11-24T09:22:43.385Z,34472,0.11368053,0.04558292,-0.37728566
1732440163400,2024-11-24T09:22:43.400Z,34487,-0.050023787,0.07884378,-0.32773584
1732440163404,2024-11-24T09:22:43.404Z,34491,-0.050023787,0.07884378,-0.32773584
1732440163414,2024-11-24T09:22:43.414Z,34501,9.822506E-4,0.05496392,-0.39418438
1732440163418,2024-11-24T09:22:43.418Z,34505,9.822506E-4,0.05496392,-0.39418438
1732440163428,2024-11-24T09:22:43.428Z,34515,0.03134182,0.030022217,-0.41269138
1732440163430,2024-11-24T09:22:43.430Z,34517,0.03134182,0.030022217,-0.41269138
1732440163439,2024-11-24T09:22:43.439Z,34526,0.05490426,0.025913404,-0.342204
1732440163442,2024-11-24T09:22:43.442Z,34529,0.05490426,0.025913404,-0.342204
1732440163450,2024-11-24T09:22:43.450Z,34537,3.381789E-4,0.029743506,-0.29293525
1732440163452,2024-11-24T09:22:43.452Z,34539,3.381789E-4,0.029743506,-0.29293525
1732440163460,2024-11-24T09:22:43.460Z,34547,0.0022407088,0.021336343,-0.2516347
1732440163462,2024-11-24T09:22:43.462Z,34549,0.0022407088,0.021336343,-0.2516347
1732440163520,2024-11-24T09:22:43.520Z,34607,-0.06801685,0.038640894,-0.42021957
1732440163525,2024-11-24T09:22:43.525Z,34612,-0.06801685,0.038640894,-0.42021957
1732440163541,2024-11-24T09:22:43.541Z,34628,0.033183813,0.017058901,-0.39817113
1732440163545,2024-11-24T09:22:43.545Z,34632,0.033183813,0.017058901,-0.39817113
1732440163556,2024-11-24T09:22:43.556Z,34643,0.15284148,-0.0074525787,-0.44222865
1732440163559,2024-11-24T09:22:43.559Z,34646,0.15284148,-0.0074525787,-0.44222865
1732440163656,2024-11-24T09:22:43.656Z,34743,0.04140217,0.016169377,-0.35980496
1732440163662,2024-11-24T09:22:43.662Z,34749,0.04140217,0.016169377,-0.35980496
1732440163684,2024-11-24T09:22:43.684Z,34771,-0.026999952,0.028121997,-0.36684123
1732440163690,2024-11-24T09:22:43.690Z,34777,-0.026999952,0.028121997,-0.36684123
1732440163711,2024-11-24T09:22:43.711Z,34798,-0.022138296,0.025447685,-0.35409832
1732440163716,2024-11-24T09:22:43.716Z,34803,-0.022138296,0.025447685,-0.35409832
1732440163730,2024-11-24T09:22:43.730Z,34817,-0.037239455,0.02340772,-0.39124194
1732440163735,2024-11-24T09:22:43.735Z,34822,-0.037239455,0.02340772,-0.39124194
1732440163748,2024-11-24T09:22:43.748Z,34835,-0.11049859,0.035680868,-0.36627355
1732440163751,2024-11-24T09:22:43.751Z,34838,-0.11049859,0.035680868,-0.36627355
1732440163761,2024-11-24T09:22:43.761Z,34848,-0.094210744,0.03172162,-0.31260136
1732440163764,2024-11-24T09:22:43.764Z,34851,-0.094210744,0.03172162,-0.31260136
1732440163774,2024-11-24T09:22:43.774Z,34861,0.014087134,-0.024032537,-0.3548309
1732440163777,2024-11-24T09:22:43.777Z,34864,0.014087134,-0.024032537,-0.3548309
1732440163786,2024-11-24T09:22:43.786Z,34873,-0.011240012,-0.023593267,-0.27463552
1732440163789,2024-11-24T09:22:43.789Z,34876,-0.011240012,-0.023593267,-0.27463552
1732440163797,2024-11-24T09:22:43.797Z,34884,-0.0048783584,-0.017850596,-0.3023087
1732440163800,2024-11-24T09:22:43.800Z,34887,-0.0048783584,-0.017850596,-0.3023087
1732440163828,2024-11-24T09:22:43.828Z,34915,-0.032640878,-0.0018544167,-0.33814767
1732440163831,2024-11-24T09:22:43.831Z,34918,-0.032640878,-0.0018544167,-0.33814767
1732440163842,2024-11-24T09:22:43.842Z,34929,-0.03448815,-0.008048513,-0.54136646
1732440163844,2024-11-24T09:22:43.844Z,34931,-0.03448815,-0.008048513,-0.54136646
1732440163852,2024-11-24T09:22:43.852Z,34939,0.09470588,-0.023006475,-0.4155276
1732440163855,2024-11-24T09:22:43.855Z,34942,0.09470588,-0.023006475,-0.4155276
1732440163863,2024-11-24T09:22:43.863Z,34950,-0.053398866,4.2380553E-4,-0.3637034
1732440163866,2024-11-24T09:22:43.866Z,34953,-0.053398866,4.2380553E-4,-0.3637034
1732440163925,2024-11-24T09:22:43.925Z,35012,-0.10130487,-0.007505773,-0.40913036
1732440163931,2024-11-24T09:22:43.931Z,35018,-0.10130487,-0.007505773,-0.40913036
1732440163947,2024-11-24T09:22:43.947Z,35034,-0.017532038,-0.05180522,-0.4843053
1732440163951,2024-11-24T09:22:43.951Z,35038,-0.017532038,-0.05180522,-0.4843053
1732440163961,2024-11-24T09:22:43.961Z,35048,-0.031115232,-0.06783193,-0.45960763
1732440163964,2024-11-24T09:22:43.964Z,35051,-0.031115232,-0.06783193,-0.45960763
1732440164154,2024-11-24T09:22:44.154Z,35241,-0.03753159,-0.098702446,-0.37601134
1732440164161,2024-11-24T09:22:44.161Z,35248,-0.03753159,-0.098702446,-0.37601134
1732440164183,2024-11-24T09:22:44.183Z,35270,-0.03895566,-0.081989646,-0.48242122
1732440164190,2024-11-24T09:22:44.190Z,35277,-0.03895566,-0.081989646,-0.48242122
1732440164209,2024-11-24T09:22:44.209Z,35296,-0.023654582,-0.08241734,-0.47748554
1732440164215,2024-11-24T09:22:44.215Z,35302,-0.023654582,-0.08241734,-0.47748554
1732440164233,2024-11-24T09:22:44.233Z,35320,0.029875057,-0.09118306,-0.44878706
1732440164239,2024-11-24T09:22:44.239Z,35326,0.029875057,-0.09118306,-0.44878706
1732440164257,2024-11-24T09:22:44.257Z,35344,-0.09037011,-0.05680667,-0.49814287
1732440164266,2024-11-24T09:22:44.266Z,35353,-0.09037011,-0.05680667,-0.49814287
1732440164286,2024-11-24T09:22:44.286Z,35373,0.037973847,-0.08875886,-0.48350298
1732440164293,2024-11-24T09:22:44.293Z,35380,0.037973847,-0.08875886,-0.48350298
1732440164310,2024-11-24T09:22:44.310Z,35397,-0.028078308,0.0149545595,-0.3411627
1732440164316,2024-11-24T09:22:44.316Z,35403,-0.028078308,0.0149545595,-0.3411627
1732440164333,2024-11-24T09:22:44.333Z,35420,-0.01611397,0.017758405,-0.38099837
1732440164337,2024-11-24T09:22:44.337Z,35424,-0.01611397,0.017758405,-0.38099837
1732440164354,2024-11-24T09:22:44.354Z,35441,0.004248558,0.0048392406,-0.4032943
1732440164359,2024-11-24T09:22:44.359Z,35446,0.004248558,0.0048392406,-0.4032943
1732440164375,2024-11-24T09:22:44.375Z,35462,0.0030539671,-0.0017844955,-0.39028206
1732440164380,2024-11-24T09:22:44.380Z,35467,0.0030539671,-0.0017844955,-0.39028206
