Timestamp (ms),ISO DateTime,Elapsed Time (ms),Acceleration X,Acceleration Y,Acceleration Z
1732439016465,2024-11-24T09:03:36.465Z,62036,-0.05498381,-0.33467576,-1.114741
1732439016471,2024-11-24T09:03:36.471Z,62042,-0.05498381,-0.33467576,-1.114741
1732439016493,2024-11-24T09:03:36.493Z,62064,-0.07210592,-0.31212944,-1.1256126
1732439016501,2024-11-24T09:03:36.501Z,62072,-0.07210592,-0.31212944,-1.1256126
1732439016520,2024-11-24T09:03:36.520Z,62091,-0.07993959,-0.30771622,-1.1341313
1732439016525,2024-11-24T09:03:36.525Z,62096,-0.07993959,-0.30771622,-1.1341313
1732439016547,2024-11-24T09:03:36.547Z,62118,-0.0614731,-0.31021497,-1.1153854
1732439016552,2024-11-24T09:03:36.552Z,62123,-0.0614731,-0.31021497,-1.1153854
1732439016564,2024-11-24T09:03:36.564Z,62135,-0.04639066,-0.3166372,-1.0966439
1732439016568,2024-11-24T09:03:36.568Z,62139,-0.04639066,-0.3166372,-1.0966439
1732439016582,2024-11-24T09:03:36.582Z,62153,-0.047340818,-0.31044543,-1.0940586
1732439016587,2024-11-24T09:03:36.587Z,62158,-0.047340818,-0.31044543,-1.0940586
1732439016599,2024-11-24T09:03:36.599Z,62170,-0.04389186,-0.28599754,-1.0681397
1732439016602,2024-11-24T09:03:36.602Z,62173,-0.04389186,-0.28599754,-1.0681397
1732439016614,2024-11-24T09:03:36.614Z,62185,-0.030010523,-0.28243396,-1.0588168
1732439016619,2024-11-24T09:03:36.619Z,62190,-0.030010523,-0.28243396,-1.0588168
1732439016629,2024-11-24T09:03:36.629Z,62200,-0.020029455,-0.2716691,-1.0618054
1732439016632,2024-11-24T09:03:36.632Z,62203,-0.020029455,-0.2716691,-1.0618054
1732439016679,2024-11-24T09:03:36.679Z,62250,-0.031110588,-0.27370894,-1.0688132
1732439016682,2024-11-24T09:03:36.682Z,62253,-0.031110588,-0.27370894,-1.0688132
1732439016695,2024-11-24T09:03:36.695Z,62266,0.017102761,-0.2012769,-0.9852942
1732439016700,2024-11-24T09:03:36.700Z,62271,0.017102761,-0.2012769,-0.9852942
1732439016713,2024-11-24T09:03:36.713Z,62284,0.009420289,-0.18663703,-0.9679486
1732439016716,2024-11-24T09:03:36.716Z,62287,0.009420289,-0.18663703,-0.9679486
1732439016727,2024-11-24T09:03:36.727Z,62298,0.001257656,-0.1649331,-0.94702274
1732439016731,2024-11-24T09:03:36.731Z,62302,0.001257656,-0.1649331,-0.94702274
1732439016743,2024-11-24T09:03:36.743Z,62314,0.013702738,-0.121383384,-0.89091635
1732439016748,2024-11-24T09:03:36.748Z,62319,0.013702738,-0.121383384,-0.89091635
1732439016762,2024-11-24T09:03:36.762Z,62333,0.00714919,-0.10561909,-0.8877987
1732439016768,2024-11-24T09:03:36.768Z,62339,0.00714919,-0.10561909,-0.8877987
1732439016861,2024-11-24T09:03:36.861Z,62432,0.0016022533,-0.08617519,-0.8660901
1732439016869,2024-11-24T09:03:36.869Z,62440,0.0016022533,-0.08617519,-0.8660901
1732439016886,2024-11-24T09:03:36.886Z,62457,0.015974421,-0.022969618,-0.7119107
1732439016890,2024-11-24T09:03:36.890Z,62461,0.015974421,-0.022969618,-0.7119107
1732439016906,2024-11-24T09:03:36.906Z,62477,0.010309012,-0.008189132,-0.69322354
1732439016911,2024-11-24T09:03:36.911Z,62482,0.010309012,-0.008189132,-0.69322354
1732439016925,2024-11-24T09:03:36.925Z,62496,2.500968E-4,0.004074874,-0.685504
1732439016928,2024-11-24T09:03:36.928Z,62499,2.500968E-4,0.004074874,-0.685504
1732439016941,2024-11-24T09:03:36.941Z,62512,0.010185604,0.0069577824,-0.647624
1732439016945,2024-11-24T09:03:36.945Z,62516,0.010185604,0.0069577824,-0.647624
1732439016956,2024-11-24T09:03:36.956Z,62527,0.006728934,0.013755981,-0.6252788
1732439016960,2024-11-24T09:03:36.960Z,62531,0.006728934,0.013755981,-0.6252788
1732439016971,2024-11-24T09:03:36.971Z,62542,0.0029509575,0.019141072,-0.59806204
1732439016975,2024-11-24T09:03:36.975Z,62546,0.0029509575,0.019141072,-0.59806204
1732439016987,2024-11-24T09:03:36.987Z,62558,0.022614397,0.04842168,-0.4590911
1732439016991,2024-11-24T09:03:36.991Z,62562,0.022614397,0.04842168,-0.4590911
1732439017010,2024-11-24T09:03:37.010Z,62581,0.019917086,0.053121954,-0.4357447
1732439017023,2024-11-24T09:03:37.023Z,62594,0.019917086,0.053121954,-0.4357447
1732439017050,2024-11-24T09:03:37.050Z,62621,0.022886423,0.059616446,-0.41966307
1732439017059,2024-11-24T09:03:37.059Z,62630,0.022886423,0.059616446,-0.41966307
1732439017085,2024-11-24T09:03:37.085Z,62656,0.03788681,0.051881656,-0.39964956
1732439017090,2024-11-24T09:03:37.090Z,62661,0.03788681,0.051881656,-0.39964956
1732439017105,2024-11-24T09:03:37.105Z,62676,0.043873135,0.044275716,-0.39646468
1732439017108,2024-11-24T09:03:37.108Z,62679,0.043873135,0.044275716,-0.39646468
1732439017122,2024-11-24T09:03:37.122Z,62693,0.03406026,0.053180106,-0.3876206
1732439017126,2024-11-24T09:03:37.126Z,62697,0.03406026,0.053180106,-0.3876206
1732439017140,2024-11-24T09:03:37.140Z,62711,0.04403882,0.051598083,-0.35211033
1732439017144,2024-11-24T09:03:37.144Z,62715,0.04403882,0.051598083,-0.35211033
1732439017154,2024-11-24T09:03:37.154Z,62725,0.05100368,0.0494704,-0.33299968
1732439017157,2024-11-24T09:03:37.157Z,62728,0.05100368,0.0494704,-0.33299968
1732439017169,2024-11-24T09:03:37.169Z,62740,0.046258014,0.060416114,-0.3268039
1732439017173,2024-11-24T09:03:37.173Z,62744,0.046258014,0.060416114,-0.3268039
1732439017224,2024-11-24T09:03:37.224Z,62795,0.014655012,0.07451207,-0.24682671
1732439017227,2024-11-24T09:03:37.227Z,62798,0.014655012,0.07451207,-0.24682671
1732439017239,2024-11-24T09:03:37.239Z,62810,0.01726745,0.07339178,-0.23430789
1732439017243,2024-11-24T09:03:37.243Z,62814,0.01726745,0.07339178,-0.23430789
1732439017258,2024-11-24T09:03:37.258Z,62829,0.02760916,0.06691887,-0.22231752
1732439017261,2024-11-24T09:03:37.261Z,62832,0.02760916,0.06691887,-0.22231752
1732439017312,2024-11-24T09:03:37.312Z,62883,0.016811334,0.0714478,-0.19312811
1732439017316,2024-11-24T09:03:37.316Z,62887,0.016811334,0.0714478,-0.19312811
1732439017328,2024-11-24T09:03:37.328Z,62899,0.019347675,0.07019058,-0.17913225
1732439017332,2024-11-24T09:03:37.332Z,62903,0.019347675,0.07019058,-0.17913225
1732439017344,2024-11-24T09:03:37.344Z,62915,0.0048253587,0.07137457,-0.1791215
1732439017349,2024-11-24T09:03:37.349Z,62920,0.0048253587,0.07137457,-0.1791215
1732439017363,2024-11-24T09:03:37.363Z,62934,0.016989613,0.06146532,-0.17375806
1732439017367,2024-11-24T09:03:37.367Z,62938,0.016989613,0.06146532,-0.17375806
1732439017382,2024-11-24T09:03:37.382Z,62953,0.021129133,0.020697037,-0.139573
1732439017385,2024-11-24T09:03:37.385Z,62956,0.021129133,0.020697037,-0.139573
1732439017400,2024-11-24T09:03:37.400Z,62971,0.015600065,0.021601148,-0.1322732
1732439017404,2024-11-24T09:03:37.404Z,62975,0.015600065,0.021601148,-0.1322732
1732439017415,2024-11-24T09:03:37.415Z,62986,0.0048219063,0.0319415,-0.11566264
1732439017418,2024-11-24T09:03:37.418Z,62989,0.0048219063,0.0319415,-0.11566264
1732439017430,2024-11-24T09:03:37.430Z,63001,-0.0067005376,0.03315136,-0.13297915
1732439017434,2024-11-24T09:03:37.434Z,63005,-0.0067005376,0.03315136,-0.13297915
1732439017447,2024-11-24T09:03:37.447Z,63018,0.014336453,0.021672528,-0.12531932
1732439017451,2024-11-24T09:03:37.451Z,63022,0.014336453,0.021672528,-0.12531932
1732439017463,2024-11-24T09:03:37.463Z,63034,-0.008473607,0.025655989,-0.09552837
1732439017467,2024-11-24T09:03:37.467Z,63038,-0.008473607,0.025655989,-0.09552837
1732439017479,2024-11-24T09:03:37.479Z,63050,-0.012594771,0.030828498,-0.09051399
1732439017483,2024-11-24T09:03:37.483Z,63054,-0.012594771,0.030828498,-0.09051399
1732439017497,2024-11-24T09:03:37.497Z,63068,-0.0015831442,0.027216135,-0.09435771
1732439017501,2024-11-24T09:03:37.501Z,63072,-0.0015831442,0.027216135,-0.09435771
1732439017512,2024-11-24T09:03:37.512Z,63083,-0.009378278,0.032848626,-0.099065885
1732439017516,2024-11-24T09:03:37.516Z,63087,-0.009378278,0.032848626,-0.099065885
1732439017528,2024-11-24T09:03:37.528Z,63099,-0.014566832,0.030654911,-0.09943926
1732439017533,2024-11-24T09:03:37.533Z,63104,-0.014566832,0.030654911,-0.09943926
1732439017545,2024-11-24T09:03:37.545Z,63116,-0.026469078,0.02058919,-0.11051361
1732439017549,2024-11-24T09:03:37.549Z,63120,-0.026469078,0.02058919,-0.11051361
1732439017581,2024-11-24T09:03:37.581Z,63152,-0.031231565,-0.003403281,-0.08218672
1732439017584,2024-11-24T09:03:37.584Z,63155,-0.031231565,-0.003403281,-0.08218672
1732439017627,2024-11-24T09:03:37.627Z,63198,-0.020670537,-0.010009415,-0.070155814
1732439017630,2024-11-24T09:03:37.630Z,63201,-0.020670537,-0.010009415,-0.070155814
1732439017643,2024-11-24T09:03:37.643Z,63214,-0.04098928,-0.010720685,-0.07279062
1732439017647,2024-11-24T09:03:37.647Z,63218,-0.04098928,-0.010720685,-0.07279062
1732439017662,2024-11-24T09:03:37.662Z,63233,-0.061918154,0.0010325762,-0.10703181
1732439017667,2024-11-24T09:03:37.667Z,63238,-0.061918154,0.0010325762,-0.10703181
1732439017679,2024-11-24T09:03:37.679Z,63250,-0.05537827,-0.00509014,-0.09382552
1732439017683,2024-11-24T09:03:37.683Z,63254,-0.05537827,-0.00509014,-0.09382552
1732439017694,2024-11-24T09:03:37.694Z,63265,-0.03876272,-3.816973E-4,-0.079320975
1732439017698,2024-11-24T09:03:37.698Z,63269,-0.03876272,-3.816973E-4,-0.079320975
1732439017710,2024-11-24T09:03:37.710Z,63281,-0.053765807,0.0018593763,-0.0882972
1732439017714,2024-11-24T09:03:37.714Z,63285,-0.053765807,0.0018593763,-0.0882972
1732439017727,2024-11-24T09:03:37.727Z,63298,-0.058401436,-0.02017647,-0.09578654
1732439017731,2024-11-24T09:03:37.731Z,63302,-0.058401436,-0.02017647,-0.09578654
1732439017745,2024-11-24T09:03:37.745Z,63316,-0.024138464,-0.036665596,-0.0866392
1732439017749,2024-11-24T09:03:37.749Z,63320,-0.024138464,-0.036665596,-0.0866392
1732439017764,2024-11-24T09:03:37.764Z,63335,-0.031028075,-0.04985297,-0.0916179
1732439017768,2024-11-24T09:03:37.768Z,63339,-0.031028075,-0.04985297,-0.0916179
1732439017783,2024-11-24T09:03:37.783Z,63354,-0.03746449,-0.06090887,-0.073871456
1732439017787,2024-11-24T09:03:37.787Z,63358,-0.03746449,-0.06090887,-0.073871456
1732439017800,2024-11-24T09:03:37.800Z,63371,-0.010336387,-0.060487203,-0.041546606
1732439017803,2024-11-24T09:03:37.803Z,63374,-0.010336387,-0.060487203,-0.041546606
1732439017814,2024-11-24T09:03:37.814Z,63385,0.0022944869,-0.06223309,-0.04788971
1732439017817,2024-11-24T09:03:37.817Z,63388,0.0022944869,-0.06223309,-0.04788971
1732439017828,2024-11-24T09:03:37.828Z,63399,-0.0076035312,-0.060535632,-0.060618926
1732439017831,2024-11-24T09:03:37.831Z,63402,-0.0076035312,-0.060535632,-0.060618926
1732439017841,2024-11-24T09:03:37.841Z,63412,0.016799178,-0.08963633,-0.072888374
1732439017845,2024-11-24T09:03:37.845Z,63416,0.016799178,-0.08963633,-0.072888374
1732439017895,2024-11-24T09:03:37.895Z,63466,-0.005763337,-0.082130365,-0.061607596
1732439017900,2024-11-24T09:03:37.900Z,63471,-0.005763337,-0.082130365,-0.061607596
1732439017910,2024-11-24T09:03:37.910Z,63481,-0.006869773,-0.0780162,-0.05870519
1732439017914,2024-11-24T09:03:37.914Z,63485,-0.006869773,-0.0780162,-0.05870519
1732439017931,2024-11-24T09:03:37.931Z,63502,0.004873375,-0.06969734,-0.07358892
1732439017939,2024-11-24T09:03:37.939Z,63510,0.004873375,-0.06969734,-0.07358892
1732439017961,2024-11-24T09:03:37.961Z,63532,0.0047481926,-0.05283167,-0.06750593
1732439017968,2024-11-24T09:03:37.968Z,63539,0.0047481926,-0.05283167,-0.06750593
1732439017993,2024-11-24T09:03:37.993Z,63564,0.00830019,-0.041460883,-0.06621052
1732439018000,2024-11-24T09:03:38Z,63571,0.00830019,-0.041460883,-0.06621052
1732439018011,2024-11-24T09:03:38.011Z,63582,0.028584275,-0.033021532,-0.06376251
1732439018015,2024-11-24T09:03:38.015Z,63586,0.028584275,-0.033021532,-0.06376251
1732439018028,2024-11-24T09:03:38.028Z,63599,0.013002749,-0.023917783,-0.060985696
1732439018032,2024-11-24T09:03:38.032Z,63603,0.013002749,-0.023917783,-0.060985696
1732439018044,2024-11-24T09:03:38.044Z,63615,-0.0036877792,-0.04707723,-0.06244084
1732439018047,2024-11-24T09:03:38.047Z,63618,-0.0036877792,-0.04707723,-0.06244084
1732439018058,2024-11-24T09:03:38.058Z,63629,-0.01242607,-0.047369752,-0.065675564
1732439018061,2024-11-24T09:03:38.061Z,63632,-0.01242607,-0.047369752,-0.065675564
1732439018071,2024-11-24T09:03:38.071Z,63642,0.013300461,-0.058847606,-0.06457781
1732439018075,2024-11-24T09:03:38.075Z,63646,0.013300461,-0.058847606,-0.06457781
1732439018087,2024-11-24T09:03:38.087Z,63658,0.020953516,-0.05416474,-0.02868263
1732439018094,2024-11-24T09:03:38.094Z,63665,0.020953516,-0.05416474,-0.02868263
1732439018105,2024-11-24T09:03:38.105Z,63676,0.023870813,-0.06029796,-0.012309178
1732439018108,2024-11-24T09:03:38.108Z,63679,0.023870813,-0.06029796,-0.012309178
1732439018119,2024-11-24T09:03:38.119Z,63690,0.027986482,-0.07235619,-0.035955664
1732439018122,2024-11-24T09:03:38.122Z,63693,0.027986482,-0.07235619,-0.035955664
1732439018133,2024-11-24T09:03:38.133Z,63704,0.07452989,-0.07415226,-0.017115112
1732439018136,2024-11-24T09:03:38.136Z,63707,0.07452989,-0.07415226,-0.017115112
1732439018149,2024-11-24T09:03:38.149Z,63720,0.0641293,-0.08638057,-0.032516573
1732439018152,2024-11-24T09:03:38.152Z,63723,0.0641293,-0.08638057,-0.032516573
1732439018163,2024-11-24T09:03:38.163Z,63734,0.083105475,-0.087929145,-0.013095644
1732439018166,2024-11-24T09:03:38.166Z,63737,0.083105475,-0.087929145,-0.013095644
1732439018178,2024-11-24T09:03:38.178Z,63749,0.05584167,-0.06624417,-0.017301803
1732439018182,2024-11-24T09:03:38.182Z,63753,0.05584167,-0.06624417,-0.017301803
1732439018194,2024-11-24T09:03:38.194Z,63765,0.112619415,-0.06758775,0.0026480795
1732439018197,2024-11-24T09:03:38.197Z,63768,0.112619415,-0.06758775,0.0026480795
1732439018208,2024-11-24T09:03:38.208Z,63779,0.09504259,-0.06599609,-0.010049725
1732439018212,2024-11-24T09:03:38.212Z,63783,0.09504259,-0.06599609,-0.010049725
1732439018226,2024-11-24T09:03:38.226Z,63797,0.040441606,-0.08067447,-0.034367733
1732439018231,2024-11-24T09:03:38.231Z,63802,0.040441606,-0.08067447,-0.034367733
1732439018256,2024-11-24T09:03:38.256Z,63827,0.07092566,-0.080821894,-0.01149733
1732439018263,2024-11-24T09:03:38.263Z,63834,0.07092566,-0.080821894,-0.01149733
1732439018287,2024-11-24T09:03:38.287Z,63858,0.05285852,-0.070761226,5.616177E-4
1732439018294,2024-11-24T09:03:38.294Z,63865,0.05285852,-0.070761226,5.616177E-4
1732439018320,2024-11-24T09:03:38.320Z,63891,0.06312111,-0.07764296,-0.027491868
1732439018326,2024-11-24T09:03:38.326Z,63897,0.06312111,-0.07764296,-0.027491868
1732439018341,2024-11-24T09:03:38.341Z,63912,0.06808696,-0.079841636,-0.015954789
1732439018346,2024-11-24T09:03:38.346Z,63917,0.06808696,-0.079841636,-0.015954789
1732439018359,2024-11-24T09:03:38.359Z,63930,0.023913115,-0.08754191,-0.015119284
1732439018363,2024-11-24T09:03:38.363Z,63934,0.023913115,-0.08754191,-0.015119284
1732439018374,2024-11-24T09:03:38.374Z,63945,0.010804136,-0.07091488,-0.01364947
1732439018377,2024-11-24T09:03:38.377Z,63948,0.010804136,-0.07091488,-0.01364947
1732439018388,2024-11-24T09:03:38.388Z,63959,0.10322249,-0.06107205,0.035486445
1732439018391,2024-11-24T09:03:38.391Z,63962,0.10322249,-0.06107205,0.035486445
1732439018401,2024-11-24T09:03:38.401Z,63972,0.04266166,-0.035743203,0.012094589
1732439018404,2024-11-24T09:03:38.404Z,63975,0.04266166,-0.035743203,0.012094589
1732439018417,2024-11-24T09:03:38.417Z,63988,0.041554667,-0.03676985,0.0062981267
1732439018421,2024-11-24T09:03:38.421Z,63992,0.041554667,-0.03676985,0.0062981267
1732439018432,2024-11-24T09:03:38.432Z,64003,0.086781174,0.010440126,0.082748964
1732439018436,2024-11-24T09:03:38.436Z,64007,0.086781174,0.010440126,0.082748964
1732439018447,2024-11-24T09:03:38.447Z,64018,0.07377562,-0.0038100681,0.038666483
1732439018455,2024-11-24T09:03:38.455Z,64026,0.07377562,-0.0038100681,0.038666483
1732439018467,2024-11-24T09:03:38.467Z,64038,0.067262664,-0.0200447,0.008283135
1732439018470,2024-11-24T09:03:38.470Z,64041,0.067262664,-0.0200447,0.008283135
1732439018481,2024-11-24T09:03:38.481Z,64052,0.11277066,-0.011521423,0.06769766
1732439018485,2024-11-24T09:03:38.485Z,64056,0.11277066,-0.011521423,0.06769766
1732439018494,2024-11-24T09:03:38.494Z,64065,0.06284732,0.012365533,0.063025646
1732439018496,2024-11-24T09:03:38.496Z,64067,0.06284732,0.012365533,0.063025646
1732439018505,2024-11-24T09:03:38.505Z,64076,0.063081846,0.016779898,0.044449087
1732439018508,2024-11-24T09:03:38.508Z,64079,0.063081846,0.016779898,0.044449087
1732439018518,2024-11-24T09:03:38.518Z,64089,0.06403506,0.027058205,0.024371067
1732439018521,2024-11-24T09:03:38.521Z,64092,0.06403506,0.027058205,0.024371067
1732439018531,2024-11-24T09:03:38.531Z,64102,0.059622392,0.044992045,0.019734249
1732439018534,2024-11-24T09:03:38.534Z,64105,0.059622392,0.044992045,0.019734249
1732439018544,2024-11-24T09:03:38.544Z,64115,0.05227667,0.036363546,0.01424803
1732439018547,2024-11-24T09:03:38.547Z,64118,0.05227667,0.036363546,0.01424803
1732439018557,2024-11-24T09:03:38.557Z,64128,0.007357738,0.028241515,-0.05995139
1732439018560,2024-11-24T09:03:38.560Z,64131,0.007357738,0.028241515,-0.05995139
1732439018570,2024-11-24T09:03:38.570Z,64141,0.07984443,0.04479862,0.010625528
1732439018573,2024-11-24T09:03:38.573Z,64144,0.07984443,0.04479862,0.010625528
1732439018584,2024-11-24T09:03:38.584Z,64155,0.02724108,0.032331947,-0.01263824
1732439018588,2024-11-24T09:03:38.588Z,64159,0.02724108,0.032331947,-0.01263824
1732439018599,2024-11-24T09:03:38.599Z,64170,0.019194596,0.034018416,-0.014067624
1732439018602,2024-11-24T09:03:38.602Z,64173,0.019194596,0.034018416,-0.014067624
1732439018612,2024-11-24T09:03:38.612Z,64183,0.0690926,0.041753013,-0.030822432
1732439018616,2024-11-24T09:03:38.616Z,64187,0.0690926,0.041753013,-0.030822432
1732439018627,2024-11-24T09:03:38.627Z,64198,0.061497174,0.03270421,-0.023085732
1732439018631,2024-11-24T09:03:38.631Z,64202,0.061497174,0.03270421,-0.023085732
1732439018641,2024-11-24T09:03:38.641Z,64212,0.08372071,0.044672098,-0.010230095
1732439018644,2024-11-24T09:03:38.644Z,64215,0.08372071,0.044672098,-0.010230095
1732439018654,2024-11-24T09:03:38.654Z,64225,0.10282859,0.040573888,-0.056517042
1732439018656,2024-11-24T09:03:38.656Z,64227,0.10282859,0.040573888,-0.056517042
1732439018666,2024-11-24T09:03:38.666Z,64237,0.16297321,0.04766013,-0.029942645
1732439018669,2024-11-24T09:03:38.669Z,64240,0.16297321,0.04766013,-0.029942645
1732439018680,2024-11-24T09:03:38.680Z,64251,0.15331577,0.05521745,-0.010251076
1732439018683,2024-11-24T09:03:38.683Z,64254,0.15331577,0.05521745,-0.010251076
1732439018694,2024-11-24T09:03:38.694Z,64265,0.1147127,0.05124167,-0.0394807
1732439018697,2024-11-24T09:03:38.697Z,64268,0.1147127,0.05124167,-0.0394807
1732439018707,2024-11-24T09:03:38.707Z,64278,0.14768949,0.060179997,-0.03851226
1732439018711,2024-11-24T09:03:38.711Z,64282,0.14768949,0.060179997,-0.03851226
1732439018724,2024-11-24T09:03:38.724Z,64295,0.17191653,0.03786398,-0.057206918
1732439018731,2024-11-24T09:03:38.731Z,64302,0.17191653,0.03786398,-0.057206918
1732439018755,2024-11-24T09:03:38.755Z,64326,0.16426004,0.049508713,-0.009946703
1732439018762,2024-11-24T09:03:38.762Z,64333,0.16426004,0.049508713,-0.009946703
1732439018778,2024-11-24T09:03:38.778Z,64349,0.1524731,0.027651804,-0.052108765
1732439018782,2024-11-24T09:03:38.782Z,64353,0.1524731,0.027651804,-0.052108765
1732439018799,2024-11-24T09:03:38.799Z,64370,0.1275944,0.0028556793,-0.049022708
1732439018806,2024-11-24T09:03:38.806Z,64377,0.1275944,0.0028556793,-0.049022708
1732439018834,2024-11-24T09:03:38.834Z,64405,0.15288568,0.035774518,-0.0055851066
1732439018842,2024-11-24T09:03:38.842Z,64413,0.15288568,0.035774518,-0.0055851066
1732439018859,2024-11-24T09:03:38.859Z,64430,0.14740865,0.055307206,-0.018306883
1732439018863,2024-11-24T09:03:38.863Z,64434,0.14740865,0.055307206,-0.018306883
1732439018877,2024-11-24T09:03:38.877Z,64448,0.13315263,0.041140936,-0.058533583
1732439018881,2024-11-24T09:03:38.881Z,64452,0.13315263,0.041140936,-0.058533583
1732439018896,2024-11-24T09:03:38.896Z,64467,0.12455779,0.054154336,-0.011042539
1732439018900,2024-11-24T09:03:38.900Z,64471,0.12455779,0.054154336,-0.011042539
1732439018917,2024-11-24T09:03:38.917Z,64488,0.12258529,0.058907803,-0.027892748
1732439018923,2024-11-24T09:03:38.923Z,64494,0.12258529,0.058907803,-0.027892748
1732439018948,2024-11-24T09:03:38.948Z,64519,0.12106451,0.030954141,-0.029455688
1732439018956,2024-11-24T09:03:38.956Z,64527,0.12106451,0.030954141,-0.029455688
1732439018973,2024-11-24T09:03:38.973Z,64544,0.09536158,0.0444071,-0.012711589
1732439018977,2024-11-24T09:03:38.977Z,64548,0.09536158,0.0444071,-0.012711589
1732439018989,2024-11-24T09:03:38.989Z,64560,0.08731183,0.07209041,1.6942376E-4
1732439018993,2024-11-24T09:03:38.993Z,64564,0.08731183,0.07209041,1.6942376E-4
1732439019003,2024-11-24T09:03:39.003Z,64574,0.06835287,0.06848427,-0.028718326
1732439019006,2024-11-24T09:03:39.006Z,64577,0.06835287,0.06848427,-0.028718326
1732439019018,2024-11-24T09:03:39.018Z,64589,0.11306073,0.054378394,-0.0053899363
1732439019022,2024-11-24T09:03:39.022Z,64593,0.11306073,0.054378394,-0.0053899363
1732439019033,2024-11-24T09:03:39.033Z,64604,0.09773254,0.10733872,0.022181861
1732439019039,2024-11-24T09:03:39.039Z,64610,0.09773254,0.10733872,0.022181861
1732439019054,2024-11-24T09:03:39.054Z,64625,0.023654694,0.13975713,0.013277434
1732439019057,2024-11-24T09:03:39.057Z,64628,0.023654694,0.13975713,0.013277434
1732439019070,2024-11-24T09:03:39.070Z,64641,0.017981866,0.19626942,-0.063776374
1732439019073,2024-11-24T09:03:39.073Z,64644,0.017981866,0.19626942,-0.063776374
1732439019082,2024-11-24T09:03:39.082Z,64653,0.059151944,0.17973936,-0.07314954
1732439019086,2024-11-24T09:03:39.086Z,64657,0.059151944,0.17973936,-0.07314954
1732439019098,2024-11-24T09:03:39.098Z,64669,0.06272157,0.18272467,-0.041305397
1732439019104,2024-11-24T09:03:39.104Z,64675,0.06272157,0.18272467,-0.041305397
1732439019129,2024-11-24T09:03:39.129Z,64700,-0.014488478,0.20184672,0.025310988
1732439019137,2024-11-24T09:03:39.137Z,64708,-0.014488478,0.20184672,0.025310988
1732439019161,2024-11-24T09:03:39.161Z,64732,-0.018947545,0.20040211,0.022280032
1732439019165,2024-11-24T09:03:39.165Z,64736,-0.018947545,0.20040211,0.022280032
1732439019176,2024-11-24T09:03:39.176Z,64747,-0.040772278,0.1735575,-0.020063853
1732439019180,2024-11-24T09:03:39.180Z,64751,-0.040772278,0.1735575,-0.020063853
1732439019191,2024-11-24T09:03:39.191Z,64762,-0.11042187,0.12766379,-0.0189831
1732439019195,2024-11-24T09:03:39.195Z,64766,-0.11042187,0.12766379,-0.0189831
1732439019206,2024-11-24T09:03:39.206Z,64777,-0.096025735,0.13596135,-0.01547939
1732439019209,2024-11-24T09:03:39.209Z,64780,-0.096025735,0.13596135,-0.01547939
1732439019220,2024-11-24T09:03:39.220Z,64791,-0.099390715,0.12863256,-8.330099E-4
1732439019223,2024-11-24T09:03:39.223Z,64794,-0.099390715,0.12863256,-8.330099E-4
1732439019234,2024-11-24T09:03:39.234Z,64805,-0.012735729,0.096389696,-0.044176165
1732439019237,2024-11-24T09:03:39.237Z,64808,-0.012735729,0.096389696,-0.044176165
1732439019248,2024-11-24T09:03:39.248Z,64819,-0.043327942,0.09442189,-0.010438744
1732439019251,2024-11-24T09:03:39.251Z,64822,-0.043327942,0.09442189,-0.010438744
1732439019262,2024-11-24T09:03:39.262Z,64833,-0.06345326,0.10172811,0.028011493
1732439019265,2024-11-24T09:03:39.265Z,64836,-0.06345326,0.10172811,0.028011493
1732439019275,2024-11-24T09:03:39.275Z,64846,-0.036185253,0.0753027,-0.011982237
1732439019278,2024-11-24T09:03:39.278Z,64849,-0.036185253,0.0753027,-0.011982237
1732439019288,2024-11-24T09:03:39.288Z,64859,-0.013788526,0.07186003,-0.0029143726
1732439019292,2024-11-24T09:03:39.292Z,64863,-0.013788526,0.07186003,-0.0029143726
1732439019303,2024-11-24T09:03:39.303Z,64874,-0.023185274,0.06450373,-0.011703465
1732439019306,2024-11-24T09:03:39.306Z,64877,-0.023185274,0.06450373,-0.011703465
1732439019317,2024-11-24T09:03:39.317Z,64888,-0.051598493,0.0492831,0.03307196
1732439019320,2024-11-24T09:03:39.320Z,64891,-0.051598493,0.0492831,0.03307196
1732439019330,2024-11-24T09:03:39.330Z,64901,-0.07730079,0.06045482,0.0427381
1732439019334,2024-11-24T09:03:39.334Z,64905,-0.07730079,0.06045482,0.0427381
1732439019344,2024-11-24T09:03:39.344Z,64915,-0.0523054,0.055007685,0.044071186
1732439019347,2024-11-24T09:03:39.347Z,64918,-0.0523054,0.055007685,0.044071186
1732439019357,2024-11-24T09:03:39.357Z,64928,-0.044422776,0.059655637,0.020160371
1732439019360,2024-11-24T09:03:39.360Z,64931,-0.044422776,0.059655637,0.020160371
1732439019369,2024-11-24T09:03:39.369Z,64940,-0.04306762,0.06292082,0.014050568
1732439019372,2024-11-24T09:03:39.372Z,64943,-0.04306762,0.06292082,0.014050568
1732439019381,2024-11-24T09:03:39.381Z,64952,-0.046982933,0.050066624,0.016075071
1732439019384,2024-11-24T09:03:39.384Z,64955,-0.046982933,0.050066624,0.016075071
1732439019393,2024-11-24T09:03:39.393Z,64964,-0.053503085,0.030876148,0.011987472
1732439019395,2024-11-24T09:03:39.395Z,64966,-0.053503085,0.030876148,0.011987472
1732439019405,2024-11-24T09:03:39.405Z,64976,-0.070427634,0.046754755,0.006783272
1732439019408,2024-11-24T09:03:39.408Z,64979,-0.070427634,0.046754755,0.006783272
1732439019419,2024-11-24T09:03:39.419Z,64990,-0.09480457,0.036873028,-0.003450547
1732439019422,2024-11-24T09:03:39.422Z,64993,-0.09480457,0.036873028,-0.003450547
1732439019431,2024-11-24T09:03:39.431Z,65002,-0.12931132,0.020627214,-0.012988809
1732439019434,2024-11-24T09:03:39.434Z,65005,-0.12931132,0.020627214,-0.012988809
1732439019444,2024-11-24T09:03:39.444Z,65015,-0.032430504,0.022810131,-0.05223385
1732439019448,2024-11-24T09:03:39.448Z,65019,-0.032430504,0.022810131,-0.05223385
1732439019458,2024-11-24T09:03:39.458Z,65029,0.019513154,0.035561446,-0.02076468
1732439019461,2024-11-24T09:03:39.461Z,65032,0.019513154,0.035561446,-0.02076468
1732439019472,2024-11-24T09:03:39.472Z,65043,-0.014016435,0.062475823,-0.04903061
1732439019474,2024-11-24T09:03:39.474Z,65045,-0.014016435,0.062475823,-0.04903061
1732439019484,2024-11-24T09:03:39.484Z,65055,-0.024359738,0.027046146,-0.06875616
1732439019486,2024-11-24T09:03:39.486Z,65057,-0.024359738,0.027046146,-0.06875616
1732439019495,2024-11-24T09:03:39.495Z,65066,-0.03221834,0.021725528,-0.068344295
1732439019498,2024-11-24T09:03:39.498Z,65069,-0.03221834,0.021725528,-0.068344295
1732439019507,2024-11-24T09:03:39.507Z,65078,-0.019787587,0.013946198,-0.06543791
1732439019511,2024-11-24T09:03:39.511Z,65082,-0.019787587,0.013946198,-0.06543791
1732439019522,2024-11-24T09:03:39.522Z,65093,-0.013374299,0.02275509,-0.04352281
1732439019524,2024-11-24T09:03:39.524Z,65095,-0.013374299,0.02275509,-0.04352281
1732439019536,2024-11-24T09:03:39.536Z,65107,-0.007242551,0.042277668,-0.04219282
1732439019539,2024-11-24T09:03:39.539Z,65110,-0.007242551,0.042277668,-0.04219282
1732439019552,2024-11-24T09:03:39.552Z,65123,-0.0083142575,0.05251756,-0.03993291
1732439019559,2024-11-24T09:03:39.559Z,65130,-0.0083142575,0.05251756,-0.03993291
1732439019571,2024-11-24T09:03:39.571Z,65142,-0.039594963,0.040780827,-0.054309066
1732439019574,2024-11-24T09:03:39.574Z,65145,-0.039594963,0.040780827,-0.054309066
1732439019585,2024-11-24T09:03:39.585Z,65156,-0.0032831891,0.040747374,-0.038880087
1732439019588,2024-11-24T09:03:39.588Z,65159,-0.0032831891,0.040747374,-0.038880087
1732439019597,2024-11-24T09:03:39.597Z,65168,0.006512935,0.039697394,-0.039350633
1732439019600,2024-11-24T09:03:39.600Z,65171,0.006512935,0.039697394,-0.039350633
1732439019611,2024-11-24T09:03:39.611Z,65182,0.0152729815,0.027447196,-0.046995014
1732439019615,2024-11-24T09:03:39.615Z,65186,0.0152729815,0.027447196,-0.046995014
1732439019624,2024-11-24T09:03:39.624Z,65195,-0.008365802,0.026884422,-0.046857417
1732439019628,2024-11-24T09:03:39.628Z,65199,-0.008365802,0.026884422,-0.046857417
1732439019638,2024-11-24T09:03:39.638Z,65209,-0.012974723,0.012210132,-0.04112098
1732439019641,2024-11-24T09:03:39.641Z,65212,-0.012974723,0.012210132,-0.04112098
1732439019653,2024-11-24T09:03:39.653Z,65224,0.0107497955,-2.722936E-5,-0.014287625
1732439019656,2024-11-24T09:03:39.656Z,65227,0.0107497955,-2.722936E-5,-0.014287625
1732439019666,2024-11-24T09:03:39.666Z,65237,0.020893702,0.01260768,-0.025454942
1732439019669,2024-11-24T09:03:39.669Z,65240,0.020893702,0.01260768,-0.025454942
1732439019678,2024-11-24T09:03:39.678Z,65249,0.056754805,0.008665452,-0.039526828
1732439019681,2024-11-24T09:03:39.681Z,65252,0.056754805,0.008665452,-0.039526828
1732439019690,2024-11-24T09:03:39.690Z,65261,0.03939516,0.001796457,-0.03953204
1732439019692,2024-11-24T09:03:39.692Z,65263,0.03939516,0.001796457,-0.03953204
1732439019702,2024-11-24T09:03:39.702Z,65273,0.040027894,0.019847577,-0.006374126
1732439019704,2024-11-24T09:03:39.704Z,65275,0.040027894,0.019847577,-0.006374126
1732439019713,2024-11-24T09:03:39.713Z,65284,0.03383546,0.012046366,-0.031781644
1732439019716,2024-11-24T09:03:39.716Z,65287,0.03383546,0.012046366,-0.031781644
1732439019725,2024-11-24T09:03:39.725Z,65296,0.027771126,0.0013101213,-0.040949233
1732439019728,2024-11-24T09:03:39.728Z,65299,0.027771126,0.0013101213,-0.040949233
1732439019738,2024-11-24T09:03:39.738Z,65309,0.05185247,0.002763391,-0.04328442
1732439019742,2024-11-24T09:03:39.742Z,65313,0.05185247,0.002763391,-0.04328442
1732439019752,2024-11-24T09:03:39.752Z,65323,0.03134131,-0.0011469396,-0.026724221
1732439019756,2024-11-24T09:03:39.756Z,65327,0.03134131,-0.0011469396,-0.026724221
1732439019771,2024-11-24T09:03:39.771Z,65342,0.01414431,0.015949598,-0.029877488
1732439019777,2024-11-24T09:03:39.777Z,65348,0.01414431,0.015949598,-0.029877488
1732439019799,2024-11-24T09:03:39.799Z,65370,0.019999154,0.011090713,-0.04710275
1732439019805,2024-11-24T09:03:39.805Z,65376,0.019999154,0.011090713,-0.04710275
1732439019822,2024-11-24T09:03:39.822Z,65393,0.030007983,0.0037715582,-0.050551623
1732439019826,2024-11-24T09:03:39.826Z,65397,0.030007983,0.0037715582,-0.050551623
1732439019840,2024-11-24T09:03:39.840Z,65411,0.030949408,0.0037676683,-0.043543432
1732439019843,2024-11-24T09:03:39.843Z,65414,0.030949408,0.0037676683,-0.043543432
1732439019854,2024-11-24T09:03:39.854Z,65425,-0.0041188905,0.008609048,-0.040259752
1732439019857,2024-11-24T09:03:39.857Z,65428,-0.0041188905,0.008609048,-0.040259752
1732439019868,2024-11-24T09:03:39.868Z,65439,0.014410218,0.009082645,-0.018563189
1732439019873,2024-11-24T09:03:39.873Z,65444,0.014410218,0.009082645,-0.018563189
1732439019891,2024-11-24T09:03:39.891Z,65462,-0.019110192,0.028600357,-0.02210948
1732439019898,2024-11-24T09:03:39.898Z,65469,-0.019110192,0.028600357,-0.02210948
1732439019918,2024-11-24T09:03:39.918Z,65489,0.018838013,0.03490308,-0.01802305
1732439019924,2024-11-24T09:03:39.924Z,65495,0.018838013,0.03490308,-0.01802305
1732439019943,2024-11-24T09:03:39.943Z,65514,0.0039320257,0.037306264,-0.03122795
1732439019950,2024-11-24T09:03:39.950Z,65521,0.0039320257,0.037306264,-0.03122795
1732439019973,2024-11-24T09:03:39.973Z,65544,-0.00701559,0.023586072,-0.03836799
1732439019981,2024-11-24T09:03:39.981Z,65552,-0.00701559,0.023586072,-0.03836799
1732439019999,2024-11-24T09:03:39.999Z,65570,-0.009572256,0.021093808,-0.023130214
1732439020003,2024-11-24T09:03:40.003Z,65574,-0.009572256,0.021093808,-0.023130214
1732439020017,2024-11-24T09:03:40.017Z,65588,-0.0059592733,0.03126125,0.001031543
1732439020021,2024-11-24T09:03:40.021Z,65592,-0.0059592733,0.03126125,0.001031543
1732439020034,2024-11-24T09:03:40.034Z,65605,-0.0080843,0.019500792,-0.0113302795
1732439020038,2024-11-24T09:03:40.038Z,65609,-0.0080843,0.019500792,-0.0113302795
1732439020049,2024-11-24T09:03:40.049Z,65620,2.8542205E-5,0.01408283,-0.019136494
1732439020053,2024-11-24T09:03:40.053Z,65624,2.8542205E-5,0.01408283,-0.019136494
1732439020063,2024-11-24T09:03:40.063Z,65634,9.919024E-4,0.0071656005,0.0016704757
1732439020067,2024-11-24T09:03:40.067Z,65638,9.919024E-4,0.0071656005,0.0016704757
1732439020077,2024-11-24T09:03:40.077Z,65648,-0.015366209,0.0100582335,0.0019154517
1732439020080,2024-11-24T09:03:40.080Z,65651,-0.015366209,0.0100582335,0.0019154517
1732439020090,2024-11-24T09:03:40.090Z,65661,-0.013598549,0.011481843,0.004101003
1732439020093,2024-11-24T09:03:40.093Z,65664,-0.013598549,0.011481843,0.004101003
1732439020106,2024-11-24T09:03:40.106Z,65677,-0.014194957,0.025992466,0.0032788161
1732439020109,2024-11-24T09:03:40.109Z,65680,-0.014194957,0.025992466,0.0032788161
1732439020120,2024-11-24T09:03:40.120Z,65691,-0.022090511,0.036679115,0.008082145
1732439020124,2024-11-24T09:03:40.124Z,65695,-0.022090511,0.036679115,0.008082145
1732439020139,2024-11-24T09:03:40.139Z,65710,-0.023550631,0.043935835,0.008166936
1732439020143,2024-11-24T09:03:40.143Z,65714,-0.023550631,0.043935835,0.008166936
1732439020155,2024-11-24T09:03:40.155Z,65726,-0.055597793,0.06564279,-0.021354407
1732439020159,2024-11-24T09:03:40.159Z,65730,-0.055597793,0.06564279,-0.021354407
1732439020172,2024-11-24T09:03:40.172Z,65743,-0.05084226,0.07774459,-0.014380281
1732439020175,2024-11-24T09:03:40.175Z,65746,-0.05084226,0.07774459,-0.014380281
1732439020188,2024-11-24T09:03:40.188Z,65759,-0.077941835,0.05958348,-0.035333782
1732439020191,2024-11-24T09:03:40.191Z,65762,-0.077941835,0.05958348,-0.035333782
1732439020201,2024-11-24T09:03:40.201Z,65772,-0.054293495,0.027105564,-0.023447756
1732439020204,2024-11-24T09:03:40.204Z,65775,-0.054293495,0.027105564,-0.023447756
1732439020215,2024-11-24T09:03:40.215Z,65786,-0.08912876,0.019243281,-0.029686457
1732439020218,2024-11-24T09:03:40.218Z,65789,-0.08912876,0.019243281,-0.029686457
1732439020227,2024-11-24T09:03:40.227Z,65798,-0.04791372,0.002117958,-0.02238268
1732439020231,2024-11-24T09:03:40.231Z,65802,-0.04791372,0.002117958,-0.02238268
1732439020240,2024-11-24T09:03:40.240Z,65811,-0.037099645,-0.008111432,0.006143178
1732439020243,2024-11-24T09:03:40.243Z,65814,-0.037099645,-0.008111432,0.006143178
1732439020252,2024-11-24T09:03:40.252Z,65823,-0.03968486,0.0153788505,0.028037988
1732439020255,2024-11-24T09:03:40.255Z,65826,-0.03968486,0.0153788505,0.028037988
1732439020264,2024-11-24T09:03:40.264Z,65835,-0.02680369,0.035946645,0.037345044
1732439020268,2024-11-24T09:03:40.268Z,65839,-0.02680369,0.035946645,0.037345044
1732439020281,2024-11-24T09:03:40.281Z,65852,-0.03255022,0.09019249,-0.015044547
1732439020287,2024-11-24T09:03:40.287Z,65858,-0.03255022,0.09019249,-0.015044547
1732439020305,2024-11-24T09:03:40.305Z,65876,-0.027541148,0.08769118,-0.009985243
1732439020313,2024-11-24T09:03:40.313Z,65884,-0.027541148,0.08769118,-0.009985243
1732439020336,2024-11-24T09:03:40.336Z,65907,0.0011734943,0.09345544,-0.006594483
1732439020340,2024-11-24T09:03:40.340Z,65911,0.0011734943,0.09345544,-0.006594483
1732439020353,2024-11-24T09:03:40.353Z,65924,6.836028E-4,0.113239616,-0.012016392
1732439020358,2024-11-24T09:03:40.358Z,65929,6.836028E-4,0.113239616,-0.012016392
1732439020371,2024-11-24T09:03:40.371Z,65942,-0.010611482,0.10677079,0.0029252993
1732439020374,2024-11-24T09:03:40.374Z,65945,-0.010611482,0.10677079,0.0029252993
1732439020385,2024-11-24T09:03:40.385Z,65956,-0.009714463,0.12079538,0.0117519125
1732439020389,2024-11-24T09:03:40.389Z,65960,-0.009714463,0.12079538,0.0117519125
1732439020398,2024-11-24T09:03:40.398Z,65969,-3.4913752E-4,0.12066467,-0.009214348
1732439020401,2024-11-24T09:03:40.401Z,65972,-3.4913752E-4,0.12066467,-0.009214348
1732439020412,2024-11-24T09:03:40.412Z,65983,-0.004920011,0.15016466,-0.02632281
1732439020415,2024-11-24T09:03:40.415Z,65986,-0.004920011,0.15016466,-0.02632281
1732439020427,2024-11-24T09:03:40.427Z,65998,-0.001488589,0.1449587,-0.047164023
1732439020432,2024-11-24T09:03:40.432Z,66003,-0.001488589,0.1449587,-0.047164023
1732439020455,2024-11-24T09:03:40.455Z,66026,-0.021408806,0.16073832,-0.03300425
1732439020459,2024-11-24T09:03:40.459Z,66030,-0.021408806,0.16073832,-0.03300425
1732439020473,2024-11-24T09:03:40.473Z,66044,-0.014356431,0.17831312,-0.03246904
1732439020477,2024-11-24T09:03:40.477Z,66048,-0.014356431,0.17831312,-0.03246904
1732439020489,2024-11-24T09:03:40.489Z,66060,-0.01680771,0.15921153,-0.052308064
1732439020492,2024-11-24T09:03:40.492Z,66063,-0.01680771,0.15921153,-0.052308064
1732439020503,2024-11-24T09:03:40.503Z,66074,-0.0126575865,0.1320168,0.009232066
1732439020506,2024-11-24T09:03:40.506Z,66077,-0.0126575865,0.1320168,0.009232066
1732439020517,2024-11-24T09:03:40.517Z,66088,-0.009747005,0.12357384,0.011275198
1732439020520,2024-11-24T09:03:40.520Z,66091,-0.009747005,0.12357384,0.011275198
1732439020529,2024-11-24T09:03:40.529Z,66100,0.012364202,0.12582609,0.017300477
1732439020532,2024-11-24T09:03:40.532Z,66103,0.012364202,0.12582609,0.017300477
1732439020542,2024-11-24T09:03:40.542Z,66113,0.049650636,0.07668488,0.039236564
1732439020544,2024-11-24T09:03:40.544Z,66115,0.049650636,0.07668488,0.039236564
1732439020554,2024-11-24T09:03:40.554Z,66125,0.03735574,0.09437297,0.03554945
1732439020558,2024-11-24T09:03:40.558Z,66129,0.03735574,0.09437297,0.03554945
1732439020570,2024-11-24T09:03:40.570Z,66141,0.0671823,0.118809186,0.020941991
1732439020577,2024-11-24T09:03:40.577Z,66148,0.0671823,0.118809186,0.020941991
1732439020599,2024-11-24T09:03:40.599Z,66170,0.024434267,0.06396964,-0.08623646
1732439020604,2024-11-24T09:03:40.604Z,66175,0.024434267,0.06396964,-0.08623646
1732439020622,2024-11-24T09:03:40.622Z,66193,0.035034895,0.03511722,-0.054871198
1732439020628,2024-11-24T09:03:40.628Z,66199,0.035034895,0.03511722,-0.054871198
1732439020645,2024-11-24T09:03:40.645Z,66216,0.1009913,0.08640012,0.03922744
1732439020649,2024-11-24T09:03:40.649Z,66220,0.1009913,0.08640012,0.03922744
1732439020661,2024-11-24T09:03:40.661Z,66232,0.05812572,0.14123149,0.03912442
1732439020664,2024-11-24T09:03:40.664Z,66235,0.05812572,0.14123149,0.03912442
1732439020676,2024-11-24T09:03:40.676Z,66247,0.056726433,0.15434496,0.020986592
1732439020679,2024-11-24T09:03:40.679Z,66250,0.056726433,0.15434496,0.020986592
1732439020691,2024-11-24T09:03:40.691Z,66262,0.11910855,0.15268834,0.034388155
1732439020694,2024-11-24T09:03:40.694Z,66265,0.11910855,0.15268834,0.034388155
1732439020704,2024-11-24T09:03:40.704Z,66275,0.11031919,0.11749226,0.0051250397
1732439020708,2024-11-24T09:03:40.708Z,66279,0.11031919,0.11749226,0.0051250397
1732439020719,2024-11-24T09:03:40.719Z,66290,0.13409854,0.12729998,0.01515636
1732439020723,2024-11-24T09:03:40.723Z,66294,0.13409854,0.12729998,0.01515636
1732439020735,2024-11-24T09:03:40.735Z,66306,0.11529166,0.12534481,0.0067380266
1732439020741,2024-11-24T09:03:40.741Z,66312,0.11529166,0.12534481,0.0067380266
1732439020755,2024-11-24T09:03:40.755Z,66326,0.07209366,-0.014012618,-0.024372855
1732439020757,2024-11-24T09:03:40.757Z,66328,0.07209366,-0.014012618,-0.024372855
1732439020768,2024-11-24T09:03:40.768Z,66339,0.1029989,-0.04199633,0.0628475
1732439020775,2024-11-24T09:03:40.775Z,66346,0.1029989,-0.04199633,0.0628475
1732439020791,2024-11-24T09:03:40.791Z,66362,0.051823027,-0.019050049,0.034517467
1732439020794,2024-11-24T09:03:40.794Z,66365,0.051823027,-0.019050049,0.034517467
1732439020803,2024-11-24T09:03:40.803Z,66374,0.0028260064,-0.044717807,-0.01928556
1732439020806,2024-11-24T09:03:40.806Z,66377,0.0028260064,-0.044717807,-0.01928556
1732439020815,2024-11-24T09:03:40.815Z,66386,0.012775226,-0.047622498,-0.03834818
1732439020818,2024-11-24T09:03:40.818Z,66389,0.012775226,-0.047622498,-0.03834818
1732439020826,2024-11-24T09:03:40.826Z,66397,0.041934844,-0.06267119,-0.051659957
1732439020829,2024-11-24T09:03:40.829Z,66400,0.041934844,-0.06267119,-0.051659957
1732439020839,2024-11-24T09:03:40.839Z,66410,0.039817445,-0.07128773,-0.060428005
1732439020841,2024-11-24T09:03:40.841Z,66412,0.039817445,-0.07128773,-0.060428005
1732439020850,2024-11-24T09:03:40.850Z,66421,0.010739028,-0.087367155,0.032263365
1732439020853,2024-11-24T09:03:40.853Z,66424,0.010739028,-0.087367155,0.032263365
1732439020860,2024-11-24T09:03:40.860Z,66431,-0.007360728,-0.053168047,0.069563866
1732439020863,2024-11-24T09:03:40.863Z,66434,-0.007360728,-0.053168047,0.069563866
1732439020873,2024-11-24T09:03:40.873Z,66444,-0.026864013,-0.054040167,0.021571076
1732439020876,2024-11-24T09:03:40.876Z,66447,-0.026864013,-0.054040167,0.021571076
1732439020885,2024-11-24T09:03:40.885Z,66456,0.019946102,-0.06618281,-0.048300073
1732439020888,2024-11-24T09:03:40.888Z,66459,0.019946102,-0.06618281,-0.048300073
1732439020898,2024-11-24T09:03:40.898Z,66469,0.06994158,-0.068650566,0.009709164
1732439020902,2024-11-24T09:03:40.902Z,66473,0.06994158,-0.068650566,0.009709164
1732439020911,2024-11-24T09:03:40.911Z,66482,0.03989957,-0.06802759,0.0242485
1732439020913,2024-11-24T09:03:40.913Z,66484,0.03989957,-0.06802759,0.0242485
1732439020922,2024-11-24T09:03:40.922Z,66493,0.032119986,-0.037427727,-1.414468E-4
1732439020925,2024-11-24T09:03:40.925Z,66496,0.032119986,-0.037427727,-1.414468E-4
1732439020936,2024-11-24T09:03:40.936Z,66507,0.03498021,-0.021658719,0.035231825
1732439020939,2024-11-24T09:03:40.939Z,66510,0.03498021,-0.021658719,0.035231825
1732439020948,2024-11-24T09:03:40.948Z,66519,0.055671036,-0.005917134,0.01827795
1732439020951,2024-11-24T09:03:40.951Z,66522,0.055671036,-0.005917134,0.01827795
1732439020961,2024-11-24T09:03:40.961Z,66532,-0.008568836,-0.0293586,-0.08118327
1732439020964,2024-11-24T09:03:40.964Z,66535,-0.008568836,-0.0293586,-0.08118327
1732439020974,2024-11-24T09:03:40.974Z,66545,-0.0032983264,0.011026821,-0.024691267
1732439020976,2024-11-24T09:03:40.976Z,66547,-0.0032983264,0.011026821,-0.024691267
1732439020985,2024-11-24T09:03:40.985Z,66556,0.023199221,-0.028145822,-0.046560407
1732439020987,2024-11-24T09:03:40.987Z,66558,0.023199221,-0.028145822,-0.046560407
1732439020995,2024-11-24T09:03:40.995Z,66566,0.0077673206,-0.08044739,-0.05445945
1732439020997,2024-11-24T09:03:40.997Z,66568,0.0077673206,-0.08044739,-0.05445945
1732439021006,2024-11-24T09:03:41.006Z,66577,-0.012562314,-0.08710069,-0.01844162
1732439021009,2024-11-24T09:03:41.009Z,66580,-0.012562314,-0.08710069,-0.01844162
1732439021045,2024-11-24T09:03:41.045Z,66616,-0.05641673,-0.05941456,-0.05771061
1732439021048,2024-11-24T09:03:41.048Z,66619,-0.05641673,-0.05941456,-0.05771061
1732439021057,2024-11-24T09:03:41.057Z,66628,-0.002108525,-0.05449898,0.020154832
1732439021059,2024-11-24T09:03:41.059Z,66630,-0.002108525,-0.05449898,0.020154832
1732439021069,2024-11-24T09:03:41.069Z,66640,0.029514693,-0.02457265,0.053013645
1732439021072,2024-11-24T09:03:41.072Z,66643,0.029514693,-0.02457265,0.053013645
1732439021090,2024-11-24T09:03:41.090Z,66661,0.010484519,-0.0058558686,-0.017467828
1732439021092,2024-11-24T09:03:41.092Z,66663,0.010484519,-0.0058558686,-0.017467828
1732439021102,2024-11-24T09:03:41.102Z,66673,0.0038593241,-0.038781904,-0.015148373
1732439021105,2024-11-24T09:03:41.105Z,66676,0.0038593241,-0.038781904,-0.015148373
1732439021115,2024-11-24T09:03:41.115Z,66686,0.03477577,-0.06826644,0.034300048
1732439021118,2024-11-24T09:03:41.118Z,66689,0.03477577,-0.06826644,0.034300048
1732439021134,2024-11-24T09:03:41.134Z,66705,-0.02932726,-0.05563571,0.011807915
1732439021137,2024-11-24T09:03:41.137Z,66708,-0.02932726,-0.05563571,0.011807915
1732439021146,2024-11-24T09:03:41.146Z,66717,-0.020972393,-0.035132196,0.02286199
1732439021149,2024-11-24T09:03:41.149Z,66720,-0.020972393,-0.035132196,0.02286199
1732439021158,2024-11-24T09:03:41.158Z,66729,-0.0429363,-0.044731032,4.4602665E-4
1732439021161,2024-11-24T09:03:41.161Z,66732,-0.0429363,-0.044731032,4.4602665E-4
1732439021169,2024-11-24T09:03:41.169Z,66740,-0.056009118,-0.03428974,-0.03189939
1732439021172,2024-11-24T09:03:41.172Z,66743,-0.056009118,-0.03428974,-0.03189939
1732439021186,2024-11-24T09:03:41.186Z,66757,0.0105179,-0.027835798,0.02380274
1732439021189,2024-11-24T09:03:41.189Z,66760,0.0105179,-0.027835798,0.02380274
1732439021197,2024-11-24T09:03:41.197Z,66768,-0.030714912,-0.013419601,0.027032653
1732439021199,2024-11-24T09:03:41.199Z,66770,-0.030714912,-0.013419601,0.027032653
1732439021227,2024-11-24T09:03:41.227Z,66798,-0.06468424,-0.006284828,0.023795301
1732439021230,2024-11-24T09:03:41.230Z,66801,-0.06468424,-0.006284828,0.023795301
1732439021238,2024-11-24T09:03:41.238Z,66809,0.01054474,-0.016464524,0.04763108
1732439021241,2024-11-24T09:03:41.241Z,66812,0.01054474,-0.016464524,0.04763108
1732439021251,2024-11-24T09:03:41.251Z,66822,0.014565228,-0.03171744,0.043151997
1732439021254,2024-11-24T09:03:41.254Z,66825,0.014565228,-0.03171744,0.043151997
1732439021263,2024-11-24T09:03:41.263Z,66834,-0.011335267,-0.018056469,0.020807145
1732439021265,2024-11-24T09:03:41.265Z,66836,-0.011335267,-0.018056469,0.020807145
1732439021275,2024-11-24T09:03:41.275Z,66846,-3.110468E-4,-0.023683708,-0.010839279
1732439021278,2024-11-24T09:03:41.278Z,66849,-3.110468E-4,-0.023683708,-0.010839279
1732439021291,2024-11-24T09:03:41.291Z,66862,0.00784315,-0.03165588,-0.019527098
1732439021294,2024-11-24T09:03:41.294Z,66865,0.00784315,-0.03165588,-0.019527098
1732439021304,2024-11-24T09:03:41.304Z,66875,0.04115781,-0.02887693,0.016353833
1732439021308,2024-11-24T09:03:41.308Z,66879,0.04115781,-0.02887693,0.016353833
1732439021320,2024-11-24T09:03:41.320Z,66891,0.007935851,-0.04610864,0.032848842
1732439021323,2024-11-24T09:03:41.323Z,66894,0.007935851,-0.04610864,0.032848842
1732439021332,2024-11-24T09:03:41.332Z,66903,-0.05460476,-0.03294869,0.0052018533
1732439021335,2024-11-24T09:03:41.335Z,66906,-0.05460476,-0.03294869,0.0052018533
1732439021344,2024-11-24T09:03:41.344Z,66915,-0.06856124,-0.047617733,-0.02471293
1732439021348,2024-11-24T09:03:41.348Z,66919,-0.06856124,-0.047617733,-0.02471293
1732439021360,2024-11-24T09:03:41.360Z,66931,-0.09073037,-0.101863675,-0.060219627
1732439021363,2024-11-24T09:03:41.363Z,66934,-0.09073037,-0.101863675,-0.060219627
1732439021372,2024-11-24T09:03:41.372Z,66943,-0.068417974,-0.11730078,-0.048744444
1732439021375,2024-11-24T09:03:41.375Z,66946,-0.068417974,-0.11730078,-0.048744444
1732439021385,2024-11-24T09:03:41.385Z,66956,-0.0472849,-0.12891604,-0.034766275
1732439021388,2024-11-24T09:03:41.388Z,66959,-0.0472849,-0.12891604,-0.034766275
1732439021403,2024-11-24T09:03:41.403Z,66974,-0.05484071,-0.12446161,-0.012434579
1732439021406,2024-11-24T09:03:41.406Z,66977,-0.05484071,-0.12446161,-0.012434579
1732439021420,2024-11-24T09:03:41.420Z,66991,-0.020208927,-0.11567567,-0.012009047
1732439021426,2024-11-24T09:03:41.426Z,66997,-0.020208927,-0.11567567,-0.012009047
1732439021455,2024-11-24T09:03:41.455Z,67026,0.013116395,-0.12549458,-0.03838761
1732439021461,2024-11-24T09:03:41.461Z,67032,0.013116395,-0.12549458,-0.03838761
1732439021480,2024-11-24T09:03:41.480Z,67051,-0.008471297,-0.122590855,-0.052477397
1732439021484,2024-11-24T09:03:41.484Z,67055,-0.008471297,-0.122590855,-0.052477397
1732439021497,2024-11-24T09:03:41.497Z,67068,-0.002241268,-0.097308785,-0.018522067
1732439021501,2024-11-24T09:03:41.501Z,67072,-0.002241268,-0.097308785,-0.018522067
1732439021513,2024-11-24T09:03:41.513Z,67084,-0.017531283,-0.10625275,-0.04226466
1732439021517,2024-11-24T09:03:41.517Z,67088,-0.017531283,-0.10625275,-0.04226466
1732439021528,2024-11-24T09:03:41.528Z,67099,-0.06732452,-0.09374135,-0.06701692
1732439021531,2024-11-24T09:03:41.531Z,67102,-0.06732452,-0.09374135,-0.06701692
1732439021542,2024-11-24T09:03:41.542Z,67113,-0.028778274,-0.07715916,-0.038164135
1732439021545,2024-11-24T09:03:41.545Z,67116,-0.028778274,-0.07715916,-0.038164135
1732439021556,2024-11-24T09:03:41.556Z,67127,-0.09484125,-0.044952076,-0.10922868
1732439021559,2024-11-24T09:03:41.559Z,67130,-0.09484125,-0.044952076,-0.10922868
1732439021569,2024-11-24T09:03:41.569Z,67140,-0.10243821,-0.045403305,-0.12076788
1732439021572,2024-11-24T09:03:41.572Z,67143,-0.10243821,-0.045403305,-0.12076788
1732439021587,2024-11-24T09:03:41.587Z,67158,-0.06474889,-0.044474687,-0.08004347
1732439021591,2024-11-24T09:03:41.591Z,67162,-0.06474889,-0.044474687,-0.08004347
1732439021610,2024-11-24T09:03:41.610Z,67181,-0.08749462,-0.049106985,-0.11220731
1732439021615,2024-11-24T09:03:41.615Z,67186,-0.08749462,-0.049106985,-0.11220731
1732439021629,2024-11-24T09:03:41.629Z,67200,-0.05987566,-0.05197764,-0.07426769
1732439021632,2024-11-24T09:03:41.632Z,67203,-0.05987566,-0.05197764,-0.07426769
1732439021642,2024-11-24T09:03:41.642Z,67213,-0.04229004,-0.050084908,-0.040620174
1732439021645,2024-11-24T09:03:41.645Z,67216,-0.04229004,-0.050084908,-0.040620174
1732439021655,2024-11-24T09:03:41.655Z,67226,-0.045430463,-0.03717469,-0.06164377
1732439021658,2024-11-24T09:03:41.658Z,67229,-0.045430463,-0.03717469,-0.06164377
1732439021666,2024-11-24T09:03:41.666Z,67237,-0.040844988,-0.02906744,-0.057081684
1732439021669,2024-11-24T09:03:41.669Z,67240,-0.040844988,-0.02906744,-0.057081684
1732439021678,2024-11-24T09:03:41.678Z,67249,-0.034233652,-0.03222342,-0.061248142
1732439021680,2024-11-24T09:03:41.680Z,67251,-0.034233652,-0.03222342,-0.061248142
1732439021690,2024-11-24T09:03:41.690Z,67261,0.02081072,-0.039272614,-0.03370905
1732439021696,2024-11-24T09:03:41.696Z,67267,0.02081072,-0.039272614,-0.03370905
1732439021712,2024-11-24T09:03:41.712Z,67283,0.029347282,-0.032175574,-0.012962513
1732439021719,2024-11-24T09:03:41.719Z,67290,0.029347282,-0.032175574,-0.012962513
1732439021731,2024-11-24T09:03:41.731Z,67302,0.010491788,-0.017281309,0.02107662
1732439021734,2024-11-24T09:03:41.734Z,67305,0.010491788,-0.017281309,0.02107662
1732439021744,2024-11-24T09:03:41.744Z,67315,0.013106124,-0.0047335327,0.0064943484
1732439021746,2024-11-24T09:03:41.746Z,67317,0.013106124,-0.0047335327,0.0064943484
1732439021756,2024-11-24T09:03:41.756Z,67327,0.0097574955,-0.006561887,-0.014511352
1732439021759,2024-11-24T09:03:41.759Z,67330,0.0097574955,-0.006561887,-0.014511352
1732439021768,2024-11-24T09:03:41.768Z,67339,0.006074384,-0.004025958,-0.043363754
1732439021770,2024-11-24T09:03:41.770Z,67341,0.006074384,-0.004025958,-0.043363754
1732439021810,2024-11-24T09:03:41.810Z,67381,0.022350565,0.009813461,-0.0142915
1732439021813,2024-11-24T09:03:41.813Z,67384,0.022350565,0.009813461,-0.0142915
1732439021824,2024-11-24T09:03:41.824Z,67395,-3.3329224E-4,0.023594629,-0.023735857
1732439021828,2024-11-24T09:03:41.828Z,67399,-3.3329224E-4,0.023594629,-0.023735857
1732439021840,2024-11-24T09:03:41.840Z,67411,-0.009829702,0.022250278,-0.02542432
1732439021843,2024-11-24T09:03:41.843Z,67414,-0.009829702,0.022250278,-0.02542432
1732439021856,2024-11-24T09:03:41.856Z,67427,-8.9499506E-4,0.027347906,-0.0039034504
1732439021859,2024-11-24T09:03:41.859Z,67430,-8.9499506E-4,0.027347906,-0.0039034504
1732439021870,2024-11-24T09:03:41.870Z,67441,-0.021123953,0.034090284,0.0025455318
1732439021873,2024-11-24T09:03:41.873Z,67444,-0.021123953,0.034090284,0.0025455318
1732439021881,2024-11-24T09:03:41.881Z,67452,-0.004658579,0.038880996,0.004031793
1732439021884,2024-11-24T09:03:41.884Z,67455,-0.004658579,0.038880996,0.004031793
1732439021902,2024-11-24T09:03:41.902Z,67473,0.016360566,0.0050986977,-0.0054505398
1732439021905,2024-11-24T09:03:41.905Z,67476,0.016360566,0.0050986977,-0.0054505398
1732439021914,2024-11-24T09:03:41.914Z,67485,-0.0015286126,-0.0091256285,4.6870968E-4
1732439021916,2024-11-24T09:03:41.916Z,67487,-0.0015286126,-0.0091256285,4.6870968E-4
1732439021950,2024-11-24T09:03:41.950Z,67521,0.021077445,-0.019448375,0.012785109
1732439021959,2024-11-24T09:03:41.959Z,67530,0.021077445,-0.019448375,0.012785109
1732439021987,2024-11-24T09:03:41.987Z,67558,0.0072256266,-0.0045386483,0.012858822
1732439021993,2024-11-24T09:03:41.993Z,67564,0.0072256266,-0.0045386483,0.012858822
1732439022009,2024-11-24T09:03:42.009Z,67580,0.003021997,-0.0027324662,-0.008734547
1732439022013,2024-11-24T09:03:42.013Z,67584,0.003021997,-0.0027324662,-0.008734547
1732439022026,2024-11-24T09:03:42.026Z,67597,0.0135505935,0.0019290057,6.491771E-4
1732439022029,2024-11-24T09:03:42.029Z,67600,0.0135505935,0.0019290057,6.491771E-4
1732439022043,2024-11-24T09:03:42.043Z,67614,-0.015293735,-0.0039190827,-0.037515763
1732439022047,2024-11-24T09:03:42.047Z,67618,-0.015293735,-0.0039190827,-0.037515763
1732439022062,2024-11-24T09:03:42.062Z,67633,-0.0070266337,-0.024290144,-0.0170616
1732439022071,2024-11-24T09:03:42.071Z,67642,-0.0070266337,-0.024290144,-0.0170616
1732439022092,2024-11-24T09:03:42.092Z,67663,-0.01687615,-0.03733447,-0.01707558
1732439022098,2024-11-24T09:03:42.098Z,67669,-0.01687615,-0.03733447,-0.01707558
1732439022112,2024-11-24T09:03:42.112Z,67683,-0.04665192,-0.028237235,-0.043761835
1732439022115,2024-11-24T09:03:42.115Z,67686,-0.04665192,-0.028237235,-0.043761835
1732439022127,2024-11-24T09:03:42.127Z,67698,-0.04251247,-0.048158817,-0.046368074
1732439022130,2024-11-24T09:03:42.130Z,67701,-0.04251247,-0.048158817,-0.046368074
1732439022144,2024-11-24T09:03:42.144Z,67715,-0.03926192,-0.06326295,-0.045392048
1732439022152,2024-11-24T09:03:42.152Z,67723,-0.03926192,-0.06326295,-0.045392048
1732439022174,2024-11-24T09:03:42.174Z,67745,-0.050868943,-0.059431095,-0.035047542
1732439022181,2024-11-24T09:03:42.181Z,67752,-0.050868943,-0.059431095,-0.035047542
1732439022198,2024-11-24T09:03:42.198Z,67769,-0.040293496,-0.062999405,-0.050461546
1732439022202,2024-11-24T09:03:42.202Z,67773,-0.040293496,-0.062999405,-0.050461546
1732439022216,2024-11-24T09:03:42.216Z,67787,-0.05065123,-0.054950308,-0.052864514
1732439022220,2024-11-24T09:03:42.220Z,67791,-0.05065123,-0.054950308,-0.052864514
1732439022231,2024-11-24T09:03:42.231Z,67802,-0.05601602,-0.058180194,-0.03818317
1732439022235,2024-11-24T09:03:42.235Z,67806,-0.05601602,-0.058180194,-0.03818317
1732439022245,2024-11-24T09:03:42.245Z,67816,-0.05621866,-0.0647062,-0.024411924
1732439022248,2024-11-24T09:03:42.248Z,67819,-0.05621866,-0.0647062,-0.024411924
1732439022261,2024-11-24T09:03:42.261Z,67832,-0.05006857,-0.06879566,-0.012628783
1732439022268,2024-11-24T09:03:42.268Z,67839,-0.05006857,-0.06879566,-0.012628783
1732439022287,2024-11-24T09:03:42.287Z,67858,-0.053168487,-0.055486433,0.0042102425
1732439022290,2024-11-24T09:03:42.290Z,67861,-0.053168487,-0.055486433,0.0042102425
1732439022302,2024-11-24T09:03:42.302Z,67873,-0.035698444,-0.048750862,0.016943542
1732439022306,2024-11-24T09:03:42.306Z,67877,-0.035698444,-0.048750862,0.016943542
1732439022318,2024-11-24T09:03:42.318Z,67889,-0.042205047,-0.028812455,0.032061744
1732439022321,2024-11-24T09:03:42.321Z,67892,-0.042205047,-0.028812455,0.032061744
1732439022332,2024-11-24T09:03:42.332Z,67903,-0.049939133,-0.012448972,0.0075775417
1732439022335,2024-11-24T09:03:42.335Z,67906,-0.049939133,-0.012448972,0.0075775417
1732439022345,2024-11-24T09:03:42.345Z,67916,-0.037197933,-0.013403652,0.0046624686
1732439022348,2024-11-24T09:03:42.348Z,67919,-0.037197933,-0.013403652,0.0046624686
1732439022358,2024-11-24T09:03:42.358Z,67929,-0.03111516,-0.021580338,-0.007660227
1732439022361,2024-11-24T09:03:42.361Z,67932,-0.03111516,-0.021580338,-0.007660227
1732439022369,2024-11-24T09:03:42.369Z,67940,-0.051998984,-0.030919326,-0.032555617
1732439022372,2024-11-24T09:03:42.372Z,67943,-0.051998984,-0.030919326,-0.032555617
1732439022380,2024-11-24T09:03:42.380Z,67951,-0.058636703,-0.030476948,-0.06588533
1732439022382,2024-11-24T09:03:42.382Z,67953,-0.058636703,-0.030476948,-0.06588533
1732439022391,2024-11-24T09:03:42.391Z,67962,-0.045131717,-0.053996503,-0.086571105
1732439022394,2024-11-24T09:03:42.394Z,67965,-0.045131717,-0.053996503,-0.086571105
1732439022404,2024-11-24T09:03:42.404Z,67975,-0.043780945,-0.05935096,-0.06557802
1732439022407,2024-11-24T09:03:42.407Z,67978,-0.043780945,-0.05935096,-0.06557802
1732439022415,2024-11-24T09:03:42.415Z,67986,-0.033501085,-0.06322813,-0.042798065
1732439022418,2024-11-24T09:03:42.418Z,67989,-0.033501085,-0.06322813,-0.042798065
1732439022427,2024-11-24T09:03:42.427Z,67998,-0.040918775,-0.077316016,-0.032255754
1732439022429,2024-11-24T09:03:42.429Z,68000,-0.040918775,-0.077316016,-0.032255754
1732439022439,2024-11-24T09:03:42.439Z,68010,-0.028236384,-0.06459787,-0.032316558
1732439022442,2024-11-24T09:03:42.442Z,68013,-0.028236384,-0.06459787,-0.032316558
1732439022453,2024-11-24T09:03:42.453Z,68024,-0.021711063,-0.06313934,-0.052472945
1732439022456,2024-11-24T09:03:42.456Z,68027,-0.021711063,-0.06313934,-0.052472945
1732439022463,2024-11-24T09:03:42.463Z,68034,0.010536061,-0.059525423,-0.029924264
1732439022466,2024-11-24T09:03:42.466Z,68037,0.010536061,-0.059525423,-0.029924264
1732439022474,2024-11-24T09:03:42.474Z,68045,0.018077377,-0.06695282,-0.03706604
1732439022477,2024-11-24T09:03:42.477Z,68048,0.018077377,-0.06695282,-0.03706604
1732439022487,2024-11-24T09:03:42.487Z,68058,0.026551787,-0.07191624,-0.037405968
1732439022493,2024-11-24T09:03:42.493Z,68064,0.026551787,-0.07191624,-0.037405968
1732439022511,2024-11-24T09:03:42.511Z,68082,0.02365152,-0.06719331,-0.038250174
1732439022517,2024-11-24T09:03:42.517Z,68088,0.02365152,-0.06719331,-0.038250174
1732439022527,2024-11-24T09:03:42.527Z,68098,0.021814704,-0.065283075,-0.043057956
1732439022529,2024-11-24T09:03:42.529Z,68100,0.021814704,-0.065283075,-0.043057956
1732439022539,2024-11-24T09:03:42.539Z,68110,0.02054866,-0.06438256,-0.011705513
1732439022542,2024-11-24T09:03:42.542Z,68113,0.02054866,-0.06438256,-0.011705513
1732439022551,2024-11-24T09:03:42.551Z,68122,0.011005013,-0.0608618,-0.04767285
1732439022554,2024-11-24T09:03:42.554Z,68125,0.011005013,-0.0608618,-0.04767285
1732439022564,2024-11-24T09:03:42.564Z,68135,0.0145800095,-0.06395807,-0.03797307
1732439022567,2024-11-24T09:03:42.567Z,68138,0.0145800095,-0.06395807,-0.03797307
1732439022577,2024-11-24T09:03:42.577Z,68148,0.006810695,-0.05042216,-0.039985318
1732439022579,2024-11-24T09:03:42.579Z,68150,0.006810695,-0.05042216,-0.039985318
1732439022588,2024-11-24T09:03:42.588Z,68159,0.0051424108,-0.044747174,-0.029861953
1732439022591,2024-11-24T09:03:42.591Z,68162,0.0051424108,-0.044747174,-0.029861953
1732439022599,2024-11-24T09:03:42.599Z,68170,0.011639822,-0.029210782,-0.04387963
1732439022602,2024-11-24T09:03:42.602Z,68173,0.011639822,-0.029210782,-0.04387963
1732439022616,2024-11-24T09:03:42.616Z,68187,0.0025548434,-0.030281091,-0.010069855
1732439022621,2024-11-24T09:03:42.621Z,68192,0.0025548434,-0.030281091,-0.010069855
1732439022630,2024-11-24T09:03:42.630Z,68201,0.013479409,-0.047822926,-0.004342986
1732439022632,2024-11-24T09:03:42.632Z,68203,0.013479409,-0.047822926,-0.004342986
1732439022641,2024-11-24T09:03:42.641Z,68212,0.020417036,-0.042471673,0.00832049
1732439022643,2024-11-24T09:03:42.643Z,68214,0.020417036,-0.042471673,0.00832049
1732439022651,2024-11-24T09:03:42.651Z,68222,0.007302623,-0.025359968,0.014046192
1732439022653,2024-11-24T09:03:42.653Z,68224,0.007302623,-0.025359968,0.014046192
1732439022665,2024-11-24T09:03:42.665Z,68236,5.044725E-4,-0.01794123,-0.013144901
1732439022668,2024-11-24T09:03:42.668Z,68239,5.044725E-4,-0.01794123,-0.013144901
1732439022676,2024-11-24T09:03:42.676Z,68247,0.0054905815,-0.016276155,-0.005120554
1732439022679,2024-11-24T09:03:42.679Z,68250,0.0054905815,-0.016276155,-0.005120554
1732439022689,2024-11-24T09:03:42.689Z,68260,0.025977101,-0.026749443,0.016472207
1732439022692,2024-11-24T09:03:42.692Z,68263,0.025977101,-0.026749443,0.016472207
1732439022761,2024-11-24T09:03:42.761Z,68332,0.020763408,-0.017589096,0.053976566
1732439022764,2024-11-24T09:03:42.764Z,68335,0.020763408,-0.017589096,0.053976566
1732439022775,2024-11-24T09:03:42.775Z,68346,0.0027611786,-0.025970975,0.0222707
1732439022778,2024-11-24T09:03:42.778Z,68349,0.0027611786,-0.025970975,0.0222707
1732439022788,2024-11-24T09:03:42.788Z,68359,0.012162286,-0.03434731,-0.010488774
1732439022791,2024-11-24T09:03:42.791Z,68362,0.012162286,-0.03434731,-0.010488774
1732439022849,2024-11-24T09:03:42.849Z,68420,0.03268226,-0.047916185,0.017088661
1732439022855,2024-11-24T09:03:42.855Z,68426,0.03268226,-0.047916185,0.017088661
1732439022874,2024-11-24T09:03:42.874Z,68445,0.024244366,-0.05337363,-0.012969855
1732439022878,2024-11-24T09:03:42.878Z,68449,0.024244366,-0.05337363,-0.012969855
1732439022891,2024-11-24T09:03:42.891Z,68462,0.022029087,-0.04321776,-0.016024843
1732439022894,2024-11-24T09:03:42.894Z,68465,0.022029087,-0.04321776,-0.016024843
1732439022907,2024-11-24T09:03:42.907Z,68478,0.043463286,-0.05877613,0.03768636
1732439022910,2024-11-24T09:03:42.910Z,68481,0.043463286,-0.05877613,0.03768636
1732439022920,2024-11-24T09:03:42.920Z,68491,0.009786159,-0.051346403,0.0057761497
1732439022923,2024-11-24T09:03:42.923Z,68494,0.009786159,-0.051346403,0.0057761497
1732439022986,2024-11-24T09:03:42.986Z,68557,0.030297745,0.008323627,-0.008874583
1732439022992,2024-11-24T09:03:42.992Z,68563,0.030297745,0.008323627,-0.008874583
1732439023009,2024-11-24T09:03:43.009Z,68580,0.03659993,0.013306404,0.044718947
1732439023012,2024-11-24T09:03:43.012Z,68583,0.03659993,0.013306404,0.044718947
1732439023025,2024-11-24T09:03:43.025Z,68596,0.012293813,0.04181603,0.07143686
1732439023029,2024-11-24T09:03:43.029Z,68600,0.012293813,0.04181603,0.07143686
1732439023045,2024-11-24T09:03:43.045Z,68616,0.04240133,0.03990813,0.04455725
1732439023053,2024-11-24T09:03:43.053Z,68624,0.04240133,0.03990813,0.04455725
1732439023083,2024-11-24T09:03:43.083Z,68654,0.04133265,0.054851405,0.05834554
1732439023092,2024-11-24T09:03:43.092Z,68663,0.04133265,0.054851405,0.05834554
1732439023116,2024-11-24T09:03:43.116Z,68687,0.03735573,0.07174236,0.059421904
1732439023122,2024-11-24T09:03:43.122Z,68693,0.03735573,0.07174236,0.059421904
1732439023144,2024-11-24T09:03:43.144Z,68715,0.04097134,0.02366669,0.049336635
1732439023150,2024-11-24T09:03:43.150Z,68721,0.04097134,0.02366669,0.049336635
1732439023171,2024-11-24T09:03:43.171Z,68742,0.008462034,0.02894549,0.0075483434
1732439023178,2024-11-24T09:03:43.178Z,68749,0.008462034,0.02894549,0.0075483434
1732439023199,2024-11-24T09:03:43.199Z,68770,0.0016370923,0.00106778,-5.822707E-4
1732439023206,2024-11-24T09:03:43.206Z,68777,0.0016370923,0.00106778,-5.822707E-4
1732439023225,2024-11-24T09:03:43.225Z,68796,-0.02103456,0.0018041396,0.01325749
1732439023231,2024-11-24T09:03:43.231Z,68802,-0.02103456,0.0018041396,0.01325749
1732439023245,2024-11-24T09:03:43.245Z,68816,0.015198748,0.02556302,0.03918081
1732439023249,2024-11-24T09:03:43.249Z,68820,0.015198748,0.02556302,0.03918081
1732439023262,2024-11-24T09:03:43.262Z,68833,0.045271326,0.023442632,0.05026918
1732439023266,2024-11-24T09:03:43.266Z,68837,0.045271326,0.023442632,0.05026918
1732439023278,2024-11-24T09:03:43.278Z,68849,0.033519853,0.053933583,0.04911485
1732439023281,2024-11-24T09:03:43.281Z,68852,0.033519853,0.053933583,0.04911485
1732439023291,2024-11-24T09:03:43.291Z,68862,0.05647051,0.06844022,0.033435006
1732439023294,2024-11-24T09:03:43.294Z,68865,0.05647051,0.06844022,0.033435006
1732439023303,2024-11-24T09:03:43.303Z,68874,0.028633252,0.044400096,-0.044396937
1732439023306,2024-11-24T09:03:43.306Z,68877,0.028633252,0.044400096,-0.044396937
1732439023314,2024-11-24T09:03:43.314Z,68885,0.06252205,0.09436461,0.0920943
1732439023317,2024-11-24T09:03:43.317Z,68888,0.06252205,0.09436461,0.0920943
1732439023325,2024-11-24T09:03:43.325Z,68896,0.06525858,0.11702848,0.077138856
1732439023328,2024-11-24T09:03:43.328Z,68899,0.06525858,0.11702848,0.077138856
1732439023336,2024-11-24T09:03:43.336Z,68907,0.020171935,0.095253065,-0.012561706
1732439023338,2024-11-24T09:03:43.338Z,68909,0.020171935,0.095253065,-0.012561706
1732439023347,2024-11-24T09:03:43.347Z,68918,0.09049589,0.021097016,-0.01753904
1732439023350,2024-11-24T09:03:43.350Z,68921,0.09049589,0.021097016,-0.01753904
1732439023358,2024-11-24T09:03:43.358Z,68929,0.08566098,0.034160398,0.040515985
1732439023361,2024-11-24T09:03:43.361Z,68932,0.08566098,0.034160398,0.040515985
1732439023370,2024-11-24T09:03:43.370Z,68941,0.038234044,0.03358761,0.030580321
1732439023373,2024-11-24T09:03:43.373Z,68944,0.038234044,0.03358761,0.030580321
1732439023381,2024-11-24T09:03:43.381Z,68952,0.04382641,0.07193151,-0.033006642
1732439023383,2024-11-24T09:03:43.383Z,68954,0.04382641,0.07193151,-0.033006642
1732439023391,2024-11-24T09:03:43.391Z,68962,0.035371047,0.021980414,-0.047147077
1732439023393,2024-11-24T09:03:43.393Z,68964,0.035371047,0.021980414,-0.047147077
1732439023402,2024-11-24T09:03:43.402Z,68973,0.09453396,0.07202604,0.018006107
1732439023406,2024-11-24T09:03:43.406Z,68977,0.09453396,0.07202604,0.018006107
1732439023419,2024-11-24T09:03:43.419Z,68990,0.03681131,0.025754113,0.006723184
1732439023422,2024-11-24T09:03:43.422Z,68993,0.03681131,0.025754113,0.006723184
1732439023433,2024-11-24T09:03:43.433Z,69004,0.08542012,0.09095598,0.114889205
1732439023435,2024-11-24T09:03:43.435Z,69006,0.08542012,0.09095598,0.114889205
1732439023443,2024-11-24T09:03:43.443Z,69014,0.047685865,0.110204615,0.075248286
1732439023445,2024-11-24T09:03:43.445Z,69016,0.047685865,0.110204615,0.075248286
1732439023455,2024-11-24T09:03:43.455Z,69026,0.0079322895,0.01831787,-0.050922733
1732439023458,2024-11-24T09:03:43.458Z,69029,0.0079322895,0.01831787,-0.050922733
1732439023466,2024-11-24T09:03:43.466Z,69037,0.0737638,0.04679764,0.07493603
1732439023468,2024-11-24T09:03:43.468Z,69039,0.0737638,0.04679764,0.07493603
1732439023476,2024-11-24T09:03:43.476Z,69047,0.023843244,0.07535317,0.04758936
1732439023478,2024-11-24T09:03:43.478Z,69049,0.023843244,0.07535317,0.04758936
1732439023485,2024-11-24T09:03:43.485Z,69056,-0.033976138,-0.03590755,-0.010303894
1732439023487,2024-11-24T09:03:43.487Z,69058,-0.033976138,-0.03590755,-0.010303894
1732439023495,2024-11-24T09:03:43.495Z,69066,-0.047498688,-0.05996294,-0.027622618
1732439023497,2024-11-24T09:03:43.497Z,69068,-0.047498688,-0.05996294,-0.027622618
1732439023506,2024-11-24T09:03:43.506Z,69077,-0.060596813,-0.10094566,-0.050764024
1732439023509,2024-11-24T09:03:43.509Z,69080,-0.060596813,-0.10094566,-0.050764024
1732439023517,2024-11-24T09:03:43.517Z,69088,-0.123697184,-0.09659353,0.006869396
1732439023520,2024-11-24T09:03:43.520Z,69091,-0.123697184,-0.09659353,0.006869396
1732439023528,2024-11-24T09:03:43.528Z,69099,-0.09270751,-0.08682208,-0.02461094
1732439023530,2024-11-24T09:03:43.530Z,69101,-0.09270751,-0.08682208,-0.02461094
1732439023540,2024-11-24T09:03:43.540Z,69111,-0.06648648,-0.060856648,0.03562018
1732439023543,2024-11-24T09:03:43.543Z,69114,-0.06648648,-0.060856648,0.03562018
1732439023549,2024-11-24T09:03:43.549Z,69120,-0.01339462,0.11172313,0.14435646
1732439023552,2024-11-24T09:03:43.552Z,69123,-0.01339462,0.11172313,0.14435646
1732439023560,2024-11-24T09:03:43.560Z,69131,0.041523352,0.23808263,0.15525545
1732439023563,2024-11-24T09:03:43.563Z,69134,0.041523352,0.23808263,0.15525545
1732439023570,2024-11-24T09:03:43.570Z,69141,-0.014989532,0.29049006,0.064108126
1732439023572,2024-11-24T09:03:43.572Z,69143,-0.014989532,0.29049006,0.064108126
1732439023581,2024-11-24T09:03:43.581Z,69152,0.046496406,0.28113565,-0.095285274
1732439023583,2024-11-24T09:03:43.583Z,69154,0.046496406,0.28113565,-0.095285274
1732439023593,2024-11-24T09:03:43.593Z,69164,0.10173678,0.3383692,-0.015664078
1732439023595,2024-11-24T09:03:43.595Z,69166,0.10173678,0.3383692,-0.015664078
1732439023609,2024-11-24T09:03:43.609Z,69180,0.04666479,0.36916897,0.01527169
1732439023612,2024-11-24T09:03:43.612Z,69183,0.04666479,0.36916897,0.01527169
1732439023619,2024-11-24T09:03:43.619Z,69190,0.007271029,0.20746092,-0.08646252
1732439023622,2024-11-24T09:03:43.622Z,69193,0.007271029,0.20746092,-0.08646252
1732439023630,2024-11-24T09:03:43.630Z,69201,0.04908871,0.19168298,-0.06245801
1732439023632,2024-11-24T09:03:43.632Z,69203,0.04908871,0.19168298,-0.06245801
1732439023655,2024-11-24T09:03:43.655Z,69226,-0.043494236,0.18362741,-0.10436841
1732439023659,2024-11-24T09:03:43.659Z,69230,-0.043494236,0.18362741,-0.10436841
1732439023667,2024-11-24T09:03:43.667Z,69238,-0.07129021,0.089522645,-0.09123352
1732439023670,2024-11-24T09:03:43.670Z,69241,-0.07129021,0.089522645,-0.09123352
1732439023678,2024-11-24T09:03:43.678Z,69249,-0.093418755,0.10891861,-0.06998304
1732439023681,2024-11-24T09:03:43.681Z,69252,-0.093418755,0.10891861,-0.06998304
1732439023699,2024-11-24T09:03:43.699Z,69270,-0.093921006,0.11158125,-0.1145463
1732439023701,2024-11-24T09:03:43.701Z,69272,-0.093921006,0.11158125,-0.1145463
1732439023710,2024-11-24T09:03:43.710Z,69281,-0.10589999,0.066824056,-0.14176586
1732439023713,2024-11-24T09:03:43.713Z,69284,-0.10589999,0.066824056,-0.14176586
1732439023721,2024-11-24T09:03:43.721Z,69292,-0.10654553,0.07884475,-0.04484725
1732439023724,2024-11-24T09:03:43.724Z,69295,-0.10654553,0.07884475,-0.04484725
1732439023743,2024-11-24T09:03:43.743Z,69314,-0.10759737,0.08732067,-0.032202184
1732439023746,2024-11-24T09:03:43.746Z,69317,-0.10759737,0.08732067,-0.032202184
1732439023754,2024-11-24T09:03:43.754Z,69325,-0.08776888,0.06749215,-0.024465568
1732439023756,2024-11-24T09:03:43.756Z,69327,-0.08776888,0.06749215,-0.024465568
1732439023764,2024-11-24T09:03:43.764Z,69335,-0.0466922,0.021001227,-0.066688895
1732439023766,2024-11-24T09:03:43.766Z,69337,-0.0466922,0.021001227,-0.066688895
1732439023794,2024-11-24T09:03:43.794Z,69365,-0.004555885,0.019262828,-0.055181205
1732439023802,2024-11-24T09:03:43.802Z,69373,-0.004555885,0.019262828,-0.055181205
1732439023829,2024-11-24T09:03:43.829Z,69400,-0.010811162,0.03445224,-0.009151344
1732439023836,2024-11-24T09:03:43.836Z,69407,-0.010811162,0.03445224,-0.009151344
1732439023853,2024-11-24T09:03:43.853Z,69424,0.018210255,0.02396631,-0.0145381745
1732439023858,2024-11-24T09:03:43.858Z,69429,0.018210255,0.02396631,-0.0145381745
1732439023871,2024-11-24T09:03:43.871Z,69442,0.0041633327,0.014484756,-0.053286206
1732439023875,2024-11-24T09:03:43.875Z,69446,0.0041633327,0.014484756,-0.053286206
1732439023887,2024-11-24T09:03:43.887Z,69458,-0.015207707,-0.0023626331,-0.031099595
1732439023890,2024-11-24T09:03:43.890Z,69461,-0.015207707,-0.0023626331,-0.031099595
1732439023904,2024-11-24T09:03:43.904Z,69475,0.004651492,0.01469695,0.008648568
1732439023909,2024-11-24T09:03:43.909Z,69480,0.004651492,0.01469695,0.008648568
1732439023927,2024-11-24T09:03:43.927Z,69498,-0.0045371163,0.02106191,0.012654329
1732439023933,2024-11-24T09:03:43.933Z,69504,-0.0045371163,0.02106191,0.012654329
1732439023954,2024-11-24T09:03:43.954Z,69525,-0.008223692,0.017754223,-0.031119408
1732439023960,2024-11-24T09:03:43.960Z,69531,-0.008223692,0.017754223,-0.031119408
1732439023979,2024-11-24T09:03:43.979Z,69550,-0.020983297,-0.006523377,-0.022885956
1732439023985,2024-11-24T09:03:43.985Z,69556,-0.020983297,-0.006523377,-0.022885956
1732439024006,2024-11-24T09:03:44.006Z,69577,-0.009490016,-0.009284142,-0.0059461994
1732439024014,2024-11-24T09:03:44.014Z,69585,-0.009490016,-0.009284142,-0.0059461994
1732439024041,2024-11-24T09:03:44.041Z,69612,-0.027040882,-0.01663646,-0.0014308785
1732439024047,2024-11-24T09:03:44.047Z,69618,-0.027040882,-0.01663646,-0.0014308785
1732439024059,2024-11-24T09:03:44.059Z,69630,-0.045854643,-0.013505082,-0.02737021
1732439024062,2024-11-24T09:03:44.062Z,69633,-0.045854643,-0.013505082,-0.02737021
1732439024073,2024-11-24T09:03:44.073Z,69644,-0.035789397,-0.0069785933,-0.03609017
1732439024076,2024-11-24T09:03:44.076Z,69647,-0.035789397,-0.0069785933,-0.03609017
1732439024085,2024-11-24T09:03:44.085Z,69656,-0.044592526,0.037374243,-0.004187292
1732439024088,2024-11-24T09:03:44.088Z,69659,-0.044592526,0.037374243,-0.004187292
1732439024097,2024-11-24T09:03:44.097Z,69668,-0.04403565,0.04737724,-8.619794E-5
1732439024099,2024-11-24T09:03:44.099Z,69670,-0.04403565,0.04737724,-8.619794E-5
1732439024107,2024-11-24T09:03:44.107Z,69678,-0.03671681,0.049576398,-0.020882998
1732439024110,2024-11-24T09:03:44.110Z,69681,-0.03671681,0.049576398,-0.020882998
1732439024117,2024-11-24T09:03:44.117Z,69688,-0.0507569,0.045950614,-0.029935595
1732439024119,2024-11-24T09:03:44.119Z,69690,-0.0507569,0.045950614,-0.029935595
1732439024127,2024-11-24T09:03:44.127Z,69698,-0.014462036,0.040373653,-4.1372215E-4
1732439024129,2024-11-24T09:03:44.129Z,69700,-0.014462036,0.040373653,-4.1372215E-4
1732439024135,2024-11-24T09:03:44.135Z,69706,-0.027997227,0.0430114,0.0044031334
1732439024138,2024-11-24T09:03:44.138Z,69709,-0.027997227,0.0430114,0.0044031334
1732439024158,2024-11-24T09:03:44.158Z,69729,-0.013074882,0.037527796,0.008351111
1732439024164,2024-11-24T09:03:44.164Z,69735,-0.013074882,0.037527796,0.008351111
1732439024182,2024-11-24T09:03:44.182Z,69753,-0.015244187,0.049389876,-0.006408369
1732439024187,2024-11-24T09:03:44.187Z,69758,-0.015244187,0.049389876,-0.006408369
1732439024198,2024-11-24T09:03:44.198Z,69769,-0.026972797,0.038746018,-0.03267339
1732439024201,2024-11-24T09:03:44.201Z,69772,-0.026972797,0.038746018,-0.03267339
1732439024211,2024-11-24T09:03:44.211Z,69782,-0.020568086,0.04573638,-7.373443E-4
1732439024214,2024-11-24T09:03:44.214Z,69785,-0.020568086,0.04573638,-7.373443E-4
1732439024222,2024-11-24T09:03:44.222Z,69793,0.009306898,0.032611925,0.011951531
1732439024225,2024-11-24T09:03:44.225Z,69796,0.009306898,0.032611925,0.011951531
1732439024233,2024-11-24T09:03:44.233Z,69804,-0.0013992244,0.036096893,0.0036453854
1732439024235,2024-11-24T09:03:44.235Z,69806,-0.0013992244,0.036096893,0.0036453854
1732439024244,2024-11-24T09:03:44.244Z,69815,-0.0055274507,0.03767211,0.018682387
1732439024246,2024-11-24T09:03:44.246Z,69817,-0.0055274507,0.03767211,0.018682387
1732439024253,2024-11-24T09:03:44.253Z,69824,-0.028043821,0.045973565,0.0012241846
1732439024255,2024-11-24T09:03:44.255Z,69826,-0.028043821,0.045973565,0.0012241846
1732439024265,2024-11-24T09:03:44.265Z,69836,-0.024826368,0.05274512,0.0054894635
1732439024267,2024-11-24T09:03:44.267Z,69838,-0.024826368,0.05274512,0.0054894635
1732439024276,2024-11-24T09:03:44.276Z,69847,-0.03739656,0.12270026,0.012411227
1732439024278,2024-11-24T09:03:44.278Z,69849,-0.03739656,0.12270026,0.012411227
1732439024286,2024-11-24T09:03:44.286Z,69857,-0.026213316,0.12726079,0.028063055
1732439024288,2024-11-24T09:03:44.288Z,69859,-0.026213316,0.12726079,0.028063055
1732439024296,2024-11-24T09:03:44.296Z,69867,-0.04455093,0.1410156,0.010481322
1732439024298,2024-11-24T09:03:44.298Z,69869,-0.04455093,0.1410156,0.010481322
1732439024306,2024-11-24T09:03:44.306Z,69877,-0.036492083,0.1409025,-0.028577032
1732439024309,2024-11-24T09:03:44.309Z,69880,-0.036492083,0.1409025,-0.028577032
1732439024317,2024-11-24T09:03:44.317Z,69888,-0.0145330755,0.1358361,-0.021952668
1732439024319,2024-11-24T09:03:44.319Z,69890,-0.0145330755,0.1358361,-0.021952668
1732439024328,2024-11-24T09:03:44.328Z,69899,-8.65456E-4,0.12682813,-0.010809096
1732439024330,2024-11-24T09:03:44.330Z,69901,-8.65456E-4,0.12682813,-0.010809096
1732439024376,2024-11-24T09:03:44.376Z,69947,-0.02110543,0.14414504,0.068409376
1732439024379,2024-11-24T09:03:44.379Z,69950,-0.02110543,0.14414504,0.068409376
1732439024387,2024-11-24T09:03:44.387Z,69958,-0.03749371,0.15010515,0.048654515
1732439024390,2024-11-24T09:03:44.390Z,69961,-0.03749371,0.15010515,0.048654515
1732439024399,2024-11-24T09:03:44.399Z,69970,-0.025718095,0.15446234,0.034238935
1732439024401,2024-11-24T09:03:44.401Z,69972,-0.025718095,0.15446234,0.034238935
1732439024424,2024-11-24T09:03:44.424Z,69995,-0.03265283,0.12566417,-0.057772934
1732439024426,2024-11-24T09:03:44.426Z,69997,-0.03265283,0.12566417,-0.057772934
1732439024435,2024-11-24T09:03:44.435Z,70006,-0.04239028,0.101405926,-0.051432554
1732439024439,2024-11-24T09:03:44.439Z,70010,-0.04239028,0.101405926,-0.051432554
1732439024448,2024-11-24T09:03:44.448Z,70019,0.010109423,0.100580685,0.022340717
1732439024451,2024-11-24T09:03:44.451Z,70022,0.010109423,0.100580685,0.022340717
1732439024470,2024-11-24T09:03:44.470Z,70041,-0.062131517,0.060930263,-0.13375631
1732439024476,2024-11-24T09:03:44.476Z,70047,-0.062131517,0.060930263,-0.13375631
1732439024493,2024-11-24T09:03:44.493Z,70064,0.026065622,0.038756132,-0.009309415
1732439024496,2024-11-24T09:03:44.496Z,70067,0.026065622,0.038756132,-0.009309415
1732439024509,2024-11-24T09:03:44.509Z,70080,0.02937834,0.060254585,0.062025953
1732439024513,2024-11-24T09:03:44.513Z,70084,0.02937834,0.060254585,0.062025953
1732439024523,2024-11-24T09:03:44.523Z,70094,0.022330726,0.1434678,0.08851538
1732439024526,2024-11-24T09:03:44.526Z,70097,0.022330726,0.1434678,0.08851538
1732439024536,2024-11-24T09:03:44.536Z,70107,0.06929876,0.13118969,-0.023745144
1732439024539,2024-11-24T09:03:44.539Z,70110,0.06929876,0.13118969,-0.023745144
1732439024554,2024-11-24T09:03:44.554Z,70125,0.047431685,0.084693424,-0.050556876
1732439024558,2024-11-24T09:03:44.558Z,70129,0.047431685,0.084693424,-0.050556876
1732439024567,2024-11-24T09:03:44.567Z,70138,0.015056389,0.092463806,-0.02596932
1732439024570,2024-11-24T09:03:44.570Z,70141,0.015056389,0.092463806,-0.02596932
1732439024580,2024-11-24T09:03:44.580Z,70151,0.03927817,0.100467294,-0.0049305563
1732439024583,2024-11-24T09:03:44.583Z,70154,0.03927817,0.100467294,-0.0049305563
1732439024602,2024-11-24T09:03:44.602Z,70173,0.07801177,0.11437255,0.03206549
1732439024614,2024-11-24T09:03:44.614Z,70185,0.07801177,0.11437255,0.03206549
1732439024631,2024-11-24T09:03:44.631Z,70202,0.08187674,0.115264505,0.034606937
1732439024634,2024-11-24T09:03:44.634Z,70205,0.08187674,0.115264505,0.034606937
1732439024644,2024-11-24T09:03:44.644Z,70215,0.034838945,0.06369686,-0.08735035
1732439024647,2024-11-24T09:03:44.647Z,70218,0.034838945,0.06369686,-0.08735035
1732439024655,2024-11-24T09:03:44.655Z,70226,0.018324886,0.005838072,-0.096610546
1732439024658,2024-11-24T09:03:44.658Z,70229,0.018324886,0.005838072,-0.096610546
1732439024666,2024-11-24T09:03:44.666Z,70237,0.03655865,0.019467534,-0.03504764
1732439024669,2024-11-24T09:03:44.669Z,70240,0.03655865,0.019467534,-0.03504764
1732439024677,2024-11-24T09:03:44.677Z,70248,0.04830762,-0.0026850095,0.03988518
1732439024679,2024-11-24T09:03:44.679Z,70250,0.04830762,-0.0026850095,0.03988518
1732439024686,2024-11-24T09:03:44.686Z,70257,-0.0010948391,0.03512082,0.012836601
1732439024689,2024-11-24T09:03:44.689Z,70260,-0.0010948391,0.03512082,0.012836601
1732439024696,2024-11-24T09:03:44.696Z,70267,0.0018739149,0.04254364,-0.013359502
1732439024698,2024-11-24T09:03:44.698Z,70269,0.0018739149,0.04254364,-0.013359502
1732439024706,2024-11-24T09:03:44.706Z,70277,0.08260571,0.012189223,-0.099286705
1732439024708,2024-11-24T09:03:44.708Z,70279,0.08260571,0.012189223,-0.099286705
1732439024717,2024-11-24T09:03:44.717Z,70288,0.042283975,-0.08192264,-0.2073286
1732439024719,2024-11-24T09:03:44.719Z,70290,0.042283975,-0.08192264,-0.2073286
1732439024733,2024-11-24T09:03:44.733Z,70304,0.046385933,-0.06817152,-0.07501402
1732439024735,2024-11-24T09:03:44.735Z,70306,0.046385933,-0.06817152,-0.07501402
1732439024745,2024-11-24T09:03:44.745Z,70316,-0.03806674,-0.062206835,-0.0152243
1732439024747,2024-11-24T09:03:44.747Z,70318,-0.03806674,-0.062206835,-0.0152243
1732439024755,2024-11-24T09:03:44.755Z,70326,-0.052076638,-0.0027804093,-0.016600428
1732439024757,2024-11-24T09:03:44.757Z,70328,-0.052076638,-0.0027804093,-0.016600428
1732439024765,2024-11-24T09:03:44.765Z,70336,0.04830356,-0.010587067,-0.004503955
1732439024767,2024-11-24T09:03:44.767Z,70338,0.04830356,-0.010587067,-0.004503955
1732439024779,2024-11-24T09:03:44.779Z,70350,-0.012437618,-0.04356688,-0.07028895
1732439024782,2024-11-24T09:03:44.782Z,70353,-0.012437618,-0.04356688,-0.07028895
1732439024789,2024-11-24T09:03:44.789Z,70360,4.6088125E-4,-0.043680854,-0.021997044
1732439024792,2024-11-24T09:03:44.792Z,70363,4.6088125E-4,-0.043680854,-0.021997044
1732439024800,2024-11-24T09:03:44.800Z,70371,0.052393056,-0.044722084,0.052517705
1732439024802,2024-11-24T09:03:44.802Z,70373,0.052393056,-0.044722084,0.052517705
1732439024885,2024-11-24T09:03:44.885Z,70456,0.06443891,0.012202449,0.08073884
1732439024891,2024-11-24T09:03:44.891Z,70462,0.06443891,0.012202449,0.08073884
1732439024911,2024-11-24T09:03:44.911Z,70482,0.13159312,0.023875577,0.12615499
1732439024919,2024-11-24T09:03:44.919Z,70490,0.13159312,0.023875577,0.12615499
1732439024932,2024-11-24T09:03:44.932Z,70503,0.14288354,0.035440374,0.07940838
1732439024936,2024-11-24T09:03:44.936Z,70507,0.14288354,0.035440374,0.07940838
1732439024948,2024-11-24T09:03:44.948Z,70519,0.0981417,0.052523978,0.07185687
1732439024952,2024-11-24T09:03:44.952Z,70523,0.0981417,0.052523978,0.07185687
1732439024968,2024-11-24T09:03:44.968Z,70539,0.13214815,0.0565547,0.068499394
1732439024975,2024-11-24T09:03:44.975Z,70546,0.13214815,0.0565547,0.068499394
1732439024997,2024-11-24T09:03:44.997Z,70568,0.13614848,0.051844798,0.038764786
1732439025003,2024-11-24T09:03:45.003Z,70574,0.13614848,0.051844798,0.038764786
1732439025023,2024-11-24T09:03:45.023Z,70594,0.05434036,-0.006956421,-0.009080967
1732439025028,2024-11-24T09:03:45.028Z,70599,0.05434036,-0.006956421,-0.009080967
1732439025041,2024-11-24T09:03:45.041Z,70612,0.08176774,-0.023179576,0.00916285
1732439025044,2024-11-24T09:03:45.044Z,70615,0.08176774,-0.023179576,0.00916285
1732439025058,2024-11-24T09:03:45.058Z,70629,0.08875282,-0.03462281,0.012999467
1732439025061,2024-11-24T09:03:45.061Z,70632,0.08875282,-0.03462281,0.012999467
1732439025072,2024-11-24T09:03:45.072Z,70643,-0.02228638,-0.04946709,-0.07860256
1732439025076,2024-11-24T09:03:45.076Z,70647,-0.02228638,-0.04946709,-0.07860256
1732439025086,2024-11-24T09:03:45.086Z,70657,0.030926,-0.056443255,-0.035000302
1732439025088,2024-11-24T09:03:45.088Z,70659,0.030926,-0.056443255,-0.035000302
1732439025098,2024-11-24T09:03:45.098Z,70669,0.070188686,-0.055171255,0.036428265
1732439025100,2024-11-24T09:03:45.100Z,70671,0.070188686,-0.055171255,0.036428265
1732439025109,2024-11-24T09:03:45.109Z,70680,-0.038791724,-0.07075335,-0.010608219
1732439025112,2024-11-24T09:03:45.112Z,70683,-0.038791724,-0.07075335,-0.010608219
1732439025120,2024-11-24T09:03:45.120Z,70691,0.013803389,-0.10126589,0.013787052
1732439025123,2024-11-24T09:03:45.123Z,70694,0.013803389,-0.10126589,0.013787052
1732439025131,2024-11-24T09:03:45.131Z,70702,0.011535621,-0.1073607,-0.021773739
1732439025134,2024-11-24T09:03:45.134Z,70705,0.011535621,-0.1073607,-0.021773739
1732439025141,2024-11-24T09:03:45.141Z,70712,-0.048606668,-0.0954639,-0.07222435
1732439025144,2024-11-24T09:03:45.144Z,70715,-0.048606668,-0.0954639,-0.07222435
1732439025151,2024-11-24T09:03:45.151Z,70722,-0.06275086,-0.10142577,-0.035955615
1732439025153,2024-11-24T09:03:45.153Z,70724,-0.06275086,-0.10142577,-0.035955615
1732439025161,2024-11-24T09:03:45.161Z,70732,-0.03026271,-0.10790538,0.039279107
1732439025164,2024-11-24T09:03:45.164Z,70735,-0.03026271,-0.10790538,0.039279107
1732439025185,2024-11-24T09:03:45.185Z,70756,-0.032850426,-0.054014977,0.036961425
1732439025188,2024-11-24T09:03:45.188Z,70759,-0.032850426,-0.054014977,0.036961425
1732439025196,2024-11-24T09:03:45.196Z,70767,-0.0033859708,-0.06266701,0.048841037
1732439025198,2024-11-24T09:03:45.198Z,70769,-0.0033859708,-0.06266701,0.048841037
1732439025209,2024-11-24T09:03:45.209Z,70780,-0.018615304,-0.052210838,0.056478724
1732439025211,2024-11-24T09:03:45.211Z,70782,-0.018615304,-0.052210838,0.056478724
1732439025230,2024-11-24T09:03:45.230Z,70801,0.008686263,-0.016388962,0.058239494
1732439025233,2024-11-24T09:03:45.233Z,70804,0.008686263,-0.016388962,0.058239494
1732439025245,2024-11-24T09:03:45.245Z,70816,-0.010704591,-0.02273671,-0.010415547
1732439025248,2024-11-24T09:03:45.248Z,70819,-0.010704591,-0.02273671,-0.010415547
1732439025257,2024-11-24T09:03:45.257Z,70828,-0.051197857,-0.02108175,-0.0025082617
1732439025263,2024-11-24T09:03:45.263Z,70834,-0.051197857,-0.02108175,-0.0025082617
1732439025274,2024-11-24T09:03:45.274Z,70845,0.014345083,-0.06324855,0.100215934
1732439025276,2024-11-24T09:03:45.276Z,70847,0.014345083,-0.06324855,0.100215934
1732439025283,2024-11-24T09:03:45.283Z,70854,-0.07897414,-0.05245999,-0.024963366
1732439025285,2024-11-24T09:03:45.285Z,70856,-0.07897414,-0.05245999,-0.024963366
1732439025291,2024-11-24T09:03:45.291Z,70862,-0.102625854,-0.05972099,-0.05096913
1732439025294,2024-11-24T09:03:45.294Z,70865,-0.102625854,-0.05972099,-0.05096913
1732439025325,2024-11-24T09:03:45.325Z,70896,-0.062212255,-0.058657,-0.005179462
1732439025329,2024-11-24T09:03:45.329Z,70900,-0.062212255,-0.058657,-0.005179462
1732439025347,2024-11-24T09:03:45.347Z,70918,-0.050475795,-0.04597415,-4.5706425E-4
1732439025352,2024-11-24T09:03:45.352Z,70923,-0.050475795,-0.04597415,-4.5706425E-4
1732439025370,2024-11-24T09:03:45.370Z,70941,-0.042422105,-0.043644093,0.0136506865
1732439025376,2024-11-24T09:03:45.376Z,70947,-0.042422105,-0.043644093,0.0136506865
1732439025393,2024-11-24T09:03:45.393Z,70964,0.014160483,-0.037691172,0.057145163
1732439025396,2024-11-24T09:03:45.396Z,70967,0.014160483,-0.037691172,0.057145163
1732439025409,2024-11-24T09:03:45.409Z,70980,0.03921097,-0.046996515,0.08885106
1732439025413,2024-11-24T09:03:45.413Z,70984,0.03921097,-0.046996515,0.08885106
1732439025427,2024-11-24T09:03:45.427Z,70998,0.054179717,-0.029038556,0.11236272
1732439025431,2024-11-24T09:03:45.431Z,71002,0.054179717,-0.029038556,0.11236272
1732439025447,2024-11-24T09:03:45.447Z,71018,0.08375911,-0.03924529,0.07548049
1732439025454,2024-11-24T09:03:45.454Z,71025,0.08375911,-0.03924529,0.07548049
1732439025475,2024-11-24T09:03:45.475Z,71046,0.10762825,-0.033241212,0.07959193
1732439025481,2024-11-24T09:03:45.481Z,71052,0.10762825,-0.033241212,0.07959193
1732439025498,2024-11-24T09:03:45.498Z,71069,0.08540092,-0.03947839,0.046847556
1732439025501,2024-11-24T09:03:45.501Z,71072,0.08540092,-0.03947839,0.046847556
1732439025513,2024-11-24T09:03:45.513Z,71084,0.08214565,-0.04272481,0.029105414
1732439025516,2024-11-24T09:03:45.516Z,71087,0.08214565,-0.04272481,0.029105414
1732439025527,2024-11-24T09:03:45.527Z,71098,0.086196154,-0.03727748,0.032551605
1732439025531,2024-11-24T09:03:45.531Z,71102,0.086196154,-0.03727748,0.032551605
1732439025541,2024-11-24T09:03:45.541Z,71112,0.06949194,-0.04509843,0.031190503
1732439025545,2024-11-24T09:03:45.545Z,71116,0.06949194,-0.04509843,0.031190503
1732439025554,2024-11-24T09:03:45.554Z,71125,0.03441255,-0.024239868,-0.026061099
1732439025557,2024-11-24T09:03:45.557Z,71128,0.03441255,-0.024239868,-0.026061099
1732439025566,2024-11-24T09:03:45.566Z,71137,0.015354223,-0.0274046,-0.097965136
1732439025568,2024-11-24T09:03:45.568Z,71139,0.015354223,-0.0274046,-0.097965136
1732439025576,2024-11-24T09:03:45.576Z,71147,-0.0038175078,-0.037080944,-0.15061006
1732439025579,2024-11-24T09:03:45.579Z,71150,-0.0038175078,-0.037080944,-0.15061006
1732439025588,2024-11-24T09:03:45.588Z,71159,0.0318346,-0.07480275,-0.098831125
1732439025590,2024-11-24T09:03:45.590Z,71161,0.0318346,-0.07480275,-0.098831125
1732439025598,2024-11-24T09:03:45.598Z,71169,-0.0024575957,-0.1017888,-0.07943427
1732439025600,2024-11-24T09:03:45.600Z,71171,-0.0024575957,-0.1017888,-0.07943427
1732439025607,2024-11-24T09:03:45.607Z,71178,-0.07003076,-0.07757246,-0.10508359
1732439025610,2024-11-24T09:03:45.610Z,71181,-0.07003076,-0.07757246,-0.10508359
1732439025617,2024-11-24T09:03:45.617Z,71188,-0.065131634,-0.0763979,-0.14028688
1732439025619,2024-11-24T09:03:45.619Z,71190,-0.065131634,-0.0763979,-0.14028688
1732439025635,2024-11-24T09:03:45.635Z,71206,-0.025242345,-0.07720321,-0.04387197
1732439025637,2024-11-24T09:03:45.637Z,71208,-0.025242345,-0.07720321,-0.04387197
1732439025645,2024-11-24T09:03:45.645Z,71216,-0.061356694,-0.05841544,-0.03227579
1732439025647,2024-11-24T09:03:45.647Z,71218,-0.061356694,-0.05841544,-0.03227579
1732439025680,2024-11-24T09:03:45.680Z,71251,-0.09333719,-0.0626602,-0.08806819
1732439025683,2024-11-24T09:03:45.683Z,71254,-0.09333719,-0.0626602,-0.08806819
1732439025690,2024-11-24T09:03:45.690Z,71261,-8.250496E-4,-0.085108966,-0.06584098
1732439025693,2024-11-24T09:03:45.693Z,71264,-8.250496E-4,-0.085108966,-0.06584098
1732439025701,2024-11-24T09:03:45.701Z,71272,-0.074036434,-0.07685789,-0.060987763
1732439025704,2024-11-24T09:03:45.704Z,71275,-0.074036434,-0.07685789,-0.060987763
1732439025723,2024-11-24T09:03:45.723Z,71294,-0.12375693,-0.06376037,-0.08692455
1732439025726,2024-11-24T09:03:45.726Z,71297,-0.12375693,-0.06376037,-0.08692455
1732439025736,2024-11-24T09:03:45.736Z,71307,-0.11555343,-0.024705296,-0.072390296
1732439025738,2024-11-24T09:03:45.738Z,71309,-0.11555343,-0.024705296,-0.072390296
1732439025747,2024-11-24T09:03:45.747Z,71318,-0.12766121,-0.034252495,-0.06195584
1732439025749,2024-11-24T09:03:45.749Z,71320,-0.12766121,-0.034252495,-0.06195584
1732439025758,2024-11-24T09:03:45.758Z,71329,-0.020493157,-0.02608952,-0.09954264
1732439025760,2024-11-24T09:03:45.760Z,71331,-0.020493157,-0.02608952,-0.09954264
1732439025770,2024-11-24T09:03:45.770Z,71341,0.011573256,0.021019997,-0.05343458
1732439025772,2024-11-24T09:03:45.772Z,71343,0.011573256,0.021019997,-0.05343458
1732439025780,2024-11-24T09:03:45.780Z,71351,-0.013809175,0.027119178,-0.064059354
1732439025783,2024-11-24T09:03:45.783Z,71354,-0.013809175,0.027119178,-0.064059354
1732439025791,2024-11-24T09:03:45.791Z,71362,0.012340467,0.03428935,-0.05090777
1732439025794,2024-11-24T09:03:45.794Z,71365,0.012340467,0.03428935,-0.05090777
1732439025818,2024-11-24T09:03:45.818Z,71389,0.017772969,0.027634688,-0.015425943
1732439025820,2024-11-24T09:03:45.820Z,71391,0.017772969,0.027634688,-0.015425943
1732439025828,2024-11-24T09:03:45.828Z,71399,0.008885985,0.04018645,-0.023977324
1732439025830,2024-11-24T09:03:45.830Z,71401,0.008885985,0.04018645,-0.023977324
1732439025860,2024-11-24T09:03:45.860Z,71431,0.008563172,0.037675902,-0.054531436
1732439025863,2024-11-24T09:03:45.863Z,71434,0.008563172,0.037675902,-0.054531436
1732439025875,2024-11-24T09:03:45.875Z,71446,-0.019590674,0.03091291,-0.016074512
1732439025884,2024-11-24T09:03:45.884Z,71455,-0.019590674,0.03091291,-0.016074512
1732439025908,2024-11-24T09:03:45.908Z,71479,-0.067679666,0.035997797,-0.03725774
1732439025915,2024-11-24T09:03:45.915Z,71486,-0.067679666,0.035997797,-0.03725774
1732439025936,2024-11-24T09:03:45.936Z,71507,-0.03391813,0.03374097,-0.04647247
1732439025944,2024-11-24T09:03:45.944Z,71515,-0.03391813,0.03374097,-0.04647247
1732439025962,2024-11-24T09:03:45.962Z,71533,-0.049539153,0.024935383,0.003952463
1732439025969,2024-11-24T09:03:45.969Z,71540,-0.049539153,0.024935383,0.003952463
1732439025988,2024-11-24T09:03:45.988Z,71559,-0.06227751,0.022101391,0.0057384903
1732439025996,2024-11-24T09:03:45.996Z,71567,-0.06227751,0.022101391,0.0057384903
1732439026013,2024-11-24T09:03:46.013Z,71584,-0.068252094,0.015139816,0.04458652
1732439026019,2024-11-24T09:03:46.019Z,71590,-0.068252094,0.015139816,0.04458652
1732439026037,2024-11-24T09:03:46.037Z,71608,-0.07741759,0.004185444,0.045653887
1732439026044,2024-11-24T09:03:46.044Z,71615,-0.07741759,0.004185444,0.045653887
1732439026063,2024-11-24T09:03:46.063Z,71634,-0.050666716,0.0054777693,0.043476854
1732439026068,2024-11-24T09:03:46.068Z,71639,-0.050666716,0.0054777693,0.043476854
1732439026079,2024-11-24T09:03:46.079Z,71650,-0.06439209,0.011445861,0.06992676
1732439026083,2024-11-24T09:03:46.083Z,71654,-0.06439209,0.011445861,0.06992676
1732439026095,2024-11-24T09:03:46.095Z,71666,-0.051461715,0.0037148627,0.038965553
1732439026099,2024-11-24T09:03:46.099Z,71670,-0.051461715,0.0037148627,0.038965553
1732439026109,2024-11-24T09:03:46.109Z,71680,-0.04171973,0.022252806,0.06513709
1732439026112,2024-11-24T09:03:46.112Z,71683,-0.04171973,0.022252806,0.06513709
1732439026122,2024-11-24T09:03:46.122Z,71693,-0.05265801,0.03559889,0.058635447
1732439026124,2024-11-24T09:03:46.124Z,71695,-0.05265801,0.03559889,0.058635447
1732439026134,2024-11-24T09:03:46.134Z,71705,-0.03956854,0.04507636,0.030163396
1732439026136,2024-11-24T09:03:46.136Z,71707,-0.03956854,0.04507636,0.030163396
1732439026145,2024-11-24T09:03:46.145Z,71716,-0.04005135,0.049902566,0.02778287
1732439026147,2024-11-24T09:03:46.147Z,71718,-0.04005135,0.049902566,0.02778287
1732439026154,2024-11-24T09:03:46.154Z,71725,-0.020831725,0.04326463,0.032560065
1732439026157,2024-11-24T09:03:46.157Z,71728,-0.020831725,0.04326463,0.032560065
1732439026165,2024-11-24T09:03:46.165Z,71736,-0.009497066,0.03539282,0.040229555
1732439026167,2024-11-24T09:03:46.167Z,71738,-0.009497066,0.03539282,0.040229555
1732439026174,2024-11-24T09:03:46.174Z,71745,-0.0029217347,0.025988966,0.07065345
1732439026176,2024-11-24T09:03:46.176Z,71747,-0.0029217347,0.025988966,0.07065345
1732439026183,2024-11-24T09:03:46.183Z,71754,0.07718272,-0.0012678185,0.07869451
1732439026185,2024-11-24T09:03:46.185Z,71756,0.07718272,-0.0012678185,0.07869451
1732439026192,2024-11-24T09:03:46.192Z,71763,0.037374824,0.025987798,0.0054971217
1732439026195,2024-11-24T09:03:46.195Z,71766,0.037374824,0.025987798,0.0054971217
1732439026202,2024-11-24T09:03:46.202Z,71773,0.0068880315,-0.024978854,0.01813293
1732439026204,2024-11-24T09:03:46.204Z,71775,0.0068880315,-0.024978854,0.01813293
1732439026211,2024-11-24T09:03:46.211Z,71782,0.009847644,-0.033306662,0.018756604
1732439026214,2024-11-24T09:03:46.214Z,71785,0.009847644,-0.033306662,0.018756604
1732439026223,2024-11-24T09:03:46.223Z,71794,-0.053795297,-0.04066958,-0.0043052537
1732439026226,2024-11-24T09:03:46.226Z,71797,-0.053795297,-0.04066958,-0.0043052537
1732439026235,2024-11-24T09:03:46.235Z,71806,-0.06560547,-0.05197832,-0.016646354
1732439026237,2024-11-24T09:03:46.237Z,71808,-0.06560547,-0.05197832,-0.016646354
1732439026245,2024-11-24T09:03:46.245Z,71816,-0.063726135,-0.0542545,-0.020513456
1732439026247,2024-11-24T09:03:46.247Z,71818,-0.063726135,-0.0542545,-0.020513456
1732439026267,2024-11-24T09:03:46.267Z,71838,-0.031125395,-0.067272566,-0.024883648
1732439026274,2024-11-24T09:03:46.274Z,71845,-0.031125395,-0.067272566,-0.024883648
1732439026295,2024-11-24T09:03:46.295Z,71866,-0.013724279,-0.073002696,-0.020988658
1732439026300,2024-11-24T09:03:46.300Z,71871,-0.013724279,-0.073002696,-0.020988658
1732439026319,2024-11-24T09:03:46.319Z,71890,-0.014729626,-0.06573469,-0.01269902
1732439026324,2024-11-24T09:03:46.324Z,71895,-0.014729626,-0.06573469,-0.01269902
1732439026343,2024-11-24T09:03:46.343Z,71914,-0.010722655,-0.059054065,-0.028704291
1732439026349,2024-11-24T09:03:46.349Z,71920,-0.010722655,-0.059054065,-0.028704291
1732439026367,2024-11-24T09:03:46.367Z,71938,-0.011654506,-0.033570006,0.0074981633
1732439026372,2024-11-24T09:03:46.372Z,71943,-0.011654506,-0.033570006,0.0074981633
1732439026384,2024-11-24T09:03:46.384Z,71955,-0.012929448,-0.029527713,-0.0062705814
1732439026388,2024-11-24T09:03:46.388Z,71959,-0.012929448,-0.029527713,-0.0062705814
1732439026403,2024-11-24T09:03:46.403Z,71974,0.010484033,-0.026102453,-0.004832263
1732439026409,2024-11-24T09:03:46.409Z,71980,0.010484033,-0.026102453,-0.004832263
1732439026428,2024-11-24T09:03:46.428Z,71999,-0.035797175,-0.008669342,-0.012038999
1732439026433,2024-11-24T09:03:46.433Z,72004,-0.035797175,-0.008669342,-0.012038999
1732439026451,2024-11-24T09:03:46.451Z,72022,0.0046663345,-5.2474864E-4,-0.032176036
1732439026455,2024-11-24T09:03:46.455Z,72026,0.0046663345,-5.2474864E-4,-0.032176036
1732439026473,2024-11-24T09:03:46.473Z,72044,0.0075910836,0.015428447,-0.07437396
1732439026478,2024-11-24T09:03:46.478Z,72049,0.0075910836,0.015428447,-0.07437396
1732439026494,2024-11-24T09:03:46.494Z,72065,-0.059456524,-0.03449989,-0.042481523
1732439026497,2024-11-24T09:03:46.497Z,72068,-0.059456524,-0.03449989,-0.042481523
1732439026508,2024-11-24T09:03:46.508Z,72079,-0.09274072,-0.024979243,-0.03956419
1732439026512,2024-11-24T09:03:46.512Z,72083,-0.09274072,-0.024979243,-0.03956419
1732439026522,2024-11-24T09:03:46.522Z,72093,-0.08030913,-0.045215033,-0.06435808
1732439026525,2024-11-24T09:03:46.525Z,72096,-0.08030913,-0.045215033,-0.06435808
1732439026536,2024-11-24T09:03:46.536Z,72107,6.438285E-4,-0.03157458,-0.03451331
1732439026539,2024-11-24T09:03:46.539Z,72110,6.438285E-4,-0.03157458,-0.03451331
1732439026549,2024-11-24T09:03:46.549Z,72120,-0.1050276,-0.04907217,-0.047050923
1732439026552,2024-11-24T09:03:46.552Z,72123,-0.1050276,-0.04907217,-0.047050923
1732439026564,2024-11-24T09:03:46.564Z,72135,-0.01833005,-0.028032238,-0.047184493
1732439026570,2024-11-24T09:03:46.570Z,72141,-0.01833005,-0.028032238,-0.047184493
1732439026590,2024-11-24T09:03:46.590Z,72161,-0.0120405555,-0.040718105,-0.018448304
1732439026596,2024-11-24T09:03:46.596Z,72167,-0.0120405555,-0.040718105,-0.018448304
1732439026611,2024-11-24T09:03:46.611Z,72182,-0.0054461393,-0.03484823,-0.026200771
1732439026619,2024-11-24T09:03:46.619Z,72190,-0.0054461393,-0.03484823,-0.026200771
1732439026631,2024-11-24T09:03:46.631Z,72202,-0.012415421,-0.03187498,-0.028763833
1732439026635,2024-11-24T09:03:46.635Z,72206,-0.012415421,-0.03187498,-0.028763833
1732439026643,2024-11-24T09:03:46.643Z,72214,-0.007999063,-0.041465744,-0.037299335
1732439026645,2024-11-24T09:03:46.645Z,72216,-0.007999063,-0.041465744,-0.037299335
1732439026653,2024-11-24T09:03:46.653Z,72224,-0.014395555,-0.035416353,-0.035465512
1732439026655,2024-11-24T09:03:46.655Z,72226,-0.014395555,-0.035416353,-0.035465512
1732439026662,2024-11-24T09:03:46.662Z,72233,-0.012859575,-0.04058468,-0.045482196
1732439026665,2024-11-24T09:03:46.665Z,72236,-0.012859575,-0.04058468,-0.045482196
1732439026672,2024-11-24T09:03:46.672Z,72243,-0.027555505,-0.021085445,-0.08493817
1732439026674,2024-11-24T09:03:46.674Z,72245,-0.027555505,-0.021085445,-0.08493817
1732439026682,2024-11-24T09:03:46.682Z,72253,-0.015423779,-0.027111787,-0.08189125
1732439026685,2024-11-24T09:03:46.685Z,72256,-0.015423779,-0.027111787,-0.08189125
1732439026692,2024-11-24T09:03:46.692Z,72263,-0.017057005,-0.025747597,-0.08677769
1732439026694,2024-11-24T09:03:46.694Z,72265,-0.017057005,-0.025747597,-0.08677769
1732439026701,2024-11-24T09:03:46.701Z,72272,-0.03796614,-0.024388269,-0.043130796
1732439026703,2024-11-24T09:03:46.703Z,72274,-0.03796614,-0.024388269,-0.043130796
1732439026710,2024-11-24T09:03:46.710Z,72281,-0.039867576,-0.030253569,-0.067628615
1732439026713,2024-11-24T09:03:46.713Z,72284,-0.039867576,-0.030253569,-0.067628615
1732439026720,2024-11-24T09:03:46.720Z,72291,-0.011341903,-0.045901213,-0.04142242
1732439026721,2024-11-24T09:03:46.721Z,72292,-0.011341903,-0.045901213,-0.04142242
1732439026728,2024-11-24T09:03:46.728Z,72299,-0.035788763,-0.047844514,-0.04342349
1732439026730,2024-11-24T09:03:46.730Z,72301,-0.035788763,-0.047844514,-0.04342349
1732439026737,2024-11-24T09:03:46.737Z,72308,-0.053569853,-0.050854914,-0.04202762
1732439026739,2024-11-24T09:03:46.739Z,72310,-0.053569853,-0.050854914,-0.04202762
1732439026748,2024-11-24T09:03:46.748Z,72319,-0.01722104,-0.061597772,-0.014940726
1732439026751,2024-11-24T09:03:46.751Z,72322,-0.01722104,-0.061597772,-0.014940726
1732439026758,2024-11-24T09:03:46.758Z,72329,-0.0034959582,-0.057089467,0.0014760015
1732439026760,2024-11-24T09:03:46.760Z,72331,-0.0034959582,-0.057089467,0.0014760015
1732439026768,2024-11-24T09:03:46.768Z,72339,8.6258724E-4,-0.05512613,0.0042966227
1732439026771,2024-11-24T09:03:46.771Z,72342,8.6258724E-4,-0.05512613,0.0042966227
1732439026778,2024-11-24T09:03:46.778Z,72349,-9.9727535E-5,-0.054645825,-0.015335722
1732439026781,2024-11-24T09:03:46.781Z,72352,-9.9727535E-5,-0.054645825,-0.015335722
1732439026790,2024-11-24T09:03:46.790Z,72361,-2.3679818E-4,-0.06540638,-0.011016294
1732439026792,2024-11-24T09:03:46.792Z,72363,-2.3679818E-4,-0.06540638,-0.011016294
1732439026800,2024-11-24T09:03:46.800Z,72371,9.053762E-5,-0.08054114,-0.01834527
1732439026803,2024-11-24T09:03:46.803Z,72374,9.053762E-5,-0.08054114,-0.01834527
1732439026811,2024-11-24T09:03:46.811Z,72382,-0.0054537007,-0.083447196,-0.0106002195
1732439026814,2024-11-24T09:03:46.814Z,72385,-0.0054537007,-0.083447196,-0.0106002195
1732439026821,2024-11-24T09:03:46.821Z,72392,-0.026330426,-0.10155307,-0.044154134
1732439026823,2024-11-24T09:03:46.823Z,72394,-0.026330426,-0.10155307,-0.044154134
1732439026830,2024-11-24T09:03:46.830Z,72401,-0.020222127,-0.08545001,-0.007946597
1732439026832,2024-11-24T09:03:46.832Z,72403,-0.020222127,-0.08545001,-0.007946597
1732439026840,2024-11-24T09:03:46.840Z,72411,-0.014600164,-0.08354872,0.04010496
1732439026842,2024-11-24T09:03:46.842Z,72413,-0.014600164,-0.08354872,0.04010496
1732439026850,2024-11-24T09:03:46.850Z,72421,-0.023857296,-0.061204795,0.016369926
1732439026853,2024-11-24T09:03:46.853Z,72424,-0.023857296,-0.061204795,0.016369926
1732439026859,2024-11-24T09:03:46.859Z,72430,-0.033610974,-0.067794204,-0.032527927
1732439026861,2024-11-24T09:03:46.861Z,72432,-0.033610974,-0.067794204,-0.032527927
1732439026868,2024-11-24T09:03:46.868Z,72439,-0.018357402,-0.06550732,0.0062665455
1732439026870,2024-11-24T09:03:46.870Z,72441,-0.018357402,-0.06550732,0.0062665455
1732439026877,2024-11-24T09:03:46.877Z,72448,-0.021668274,-0.08222489,-0.0019305616
1732439026880,2024-11-24T09:03:46.880Z,72451,-0.021668274,-0.08222489,-0.0019305616
1732439026942,2024-11-24T09:03:46.942Z,72513,-0.023798632,-0.08328343,-0.0014085115
1732439026947,2024-11-24T09:03:46.947Z,72518,-0.023798632,-0.08328343,-0.0014085115
1732439026960,2024-11-24T09:03:46.960Z,72531,-0.017731346,-0.08873698,-5.3184776E-4
1732439026963,2024-11-24T09:03:46.963Z,72534,-0.017731346,-0.08873698,-5.3184776E-4
1732439026973,2024-11-24T09:03:46.973Z,72544,-0.01458774,-0.09566326,-0.013799912
1732439026976,2024-11-24T09:03:46.976Z,72547,-0.01458774,-0.09566326,-0.013799912
1732439026987,2024-11-24T09:03:46.987Z,72558,0.025927577,-0.090676785,0.0064473534
1732439026990,2024-11-24T09:03:46.990Z,72561,0.025927577,-0.090676785,0.0064473534
1732439027034,2024-11-24T09:03:47.034Z,72605,0.031598944,-0.092239454,0.019886794
1732439027039,2024-11-24T09:03:47.039Z,72610,0.031598944,-0.092239454,0.019886794
1732439027054,2024-11-24T09:03:47.054Z,72625,0.083762616,-0.09874757,0.04662476
1732439027058,2024-11-24T09:03:47.058Z,72629,0.083762616,-0.09874757,0.04662476
1732439027082,2024-11-24T09:03:47.082Z,72653,0.11237303,-0.09793652,0.04084387
1732439027088,2024-11-24T09:03:47.088Z,72659,0.11237303,-0.09793652,0.04084387
1732439027109,2024-11-24T09:03:47.109Z,72680,0.08362569,-0.10060626,0.039839275
1732439027116,2024-11-24T09:03:47.116Z,72687,0.08362569,-0.10060626,0.039839275
1732439027136,2024-11-24T09:03:47.136Z,72707,0.04876239,-0.08517791,0.042357143
1732439027141,2024-11-24T09:03:47.141Z,72712,0.04876239,-0.08517791,0.042357143
1732439027159,2024-11-24T09:03:47.159Z,72730,0.046185177,-0.08814231,0.059193224
1732439027165,2024-11-24T09:03:47.165Z,72736,0.046185177,-0.08814231,0.059193224
1732439027182,2024-11-24T09:03:47.182Z,72753,0.0474351,-0.088970475,0.014562967
1732439027189,2024-11-24T09:03:47.189Z,72760,0.0474351,-0.088970475,0.014562967
1732439027206,2024-11-24T09:03:47.206Z,72777,0.05096715,-0.064540684,2.5481332E-4
1732439027212,2024-11-24T09:03:47.212Z,72783,0.05096715,-0.064540684,2.5481332E-4
1732439027231,2024-11-24T09:03:47.231Z,72802,0.06755575,-0.0644942,0.037702113
1732439027236,2024-11-24T09:03:47.236Z,72807,0.06755575,-0.0644942,0.037702113
1732439027256,2024-11-24T09:03:47.256Z,72827,0.059564676,-0.052721,0.03237503
1732439027263,2024-11-24T09:03:47.263Z,72834,0.059564676,-0.052721,0.03237503
1732439027277,2024-11-24T09:03:47.277Z,72848,0.060424514,-0.044771973,0.02711439
1732439027287,2024-11-24T09:03:47.287Z,72858,0.060424514,-0.044771973,0.02711439
1732439027299,2024-11-24T09:03:47.299Z,72870,0.052721743,-0.020137278,0.034471326
1732439027301,2024-11-24T09:03:47.301Z,72872,0.052721743,-0.020137278,0.034471326
1732439027308,2024-11-24T09:03:47.308Z,72879,0.08515225,0.011849148,0.08567373
1732439027310,2024-11-24T09:03:47.310Z,72881,0.08515225,0.011849148,0.08567373
1732439027317,2024-11-24T09:03:47.317Z,72888,0.045700055,0.04638473,0.030545168
1732439027319,2024-11-24T09:03:47.319Z,72890,0.045700055,0.04638473,0.030545168
1732439027326,2024-11-24T09:03:47.326Z,72897,0.022739323,0.051174663,0.0066163456
1732439027328,2024-11-24T09:03:47.328Z,72899,0.022739323,0.051174663,0.0066163456
1732439027336,2024-11-24T09:03:47.336Z,72907,0.024992334,0.07753988,0.015391736
1732439027338,2024-11-24T09:03:47.338Z,72909,0.024992334,0.07753988,0.015391736
1732439027346,2024-11-24T09:03:47.346Z,72917,0.060491506,0.115293,0.09652892
1732439027348,2024-11-24T09:03:47.348Z,72919,0.060491506,0.115293,0.09652892
1732439027355,2024-11-24T09:03:47.355Z,72926,0.060976505,0.09154083,0.057838686
1732439027357,2024-11-24T09:03:47.357Z,72928,0.060976505,0.09154083,0.057838686
1732439027363,2024-11-24T09:03:47.363Z,72934,0.04108959,0.11355956,0.010288054
1732439027365,2024-11-24T09:03:47.365Z,72936,0.04108959,0.11355956,0.010288054
1732439027373,2024-11-24T09:03:47.373Z,72944,0.043992545,0.10709677,0.023967428
1732439027375,2024-11-24T09:03:47.375Z,72946,0.043992545,0.10709677,0.023967428
1732439027387,2024-11-24T09:03:47.387Z,72958,0.0644016,0.09383889,0.03606264
1732439027392,2024-11-24T09:03:47.392Z,72963,0.0644016,0.09383889,0.03606264
1732439027407,2024-11-24T09:03:47.407Z,72978,0.02366883,0.11982261,-0.014695759
1732439027413,2024-11-24T09:03:47.413Z,72984,0.02366883,0.11982261,-0.014695759
1732439027432,2024-11-24T09:03:47.432Z,73003,-0.048764247,0.15708195,0.024342148
1732439027436,2024-11-24T09:03:47.436Z,73007,-0.048764247,0.15708195,0.024342148
1732439027445,2024-11-24T09:03:47.445Z,73016,-0.10672662,0.15958025,-0.03956448
1732439027449,2024-11-24T09:03:47.449Z,73020,-0.10672662,0.15958025,-0.03956448
1732439027458,2024-11-24T09:03:47.458Z,73029,-0.042378522,0.13815331,-0.032895938
1732439027461,2024-11-24T09:03:47.461Z,73032,-0.042378522,0.13815331,-0.032895938
1732439027470,2024-11-24T09:03:47.470Z,73041,-0.01901042,0.13367262,0.04687019
1732439027472,2024-11-24T09:03:47.472Z,73043,-0.01901042,0.13367262,0.04687019
1732439027480,2024-11-24T09:03:47.480Z,73051,-0.08334064,0.14628634,0.047282156
1732439027483,2024-11-24T09:03:47.483Z,73054,-0.08334064,0.14628634,0.047282156
1732439027490,2024-11-24T09:03:47.490Z,73061,-0.06304864,0.12086111,-0.0020045184
1732439027492,2024-11-24T09:03:47.492Z,73063,-0.06304864,0.12086111,-0.0020045184
1732439027500,2024-11-24T09:03:47.500Z,73071,-0.045139022,0.06914225,-0.0986014
1732439027504,2024-11-24T09:03:47.504Z,73075,-0.045139022,0.06914225,-0.0986014
1732439027519,2024-11-24T09:03:47.519Z,73090,-0.018161181,0.0012591634,-0.0047932914
1732439027524,2024-11-24T09:03:47.524Z,73095,-0.018161181,0.0012591634,-0.0047932914
1732439027539,2024-11-24T09:03:47.539Z,73110,-0.009865842,-0.0022684974,0.036704216
1732439027542,2024-11-24T09:03:47.542Z,73113,-0.009865842,-0.0022684974,0.036704216
1732439027551,2024-11-24T09:03:47.551Z,73122,-0.07511653,0.026013277,-0.007924777
1732439027554,2024-11-24T09:03:47.554Z,73125,-0.07511653,0.026013277,-0.007924777
1732439027563,2024-11-24T09:03:47.563Z,73134,-0.014769484,-0.0034443196,-0.063485034
1732439027566,2024-11-24T09:03:47.566Z,73137,-0.014769484,-0.0034443196,-0.063485034
1732439027574,2024-11-24T09:03:47.574Z,73145,-0.028488304,-0.013814622,-0.031827256
1732439027576,2024-11-24T09:03:47.576Z,73147,-0.028488304,-0.013814622,-0.031827256
1732439027585,2024-11-24T09:03:47.585Z,73156,-0.08476651,0.001841191,-0.12117076
1732439027588,2024-11-24T09:03:47.588Z,73159,-0.08476651,0.001841191,-0.12117076
1732439027595,2024-11-24T09:03:47.595Z,73166,-0.05598303,0.040237896,0.046860684
1732439027597,2024-11-24T09:03:47.597Z,73168,-0.05598303,0.040237896,0.046860684
1732439027604,2024-11-24T09:03:47.604Z,73175,-0.11672621,0.023849225,0.025001489
1732439027606,2024-11-24T09:03:47.606Z,73177,-0.11672621,0.023849225,0.025001489
1732439027614,2024-11-24T09:03:47.614Z,73185,-0.05819246,0.09967268,0.09748934
1732439027616,2024-11-24T09:03:47.616Z,73187,-0.05819246,0.09967268,0.09748934
1732439027623,2024-11-24T09:03:47.623Z,73194,-0.01709244,0.26174396,0.06518835
1732439027625,2024-11-24T09:03:47.625Z,73196,-0.01709244,0.26174396,0.06518835
1732439027631,2024-11-24T09:03:47.631Z,73202,-0.0786366,0.23853862,-0.064167716
1732439027634,2024-11-24T09:03:47.634Z,73205,-0.0786366,0.23853862,-0.064167716
1732439027641,2024-11-24T09:03:47.641Z,73212,0.048689816,0.24734606,0.008751091
1732439027643,2024-11-24T09:03:47.643Z,73214,0.048689816,0.24734606,0.008751091
1732439027660,2024-11-24T09:03:47.660Z,73231,0.014639938,0.39468917,-0.001426314
1732439027663,2024-11-24T09:03:47.663Z,73234,0.014639938,0.39468917,-0.001426314
1732439027712,2024-11-24T09:03:47.712Z,73283,8.0958725E-6,0.34956333,-0.053253114
1732439027718,2024-11-24T09:03:47.718Z,73289,8.0958725E-6,0.34956333,-0.053253114
1732439027736,2024-11-24T09:03:47.736Z,73307,-2.4618258E-4,0.276516,-0.1266253
1732439027741,2024-11-24T09:03:47.741Z,73312,-2.4618258E-4,0.276516,-0.1266253
1732439027756,2024-11-24T09:03:47.756Z,73327,0.053488657,0.26844764,0.03562301
1732439027760,2024-11-24T09:03:47.760Z,73331,0.053488657,0.26844764,0.03562301
1732439027771,2024-11-24T09:03:47.771Z,73342,-0.064635985,0.21326545,-0.023915954
1732439027775,2024-11-24T09:03:47.775Z,73346,-0.064635985,0.21326545,-0.023915954
1732439027786,2024-11-24T09:03:47.786Z,73357,-0.092988946,0.1438563,-0.096075386
1732439027789,2024-11-24T09:03:47.789Z,73360,-0.092988946,0.1438563,-0.096075386
1732439027799,2024-11-24T09:03:47.799Z,73370,-0.101877436,0.087270096,-0.08331007
1732439027803,2024-11-24T09:03:47.803Z,73374,-0.101877436,0.087270096,-0.08331007
1732439027812,2024-11-24T09:03:47.812Z,73383,-0.1655987,0.075635575,-0.12902127
1732439027815,2024-11-24T09:03:47.815Z,73386,-0.1655987,0.075635575,-0.12902127
1732439027823,2024-11-24T09:03:47.823Z,73394,-0.08170992,0.045495983,-0.0033454977
1732439027826,2024-11-24T09:03:47.826Z,73397,-0.08170992,0.045495983,-0.0033454977
1732439027833,2024-11-24T09:03:47.833Z,73404,-0.062908076,0.057771463,-0.033233196
1732439027836,2024-11-24T09:03:47.836Z,73407,-0.062908076,0.057771463,-0.033233196
1732439027846,2024-11-24T09:03:47.846Z,73417,-0.07994494,0.046640005,-0.058858875
1732439027849,2024-11-24T09:03:47.849Z,73420,-0.07994494,0.046640005,-0.058858875
1732439027856,2024-11-24T09:03:47.856Z,73427,-0.013894535,0.07404023,0.005985372
1732439027858,2024-11-24T09:03:47.858Z,73429,-0.013894535,0.07404023,0.005985372
1732439027864,2024-11-24T09:03:47.864Z,73435,-0.03947342,0.06175502,-0.050851643
1732439027866,2024-11-24T09:03:47.866Z,73437,-0.03947342,0.06175502,-0.050851643
1732439027873,2024-11-24T09:03:47.873Z,73444,0.05740451,0.034764793,-0.044533793
1732439027875,2024-11-24T09:03:47.875Z,73446,0.05740451,0.034764793,-0.044533793
1732439027885,2024-11-24T09:03:47.885Z,73456,0.022921791,0.058728285,-0.0022148835
1732439027888,2024-11-24T09:03:47.888Z,73459,0.022921791,0.058728285,-0.0022148835
1732439027896,2024-11-24T09:03:47.896Z,73467,0.0060317894,0.035211746,-0.04280854
1732439027899,2024-11-24T09:03:47.899Z,73470,0.0060317894,0.035211746,-0.04280854
1732439027912,2024-11-24T09:03:47.912Z,73483,0.015775062,0.012219564,-0.019088961
1732439027914,2024-11-24T09:03:47.914Z,73485,0.015775062,0.012219564,-0.019088961
1732439027931,2024-11-24T09:03:47.931Z,73502,-0.024658144,-0.022512166,-0.074379504
1732439027933,2024-11-24T09:03:47.933Z,73504,-0.024658144,-0.022512166,-0.074379504
1732439027940,2024-11-24T09:03:47.940Z,73511,0.016666373,-0.051348932,-0.046696786
1732439027942,2024-11-24T09:03:47.942Z,73513,0.016666373,-0.051348932,-0.046696786
1732439027950,2024-11-24T09:03:47.950Z,73521,0.0042512203,-0.03184707,-0.030659592
1732439027952,2024-11-24T09:03:47.952Z,73523,0.0042512203,-0.03184707,-0.030659592
1732439027977,2024-11-24T09:03:47.977Z,73548,-0.027316263,-0.011761041,-0.015403339
1732439027980,2024-11-24T09:03:47.980Z,73551,-0.027316263,-0.011761041,-0.015403339
1732439027989,2024-11-24T09:03:47.989Z,73560,-0.026715467,-0.0048331143,0.004878097
1732439027991,2024-11-24T09:03:47.991Z,73562,-0.026715467,-0.0048331143,0.004878097
1732439028067,2024-11-24T09:03:48.067Z,73638,-0.0065600146,0.006975384,-0.008061708
1732439028070,2024-11-24T09:03:48.070Z,73641,-0.0065600146,0.006975384,-0.008061708
1732439028078,2024-11-24T09:03:48.078Z,73649,0.0064049046,-0.0030221671,0.03752046
1732439028081,2024-11-24T09:03:48.081Z,73652,0.0064049046,-0.0030221671,0.03752046
1732439028088,2024-11-24T09:03:48.088Z,73659,0.0052298727,0.032280505,0.05991449
1732439028090,2024-11-24T09:03:48.090Z,73661,0.0052298727,0.032280505,0.05991449
1732439028110,2024-11-24T09:03:48.110Z,73681,-0.03844095,0.03389958,0.033838026
1732439028113,2024-11-24T09:03:48.113Z,73684,-0.03844095,0.03389958,0.033838026
1732439028121,2024-11-24T09:03:48.121Z,73692,0.0147506185,0.044872526,0.016311044
1732439028124,2024-11-24T09:03:48.124Z,73695,0.0147506185,0.044872526,0.016311044
1732439028133,2024-11-24T09:03:48.133Z,73704,-0.020809978,0.05033464,-0.0064218985
1732439028136,2024-11-24T09:03:48.136Z,73707,-0.020809978,0.05033464,-0.0064218985
1732439028145,2024-11-24T09:03:48.145Z,73716,-0.004503396,0.03332465,0.03231939
1732439028147,2024-11-24T09:03:48.147Z,73718,-0.004503396,0.03332465,0.03231939
1732439028155,2024-11-24T09:03:48.155Z,73726,0.0016220675,0.04364361,0.045288943
1732439028157,2024-11-24T09:03:48.157Z,73728,0.0016220675,0.04364361,0.045288943
1732439028165,2024-11-24T09:03:48.165Z,73736,-0.022619952,0.028748855,-0.002889254
1732439028167,2024-11-24T09:03:48.167Z,73738,-0.022619952,0.028748855,-0.002889254
1732439028175,2024-11-24T09:03:48.175Z,73746,-0.012526369,0.019993644,-0.0031814042
1732439028177,2024-11-24T09:03:48.177Z,73748,-0.012526369,0.019993644,-0.0031814042
1732439028184,2024-11-24T09:03:48.184Z,73755,-0.014517661,0.0136675825,-0.0049810736
1732439028186,2024-11-24T09:03:48.186Z,73757,-0.014517661,0.0136675825,-0.0049810736
1732439028200,2024-11-24T09:03:48.200Z,73771,-0.0063205543,0.022532975,0.021092707
1732439028202,2024-11-24T09:03:48.202Z,73773,-0.0063205543,0.022532975,0.021092707
1732439028209,2024-11-24T09:03:48.209Z,73780,-0.01398027,0.03376509,0.024609054
1732439028211,2024-11-24T09:03:48.211Z,73782,-0.01398027,0.03376509,0.024609054
1732439028220,2024-11-24T09:03:48.220Z,73791,-0.011230604,0.047894984,0.0020264934
1732439028223,2024-11-24T09:03:48.223Z,73794,-0.011230604,0.047894984,0.0020264934
1732439028246,2024-11-24T09:03:48.246Z,73817,-0.0072837444,0.050696693,0.006586846
1732439028248,2024-11-24T09:03:48.248Z,73819,-0.0072837444,0.050696693,0.006586846
1732439028260,2024-11-24T09:03:48.260Z,73831,-0.012161957,0.06624825,0.023489144
1732439028265,2024-11-24T09:03:48.265Z,73836,-0.012161957,0.06624825,0.023489144
1732439028280,2024-11-24T09:03:48.280Z,73851,-0.01893673,0.07153425,0.014117029
1732439028285,2024-11-24T09:03:48.285Z,73856,-0.01893673,0.07153425,0.014117029
1732439028304,2024-11-24T09:03:48.304Z,73875,-0.034262523,0.102412544,0.030233616
1732439028309,2024-11-24T09:03:48.309Z,73880,-0.034262523,0.102412544,0.030233616
1732439028325,2024-11-24T09:03:48.325Z,73896,-0.015905544,0.1065835,0.015410836
1732439028331,2024-11-24T09:03:48.331Z,73902,-0.015905544,0.1065835,0.015410836
1732439028348,2024-11-24T09:03:48.348Z,73919,-0.0035697813,0.102880985,-0.02448923
1732439028353,2024-11-24T09:03:48.353Z,73924,-0.0035697813,0.102880985,-0.02448923
1732439028369,2024-11-24T09:03:48.369Z,73940,-0.0054624043,0.10214949,0.010267882
1732439028372,2024-11-24T09:03:48.372Z,73943,-0.0054624043,0.10214949,0.010267882
1732439028384,2024-11-24T09:03:48.384Z,73955,-0.051145077,0.124181636,-0.0048786746
1732439028387,2024-11-24T09:03:48.387Z,73958,-0.051145077,0.124181636,-0.0048786746
1732439028398,2024-11-24T09:03:48.398Z,73969,-0.0704265,0.11200243,-0.021727687
1732439028401,2024-11-24T09:03:48.401Z,73972,-0.0704265,0.11200243,-0.021727687
1732439028410,2024-11-24T09:03:48.410Z,73981,-0.0069975685,0.120698415,0.015627883
1732439028413,2024-11-24T09:03:48.413Z,73984,-0.0069975685,0.120698415,0.015627883
1732439028422,2024-11-24T09:03:48.422Z,73993,-0.014467737,0.13909447,0.042127956
1732439028424,2024-11-24T09:03:48.424Z,73995,-0.014467737,0.13909447,0.042127956
1732439028433,2024-11-24T09:03:48.433Z,74004,-0.037374996,0.15545456,0.03293612
1732439028436,2024-11-24T09:03:48.436Z,74007,-0.037374996,0.15545456,0.03293612
1732439028443,2024-11-24T09:03:48.443Z,74014,-0.008351609,0.16976456,0.03357467
1732439028446,2024-11-24T09:03:48.446Z,74017,-0.008351609,0.16976456,0.03357467
1732439028453,2024-11-24T09:03:48.453Z,74024,-0.07059089,0.16969055,-0.023557609
1732439028456,2024-11-24T09:03:48.456Z,74027,-0.07059089,0.16969055,-0.023557609
1732439028462,2024-11-24T09:03:48.462Z,74033,-0.03143209,0.15334895,-0.0445042
1732439028464,2024-11-24T09:03:48.464Z,74035,-0.03143209,0.15334895,-0.0445042
1732439028473,2024-11-24T09:03:48.473Z,74044,-5.4863514E-4,0.13205744,-0.022877732
1732439028475,2024-11-24T09:03:48.475Z,74046,-5.4863514E-4,0.13205744,-0.022877732
1732439028483,2024-11-24T09:03:48.483Z,74054,-0.04159799,0.12253932,5.269975E-4
1732439028485,2024-11-24T09:03:48.485Z,74056,-0.04159799,0.12253932,5.269975E-4
1732439028492,2024-11-24T09:03:48.492Z,74063,-0.03885169,0.117230274,0.016443202
1732439028494,2024-11-24T09:03:48.494Z,74065,-0.03885169,0.117230274,0.016443202
1732439028517,2024-11-24T09:03:48.517Z,74088,-0.03804259,0.10503162,-0.023333786
1732439028519,2024-11-24T09:03:48.519Z,74090,-0.03804259,0.10503162,-0.023333786
1732439028526,2024-11-24T09:03:48.526Z,74097,-0.041546766,0.049640194,-0.029401157
1732439028528,2024-11-24T09:03:48.528Z,74099,-0.041546766,0.049640194,-0.029401157
1732439028535,2024-11-24T09:03:48.535Z,74106,-0.02451503,0.04276585,-0.02145196
1732439028537,2024-11-24T09:03:48.537Z,74108,-0.02451503,0.04276585,-0.02145196
1732439028544,2024-11-24T09:03:48.544Z,74115,-0.0051714634,0.044706915,3.7678628E-4
1732439028545,2024-11-24T09:03:48.545Z,74116,-0.0051714634,0.044706915,3.7678628E-4
1732439028561,2024-11-24T09:03:48.561Z,74132,-0.010208008,0.07552744,0.038370825
1732439028563,2024-11-24T09:03:48.563Z,74134,-0.010208008,0.07552744,0.038370825
1732439028571,2024-11-24T09:03:48.571Z,74142,-0.0570979,0.07707358,-0.024522336
1732439028574,2024-11-24T09:03:48.574Z,74145,-0.0570979,0.07707358,-0.024522336
1732439028581,2024-11-24T09:03:48.581Z,74152,-0.036825497,0.038100194,-0.024888668
1732439028583,2024-11-24T09:03:48.583Z,74154,-0.036825497,0.038100194,-0.024888668
1732439028605,2024-11-24T09:03:48.605Z,74176,0.011605931,0.052494317,0.019770011
1732439028608,2024-11-24T09:03:48.608Z,74179,0.011605931,0.052494317,0.019770011
1732439028615,2024-11-24T09:03:48.615Z,74186,-0.0052399985,0.049753487,0.00515594
1732439028617,2024-11-24T09:03:48.617Z,74188,-0.0052399985,0.049753487,0.00515594
1732439028625,2024-11-24T09:03:48.625Z,74196,-0.021881538,0.045629796,-0.03310481
1732439028628,2024-11-24T09:03:48.628Z,74199,-0.021881538,0.045629796,-0.03310481
1732439028745,2024-11-24T09:03:48.745Z,74316,0.03377233,0.05331674,0.013144743
1732439028751,2024-11-24T09:03:48.751Z,74322,0.03377233,0.05331674,0.013144743
1732439028768,2024-11-24T09:03:48.768Z,74339,-0.008162779,0.04460169,-0.043382715
1732439028773,2024-11-24T09:03:48.773Z,74344,-0.008162779,0.04460169,-0.043382715
1732439028786,2024-11-24T09:03:48.786Z,74357,-0.0065785646,0.016426014,-0.029076021
1732439028789,2024-11-24T09:03:48.789Z,74360,-0.0065785646,0.016426014,-0.029076021
1732439028800,2024-11-24T09:03:48.800Z,74371,0.017267913,0.025601726,0.046273258
1732439028803,2024-11-24T09:03:48.803Z,74374,0.017267913,0.025601726,0.046273258
1732439028812,2024-11-24T09:03:48.812Z,74383,-0.0069028614,0.0045239637,-0.0129834935
1732439028815,2024-11-24T09:03:48.815Z,74386,-0.0069028614,0.0045239637,-0.0129834935
1732439028824,2024-11-24T09:03:48.824Z,74395,-0.013164982,0.0049007987,-0.023667347
1732439028827,2024-11-24T09:03:48.827Z,74398,-0.013164982,0.0049007987,-0.023667347
1732439028837,2024-11-24T09:03:48.837Z,74408,0.034069546,0.039035037,0.025092147
1732439028839,2024-11-24T09:03:48.839Z,74410,0.034069546,0.039035037,0.025092147
1732439028848,2024-11-24T09:03:48.848Z,74419,0.03536707,0.0114406105,-0.020961259
1732439028850,2024-11-24T09:03:48.850Z,74421,0.03536707,0.0114406105,-0.020961259
1732439028861,2024-11-24T09:03:48.861Z,74432,0.024814492,0.0024405287,-0.039712273
1732439028865,2024-11-24T09:03:48.865Z,74436,0.024814492,0.0024405287,-0.039712273
1732439028883,2024-11-24T09:03:48.883Z,74454,0.04953435,0.071524724,-0.016002718
1732439028887,2024-11-24T09:03:48.887Z,74458,0.04953435,0.071524724,-0.016002718
1732439028900,2024-11-24T09:03:48.900Z,74471,0.032808766,0.0796449,-0.02568266
1732439028904,2024-11-24T09:03:48.904Z,74475,0.032808766,0.0796449,-0.02568266
