Timestamp (ms),ISO DateTime,Elapsed Time (ms),Acceleration X,Acceleration Y,Acceleration Z
1732438856852,2024-11-24T09:00:56.852Z,64674,0.027253794,0.038454276,-0.527689
1732438856860,2024-11-24T09:00:56.860Z,64682,0.027253794,0.038454276,-0.527689
1732438856884,2024-11-24T09:00:56.884Z,64706,0.030143315,0.04062747,-0.5133742
1732438856891,2024-11-24T09:00:56.891Z,64713,0.030143315,0.04062747,-0.5133742
1732438856914,2024-11-24T09:00:56.914Z,64736,0.025137464,0.042039894,-0.4993796
1732438856921,2024-11-24T09:00:56.921Z,64743,0.025137464,0.042039894,-0.4993796
1732438856941,2024-11-24T09:00:56.941Z,64763,0.022977227,0.04514657,-0.48281258
1732438856947,2024-11-24T09:00:56.947Z,64769,0.022977227,0.04514657,-0.48281258
1732438856965,2024-11-24T09:00:56.965Z,64787,0.01933496,0.053839933,-0.4646951
1732438856968,2024-11-24T09:00:56.968Z,64790,0.01933496,0.053839933,-0.4646951
1732438856982,2024-11-24T09:00:56.982Z,64804,0.0084908195,0.05782806,-0.44845152
1732438856987,2024-11-24T09:00:56.987Z,64809,0.0084908195,0.05782806,-0.44845152
1732438856999,2024-11-24T09:00:56.999Z,64821,0.010320997,0.05914606,-0.43451864
1732438857003,2024-11-24T09:00:57.003Z,64825,0.010320997,0.05914606,-0.43451864
1732438857014,2024-11-24T09:00:57.014Z,64836,0.02228096,0.06664289,-0.4248332
1732438857017,2024-11-24T09:00:57.017Z,64839,0.02228096,0.06664289,-0.4248332
1732438857029,2024-11-24T09:00:57.029Z,64851,0.02527123,0.06620177,-0.41637143
1732438857032,2024-11-24T09:00:57.032Z,64854,0.02527123,0.06620177,-0.41637143
1732438857047,2024-11-24T09:00:57.047Z,64869,0.030061724,0.070520446,-0.4051502
1732438857051,2024-11-24T09:00:57.051Z,64873,0.030061724,0.070520446,-0.4051502
1732438857065,2024-11-24T09:00:57.065Z,64887,0.023500275,0.07812755,-0.39560002
1732438857068,2024-11-24T09:00:57.068Z,64890,0.023500275,0.07812755,-0.39560002
1732438857079,2024-11-24T09:00:57.079Z,64901,0.030477969,0.07145801,-0.38580385
1732438857083,2024-11-24T09:00:57.083Z,64905,0.030477969,0.07145801,-0.38580385
1732438857097,2024-11-24T09:00:57.097Z,64919,0.020264916,0.070445664,-0.34746206
1732438857101,2024-11-24T09:00:57.101Z,64923,0.020264916,0.070445664,-0.34746206
1732438857115,2024-11-24T09:00:57.115Z,64937,0.017907316,0.067759775,-0.33851716
1732438857119,2024-11-24T09:00:57.119Z,64941,0.017907316,0.067759775,-0.33851716
1732438857131,2024-11-24T09:00:57.131Z,64953,0.022808334,0.06499522,-0.3204315
1732438857135,2024-11-24T09:00:57.135Z,64957,0.022808334,0.06499522,-0.3204315
1732438857148,2024-11-24T09:00:57.148Z,64970,0.021677172,0.0715891,-0.2917979
1732438857153,2024-11-24T09:00:57.153Z,64975,0.021677172,0.0715891,-0.2917979
1732438857167,2024-11-24T09:00:57.167Z,64989,0.016610784,0.06905949,-0.28277442
1732438857171,2024-11-24T09:00:57.171Z,64993,0.016610784,0.06905949,-0.28277442
1732438857183,2024-11-24T09:00:57.183Z,65005,0.020305177,0.06597674,-0.27682164
1732438857190,2024-11-24T09:00:57.190Z,65012,0.020305177,0.06597674,-0.27682164
1732438857202,2024-11-24T09:00:57.202Z,65024,0.02813289,0.06614488,-0.2797807
1732438857207,2024-11-24T09:00:57.207Z,65029,0.02813289,0.06614488,-0.2797807
1732438857219,2024-11-24T09:00:57.219Z,65041,0.02563158,0.07195018,-0.26892695
1732438857222,2024-11-24T09:00:57.222Z,65044,0.02563158,0.07195018,-0.26892695
1732438857235,2024-11-24T09:00:57.235Z,65057,0.027718637,0.062300872,-0.2595723
1732438857239,2024-11-24T09:00:57.239Z,65061,0.027718637,0.062300872,-0.2595723
1732438857252,2024-11-24T09:00:57.252Z,65074,0.009317935,0.060534466,-0.24379691
1732438857256,2024-11-24T09:00:57.256Z,65078,0.009317935,0.060534466,-0.24379691
1732438857269,2024-11-24T09:00:57.269Z,65091,0.011453885,0.05862063,-0.2277367
1732438857273,2024-11-24T09:00:57.273Z,65095,0.011453885,0.05862063,-0.2277367
1732438857287,2024-11-24T09:00:57.287Z,65109,0.015085163,0.057178155,-0.21592715
1732438857292,2024-11-24T09:00:57.292Z,65114,0.015085163,0.057178155,-0.21592715
1732438857306,2024-11-24T09:00:57.306Z,65128,0.01796649,0.056280755,-0.20240289
1732438857311,2024-11-24T09:00:57.311Z,65133,0.01796649,0.056280755,-0.20240289
1732438857325,2024-11-24T09:00:57.325Z,65147,0.023401543,0.05438744,-0.19399944
1732438857329,2024-11-24T09:00:57.329Z,65151,0.023401543,0.05438744,-0.19399944
1732438857342,2024-11-24T09:00:57.342Z,65164,0.015338006,0.056323737,-0.1921254
1732438857347,2024-11-24T09:00:57.347Z,65169,0.015338006,0.056323737,-0.1921254
1732438857360,2024-11-24T09:00:57.360Z,65182,0.023218768,0.050917737,-0.18127503
1732438857364,2024-11-24T09:00:57.364Z,65186,0.023218768,0.050917737,-0.18127503
1732438857377,2024-11-24T09:00:57.377Z,65199,0.031134343,0.05585325,-0.1770543
1732438857381,2024-11-24T09:00:57.381Z,65203,0.031134343,0.05585325,-0.1770543
1732438857393,2024-11-24T09:00:57.393Z,65215,0.027292158,0.05543742,-0.17055154
1732438857397,2024-11-24T09:00:57.397Z,65219,0.027292158,0.05543742,-0.17055154
1732438857412,2024-11-24T09:00:57.412Z,65234,0.024916444,0.050844993,-0.14846215
1732438857416,2024-11-24T09:00:57.416Z,65238,0.024916444,0.050844993,-0.14846215
1732438857435,2024-11-24T09:00:57.435Z,65257,0.023488533,0.049006525,-0.15085861
1732438857445,2024-11-24T09:00:57.445Z,65267,0.023488533,0.049006525,-0.15085861
1732438857471,2024-11-24T09:00:57.471Z,65293,0.012917608,0.046645742,-0.14269522
1732438857478,2024-11-24T09:00:57.478Z,65300,0.012917608,0.046645742,-0.14269522
1732438857494,2024-11-24T09:00:57.494Z,65316,0.017914025,0.043529827,-0.13998464
1732438857497,2024-11-24T09:00:57.497Z,65319,0.017914025,0.043529827,-0.13998464
1732438857509,2024-11-24T09:00:57.509Z,65331,0.014434381,0.04472189,-0.13123372
1732438857514,2024-11-24T09:00:57.514Z,65336,0.014434381,0.04472189,-0.13123372
1732438857528,2024-11-24T09:00:57.528Z,65350,0.015020493,0.039523028,-0.11991966
1732438857533,2024-11-24T09:00:57.533Z,65355,0.015020493,0.039523028,-0.11991966
1732438857548,2024-11-24T09:00:57.548Z,65370,0.013336794,0.03695063,-0.1078454
1732438857552,2024-11-24T09:00:57.552Z,65374,0.013336794,0.03695063,-0.1078454
1732438857565,2024-11-24T09:00:57.565Z,65387,0.0131633775,0.031972423,-0.10577459
1732438857570,2024-11-24T09:00:57.570Z,65392,0.0131633775,0.031972423,-0.10577459
1732438857584,2024-11-24T09:00:57.584Z,65406,0.009837069,0.029441454,-0.101053774
1732438857588,2024-11-24T09:00:57.588Z,65410,0.009837069,0.029441454,-0.101053774
1732438857601,2024-11-24T09:00:57.601Z,65423,0.00588266,0.029368324,-0.099344835
1732438857606,2024-11-24T09:00:57.606Z,65428,0.00588266,0.029368324,-0.099344835
1732438857618,2024-11-24T09:00:57.618Z,65440,0.0063481363,0.020980902,-0.101561114
1732438857622,2024-11-24T09:00:57.622Z,65444,0.0063481363,0.020980902,-0.101561114
1732438857634,2024-11-24T09:00:57.634Z,65456,-6.150918E-6,0.021762483,-0.08945866
1732438857637,2024-11-24T09:00:57.637Z,65459,-6.150918E-6,0.021762483,-0.08945866
1732438857655,2024-11-24T09:00:57.655Z,65477,-0.008091764,0.011876377,-0.081224285
1732438857666,2024-11-24T09:00:57.666Z,65488,-0.008091764,0.011876377,-0.081224285
1732438857695,2024-11-24T09:00:57.695Z,65517,-0.021924084,0.0068698702,-0.08535702
1732438857702,2024-11-24T09:00:57.702Z,65524,-0.021924084,0.0068698702,-0.08535702
1732438857717,2024-11-24T09:00:57.717Z,65539,-0.0030181557,0.009324597,-0.22497833
1732438857726,2024-11-24T09:00:57.726Z,65548,-0.0030181557,0.009324597,-0.22497833
1732438857750,2024-11-24T09:00:57.750Z,65572,-0.03367781,0.023818493,-0.2899567
1732438857758,2024-11-24T09:00:57.758Z,65580,-0.03367781,0.023818493,-0.2899567
1732438857771,2024-11-24T09:00:57.771Z,65593,-0.013280027,0.008773883,-0.25635132
1732438857775,2024-11-24T09:00:57.775Z,65597,-0.013280027,0.008773883,-0.25635132
1732438857792,2024-11-24T09:00:57.792Z,65614,-0.08753291,0.011854302,-0.12058802
1732438857799,2024-11-24T09:00:57.799Z,65621,-0.08753291,0.011854302,-0.12058802
1732438857819,2024-11-24T09:00:57.819Z,65641,-0.111907154,-0.006531351,-0.13544798
1732438857824,2024-11-24T09:00:57.824Z,65646,-0.111907154,-0.006531351,-0.13544798
1732438857835,2024-11-24T09:00:57.835Z,65657,-0.1062221,-0.018566824,-0.11243975
1732438857839,2024-11-24T09:00:57.839Z,65661,-0.1062221,-0.018566824,-0.11243975
1732438857851,2024-11-24T09:00:57.851Z,65673,-0.12821455,-0.054801032,-0.061425548
1732438857855,2024-11-24T09:00:57.855Z,65677,-0.12821455,-0.054801032,-0.061425548
1732438857867,2024-11-24T09:00:57.867Z,65689,-0.111637995,-0.05647272,-0.0036114154
1732438857870,2024-11-24T09:00:57.870Z,65692,-0.111637995,-0.05647272,-0.0036114154
1732438857886,2024-11-24T09:00:57.886Z,65708,-0.13014829,-0.056828063,-0.016657317
1732438857896,2024-11-24T09:00:57.896Z,65718,-0.13014829,-0.056828063,-0.016657317
1732438857926,2024-11-24T09:00:57.926Z,65748,-0.019281426,-0.037950046,-0.15490808
1732438857932,2024-11-24T09:00:57.932Z,65754,-0.019281426,-0.037950046,-0.15490808
1732438857958,2024-11-24T09:00:57.958Z,65780,-0.0038078316,-0.04877576,-0.14211494
1732438857966,2024-11-24T09:00:57.966Z,65788,-0.0038078316,-0.04877576,-0.14211494
1732438857990,2024-11-24T09:00:57.990Z,65812,-0.028276207,-0.06108654,-0.1249929
1732438857994,2024-11-24T09:00:57.994Z,65816,-0.028276207,-0.06108654,-0.1249929
1732438858008,2024-11-24T09:00:58.008Z,65830,0.0035451897,-0.023924591,-0.08233278
1732438858012,2024-11-24T09:00:58.012Z,65834,0.0035451897,-0.023924591,-0.08233278
1732438858023,2024-11-24T09:00:58.023Z,65845,-0.012147771,-0.017039064,-0.09439979
1732438858027,2024-11-24T09:00:58.027Z,65849,-0.012147771,-0.017039064,-0.09439979
1732438858037,2024-11-24T09:00:58.037Z,65859,-0.018670443,-0.0105841495,-0.081149764
1732438858041,2024-11-24T09:00:58.041Z,65863,-0.018670443,-0.0105841495,-0.081149764
1732438858055,2024-11-24T09:00:58.055Z,65877,0.02607464,-0.0031428516,-0.015992872
1732438858059,2024-11-24T09:00:58.059Z,65881,0.02607464,-0.0031428516,-0.015992872
1732438858072,2024-11-24T09:00:58.072Z,65894,-0.024416324,0.029124135,-0.08688386
1732438858077,2024-11-24T09:00:58.077Z,65899,-0.024416324,0.029124135,-0.08688386
1732438858090,2024-11-24T09:00:58.090Z,65912,-0.016895356,0.02124211,-0.071052484
1732438858093,2024-11-24T09:00:58.093Z,65915,-0.016895356,0.02124211,-0.071052484
1732438858103,2024-11-24T09:00:58.103Z,65925,-0.02241978,0.020221982,-0.062373735
1732438858107,2024-11-24T09:00:58.107Z,65929,-0.02241978,0.020221982,-0.062373735
1732438858118,2024-11-24T09:00:58.118Z,65940,-0.018984163,0.0123136025,-0.10959623
1732438858122,2024-11-24T09:00:58.122Z,65944,-0.018984163,0.0123136025,-0.10959623
1732438858134,2024-11-24T09:00:58.134Z,65956,0.008968111,0.0039323084,-0.077928
1732438858137,2024-11-24T09:00:58.137Z,65959,0.008968111,0.0039323084,-0.077928
1732438858149,2024-11-24T09:00:58.149Z,65971,0.024756521,-0.045041934,-0.03633982
1732438858155,2024-11-24T09:00:58.155Z,65977,0.024756521,-0.045041934,-0.03633982
1732438858166,2024-11-24T09:00:58.166Z,65988,0.04434046,-0.052658275,-0.020234186
1732438858169,2024-11-24T09:00:58.169Z,65991,0.04434046,-0.052658275,-0.020234186
1732438858182,2024-11-24T09:00:58.182Z,66004,0.051664453,-0.05456229,-0.012071164
1732438858186,2024-11-24T09:00:58.186Z,66008,0.051664453,-0.05456229,-0.012071164
1732438858197,2024-11-24T09:00:58.197Z,66019,0.081558995,-0.05281786,-0.019137986
1732438858201,2024-11-24T09:00:58.201Z,66023,0.081558995,-0.05281786,-0.019137986
1732438858211,2024-11-24T09:00:58.211Z,66033,0.075914085,-0.061881736,-0.081253774
1732438858215,2024-11-24T09:00:58.215Z,66037,0.075914085,-0.061881736,-0.081253774
1732438858227,2024-11-24T09:00:58.227Z,66049,0.07375443,-0.080208555,-0.060099404
1732438858231,2024-11-24T09:00:58.231Z,66053,0.07375443,-0.080208555,-0.060099404
1732438858242,2024-11-24T09:00:58.242Z,66064,0.095405236,-0.09874718,-0.048730075
1732438858246,2024-11-24T09:00:58.246Z,66068,0.095405236,-0.09874718,-0.048730075
1732438858257,2024-11-24T09:00:58.257Z,66079,0.055635516,-0.108557135,-0.115853705
1732438858262,2024-11-24T09:00:58.262Z,66084,0.055635516,-0.108557135,-0.115853705
1732438858275,2024-11-24T09:00:58.275Z,66097,0.062290445,-0.09992961,-0.039000854
1732438858280,2024-11-24T09:00:58.280Z,66102,0.062290445,-0.09992961,-0.039000854
1732438858291,2024-11-24T09:00:58.291Z,66113,0.033461116,-0.107432276,-0.010289452
1732438858295,2024-11-24T09:00:58.295Z,66117,0.033461116,-0.107432276,-0.010289452
1732438858311,2024-11-24T09:00:58.311Z,66133,0.008834712,-0.10038259,-0.043563474
1732438858316,2024-11-24T09:00:58.316Z,66138,0.008834712,-0.10038259,-0.043563474
1732438858346,2024-11-24T09:00:58.346Z,66168,0.07742417,-0.07238838,-0.024860514
1732438858350,2024-11-24T09:00:58.350Z,66172,0.07742417,-0.07238838,-0.024860514
1732438858363,2024-11-24T09:00:58.363Z,66185,0.051400278,-0.06266497,-0.06898182
1732438858368,2024-11-24T09:00:58.368Z,66190,0.051400278,-0.06266497,-0.06898182
1732438858380,2024-11-24T09:00:58.380Z,66202,0.004911131,-0.054444715,-0.10665334
1732438858384,2024-11-24T09:00:58.384Z,66206,0.004911131,-0.054444715,-0.10665334
1732438858395,2024-11-24T09:00:58.395Z,66217,0.05753634,-0.037478298,-0.0273441
1732438858399,2024-11-24T09:00:58.399Z,66221,0.05753634,-0.037478298,-0.0273441
1732438858408,2024-11-24T09:00:58.408Z,66230,0.023295471,-0.042874087,-0.04322661
1732438858411,2024-11-24T09:00:58.411Z,66233,0.023295471,-0.042874087,-0.04322661
1732438858422,2024-11-24T09:00:58.422Z,66244,0.031846464,-0.043829057,-0.06299387
1732438858424,2024-11-24T09:00:58.424Z,66246,0.031846464,-0.043829057,-0.06299387
1732438858436,2024-11-24T09:00:58.436Z,66258,0.034222517,-0.034942854,-0.0035944458
1732438858439,2024-11-24T09:00:58.439Z,66261,0.034222517,-0.034942854,-0.0035944458
1732438858450,2024-11-24T09:00:58.450Z,66272,-8.270918E-4,-0.039251804,-0.017153975
1732438858454,2024-11-24T09:00:58.454Z,66276,-8.270918E-4,-0.039251804,-0.017153975
1732438858465,2024-11-24T09:00:58.465Z,66287,0.038520526,-0.006341426,-0.014699794
1732438858469,2024-11-24T09:00:58.469Z,66291,0.038520526,-0.006341426,-0.014699794
1732438858482,2024-11-24T09:00:58.482Z,66304,0.041572087,0.0018351616,-0.040854506
1732438858486,2024-11-24T09:00:58.486Z,66308,0.041572087,0.0018351616,-0.040854506
1732438858499,2024-11-24T09:00:58.499Z,66321,0.079460256,0.003662835,-0.041013043
1732438858503,2024-11-24T09:00:58.503Z,66325,0.079460256,0.003662835,-0.041013043
1732438858517,2024-11-24T09:00:58.517Z,66339,0.06485416,0.018741773,-0.05238095
1732438858520,2024-11-24T09:00:58.520Z,66342,0.06485416,0.018741773,-0.05238095
1732438858530,2024-11-24T09:00:58.530Z,66352,0.01870008,-0.0033619506,-0.060050197
1732438858533,2024-11-24T09:00:58.533Z,66355,0.01870008,-0.0033619506,-0.060050197
1732438858545,2024-11-24T09:00:58.545Z,66367,0.06623328,0.012311075,-0.0149870645
1732438858549,2024-11-24T09:00:58.549Z,66371,0.06623328,0.012311075,-0.0149870645
1732438858559,2024-11-24T09:00:58.559Z,66381,0.06555981,0.0070737014,-0.023058891
1732438858563,2024-11-24T09:00:58.563Z,66385,0.06555981,0.0070737014,-0.023058891
1732438858572,2024-11-24T09:00:58.572Z,66394,0.03567012,-0.014717274,-0.04898388
1732438858577,2024-11-24T09:00:58.577Z,66399,0.03567012,-0.014717274,-0.04898388
1732438858590,2024-11-24T09:00:58.590Z,66412,0.034056734,-0.024413941,-0.06444398
1732438858595,2024-11-24T09:00:58.595Z,66417,0.034056734,-0.024413941,-0.06444398
1732438858605,2024-11-24T09:00:58.605Z,66427,0.021569178,-0.025772005,-0.057460856
1732438858608,2024-11-24T09:00:58.608Z,66430,0.021569178,-0.025772005,-0.057460856
1732438858618,2024-11-24T09:00:58.618Z,66440,0.013364268,-0.023680402,-0.05928967
1732438858621,2024-11-24T09:00:58.621Z,66443,0.013364268,-0.023680402,-0.05928967
1732438858631,2024-11-24T09:00:58.631Z,66453,0.06151414,-0.020337999,-0.014525332
1732438858634,2024-11-24T09:00:58.634Z,66456,0.06151414,-0.020337999,-0.014525332
1732438858645,2024-11-24T09:00:58.645Z,66467,0.039446518,-0.010901858,-0.0025655648
1732438858649,2024-11-24T09:00:58.649Z,66471,0.039446518,-0.010901858,-0.0025655648
1732438858659,2024-11-24T09:00:58.659Z,66481,0.02805723,-0.0058571324,-0.051579203
1732438858663,2024-11-24T09:00:58.663Z,66485,0.02805723,-0.0058571324,-0.051579203
1732438858673,2024-11-24T09:00:58.673Z,66495,0.012159271,-0.0014061047,-0.04841278
1732438858677,2024-11-24T09:00:58.677Z,66499,0.012159271,-0.0014061047,-0.04841278
1732438858690,2024-11-24T09:00:58.690Z,66512,0.031836275,-0.0010879101,-0.021370392
1732438858694,2024-11-24T09:00:58.694Z,66516,0.031836275,-0.0010879101,-0.021370392
1732438858705,2024-11-24T09:00:58.705Z,66527,0.057818107,0.010592221,-0.023616523
1732438858708,2024-11-24T09:00:58.708Z,66530,0.057818107,0.010592221,-0.023616523
1732438858720,2024-11-24T09:00:58.720Z,66542,0.059570655,0.069209546,0.008644848
1732438858723,2024-11-24T09:00:58.723Z,66545,0.059570655,0.069209546,0.008644848
1732438858739,2024-11-24T09:00:58.739Z,66561,0.08272158,0.056452297,0.014377528
1732438858743,2024-11-24T09:00:58.743Z,66565,0.08272158,0.056452297,0.014377528
1732438858754,2024-11-24T09:00:58.754Z,66576,0.069823265,0.06400057,0.03953703
1732438858758,2024-11-24T09:00:58.758Z,66580,0.069823265,0.06400057,0.03953703
1732438858769,2024-11-24T09:00:58.769Z,66591,-0.0029960684,0.061270144,-0.024367165
1732438858772,2024-11-24T09:00:58.772Z,66594,-0.0029960684,0.061270144,-0.024367165
1732438858783,2024-11-24T09:00:58.783Z,66605,0.06680935,0.073987424,-0.049447898
1732438858787,2024-11-24T09:00:58.787Z,66609,0.06680935,0.073987424,-0.049447898
1732438858797,2024-11-24T09:00:58.797Z,66619,0.056706782,0.045453873,-0.055001885
1732438858801,2024-11-24T09:00:58.801Z,66623,0.056706782,0.045453873,-0.055001885
1732438858812,2024-11-24T09:00:58.812Z,66634,0.06375891,0.065324694,-0.06164027
1732438858815,2024-11-24T09:00:58.815Z,66637,0.06375891,0.065324694,-0.06164027
1732438858825,2024-11-24T09:00:58.825Z,66647,0.10725903,0.06741766,-0.050856702
1732438858829,2024-11-24T09:00:58.829Z,66651,0.10725903,0.06741766,-0.050856702
1732438858839,2024-11-24T09:00:58.839Z,66661,0.09171902,0.07205054,-0.06466308
1732438858843,2024-11-24T09:00:58.843Z,66665,0.09171902,0.07205054,-0.06466308
1732438858855,2024-11-24T09:00:58.855Z,66677,0.04758016,0.06099863,-0.08930013
1732438858859,2024-11-24T09:00:58.859Z,66681,0.04758016,0.06099863,-0.08930013
1732438858874,2024-11-24T09:00:58.874Z,66696,0.1136782,0.08653967,-0.051203582
1732438858883,2024-11-24T09:00:58.883Z,66705,0.1136782,0.08653967,-0.051203582
1732438858915,2024-11-24T09:00:58.915Z,66737,0.08128747,0.09820823,-0.07584894
1732438858922,2024-11-24T09:00:58.922Z,66744,0.08128747,0.09820823,-0.07584894
1732438858938,2024-11-24T09:00:58.938Z,66760,0.10450495,0.08594714,-0.059633106
1732438858941,2024-11-24T09:00:58.941Z,66763,0.10450495,0.08594714,-0.059633106
1732438858954,2024-11-24T09:00:58.954Z,66776,0.11246968,0.099892266,-0.050582413
1732438858957,2024-11-24T09:00:58.957Z,66779,0.11246968,0.099892266,-0.050582413
1732438858968,2024-11-24T09:00:58.968Z,66790,0.07430086,0.090054885,-0.097913586
1732438858971,2024-11-24T09:00:58.971Z,66793,0.07430086,0.090054885,-0.097913586
1732438858983,2024-11-24T09:00:58.983Z,66805,0.10832425,0.08507677,-0.07400844
1732438858987,2024-11-24T09:00:58.987Z,66809,0.10832425,0.08507677,-0.07400844
1732438858996,2024-11-24T09:00:58.996Z,66818,0.06159627,0.11045308,-0.105972074
1732438859000,2024-11-24T09:00:59Z,66822,0.06159627,0.11045308,-0.105972074
1732438859011,2024-11-24T09:00:59.011Z,66833,0.10527622,0.09691416,-0.11790696
1732438859014,2024-11-24T09:00:59.014Z,66836,0.10527622,0.09691416,-0.11790696
1732438859028,2024-11-24T09:00:59.028Z,66850,0.098029606,0.04621717,-0.053215273
1732438859031,2024-11-24T09:00:59.031Z,66853,0.098029606,0.04621717,-0.053215273
1732438859045,2024-11-24T09:00:59.045Z,66867,0.06257393,0.04504874,-0.07961643
1732438859052,2024-11-24T09:00:59.052Z,66874,0.06257393,0.04504874,-0.07961643
1732438859069,2024-11-24T09:00:59.069Z,66891,0.05849787,0.028245404,-0.09387237
1732438859073,2024-11-24T09:00:59.073Z,66895,0.05849787,0.028245404,-0.09387237
1732438859083,2024-11-24T09:00:59.083Z,66905,0.11296399,-0.008354746,-0.05607719
1732438859087,2024-11-24T09:00:59.087Z,66909,0.11296399,-0.008354746,-0.05607719
1732438859098,2024-11-24T09:00:59.098Z,66920,0.07839417,0.0035652956,-0.046909362
1732438859102,2024-11-24T09:00:59.102Z,66924,0.07839417,0.0035652956,-0.046909362
1732438859115,2024-11-24T09:00:59.115Z,66937,0.04859101,0.0051888465,-0.06943185
1732438859119,2024-11-24T09:00:59.119Z,66941,0.04859101,0.0051888465,-0.06943185
1732438859131,2024-11-24T09:00:59.131Z,66953,0.080699764,0.029329618,-0.080456436
1732438859135,2024-11-24T09:00:59.135Z,66957,0.080699764,0.029329618,-0.080456436
1732438859149,2024-11-24T09:00:59.149Z,66971,0.028150078,0.036304906,-0.062617876
1732438859153,2024-11-24T09:00:59.153Z,66975,0.028150078,0.036304906,-0.062617876
1732438859166,2024-11-24T09:00:59.166Z,66988,0.021377616,0.041655183,-0.06937295
1732438859170,2024-11-24T09:00:59.170Z,66992,0.021377616,0.041655183,-0.06937295
1732438859186,2024-11-24T09:00:59.186Z,67008,0.044454567,0.08894451,-0.032496456
1732438859188,2024-11-24T09:00:59.188Z,67010,0.044454567,0.08894451,-0.032496456
1732438859203,2024-11-24T09:00:59.203Z,67025,0.01489263,0.121626645,-0.023774806
1732438859207,2024-11-24T09:00:59.207Z,67029,0.01489263,0.121626645,-0.023774806
1732438859219,2024-11-24T09:00:59.219Z,67041,0.02129861,0.13332944,-0.05731637
1732438859224,2024-11-24T09:00:59.224Z,67046,0.02129861,0.13332944,-0.05731637
1732438859241,2024-11-24T09:00:59.241Z,67063,0.020566575,0.12020294,-0.035680715
1732438859249,2024-11-24T09:00:59.249Z,67071,0.020566575,0.12020294,-0.035680715
1732438859272,2024-11-24T09:00:59.272Z,67094,-0.041328195,0.10804639,-0.032419387
1732438859277,2024-11-24T09:00:59.277Z,67099,-0.041328195,0.10804639,-0.032419387
1732438859290,2024-11-24T09:00:59.290Z,67112,-0.03859362,0.09003806,-0.01734299
1732438859295,2024-11-24T09:00:59.295Z,67117,-0.03859362,0.09003806,-0.01734299
1732438859308,2024-11-24T09:00:59.308Z,67130,-0.06407821,0.04960956,-0.018184938
1732438859313,2024-11-24T09:00:59.313Z,67135,-0.06407821,0.04960956,-0.018184938
1732438859324,2024-11-24T09:00:59.324Z,67146,-0.013975177,0.05743567,-9.412789E-4
1732438859328,2024-11-24T09:00:59.328Z,67150,-0.013975177,0.05743567,-9.412789E-4
1732438859346,2024-11-24T09:00:59.346Z,67168,0.043622043,0.08672045,0.0010316919
1732438859354,2024-11-24T09:00:59.354Z,67176,0.043622043,0.08672045,0.0010316919
1732438859374,2024-11-24T09:00:59.374Z,67196,-0.058037277,0.115512006,-0.02641908
1732438859377,2024-11-24T09:00:59.377Z,67199,-0.058037277,0.115512006,-0.02641908
1732438859400,2024-11-24T09:00:59.400Z,67222,-0.061446108,0.11405446,-0.029554611
1732438859403,2024-11-24T09:00:59.403Z,67225,-0.061446108,0.11405446,-0.029554611
1732438859415,2024-11-24T09:00:59.415Z,67237,-0.06707364,0.10720306,-0.008976971
1732438859418,2024-11-24T09:00:59.418Z,67240,-0.06707364,0.10720306,-0.008976971
1732438859429,2024-11-24T09:00:59.429Z,67251,-0.029591179,0.10169524,-0.012404386
1732438859432,2024-11-24T09:00:59.432Z,67254,-0.029591179,0.10169524,-0.012404386
1732438859442,2024-11-24T09:00:59.442Z,67264,-0.020288832,0.0903407,-0.041573554
1732438859444,2024-11-24T09:00:59.444Z,67266,-0.020288832,0.0903407,-0.041573554
1732438859461,2024-11-24T09:00:59.461Z,67283,0.009121678,0.09311566,-0.02974901
1732438859467,2024-11-24T09:00:59.467Z,67289,0.009121678,0.09311566,-0.02974901
1732438859492,2024-11-24T09:00:59.492Z,67314,-0.042334348,0.016859252,-0.05434984
1732438859498,2024-11-24T09:00:59.498Z,67320,-0.042334348,0.016859252,-0.05434984
1732438859510,2024-11-24T09:00:59.510Z,67332,-0.09070391,0.022522764,-0.04737845
1732438859514,2024-11-24T09:00:59.514Z,67336,-0.09070391,0.022522764,-0.04737845
1732438859526,2024-11-24T09:00:59.526Z,67348,-0.091353066,0.01451461,-0.034969512
1732438859529,2024-11-24T09:00:59.529Z,67351,-0.091353066,0.01451461,-0.034969512
1732438859540,2024-11-24T09:00:59.540Z,67362,-0.090551734,-0.0102927955,-0.094121605
1732438859543,2024-11-24T09:00:59.543Z,67365,-0.090551734,-0.0102927955,-0.094121605
1732438859554,2024-11-24T09:00:59.554Z,67376,-0.055099856,-0.0041234978,-0.085661255
1732438859560,2024-11-24T09:00:59.560Z,67382,-0.055099856,-0.0041234978,-0.085661255
1732438859572,2024-11-24T09:00:59.572Z,67394,-0.02014205,0.0069698407,-0.07319954
1732438859575,2024-11-24T09:00:59.575Z,67397,-0.02014205,0.0069698407,-0.07319954
1732438859590,2024-11-24T09:00:59.590Z,67412,-0.028724885,0.048859004,-0.026682412
1732438859594,2024-11-24T09:00:59.594Z,67416,-0.028724885,0.048859004,-0.026682412
1732438859608,2024-11-24T09:00:59.608Z,67430,-0.03086696,0.060091406,-0.028061664
1732438859615,2024-11-24T09:00:59.615Z,67437,-0.03086696,0.060091406,-0.028061664
1732438859635,2024-11-24T09:00:59.635Z,67457,-0.037381522,0.06643769,-0.043072764
1732438859638,2024-11-24T09:00:59.638Z,67460,-0.037381522,0.06643769,-0.043072764
1732438859648,2024-11-24T09:00:59.648Z,67470,0.015342468,0.040900636,0.0073837894
1732438859652,2024-11-24T09:00:59.652Z,67474,0.015342468,0.040900636,0.0073837894
1732438859667,2024-11-24T09:00:59.667Z,67489,-0.01127786,0.061317798,-0.016900484
1732438859671,2024-11-24T09:00:59.671Z,67493,-0.01127786,0.061317798,-0.016900484
1732438859683,2024-11-24T09:00:59.683Z,67505,-0.0044420687,0.05197375,-0.04139957
1732438859686,2024-11-24T09:00:59.686Z,67508,-0.0044420687,0.05197375,-0.04139957
1732438859701,2024-11-24T09:00:59.701Z,67523,-0.040687982,0.038192485,-0.1262418
1732438859707,2024-11-24T09:00:59.707Z,67529,-0.040687982,0.038192485,-0.1262418
1732438859734,2024-11-24T09:00:59.734Z,67556,-0.031854417,0.027884519,-0.09637099
1732438859739,2024-11-24T09:00:59.739Z,67561,-0.031854417,0.027884519,-0.09637099
1732438859750,2024-11-24T09:00:59.750Z,67572,-0.0303574,0.021967579,-0.06546674
1732438859753,2024-11-24T09:00:59.753Z,67575,-0.0303574,0.021967579,-0.06546674
1732438859763,2024-11-24T09:00:59.763Z,67585,-0.047499966,0.025126379,-0.043131858
1732438859767,2024-11-24T09:00:59.767Z,67589,-0.047499966,0.025126379,-0.043131858
1732438859777,2024-11-24T09:00:59.777Z,67599,-0.015502903,0.036378328,-0.12888317
1732438859781,2024-11-24T09:00:59.781Z,67603,-0.015502903,0.036378328,-0.12888317
1732438859792,2024-11-24T09:00:59.792Z,67614,-0.0014940896,0.015302317,-0.08233208
1732438859796,2024-11-24T09:00:59.796Z,67618,-0.0014940896,0.015302317,-0.08233208
1732438859814,2024-11-24T09:00:59.814Z,67636,0.015266439,0.021097891,-0.02361301
1732438859820,2024-11-24T09:00:59.820Z,67642,0.015266439,0.021097891,-0.02361301
1732438859840,2024-11-24T09:00:59.840Z,67662,0.010429107,0.017098093,-0.051967684
1732438859846,2024-11-24T09:00:59.846Z,67668,0.010429107,0.017098093,-0.051967684
1732438859861,2024-11-24T09:00:59.861Z,67683,0.03210198,0.014112394,-0.058476146
1732438859865,2024-11-24T09:00:59.865Z,67687,0.03210198,0.014112394,-0.058476146
1732438859877,2024-11-24T09:00:59.877Z,67699,0.030995928,0.027707526,-0.07221354
1732438859880,2024-11-24T09:00:59.880Z,67702,0.030995928,0.027707526,-0.07221354
1732438859896,2024-11-24T09:00:59.896Z,67718,0.025825437,0.031831123,-0.04982838
1732438859900,2024-11-24T09:00:59.900Z,67722,0.025825437,0.031831123,-0.04982838
1732438859910,2024-11-24T09:00:59.910Z,67732,0.031325,0.036137152,-0.07021541
1732438859915,2024-11-24T09:00:59.915Z,67737,0.031325,0.036137152,-0.07021541
1732438859927,2024-11-24T09:00:59.927Z,67749,0.026294433,0.0404039,-0.08124704
1732438859932,2024-11-24T09:00:59.932Z,67754,0.026294433,0.0404039,-0.08124704
1732438859944,2024-11-24T09:00:59.944Z,67766,0.012995145,0.050820585,-0.07179192
1732438859949,2024-11-24T09:00:59.949Z,67771,0.012995145,0.050820585,-0.07179192
1732438859962,2024-11-24T09:00:59.962Z,67784,-0.0075030075,0.0573533,-0.09523049
1732438859966,2024-11-24T09:00:59.966Z,67788,-0.0075030075,0.0573533,-0.09523049
1732438859980,2024-11-24T09:00:59.980Z,67802,-0.0060596815,0.06301827,-0.075766
1732438859984,2024-11-24T09:00:59.984Z,67806,-0.0060596815,0.06301827,-0.075766
1732438860000,2024-11-24T09:01:00Z,67822,0.0071314545,0.07052395,-0.093456
1732438860007,2024-11-24T09:01:00.007Z,67829,0.0071314545,0.07052395,-0.093456
1732438860031,2024-11-24T09:01:00.031Z,67853,0.0050300895,0.08046509,-0.06936845
1732438860037,2024-11-24T09:01:00.037Z,67859,0.0050300895,0.08046509,-0.06936845
1732438860049,2024-11-24T09:01:00.049Z,67871,-0.015234329,0.08967095,-0.07668085
1732438860055,2024-11-24T09:01:00.055Z,67877,-0.015234329,0.08967095,-0.07668085
1732438860077,2024-11-24T09:01:00.077Z,67899,7.388152E-4,0.10826364,-0.0556897
1732438860087,2024-11-24T09:01:00.087Z,67909,7.388152E-4,0.10826364,-0.0556897
1732438860101,2024-11-24T09:01:00.101Z,67923,-0.02419776,0.10777857,-0.08055577
1732438860105,2024-11-24T09:01:00.105Z,67927,-0.02419776,0.10777857,-0.08055577
1732438860118,2024-11-24T09:01:00.118Z,67940,-0.0018379332,0.12867643,-0.05855722
1732438860122,2024-11-24T09:01:00.122Z,67944,-0.0018379332,0.12867643,-0.05855722
1732438860135,2024-11-24T09:01:00.135Z,67957,0.015146077,0.08418151,-0.12070587
1732438860139,2024-11-24T09:01:00.139Z,67961,0.015146077,0.08418151,-0.12070587
1732438860150,2024-11-24T09:01:00.150Z,67972,0.058337055,0.08271647,-0.008047941
1732438860153,2024-11-24T09:01:00.153Z,67975,0.058337055,0.08271647,-0.008047941
1732438860163,2024-11-24T09:01:00.163Z,67985,0.020871814,0.115386166,0.02180495
1732438860166,2024-11-24T09:01:00.166Z,67988,0.020871814,0.115386166,0.02180495
1732438860176,2024-11-24T09:01:00.176Z,67998,3.546138E-4,0.08786807,-0.02825034
1732438860178,2024-11-24T09:01:00.178Z,68000,3.546138E-4,0.08786807,-0.02825034
1732438860187,2024-11-24T09:01:00.187Z,68009,0.03448066,0.10527765,0.017568195
1732438860192,2024-11-24T09:01:00.192Z,68014,0.03448066,0.10527765,0.017568195
1732438860203,2024-11-24T09:01:00.203Z,68025,0.033836115,0.15824595,-0.015189522
1732438860209,2024-11-24T09:01:00.209Z,68031,0.033836115,0.15824595,-0.015189522
1732438860224,2024-11-24T09:01:00.224Z,68046,-0.039823208,0.03450485,-0.08943029
1732438860228,2024-11-24T09:01:00.228Z,68050,-0.039823208,0.03450485,-0.08943029
1732438860242,2024-11-24T09:01:00.242Z,68064,0.032131847,0.09962056,0.07745858
1732438860251,2024-11-24T09:01:00.251Z,68073,0.032131847,0.09962056,0.07745858
1732438860260,2024-11-24T09:01:00.260Z,68082,0.04906157,0.16284956,0.10342038
1732438860263,2024-11-24T09:01:00.263Z,68085,0.04906157,0.16284956,0.10342038
1732438860273,2024-11-24T09:01:00.273Z,68095,-0.058875736,0.14901151,-0.0029302195
1732438860276,2024-11-24T09:01:00.276Z,68098,-0.058875736,0.14901151,-0.0029302195
1732438860286,2024-11-24T09:01:00.286Z,68108,-0.073137015,0.14418305,-0.0659501
1732438860290,2024-11-24T09:01:00.290Z,68112,-0.073137015,0.14418305,-0.0659501
1732438860303,2024-11-24T09:01:00.303Z,68125,-0.057384647,0.117857225,-0.05702774
1732438860306,2024-11-24T09:01:00.306Z,68128,-0.057384647,0.117857225,-0.05702774
1732438860320,2024-11-24T09:01:00.320Z,68142,0.0031437876,0.09888527,0.03195148
1732438860326,2024-11-24T09:01:00.326Z,68148,0.0031437876,0.09888527,0.03195148
1732438860348,2024-11-24T09:01:00.348Z,68170,-0.004468289,0.12092442,0.06803042
1732438860356,2024-11-24T09:01:00.356Z,68178,-0.004468289,0.12092442,0.06803042
1732438860377,2024-11-24T09:01:00.377Z,68199,-0.039165046,0.13708524,0.054485038
1732438860384,2024-11-24T09:01:00.384Z,68206,-0.039165046,0.13708524,0.054485038
1732438860401,2024-11-24T09:01:00.401Z,68223,-0.075886354,0.04280076,-0.0012449166
1732438860404,2024-11-24T09:01:00.404Z,68226,-0.075886354,0.04280076,-0.0012449166
1732438860414,2024-11-24T09:01:00.414Z,68236,-0.05307953,0.06293036,0.002752402
1732438860417,2024-11-24T09:01:00.417Z,68239,-0.05307953,0.06293036,0.002752402
1732438860428,2024-11-24T09:01:00.428Z,68250,-0.015598485,0.08446995,-0.02385856
1732438860431,2024-11-24T09:01:00.431Z,68253,-0.015598485,0.08446995,-0.02385856
1732438860442,2024-11-24T09:01:00.442Z,68264,-0.0593646,0.004853147,-0.072551824
1732438860444,2024-11-24T09:01:00.444Z,68266,-0.0593646,0.004853147,-0.072551824
1732438860455,2024-11-24T09:01:00.455Z,68277,-0.006158187,-0.029772485,-0.023774125
1732438860458,2024-11-24T09:01:00.458Z,68280,-0.006158187,-0.029772485,-0.023774125
1732438860467,2024-11-24T09:01:00.467Z,68289,0.039670285,-0.010087894,0.053856026
1732438860470,2024-11-24T09:01:00.470Z,68292,0.039670285,-0.010087894,0.053856026
1732438860480,2024-11-24T09:01:00.480Z,68302,0.029658085,0.033928365,0.05332509
1732438860483,2024-11-24T09:01:00.483Z,68305,0.029658085,0.033928365,0.05332509
1732438860493,2024-11-24T09:01:00.493Z,68315,0.09621336,0.059707373,0.06426761
1732438860495,2024-11-24T09:01:00.495Z,68317,0.09621336,0.059707373,0.06426761
1732438860506,2024-11-24T09:01:00.506Z,68328,0.13279349,0.065515496,0.05075768
1732438860510,2024-11-24T09:01:00.510Z,68332,0.13279349,0.065515496,0.05075768
1732438860520,2024-11-24T09:01:00.520Z,68342,0.036320683,0.047483824,-0.018228112
1732438860524,2024-11-24T09:01:00.524Z,68346,0.036320683,0.047483824,-0.018228112
1732438860533,2024-11-24T09:01:00.533Z,68355,0.022708278,0.009379639,-0.033535995
1732438860535,2024-11-24T09:01:00.535Z,68357,0.022708278,0.009379639,-0.033535995
1732438860545,2024-11-24T09:01:00.545Z,68367,0.092469014,0.024021352,0.055687834
1732438860549,2024-11-24T09:01:00.549Z,68371,0.092469014,0.024021352,0.055687834
1732438860565,2024-11-24T09:01:00.565Z,68387,0.15689687,0.056239422,0.105800726
1732438860574,2024-11-24T09:01:00.574Z,68396,0.15689687,0.056239422,0.105800726
1732438860594,2024-11-24T09:01:00.594Z,68416,0.11725626,0.03260366,-0.07144352
1732438860600,2024-11-24T09:01:00.600Z,68422,0.11725626,0.03260366,-0.07144352
1732438860611,2024-11-24T09:01:00.611Z,68433,0.08029256,0.0780728,-0.08501546
1732438860614,2024-11-24T09:01:00.614Z,68436,0.08029256,0.0780728,-0.08501546
1732438860623,2024-11-24T09:01:00.623Z,68445,0.08992669,0.06335932,-0.055402655
1732438860626,2024-11-24T09:01:00.626Z,68448,0.08992669,0.06335932,-0.055402655
1732438860636,2024-11-24T09:01:00.636Z,68458,0.10648609,0.055420015,0.026678404
1732438860639,2024-11-24T09:01:00.639Z,68461,0.10648609,0.055420015,0.026678404
1732438860648,2024-11-24T09:01:00.648Z,68470,0.1179662,0.029396525,-0.015254908
1732438860652,2024-11-24T09:01:00.652Z,68474,0.1179662,0.029396525,-0.015254908
1732438860663,2024-11-24T09:01:00.663Z,68485,0.13982913,0.005751035,-0.05275917
1732438860666,2024-11-24T09:01:00.666Z,68488,0.13982913,0.005751035,-0.05275917
1732438860679,2024-11-24T09:01:00.679Z,68501,0.09595723,0.008886593,-0.12639475
1732438860685,2024-11-24T09:01:00.685Z,68507,0.09595723,0.008886593,-0.12639475
1732438860702,2024-11-24T09:01:00.702Z,68524,0.07626796,-0.032748364,-0.16440772
1732438860709,2024-11-24T09:01:00.709Z,68531,0.07626796,-0.032748364,-0.16440772
1732438860724,2024-11-24T09:01:00.724Z,68546,0.055733636,-0.01799073,-0.0014251652
1732438860729,2024-11-24T09:01:00.729Z,68551,0.055733636,-0.01799073,-0.0014251652
1732438860741,2024-11-24T09:01:00.741Z,68563,0.07895798,0.006337439,0.028838785
1732438860744,2024-11-24T09:01:00.744Z,68566,0.07895798,0.006337439,0.028838785
1732438860755,2024-11-24T09:01:00.755Z,68577,0.09038759,0.0021465488,-0.014462437
1732438860758,2024-11-24T09:01:00.758Z,68580,0.09038759,0.0021465488,-0.014462437
1732438860769,2024-11-24T09:01:00.769Z,68591,0.0349757,-0.008845263,-0.11639815
1732438860772,2024-11-24T09:01:00.772Z,68594,0.0349757,-0.008845263,-0.11639815
1732438860781,2024-11-24T09:01:00.781Z,68603,0.054358628,-0.02443446,-0.03365605
1732438860784,2024-11-24T09:01:00.784Z,68606,0.054358628,-0.02443446,-0.03365605
1732438860794,2024-11-24T09:01:00.794Z,68616,0.08598339,-0.06748476,0.0069060707
1732438860796,2024-11-24T09:01:00.796Z,68618,0.08598339,-0.06748476,0.0069060707
1732438860806,2024-11-24T09:01:00.806Z,68628,0.036206905,-0.02681596,0.055369664
1732438860810,2024-11-24T09:01:00.810Z,68632,0.036206905,-0.02681596,0.055369664
1732438860818,2024-11-24T09:01:00.818Z,68640,0.012756882,0.020674378,0.07402336
1732438860821,2024-11-24T09:01:00.821Z,68643,0.012756882,0.020674378,0.07402336
1732438860830,2024-11-24T09:01:00.830Z,68652,0.06077462,0.016849723,0.0862154
1732438860832,2024-11-24T09:01:00.832Z,68654,0.06077462,0.016849723,0.0862154
1732438860842,2024-11-24T09:01:00.842Z,68664,0.096073896,0.03943064,0.03671466
1732438860845,2024-11-24T09:01:00.845Z,68667,0.096073896,0.03943064,0.03671466
1732438860856,2024-11-24T09:01:00.856Z,68678,0.03961308,-0.024915837,0.035900697
1732438860859,2024-11-24T09:01:00.859Z,68681,0.03961308,-0.024915837,0.035900697
1732438860870,2024-11-24T09:01:00.870Z,68692,0.0040173517,-0.01448106,0.05341992
1732438860873,2024-11-24T09:01:00.873Z,68695,0.0040173517,-0.01448106,0.05341992
1732438860884,2024-11-24T09:01:00.884Z,68706,-0.0070628095,0.053632308,-0.075973734
1732438860888,2024-11-24T09:01:00.888Z,68710,-0.0070628095,0.053632308,-0.075973734
1732438860898,2024-11-24T09:01:00.898Z,68720,-0.052427873,0.069901995,-0.102383465
1732438860902,2024-11-24T09:01:00.902Z,68724,-0.052427873,0.069901995,-0.102383465
1732438860912,2024-11-24T09:01:00.912Z,68734,-0.009801986,0.034539472,-0.051620837
1732438860915,2024-11-24T09:01:00.915Z,68737,-0.009801986,0.034539472,-0.051620837
1732438860926,2024-11-24T09:01:00.926Z,68748,-0.028659,4.3722574E-4,-0.02015048
1732438860928,2024-11-24T09:01:00.928Z,68750,-0.028659,4.3722574E-4,-0.02015048
1732438860938,2024-11-24T09:01:00.938Z,68760,-0.05704704,0.011116581,0.027720705
1732438860941,2024-11-24T09:01:00.941Z,68763,-0.05704704,0.011116581,0.027720705
1732438860952,2024-11-24T09:01:00.952Z,68774,-0.01785716,-0.005001936,0.05769398
1732438860955,2024-11-24T09:01:00.955Z,68777,-0.01785716,-0.005001936,0.05769398
1732438860965,2024-11-24T09:01:00.965Z,68787,0.011605688,-0.037621446,0.01748599
1732438860969,2024-11-24T09:01:00.969Z,68791,0.011605688,-0.037621446,0.01748599
1732438860980,2024-11-24T09:01:00.980Z,68802,0.04886126,-0.06406018,-0.051270988
1732438860983,2024-11-24T09:01:00.983Z,68805,0.04886126,-0.06406018,-0.051270988
1732438860995,2024-11-24T09:01:00.995Z,68817,0.01387703,-0.06150801,-0.12735261
1732438860997,2024-11-24T09:01:00.997Z,68819,0.01387703,-0.06150801,-0.12735261
1732438861009,2024-11-24T09:01:01.009Z,68831,-0.0018477308,-0.0811538,-0.03606874
1732438861012,2024-11-24T09:01:01.012Z,68834,-0.0018477308,-0.0811538,-0.03606874
1732438861026,2024-11-24T09:01:01.026Z,68848,0.056786563,-0.09581847,0.047703262
1732438861030,2024-11-24T09:01:01.030Z,68852,0.056786563,-0.09581847,0.047703262
1732438861047,2024-11-24T09:01:01.047Z,68869,-0.018289912,-0.12359261,0.035493884
1732438861052,2024-11-24T09:01:01.052Z,68874,-0.018289912,-0.12359261,0.035493884
1732438861061,2024-11-24T09:01:01.061Z,68883,-0.028756684,-0.0881355,0.021326205
1732438861064,2024-11-24T09:01:01.064Z,68886,-0.028756684,-0.0881355,0.021326205
1732438861076,2024-11-24T09:01:01.076Z,68898,0.010857075,-0.14598896,6.3942804E-4
1732438861079,2024-11-24T09:01:01.079Z,68901,0.010857075,-0.14598896,6.3942804E-4
1732438861087,2024-11-24T09:01:01.087Z,68909,0.008993833,-0.15213723,-0.034594562
1732438861090,2024-11-24T09:01:01.090Z,68912,0.008993833,-0.15213723,-0.034594562
1732438861097,2024-11-24T09:01:01.097Z,68919,-0.037508346,-0.1225399,-0.08062115
1732438861100,2024-11-24T09:01:01.100Z,68922,-0.037508346,-0.1225399,-0.08062115
1732438861109,2024-11-24T09:01:01.109Z,68931,-0.033025857,-0.1264972,-0.121849105
1732438861112,2024-11-24T09:01:01.112Z,68934,-0.033025857,-0.1264972,-0.121849105
1732438861121,2024-11-24T09:01:01.121Z,68943,-0.033780478,-0.13009809,-0.110179305
1732438861124,2024-11-24T09:01:01.124Z,68946,-0.033780478,-0.13009809,-0.110179305
1732438861133,2024-11-24T09:01:01.133Z,68955,-0.057550833,-0.12744915,-0.053293426
1732438861136,2024-11-24T09:01:01.136Z,68958,-0.057550833,-0.12744915,-0.053293426
1732438861146,2024-11-24T09:01:01.146Z,68968,-0.11060586,-0.1009406,-0.1365729
1732438861152,2024-11-24T09:01:01.152Z,68974,-0.11060586,-0.1009406,-0.1365729
1732438861163,2024-11-24T09:01:01.163Z,68985,-0.14720708,-0.09362475,-0.16398545
1732438861167,2024-11-24T09:01:01.167Z,68989,-0.14720708,-0.09362475,-0.16398545
1732438861180,2024-11-24T09:01:01.180Z,69002,-0.11355829,-0.069769494,-0.09350854
1732438861187,2024-11-24T09:01:01.187Z,69009,-0.11355829,-0.069769494,-0.09350854
1732438861207,2024-11-24T09:01:01.207Z,69029,-0.09710048,-0.09927581,-0.031698987
1732438861214,2024-11-24T09:01:01.214Z,69036,-0.09710048,-0.09927581,-0.031698987
1732438861238,2024-11-24T09:01:01.238Z,69060,-0.1266625,-0.062418737,-0.08996038
1732438861245,2024-11-24T09:01:01.245Z,69067,-0.1266625,-0.062418737,-0.08996038
1732438861260,2024-11-24T09:01:01.260Z,69082,-0.103305034,-0.04454908,-0.10557085
1732438861264,2024-11-24T09:01:01.264Z,69086,-0.103305034,-0.04454908,-0.10557085
1732438861278,2024-11-24T09:01:01.278Z,69100,-0.12238659,-0.03359053,-0.047753125
1732438861281,2024-11-24T09:01:01.281Z,69103,-0.12238659,-0.03359053,-0.047753125
1732438861294,2024-11-24T09:01:01.294Z,69116,-0.10887453,-0.031410232,0.0017544946
1732438861298,2024-11-24T09:01:01.298Z,69120,-0.10887453,-0.031410232,0.0017544946
1732438861311,2024-11-24T09:01:01.311Z,69133,-0.1015801,-0.0025173544,0.04118854
1732438861313,2024-11-24T09:01:01.313Z,69135,-0.1015801,-0.0025173544,0.04118854
1732438861323,2024-11-24T09:01:01.323Z,69145,-0.113466494,-0.029807981,0.013978338
1732438861326,2024-11-24T09:01:01.326Z,69148,-0.113466494,-0.029807981,0.013978338
1732438861335,2024-11-24T09:01:01.335Z,69157,-0.09211155,-0.049652252,-0.012664059
1732438861338,2024-11-24T09:01:01.338Z,69160,-0.09211155,-0.049652252,-0.012664059
1732438861346,2024-11-24T09:01:01.346Z,69168,-0.08962972,-0.061968967,-0.03513312
1732438861349,2024-11-24T09:01:01.349Z,69171,-0.08962972,-0.061968967,-0.03513312
1732438861358,2024-11-24T09:01:01.358Z,69180,-0.1329829,-0.06621811,-0.13589849
1732438861360,2024-11-24T09:01:01.360Z,69182,-0.1329829,-0.06621811,-0.13589849
1732438861371,2024-11-24T09:01:01.371Z,69193,-0.17355257,-0.07048602,-0.17333557
1732438861377,2024-11-24T09:01:01.377Z,69199,-0.17355257,-0.07048602,-0.17333557
1732438861401,2024-11-24T09:01:01.401Z,69223,-0.13825257,-0.06505746,-0.06345695
1732438861405,2024-11-24T09:01:01.405Z,69227,-0.13825257,-0.06505746,-0.06345695
1732438861424,2024-11-24T09:01:01.424Z,69246,-0.12000995,-0.055663135,0.062385235
1732438861429,2024-11-24T09:01:01.429Z,69251,-0.12000995,-0.055663135,0.062385235
1732438861442,2024-11-24T09:01:01.442Z,69264,-0.1506882,-0.00325527,-0.041524824
1732438861446,2024-11-24T09:01:01.446Z,69268,-0.1506882,-0.00325527,-0.041524824
1732438861459,2024-11-24T09:01:01.459Z,69281,-0.07672329,0.014224715,-0.06817016
1732438861462,2024-11-24T09:01:01.462Z,69284,-0.07672329,0.014224715,-0.06817016
1732438861473,2024-11-24T09:01:01.473Z,69295,-0.05008289,0.03373105,-0.07056734
1732438861477,2024-11-24T09:01:01.477Z,69299,-0.05008289,0.03373105,-0.07056734
1732438861487,2024-11-24T09:01:01.487Z,69309,-0.007892576,0.05115886,-0.070850186
1732438861490,2024-11-24T09:01:01.490Z,69312,-0.007892576,0.05115886,-0.070850186
1732438861499,2024-11-24T09:01:01.499Z,69321,0.041745234,0.048121087,-0.07013984
1732438861502,2024-11-24T09:01:01.502Z,69324,0.041745234,0.048121087,-0.07013984
1732438861512,2024-11-24T09:01:01.512Z,69334,0.06731499,0.048917547,-0.06764271
1732438861515,2024-11-24T09:01:01.515Z,69337,0.06731499,0.048917547,-0.06764271
1732438861525,2024-11-24T09:01:01.525Z,69347,0.087262124,0.02433235,-0.0088578565
1732438861527,2024-11-24T09:01:01.527Z,69349,0.087262124,0.02433235,-0.0088578565
1732438861537,2024-11-24T09:01:01.537Z,69359,0.07338291,0.013936375,-0.030371798
1732438861540,2024-11-24T09:01:01.540Z,69362,0.07338291,0.013936375,-0.030371798
1732438861549,2024-11-24T09:01:01.549Z,69371,0.04046516,0.010380999,-0.056790184
1732438861552,2024-11-24T09:01:01.552Z,69374,0.04046516,0.010380999,-0.056790184
1732438861561,2024-11-24T09:01:01.561Z,69383,0.1106627,0.014406763,-0.027208038
1732438861564,2024-11-24T09:01:01.564Z,69386,0.1106627,0.014406763,-0.027208038
1732438861574,2024-11-24T09:01:01.574Z,69396,0.07858578,0.017543001,0.00541096
1732438861577,2024-11-24T09:01:01.577Z,69399,0.07858578,0.017543001,0.00541096
1732438861591,2024-11-24T09:01:01.591Z,69413,0.033999577,0.025824422,-0.013842945
1732438861597,2024-11-24T09:01:01.597Z,69419,0.033999577,0.025824422,-0.013842945
1732438861613,2024-11-24T09:01:01.613Z,69435,0.018925864,0.029889183,-0.031709004
1732438861619,2024-11-24T09:01:01.619Z,69441,0.018925864,0.029889183,-0.031709004
1732438861636,2024-11-24T09:01:01.636Z,69458,0.017014388,0.028425118,-0.012101044
1732438861642,2024-11-24T09:01:01.642Z,69464,0.017014388,0.028425118,-0.012101044
1732438861662,2024-11-24T09:01:01.662Z,69484,-0.020410374,0.014154016,-0.03710326
1732438861668,2024-11-24T09:01:01.668Z,69490,-0.020410374,0.014154016,-0.03710326
1732438861688,2024-11-24T09:01:01.688Z,69510,-0.042302758,0.008370695,-0.028370757
1732438861691,2024-11-24T09:01:01.691Z,69513,-0.042302758,0.008370695,-0.028370757
1732438861704,2024-11-24T09:01:01.704Z,69526,-0.050100856,-0.0122658545,-0.03036803
1732438861708,2024-11-24T09:01:01.708Z,69530,-0.050100856,-0.0122658545,-0.03036803
1732438861720,2024-11-24T09:01:01.720Z,69542,-0.08827212,-0.027548721,-0.08778444
1732438861725,2024-11-24T09:01:01.725Z,69547,-0.08827212,-0.027548721,-0.08778444
1732438861735,2024-11-24T09:01:01.735Z,69557,-0.10231891,-0.03529071,-0.11185367
1732438861739,2024-11-24T09:01:01.739Z,69561,-0.10231891,-0.03529071,-0.11185367
1732438861750,2024-11-24T09:01:01.750Z,69572,-0.11221088,-0.03604788,-0.09793635
1732438861753,2024-11-24T09:01:01.753Z,69575,-0.11221088,-0.03604788,-0.09793635
1732438861763,2024-11-24T09:01:01.763Z,69585,-0.05038178,-0.011561197,-0.06806183
1732438861765,2024-11-24T09:01:01.765Z,69587,-0.05038178,-0.011561197,-0.06806183
1732438861774,2024-11-24T09:01:01.774Z,69596,-0.017547304,0.011622269,-0.035920728
1732438861777,2024-11-24T09:01:01.777Z,69599,-0.017547304,0.011622269,-0.035920728
1732438861790,2024-11-24T09:01:01.790Z,69612,-0.027843552,0.029965425,-0.020788716
1732438861793,2024-11-24T09:01:01.793Z,69615,-0.027843552,0.029965425,-0.020788716
1732438861809,2024-11-24T09:01:01.809Z,69631,0.010714607,0.046255242,-0.032303963
1732438861811,2024-11-24T09:01:01.811Z,69633,0.010714607,0.046255242,-0.032303963
1732438861821,2024-11-24T09:01:01.821Z,69643,0.038754966,0.05098654,-4.4315783E-4
1732438861824,2024-11-24T09:01:01.824Z,69646,0.038754966,0.05098654,-4.4315783E-4
1732438861832,2024-11-24T09:01:01.832Z,69654,0.05319479,0.05029832,0.012408273
1732438861834,2024-11-24T09:01:01.834Z,69656,0.05319479,0.05029832,0.012408273
1732438861845,2024-11-24T09:01:01.845Z,69667,0.05512771,0.05386381,-0.011177361
1732438861849,2024-11-24T09:01:01.849Z,69671,0.05512771,0.05386381,-0.011177361
1732438861870,2024-11-24T09:01:01.870Z,69692,0.053640552,0.047404908,0.013524702
1732438861877,2024-11-24T09:01:01.877Z,69699,0.053640552,0.047404908,0.013524702
1732438861900,2024-11-24T09:01:01.900Z,69722,0.04438916,0.03218627,0.027848657
1732438861907,2024-11-24T09:01:01.907Z,69729,0.04438916,0.03218627,0.027848657
1732438861929,2024-11-24T09:01:01.929Z,69751,0.020667596,0.038314432,0.023629736
1732438861934,2024-11-24T09:01:01.934Z,69756,0.020667596,0.038314432,0.023629736
1732438861947,2024-11-24T09:01:01.947Z,69769,0.0146916015,0.042466424,0.0031615475
1732438861951,2024-11-24T09:01:01.951Z,69773,0.0146916015,0.042466424,0.0031615475
1732438861964,2024-11-24T09:01:01.964Z,69786,0.011529738,0.036423355,-0.014385368
1732438861969,2024-11-24T09:01:01.969Z,69791,0.011529738,0.036423355,-0.014385368
1732438861982,2024-11-24T09:01:01.982Z,69804,-0.012401466,0.02840353,-0.019676471
1732438861986,2024-11-24T09:01:01.986Z,69808,-0.012401466,0.02840353,-0.019676471
1732438861996,2024-11-24T09:01:01.996Z,69818,-0.008004313,0.024504187,-0.020794211
1732438861998,2024-11-24T09:01:01.998Z,69820,-0.008004313,0.024504187,-0.020794211
1732438862007,2024-11-24T09:01:02.007Z,69829,-0.017405445,0.01382454,-0.03411039
1732438862011,2024-11-24T09:01:02.011Z,69833,-0.017405445,0.01382454,-0.03411039
1732438862020,2024-11-24T09:01:02.020Z,69842,-0.037861913,0.0030349067,-0.040591754
1732438862023,2024-11-24T09:01:02.023Z,69845,-0.037861913,0.0030349067,-0.040591754
1732438862035,2024-11-24T09:01:02.035Z,69857,-0.039107878,1.27394505E-5,-0.027498882
1732438862038,2024-11-24T09:01:02.038Z,69860,-0.039107878,1.27394505E-5,-0.027498882
1732438862046,2024-11-24T09:01:02.046Z,69868,-0.035561908,-0.008857419,-0.027515536
1732438862048,2024-11-24T09:01:02.048Z,69870,-0.035561908,-0.008857419,-0.027515536
1732438862056,2024-11-24T09:01:02.056Z,69878,-0.019019539,-0.021907382,-0.047873348
1732438862059,2024-11-24T09:01:02.059Z,69881,-0.019019539,-0.021907382,-0.047873348
1732438862069,2024-11-24T09:01:02.069Z,69891,-0.0130998995,-0.020908939,-0.037271768
1732438862072,2024-11-24T09:01:02.072Z,69894,-0.0130998995,-0.020908939,-0.037271768
1732438862083,2024-11-24T09:01:02.083Z,69905,-0.010768507,-0.022372322,-0.050851025
1732438862086,2024-11-24T09:01:02.086Z,69908,-0.010768507,-0.022372322,-0.050851025
1732438862095,2024-11-24T09:01:02.095Z,69917,0.0052978853,-0.025527233,-0.034039203
1732438862098,2024-11-24T09:01:02.098Z,69920,0.0052978853,-0.025527233,-0.034039203
1732438862107,2024-11-24T09:01:02.107Z,69929,-0.0074631786,-0.01996515,-0.032833867
1732438862110,2024-11-24T09:01:02.110Z,69932,-0.0074631786,-0.01996515,-0.032833867
1732438862117,2024-11-24T09:01:02.117Z,69939,-0.022119721,-0.01691799,-0.043733414
1732438862120,2024-11-24T09:01:02.120Z,69942,-0.022119721,-0.01691799,-0.043733414
1732438862127,2024-11-24T09:01:02.127Z,69949,-0.011758051,-0.0140367355,-0.024042966
1732438862130,2024-11-24T09:01:02.130Z,69952,-0.011758051,-0.0140367355,-0.024042966
1732438862138,2024-11-24T09:01:02.138Z,69960,-0.012155576,-0.013686157,-0.02962124
1732438862140,2024-11-24T09:01:02.140Z,69962,-0.012155576,-0.013686157,-0.02962124
1732438862148,2024-11-24T09:01:02.148Z,69970,-0.03052759,-0.007617316,-0.06475881
1732438862150,2024-11-24T09:01:02.150Z,69972,-0.03052759,-0.007617316,-0.06475881
1732438862159,2024-11-24T09:01:02.159Z,69981,-0.05779383,-0.013531728,-0.034695238
1732438862161,2024-11-24T09:01:02.161Z,69983,-0.05779383,-0.013531728,-0.034695238
1732438862170,2024-11-24T09:01:02.170Z,69992,-0.051738895,-0.036104575,-0.021440446
1732438862173,2024-11-24T09:01:02.173Z,69995,-0.051738895,-0.036104575,-0.021440446
1732438862181,2024-11-24T09:01:02.181Z,70003,-0.06708828,-0.03663117,-0.03822314
1732438862184,2024-11-24T09:01:02.184Z,70006,-0.06708828,-0.03663117,-0.03822314
1732438862193,2024-11-24T09:01:02.193Z,70015,-0.065632485,-0.022389537,-0.029123794
1732438862195,2024-11-24T09:01:02.195Z,70017,-0.065632485,-0.022389537,-0.029123794
1732438862202,2024-11-24T09:01:02.202Z,70024,-0.05222149,-0.019929072,-0.057233658
1732438862205,2024-11-24T09:01:02.205Z,70027,-0.05222149,-0.019929072,-0.057233658
1732438862213,2024-11-24T09:01:02.213Z,70035,-0.034619603,-0.01919767,-0.057684354
1732438862216,2024-11-24T09:01:02.216Z,70038,-0.034619603,-0.01919767,-0.057684354
1732438862226,2024-11-24T09:01:02.226Z,70048,-0.052847933,-0.039294593,-0.09106225
1732438862229,2024-11-24T09:01:02.229Z,70051,-0.052847933,-0.039294593,-0.09106225
1732438862238,2024-11-24T09:01:02.238Z,70060,-0.059012588,-0.047978133,-0.11053856
1732438862241,2024-11-24T09:01:02.241Z,70063,-0.059012588,-0.047978133,-0.11053856
1732438862249,2024-11-24T09:01:02.249Z,70071,-0.08140385,-0.06096819,-0.111058764
1732438862251,2024-11-24T09:01:02.251Z,70073,-0.08140385,-0.06096819,-0.111058764
1732438862260,2024-11-24T09:01:02.260Z,70082,-0.078786984,-0.09848266,-0.046649802
1732438862263,2024-11-24T09:01:02.263Z,70085,-0.078786984,-0.09848266,-0.046649802
1732438862273,2024-11-24T09:01:02.273Z,70095,-0.068471,-0.08532339,-0.07465126
1732438862276,2024-11-24T09:01:02.276Z,70098,-0.068471,-0.08532339,-0.07465126
1732438862285,2024-11-24T09:01:02.285Z,70107,-0.08712289,-0.050964706,-0.089295454
1732438862288,2024-11-24T09:01:02.288Z,70110,-0.08712289,-0.050964706,-0.089295454
1732438862297,2024-11-24T09:01:02.297Z,70119,-0.03081768,-0.026705097,-0.08986756
1732438862299,2024-11-24T09:01:02.299Z,70121,-0.03081768,-0.026705097,-0.08986756
1732438862308,2024-11-24T09:01:02.308Z,70130,-0.029587373,-0.01916976,-0.0952326
1732438862311,2024-11-24T09:01:02.311Z,70133,-0.029587373,-0.01916976,-0.0952326
1732438862323,2024-11-24T09:01:02.323Z,70145,-0.028616963,-0.0046809213,-0.052762065
1732438862327,2024-11-24T09:01:02.327Z,70149,-0.028616963,-0.0046809213,-0.052762065
1732438862377,2024-11-24T09:01:02.377Z,70199,-0.049218185,0.007139344,-0.07214349
1732438862381,2024-11-24T09:01:02.381Z,70203,-0.049218185,0.007139344,-0.07214349
1732438862392,2024-11-24T09:01:02.392Z,70214,-0.04220908,-0.0047621233,-0.095771566
1732438862396,2024-11-24T09:01:02.396Z,70218,-0.04220908,-0.0047621233,-0.095771566
1732438862410,2024-11-24T09:01:02.410Z,70232,-0.020660592,-0.01466126,-0.070588514
1732438862422,2024-11-24T09:01:02.422Z,70244,-0.020660592,-0.01466126,-0.070588514
1732438862444,2024-11-24T09:01:02.444Z,70266,-0.066509075,-0.02681275,-0.08669512
1732438862451,2024-11-24T09:01:02.451Z,70273,-0.066509075,-0.02681275,-0.08669512
1732438862473,2024-11-24T09:01:02.473Z,70295,-0.07027193,-0.04086028,-0.07685614
1732438862480,2024-11-24T09:01:02.480Z,70302,-0.07027193,-0.04086028,-0.07685614
1732438862498,2024-11-24T09:01:02.498Z,70320,-0.07408591,-0.05589964,-0.06644654
1732438862502,2024-11-24T09:01:02.502Z,70324,-0.07408591,-0.05589964,-0.06644654
1732438862521,2024-11-24T09:01:02.521Z,70343,-0.024379857,-0.07733644,-0.042384006
1732438862529,2024-11-24T09:01:02.529Z,70351,-0.024379857,-0.07733644,-0.042384006
1732438862553,2024-11-24T09:01:02.553Z,70375,-0.010347546,-0.074172385,-0.01708579
1732438862559,2024-11-24T09:01:02.559Z,70381,-0.010347546,-0.074172385,-0.01708579
1732438862577,2024-11-24T09:01:02.577Z,70399,0.0046204575,-0.06657005,0.0032320279
1732438862580,2024-11-24T09:01:02.580Z,70402,0.0046204575,-0.06657005,0.0032320279
1732438862598,2024-11-24T09:01:02.598Z,70420,0.00467691,-0.039928257,-0.0044684107
1732438862602,2024-11-24T09:01:02.602Z,70424,0.00467691,-0.039928257,-0.0044684107
1732438862613,2024-11-24T09:01:02.613Z,70435,0.03006469,-0.03124219,0.00897594
1732438862616,2024-11-24T09:01:02.616Z,70438,0.03006469,-0.03124219,0.00897594
1732438862632,2024-11-24T09:01:02.632Z,70454,-0.010913381,-0.029501554,-0.03690264
1732438862639,2024-11-24T09:01:02.639Z,70461,-0.010913381,-0.029501554,-0.03690264
1732438862665,2024-11-24T09:01:02.665Z,70487,0.016460562,-0.0119455205,0.01073571
1732438862672,2024-11-24T09:01:02.672Z,70494,0.016460562,-0.0119455205,0.01073571
1732438862686,2024-11-24T09:01:02.686Z,70508,0.015702419,-0.032275543,-0.0024176026
1732438862691,2024-11-24T09:01:02.691Z,70513,0.015702419,-0.032275543,-0.0024176026
1732438862704,2024-11-24T09:01:02.704Z,70526,-0.014675823,-0.036878765,-0.0077100904
1732438862708,2024-11-24T09:01:02.708Z,70530,-0.014675823,-0.036878765,-0.0077100904
1732438862720,2024-11-24T09:01:02.720Z,70542,0.010147726,-0.020161105,0.024303054
1732438862724,2024-11-24T09:01:02.724Z,70546,0.010147726,-0.020161105,0.024303054
1732438862737,2024-11-24T09:01:02.737Z,70559,0.004544653,-0.042365577,-0.019018006
1732438862741,2024-11-24T09:01:02.741Z,70563,0.004544653,-0.042365577,-0.019018006
1732438862751,2024-11-24T09:01:02.751Z,70573,-0.008176563,-0.0390682,-0.0072066877
1732438862754,2024-11-24T09:01:02.754Z,70576,-0.008176563,-0.0390682,-0.0072066877
1732438862763,2024-11-24T09:01:02.763Z,70585,0.0080875335,-0.03317878,0.020259932
1732438862766,2024-11-24T09:01:02.766Z,70588,0.0080875335,-0.03317878,0.020259932
1732438862777,2024-11-24T09:01:02.777Z,70599,0.016338807,-0.015758019,0.005231538
1732438862780,2024-11-24T09:01:02.780Z,70602,0.016338807,-0.015758019,0.005231538
1732438862788,2024-11-24T09:01:02.788Z,70610,0.041194133,-0.029666582,0.009467989
1732438862791,2024-11-24T09:01:02.791Z,70613,0.041194133,-0.029666582,0.009467989
1732438862799,2024-11-24T09:01:02.799Z,70621,0.01934381,-0.017503422,0.030080687
1732438862802,2024-11-24T09:01:02.802Z,70624,0.01934381,-0.017503422,0.030080687
1732438862810,2024-11-24T09:01:02.810Z,70632,0.015014756,-0.028505445,0.0044709635
1732438862813,2024-11-24T09:01:02.813Z,70635,0.015014756,-0.028505445,0.0044709635
1732438862821,2024-11-24T09:01:02.821Z,70643,0.040824786,-0.024840567,0.019451026
1732438862824,2024-11-24T09:01:02.824Z,70646,0.040824786,-0.024840567,0.019451026
1732438862832,2024-11-24T09:01:02.832Z,70654,0.04442655,-0.015455676,0.006643891
1732438862835,2024-11-24T09:01:02.835Z,70657,0.04442655,-0.015455676,0.006643891
1732438862845,2024-11-24T09:01:02.845Z,70667,0.020969646,-0.015235313,0.014741125
1732438862847,2024-11-24T09:01:02.847Z,70669,0.020969646,-0.015235313,0.014741125
1732438862856,2024-11-24T09:01:02.856Z,70678,0.029456235,-0.01216462,0.041393273
1732438862858,2024-11-24T09:01:02.858Z,70680,0.029456235,-0.01216462,0.041393273
1732438862871,2024-11-24T09:01:02.871Z,70693,0.003447237,-0.027716376,0.020214323
1732438862873,2024-11-24T09:01:02.873Z,70695,0.003447237,-0.027716376,0.020214323
1732438862881,2024-11-24T09:01:02.881Z,70703,0.004570302,-0.022560498,0.06514565
1732438862883,2024-11-24T09:01:02.883Z,70705,0.004570302,-0.022560498,0.06514565
1732438862892,2024-11-24T09:01:02.892Z,70714,0.006847698,-0.015974104,0.034281425
1732438862895,2024-11-24T09:01:02.895Z,70717,0.006847698,-0.015974104,0.034281425
1732438862915,2024-11-24T09:01:02.915Z,70737,0.014339662,0.015348704,0.031192617
1732438862917,2024-11-24T09:01:02.917Z,70739,0.014339662,0.015348704,0.031192617
1732438862926,2024-11-24T09:01:02.926Z,70748,0.01865148,0.026355298,0.019056857
1732438862928,2024-11-24T09:01:02.928Z,70750,0.01865148,0.026355298,0.019056857
1732438862936,2024-11-24T09:01:02.936Z,70758,0.044009283,0.01583932,0.023565674
1732438862938,2024-11-24T09:01:02.938Z,70760,0.044009283,0.01583932,0.023565674
1732438862964,2024-11-24T09:01:02.964Z,70786,0.020220766,0.039796878,0.0058228527
1732438862967,2024-11-24T09:01:02.967Z,70789,0.020220766,0.039796878,0.0058228527
1732438862977,2024-11-24T09:01:02.977Z,70799,0.017292855,0.022574598,-0.020462207
1732438862980,2024-11-24T09:01:02.980Z,70802,0.017292855,0.022574598,-0.020462207
1732438863014,2024-11-24T09:01:03.014Z,70836,0.032655906,0.040600922,-0.006386233
1732438863022,2024-11-24T09:01:03.022Z,70844,0.032655906,0.040600922,-0.006386233
1732438863045,2024-11-24T09:01:03.045Z,70867,0.032503176,0.041481014,0.002661986
1732438863049,2024-11-24T09:01:03.049Z,70871,0.032503176,0.041481014,0.002661986
1732438863061,2024-11-24T09:01:03.061Z,70883,0.03341249,0.05507819,-0.020142019
1732438863067,2024-11-24T09:01:03.067Z,70889,0.03341249,0.05507819,-0.020142019
1732438863084,2024-11-24T09:01:03.084Z,70906,0.05218299,0.053008463,-0.032346364
1732438863088,2024-11-24T09:01:03.088Z,70910,0.05218299,0.053008463,-0.032346364
1732438863097,2024-11-24T09:01:03.097Z,70919,0.056105535,0.06566613,0.051436517
1732438863100,2024-11-24T09:01:03.100Z,70922,0.056105535,0.06566613,0.051436517
1732438863109,2024-11-24T09:01:03.109Z,70931,0.034699127,0.077122204,0.015233538
1732438863112,2024-11-24T09:01:03.112Z,70934,0.034699127,0.077122204,0.015233538
1732438863119,2024-11-24T09:01:03.119Z,70941,0.013185866,0.07049827,-0.031108571
1732438863122,2024-11-24T09:01:03.122Z,70944,0.013185866,0.07049827,-0.031108571
1732438863131,2024-11-24T09:01:03.131Z,70953,0.07348292,0.06318097,0.034139138
1732438863133,2024-11-24T09:01:03.133Z,70955,0.07348292,0.06318097,0.034139138
1732438863141,2024-11-24T09:01:03.141Z,70963,0.05439387,0.07613319,0.03918898
1732438863145,2024-11-24T09:01:03.145Z,70967,0.05439387,0.07613319,0.03918898
1732438863152,2024-11-24T09:01:03.152Z,70974,0.030769797,0.0913935,0.014147427
1732438863155,2024-11-24T09:01:03.155Z,70977,0.030769797,0.0913935,0.014147427
1732438863165,2024-11-24T09:01:03.165Z,70987,0.035460554,0.07999198,0.047842678
1732438863168,2024-11-24T09:01:03.168Z,70990,0.035460554,0.07999198,0.047842678
1732438863177,2024-11-24T09:01:03.177Z,70999,0.029595884,0.07221129,0.023232637
1732438863180,2024-11-24T09:01:03.180Z,71002,0.029595884,0.07221129,0.023232637
1732438863189,2024-11-24T09:01:03.189Z,71011,-0.026601942,0.0239278,-0.0850493
1732438863192,2024-11-24T09:01:03.192Z,71014,-0.026601942,0.0239278,-0.0850493
1732438863284,2024-11-24T09:01:03.284Z,71106,0.027628709,0.03787964,0.053028706
1732438863292,2024-11-24T09:01:03.292Z,71114,0.027628709,0.03787964,0.053028706
1732438863313,2024-11-24T09:01:03.313Z,71135,0.009829313,0.041896842,0.07127579
1732438863318,2024-11-24T09:01:03.318Z,71140,0.009829313,0.041896842,0.07127579
1732438863332,2024-11-24T09:01:03.332Z,71154,-0.028849458,0.08099247,0.037495133
1732438863338,2024-11-24T09:01:03.338Z,71160,-0.028849458,0.08099247,0.037495133
1732438863359,2024-11-24T09:01:03.359Z,71181,0.018982098,0.083809346,-0.04802987
1732438863364,2024-11-24T09:01:03.364Z,71186,0.018982098,0.083809346,-0.04802987
1732438863380,2024-11-24T09:01:03.380Z,71202,0.04281469,0.07540588,-0.03192595
1732438863385,2024-11-24T09:01:03.385Z,71207,0.04281469,0.07540588,-0.03192595
1732438863397,2024-11-24T09:01:03.397Z,71219,0.029709518,0.077785335,-0.0035689548
1732438863401,2024-11-24T09:01:03.401Z,71223,0.029709518,0.077785335,-0.0035689548
1732438863413,2024-11-24T09:01:03.413Z,71235,-0.022979867,0.06017786,-0.032984078
1732438863416,2024-11-24T09:01:03.416Z,71238,-0.022979867,0.06017786,-0.032984078
1732438863427,2024-11-24T09:01:03.427Z,71249,0.0258415,0.079591714,0.046238955
1732438863430,2024-11-24T09:01:03.430Z,71252,0.0258415,0.079591714,0.046238955
1732438863439,2024-11-24T09:01:03.439Z,71261,-0.014023255,0.0749741,-0.02706591
1732438863442,2024-11-24T09:01:03.442Z,71264,-0.014023255,0.0749741,-0.02706591
1732438863450,2024-11-24T09:01:03.450Z,71272,-5.268881E-4,0.03126047,-0.068674535
1732438863453,2024-11-24T09:01:03.453Z,71275,-5.268881E-4,0.03126047,-0.068674535
1732438863462,2024-11-24T09:01:03.462Z,71284,-0.009502062,-0.017009404,-0.03668435
1732438863464,2024-11-24T09:01:03.464Z,71286,-0.009502062,-0.017009404,-0.03668435
1732438863471,2024-11-24T09:01:03.471Z,71293,0.019116579,0.0033802334,0.016600337
1732438863474,2024-11-24T09:01:03.474Z,71296,0.019116579,0.0033802334,0.016600337
1732438863483,2024-11-24T09:01:03.483Z,71305,-0.0097409515,-0.0035054884,-0.008802596
1732438863486,2024-11-24T09:01:03.486Z,71308,-0.0097409515,-0.0035054884,-0.008802596
1732438863494,2024-11-24T09:01:03.494Z,71316,0.00425291,-0.004340749,0.011826987
1732438863497,2024-11-24T09:01:03.497Z,71319,0.00425291,-0.004340749,0.011826987
1732438863504,2024-11-24T09:01:03.504Z,71326,0.025808055,0.040658493,0.09455831
1732438863507,2024-11-24T09:01:03.507Z,71329,0.025808055,0.040658493,0.09455831
1732438863514,2024-11-24T09:01:03.514Z,71336,0.0071832268,0.10707625,0.028969701
1732438863517,2024-11-24T09:01:03.517Z,71339,0.0071832268,0.10707625,0.028969701
1732438863527,2024-11-24T09:01:03.527Z,71349,0.07046349,0.14546518,0.0037305288
1732438863529,2024-11-24T09:01:03.529Z,71351,0.07046349,0.14546518,0.0037305288
1732438863536,2024-11-24T09:01:03.536Z,71358,0.071390435,0.20530379,-0.0104733175
1732438863538,2024-11-24T09:01:03.538Z,71360,0.071390435,0.20530379,-0.0104733175
1732438863547,2024-11-24T09:01:03.547Z,71369,0.06891485,0.2264784,-0.050132245
1732438863550,2024-11-24T09:01:03.550Z,71372,0.06891485,0.2264784,-0.050132245
1732438863559,2024-11-24T09:01:03.559Z,71381,0.04303648,0.2514361,-0.052524574
1732438863561,2024-11-24T09:01:03.561Z,71383,0.04303648,0.2514361,-0.052524574
1732438863568,2024-11-24T09:01:03.568Z,71390,0.018316979,0.22984667,-0.066126704
1732438863570,2024-11-24T09:01:03.570Z,71392,0.018316979,0.22984667,-0.066126704
1732438863578,2024-11-24T09:01:03.578Z,71400,0.044871148,0.2208815,-0.053740054
1732438863580,2024-11-24T09:01:03.580Z,71402,0.044871148,0.2208815,-0.053740054
1732438863591,2024-11-24T09:01:03.591Z,71413,0.0052729473,0.16085774,-0.06717804
1732438863594,2024-11-24T09:01:03.594Z,71416,0.0052729473,0.16085774,-0.06717804
1732438863601,2024-11-24T09:01:03.601Z,71423,-0.004246145,0.12526001,-0.09784826
1732438863603,2024-11-24T09:01:03.603Z,71425,-0.004246145,0.12526001,-0.09784826
1732438863641,2024-11-24T09:01:03.641Z,71463,-0.042367462,0.0793553,-0.1296665
1732438863648,2024-11-24T09:01:03.648Z,71470,-0.042367462,0.0793553,-0.1296665
1732438863673,2024-11-24T09:01:03.673Z,71495,-0.09575489,0.012756761,-0.1025486
1732438863680,2024-11-24T09:01:03.680Z,71502,-0.09575489,0.012756761,-0.1025486
1732438863702,2024-11-24T09:01:03.702Z,71524,-0.056985617,-0.0020735157,-0.09923471
1732438863711,2024-11-24T09:01:03.711Z,71533,-0.056985617,-0.0020735157,-0.09923471
1732438863731,2024-11-24T09:01:03.731Z,71553,-0.05963228,-0.0057290574,-0.098589
1732438863738,2024-11-24T09:01:03.738Z,71560,-0.05963228,-0.0057290574,-0.098589
1732438863757,2024-11-24T09:01:03.757Z,71579,-0.00954456,0.021762872,-0.07401442
1732438863762,2024-11-24T09:01:03.762Z,71584,-0.00954456,0.021762872,-0.07401442
1732438863779,2024-11-24T09:01:03.779Z,71601,-0.011819548,0.028802829,-0.07002738
1732438863782,2024-11-24T09:01:03.782Z,71604,-0.011819548,0.028802829,-0.07002738
1732438863792,2024-11-24T09:01:03.792Z,71614,-0.021014575,0.018258452,-0.09917426
1732438863797,2024-11-24T09:01:03.797Z,71619,-0.021014575,0.018258452,-0.09917426
1732438863806,2024-11-24T09:01:03.806Z,71628,0.02119782,0.0049570077,-0.046954874
1732438863809,2024-11-24T09:01:03.809Z,71631,0.02119782,0.0049570077,-0.046954874
1732438863819,2024-11-24T09:01:03.819Z,71641,0.056679092,0.015859157,-0.020854505
1732438863821,2024-11-24T09:01:03.821Z,71643,0.056679092,0.015859157,-0.020854505
1732438863831,2024-11-24T09:01:03.831Z,71653,0.04831579,0.019426981,-0.06043407
1732438863833,2024-11-24T09:01:03.833Z,71655,0.04831579,0.019426981,-0.06043407
1732438863842,2024-11-24T09:01:03.842Z,71664,0.03323122,0.009295034,-0.03322626
1732438863845,2024-11-24T09:01:03.845Z,71667,0.03323122,0.009295034,-0.03322626
1732438863853,2024-11-24T09:01:03.853Z,71675,0.054176148,0.009563827,-0.014313794
1732438863855,2024-11-24T09:01:03.855Z,71677,0.054176148,0.009563827,-0.014313794
1732438863864,2024-11-24T09:01:03.864Z,71686,0.051195532,0.014801296,-0.021886889
1732438863866,2024-11-24T09:01:03.866Z,71688,0.051195532,0.014801296,-0.021886889
1732438863874,2024-11-24T09:01:03.874Z,71696,0.009672282,-0.0060341232,-0.050369866
1732438863876,2024-11-24T09:01:03.876Z,71698,0.009672282,-0.0060341232,-0.050369866
1732438863884,2024-11-24T09:01:03.884Z,71706,0.05712076,-0.0076150796,-0.0025720652
1732438863886,2024-11-24T09:01:03.886Z,71708,0.05712076,-0.0076150796,-0.0025720652
1732438863894,2024-11-24T09:01:03.894Z,71716,0.01995756,5.9992116E-4,0.013160849
1732438863897,2024-11-24T09:01:03.897Z,71719,0.01995756,5.9992116E-4,0.013160849
1732438863907,2024-11-24T09:01:03.907Z,71729,0.006675679,-0.01607534,-8.146502E-4
1732438863910,2024-11-24T09:01:03.910Z,71732,0.006675679,-0.01607534,-8.146502E-4
1732438863919,2024-11-24T09:01:03.919Z,71741,-0.013774993,-0.0073006777,-0.009702271
1732438863922,2024-11-24T09:01:03.922Z,71744,-0.013774993,-0.0073006777,-0.009702271
1732438863931,2024-11-24T09:01:03.931Z,71753,-0.0498435,-0.004875222,-0.039108396
1732438863933,2024-11-24T09:01:03.933Z,71755,-0.0498435,-0.004875222,-0.039108396
1732438863940,2024-11-24T09:01:03.940Z,71762,-0.03343633,0.03613132,0.00492921
1732438863943,2024-11-24T09:01:03.943Z,71765,-0.03343633,0.03613132,0.00492921
1732438863950,2024-11-24T09:01:03.950Z,71772,-0.02568582,0.048819907,0.014086271
1732438863952,2024-11-24T09:01:03.952Z,71774,-0.02568582,0.048819907,0.014086271
1732438863960,2024-11-24T09:01:03.960Z,71782,-0.031451564,0.06343653,0.01313042
1732438863962,2024-11-24T09:01:03.962Z,71784,-0.031451564,0.06343653,0.01313042
1732438863969,2024-11-24T09:01:03.969Z,71791,-0.05771861,0.072578885,-0.03608916
1732438863971,2024-11-24T09:01:03.971Z,71793,-0.05771861,0.072578885,-0.03608916
1732438863979,2024-11-24T09:01:03.979Z,71801,-0.052008625,0.08030833,-0.02334631
1732438863981,2024-11-24T09:01:03.981Z,71803,-0.052008625,0.08030833,-0.02334631
1732438863987,2024-11-24T09:01:03.987Z,71809,-0.038994048,0.085107215,-0.0061455998
1732438863990,2024-11-24T09:01:03.990Z,71812,-0.038994048,0.085107215,-0.0061455998
1732438863999,2024-11-24T09:01:03.999Z,71821,-0.06692257,0.0709921,-0.0352113
1732438864001,2024-11-24T09:01:04.001Z,71823,-0.06692257,0.0709921,-0.0352113
1732438864009,2024-11-24T09:01:04.009Z,71831,-0.07991996,0.053829916,-0.08194283
1732438864013,2024-11-24T09:01:04.013Z,71835,-0.07991996,0.053829916,-0.08194283
1732438864022,2024-11-24T09:01:04.022Z,71844,-0.04558927,0.044968512,-0.034339968
1732438864025,2024-11-24T09:01:04.025Z,71847,-0.04558927,0.044968512,-0.034339968
1732438864042,2024-11-24T09:01:04.042Z,71864,-0.08505481,0.04574766,-0.040189657
1732438864044,2024-11-24T09:01:04.044Z,71866,-0.08505481,0.04574766,-0.040189657
1732438864051,2024-11-24T09:01:04.051Z,71873,-0.07724437,0.021699758,-0.014900122
1732438864054,2024-11-24T09:01:04.054Z,71876,-0.07724437,0.021699758,-0.014900122
1732438864062,2024-11-24T09:01:04.062Z,71884,-0.05905527,0.02936881,0.0046668327
1732438864064,2024-11-24T09:01:04.064Z,71886,-0.05905527,0.02936881,0.0046668327
1732438864087,2024-11-24T09:01:04.087Z,71909,-0.076962106,0.066393934,-0.056848764
1732438864090,2024-11-24T09:01:04.090Z,71912,-0.076962106,0.066393934,-0.056848764
1732438864100,2024-11-24T09:01:04.100Z,71922,-0.057079803,0.059852272,-0.020790163
1732438864102,2024-11-24T09:01:04.102Z,71924,-0.057079803,0.059852272,-0.020790163
1732438864135,2024-11-24T09:01:04.135Z,71957,-0.010856164,0.080164306,0.033913665
1732438864144,2024-11-24T09:01:04.144Z,71966,-0.010856164,0.080164306,0.033913665
1732438864170,2024-11-24T09:01:04.170Z,71992,-0.059075616,0.11344461,0.035431676
1732438864176,2024-11-24T09:01:04.176Z,71998,-0.059075616,0.11344461,0.035431676
1732438864193,2024-11-24T09:01:04.193Z,72015,-0.019452605,0.123435356,0.060580574
1732438864197,2024-11-24T09:01:04.197Z,72019,-0.019452605,0.123435356,0.060580574
1732438864208,2024-11-24T09:01:04.208Z,72030,-0.0072790403,0.14262447,0.06474689
1732438864212,2024-11-24T09:01:04.212Z,72034,-0.0072790403,0.14262447,0.06474689
1732438864223,2024-11-24T09:01:04.223Z,72045,-0.035249013,0.14310963,-0.017694237
1732438864227,2024-11-24T09:01:04.227Z,72049,-0.035249013,0.14310963,-0.017694237
1732438864237,2024-11-24T09:01:04.237Z,72059,-0.074795894,0.11568092,-0.0847256
1732438864241,2024-11-24T09:01:04.241Z,72063,-0.074795894,0.11568092,-0.0847256
1732438864251,2024-11-24T09:01:04.251Z,72073,-0.03941012,0.07314117,-0.0702543
1732438864253,2024-11-24T09:01:04.253Z,72075,-0.03941012,0.07314117,-0.0702543
1732438864263,2024-11-24T09:01:04.263Z,72085,-0.06048526,0.07961699,0.059474874
1732438864266,2024-11-24T09:01:04.266Z,72088,-0.06048526,0.07961699,0.059474874
1732438864275,2024-11-24T09:01:04.275Z,72097,-0.050382473,0.07574848,0.046469055
1732438864278,2024-11-24T09:01:04.278Z,72100,-0.050382473,0.07574848,0.046469055
1732438864285,2024-11-24T09:01:04.285Z,72107,-0.030845577,0.09574417,0.018225428
1732438864288,2024-11-24T09:01:04.288Z,72110,-0.030845577,0.09574417,0.018225428
1732438864298,2024-11-24T09:01:04.298Z,72120,-0.070712835,0.078378156,-0.110408455
1732438864301,2024-11-24T09:01:04.301Z,72123,-0.070712835,0.078378156,-0.110408455
1732438864356,2024-11-24T09:01:04.356Z,72178,-0.006832333,0.067941144,-0.03990123
1732438864359,2024-11-24T09:01:04.359Z,72181,-0.006832333,0.067941144,-0.03990123
1732438864367,2024-11-24T09:01:04.367Z,72189,0.0051413164,0.07997691,0.03151711
1732438864369,2024-11-24T09:01:04.369Z,72191,0.0051413164,0.07997691,0.03151711
1732438864378,2024-11-24T09:01:04.378Z,72200,0.0033366906,0.12364308,0.051303446
1732438864381,2024-11-24T09:01:04.381Z,72203,0.0033366906,0.12364308,0.051303446
1732438864388,2024-11-24T09:01:04.388Z,72210,0.016980339,0.15528388,0.046543736
1732438864391,2024-11-24T09:01:04.391Z,72213,0.016980339,0.15528388,0.046543736
1732438864401,2024-11-24T09:01:04.401Z,72223,0.011266501,0.17366205,0.0035348814
1732438864404,2024-11-24T09:01:04.404Z,72226,0.011266501,0.17366205,0.0035348814
1732438864413,2024-11-24T09:01:04.413Z,72235,-0.027610486,0.09742082,-0.112996325
1732438864415,2024-11-24T09:01:04.415Z,72237,-0.027610486,0.09742082,-0.112996325
1732438864445,2024-11-24T09:01:04.445Z,72267,0.044394225,0.08055174,-0.022065908
1732438864448,2024-11-24T09:01:04.448Z,72270,0.044394225,0.08055174,-0.022065908
1732438864457,2024-11-24T09:01:04.457Z,72279,-0.063242145,-0.016372139,-0.12157464
1732438864460,2024-11-24T09:01:04.460Z,72282,-0.063242145,-0.016372139,-0.12157464
1732438864469,2024-11-24T09:01:04.469Z,72291,-0.021925556,-0.044808928,-0.05020261
1732438864472,2024-11-24T09:01:04.472Z,72294,-0.021925556,-0.044808928,-0.05020261
1732438864489,2024-11-24T09:01:04.489Z,72311,0.07817265,-0.0014869176,0.06492262
1732438864492,2024-11-24T09:01:04.492Z,72314,0.07817265,-0.0014869176,0.06492262
1732438864501,2024-11-24T09:01:04.501Z,72323,-0.017446775,0.047366347,0.068279676
1732438864504,2024-11-24T09:01:04.504Z,72326,-0.017446775,0.047366347,0.068279676
1732438864513,2024-11-24T09:01:04.513Z,72335,0.020542523,0.08757205,0.05777263
1732438864516,2024-11-24T09:01:04.516Z,72338,0.020542523,0.08757205,0.05777263
1732438864523,2024-11-24T09:01:04.523Z,72345,0.0819295,0.07450974,0.059263013
1732438864526,2024-11-24T09:01:04.526Z,72348,0.0819295,0.07450974,0.059263013
1732438864536,2024-11-24T09:01:04.536Z,72358,-0.04317582,0.057085186,-0.023960633
1732438864538,2024-11-24T09:01:04.538Z,72360,-0.04317582,0.057085186,-0.023960633
1732438864546,2024-11-24T09:01:04.546Z,72368,0.02260483,0.046167865,0.022942498
1732438864549,2024-11-24T09:01:04.549Z,72371,0.02260483,0.046167865,0.022942498
1732438864580,2024-11-24T09:01:04.580Z,72402,0.06735239,0.042532068,0.06568926
1732438864582,2024-11-24T09:01:04.582Z,72404,0.06735239,0.042532068,0.06568926
1732438864590,2024-11-24T09:01:04.590Z,72412,0.023421127,0.042082198,0.099429876
1732438864593,2024-11-24T09:01:04.593Z,72415,0.023421127,0.042082198,0.099429876
1732438864600,2024-11-24T09:01:04.600Z,72422,0.051795505,0.06285976,0.1070454
1732438864603,2024-11-24T09:01:04.603Z,72425,0.051795505,0.06285976,0.1070454
1732438864611,2024-11-24T09:01:04.611Z,72433,0.070614606,0.06736719,0.05506082
1732438864613,2024-11-24T09:01:04.613Z,72435,0.070614606,0.06736719,0.05506082
1732438864628,2024-11-24T09:01:04.628Z,72450,0.027629133,0.004074679,-0.027801614
1732438864631,2024-11-24T09:01:04.631Z,72453,0.027629133,0.004074679,-0.027801614
1732438864638,2024-11-24T09:01:04.638Z,72460,0.018265357,-6.0196337E-5,-0.039534442
1732438864640,2024-11-24T09:01:04.640Z,72462,0.018265357,-6.0196337E-5,-0.039534442
1732438864648,2024-11-24T09:01:04.648Z,72470,0.044864092,-0.014901948,-0.0064479974
1732438864651,2024-11-24T09:01:04.651Z,72473,0.044864092,-0.014901948,-0.0064479974
1732438864674,2024-11-24T09:01:04.674Z,72496,0.039965298,0.0050617433,0.061990432
1732438864677,2024-11-24T09:01:04.677Z,72499,0.039965298,0.0050617433,0.061990432
1732438864686,2024-11-24T09:01:04.686Z,72508,0.024309328,0.023207584,0.036337193
1732438864688,2024-11-24T09:01:04.688Z,72510,0.024309328,0.023207584,0.036337193
1732438864697,2024-11-24T09:01:04.697Z,72519,0.043580383,0.054928426,0.021945236
1732438864700,2024-11-24T09:01:04.700Z,72522,0.043580383,0.054928426,0.021945236
1732438864714,2024-11-24T09:01:04.714Z,72536,0.08492896,-0.020072414,-0.021566747
1732438864717,2024-11-24T09:01:04.717Z,72539,0.08492896,-0.020072414,-0.021566747
1732438864726,2024-11-24T09:01:04.726Z,72548,0.08739409,0.010898454,0.0024515176
1732438864728,2024-11-24T09:01:04.728Z,72550,0.08739409,0.010898454,0.0024515176
1732438864740,2024-11-24T09:01:04.740Z,72562,0.06405999,-0.0033878186,0.016435593
1732438864747,2024-11-24T09:01:04.747Z,72569,0.06405999,-0.0033878186,0.016435593
1732438864766,2024-11-24T09:01:04.766Z,72588,0.064631976,-0.017421637,0.028166002
1732438864771,2024-11-24T09:01:04.771Z,72593,0.064631976,-0.017421637,0.028166002
1732438864785,2024-11-24T09:01:04.785Z,72607,0.08542781,0.009585707,0.048455812
1732438864787,2024-11-24T09:01:04.787Z,72609,0.08542781,0.009585707,0.048455812
1732438864799,2024-11-24T09:01:04.799Z,72621,0.06699782,0.013563333,0.037987754
1732438864803,2024-11-24T09:01:04.803Z,72625,0.06699782,0.013563333,0.037987754
1732438864814,2024-11-24T09:01:04.814Z,72636,0.06963248,0.06214936,0.04096397
1732438864817,2024-11-24T09:01:04.817Z,72639,0.06963248,0.06214936,0.04096397
1732438864826,2024-11-24T09:01:04.826Z,72648,0.07625761,0.046865422,0.03404815
1732438864829,2024-11-24T09:01:04.829Z,72651,0.07625761,0.046865422,0.03404815
1732438864836,2024-11-24T09:01:04.836Z,72658,0.06333565,0.027595108,0.024361622
1732438864839,2024-11-24T09:01:04.839Z,72661,0.06333565,0.027595108,0.024361622
1732438864902,2024-11-24T09:01:04.902Z,72724,0.08960437,0.003151993,-0.010135083
1732438864907,2024-11-24T09:01:04.907Z,72729,0.08960437,0.003151993,-0.010135083
1732438864926,2024-11-24T09:01:04.926Z,72748,0.022964902,0.00800728,-0.054245044
1732438864930,2024-11-24T09:01:04.930Z,72752,0.022964902,0.00800728,-0.054245044
1732438864943,2024-11-24T09:01:04.943Z,72765,-0.024441803,0.008446159,0.005943197
1732438864947,2024-11-24T09:01:04.947Z,72769,-0.024441803,0.008446159,0.005943197
1732438864958,2024-11-24T09:01:04.958Z,72780,0.04268054,-0.016697433,-0.0029431535
1732438864962,2024-11-24T09:01:04.962Z,72784,0.04268054,-0.016697433,-0.0029431535
1732438864972,2024-11-24T09:01:04.972Z,72794,0.0111768255,0.009439642,-0.0017638304
1732438864976,2024-11-24T09:01:04.976Z,72798,0.0111768255,0.009439642,-0.0017638304
1732438864986,2024-11-24T09:01:04.986Z,72808,-0.008897971,0.041818656,-0.008843148
1732438864990,2024-11-24T09:01:04.990Z,72812,-0.008897971,0.041818656,-0.008843148
1732438865000,2024-11-24T09:01:05Z,72822,-0.017905248,-0.08288189,0.013239717
1732438865003,2024-11-24T09:01:05.003Z,72825,-0.017905248,-0.08288189,0.013239717
1732438865013,2024-11-24T09:01:05.013Z,72835,-0.03623975,-0.051505208,0.0171844
1732438865016,2024-11-24T09:01:05.016Z,72838,-0.03623975,-0.051505208,0.0171844
1732438865032,2024-11-24T09:01:05.032Z,72854,-0.040696613,-0.028460808,-0.02930701
1732438865035,2024-11-24T09:01:05.035Z,72857,-0.040696613,-0.028460808,-0.02930701
1732438865048,2024-11-24T09:01:05.048Z,72870,0.005874078,-0.017947553,0.025919627
1732438865052,2024-11-24T09:01:05.052Z,72874,0.005874078,-0.017947553,0.025919627
1732438865061,2024-11-24T09:01:05.061Z,72883,-0.024487996,-0.010067764,-0.0035808797
1732438865063,2024-11-24T09:01:05.063Z,72885,-0.024487996,-0.010067764,-0.0035808797
1732438865073,2024-11-24T09:01:05.073Z,72895,-0.009953717,0.0076711914,-0.027476806
1732438865076,2024-11-24T09:01:05.076Z,72898,-0.009953717,0.0076711914,-0.027476806
1732438865083,2024-11-24T09:01:05.083Z,72905,0.022588674,-0.051362645,0.042037416
1732438865085,2024-11-24T09:01:05.085Z,72907,0.022588674,-0.051362645,0.042037416
1732438865092,2024-11-24T09:01:05.092Z,72914,-0.017624909,-0.05744228,0.0027239327
1732438865095,2024-11-24T09:01:05.095Z,72917,-0.017624909,-0.05744228,0.0027239327
1732438865119,2024-11-24T09:01:05.119Z,72941,-0.041416977,-0.037085515,-0.015152482
1732438865122,2024-11-24T09:01:05.122Z,72944,-0.041416977,-0.037085515,-0.015152482
1732438865130,2024-11-24T09:01:05.130Z,72952,-0.024313461,-0.05337295,-0.07355
1732438865132,2024-11-24T09:01:05.132Z,72954,-0.024313461,-0.05337295,-0.07355
1732438865140,2024-11-24T09:01:05.140Z,72962,-0.028483905,-0.048396103,-0.045852907
1732438865143,2024-11-24T09:01:05.143Z,72965,-0.028483905,-0.048396103,-0.045852907
1732438865154,2024-11-24T09:01:05.154Z,72976,-0.03558126,-0.069301344,-0.015247737
1732438865160,2024-11-24T09:01:05.160Z,72982,-0.03558126,-0.069301344,-0.015247737
1732438865182,2024-11-24T09:01:05.182Z,73004,-0.05590676,-0.04111682,-0.06972882
1732438865188,2024-11-24T09:01:05.188Z,73010,-0.05590676,-0.04111682,-0.06972882
1732438865210,2024-11-24T09:01:05.210Z,73032,-0.020042218,-0.044973567,-0.06399974
1732438865216,2024-11-24T09:01:05.216Z,73038,-0.020042218,-0.044973567,-0.06399974
1732438865237,2024-11-24T09:01:05.237Z,73059,-0.02384655,-0.06145793,-0.10034026
1732438865244,2024-11-24T09:01:05.244Z,73066,-0.02384655,-0.06145793,-0.10034026
1732438865264,2024-11-24T09:01:05.264Z,73086,-0.075257696,-0.0458875,-0.07234377
1732438865270,2024-11-24T09:01:05.270Z,73092,-0.075257696,-0.0458875,-0.07234377
1732438865289,2024-11-24T09:01:05.289Z,73111,-0.07786374,-0.06399824,-0.028698651
1732438865295,2024-11-24T09:01:05.295Z,73117,-0.07786374,-0.06399824,-0.028698651
1732438865308,2024-11-24T09:01:05.308Z,73130,-0.0699539,-0.08558022,-0.024272665
1732438865312,2024-11-24T09:01:05.312Z,73134,-0.0699539,-0.08558022,-0.024272665
1732438865324,2024-11-24T09:01:05.324Z,73146,-0.019447962,-0.03797329,0.004908238
1732438865327,2024-11-24T09:01:05.327Z,73149,-0.019447962,-0.03797329,0.004908238
1732438865339,2024-11-24T09:01:05.339Z,73161,-0.048798855,-0.04264108,-0.04589596
1732438865342,2024-11-24T09:01:05.342Z,73164,-0.048798855,-0.04264108,-0.04589596
1732438865353,2024-11-24T09:01:05.353Z,73175,-0.05146755,-0.034567673,-0.06541428
1732438865356,2024-11-24T09:01:05.356Z,73178,-0.05146755,-0.034567673,-0.06541428
1732438865395,2024-11-24T09:01:05.395Z,73217,0.023883868,-0.045414973,-0.010115999
1732438865403,2024-11-24T09:01:05.403Z,73225,0.023883868,-0.045414973,-0.010115999
1732438865441,2024-11-24T09:01:05.441Z,73263,-0.015572398,-0.0661583,-0.028072497
1732438865447,2024-11-24T09:01:05.447Z,73269,-0.015572398,-0.0661583,-0.028072497
1732438865464,2024-11-24T09:01:05.464Z,73286,-0.07871991,-0.04177013,-0.063364305
1732438865468,2024-11-24T09:01:05.468Z,73290,-0.07871991,-0.04177013,-0.063364305
1732438865481,2024-11-24T09:01:05.481Z,73303,-0.0034079489,-0.06807554,-0.013083756
1732438865485,2024-11-24T09:01:05.485Z,73307,-0.0034079489,-0.06807554,-0.013083756
1732438865498,2024-11-24T09:01:05.498Z,73320,-0.030750748,-0.04329789,-0.01578328
1732438865502,2024-11-24T09:01:05.502Z,73324,-0.030750748,-0.04329789,-0.01578328
1732438865513,2024-11-24T09:01:05.513Z,73335,-0.03995826,-0.017012903,-0.016258894
1732438865517,2024-11-24T09:01:05.517Z,73339,-0.03995826,-0.017012903,-0.016258894
1732438865528,2024-11-24T09:01:05.528Z,73350,0.018807245,0.0015758992,-0.006032689
1732438865531,2024-11-24T09:01:05.531Z,73353,0.018807245,0.0015758992,-0.006032689
1732438865542,2024-11-24T09:01:05.542Z,73364,-0.06634784,-0.015029634,-0.063337974
1732438865545,2024-11-24T09:01:05.545Z,73367,-0.06634784,-0.015029634,-0.063337974
1732438865555,2024-11-24T09:01:05.555Z,73377,-0.028224641,-0.016757337,-0.037052985
1732438865557,2024-11-24T09:01:05.557Z,73379,-0.028224641,-0.016757337,-0.037052985
1732438865565,2024-11-24T09:01:05.565Z,73387,-0.020862699,-0.042077918,-1.813913E-4
1732438865568,2024-11-24T09:01:05.568Z,73390,-0.020862699,-0.042077918,-1.813913E-4
1732438865576,2024-11-24T09:01:05.576Z,73398,-0.02903778,-0.041876227,-0.029079862
1732438865578,2024-11-24T09:01:05.578Z,73400,-0.02903778,-0.041876227,-0.029079862
1732438865588,2024-11-24T09:01:05.588Z,73410,-0.052884813,-0.04677051,-0.037437014
1732438865593,2024-11-24T09:01:05.593Z,73415,-0.052884813,-0.04677051,-0.037437014
1732438865610,2024-11-24T09:01:05.610Z,73432,-0.09132723,-0.041920185,-0.054655768
1732438865615,2024-11-24T09:01:05.615Z,73437,-0.09132723,-0.041920185,-0.054655768
1732438865668,2024-11-24T09:01:05.668Z,73490,-0.04472194,-0.015690822,-0.10654822
1732438865673,2024-11-24T09:01:05.673Z,73495,-0.04472194,-0.015690822,-0.10654822
1732438865694,2024-11-24T09:01:05.694Z,73516,-0.048053257,-0.015445758,-0.08860237
1732438865701,2024-11-24T09:01:05.701Z,73523,-0.048053257,-0.015445758,-0.08860237
1732438865720,2024-11-24T09:01:05.720Z,73542,-0.064648576,-0.025543425,-0.03761301
1732438865726,2024-11-24T09:01:05.726Z,73548,-0.064648576,-0.025543425,-0.03761301
1732438865745,2024-11-24T09:01:05.745Z,73567,-0.12325623,-0.009743589,-0.09903111
1732438865753,2024-11-24T09:01:05.753Z,73575,-0.12325623,-0.009743589,-0.09903111
1732438865765,2024-11-24T09:01:05.765Z,73587,-0.09332007,-0.020980708,-0.07060595
1732438865769,2024-11-24T09:01:05.769Z,73591,-0.09332007,-0.020980708,-0.07060595
1732438865780,2024-11-24T09:01:05.780Z,73602,-0.05470432,-0.04200761,-0.06735085
1732438865784,2024-11-24T09:01:05.784Z,73606,-0.05470432,-0.04200761,-0.06735085
1732438865796,2024-11-24T09:01:05.796Z,73618,-0.0923987,-0.049104698,0.034252103
1732438865801,2024-11-24T09:01:05.801Z,73623,-0.0923987,-0.049104698,0.034252103
1732438865820,2024-11-24T09:01:05.820Z,73642,-0.093701385,-0.05478654,0.01966869
1732438865828,2024-11-24T09:01:05.828Z,73650,-0.093701385,-0.05478654,0.01966869
1732438865850,2024-11-24T09:01:05.850Z,73672,-0.071716785,-0.04235172,-0.009442024
1732438865855,2024-11-24T09:01:05.855Z,73677,-0.071716785,-0.04235172,-0.009442024
1732438865873,2024-11-24T09:01:05.873Z,73695,-0.05696883,-0.01636183,0.018929364
1732438865878,2024-11-24T09:01:05.878Z,73700,-0.05696883,-0.01636183,0.018929364
1732438865898,2024-11-24T09:01:05.898Z,73720,-0.043618955,0.002051635,0.013009338
1732438865904,2024-11-24T09:01:05.904Z,73726,-0.043618955,0.002051635,0.013009338
1732438865922,2024-11-24T09:01:05.922Z,73744,-0.01278574,0.003909893,0.012496599
1732438865928,2024-11-24T09:01:05.928Z,73750,-0.01278574,0.003909893,0.012496599
1732438865947,2024-11-24T09:01:05.947Z,73769,0.0029590048,0.014161309,0.015726924
1732438865953,2024-11-24T09:01:05.953Z,73775,0.0029590048,0.014161309,0.015726924
1732438865965,2024-11-24T09:01:05.965Z,73787,0.018318843,0.023401204,0.01219056
1732438865968,2024-11-24T09:01:05.968Z,73790,0.018318843,0.023401204,0.01219056
1732438865981,2024-11-24T09:01:05.981Z,73803,0.014535859,0.028261352,0.009748767
1732438865985,2024-11-24T09:01:05.985Z,73807,0.014535859,0.028261352,0.009748767
1732438865997,2024-11-24T09:01:05.997Z,73819,0.020174962,0.061669443,-0.008727228
1732438866001,2024-11-24T09:01:06.001Z,73823,0.020174962,0.061669443,-0.008727228
1732438866012,2024-11-24T09:01:06.012Z,73834,-0.012373507,0.05748147,0.0017599649
1732438866015,2024-11-24T09:01:06.015Z,73837,-0.012373507,0.05748147,0.0017599649
1732438866025,2024-11-24T09:01:06.025Z,73847,-0.004493039,0.042741295,-0.026692066
1732438866028,2024-11-24T09:01:06.028Z,73850,-0.004493039,0.042741295,-0.026692066
1732438866037,2024-11-24T09:01:06.037Z,73859,-0.012129416,0.0032853195,0.012318077
1732438866039,2024-11-24T09:01:06.039Z,73861,-0.012129416,0.0032853195,0.012318077
1732438866048,2024-11-24T09:01:06.048Z,73870,-0.013816275,0.0025274195,0.0071950667
1732438866050,2024-11-24T09:01:06.050Z,73872,-0.013816275,0.0025274195,0.0071950667
1732438866058,2024-11-24T09:01:06.058Z,73880,-0.030339586,0.022397997,-0.015022243
1732438866060,2024-11-24T09:01:06.060Z,73882,-0.030339586,0.022397997,-0.015022243
1732438866068,2024-11-24T09:01:06.068Z,73890,-0.043742266,0.020427417,-0.044257995
1732438866070,2024-11-24T09:01:06.070Z,73892,-0.043742266,0.020427417,-0.044257995
1732438866076,2024-11-24T09:01:06.076Z,73898,-0.04141508,0.009969738,-0.044829834
1732438866079,2024-11-24T09:01:06.079Z,73901,-0.04141508,0.009969738,-0.044829834
1732438866086,2024-11-24T09:01:06.086Z,73908,-0.0411034,-0.0053606345,-0.034099206
1732438866089,2024-11-24T09:01:06.089Z,73911,-0.0411034,-0.0053606345,-0.034099206
1732438866113,2024-11-24T09:01:06.113Z,73935,-0.07681412,-0.020239584,-0.024916032
1732438866115,2024-11-24T09:01:06.115Z,73937,-0.07681412,-0.020239584,-0.024916032
1732438866124,2024-11-24T09:01:06.124Z,73946,-0.07618464,-0.0133850295,-0.06717415
1732438866126,2024-11-24T09:01:06.126Z,73948,-0.07618464,-0.0133850295,-0.06717415
1732438866135,2024-11-24T09:01:06.135Z,73957,-0.070934914,-9.844872E-4,-0.07820265
1732438866137,2024-11-24T09:01:06.137Z,73959,-0.070934914,-9.844872E-4,-0.07820265
1732438866158,2024-11-24T09:01:06.158Z,73980,-0.08668773,-0.013368594,-0.0535381
1732438866161,2024-11-24T09:01:06.161Z,73983,-0.08668773,-0.013368594,-0.0535381
1732438866169,2024-11-24T09:01:06.169Z,73991,-0.079265006,0.0067500123,-0.08886805
1732438866172,2024-11-24T09:01:06.172Z,73994,-0.079265006,0.0067500123,-0.08886805
1732438866180,2024-11-24T09:01:06.180Z,74002,-0.1009334,0.025537007,-0.109336436
1732438866183,2024-11-24T09:01:06.183Z,74005,-0.1009334,0.025537007,-0.109336436
1732438866201,2024-11-24T09:01:06.201Z,74023,-0.104802355,-0.004699107,-0.064304076
1732438866204,2024-11-24T09:01:06.204Z,74026,-0.104802355,-0.004699107,-0.064304076
1732438866211,2024-11-24T09:01:06.211Z,74033,-0.08284022,-0.0083793495,-0.042362295
1732438866214,2024-11-24T09:01:06.214Z,74036,-0.08284022,-0.0083793495,-0.042362295
1732438866246,2024-11-24T09:01:06.246Z,74068,-0.068997785,-0.017131353,-0.018990654
1732438866249,2024-11-24T09:01:06.249Z,74071,-0.068997785,-0.017131353,-0.018990654
1732438866259,2024-11-24T09:01:06.259Z,74081,-0.09236515,-0.0040372876,-0.0067389747
1732438866263,2024-11-24T09:01:06.263Z,74085,-0.09236515,-0.0040372876,-0.0067389747
1732438866273,2024-11-24T09:01:06.273Z,74095,-0.077203795,-0.004189918,-0.0023737194
1732438866276,2024-11-24T09:01:06.276Z,74098,-0.077203795,-0.004189918,-0.0023737194
1732438866293,2024-11-24T09:01:06.293Z,74115,-0.07338527,-0.02192868,-0.019371744
1732438866300,2024-11-24T09:01:06.300Z,74122,-0.07338527,-0.02192868,-0.019371744
1732438866317,2024-11-24T09:01:06.317Z,74139,-0.055878926,-0.03374311,-0.03854807
1732438866320,2024-11-24T09:01:06.320Z,74142,-0.055878926,-0.03374311,-0.03854807
1732438866329,2024-11-24T09:01:06.329Z,74151,-0.052927118,-0.034370065,-0.02351316
1732438866332,2024-11-24T09:01:06.332Z,74154,-0.052927118,-0.034370065,-0.02351316
1732438866340,2024-11-24T09:01:06.340Z,74162,-0.05024741,-0.030482782,-0.0026634205
1732438866343,2024-11-24T09:01:06.343Z,74165,-0.05024741,-0.030482782,-0.0026634205
1732438866352,2024-11-24T09:01:06.352Z,74174,-0.039243393,-0.04124295,0.014977533
1732438866354,2024-11-24T09:01:06.354Z,74176,-0.039243393,-0.04124295,0.014977533
1732438866363,2024-11-24T09:01:06.363Z,74185,-0.04594118,-0.03294461,-0.014260162
1732438866365,2024-11-24T09:01:06.365Z,74187,-0.04594118,-0.03294461,-0.014260162
1732438866380,2024-11-24T09:01:06.380Z,74202,-0.03212627,-0.018281695,-0.020724678
1732438866383,2024-11-24T09:01:06.383Z,74205,-0.03212627,-0.018281695,-0.020724678
1732438866391,2024-11-24T09:01:06.391Z,74213,-0.010100975,-0.019308144,-0.011560687
1732438866393,2024-11-24T09:01:06.393Z,74215,-0.010100975,-0.019308144,-0.011560687
1732438866401,2024-11-24T09:01:06.401Z,74223,-0.018314468,-0.016514413,-0.0013446198
1732438866403,2024-11-24T09:01:06.403Z,74225,-0.018314468,-0.016514413,-0.0013446198
1732438866410,2024-11-24T09:01:06.410Z,74232,-0.039017532,-0.018207204,-0.009332693
1732438866413,2024-11-24T09:01:06.413Z,74235,-0.039017532,-0.018207204,-0.009332693
1732438866427,2024-11-24T09:01:06.427Z,74249,-0.03476691,-0.026347324,-0.03931803
1732438866429,2024-11-24T09:01:06.429Z,74251,-0.03476691,-0.026347324,-0.03931803
1732438866438,2024-11-24T09:01:06.438Z,74260,-0.056619857,-0.022690518,-0.029761326
1732438866441,2024-11-24T09:01:06.441Z,74263,-0.056619857,-0.022690518,-0.029761326
1732438866451,2024-11-24T09:01:06.451Z,74273,-0.03613895,-0.021652982,-0.03241755
1732438866453,2024-11-24T09:01:06.453Z,74275,-0.03613895,-0.021652982,-0.03241755
1732438866472,2024-11-24T09:01:06.472Z,74294,-0.04301913,-0.036971733,-0.04453328
1732438866475,2024-11-24T09:01:06.475Z,74297,-0.04301913,-0.036971733,-0.04453328
1732438866515,2024-11-24T09:01:06.515Z,74337,-0.04837262,-0.042599652,-0.057396572
1732438866517,2024-11-24T09:01:06.517Z,74339,-0.04837262,-0.042599652,-0.057396572
1732438866526,2024-11-24T09:01:06.526Z,74348,-0.028767673,-0.034022987,-0.023622466
1732438866529,2024-11-24T09:01:06.529Z,74351,-0.028767673,-0.034022987,-0.023622466
1732438866538,2024-11-24T09:01:06.538Z,74360,-0.032031186,-0.05395945,-0.069401145
1732438866541,2024-11-24T09:01:06.541Z,74363,-0.032031186,-0.05395945,-0.069401145
1732438866561,2024-11-24T09:01:06.561Z,74383,-0.00919426,-0.039631944,-0.044166386
1732438866564,2024-11-24T09:01:06.564Z,74386,-0.00919426,-0.039631944,-0.044166386
1732438866573,2024-11-24T09:01:06.573Z,74395,0.0040434627,-0.06547766,-0.019765306
1732438866575,2024-11-24T09:01:06.575Z,74397,0.0040434627,-0.06547766,-0.019765306
1732438866584,2024-11-24T09:01:06.584Z,74406,-0.011295322,-0.040760797,0.00204828
1732438866587,2024-11-24T09:01:06.587Z,74409,-0.011295322,-0.040760797,0.00204828
1732438866608,2024-11-24T09:01:06.608Z,74430,0.011955634,-0.048390172,0.009085052
1732438866611,2024-11-24T09:01:06.611Z,74433,0.011955634,-0.048390172,0.009085052
1732438866621,2024-11-24T09:01:06.621Z,74443,0.038513135,-0.04467356,0.0047742063
1732438866623,2024-11-24T09:01:06.623Z,74445,0.038513135,-0.04467356,0.0047742063
1732438866632,2024-11-24T09:01:06.632Z,74454,0.057755977,-0.039016757,0.014638358
1732438866635,2024-11-24T09:01:06.635Z,74457,0.057755977,-0.039016757,0.014638358
1732438866651,2024-11-24T09:01:06.651Z,74473,0.017411157,-0.031664535,-0.026822183
1732438866654,2024-11-24T09:01:06.654Z,74476,0.017411157,-0.031664535,-0.026822183
1732438866662,2024-11-24T09:01:06.662Z,74484,0.05017192,-0.030470433,-0.001511035
1732438866665,2024-11-24T09:01:06.665Z,74487,0.05017192,-0.030470433,-0.001511035
1732438866673,2024-11-24T09:01:06.673Z,74495,0.03635285,-0.031783763,-0.0056138188
1732438866675,2024-11-24T09:01:06.675Z,74497,0.03635285,-0.031783763,-0.0056138188
1732438866699,2024-11-24T09:01:06.699Z,74521,0.03299457,-0.032308996,-0.0038082448
1732438866701,2024-11-24T09:01:06.701Z,74523,0.03299457,-0.032308996,-0.0038082448
1732438866710,2024-11-24T09:01:06.710Z,74532,0.039043497,-0.047827885,-0.009121325
1732438866712,2024-11-24T09:01:06.712Z,74534,0.039043497,-0.047827885,-0.009121325
1732438866744,2024-11-24T09:01:06.744Z,74566,0.015180685,-0.052416228,-0.06754758
1732438866748,2024-11-24T09:01:06.748Z,74570,0.015180685,-0.052416228,-0.06754758
1732438866760,2024-11-24T09:01:06.760Z,74582,0.012480577,-0.06428288,-0.057055112
1732438866763,2024-11-24T09:01:06.763Z,74585,0.012480577,-0.06428288,-0.057055112
1732438866785,2024-11-24T09:01:06.785Z,74607,0.020646978,-0.07569743,-0.019733433
1732438866788,2024-11-24T09:01:06.788Z,74610,0.020646978,-0.07569743,-0.019733433
1732438866800,2024-11-24T09:01:06.800Z,74622,-0.00875385,-0.0552297,-0.05614757
1732438866803,2024-11-24T09:01:06.803Z,74625,-0.00875385,-0.0552297,-0.05614757
1732438866813,2024-11-24T09:01:06.813Z,74635,0.012047898,-0.05304124,-0.04203547
1732438866816,2024-11-24T09:01:06.816Z,74638,0.012047898,-0.05304124,-0.04203547
1732438866838,2024-11-24T09:01:06.838Z,74660,0.056108236,-0.043113414,0.02176511
1732438866846,2024-11-24T09:01:06.846Z,74668,0.056108236,-0.043113414,0.02176511
1732438866868,2024-11-24T09:01:06.868Z,74690,0.04182921,-0.017736232,-0.011998715
1732438866875,2024-11-24T09:01:06.875Z,74697,0.04182921,-0.017736232,-0.011998715
1732438866895,2024-11-24T09:01:06.895Z,74717,0.05895633,-0.0146421995,-0.032645572
1732438866902,2024-11-24T09:01:06.902Z,74724,0.05895633,-0.0146421995,-0.032645572
1732438866922,2024-11-24T09:01:06.922Z,74744,0.06959695,-0.02373447,-0.01415353
1732438866928,2024-11-24T09:01:06.928Z,74750,0.06959695,-0.02373447,-0.01415353
1732438866946,2024-11-24T09:01:06.946Z,74768,0.04942744,-0.016474152,0.029462582
1732438866949,2024-11-24T09:01:06.949Z,74771,0.04942744,-0.016474152,0.029462582
1732438866962,2024-11-24T09:01:06.962Z,74784,0.03337308,-0.0147807775,0.039855372
1732438866966,2024-11-24T09:01:06.966Z,74788,0.03337308,-0.0147807775,0.039855372
1732438866977,2024-11-24T09:01:06.977Z,74799,0.042238183,-0.0072586667,0.05471334
1732438866980,2024-11-24T09:01:06.980Z,74802,0.042238183,-0.0072586667,0.05471334
1732438866991,2024-11-24T09:01:06.991Z,74813,0.011510726,-0.0061488757,-0.0089485645
1732438866994,2024-11-24T09:01:06.994Z,74816,0.011510726,-0.0061488757,-0.0089485645
1732438867004,2024-11-24T09:01:07.004Z,74826,-0.015948309,-0.02099053,0.02393536
1732438867006,2024-11-24T09:01:07.006Z,74828,-0.015948309,-0.02099053,0.02393536
1732438867014,2024-11-24T09:01:07.014Z,74836,-0.004469967,-0.021645786,0.026603328
1732438867017,2024-11-24T09:01:07.017Z,74839,-0.004469967,-0.021645786,0.026603328
1732438867027,2024-11-24T09:01:07.027Z,74849,0.005290203,-0.032981757,0.06602532
1732438867031,2024-11-24T09:01:07.031Z,74853,0.005290203,-0.032981757,0.06602532
1732438867046,2024-11-24T09:01:07.046Z,74868,-0.025041578,-0.013438079,0.02995599
1732438867050,2024-11-24T09:01:07.050Z,74872,-0.025041578,-0.013438079,0.02995599
1732438867062,2024-11-24T09:01:07.062Z,74884,-0.037481457,-0.015366306,0.017967027
1732438867066,2024-11-24T09:01:07.066Z,74888,-0.037481457,-0.015366306,0.017967027
1732438867074,2024-11-24T09:01:07.074Z,74896,0.02570381,-0.014898058,0.08427751
1732438867076,2024-11-24T09:01:07.076Z,74898,0.02570381,-0.014898058,0.08427751
1732438867085,2024-11-24T09:01:07.085Z,74907,-0.0010799601,-2.4749542E-4,0.09159156
1732438867088,2024-11-24T09:01:07.088Z,74910,-0.0010799601,-2.4749542E-4,0.09159156
1732438867096,2024-11-24T09:01:07.096Z,74918,-0.025529543,0.009039856,0.059931725
1732438867099,2024-11-24T09:01:07.099Z,74921,-0.025529543,0.009039856,0.059931725
1732438867108,2024-11-24T09:01:07.108Z,74930,-0.0066955294,1.0152662E-4,0.04908909
1732438867110,2024-11-24T09:01:07.110Z,74932,-0.0066955294,1.0152662E-4,0.04908909
1732438867118,2024-11-24T09:01:07.118Z,74940,-0.011097302,0.0061714374,0.053330135
1732438867122,2024-11-24T09:01:07.122Z,74944,-0.011097302,0.0061714374,0.053330135
1732438867130,2024-11-24T09:01:07.130Z,74952,0.0022519897,-0.0068620904,0.0565891
1732438867135,2024-11-24T09:01:07.135Z,74957,0.0022519897,-0.0068620904,0.0565891
1732438867144,2024-11-24T09:01:07.144Z,74966,-0.006646103,0.010792065,0.06420379
1732438867147,2024-11-24T09:01:07.147Z,74969,-0.006646103,0.010792065,0.06420379
1732438867155,2024-11-24T09:01:07.155Z,74977,0.02107088,-0.005358738,0.03706752
1732438867158,2024-11-24T09:01:07.158Z,74980,0.02107088,-0.005358738,0.03706752
1732438867167,2024-11-24T09:01:07.167Z,74989,0.013961003,-0.018239878,-0.018220624
1732438867169,2024-11-24T09:01:07.169Z,74991,0.013961003,-0.018239878,-0.018220624
1732438867176,2024-11-24T09:01:07.176Z,74998,-0.0060909404,-0.023830358,0.015651096
1732438867179,2024-11-24T09:01:07.179Z,75001,-0.0060909404,-0.023830358,0.015651096
1732438867242,2024-11-24T09:01:07.242Z,75064,0.03859684,0.023616023,0.02171685
1732438867247,2024-11-24T09:01:07.247Z,75069,0.03859684,0.023616023,0.02171685
1732438867264,2024-11-24T09:01:07.264Z,75086,0.021270385,0.029448748,0.030239664
1732438867269,2024-11-24T09:01:07.269Z,75091,0.021270385,0.029448748,0.030239664
1732438867281,2024-11-24T09:01:07.281Z,75103,0.06160324,0.040140357,0.05344
1732438867285,2024-11-24T09:01:07.285Z,75107,0.06160324,0.040140357,0.05344
1732438867296,2024-11-24T09:01:07.296Z,75118,0.04836693,0.034816433,0.030538822
1732438867299,2024-11-24T09:01:07.299Z,75121,0.04836693,0.034816433,0.030538822
1732438867309,2024-11-24T09:01:07.309Z,75131,0.07413356,0.04605399,0.05343531
1732438867312,2024-11-24T09:01:07.312Z,75134,0.07413356,0.04605399,0.05343531
1732438867323,2024-11-24T09:01:07.323Z,75145,0.030710027,0.030120632,0.01800138
1732438867326,2024-11-24T09:01:07.326Z,75148,0.030710027,0.030120632,0.01800138
1732438867334,2024-11-24T09:01:07.334Z,75156,-0.026183777,0.03257633,-0.038780734
1732438867336,2024-11-24T09:01:07.336Z,75158,-0.026183777,0.03257633,-0.038780734
1732438867343,2024-11-24T09:01:07.343Z,75165,-0.0020045429,0.046715274,0.030856188
1732438867346,2024-11-24T09:01:07.346Z,75168,-0.0020045429,0.046715274,0.030856188
1732438867369,2024-11-24T09:01:07.369Z,75191,-1.9021652E-4,0.07012377,0.0032105118
1732438867371,2024-11-24T09:01:07.371Z,75193,-1.9021652E-4,0.07012377,0.0032105118
1732438867380,2024-11-24T09:01:07.380Z,75202,-0.00763927,0.025179768,-0.010505671
1732438867383,2024-11-24T09:01:07.383Z,75205,-0.00763927,0.025179768,-0.010505671
1732438867416,2024-11-24T09:01:07.416Z,75238,0.050529327,0.07577221,0.035037402
1732438867419,2024-11-24T09:01:07.419Z,75241,0.050529327,0.07577221,0.035037402
1732438867427,2024-11-24T09:01:07.427Z,75249,0.02292965,0.06696341,0.004547084
1732438867430,2024-11-24T09:01:07.430Z,75252,0.02292965,0.06696341,0.004547084
1732438867438,2024-11-24T09:01:07.438Z,75260,-0.014217056,0.11398745,-0.043673243
1732438867440,2024-11-24T09:01:07.440Z,75262,-0.014217056,0.11398745,-0.043673243
1732438867460,2024-11-24T09:01:07.460Z,75282,0.031186977,0.12231944,-0.014795851
1732438867464,2024-11-24T09:01:07.464Z,75286,0.031186977,0.12231944,-0.014795851
1732438867510,2024-11-24T09:01:07.510Z,75332,0.024310883,0.091579534,-0.03232762
1732438867516,2024-11-24T09:01:07.516Z,75338,0.024310883,0.091579534,-0.03232762
1732438867535,2024-11-24T09:01:07.535Z,75357,0.00215941,0.057064474,-0.017556518
1732438867540,2024-11-24T09:01:07.540Z,75362,0.00215941,0.057064474,-0.017556518
1732438867557,2024-11-24T09:01:07.557Z,75379,0.004910961,0.030846197,-0.01254239
1732438867562,2024-11-24T09:01:07.562Z,75384,0.004910961,0.030846197,-0.01254239
1732438867576,2024-11-24T09:01:07.576Z,75398,-0.042528175,0.06641756,-0.07403555
1732438867580,2024-11-24T09:01:07.580Z,75402,-0.042528175,0.06641756,-0.07403555
1732438867592,2024-11-24T09:01:07.592Z,75414,-0.058947213,0.016711047,-0.1039868
1732438867595,2024-11-24T09:01:07.595Z,75417,-0.058947213,0.016711047,-0.1039868
1732438867607,2024-11-24T09:01:07.607Z,75429,-0.020658333,0.012367965,-0.030406296
1732438867610,2024-11-24T09:01:07.610Z,75432,-0.020658333,0.012367965,-0.030406296
1732438867620,2024-11-24T09:01:07.620Z,75442,0.011999541,-0.004733046,0.062241632
1732438867623,2024-11-24T09:01:07.623Z,75445,0.011999541,-0.004733046,0.062241632
1732438867633,2024-11-24T09:01:07.633Z,75455,-0.054407496,0.015234729,-0.0646305
1732438867636,2024-11-24T09:01:07.636Z,75458,-0.054407496,0.015234729,-0.0646305
1732438867654,2024-11-24T09:01:07.654Z,75476,-0.02129827,0.026780076,0.0128609985
1732438867660,2024-11-24T09:01:07.660Z,75482,-0.02129827,0.026780076,0.0128609985
1732438867678,2024-11-24T09:01:07.678Z,75500,0.09601217,0.10619159,0.09695875
1732438867685,2024-11-24T09:01:07.685Z,75507,0.09601217,0.10619159,0.09695875
1732438867702,2024-11-24T09:01:07.702Z,75524,-0.06465702,0.18127494,0.0107324645
1732438867707,2024-11-24T09:01:07.707Z,75529,-0.06465702,0.18127494,0.0107324645
1732438867723,2024-11-24T09:01:07.723Z,75545,0.028179726,0.20859289,0.07232442
1732438867729,2024-11-24T09:01:07.729Z,75551,0.028179726,0.20859289,0.07232442
1732438867745,2024-11-24T09:01:07.745Z,75567,0.028368568,0.2249948,0.037381817
1732438867751,2024-11-24T09:01:07.751Z,75573,0.028368568,0.2249948,0.037381817
1732438867768,2024-11-24T09:01:07.768Z,75590,0.030474395,0.29448655,0.053950544
1732438867774,2024-11-24T09:01:07.774Z,75596,0.030474395,0.29448655,0.053950544
1732438867787,2024-11-24T09:01:07.787Z,75609,0.03277722,0.29394954,-0.01391602
1732438867791,2024-11-24T09:01:07.791Z,75613,0.03277722,0.29394954,-0.01391602
1732438867803,2024-11-24T09:01:07.803Z,75625,0.017958103,0.27567062,-0.040418956
1732438867809,2024-11-24T09:01:07.809Z,75631,0.017958103,0.27567062,-0.040418956
1732438867831,2024-11-24T09:01:07.831Z,75653,-0.027262777,0.2585555,-0.013601004
1732438867836,2024-11-24T09:01:07.836Z,75658,-0.027262777,0.2585555,-0.013601004
1732438867852,2024-11-24T09:01:07.852Z,75674,-0.007005093,0.22070879,-0.005920921
1732438867857,2024-11-24T09:01:07.857Z,75679,-0.007005093,0.22070879,-0.005920921
1732438867869,2024-11-24T09:01:07.869Z,75691,0.030577028,0.19147165,0.014704669
1732438867873,2024-11-24T09:01:07.873Z,75695,0.030577028,0.19147165,0.014704669
1732438867885,2024-11-24T09:01:07.885Z,75707,-0.09699088,0.069515094,-0.12190499
1732438867889,2024-11-24T09:01:07.889Z,75711,-0.09699088,0.069515094,-0.12190499
1732438867901,2024-11-24T09:01:07.901Z,75723,-0.1362043,0.016774356,-0.11763987
1732438867904,2024-11-24T09:01:07.904Z,75726,-0.1362043,0.016774356,-0.11763987
1732438867915,2024-11-24T09:01:07.915Z,75737,-0.057611868,-0.017924698,-0.035882328
1732438867918,2024-11-24T09:01:07.918Z,75740,-0.057611868,-0.017924698,-0.035882328
1732438867929,2024-11-24T09:01:07.929Z,75751,-0.13711977,-0.050690662,3.0782548E-4
1732438867932,2024-11-24T09:01:07.932Z,75754,-0.13711977,-0.050690662,3.0782548E-4
1732438867942,2024-11-24T09:01:07.942Z,75764,-0.13046281,-0.049184296,-0.04871146
1732438867945,2024-11-24T09:01:07.945Z,75767,-0.13046281,-0.049184296,-0.04871146
1732438867957,2024-11-24T09:01:07.957Z,75779,-0.08456233,-0.05639716,-0.088623494
1732438867959,2024-11-24T09:01:07.959Z,75781,-0.08456233,-0.05639716,-0.088623494
1732438867966,2024-11-24T09:01:07.966Z,75788,-0.01685901,0.012763763,0.05187615
1732438867968,2024-11-24T09:01:07.968Z,75790,-0.01685901,0.012763763,0.05187615
1732438867975,2024-11-24T09:01:07.975Z,75797,0.015866354,0.014607676,0.04024595
1732438867977,2024-11-24T09:01:07.977Z,75799,0.015866354,0.014607676,0.04024595
1732438867984,2024-11-24T09:01:07.984Z,75806,0.06657901,0.02819046,0.043207485
1732438867986,2024-11-24T09:01:07.986Z,75808,0.06657901,0.02819046,0.043207485
1732438867997,2024-11-24T09:01:07.997Z,75819,0.0070359935,0.022244442,4.639567E-4
1732438868002,2024-11-24T09:01:08.002Z,75824,0.0070359935,0.022244442,4.639567E-4
1732438868019,2024-11-24T09:01:08.019Z,75841,0.016878411,0.0120046465,0.026435697
1732438868024,2024-11-24T09:01:08.024Z,75846,0.016878411,0.0120046465,0.026435697
1732438868043,2024-11-24T09:01:08.043Z,75865,0.04842027,0.02379389,0.032869656
1732438868049,2024-11-24T09:01:08.049Z,75871,0.04842027,0.02379389,0.032869656
1732438868065,2024-11-24T09:01:08.065Z,75887,0.04237541,0.011409199,0.00457218
1732438868068,2024-11-24T09:01:08.068Z,75890,0.04237541,0.011409199,0.00457218
1732438868077,2024-11-24T09:01:08.077Z,75899,0.052616995,0.0052913455,-0.005563116
1732438868080,2024-11-24T09:01:08.080Z,75902,0.052616995,0.0052913455,-0.005563116
1732438868091,2024-11-24T09:01:08.091Z,75913,0.011569099,0.005905562,-0.047337588
1732438868094,2024-11-24T09:01:08.094Z,75916,0.011569099,0.005905562,-0.047337588
1732438868103,2024-11-24T09:01:08.103Z,75925,-0.04325481,-0.018352492,-0.05652219
1732438868105,2024-11-24T09:01:08.105Z,75927,-0.04325481,-0.018352492,-0.05652219
1732438868115,2024-11-24T09:01:08.115Z,75937,-0.027783526,-0.012087599,-0.0048778662
1732438868118,2024-11-24T09:01:08.118Z,75940,-0.027783526,-0.012087599,-0.0048778662
1732438868125,2024-11-24T09:01:08.125Z,75947,-0.04285877,-0.0015944735,-0.014927658
1732438868128,2024-11-24T09:01:08.128Z,75950,-0.04285877,-0.0015944735,-0.014927658
1732438868137,2024-11-24T09:01:08.137Z,75959,-0.05310846,-0.0067094117,-0.050965607
1732438868139,2024-11-24T09:01:08.139Z,75961,-0.05310846,-0.0067094117,-0.050965607
1732438868146,2024-11-24T09:01:08.146Z,75968,-0.0031543756,0.07650439,0.010528232
1732438868149,2024-11-24T09:01:08.149Z,75971,-0.0031543756,0.07650439,0.010528232
1732438868156,2024-11-24T09:01:08.156Z,75978,0.002148433,0.087276615,0.010263165
1732438868158,2024-11-24T09:01:08.158Z,75980,0.002148433,0.087276615,0.010263165
1732438868165,2024-11-24T09:01:08.165Z,75987,0.009242082,0.09552176,-0.0013615531
1732438868167,2024-11-24T09:01:08.167Z,75989,0.009242082,0.09552176,-0.0013615531
1732438868174,2024-11-24T09:01:08.174Z,75996,-0.024605751,0.05419168,-0.060460538
1732438868176,2024-11-24T09:01:08.176Z,75998,-0.024605751,0.05419168,-0.060460538
1732438868184,2024-11-24T09:01:08.184Z,76006,0.017612023,0.039852794,2.0977548E-4
1732438868186,2024-11-24T09:01:08.186Z,76008,0.017612023,0.039852794,2.0977548E-4
1732438868194,2024-11-24T09:01:08.194Z,76016,-0.013013519,0.040668506,-0.019211924
1732438868198,2024-11-24T09:01:08.198Z,76020,-0.013013519,0.040668506,-0.019211924
1732438868211,2024-11-24T09:01:08.211Z,76033,-0.009230911,-0.011037616,-0.05418376
1732438868215,2024-11-24T09:01:08.215Z,76037,-0.009230911,-0.011037616,-0.05418376
1732438868230,2024-11-24T09:01:08.230Z,76052,-0.031653862,-0.023361236,-0.041300926
1732438868235,2024-11-24T09:01:08.235Z,76057,-0.031653862,-0.023361236,-0.041300926
1732438868243,2024-11-24T09:01:08.243Z,76065,-0.020395387,-0.04104223,-0.029571863
1732438868246,2024-11-24T09:01:08.246Z,76068,-0.020395387,-0.04104223,-0.029571863
1732438868255,2024-11-24T09:01:08.255Z,76077,-0.0024726084,-0.035304908,0.009332833
1732438868258,2024-11-24T09:01:08.258Z,76080,-0.0024726084,-0.035304908,0.009332833
1732438868272,2024-11-24T09:01:08.272Z,76094,-0.0011749226,-0.018241629,0.006813369
1732438868279,2024-11-24T09:01:08.279Z,76101,-0.0011749226,-0.018241629,0.006813369
1732438868299,2024-11-24T09:01:08.299Z,76121,-0.0058087152,-0.01141377,-0.006016552
1732438868306,2024-11-24T09:01:08.306Z,76128,-0.0058087152,-0.01141377,-0.006016552
1732438868324,2024-11-24T09:01:08.324Z,76146,-0.0012086311,0.037429966,0.020946557
1732438868329,2024-11-24T09:01:08.329Z,76151,-0.0012086311,0.037429966,0.020946557
1732438868343,2024-11-24T09:01:08.343Z,76165,0.0023344436,0.05108821,0.012956796
1732438868347,2024-11-24T09:01:08.347Z,76169,0.0023344436,0.05108821,0.012956796
1732438868358,2024-11-24T09:01:08.358Z,76180,-0.009741729,0.05790051,0.009987285
1732438868362,2024-11-24T09:01:08.362Z,76184,-0.009741729,0.05790051,0.009987285
1732438868372,2024-11-24T09:01:08.372Z,76194,-0.014730452,0.083158754,0.024025558
1732438868375,2024-11-24T09:01:08.375Z,76197,-0.014730452,0.083158754,0.024025558
1732438868385,2024-11-24T09:01:08.385Z,76207,0.0065709064,0.07964481,0.03724926
1732438868388,2024-11-24T09:01:08.388Z,76210,0.0065709064,0.07964481,0.03724926
1732438868398,2024-11-24T09:01:08.398Z,76220,-0.009160431,0.08489337,0.017427975
1732438868401,2024-11-24T09:01:08.401Z,76223,-0.009160431,0.08489337,0.017427975
1732438868411,2024-11-24T09:01:08.411Z,76233,-0.03835361,0.08112472,0.019867234
1732438868414,2024-11-24T09:01:08.414Z,76236,-0.03835361,0.08112472,0.019867234
1732438868422,2024-11-24T09:01:08.422Z,76244,-0.074226126,0.07647823,-0.028499221
1732438868425,2024-11-24T09:01:08.425Z,76247,-0.074226126,0.07647823,-0.028499221
1732438868432,2024-11-24T09:01:08.432Z,76254,-0.07483576,0.07764802,-0.019481665
1732438868434,2024-11-24T09:01:08.434Z,76256,-0.07483576,0.07764802,-0.019481665
1732438868455,2024-11-24T09:01:08.455Z,76277,-0.0629059,0.13603643,0.060964428
1732438868459,2024-11-24T09:01:08.459Z,76281,-0.0629059,0.13603643,0.060964428
1732438868474,2024-11-24T09:01:08.474Z,76296,-0.064347915,0.1649295,0.04810437
1732438868480,2024-11-24T09:01:08.480Z,76302,-0.064347915,0.1649295,0.04810437
1732438868498,2024-11-24T09:01:08.498Z,76320,-0.024830015,0.20241737,0.026234316
1732438868502,2024-11-24T09:01:08.502Z,76324,-0.024830015,0.20241737,0.026234316
1732438868515,2024-11-24T09:01:08.515Z,76337,-0.045534566,0.12050703,-0.12779294
1732438868518,2024-11-24T09:01:08.518Z,76340,-0.045534566,0.12050703,-0.12779294
1732438868530,2024-11-24T09:01:08.530Z,76352,0.027652072,0.12879127,0.03211054
1732438868533,2024-11-24T09:01:08.533Z,76355,0.027652072,0.12879127,0.03211054
1732438868542,2024-11-24T09:01:08.542Z,76364,-0.01140103,0.13227314,0.062435742
1732438868545,2024-11-24T09:01:08.545Z,76367,-0.01140103,0.13227314,0.062435742
1732438868553,2024-11-24T09:01:08.553Z,76375,-0.048134554,0.10657338,0.104006805
1732438868556,2024-11-24T09:01:08.556Z,76378,-0.048134554,0.10657338,0.104006805
1732438868563,2024-11-24T09:01:08.563Z,76385,-0.007952189,0.12954037,0.10138005
1732438868565,2024-11-24T09:01:08.565Z,76387,-0.007952189,0.12954037,0.10138005
1732438868586,2024-11-24T09:01:08.586Z,76408,-0.036340546,0.13478455,-0.0015798256
1732438868588,2024-11-24T09:01:08.588Z,76410,-0.036340546,0.13478455,-0.0015798256
1732438868596,2024-11-24T09:01:08.596Z,76418,-0.008744053,0.10234252,-0.0028012325
1732438868598,2024-11-24T09:01:08.598Z,76420,-0.008744053,0.10234252,-0.0028012325
1732438868608,2024-11-24T09:01:08.608Z,76430,0.038903803,0.09848218,-0.020739254
1732438868610,2024-11-24T09:01:08.610Z,76432,0.038903803,0.09848218,-0.020739254
1732438868618,2024-11-24T09:01:08.618Z,76440,-0.030005783,0.052676268,-0.08946686
1732438868620,2024-11-24T09:01:08.620Z,76442,-0.030005783,0.052676268,-0.08946686
1732438868632,2024-11-24T09:01:08.632Z,76454,-0.05778914,0.006500815,-0.04427314
1732438868638,2024-11-24T09:01:08.638Z,76460,-0.05778914,0.006500815,-0.04427314
1732438868649,2024-11-24T09:01:08.649Z,76471,0.036891043,0.038274366,0.14781767
1732438868652,2024-11-24T09:01:08.652Z,76474,0.036891043,0.038274366,0.14781767
1732438868661,2024-11-24T09:01:08.661Z,76483,0.02914159,0.10054704,0.13226125
1732438868664,2024-11-24T09:01:08.664Z,76486,0.02914159,0.10054704,0.13226125
1732438868672,2024-11-24T09:01:08.672Z,76494,0.0063229734,0.123217426,0.0078749135
1732438868675,2024-11-24T09:01:08.675Z,76497,0.0063229734,0.123217426,0.0078749135
1732438868682,2024-11-24T09:01:08.682Z,76504,-0.059782572,0.006558969,-0.13906536
1732438868684,2024-11-24T09:01:08.684Z,76506,-0.059782572,0.006558969,-0.13906536
1732438868693,2024-11-24T09:01:08.693Z,76515,-0.033492576,-0.025026117,-0.07768355
1732438868695,2024-11-24T09:01:08.695Z,76517,-0.033492576,-0.025026117,-0.07768355
1732438868704,2024-11-24T09:01:08.704Z,76526,0.025956558,0.01341892,0.031222764
1732438868706,2024-11-24T09:01:08.706Z,76528,0.025956558,0.01341892,0.031222764
1732438868720,2024-11-24T09:01:08.720Z,76542,0.0075227916,0.04819451,0.102272615
1732438868723,2024-11-24T09:01:08.723Z,76545,0.0075227916,0.04819451,0.102272615
1732438868730,2024-11-24T09:01:08.730Z,76552,0.035577808,0.08943707,0.07513131
1732438868732,2024-11-24T09:01:08.732Z,76554,0.035577808,0.08943707,0.07513131
1732438868739,2024-11-24T09:01:08.739Z,76561,0.073435664,0.09880922,0.052337054
1732438868742,2024-11-24T09:01:08.742Z,76564,0.073435664,0.09880922,0.052337054
1732438868767,2024-11-24T09:01:08.767Z,76589,-0.041836623,0.06831817,-0.12726717
1732438868770,2024-11-24T09:01:08.770Z,76592,-0.041836623,0.06831817,-0.12726717
1732438868778,2024-11-24T09:01:08.778Z,76600,-0.0442789,0.038847838,-0.08567857
1732438868780,2024-11-24T09:01:08.780Z,76602,-0.0442789,0.038847838,-0.08567857
1732438868788,2024-11-24T09:01:08.788Z,76610,0.059003618,0.06807496,0.046534188
1732438868790,2024-11-24T09:01:08.790Z,76612,0.059003618,0.06807496,0.046534188
1732438868814,2024-11-24T09:01:08.814Z,76636,-0.015068679,0.068360284,0.09038685
1732438868817,2024-11-24T09:01:08.817Z,76639,-0.015068679,0.068360284,0.09038685
1732438868827,2024-11-24T09:01:08.827Z,76649,-1.1694037E-5,0.06954223,-0.011482889
1732438868829,2024-11-24T09:01:08.829Z,76651,-1.1694037E-5,0.06954223,-0.011482889
1732438868837,2024-11-24T09:01:08.837Z,76659,0.043132912,0.027747398,-0.0437852
1732438868840,2024-11-24T09:01:08.840Z,76662,0.043132912,0.027747398,-0.0437852
1732438868859,2024-11-24T09:01:08.859Z,76681,0.010483668,0.024231698,-0.036613256
1732438868861,2024-11-24T09:01:08.861Z,76683,0.010483668,0.024231698,-0.036613256
1732438868903,2024-11-24T09:01:08.903Z,76725,-0.025835898,-0.0018441085,-0.04571547
1732438868907,2024-11-24T09:01:08.907Z,76729,-0.025835898,-0.0018441085,-0.04571547
1732438868917,2024-11-24T09:01:08.917Z,76739,0.0066627814,0.010264302,-0.03562833
1732438868921,2024-11-24T09:01:08.921Z,76743,0.0066627814,0.010264302,-0.03562833
1732438868931,2024-11-24T09:01:08.931Z,76753,0.052088015,0.05541457,0.015934816
1732438868934,2024-11-24T09:01:08.934Z,76756,0.052088015,0.05541457,0.015934816
1732438868945,2024-11-24T09:01:08.945Z,76767,0.06539036,0.034174502,0.001654913
1732438868948,2024-11-24T09:01:08.948Z,76770,0.06539036,0.034174502,0.001654913
1732438868959,2024-11-24T09:01:08.959Z,76781,0.07244648,0.049950607,0.011957871
1732438868962,2024-11-24T09:01:08.962Z,76784,0.07244648,0.049950607,0.011957871
1732438868972,2024-11-24T09:01:08.972Z,76794,0.052666176,0.06860807,-0.012791235
1732438868975,2024-11-24T09:01:08.975Z,76797,0.052666176,0.06860807,-0.012791235
1732438868983,2024-11-24T09:01:08.983Z,76805,0.035139926,8.961377E-4,-0.029117716
1732438868986,2024-11-24T09:01:08.986Z,76808,0.035139926,8.961377E-4,-0.029117716
1732438868995,2024-11-24T09:01:08.995Z,76817,-0.013634033,0.009381098,-0.0545398
1732438868997,2024-11-24T09:01:08.997Z,76819,-0.013634033,0.009381098,-0.0545398
1732438869005,2024-11-24T09:01:09.005Z,76827,-0.010298776,-0.017745277,0.058290426
1732438869008,2024-11-24T09:01:09.008Z,76830,-0.010298776,-0.017745277,0.058290426
1732438869015,2024-11-24T09:01:09.015Z,76837,-0.030965252,-0.015108697,0.044708736
1732438869017,2024-11-24T09:01:09.017Z,76839,-0.030965252,-0.015108697,0.044708736
1732438869038,2024-11-24T09:01:09.038Z,76860,0.023471538,-0.0033205233,0.015109256
1732438869040,2024-11-24T09:01:09.040Z,76862,0.023471538,-0.0033205233,0.015109256
1732438869048,2024-11-24T09:01:09.048Z,76870,-0.01076187,-0.03335898,-0.036813416
1732438869051,2024-11-24T09:01:09.051Z,76873,-0.01076187,-0.03335898,-0.036813416
1732438869059,2024-11-24T09:01:09.059Z,76881,-0.012203761,-0.016733414,-0.029595105
1732438869061,2024-11-24T09:01:09.061Z,76883,-0.012203761,-0.016733414,-0.029595105
1732438869082,2024-11-24T09:01:09.082Z,76904,0.016019616,-0.046905003,-0.010286571
1732438869084,2024-11-24T09:01:09.084Z,76906,0.016019616,-0.046905003,-0.010286571
1732438869094,2024-11-24T09:01:09.094Z,76916,-0.034279067,-0.047876313,-0.044964205
1732438869096,2024-11-24T09:01:09.096Z,76918,-0.034279067,-0.047876313,-0.044964205
1732438869105,2024-11-24T09:01:09.105Z,76927,-0.06960245,-0.024257373,-0.04484588
1732438869108,2024-11-24T09:01:09.108Z,76930,-0.06960245,-0.024257373,-0.04484588
1732438869173,2024-11-24T09:01:09.173Z,76995,-0.004675354,-0.03229937,0.014081007
1732438869178,2024-11-24T09:01:09.178Z,77000,-0.004675354,-0.03229937,0.014081007
1732438869194,2024-11-24T09:01:09.194Z,77016,-0.016885461,0.021445358,-0.0064680185
1732438869201,2024-11-24T09:01:09.201Z,77023,-0.016885461,0.021445358,-0.0064680185
1732438869221,2024-11-24T09:01:09.221Z,77043,-4.8045232E-4,0.031172268,-0.044181436
1732438869227,2024-11-24T09:01:09.227Z,77049,-4.8045232E-4,0.031172268,-0.044181436
1732438869240,2024-11-24T09:01:09.240Z,77062,0.05501719,0.020748967,-0.014117354
1732438869245,2024-11-24T09:01:09.245Z,77067,0.05501719,0.020748967,-0.014117354
1732438869261,2024-11-24T09:01:09.261Z,77083,0.051417418,-0.007452287,-0.037703693
1732438869267,2024-11-24T09:01:09.267Z,77089,0.051417418,-0.007452287,-0.037703693
1732438869279,2024-11-24T09:01:09.279Z,77101,0.02295576,-0.01933586,-0.060489025
1732438869283,2024-11-24T09:01:09.283Z,77105,0.02295576,-0.01933586,-0.060489025
1732438869294,2024-11-24T09:01:09.294Z,77116,-0.011031197,-0.012456751,-0.020280087
1732438869297,2024-11-24T09:01:09.297Z,77119,-0.011031197,-0.012456751,-0.020280087
1732438869307,2024-11-24T09:01:09.307Z,77129,0.04310043,0.023274977,0.066346526
1732438869311,2024-11-24T09:01:09.311Z,77133,0.04310043,0.023274977,0.066346526
1732438869320,2024-11-24T09:01:09.320Z,77142,0.030029463,0.016581709,0.0418587
1732438869323,2024-11-24T09:01:09.323Z,77145,0.030029463,0.016581709,0.0418587
1732438869332,2024-11-24T09:01:09.332Z,77154,0.019571345,0.008966239,-0.038675174
1732438869335,2024-11-24T09:01:09.335Z,77157,0.019571345,0.008966239,-0.038675174
1732438869343,2024-11-24T09:01:09.343Z,77165,0.016481712,-0.022215657,-0.01676699
1732438869345,2024-11-24T09:01:09.345Z,77167,0.016481712,-0.022215657,-0.01676699
1732438869353,2024-11-24T09:01:09.353Z,77175,0.021429531,-0.060838073,0.023824597
1732438869356,2024-11-24T09:01:09.356Z,77178,0.021429531,-0.060838073,0.023824597
1732438869364,2024-11-24T09:01:09.364Z,77186,-0.020314075,-0.067485735,0.009739285
1732438869366,2024-11-24T09:01:09.366Z,77188,-0.020314075,-0.067485735,0.009739285
1732438869373,2024-11-24T09:01:09.373Z,77195,0.011445108,-0.06189642,0.042707257
1732438869375,2024-11-24T09:01:09.375Z,77197,0.011445108,-0.06189642,0.042707257
