Timestamp (ms),ISO DateTime,Elapsed Time (ms),Acceleration X,Acceleration Y,Acceleration Z
1732371679362,2024-11-23T14:21:19.362Z,120289,-0.20325583,-0.53588974,-0.87286466
1732371679365,2024-11-23T14:21:19.365Z,120292,-0.20325583,-0.53588974,-0.87286466
1732371679392,2024-11-23T14:21:19.392Z,120319,-0.20599668,-0.50021887,-0.8758946
1732371679396,2024-11-23T14:21:19.396Z,120323,-0.20599668,-0.50021887,-0.8758946
1732371679417,2024-11-23T14:21:19.417Z,120344,-0.20932627,-0.5012264,-0.87341136
1732371679420,2024-11-23T14:21:19.420Z,120347,-0.20932627,-0.5012264,-0.87341136
1732371679452,2024-11-23T14:21:19.452Z,120379,-0.15916596,-0.4369596,-0.861637
1732371679454,2024-11-23T14:21:19.454Z,120381,-0.15916596,-0.4369596,-0.861637
1732371679471,2024-11-23T14:21:19.471Z,120398,-0.16863398,-0.445351,-0.8846207
1732371679474,2024-11-23T14:21:19.474Z,120401,-0.16863398,-0.445351,-0.8846207
1732371679506,2024-11-23T14:21:19.506Z,120433,-0.2201573,-0.43702647,-0.8357731
1732371679512,2024-11-23T14:21:19.512Z,120439,-0.2201573,-0.43702647,-0.8357731
1732371679554,2024-11-23T14:21:19.554Z,120481,-0.16466887,-0.51291734,-0.87032044
1732371679559,2024-11-23T14:21:19.559Z,120486,-0.16466887,-0.51291734,-0.87032044
1732371679584,2024-11-23T14:21:19.584Z,120511,-0.22163707,-0.5113308,-0.8485263
1732371679587,2024-11-23T14:21:19.587Z,120514,-0.22163707,-0.5113308,-0.8485263
1732371679610,2024-11-23T14:21:19.610Z,120537,-0.27554008,-0.52102685,-0.82586336
1732371679617,2024-11-23T14:21:19.617Z,120544,-0.27554008,-0.52102685,-0.82586336
1732371679637,2024-11-23T14:21:19.637Z,120564,-0.16497079,-0.51563877,-0.84050244
1732371679640,2024-11-23T14:21:19.640Z,120567,-0.16497079,-0.51563877,-0.84050244
1732371679655,2024-11-23T14:21:19.655Z,120582,-0.22849452,-0.49485004,-0.83735114
1732371679657,2024-11-23T14:21:19.657Z,120584,-0.22849452,-0.49485004,-0.83735114
1732371679673,2024-11-23T14:21:19.673Z,120600,-0.19113706,-0.4630152,-0.81920135
1732371679676,2024-11-23T14:21:19.676Z,120603,-0.19113706,-0.4630152,-0.81920135
1732371679693,2024-11-23T14:21:19.693Z,120620,-0.20392735,-0.44315517,-0.74382013
1732371679695,2024-11-23T14:21:19.695Z,120622,-0.20392735,-0.44315517,-0.74382013
1732371679715,2024-11-23T14:21:19.715Z,120642,-0.20407715,-0.44393927,-0.78230965
1732371679717,2024-11-23T14:21:19.717Z,120644,-0.20407715,-0.44393927,-0.78230965
1732371679753,2024-11-23T14:21:19.753Z,120680,-0.16118914,-0.44527617,-0.73197454
1732371679758,2024-11-23T14:21:19.758Z,120685,-0.16118914,-0.44527617,-0.73197454
1732371679818,2024-11-23T14:21:19.818Z,120745,-0.20623799,-0.48078376,-0.77656907
1732371679823,2024-11-23T14:21:19.823Z,120750,-0.20623799,-0.48078376,-0.77656907
1732371679850,2024-11-23T14:21:19.850Z,120777,-0.20073423,-0.4726398,-0.72735596
1732371679852,2024-11-23T14:21:19.852Z,120779,-0.20073423,-0.4726398,-0.72735596
1732371679867,2024-11-23T14:21:19.867Z,120794,-0.20081261,-0.48794878,-0.71862245
1732371679869,2024-11-23T14:21:19.869Z,120796,-0.20081261,-0.48794878,-0.71862245
1732371679907,2024-11-23T14:21:19.907Z,120834,-0.25148305,-0.46730497,-0.67391944
1732371679911,2024-11-23T14:21:19.911Z,120838,-0.25148305,-0.46730497,-0.67391944
1732371679949,2024-11-23T14:21:19.949Z,120876,-0.22184701,-0.43464598,-0.75010806
1732371679952,2024-11-23T14:21:19.952Z,120879,-0.22184701,-0.43464598,-0.75010806
1732371679973,2024-11-23T14:21:19.973Z,120900,-0.22026326,-0.44257256,-0.7506325
1732371679976,2024-11-23T14:21:19.976Z,120903,-0.22026326,-0.44257256,-0.7506325
1732371679996,2024-11-23T14:21:19.996Z,120923,-0.23497275,-0.41749674,-0.74246746
1732371679998,2024-11-23T14:21:19.998Z,120925,-0.23497275,-0.41749674,-0.74246746
1732371680015,2024-11-23T14:21:20.015Z,120942,-0.21608874,-0.40022132,-0.69903433
1732371680018,2024-11-23T14:21:20.018Z,120945,-0.21608874,-0.40022132,-0.69903433
1732371680034,2024-11-23T14:21:20.034Z,120961,-0.19824554,-0.39653805,-0.691787
1732371680036,2024-11-23T14:21:20.036Z,120963,-0.19824554,-0.39653805,-0.691787
1732371680136,2024-11-23T14:21:20.136Z,121063,-0.24292229,-0.5053139,-0.72808945
1732371680141,2024-11-23T14:21:20.141Z,121068,-0.24292229,-0.5053139,-0.72808945
1732371680166,2024-11-23T14:21:20.166Z,121093,-0.23127732,-0.652056,-0.7234243
1732371680169,2024-11-23T14:21:20.169Z,121096,-0.23127732,-0.652056,-0.7234243
1732371680204,2024-11-23T14:21:20.204Z,121131,-0.2573214,-0.6669562,-0.7151026
1732371680209,2024-11-23T14:21:20.209Z,121136,-0.2573214,-0.6669562,-0.7151026
1732371680247,2024-11-23T14:21:20.247Z,121174,-0.2797676,-0.6863112,-0.72363454
1732371680254,2024-11-23T14:21:20.254Z,121181,-0.2797676,-0.6863112,-0.72363454
1732371680298,2024-11-23T14:21:20.298Z,121225,-0.27317664,-0.663967,-0.72551507
1732371680303,2024-11-23T14:21:20.303Z,121230,-0.27317664,-0.663967,-0.72551507
1732371680332,2024-11-23T14:21:20.332Z,121259,-0.24023397,-0.63029516,-0.69567966
1732371680335,2024-11-23T14:21:20.335Z,121262,-0.24023397,-0.63029516,-0.69567966
1732371680358,2024-11-23T14:21:20.358Z,121285,-0.05358823,-0.3915473,-0.73455846
1732371680361,2024-11-23T14:21:20.361Z,121288,-0.05358823,-0.3915473,-0.73455846
1732371680402,2024-11-23T14:21:20.402Z,121329,-0.022408815,-0.39167285,-0.70728797
1732371680409,2024-11-23T14:21:20.409Z,121336,-0.022408815,-0.39167285,-0.70728797
1732371680448,2024-11-23T14:21:20.448Z,121375,-0.06211379,-0.41147935,-0.7048423
1732371680452,2024-11-23T14:21:20.452Z,121379,-0.06211379,-0.41147935,-0.7048423
1732371680476,2024-11-23T14:21:20.476Z,121403,-0.031490415,-0.43881875,-0.6865138
1732371680479,2024-11-23T14:21:20.479Z,121406,-0.031490415,-0.43881875,-0.6865138
1732371680502,2024-11-23T14:21:20.502Z,121429,-0.00893512,-0.41121498,-0.6849143
1732371680505,2024-11-23T14:21:20.505Z,121432,-0.00893512,-0.41121498,-0.6849143
1732371680527,2024-11-23T14:21:20.527Z,121454,-0.03952123,-0.42431936,-0.7606446
1732371680530,2024-11-23T14:21:20.530Z,121457,-0.03952123,-0.42431936,-0.7606446
1732371680548,2024-11-23T14:21:20.548Z,121475,-0.019816458,-0.41689873,-0.7486079
1732371680550,2024-11-23T14:21:20.550Z,121477,-0.019816458,-0.41689873,-0.7486079
1732371680565,2024-11-23T14:21:20.565Z,121492,0.050037887,-0.41565487,-0.752872
1732371680567,2024-11-23T14:21:20.567Z,121494,0.050037887,-0.41565487,-0.752872
1732371680582,2024-11-23T14:21:20.582Z,121509,-0.042634517,-0.4223129,-0.7384712
1732371680584,2024-11-23T14:21:20.584Z,121511,-0.042634517,-0.4223129,-0.7384712
1732371680601,2024-11-23T14:21:20.601Z,121528,0.042368934,-0.44047895,-0.7876143
1732371680603,2024-11-23T14:21:20.603Z,121530,0.042368934,-0.44047895,-0.7876143
1732371680635,2024-11-23T14:21:20.635Z,121562,0.041413765,-0.45575133,-0.85035455
1732371680640,2024-11-23T14:21:20.640Z,121567,0.041413765,-0.45575133,-0.85035455
1732371680669,2024-11-23T14:21:20.669Z,121596,0.05711198,-0.438271,-0.7921616
1732371680672,2024-11-23T14:21:20.672Z,121599,0.05711198,-0.438271,-0.7921616
1732371680710,2024-11-23T14:21:20.710Z,121637,0.052552618,-0.45555618,-0.8129671
1732371680715,2024-11-23T14:21:20.715Z,121642,0.052552618,-0.45555618,-0.8129671
1732371680744,2024-11-23T14:21:20.744Z,121671,0.10346262,-0.5288862,-0.7859444
1732371680747,2024-11-23T14:21:20.747Z,121674,0.10346262,-0.5288862,-0.7859444
1732371680770,2024-11-23T14:21:20.770Z,121697,0.08846235,-0.6086257,-0.7516755
1732371680773,2024-11-23T14:21:20.773Z,121700,0.08846235,-0.6086257,-0.7516755
1732371680795,2024-11-23T14:21:20.795Z,121722,0.08889798,-0.735735,-0.815941
1732371680798,2024-11-23T14:21:20.798Z,121725,0.08889798,-0.735735,-0.815941
1732371680819,2024-11-23T14:21:20.819Z,121746,0.23101325,-0.71031123,-0.7539817
1732371680821,2024-11-23T14:21:20.821Z,121748,0.23101325,-0.71031123,-0.7539817
1732371680840,2024-11-23T14:21:20.840Z,121767,0.2923762,-0.699612,-0.7299132
1732371680843,2024-11-23T14:21:20.843Z,121770,0.2923762,-0.699612,-0.7299132
1732371680862,2024-11-23T14:21:20.862Z,121789,0.33879888,-0.6516363,-0.5660374
1732371680865,2024-11-23T14:21:20.865Z,121792,0.33879888,-0.6516363,-0.5660374
1732371680880,2024-11-23T14:21:20.880Z,121807,0.3262696,-0.6360732,-0.6167871
1732371680883,2024-11-23T14:21:20.883Z,121810,0.3262696,-0.6360732,-0.6167871
1732371680902,2024-11-23T14:21:20.902Z,121829,0.30708966,-0.6207204,-0.6987418
1732371680904,2024-11-23T14:21:20.904Z,121831,0.30708966,-0.6207204,-0.6987418
1732371680929,2024-11-23T14:21:20.929Z,121856,0.36593232,-0.52812344,-0.50665706
1732371680931,2024-11-23T14:21:20.931Z,121858,0.36593232,-0.52812344,-0.50665706
1732371680946,2024-11-23T14:21:20.946Z,121873,0.48567227,-0.5034257,-0.58038294
1732371680948,2024-11-23T14:21:20.948Z,121875,0.48567227,-0.5034257,-0.58038294
1732371680963,2024-11-23T14:21:20.963Z,121890,0.5211689,-0.45634735,-0.5228765
1732371680965,2024-11-23T14:21:20.965Z,121892,0.5211689,-0.45634735,-0.5228765
1732371680996,2024-11-23T14:21:20.996Z,121923,0.6670909,-0.2565655,-0.4270268
1732371681001,2024-11-23T14:21:21.001Z,121928,0.6670909,-0.2565655,-0.4270268
1732371681027,2024-11-23T14:21:21.027Z,121954,0.5580541,-0.21195954,-0.4883099
1732371681030,2024-11-23T14:21:21.030Z,121957,0.5580541,-0.21195954,-0.4883099
1732371681065,2024-11-23T14:21:21.065Z,121992,0.5379782,-0.20545036,-0.48824465
1732371681070,2024-11-23T14:21:21.070Z,121997,0.5379782,-0.20545036,-0.48824465
1732371681098,2024-11-23T14:21:21.098Z,122025,0.5915653,-0.1390139,-0.47729364
1732371681102,2024-11-23T14:21:21.102Z,122029,0.5915653,-0.1390139,-0.47729364
1732371681136,2024-11-23T14:21:21.136Z,122063,0.45486733,-0.15338537,-0.48525962
1732371681142,2024-11-23T14:21:21.142Z,122069,0.45486733,-0.15338537,-0.48525962
1732371681181,2024-11-23T14:21:21.181Z,122108,0.47333035,-0.13374133,-0.46449563
1732371681187,2024-11-23T14:21:21.187Z,122114,0.47333035,-0.13374133,-0.46449563
1732371681214,2024-11-23T14:21:21.214Z,122141,0.5839799,-0.100860566,-0.32890385
1732371681217,2024-11-23T14:21:21.217Z,122144,0.5839799,-0.100860566,-0.32890385
1732371681241,2024-11-23T14:21:21.241Z,122168,0.5903203,-0.1703585,-0.29743123
1732371681243,2024-11-23T14:21:21.243Z,122170,0.5903203,-0.1703585,-0.29743123
1732371681265,2024-11-23T14:21:21.265Z,122192,0.7324019,-0.27787143,-0.39359173
1732371681269,2024-11-23T14:21:21.269Z,122196,0.7324019,-0.27787143,-0.39359173
1732371681289,2024-11-23T14:21:21.289Z,122216,0.6147842,-0.36505586,-0.27649647
1732371681292,2024-11-23T14:21:21.292Z,122219,0.6147842,-0.36505586,-0.27649647
1732371681310,2024-11-23T14:21:21.310Z,122237,0.49337116,-0.44279438,-0.3059003
1732371681312,2024-11-23T14:21:21.312Z,122239,0.49337116,-0.44279438,-0.3059003
1732371681330,2024-11-23T14:21:21.330Z,122257,0.5529155,-0.5401037,-0.2489047
1732371681332,2024-11-23T14:21:21.332Z,122259,0.5529155,-0.5401037,-0.2489047
1732371681347,2024-11-23T14:21:21.347Z,122274,0.49219382,-0.5194166,-0.21390937
1732371681349,2024-11-23T14:21:21.349Z,122276,0.49219382,-0.5194166,-0.21390937
1732371681365,2024-11-23T14:21:21.365Z,122292,0.5856694,-0.5360757,-0.1505866
1732371681367,2024-11-23T14:21:21.367Z,122294,0.5856694,-0.5360757,-0.1505866
1732371681382,2024-11-23T14:21:21.382Z,122309,0.6415553,-0.52946305,-0.03689447
1732371681384,2024-11-23T14:21:21.384Z,122311,0.6415553,-0.52946305,-0.03689447
1732371681398,2024-11-23T14:21:21.398Z,122325,0.61166394,-0.51961863,-0.100817814
1732371681400,2024-11-23T14:21:21.400Z,122327,0.61166394,-0.51961863,-0.100817814
1732371681417,2024-11-23T14:21:21.417Z,122344,0.5676524,-0.48631862,-0.14655629
1732371681419,2024-11-23T14:21:21.419Z,122346,0.5676524,-0.48631862,-0.14655629
1732371681435,2024-11-23T14:21:21.435Z,122362,0.5842343,-0.4536805,-0.15610531
1732371681441,2024-11-23T14:21:21.441Z,122368,0.5842343,-0.4536805,-0.15610531
1732371681457,2024-11-23T14:21:21.457Z,122384,0.6465851,-0.5124402,0.01322344
1732371681459,2024-11-23T14:21:21.459Z,122386,0.6465851,-0.5124402,0.01322344
1732371681474,2024-11-23T14:21:21.474Z,122401,0.66535145,-0.54255325,0.059334356
1732371681476,2024-11-23T14:21:21.476Z,122403,0.66535145,-0.54255325,0.059334356
1732371681491,2024-11-23T14:21:21.491Z,122418,0.6131424,-0.61336315,-0.02192497
1732371681493,2024-11-23T14:21:21.493Z,122420,0.6131424,-0.61336315,-0.02192497
1732371681523,2024-11-23T14:21:21.523Z,122450,0.6556805,-0.60516876,-0.027886122
1732371681527,2024-11-23T14:21:21.527Z,122454,0.6556805,-0.60516876,-0.027886122
1732371681563,2024-11-23T14:21:21.563Z,122490,0.6180606,-0.59879214,-0.059263133
1732371681568,2024-11-23T14:21:21.568Z,122495,0.6180606,-0.59879214,-0.059263133
1732371681602,2024-11-23T14:21:21.602Z,122529,0.6556322,-0.54883504,-0.055240724
1732371681605,2024-11-23T14:21:21.605Z,122532,0.6556322,-0.54883504,-0.055240724
1732371681629,2024-11-23T14:21:21.629Z,122556,0.6656474,-0.5718486,-0.055393986
1732371681632,2024-11-23T14:21:21.632Z,122559,0.6656474,-0.5718486,-0.055393986
1732371681650,2024-11-23T14:21:21.650Z,122577,0.623543,-0.5755898,-0.05449496
1732371681653,2024-11-23T14:21:21.653Z,122580,0.623543,-0.5755898,-0.05449496
1732371681677,2024-11-23T14:21:21.677Z,122604,0.67959803,-0.56377167,-0.06778335
1732371681680,2024-11-23T14:21:21.680Z,122607,0.67959803,-0.56377167,-0.06778335
1732371681715,2024-11-23T14:21:21.715Z,122642,0.69361496,-0.5516345,-0.0655538
1732371681721,2024-11-23T14:21:21.721Z,122648,0.69361496,-0.5516345,-0.0655538
1732371681754,2024-11-23T14:21:21.754Z,122681,0.6160739,-0.5372258,-0.08058141
1732371681757,2024-11-23T14:21:21.757Z,122684,0.6160739,-0.5372258,-0.08058141
1732371681781,2024-11-23T14:21:21.781Z,122708,0.56990683,-0.5661859,-0.09228804
1732371681784,2024-11-23T14:21:21.784Z,122711,0.56990683,-0.5661859,-0.09228804
1732371681804,2024-11-23T14:21:21.804Z,122731,0.5858749,-0.5823549,-0.10676343
1732371681807,2024-11-23T14:21:21.807Z,122734,0.5858749,-0.5823549,-0.10676343
1732371681825,2024-11-23T14:21:21.825Z,122752,0.52889466,-0.6088063,-0.1739053
1732371681827,2024-11-23T14:21:21.827Z,122754,0.52889466,-0.6088063,-0.1739053
1732371681844,2024-11-23T14:21:21.844Z,122771,0.53178596,-0.55990285,-0.13108435
1732371681846,2024-11-23T14:21:21.846Z,122773,0.53178596,-0.55990285,-0.13108435
1732371681862,2024-11-23T14:21:21.862Z,122789,0.4417475,-0.56817734,-0.1903362
1732371681865,2024-11-23T14:21:21.865Z,122792,0.4417475,-0.56817734,-0.1903362
1732371681881,2024-11-23T14:21:21.881Z,122808,0.54250914,-0.57519233,-0.21303892
1732371681883,2024-11-23T14:21:21.883Z,122810,0.54250914,-0.57519233,-0.21303892
1732371681899,2024-11-23T14:21:21.899Z,122826,0.5763056,-0.51802737,-0.11325683
1732371681901,2024-11-23T14:21:21.901Z,122828,0.5763056,-0.51802737,-0.11325683
1732371681917,2024-11-23T14:21:21.917Z,122844,0.5334865,-0.5083987,-0.10541858
1732371681919,2024-11-23T14:21:21.919Z,122846,0.5334865,-0.5083987,-0.10541858
1732371681935,2024-11-23T14:21:21.935Z,122862,0.52930295,-0.46283498,-0.105706565
1732371681937,2024-11-23T14:21:21.937Z,122864,0.52930295,-0.46283498,-0.105706565
1732371681954,2024-11-23T14:21:21.954Z,122881,0.43556997,-0.48312664,-0.2298218
1732371681956,2024-11-23T14:21:21.956Z,122883,0.43556997,-0.48312664,-0.2298218
1732371681975,2024-11-23T14:21:21.975Z,122902,0.5019277,-0.47983575,-0.20953242
1732371681980,2024-11-23T14:21:21.980Z,122907,0.5019277,-0.47983575,-0.20953242
1732371682000,2024-11-23T14:21:22Z,122927,0.56411785,-0.49049792,-0.20458527
1732371682002,2024-11-23T14:21:22.002Z,122929,0.56411785,-0.49049792,-0.20458527
1732371682017,2024-11-23T14:21:22.017Z,122944,0.5251886,-0.47309476,-0.26755285
1732371682018,2024-11-23T14:21:22.018Z,122945,0.5251886,-0.47309476,-0.26755285
1732371682033,2024-11-23T14:21:22.033Z,122960,0.52026564,-0.502661,-0.2927339
1732371682035,2024-11-23T14:21:22.035Z,122962,0.52026564,-0.502661,-0.2927339
1732371682052,2024-11-23T14:21:22.052Z,122979,0.55516326,-0.47471797,-0.33493617
1732371682055,2024-11-23T14:21:22.055Z,122982,0.55516326,-0.47471797,-0.33493617
1732371682071,2024-11-23T14:21:22.071Z,122998,0.45987594,-0.4693842,-0.24669743
1732371682074,2024-11-23T14:21:22.074Z,123001,0.45987594,-0.4693842,-0.24669743
1732371682088,2024-11-23T14:21:22.088Z,123015,0.40834403,-0.41345853,-0.28730723
1732371682090,2024-11-23T14:21:22.090Z,123017,0.40834403,-0.41345853,-0.28730723
1732371682104,2024-11-23T14:21:22.104Z,123031,0.45418897,-0.42798918,-0.41174838
1732371682106,2024-11-23T14:21:22.106Z,123033,0.45418897,-0.42798918,-0.41174838
1732371682120,2024-11-23T14:21:22.120Z,123047,0.4927125,-0.44625703,-0.42383122
1732371682122,2024-11-23T14:21:22.122Z,123049,0.4927125,-0.44625703,-0.42383122
1732371682140,2024-11-23T14:21:22.140Z,123067,0.59504646,-0.420192,-0.3613354
1732371682142,2024-11-23T14:21:22.142Z,123069,0.59504646,-0.420192,-0.3613354
1732371682158,2024-11-23T14:21:22.158Z,123085,0.48348135,-0.46675527,-0.30666277
1732371682160,2024-11-23T14:21:22.160Z,123087,0.48348135,-0.46675527,-0.30666277
1732371682174,2024-11-23T14:21:22.174Z,123101,0.36464497,-0.3982112,-0.5269001
1732371682176,2024-11-23T14:21:22.176Z,123103,0.36464497,-0.3982112,-0.5269001
1732371682192,2024-11-23T14:21:22.192Z,123119,0.51484567,-0.38859305,-0.5147141
1732371682195,2024-11-23T14:21:22.195Z,123122,0.51484567,-0.38859305,-0.5147141
1732371682210,2024-11-23T14:21:22.210Z,123137,0.5498564,-0.41483667,-0.432191
1732371682212,2024-11-23T14:21:22.212Z,123139,0.5498564,-0.41483667,-0.432191
1732371682243,2024-11-23T14:21:22.243Z,123170,0.37367576,-0.4559061,-0.5380475
1732371682247,2024-11-23T14:21:22.247Z,123174,0.37367576,-0.4559061,-0.5380475
1732371682285,2024-11-23T14:21:22.285Z,123212,0.37240267,-0.42993477,-0.56027806
1732371682290,2024-11-23T14:21:22.290Z,123217,0.37240267,-0.42993477,-0.56027806
1732371682315,2024-11-23T14:21:22.315Z,123242,0.2882982,-0.45379475,-0.64422023
1732371682318,2024-11-23T14:21:22.318Z,123245,0.2882982,-0.45379475,-0.64422023
1732371682336,2024-11-23T14:21:22.336Z,123263,0.336647,-0.49198368,-0.63862544
1732371682339,2024-11-23T14:21:22.339Z,123266,0.336647,-0.49198368,-0.63862544
1732371682356,2024-11-23T14:21:22.356Z,123283,0.3688264,-0.48823065,-0.5827305
1732371682359,2024-11-23T14:21:22.359Z,123286,0.3688264,-0.48823065,-0.5827305
1732371682375,2024-11-23T14:21:22.375Z,123302,0.25383264,-0.45535123,-0.58956283
1732371682377,2024-11-23T14:21:22.377Z,123304,0.25383264,-0.45535123,-0.58956283
1732371682402,2024-11-23T14:21:22.402Z,123329,0.18885326,-0.48661846,-0.67156583
1732371682407,2024-11-23T14:21:22.407Z,123334,0.18885326,-0.48661846,-0.67156583
1732371682444,2024-11-23T14:21:22.444Z,123371,0.1335867,-0.46923378,-0.61505324
1732371682450,2024-11-23T14:21:22.450Z,123377,0.1335867,-0.46923378,-0.61505324
1732371682480,2024-11-23T14:21:22.480Z,123407,0.15688774,-0.47744542,-0.6683906
1732371682485,2024-11-23T14:21:22.485Z,123412,0.15688774,-0.47744542,-0.6683906
1732371682504,2024-11-23T14:21:22.504Z,123431,0.13432299,-0.46682754,-0.64878047
1732371682506,2024-11-23T14:21:22.506Z,123433,0.13432299,-0.46682754,-0.64878047
1732371682522,2024-11-23T14:21:22.522Z,123449,0.090564415,-0.48533586,-0.6549481
1732371682525,2024-11-23T14:21:22.525Z,123452,0.090564415,-0.48533586,-0.6549481
1732371682542,2024-11-23T14:21:22.542Z,123469,0.1996313,-0.45733124,-0.62001383
1732371682545,2024-11-23T14:21:22.545Z,123472,0.1996313,-0.45733124,-0.62001383
1732371682561,2024-11-23T14:21:22.561Z,123488,0.17186837,-0.47312587,-0.67789114
1732371682563,2024-11-23T14:21:22.563Z,123490,0.17186837,-0.47312587,-0.67789114
1732371682579,2024-11-23T14:21:22.579Z,123506,0.1310086,-0.4431274,-0.69469005
1732371682582,2024-11-23T14:21:22.582Z,123509,0.1310086,-0.4431274,-0.69469005
1732371682597,2024-11-23T14:21:22.597Z,123524,0.09669668,-0.47436535,-0.6920797
1732371682599,2024-11-23T14:21:22.599Z,123526,0.09669668,-0.47436535,-0.6920797
1732371682615,2024-11-23T14:21:22.615Z,123542,0.16602124,-0.4580704,-0.68772006
1732371682617,2024-11-23T14:21:22.617Z,123544,0.16602124,-0.4580704,-0.68772006
1732371682631,2024-11-23T14:21:22.631Z,123558,0.115699254,-0.4583536,-0.713782
1732371682633,2024-11-23T14:21:22.633Z,123560,0.115699254,-0.4583536,-0.713782
1732371682647,2024-11-23T14:21:22.647Z,123574,-0.023772787,-0.44504812,-0.7235291
1732371682649,2024-11-23T14:21:22.649Z,123576,-0.023772787,-0.44504812,-0.7235291
1732371682666,2024-11-23T14:21:22.666Z,123593,-0.019307513,-0.48405877,-0.7328629
1732371682669,2024-11-23T14:21:22.669Z,123596,-0.019307513,-0.48405877,-0.7328629
1732371682686,2024-11-23T14:21:22.686Z,123613,0.09506088,-0.42976356,-0.67724997
1732371682688,2024-11-23T14:21:22.688Z,123615,0.09506088,-0.42976356,-0.67724997
1732371682703,2024-11-23T14:21:22.703Z,123630,-4.133028E-5,-0.4971945,-0.69540954
1732371682705,2024-11-23T14:21:22.705Z,123632,-4.133028E-5,-0.4971945,-0.69540954
1732371682721,2024-11-23T14:21:22.721Z,123648,0.023828268,-0.5031657,-0.6841213
1732371682723,2024-11-23T14:21:22.723Z,123650,0.023828268,-0.5031657,-0.6841213
1732371682741,2024-11-23T14:21:22.741Z,123668,-0.096436985,-0.4772255,-0.6799568
1732371682743,2024-11-23T14:21:22.743Z,123670,-0.096436985,-0.4772255,-0.6799568
1732371682775,2024-11-23T14:21:22.775Z,123702,-0.12889709,-0.4789325,-0.6200574
1732371682780,2024-11-23T14:21:22.780Z,123707,-0.12889709,-0.4789325,-0.6200574
1732371682820,2024-11-23T14:21:22.820Z,123747,-0.07945812,-0.5019277,-0.664359
1732371682825,2024-11-23T14:21:22.825Z,123752,-0.07945812,-0.5019277,-0.664359
1732371682854,2024-11-23T14:21:22.854Z,123781,-0.17933846,-0.467346,-0.7068928
1732371682858,2024-11-23T14:21:22.858Z,123785,-0.17933846,-0.467346,-0.7068928
1732371682878,2024-11-23T14:21:22.878Z,123805,-0.016142342,-0.47708532,-0.7177476
1732371682881,2024-11-23T14:21:22.881Z,123808,-0.016142342,-0.47708532,-0.7177476
1732371682901,2024-11-23T14:21:22.901Z,123828,-0.051191803,-0.44836923,-0.71201813
1732371682903,2024-11-23T14:21:22.903Z,123830,-0.051191803,-0.44836923,-0.71201813
1732371682919,2024-11-23T14:21:22.919Z,123846,-0.033583526,-0.4413425,-0.6818111
1732371682921,2024-11-23T14:21:22.921Z,123848,-0.033583526,-0.4413425,-0.6818111
1732371682938,2024-11-23T14:21:22.938Z,123865,-0.11559709,-0.42785162,-0.6670194
1732371682940,2024-11-23T14:21:22.940Z,123867,-0.11559709,-0.42785162,-0.6670194
1732371682960,2024-11-23T14:21:22.960Z,123887,-0.1408806,-0.4285842,-0.6627631
1732371682965,2024-11-23T14:21:22.965Z,123892,-0.1408806,-0.4285842,-0.6627631
1732371682987,2024-11-23T14:21:22.987Z,123914,-0.07853064,-0.39964402,-0.71494675
1732371682989,2024-11-23T14:21:22.989Z,123916,-0.07853064,-0.39964402,-0.71494675
1732371683003,2024-11-23T14:21:23.003Z,123930,-0.093725964,-0.38932422,-0.74141437
1732371683004,2024-11-23T14:21:23.004Z,123931,-0.093725964,-0.38932422,-0.74141437
1732371683019,2024-11-23T14:21:23.019Z,123946,-0.035203308,-0.37332276,-0.67787707
1732371683021,2024-11-23T14:21:23.021Z,123948,-0.035203308,-0.37332276,-0.67787707
1732371683038,2024-11-23T14:21:23.038Z,123965,-0.16397302,-0.39057696,-0.6642329
1732371683040,2024-11-23T14:21:23.040Z,123967,-0.16397302,-0.39057696,-0.6642329
1732371683054,2024-11-23T14:21:23.054Z,123981,-0.13601148,-0.39075828,-0.68330634
1732371683057,2024-11-23T14:21:23.057Z,123984,-0.13601148,-0.39075828,-0.68330634
1732371683074,2024-11-23T14:21:23.074Z,124001,-0.067891106,-0.4184133,-0.70959955
1732371683077,2024-11-23T14:21:23.077Z,124004,-0.067891106,-0.4184133,-0.70959955
1732371683092,2024-11-23T14:21:23.092Z,124019,-0.14665137,-0.451238,-0.78477824
1732371683094,2024-11-23T14:21:23.094Z,124021,-0.14665137,-0.451238,-0.78477824
1732371683109,2024-11-23T14:21:23.109Z,124036,-0.047067847,-0.42063046,-0.78120095
1732371683112,2024-11-23T14:21:23.112Z,124039,-0.047067847,-0.42063046,-0.78120095
1732371683131,2024-11-23T14:21:23.131Z,124058,-0.12643212,-0.4226502,-0.7486213
1732371683134,2024-11-23T14:21:23.134Z,124061,-0.12643212,-0.4226502,-0.7486213
1732371683148,2024-11-23T14:21:23.148Z,124075,-0.09187021,-0.43765983,-0.7165944
1732371683151,2024-11-23T14:21:23.151Z,124078,-0.09187021,-0.43765983,-0.7165944
1732371683167,2024-11-23T14:21:23.167Z,124094,-0.07370429,-0.44476846,-0.72181076
1732371683169,2024-11-23T14:21:23.169Z,124096,-0.07370429,-0.44476846,-0.72181076
1732371683186,2024-11-23T14:21:23.186Z,124113,-0.15234284,-0.44088006,-0.7070506
1732371683187,2024-11-23T14:21:23.187Z,124114,-0.15234284,-0.44088006,-0.7070506
1732371683203,2024-11-23T14:21:23.203Z,124130,-0.124618426,-0.3939465,-0.63043046
1732371683205,2024-11-23T14:21:23.205Z,124132,-0.124618426,-0.3939465,-0.63043046
1732371683219,2024-11-23T14:21:23.219Z,124146,-0.120135814,-0.39365947,-0.6615482
1732371683221,2024-11-23T14:21:23.221Z,124148,-0.120135814,-0.39365947,-0.6615482
1732371683235,2024-11-23T14:21:23.235Z,124162,-0.13329022,-0.40575957,-0.70432645
1732371683238,2024-11-23T14:21:23.238Z,124165,-0.13329022,-0.40575957,-0.70432645
1732371683252,2024-11-23T14:21:23.252Z,124179,-0.061897974,-0.42421034,-0.7584021
1732371683254,2024-11-23T14:21:23.254Z,124181,-0.061897974,-0.42421034,-0.7584021
1732371683270,2024-11-23T14:21:23.270Z,124197,-0.061272185,-0.4225584,-0.7159284
1732371683273,2024-11-23T14:21:23.273Z,124200,-0.061272185,-0.4225584,-0.7159284
1732371683292,2024-11-23T14:21:23.292Z,124219,-0.12629274,-0.42367935,-0.70233154
1732371683295,2024-11-23T14:21:23.295Z,124222,-0.12629274,-0.42367935,-0.70233154
1732371683311,2024-11-23T14:21:23.311Z,124238,-0.12892008,-0.40607914,-0.62058824
1732371683313,2024-11-23T14:21:23.313Z,124240,-0.12892008,-0.40607914,-0.62058824
1732371683329,2024-11-23T14:21:23.329Z,124256,-0.17393129,-0.4097643,-0.65050155
1732371683332,2024-11-23T14:21:23.332Z,124259,-0.17393129,-0.4097643,-0.65050155
1732371683351,2024-11-23T14:21:23.351Z,124278,-0.11352372,-0.41227192,-0.7013509
1732371683353,2024-11-23T14:21:23.353Z,124280,-0.11352372,-0.41227192,-0.7013509
1732371683387,2024-11-23T14:21:23.387Z,124314,-0.051072966,-0.40346935,-0.6915887
1732371683391,2024-11-23T14:21:23.391Z,124318,-0.051072966,-0.40346935,-0.6915887
1732371683423,2024-11-23T14:21:23.423Z,124350,-0.06453096,-0.39574704,-0.6670503
1732371683426,2024-11-23T14:21:23.426Z,124353,-0.06453096,-0.39574704,-0.6670503
1732371683449,2024-11-23T14:21:23.449Z,124376,-0.07681327,-0.36472356,-0.6386511
1732371683453,2024-11-23T14:21:23.453Z,124380,-0.07681327,-0.36472356,-0.6386511
1732371683473,2024-11-23T14:21:23.473Z,124400,-0.030935518,-0.3487622,-0.65166986
1732371683476,2024-11-23T14:21:23.476Z,124403,-0.030935518,-0.3487622,-0.65166986
1732371683493,2024-11-23T14:21:23.493Z,124420,-0.09341017,-0.35709858,-0.69156575
1732371683495,2024-11-23T14:21:23.495Z,124422,-0.09341017,-0.35709858,-0.69156575
1732371683510,2024-11-23T14:21:23.510Z,124437,-0.053282972,-0.32876468,-0.69051975
1732371683512,2024-11-23T14:21:23.512Z,124439,-0.053282972,-0.32876468,-0.69051975
1732371683539,2024-11-23T14:21:23.539Z,124466,0.0030817315,-0.3293034,-0.6926164
1732371683544,2024-11-23T14:21:23.544Z,124471,0.0030817315,-0.3293034,-0.6926164
1732371683569,2024-11-23T14:21:23.569Z,124496,0.015390521,-0.3363165,-0.68008024
1732371683572,2024-11-23T14:21:23.572Z,124499,0.015390521,-0.3363165,-0.68008024
1732371683592,2024-11-23T14:21:23.592Z,124519,-0.07191106,-0.32506207,-0.7319096
1732371683594,2024-11-23T14:21:23.594Z,124521,-0.07191106,-0.32506207,-0.7319096
1732371683613,2024-11-23T14:21:23.613Z,124540,-0.056950524,-0.34479386,-0.7309349
1732371683616,2024-11-23T14:21:23.616Z,124543,-0.056950524,-0.34479386,-0.7309349
1732371683633,2024-11-23T14:21:23.633Z,124560,0.020465903,-0.32756418,-0.7364504
1732371683635,2024-11-23T14:21:23.635Z,124562,0.020465903,-0.32756418,-0.7364504
1732371683650,2024-11-23T14:21:23.650Z,124577,-0.031799663,-0.31246978,-0.6700386
1732371683653,2024-11-23T14:21:23.653Z,124580,-0.031799663,-0.31246978,-0.6700386
1732371683683,2024-11-23T14:21:23.683Z,124610,0.0032727502,-0.31608483,-0.6793399
1732371683689,2024-11-23T14:21:23.689Z,124616,0.0032727502,-0.31608483,-0.6793399
1732371683727,2024-11-23T14:21:23.727Z,124654,-0.015096006,-0.33115727,-0.70682937
1732371683732,2024-11-23T14:21:23.732Z,124659,-0.015096006,-0.33115727,-0.70682937
1732371683753,2024-11-23T14:21:23.753Z,124680,-0.038704686,-0.3417485,-0.7562554
1732371683755,2024-11-23T14:21:23.755Z,124682,-0.038704686,-0.3417485,-0.7562554
1732371683776,2024-11-23T14:21:23.776Z,124703,0.0045994036,-0.33041695,-0.73141414
1732371683779,2024-11-23T14:21:23.779Z,124706,0.0045994036,-0.33041695,-0.73141414
1732371683800,2024-11-23T14:21:23.800Z,124727,-0.007477012,-0.3203136,-0.67840236
1732371683803,2024-11-23T14:21:23.803Z,124730,-0.007477012,-0.3203136,-0.67840236
1732371683822,2024-11-23T14:21:23.822Z,124749,-0.03177032,-0.30965865,-0.69674927
1732371683824,2024-11-23T14:21:23.824Z,124751,-0.03177032,-0.30965865,-0.69674927
1732371683840,2024-11-23T14:21:23.840Z,124767,-0.01781814,-0.3078182,-0.74967915
1732371683842,2024-11-23T14:21:23.842Z,124769,-0.01781814,-0.3078182,-0.74967915
1732371683858,2024-11-23T14:21:23.858Z,124785,0.008220349,-0.32470462,-0.817784
1732371683860,2024-11-23T14:21:23.860Z,124787,0.008220349,-0.32470462,-0.817784
1732371683876,2024-11-23T14:21:23.876Z,124803,-0.016634198,-0.28686258,-0.75401276
1732371683878,2024-11-23T14:21:23.878Z,124805,-0.016634198,-0.28686258,-0.75401276
1732371683895,2024-11-23T14:21:23.895Z,124822,-0.028676454,-0.2937138,-0.6729251
1732371683897,2024-11-23T14:21:23.897Z,124824,-0.028676454,-0.2937138,-0.6729251
1732371683915,2024-11-23T14:21:23.915Z,124842,-0.023452137,-0.285342,-0.6568083
1732371683917,2024-11-23T14:21:23.917Z,124844,-0.023452137,-0.285342,-0.6568083
1732371683937,2024-11-23T14:21:23.937Z,124864,0.05659032,-0.31304437,-0.7450214
1732371683940,2024-11-23T14:21:23.940Z,124867,0.05659032,-0.31304437,-0.7450214
1732371683959,2024-11-23T14:21:23.959Z,124886,-0.038405627,-0.29195786,-0.7755425
1732371683961,2024-11-23T14:21:23.961Z,124888,-0.038405627,-0.29195786,-0.7755425
1732371683977,2024-11-23T14:21:23.977Z,124904,-0.023403125,-0.31283748,-0.76827335
1732371683979,2024-11-23T14:21:23.979Z,124906,-0.023403125,-0.31283748,-0.76827335
1732371683995,2024-11-23T14:21:23.995Z,124922,-0.004529774,-0.32654932,-0.7242569
1732371683997,2024-11-23T14:21:23.997Z,124924,-0.004529774,-0.32654932,-0.7242569
1732371684011,2024-11-23T14:21:24.011Z,124938,0.020320445,-0.36606205,-0.69929564
1732371684013,2024-11-23T14:21:24.013Z,124940,0.020320445,-0.36606205,-0.69929564
1732371684044,2024-11-23T14:21:24.044Z,124971,0.028876372,-0.37197188,-0.683372
1732371684049,2024-11-23T14:21:24.049Z,124976,0.028876372,-0.37197188,-0.683372
1732371684087,2024-11-23T14:21:24.087Z,125014,-0.0374235,-0.37809065,-0.6767918
1732371684091,2024-11-23T14:21:24.091Z,125018,-0.0374235,-0.37809065,-0.6767918
1732371684116,2024-11-23T14:21:24.116Z,125043,-0.034048226,-0.43672088,-0.7658442
1732371684119,2024-11-23T14:21:24.119Z,125046,-0.034048226,-0.43672088,-0.7658442
1732371684150,2024-11-23T14:21:24.150Z,125077,0.008247822,-0.4619381,-0.7659415
1732371684155,2024-11-23T14:21:24.155Z,125082,0.008247822,-0.4619381,-0.7659415
1732371684185,2024-11-23T14:21:24.185Z,125112,-0.06083917,-0.48202428,-0.74489826
1732371684187,2024-11-23T14:21:24.187Z,125114,-0.06083917,-0.48202428,-0.74489826
1732371684212,2024-11-23T14:21:24.212Z,125139,-0.06747192,-0.5283091,-0.631445
1732371684218,2024-11-23T14:21:24.218Z,125145,-0.06747192,-0.5283091,-0.631445
1732371684244,2024-11-23T14:21:24.244Z,125171,-0.0637018,-0.5367034,-0.6919261
1732371684247,2024-11-23T14:21:24.247Z,125174,-0.0637018,-0.5367034,-0.6919261
1732371684267,2024-11-23T14:21:24.267Z,125194,-0.04201111,-0.544509,-0.7189326
1732371684270,2024-11-23T14:21:24.270Z,125197,-0.04201111,-0.544509,-0.7189326
1732371684287,2024-11-23T14:21:24.287Z,125214,-0.0798317,-0.5531771,-0.7343964
1732371684290,2024-11-23T14:21:24.290Z,125217,-0.0798317,-0.5531771,-0.7343964
1732371684308,2024-11-23T14:21:24.308Z,125235,-0.046644576,-0.55079937,-0.6897634
1732371684310,2024-11-23T14:21:24.310Z,125237,-0.046644576,-0.55079937,-0.6897634
1732371684327,2024-11-23T14:21:24.327Z,125254,-0.0017882396,-0.5342796,-0.65074986
1732371684329,2024-11-23T14:21:24.329Z,125256,-0.0017882396,-0.5342796,-0.65074986
1732371684346,2024-11-23T14:21:24.346Z,125273,0.05296772,-0.54413843,-0.63820124
1732371684348,2024-11-23T14:21:24.348Z,125275,0.05296772,-0.54413843,-0.63820124
1732371684362,2024-11-23T14:21:24.362Z,125289,-0.06368719,-0.53488326,-0.71429867
1732371684364,2024-11-23T14:21:24.364Z,125291,-0.06368719,-0.53488326,-0.71429867
1732371684377,2024-11-23T14:21:24.377Z,125304,0.054231573,-0.5315148,-0.6869203
1732371684379,2024-11-23T14:21:24.379Z,125306,0.054231573,-0.5315148,-0.6869203
1732371684395,2024-11-23T14:21:24.395Z,125322,0.04551558,-0.5336069,-0.7066846
1732371684397,2024-11-23T14:21:24.397Z,125324,0.04551558,-0.5336069,-0.7066846
1732371684427,2024-11-23T14:21:24.427Z,125354,0.0046726796,-0.52230155,-0.6675018
1732371684434,2024-11-23T14:21:24.434Z,125361,0.0046726796,-0.52230155,-0.6675018
1732371684461,2024-11-23T14:21:24.461Z,125388,0.03399576,-0.52251416,-0.6516256
1732371684465,2024-11-23T14:21:24.465Z,125392,0.03399576,-0.52251416,-0.6516256
1732371684486,2024-11-23T14:21:24.486Z,125413,-0.014944056,-0.5323724,-0.6246181
1732371684489,2024-11-23T14:21:24.489Z,125416,-0.014944056,-0.5323724,-0.6246181
1732371684514,2024-11-23T14:21:24.514Z,125441,0.045216907,-0.53908163,-0.6501073
1732371684519,2024-11-23T14:21:24.519Z,125446,0.045216907,-0.53908163,-0.6501073
1732371684549,2024-11-23T14:21:24.549Z,125476,0.1348607,-0.43764842,-0.6181068
1732371684552,2024-11-23T14:21:24.552Z,125479,0.1348607,-0.43764842,-0.6181068
1732371684574,2024-11-23T14:21:24.574Z,125501,0.15968801,-0.44379508,-0.6022457
1732371684577,2024-11-23T14:21:24.577Z,125504,0.15968801,-0.44379508,-0.6022457
1732371684595,2024-11-23T14:21:24.595Z,125522,0.19668972,-0.45772597,-0.6428431
1732371684598,2024-11-23T14:21:24.598Z,125525,0.19668972,-0.45772597,-0.6428431
1732371684616,2024-11-23T14:21:24.616Z,125543,0.17275856,-0.44246024,-0.68193525
1732371684619,2024-11-23T14:21:24.619Z,125546,0.17275856,-0.44246024,-0.68193525
1732371684635,2024-11-23T14:21:24.635Z,125562,0.26965103,-0.42409796,-0.61370546
1732371684637,2024-11-23T14:21:24.637Z,125564,0.26965103,-0.42409796,-0.61370546
1732371684652,2024-11-23T14:21:24.652Z,125579,0.2497256,-0.422773,-0.6188169
1732371684654,2024-11-23T14:21:24.654Z,125581,0.2497256,-0.422773,-0.6188169
1732371684683,2024-11-23T14:21:24.683Z,125610,0.24578732,-0.4437679,-0.573922
1732371684688,2024-11-23T14:21:24.688Z,125615,0.24578732,-0.4437679,-0.573922
1732371684725,2024-11-23T14:21:24.725Z,125652,0.33957452,-0.4793932,-0.58868444
1732371684728,2024-11-23T14:21:24.728Z,125655,0.33957452,-0.4793932,-0.58868444
1732371684753,2024-11-23T14:21:24.753Z,125680,0.23329924,-0.4512296,-0.56070215
1732371684756,2024-11-23T14:21:24.756Z,125683,0.23329924,-0.4512296,-0.56070215
1732371684778,2024-11-23T14:21:24.778Z,125705,0.3013917,-0.46800512,-0.5186136
1732371684780,2024-11-23T14:21:24.780Z,125707,0.3013917,-0.46800512,-0.5186136
1732371684798,2024-11-23T14:21:24.798Z,125725,0.41941813,-0.47768033,-0.4993535
1732371684800,2024-11-23T14:21:24.800Z,125727,0.41941813,-0.47768033,-0.4993535
1732371684816,2024-11-23T14:21:24.816Z,125743,0.23012704,-0.48066065,-0.5591198
1732371684818,2024-11-23T14:21:24.818Z,125745,0.23012704,-0.48066065,-0.5591198
1732371684832,2024-11-23T14:21:24.832Z,125759,0.3681675,-0.46855816,-0.53614336
1732371684834,2024-11-23T14:21:24.834Z,125761,0.3681675,-0.46855816,-0.53614336
1732371684848,2024-11-23T14:21:24.848Z,125775,0.3923434,-0.42976007,-0.45442325
1732371684850,2024-11-23T14:21:24.850Z,125777,0.3923434,-0.42976007,-0.45442325
1732371684865,2024-11-23T14:21:24.865Z,125792,0.33108217,-0.4285151,-0.4864198
1732371684867,2024-11-23T14:21:24.867Z,125794,0.33108217,-0.4285151,-0.4864198
1732371684884,2024-11-23T14:21:24.884Z,125811,0.3979976,-0.4506321,-0.45427364
1732371684886,2024-11-23T14:21:24.886Z,125813,0.3979976,-0.4506321,-0.45427364
1732371684915,2024-11-23T14:21:24.915Z,125842,0.41313192,-0.45020673,-0.48573318
1732371684922,2024-11-23T14:21:24.922Z,125849,0.41313192,-0.45020673,-0.48573318
1732371684961,2024-11-23T14:21:24.961Z,125888,0.4553898,-0.4352874,-0.5538421
1732371684964,2024-11-23T14:21:24.964Z,125891,0.4553898,-0.4352874,-0.5538421
1732371684989,2024-11-23T14:21:24.989Z,125916,0.34540817,-0.3852291,-0.5066122
1732371684992,2024-11-23T14:21:24.992Z,125919,0.34540817,-0.3852291,-0.5066122
1732371685013,2024-11-23T14:21:25.013Z,125940,0.44382438,-0.42080808,-0.41334364
1732371685016,2024-11-23T14:21:25.016Z,125943,0.44382438,-0.42080808,-0.41334364
1732371685060,2024-11-23T14:21:25.060Z,125987,0.53120947,-0.43792376,-0.40881515
1732371685069,2024-11-23T14:21:25.069Z,125996,0.53120947,-0.43792376,-0.40881515
1732371685104,2024-11-23T14:21:25.104Z,126031,0.4812003,-0.3461867,-0.3652507
1732371685106,2024-11-23T14:21:25.106Z,126033,0.4812003,-0.3461867,-0.3652507
1732371685136,2024-11-23T14:21:25.136Z,126063,0.5553645,-0.340581,-0.38502243
1732371685142,2024-11-23T14:21:25.142Z,126069,0.5553645,-0.340581,-0.38502243
1732371685172,2024-11-23T14:21:25.172Z,126099,0.47250894,-0.34301355,-0.3891533
1732371685174,2024-11-23T14:21:25.174Z,126101,0.47250894,-0.34301355,-0.3891533
1732371685192,2024-11-23T14:21:25.192Z,126119,0.4468161,-0.36916012,-0.39654434
1732371685194,2024-11-23T14:21:25.194Z,126121,0.4468161,-0.36916012,-0.39654434
1732371685209,2024-11-23T14:21:25.209Z,126136,0.5062189,-0.3877432,-0.45425847
1732371685211,2024-11-23T14:21:25.211Z,126138,0.5062189,-0.3877432,-0.45425847
1732371685225,2024-11-23T14:21:25.225Z,126152,0.41144973,-0.4190247,-0.48159012
1732371685227,2024-11-23T14:21:25.227Z,126154,0.41144973,-0.4190247,-0.48159012
1732371685241,2024-11-23T14:21:25.241Z,126168,0.6304623,-0.4515224,-0.33263665
1732371685243,2024-11-23T14:21:25.243Z,126170,0.6304623,-0.4515224,-0.33263665
1732371685261,2024-11-23T14:21:25.261Z,126188,0.4990048,-0.41418678,-0.31364235
1732371685262,2024-11-23T14:21:25.262Z,126189,0.4990048,-0.41418678,-0.31364235
1732371685279,2024-11-23T14:21:25.279Z,126206,0.4501041,-0.2951054,-0.3826779
1732371685281,2024-11-23T14:21:25.281Z,126208,0.4501041,-0.2951054,-0.3826779
1732371685297,2024-11-23T14:21:25.297Z,126224,0.5416993,-0.22546396,-0.5028849
1732371685299,2024-11-23T14:21:25.299Z,126226,0.5416993,-0.22546396,-0.5028849
1732371685314,2024-11-23T14:21:25.314Z,126241,0.7208656,-0.15982662,-0.34480426
1732371685316,2024-11-23T14:21:25.316Z,126243,0.7208656,-0.15982662,-0.34480426
1732371685330,2024-11-23T14:21:25.330Z,126257,0.57533675,-0.120378084,-0.35484952
1732371685332,2024-11-23T14:21:25.332Z,126259,0.57533675,-0.120378084,-0.35484952
1732371685346,2024-11-23T14:21:25.346Z,126273,0.44268054,-0.09145817,-0.39217153
1732371685348,2024-11-23T14:21:25.348Z,126275,0.44268054,-0.09145817,-0.39217153
1732371685362,2024-11-23T14:21:25.362Z,126289,0.5908683,-0.30957973,-0.18928428
1732371685364,2024-11-23T14:21:25.364Z,126291,0.5908683,-0.30957973,-0.18928428
1732371685382,2024-11-23T14:21:25.382Z,126309,0.5824171,-0.47837192,-0.05663695
1732371685385,2024-11-23T14:21:25.385Z,126312,0.5824171,-0.47837192,-0.05663695
1732371685401,2024-11-23T14:21:25.401Z,126328,0.4588144,-0.5174957,-0.091794066
1732371685403,2024-11-23T14:21:25.403Z,126330,0.4588144,-0.5174957,-0.091794066
1732371685419,2024-11-23T14:21:25.419Z,126346,0.56007606,-0.41361934,-0.007989968
1732371685422,2024-11-23T14:21:25.422Z,126349,0.56007606,-0.41361934,-0.007989968
1732371685437,2024-11-23T14:21:25.437Z,126364,0.56844354,-0.435712,0.037657954
1732371685439,2024-11-23T14:21:25.439Z,126366,0.56844354,-0.435712,0.037657954
1732371685457,2024-11-23T14:21:25.457Z,126384,0.54243654,-0.40378648,-0.15890542
1732371685459,2024-11-23T14:21:25.459Z,126386,0.54243654,-0.40378648,-0.15890542
1732371685474,2024-11-23T14:21:25.474Z,126401,0.57179296,-0.40379584,-0.21314469
1732371685476,2024-11-23T14:21:25.476Z,126403,0.57179296,-0.40379584,-0.21314469
1732371685496,2024-11-23T14:21:25.496Z,126423,0.58201545,-0.39490557,-0.180657
1732371685499,2024-11-23T14:21:25.499Z,126426,0.58201545,-0.39490557,-0.180657
1732371685515,2024-11-23T14:21:25.515Z,126442,0.6097318,-0.3873731,-0.154311
1732371685517,2024-11-23T14:21:25.517Z,126444,0.6097318,-0.3873731,-0.154311
1732371685533,2024-11-23T14:21:25.533Z,126460,0.6015112,-0.40454563,-0.108896255
1732371685535,2024-11-23T14:21:25.535Z,126462,0.6015112,-0.40454563,-0.108896255
1732371685551,2024-11-23T14:21:25.551Z,126478,0.5751492,-0.4074689,-0.027782554
1732371685553,2024-11-23T14:21:25.553Z,126480,0.5751492,-0.4074689,-0.027782554
1732371685570,2024-11-23T14:21:25.570Z,126497,0.6103072,-0.4294378,-0.0067237564
1732371685573,2024-11-23T14:21:25.573Z,126500,0.6103072,-0.4294378,-0.0067237564
1732371685587,2024-11-23T14:21:25.587Z,126514,0.57527095,-0.40055993,-0.12478875
1732371685590,2024-11-23T14:21:25.590Z,126517,0.57527095,-0.40055993,-0.12478875
1732371685605,2024-11-23T14:21:25.605Z,126532,0.57623273,-0.42789933,-0.13776758
1732371685607,2024-11-23T14:21:25.607Z,126534,0.57623273,-0.42789933,-0.13776758
1732371685625,2024-11-23T14:21:25.625Z,126552,0.57005465,-0.4462538,-0.15836827
1732371685627,2024-11-23T14:21:25.627Z,126554,0.57005465,-0.4462538,-0.15836827
1732371685643,2024-11-23T14:21:25.643Z,126570,0.55306566,-0.46050638,-0.13262245
1732371685645,2024-11-23T14:21:25.645Z,126572,0.55306566,-0.46050638,-0.13262245
1732371685661,2024-11-23T14:21:25.661Z,126588,0.6535634,-0.47319663,-0.088139854
1732371685663,2024-11-23T14:21:25.663Z,126590,0.6535634,-0.47319663,-0.088139854
1732371685679,2024-11-23T14:21:25.679Z,126606,0.61473703,-0.4480648,-0.053468756
1732371685680,2024-11-23T14:21:25.680Z,126607,0.61473703,-0.4480648,-0.053468756
1732371685696,2024-11-23T14:21:25.696Z,126623,0.5660988,-0.4782543,-0.062262435
1732371685698,2024-11-23T14:21:25.698Z,126625,0.5660988,-0.4782543,-0.062262435
1732371685714,2024-11-23T14:21:25.714Z,126641,0.57628554,-0.43443334,-0.14898838
1732371685716,2024-11-23T14:21:25.716Z,126643,0.57628554,-0.43443334,-0.14898838
1732371685734,2024-11-23T14:21:25.734Z,126661,0.562677,-0.4450397,-0.11507174
1732371685736,2024-11-23T14:21:25.736Z,126663,0.562677,-0.4450397,-0.11507174
1732371685750,2024-11-23T14:21:25.750Z,126677,0.54755634,-0.4356715,-0.085240506
1732371685752,2024-11-23T14:21:25.752Z,126679,0.54755634,-0.4356715,-0.085240506
1732371685768,2024-11-23T14:21:25.768Z,126695,0.56603336,-0.3550041,-0.18014045
1732371685770,2024-11-23T14:21:25.770Z,126697,0.56603336,-0.3550041,-0.18014045
1732371685788,2024-11-23T14:21:25.788Z,126715,0.50026643,-0.36724317,-0.31771335
1732371685790,2024-11-23T14:21:25.790Z,126717,0.50026643,-0.36724317,-0.31771335
1732371685805,2024-11-23T14:21:25.805Z,126732,0.49810645,-0.34211662,-0.34656626
1732371685807,2024-11-23T14:21:25.807Z,126734,0.49810645,-0.34211662,-0.34656626
1732371685822,2024-11-23T14:21:25.822Z,126749,0.48552886,-0.34442875,-0.4028178
1732371685825,2024-11-23T14:21:25.825Z,126752,0.48552886,-0.34442875,-0.4028178
1732371685852,2024-11-23T14:21:25.852Z,126779,0.43308342,-0.3315147,-0.4010846
1732371685856,2024-11-23T14:21:25.856Z,126783,0.43308342,-0.3315147,-0.4010846
1732371685892,2024-11-23T14:21:25.892Z,126819,0.47563034,-0.37197718,-0.36859295
1732371685895,2024-11-23T14:21:25.895Z,126822,0.47563034,-0.37197718,-0.36859295
1732371685916,2024-11-23T14:21:25.916Z,126843,0.5637712,-0.3533857,-0.33093303
1732371685919,2024-11-23T14:21:25.919Z,126846,0.5637712,-0.3533857,-0.33093303
1732371685938,2024-11-23T14:21:25.938Z,126865,0.5360594,-0.2863229,-0.3881213
1732371685941,2024-11-23T14:21:25.941Z,126868,0.5360594,-0.2863229,-0.3881213
1732371685966,2024-11-23T14:21:25.966Z,126893,0.40798888,-0.38976607,-0.49842042
1732371685968,2024-11-23T14:21:25.968Z,126895,0.40798888,-0.38976607,-0.49842042
1732371685983,2024-11-23T14:21:25.983Z,126910,0.48173955,-0.3666372,-0.4472964
1732371685985,2024-11-23T14:21:25.985Z,126912,0.48173955,-0.3666372,-0.4472964
1732371686002,2024-11-23T14:21:26.002Z,126929,0.4692982,-0.39537197,-0.4449467
1732371686005,2024-11-23T14:21:26.005Z,126932,0.4692982,-0.39537197,-0.4449467
1732371686020,2024-11-23T14:21:26.020Z,126947,0.38309044,-0.45651087,-0.4452192
1732371686022,2024-11-23T14:21:26.022Z,126949,0.38309044,-0.45651087,-0.4452192
1732371686038,2024-11-23T14:21:26.038Z,126965,0.3146937,-0.40984508,-0.38563633
1732371686040,2024-11-23T14:21:26.040Z,126967,0.3146937,-0.40984508,-0.38563633
1732371686054,2024-11-23T14:21:26.054Z,126981,0.355279,-0.41478795,-0.48513666
1732371686056,2024-11-23T14:21:26.056Z,126983,0.355279,-0.41478795,-0.48513666
1732371686070,2024-11-23T14:21:26.070Z,126997,0.3377085,-0.3820875,-0.47624287
1732371686072,2024-11-23T14:21:26.072Z,126999,0.3377085,-0.3820875,-0.47624287
1732371686088,2024-11-23T14:21:26.088Z,127015,0.420358,-0.37707856,-0.51698405
1732371686091,2024-11-23T14:21:26.091Z,127018,0.420358,-0.37707856,-0.51698405
1732371686105,2024-11-23T14:21:26.105Z,127032,0.39673918,-0.39690346,-0.63262135
1732371686107,2024-11-23T14:21:26.107Z,127034,0.39673918,-0.39690346,-0.63262135
1732371686121,2024-11-23T14:21:26.121Z,127048,0.273247,-0.36351585,-0.5606591
1732371686124,2024-11-23T14:21:26.124Z,127051,0.273247,-0.36351585,-0.5606591
1732371686140,2024-11-23T14:21:26.140Z,127067,0.3233929,-0.37738886,-0.5571946
1732371686142,2024-11-23T14:21:26.142Z,127069,0.3233929,-0.37738886,-0.5571946
1732371686167,2024-11-23T14:21:26.167Z,127094,0.17552301,-0.348759,-0.6190951
1732371686171,2024-11-23T14:21:26.171Z,127098,0.17552301,-0.348759,-0.6190951
1732371686196,2024-11-23T14:21:26.196Z,127123,0.11674306,-0.3075334,-0.62566954
1732371686198,2024-11-23T14:21:26.198Z,127125,0.11674306,-0.3075334,-0.62566954
1732371686217,2024-11-23T14:21:26.217Z,127144,0.17788893,-0.32356343,-0.62221414
1732371686219,2024-11-23T14:21:26.219Z,127146,0.17788893,-0.32356343,-0.62221414
1732371686237,2024-11-23T14:21:26.237Z,127164,0.15971977,-0.35390893,-0.56732756
1732371686239,2024-11-23T14:21:26.239Z,127166,0.15971977,-0.35390893,-0.56732756
1732371686254,2024-11-23T14:21:26.254Z,127181,0.10945653,-0.3506901,-0.5926023
1732371686256,2024-11-23T14:21:26.256Z,127183,0.10945653,-0.3506901,-0.5926023
1732371686274,2024-11-23T14:21:26.274Z,127201,0.17544053,-0.32992274,-0.62036186
1732371686277,2024-11-23T14:21:26.277Z,127204,0.17544053,-0.32992274,-0.62036186
1732371686293,2024-11-23T14:21:26.293Z,127220,0.18021122,-0.31763244,-0.6000618
1732371686295,2024-11-23T14:21:26.295Z,127222,0.18021122,-0.31763244,-0.6000618
1732371686309,2024-11-23T14:21:26.309Z,127236,0.15341972,-0.36358786,-0.6070837
1732371686311,2024-11-23T14:21:26.311Z,127238,0.15341972,-0.36358786,-0.6070837
1732371686325,2024-11-23T14:21:26.325Z,127252,0.11208601,-0.3003222,-0.6470354
1732371686327,2024-11-23T14:21:26.327Z,127254,0.11208601,-0.3003222,-0.6470354
1732371686355,2024-11-23T14:21:26.355Z,127282,0.14483285,-0.33192345,-0.64726406
1732371686363,2024-11-23T14:21:26.363Z,127290,0.14483285,-0.33192345,-0.64726406
1732371686393,2024-11-23T14:21:26.393Z,127320,0.13652381,-0.3217944,-0.63097155
1732371686396,2024-11-23T14:21:26.396Z,127323,0.13652381,-0.3217944,-0.63097155
1732371686416,2024-11-23T14:21:26.416Z,127343,0.01074558,-0.3070771,-0.6269172
1732371686419,2024-11-23T14:21:26.419Z,127346,0.01074558,-0.3070771,-0.6269172
1732371686436,2024-11-23T14:21:26.436Z,127363,0.034734305,-0.33761805,-0.6324324
1732371686438,2024-11-23T14:21:26.438Z,127365,0.034734305,-0.33761805,-0.6324324
1732371686454,2024-11-23T14:21:26.454Z,127381,0.07922217,-0.3652699,-0.6545435
1732371686456,2024-11-23T14:21:26.456Z,127383,0.07922217,-0.3652699,-0.6545435
1732371686470,2024-11-23T14:21:26.470Z,127397,0.094535865,-0.37468013,-0.6566269
1732371686472,2024-11-23T14:21:26.472Z,127399,0.094535865,-0.37468013,-0.6566269
1732371686496,2024-11-23T14:21:26.496Z,127423,0.12087417,-0.3883494,-0.6717198
1732371686499,2024-11-23T14:21:26.499Z,127426,0.12087417,-0.3883494,-0.6717198
1732371686516,2024-11-23T14:21:26.516Z,127443,0.059002206,-0.338592,-0.6173121
1732371686519,2024-11-23T14:21:26.519Z,127446,0.059002206,-0.338592,-0.6173121
1732371686536,2024-11-23T14:21:26.536Z,127463,0.040563747,-0.33251482,-0.6271942
1732371686538,2024-11-23T14:21:26.538Z,127465,0.040563747,-0.33251482,-0.6271942
1732371686555,2024-11-23T14:21:26.555Z,127482,-0.012981063,-0.37084547,-0.67102706
1732371686558,2024-11-23T14:21:26.558Z,127485,-0.012981063,-0.37084547,-0.67102706
1732371686571,2024-11-23T14:21:26.571Z,127498,0.09577395,-0.36001712,-0.634841
1732371686573,2024-11-23T14:21:26.573Z,127500,0.09577395,-0.36001712,-0.634841
1732371686589,2024-11-23T14:21:26.589Z,127516,0.055096325,-0.37484843,-0.6397203
1732371686591,2024-11-23T14:21:26.591Z,127518,0.055096325,-0.37484843,-0.6397203
1732371686605,2024-11-23T14:21:26.605Z,127532,0.0031721718,-0.34088245,-0.6255825
1732371686607,2024-11-23T14:21:26.607Z,127534,0.0031721718,-0.34088245,-0.6255825
1732371686622,2024-11-23T14:21:26.622Z,127549,0.023091057,-0.3217389,-0.6086986
1732371686624,2024-11-23T14:21:26.624Z,127551,0.023091057,-0.3217389,-0.6086986
1732371686639,2024-11-23T14:21:26.639Z,127566,0.028599994,-0.35808894,-0.6912454
1732371686641,2024-11-23T14:21:26.641Z,127568,0.028599994,-0.35808894,-0.6912454
1732371686657,2024-11-23T14:21:26.657Z,127584,0.076222494,-0.34893787,-0.6764165
1732371686660,2024-11-23T14:21:26.660Z,127587,0.076222494,-0.34893787,-0.6764165
1732371686674,2024-11-23T14:21:26.674Z,127601,0.02489894,-0.34680218,-0.6826796
1732371686676,2024-11-23T14:21:26.676Z,127603,0.02489894,-0.34680218,-0.6826796
1732371686690,2024-11-23T14:21:26.690Z,127617,0.09406044,-0.32031178,-0.62214285
1732371686692,2024-11-23T14:21:26.692Z,127619,0.09406044,-0.32031178,-0.62214285
1732371686705,2024-11-23T14:21:26.705Z,127632,0.088859275,-0.32317653,-0.62343603
1732371686707,2024-11-23T14:21:26.707Z,127634,0.088859275,-0.32317653,-0.62343603
1732371686740,2024-11-23T14:21:26.740Z,127667,0.021140024,-0.34504116,-0.6726134
1732371686744,2024-11-23T14:21:26.744Z,127671,0.021140024,-0.34504116,-0.6726134
1732371686782,2024-11-23T14:21:26.782Z,127709,-0.070260234,-0.38584918,-0.739417
1732371686786,2024-11-23T14:21:26.786Z,127713,-0.070260234,-0.38584918,-0.739417
1732371686822,2024-11-23T14:21:26.822Z,127749,0.058044925,-0.36856404,-0.7281696
1732371686826,2024-11-23T14:21:26.826Z,127753,0.058044925,-0.36856404,-0.7281696
1732371686851,2024-11-23T14:21:26.851Z,127778,0.0016502694,-0.36156443,-0.6934511
1732371686854,2024-11-23T14:21:26.854Z,127781,0.0016502694,-0.36156443,-0.6934511
1732371686879,2024-11-23T14:21:26.879Z,127806,0.034023862,-0.34966534,-0.70653933
1732371686883,2024-11-23T14:21:26.883Z,127810,0.034023862,-0.34966534,-0.70653933
1732371686905,2024-11-23T14:21:26.905Z,127832,0.04984407,-0.33770812,-0.6844356
1732371686908,2024-11-23T14:21:26.908Z,127835,0.04984407,-0.33770812,-0.6844356
1732371686939,2024-11-23T14:21:26.939Z,127866,-1.6741194E-4,-0.3864527,-0.6891017
1732371686945,2024-11-23T14:21:26.945Z,127872,-1.6741194E-4,-0.3864527,-0.6891017
1732371686970,2024-11-23T14:21:26.970Z,127897,-0.002006342,-0.40665227,-0.68483126
1732371686973,2024-11-23T14:21:26.973Z,127900,-0.002006342,-0.40665227,-0.68483126
1732371686994,2024-11-23T14:21:26.994Z,127921,-0.005078786,-0.42290232,-0.69554114
1732371686997,2024-11-23T14:21:26.997Z,127924,-0.005078786,-0.42290232,-0.69554114
1732371687018,2024-11-23T14:21:27.018Z,127945,-0.008496582,-0.40875292,-0.66600645
1732371687020,2024-11-23T14:21:27.020Z,127947,-0.008496582,-0.40875292,-0.66600645
1732371687039,2024-11-23T14:21:27.039Z,127966,-0.01965301,-0.4048169,-0.6717489
1732371687042,2024-11-23T14:21:27.042Z,127969,-0.01965301,-0.4048169,-0.6717489
1732371687059,2024-11-23T14:21:27.059Z,127986,-0.004451684,-0.39404172,-0.64669895
1732371687061,2024-11-23T14:21:27.061Z,127988,-0.004451684,-0.39404172,-0.64669895
1732371687076,2024-11-23T14:21:27.076Z,128003,0.024870398,-0.44001624,-0.66552615
1732371687078,2024-11-23T14:21:27.078Z,128005,0.024870398,-0.44001624,-0.66552615
1732371687094,2024-11-23T14:21:27.094Z,128021,0.024998521,-0.4480018,-0.66496956
1732371687096,2024-11-23T14:21:27.096Z,128023,0.024998521,-0.4480018,-0.66496956
1732371687110,2024-11-23T14:21:27.110Z,128037,-0.0087171635,-0.43113977,-0.6144898
1732371687112,2024-11-23T14:21:27.112Z,128039,-0.0087171635,-0.43113977,-0.6144898
1732371687127,2024-11-23T14:21:27.127Z,128054,0.013212609,-0.40685156,-0.67789066
1732371687129,2024-11-23T14:21:27.129Z,128056,0.013212609,-0.40685156,-0.67789066
1732371687146,2024-11-23T14:21:27.146Z,128073,0.061904248,-0.42063552,-0.7326826
1732371687148,2024-11-23T14:21:27.148Z,128075,0.061904248,-0.42063552,-0.7326826
1732371687164,2024-11-23T14:21:27.164Z,128091,7.457927E-4,-0.38146865,-0.5980929
1732371687166,2024-11-23T14:21:27.166Z,128093,7.457927E-4,-0.38146865,-0.5980929
1732371687182,2024-11-23T14:21:27.182Z,128109,-0.0056759845,-0.37466928,-0.55193967
1732371687183,2024-11-23T14:21:27.183Z,128110,-0.0056759845,-0.37466928,-0.55193967
1732371687197,2024-11-23T14:21:27.197Z,128124,0.007250133,-0.36518,-0.5837848
1732371687199,2024-11-23T14:21:27.199Z,128126,0.007250133,-0.36518,-0.5837848
1732371687227,2024-11-23T14:21:27.227Z,128154,-0.048605163,-0.4034175,-0.6742464
1732371687231,2024-11-23T14:21:27.231Z,128158,-0.048605163,-0.4034175,-0.6742464
1732371687262,2024-11-23T14:21:27.262Z,128189,0.020382512,-0.4230915,-0.7037068
1732371687266,2024-11-23T14:21:27.266Z,128193,0.020382512,-0.4230915,-0.7037068
1732371687287,2024-11-23T14:21:27.287Z,128214,0.04893184,-0.4077221,-0.66974956
1732371687290,2024-11-23T14:21:27.290Z,128217,0.04893184,-0.4077221,-0.66974956
1732371687327,2024-11-23T14:21:27.327Z,128254,0.0036606714,-0.35366014,-0.56057096
1732371687333,2024-11-23T14:21:27.333Z,128260,0.0036606714,-0.35366014,-0.56057096
1732371687365,2024-11-23T14:21:27.365Z,128292,0.021996751,-0.36023122,-0.64759827
1732371687368,2024-11-23T14:21:27.368Z,128295,0.021996751,-0.36023122,-0.64759827
1732371687392,2024-11-23T14:21:27.392Z,128319,0.019118877,-0.3582194,-0.65932715
1732371687395,2024-11-23T14:21:27.395Z,128322,0.019118877,-0.3582194,-0.65932715
1732371687418,2024-11-23T14:21:27.418Z,128345,-0.016727263,-0.35626164,-0.63521427
1732371687422,2024-11-23T14:21:27.422Z,128349,-0.016727263,-0.35626164,-0.63521427
1732371687445,2024-11-23T14:21:27.445Z,128372,-0.041401975,-0.36940166,-0.63215375
1732371687448,2024-11-23T14:21:27.448Z,128375,-0.041401975,-0.36940166,-0.63215375
1732371687474,2024-11-23T14:21:27.474Z,128401,-0.05671939,-0.37164983,-0.6414108
1732371687476,2024-11-23T14:21:27.476Z,128403,-0.05671939,-0.37164983,-0.6414108
1732371687495,2024-11-23T14:21:27.495Z,128422,0.009251443,-0.35690728,-0.65183896
1732371687497,2024-11-23T14:21:27.497Z,128424,0.009251443,-0.35690728,-0.65183896
1732371687512,2024-11-23T14:21:27.512Z,128439,-0.017465666,-0.34762743,-0.6291749
1732371687513,2024-11-23T14:21:27.513Z,128440,-0.017465666,-0.34762743,-0.6291749
1732371687529,2024-11-23T14:21:27.529Z,128456,-0.017254686,-0.32920033,-0.62291414
1732371687531,2024-11-23T14:21:27.531Z,128458,-0.017254686,-0.32920033,-0.62291414
1732371687563,2024-11-23T14:21:27.563Z,128490,-0.016860079,-0.33623114,-0.61907244
1732371687568,2024-11-23T14:21:27.568Z,128495,-0.016860079,-0.33623114,-0.61907244
1732371687606,2024-11-23T14:21:27.606Z,128533,0.012189734,-0.33075708,-0.70243305
1732371687611,2024-11-23T14:21:27.611Z,128538,0.012189734,-0.33075708,-0.70243305
1732371687640,2024-11-23T14:21:27.640Z,128567,0.012090809,-0.31952122,-0.6382525
1732371687643,2024-11-23T14:21:27.643Z,128570,0.012090809,-0.31952122,-0.6382525
1732371687666,2024-11-23T14:21:27.666Z,128593,-0.018212674,-0.31799853,-0.64530694
1732371687670,2024-11-23T14:21:27.670Z,128597,-0.018212674,-0.31799853,-0.64530694
1732371687691,2024-11-23T14:21:27.691Z,128618,0.017945219,-0.31783718,-0.64687157
1732371687694,2024-11-23T14:21:27.694Z,128621,0.017945219,-0.31783718,-0.64687157
1732371687715,2024-11-23T14:21:27.715Z,128642,-0.019069085,-0.39724436,-0.6032765
1732371687717,2024-11-23T14:21:27.717Z,128644,-0.019069085,-0.39724436,-0.6032765
1732371687732,2024-11-23T14:21:27.732Z,128659,-0.010918706,-0.41945142,-0.63974303
1732371687734,2024-11-23T14:21:27.734Z,128661,-0.010918706,-0.41945142,-0.63974303
1732371687750,2024-11-23T14:21:27.750Z,128677,-0.055084947,-0.4448764,-0.6630643
1732371687752,2024-11-23T14:21:27.752Z,128679,-0.055084947,-0.4448764,-0.6630643
1732371687770,2024-11-23T14:21:27.770Z,128697,-0.04038965,-0.4635222,-0.65316635
1732371687772,2024-11-23T14:21:27.772Z,128699,-0.04038965,-0.4635222,-0.65316635
1732371687788,2024-11-23T14:21:27.788Z,128715,-0.001365674,-0.4775489,-0.6060194
1732371687790,2024-11-23T14:21:27.790Z,128717,-0.001365674,-0.4775489,-0.6060194
1732371687807,2024-11-23T14:21:27.807Z,128734,-0.038635056,-0.48839593,-0.55912215
1732371687809,2024-11-23T14:21:27.809Z,128736,-0.038635056,-0.48839593,-0.55912215
1732371687826,2024-11-23T14:21:27.826Z,128753,-0.054056454,-0.53456396,-0.64621824
1732371687829,2024-11-23T14:21:27.829Z,128756,-0.054056454,-0.53456396,-0.64621824
1732371687853,2024-11-23T14:21:27.853Z,128780,-0.040738795,-0.5518234,-0.65927833
1732371687856,2024-11-23T14:21:27.856Z,128783,-0.040738795,-0.5518234,-0.65927833
1732371687886,2024-11-23T14:21:27.886Z,128813,-0.07174346,-0.55619323,-0.67493534
1732371687889,2024-11-23T14:21:27.889Z,128816,-0.07174346,-0.55619323,-0.67493534
1732371687906,2024-11-23T14:21:27.906Z,128833,0.047099255,-0.52250636,-0.59012216
1732371687909,2024-11-23T14:21:27.909Z,128836,0.047099255,-0.52250636,-0.59012216
1732371687925,2024-11-23T14:21:27.925Z,128852,-0.008703403,-0.50963557,-0.5851731
1732371687927,2024-11-23T14:21:27.927Z,128854,-0.008703403,-0.50963557,-0.5851731
1732371687955,2024-11-23T14:21:27.955Z,128882,-0.03694742,-0.534236,-0.6758991
1732371687961,2024-11-23T14:21:27.961Z,128888,-0.03694742,-0.534236,-0.6758991
1732371688006,2024-11-23T14:21:28.006Z,128933,-0.0048380736,-0.5451632,-0.6283783
1732371688010,2024-11-23T14:21:28.010Z,128937,-0.0048380736,-0.5451632,-0.6283783
1732371688034,2024-11-23T14:21:28.034Z,128961,0.041398764,-0.5377544,-0.60998386
1732371688036,2024-11-23T14:21:28.036Z,128963,0.041398764,-0.5377544,-0.60998386
1732371688053,2024-11-23T14:21:28.053Z,128980,-0.0142062865,-0.52051795,-0.5777088
1732371688055,2024-11-23T14:21:28.055Z,128982,-0.0142062865,-0.52051795,-0.5777088
1732371688070,2024-11-23T14:21:28.070Z,128997,0.03129091,-0.54849243,-0.60937864
1732371688073,2024-11-23T14:21:28.073Z,129000,0.03129091,-0.54849243,-0.60937864
1732371688091,2024-11-23T14:21:28.091Z,129018,0.08719748,-0.552575,-0.62234545
1732371688093,2024-11-23T14:21:28.093Z,129020,0.08719748,-0.552575,-0.62234545
1732371688128,2024-11-23T14:21:28.128Z,129055,0.103486255,-0.54671174,-0.618221
1732371688133,2024-11-23T14:21:28.133Z,129060,0.103486255,-0.54671174,-0.618221
1732371688164,2024-11-23T14:21:28.164Z,129091,0.094486825,-0.52937233,-0.5932662
1732371688167,2024-11-23T14:21:28.167Z,129094,0.094486825,-0.52937233,-0.5932662
1732371688188,2024-11-23T14:21:28.188Z,129115,0.10121202,-0.52620775,-0.6402747
1732371688191,2024-11-23T14:21:28.191Z,129118,0.10121202,-0.52620775,-0.6402747
1732371688212,2024-11-23T14:21:28.212Z,129139,0.13861114,-0.523675,-0.6505874
1732371688214,2024-11-23T14:21:28.214Z,129141,0.13861114,-0.523675,-0.6505874
1732371688231,2024-11-23T14:21:28.231Z,129158,0.20381501,-0.5035551,-0.5813206
1732371688233,2024-11-23T14:21:28.233Z,129160,0.20381501,-0.5035551,-0.5813206
1732371688263,2024-11-23T14:21:28.263Z,129190,0.15372823,-0.5173509,-0.5849706
1732371688269,2024-11-23T14:21:28.269Z,129196,0.15372823,-0.5173509,-0.5849706
1732371688303,2024-11-23T14:21:28.303Z,129230,0.17533846,-0.5104908,-0.5948136
1732371688306,2024-11-23T14:21:28.306Z,129233,0.17533846,-0.5104908,-0.5948136
1732371688329,2024-11-23T14:21:28.329Z,129256,0.22468898,-0.504561,-0.58210033
1732371688332,2024-11-23T14:21:28.332Z,129259,0.22468898,-0.504561,-0.58210033
1732371688363,2024-11-23T14:21:28.363Z,129290,0.2079746,-0.4799835,-0.5412995
1732371688367,2024-11-23T14:21:28.367Z,129294,0.2079746,-0.4799835,-0.5412995
1732371688391,2024-11-23T14:21:28.391Z,129318,0.28482768,-0.49722716,-0.53568715
1732371688394,2024-11-23T14:21:28.394Z,129321,0.28482768,-0.49722716,-0.53568715
1732371688415,2024-11-23T14:21:28.415Z,129342,0.22234347,-0.52768713,-0.55401593
1732371688418,2024-11-23T14:21:28.418Z,129345,0.22234347,-0.52768713,-0.55401593
1732371688441,2024-11-23T14:21:28.441Z,129368,0.26238307,-0.5469048,-0.53020114
1732371688444,2024-11-23T14:21:28.444Z,129371,0.26238307,-0.5469048,-0.53020114
1732371688465,2024-11-23T14:21:28.465Z,129392,0.3005738,-0.5627159,-0.49868858
1732371688468,2024-11-23T14:21:28.468Z,129395,0.3005738,-0.5627159,-0.49868858
1732371688485,2024-11-23T14:21:28.485Z,129412,0.29640862,-0.55165946,-0.5199891
1732371688487,2024-11-23T14:21:28.487Z,129414,0.29640862,-0.55165946,-0.5199891
1732371688503,2024-11-23T14:21:28.503Z,129430,0.29006147,-0.5187243,-0.5087203
1732371688505,2024-11-23T14:21:28.505Z,129432,0.29006147,-0.5187243,-0.5087203
1732371688521,2024-11-23T14:21:28.521Z,129448,0.37050423,-0.40112007,-0.43347278
1732371688523,2024-11-23T14:21:28.523Z,129450,0.37050423,-0.40112007,-0.43347278
1732371688539,2024-11-23T14:21:28.539Z,129466,0.45384547,-0.39067557,-0.41839978
1732371688542,2024-11-23T14:21:28.542Z,129469,0.45384547,-0.39067557,-0.41839978
1732371688561,2024-11-23T14:21:28.561Z,129488,0.43799603,-0.38090837,-0.43096185
1732371688563,2024-11-23T14:21:28.563Z,129490,0.43799603,-0.38090837,-0.43096185
1732371688586,2024-11-23T14:21:28.586Z,129513,0.4496212,-0.37157288,-0.41842997
1732371688589,2024-11-23T14:21:28.589Z,129516,0.4496212,-0.37157288,-0.41842997
1732371688611,2024-11-23T14:21:28.611Z,129538,0.40432,-0.38064325,-0.47381392
1732371688614,2024-11-23T14:21:28.614Z,129541,0.40432,-0.38064325,-0.47381392
1732371688629,2024-11-23T14:21:28.629Z,129556,0.37768143,-0.31500435,-0.38313335
1732371688632,2024-11-23T14:21:28.632Z,129559,0.37768143,-0.31500435,-0.38313335
1732371688647,2024-11-23T14:21:28.647Z,129574,0.37004864,-0.35038084,-0.4046428
1732371688649,2024-11-23T14:21:28.649Z,129576,0.37004864,-0.35038084,-0.4046428
1732371688665,2024-11-23T14:21:28.665Z,129592,0.46927702,-0.38283065,-0.3444639
1732371688667,2024-11-23T14:21:28.667Z,129594,0.46927702,-0.38283065,-0.3444639
1732371688683,2024-11-23T14:21:28.683Z,129610,0.56532353,-0.39361742,-0.30094358
1732371688685,2024-11-23T14:21:28.685Z,129612,0.56532353,-0.39361742,-0.30094358
1732371688700,2024-11-23T14:21:28.700Z,129627,0.44184518,-0.39771414,-0.3537058
1732371688702,2024-11-23T14:21:28.702Z,129629,0.44184518,-0.39771414,-0.3537058
1732371688717,2024-11-23T14:21:28.717Z,129644,0.4539057,-0.3713337,-0.29047784
1732371688719,2024-11-23T14:21:28.719Z,129646,0.4539057,-0.3713337,-0.29047784
1732371688738,2024-11-23T14:21:28.738Z,129665,0.5374014,-0.43168917,-0.26369935
1732371688741,2024-11-23T14:21:28.741Z,129668,0.5374014,-0.43168917,-0.26369935
1732371688757,2024-11-23T14:21:28.757Z,129684,0.50438803,-0.31389832,-0.31926557
1732371688759,2024-11-23T14:21:28.759Z,129686,0.50438803,-0.31389832,-0.31926557
1732371688775,2024-11-23T14:21:28.775Z,129702,0.44866234,-0.24681018,-0.39801183
1732371688778,2024-11-23T14:21:28.778Z,129705,0.44866234,-0.24681018,-0.39801183
1732371688793,2024-11-23T14:21:28.793Z,129720,0.45572424,-0.27575177,-0.43291536
1732371688795,2024-11-23T14:21:28.795Z,129722,0.45572424,-0.27575177,-0.43291536
1732371688810,2024-11-23T14:21:28.810Z,129737,0.6577755,-0.22760706,-0.25320134
1732371688812,2024-11-23T14:21:28.812Z,129739,0.6577755,-0.22760706,-0.25320134
1732371688843,2024-11-23T14:21:28.843Z,129770,0.5767896,-0.14270237,-0.33061823
1732371688849,2024-11-23T14:21:28.849Z,129776,0.5767896,-0.14270237,-0.33061823
1732371688888,2024-11-23T14:21:28.888Z,129815,0.486361,-0.14784293,-0.43833494
1732371688891,2024-11-23T14:21:28.891Z,129818,0.486361,-0.14784293,-0.43833494
1732371688917,2024-11-23T14:21:28.917Z,129844,0.58563393,-0.044037946,-0.27801254
1732371688920,2024-11-23T14:21:28.920Z,129847,0.58563393,-0.044037946,-0.27801254
1732371688940,2024-11-23T14:21:28.940Z,129867,0.47336546,-0.19662647,-0.32476243
1732371688943,2024-11-23T14:21:28.943Z,129870,0.47336546,-0.19662647,-0.32476243
1732371688962,2024-11-23T14:21:28.962Z,129889,0.47072688,-0.21125044,-0.38488296
1732371688964,2024-11-23T14:21:28.964Z,129891,0.47072688,-0.21125044,-0.38488296
1732371688993,2024-11-23T14:21:28.993Z,129920,0.5721729,-0.42470333,-0.013324615
1732371688998,2024-11-23T14:21:28.998Z,129925,0.5721729,-0.42470333,-0.013324615
1732371689025,2024-11-23T14:21:29.025Z,129952,0.4947617,-0.42855167,0.033551853
1732371689027,2024-11-23T14:21:29.027Z,129954,0.4947617,-0.42855167,0.033551853
1732371689050,2024-11-23T14:21:29.050Z,129977,0.489773,-0.3785409,-0.051917247
1732371689053,2024-11-23T14:21:29.053Z,129980,0.489773,-0.3785409,-0.051917247
1732371689075,2024-11-23T14:21:29.075Z,130002,0.4913153,-0.38158593,-0.026521858
1732371689078,2024-11-23T14:21:29.078Z,130005,0.4913153,-0.38158593,-0.026521858
1732371689107,2024-11-23T14:21:29.107Z,130034,0.57745486,-0.32640168,-0.10117235
1732371689109,2024-11-23T14:21:29.109Z,130036,0.57745486,-0.32640168,-0.10117235
1732371689126,2024-11-23T14:21:29.126Z,130053,0.5962008,-0.3222411,-0.109768264
1732371689128,2024-11-23T14:21:29.128Z,130055,0.5962008,-0.3222411,-0.109768264
1732371689146,2024-11-23T14:21:29.146Z,130073,0.5741001,-0.33637542,-0.1286327
1732371689149,2024-11-23T14:21:29.149Z,130076,0.5741001,-0.33637542,-0.1286327
1732371689166,2024-11-23T14:21:29.166Z,130093,0.6885063,-0.36308765,-0.088798575
1732371689168,2024-11-23T14:21:29.168Z,130095,0.6885063,-0.36308765,-0.088798575
1732371689184,2024-11-23T14:21:29.184Z,130111,0.6312798,-0.43809414,-0.12787218
1732371689186,2024-11-23T14:21:29.186Z,130113,0.6312798,-0.43809414,-0.12787218
1732371689200,2024-11-23T14:21:29.200Z,130127,0.589989,-0.42518207,-0.1419611
1732371689202,2024-11-23T14:21:29.202Z,130129,0.589989,-0.42518207,-0.1419611
1732371689216,2024-11-23T14:21:29.216Z,130143,0.6505374,-0.40760455,-0.13665695
1732371689217,2024-11-23T14:21:29.217Z,130144,0.6505374,-0.40760455,-0.13665695
1732371689235,2024-11-23T14:21:29.235Z,130162,0.5395766,-0.44995958,-0.053453915
1732371689237,2024-11-23T14:21:29.237Z,130164,0.5395766,-0.44995958,-0.053453915
1732371689251,2024-11-23T14:21:29.251Z,130178,0.64011323,-0.43432608,-0.018509472
1732371689253,2024-11-23T14:21:29.253Z,130180,0.64011323,-0.43432608,-0.018509472
1732371689269,2024-11-23T14:21:29.269Z,130196,0.64898425,-0.42376357,-0.02120828
1732371689271,2024-11-23T14:21:29.271Z,130198,0.64898425,-0.42376357,-0.02120828
1732371689286,2024-11-23T14:21:29.286Z,130213,0.6222659,-0.35007533,-0.084093116
1732371689288,2024-11-23T14:21:29.288Z,130215,0.6222659,-0.35007533,-0.084093116
1732371689303,2024-11-23T14:21:29.303Z,130230,0.5870364,-0.34446576,-0.09199279
1732371689305,2024-11-23T14:21:29.305Z,130232,0.5870364,-0.34446576,-0.09199279
1732371689320,2024-11-23T14:21:29.320Z,130247,0.54752576,-0.335154,-0.13091704
1732371689322,2024-11-23T14:21:29.322Z,130249,0.54752576,-0.335154,-0.13091704
1732371689337,2024-11-23T14:21:29.337Z,130264,0.57518715,-0.27868447,-0.23656581
1732371689339,2024-11-23T14:21:29.339Z,130266,0.57518715,-0.27868447,-0.23656581
1732371689356,2024-11-23T14:21:29.356Z,130283,0.63170075,-0.27878115,-0.1892765
1732371689358,2024-11-23T14:21:29.358Z,130285,0.63170075,-0.27878115,-0.1892765
1732371689373,2024-11-23T14:21:29.373Z,130300,0.5827552,-0.27844176,-0.16426931
1732371689375,2024-11-23T14:21:29.375Z,130302,0.5827552,-0.27844176,-0.16426931
1732371689389,2024-11-23T14:21:29.389Z,130316,0.5560781,-0.22913818,-0.16381226
1732371689391,2024-11-23T14:21:29.391Z,130318,0.5560781,-0.22913818,-0.16381226
1732371689409,2024-11-23T14:21:29.409Z,130336,0.5526225,-0.23059121,-0.19813241
1732371689411,2024-11-23T14:21:29.411Z,130338,0.5526225,-0.23059121,-0.19813241
1732371689425,2024-11-23T14:21:29.425Z,130352,0.5658428,-0.2321265,-0.18562149
1732371689427,2024-11-23T14:21:29.427Z,130354,0.5658428,-0.2321265,-0.18562149
1732371689441,2024-11-23T14:21:29.441Z,130368,0.59273684,-0.27140486,-0.20766321
1732371689443,2024-11-23T14:21:29.443Z,130370,0.59273684,-0.27140486,-0.20766321
1732371689459,2024-11-23T14:21:29.459Z,130386,0.56797695,-0.22747587,-0.23413745
1732371689461,2024-11-23T14:21:29.461Z,130388,0.56797695,-0.22747587,-0.23413745
1732371689478,2024-11-23T14:21:29.478Z,130405,0.5429797,-0.20982221,-0.25166932
1732371689480,2024-11-23T14:21:29.480Z,130407,0.5429797,-0.20982221,-0.25166932
1732371689495,2024-11-23T14:21:29.495Z,130422,0.44545406,-0.34191972,-0.32052898
1732371689498,2024-11-23T14:21:29.498Z,130425,0.44545406,-0.34191972,-0.32052898
1732371689517,2024-11-23T14:21:29.517Z,130444,0.46899495,-0.33109868,-0.3585709
1732371689520,2024-11-23T14:21:29.520Z,130447,0.46899495,-0.33109868,-0.3585709
1732371689540,2024-11-23T14:21:29.540Z,130467,0.42718294,-0.32537144,-0.45077604
1732371689543,2024-11-23T14:21:29.543Z,130470,0.42718294,-0.32537144,-0.45077604
1732371689559,2024-11-23T14:21:29.559Z,130486,0.59667015,-0.371969,-0.40675753
1732371689562,2024-11-23T14:21:29.562Z,130489,0.59667015,-0.371969,-0.40675753
1732371689576,2024-11-23T14:21:29.576Z,130503,0.46841434,-0.37481293,-0.32535595
1732371689578,2024-11-23T14:21:29.578Z,130505,0.46841434,-0.37481293,-0.32535595
1732371689593,2024-11-23T14:21:29.593Z,130520,0.3586735,-0.36939043,-0.38225955
1732371689595,2024-11-23T14:21:29.595Z,130522,0.3586735,-0.36939043,-0.38225955
1732371689609,2024-11-23T14:21:29.609Z,130536,0.4235633,-0.34696385,-0.43716192
1732371689611,2024-11-23T14:21:29.611Z,130538,0.4235633,-0.34696385,-0.43716192
1732371689625,2024-11-23T14:21:29.625Z,130552,0.4748296,-0.3244424,-0.4694043
1732371689627,2024-11-23T14:21:29.627Z,130554,0.4748296,-0.3244424,-0.4694043
1732371689646,2024-11-23T14:21:29.646Z,130573,0.54488474,-0.32481095,-0.46371615
1732371689648,2024-11-23T14:21:29.648Z,130575,0.54488474,-0.32481095,-0.46371615
1732371689662,2024-11-23T14:21:29.662Z,130589,0.35005772,-0.30256638,-0.57317066
1732371689664,2024-11-23T14:21:29.664Z,130591,0.35005772,-0.30256638,-0.57317066
1732371689677,2024-11-23T14:21:29.677Z,130604,0.44613177,-0.31504005,-0.49012902
1732371689680,2024-11-23T14:21:29.680Z,130607,0.44613177,-0.31504005,-0.49012902
1732371689696,2024-11-23T14:21:29.696Z,130623,0.47637677,-0.31856534,-0.5093323
1732371689699,2024-11-23T14:21:29.699Z,130626,0.47637677,-0.31856534,-0.5093323
1732371689715,2024-11-23T14:21:29.715Z,130642,0.4686731,-0.3612035,-0.5354026
1732371689717,2024-11-23T14:21:29.717Z,130644,0.4686731,-0.3612035,-0.5354026
1732371689733,2024-11-23T14:21:29.733Z,130660,0.34013256,-0.34284905,-0.6199412
1732371689735,2024-11-23T14:21:29.735Z,130662,0.34013256,-0.34284905,-0.6199412
1732371689750,2024-11-23T14:21:29.750Z,130677,0.33586493,-0.33978584,-0.44088024
1732371689752,2024-11-23T14:21:29.752Z,130679,0.33586493,-0.33978584,-0.44088024
1732371689768,2024-11-23T14:21:29.768Z,130695,0.25336283,-0.3349984,-0.48184264
1732371689770,2024-11-23T14:21:29.770Z,130697,0.25336283,-0.3349984,-0.48184264
1732371689786,2024-11-23T14:21:29.786Z,130713,0.37748918,-0.35084426,-0.5746121
1732371689787,2024-11-23T14:21:29.787Z,130714,0.37748918,-0.35084426,-0.5746121
1732371689803,2024-11-23T14:21:29.803Z,130730,0.36911696,-0.34941435,-0.55097836
1732371689806,2024-11-23T14:21:29.806Z,130733,0.36911696,-0.34941435,-0.55097836
1732371689839,2024-11-23T14:21:29.839Z,130766,0.19949737,-0.3249777,-0.4775656
1732371689844,2024-11-23T14:21:29.844Z,130771,0.19949737,-0.3249777,-0.4775656
1732371689883,2024-11-23T14:21:29.883Z,130810,0.16800511,-0.32668832,-0.46416578
1732371689889,2024-11-23T14:21:29.889Z,130816,0.16800511,-0.32668832,-0.46416578
1732371689928,2024-11-23T14:21:29.928Z,130855,0.26873213,-0.3224955,-0.46779078
1732371689933,2024-11-23T14:21:29.933Z,130860,0.26873213,-0.3224955,-0.46779078
1732371689957,2024-11-23T14:21:29.957Z,130884,0.19061862,-0.38186103,-0.53465885
1732371689960,2024-11-23T14:21:29.960Z,130887,0.19061862,-0.38186103,-0.53465885
1732371689983,2024-11-23T14:21:29.983Z,130910,0.27977183,-0.35510066,-0.52282053
1732371689985,2024-11-23T14:21:29.985Z,130912,0.27977183,-0.35510066,-0.52282053
1732371690011,2024-11-23T14:21:30.011Z,130938,0.2947644,-0.3765586,-0.5140404
1732371690013,2024-11-23T14:21:30.013Z,130940,0.2947644,-0.3765586,-0.5140404
1732371690029,2024-11-23T14:21:30.029Z,130956,0.21569827,-0.354829,-0.52443546
1732371690031,2024-11-23T14:21:30.031Z,130958,0.21569827,-0.354829,-0.52443546
1732371690049,2024-11-23T14:21:30.049Z,130976,0.17445977,-0.3618532,-0.53253037
1732371690052,2024-11-23T14:21:30.052Z,130979,0.17445977,-0.3618532,-0.53253037
1732371690066,2024-11-23T14:21:30.066Z,130993,0.1978167,-0.37890145,-0.55569744
1732371690068,2024-11-23T14:21:30.068Z,130995,0.1978167,-0.37890145,-0.55569744
1732371690084,2024-11-23T14:21:30.084Z,131011,0.1644637,-0.3555356,-0.5121083
1732371690086,2024-11-23T14:21:30.086Z,131013,0.1644637,-0.3555356,-0.5121083
1732371690103,2024-11-23T14:21:30.103Z,131030,0.07204269,-0.35169908,-0.555267
1732371690105,2024-11-23T14:21:30.105Z,131032,0.07204269,-0.35169908,-0.555267
1732371690121,2024-11-23T14:21:30.121Z,131048,0.06801209,-0.3500446,-0.54940426
1732371690123,2024-11-23T14:21:30.123Z,131050,0.06801209,-0.3500446,-0.54940426
1732371690138,2024-11-23T14:21:30.138Z,131065,0.13798898,-0.37729973,-0.56869394
1732371690141,2024-11-23T14:21:30.141Z,131068,0.13798898,-0.37729973,-0.56869394
1732371690156,2024-11-23T14:21:30.156Z,131083,0.069141544,-0.37262723,-0.5834827
1732371690158,2024-11-23T14:21:30.158Z,131085,0.069141544,-0.37262723,-0.5834827
1732371690173,2024-11-23T14:21:30.173Z,131100,0.024956074,-0.3529077,-0.5686936
1732371690175,2024-11-23T14:21:30.175Z,131102,0.024956074,-0.3529077,-0.5686936
1732371690192,2024-11-23T14:21:30.192Z,131119,0.018667234,-0.3215796,-0.6195712
1732371690194,2024-11-23T14:21:30.194Z,131121,0.018667234,-0.3215796,-0.6195712
1732371690212,2024-11-23T14:21:30.212Z,131139,0.07965886,-0.34018713,-0.58109856
1732371690215,2024-11-23T14:21:30.215Z,131142,0.07965886,-0.34018713,-0.58109856
1732371690247,2024-11-23T14:21:30.247Z,131174,-0.04493664,-0.38129133,-0.58585113
1732371690253,2024-11-23T14:21:30.253Z,131180,-0.04493664,-0.38129133,-0.58585113
1732371690289,2024-11-23T14:21:30.289Z,131216,-0.005066217,-0.38444963,-0.5996109
1732371690294,2024-11-23T14:21:30.294Z,131221,-0.005066217,-0.38444963,-0.5996109
1732371690319,2024-11-23T14:21:30.319Z,131246,-0.0507688,-0.3820832,-0.61576045
1732371690322,2024-11-23T14:21:30.322Z,131249,-0.0507688,-0.3820832,-0.61576045
1732371690343,2024-11-23T14:21:30.343Z,131270,-0.0057607116,-0.36813053,-0.64501786
1732371690346,2024-11-23T14:21:30.346Z,131273,-0.0057607116,-0.36813053,-0.64501786
1732371690376,2024-11-23T14:21:30.376Z,131303,-0.05401155,-0.39079276,-0.6120636
1732371690381,2024-11-23T14:21:30.381Z,131308,-0.05401155,-0.39079276,-0.6120636
1732371690419,2024-11-23T14:21:30.419Z,131346,-0.0761047,-0.3739674,-0.6175463
1732371690422,2024-11-23T14:21:30.422Z,131349,-0.0761047,-0.3739674,-0.6175463
1732371690441,2024-11-23T14:21:30.441Z,131368,-0.049921192,-0.3943549,-0.61240643
1732371690443,2024-11-23T14:21:30.443Z,131370,-0.049921192,-0.3943549,-0.61240643
1732371690459,2024-11-23T14:21:30.459Z,131386,-0.06537203,-0.4127933,-0.6649773
1732371690461,2024-11-23T14:21:30.461Z,131388,-0.06537203,-0.4127933,-0.6649773
1732371690477,2024-11-23T14:21:30.477Z,131404,-0.09532736,-0.41628852,-0.72716
1732371690479,2024-11-23T14:21:30.479Z,131406,-0.09532736,-0.41628852,-0.72716
1732371690494,2024-11-23T14:21:30.494Z,131421,-0.03527082,-0.3856246,-0.68676096
1732371690496,2024-11-23T14:21:30.496Z,131423,-0.03527082,-0.3856246,-0.68676096
1732371690510,2024-11-23T14:21:30.510Z,131437,-0.025415642,-0.3620869,-0.6394479
1732371690512,2024-11-23T14:21:30.512Z,131439,-0.025415642,-0.3620869,-0.6394479
1732371690528,2024-11-23T14:21:30.528Z,131455,-0.03752145,-0.3578562,-0.6114313
1732371690530,2024-11-23T14:21:30.530Z,131457,-0.03752145,-0.3578562,-0.6114313
1732371690546,2024-11-23T14:21:30.546Z,131473,-0.04735672,-0.38211706,-0.58296704
1732371690549,2024-11-23T14:21:30.549Z,131476,-0.04735672,-0.38211706,-0.58296704
1732371690573,2024-11-23T14:21:30.573Z,131500,-0.04957786,-0.40239704,-0.6108866
1732371690576,2024-11-23T14:21:30.576Z,131503,-0.04957786,-0.40239704,-0.6108866
1732371690589,2024-11-23T14:21:30.589Z,131516,-0.08784828,-0.4177362,-0.6042706
1732371690591,2024-11-23T14:21:30.591Z,131518,-0.08784828,-0.4177362,-0.6042706
1732371690608,2024-11-23T14:21:30.608Z,131535,0.009594022,-0.3524292,-0.6115239
1732371690611,2024-11-23T14:21:30.611Z,131538,0.009594022,-0.3524292,-0.6115239
1732371690632,2024-11-23T14:21:30.632Z,131559,-0.039340276,-0.34493026,-0.61786956
1732371690634,2024-11-23T14:21:30.634Z,131561,-0.039340276,-0.34493026,-0.61786956
1732371690650,2024-11-23T14:21:30.650Z,131577,-0.049648922,-0.3427271,-0.59787786
1732371690652,2024-11-23T14:21:30.652Z,131579,-0.049648922,-0.3427271,-0.59787786
1732371690667,2024-11-23T14:21:30.667Z,131594,-0.02863865,-0.320842,-0.5684284
1732371690669,2024-11-23T14:21:30.669Z,131596,-0.02863865,-0.320842,-0.5684284
1732371690686,2024-11-23T14:21:30.686Z,131613,-0.055888187,-0.33893532,-0.64728004
1732371690688,2024-11-23T14:21:30.688Z,131615,-0.055888187,-0.33893532,-0.64728004
1732371690706,2024-11-23T14:21:30.706Z,131633,-0.052534796,-0.34350786,-0.61574626
1732371690708,2024-11-23T14:21:30.708Z,131635,-0.052534796,-0.34350786,-0.61574626
1732371690722,2024-11-23T14:21:30.722Z,131649,-0.082959056,-0.34209037,-0.6109683
1732371690724,2024-11-23T14:21:30.724Z,131651,-0.082959056,-0.34209037,-0.6109683
1732371690739,2024-11-23T14:21:30.739Z,131666,-0.060562983,-0.35646373,-0.5520663
1732371690740,2024-11-23T14:21:30.740Z,131667,-0.060562983,-0.35646373,-0.5520663
1732371690755,2024-11-23T14:21:30.755Z,131682,-0.122560225,-0.34078544,-0.54244965
1732371690757,2024-11-23T14:21:30.757Z,131684,-0.122560225,-0.34078544,-0.54244965
1732371690772,2024-11-23T14:21:30.772Z,131699,-0.092569664,-0.34923202,-0.5385497
1732371690775,2024-11-23T14:21:30.775Z,131702,-0.092569664,-0.34923202,-0.5385497
1732371690792,2024-11-23T14:21:30.792Z,131719,-0.06335407,-0.35822392,-0.52899754
1732371690795,2024-11-23T14:21:30.795Z,131722,-0.06335407,-0.35822392,-0.52899754
1732371690814,2024-11-23T14:21:30.814Z,131741,-0.15388116,-0.3809304,-0.59616834
1732371690816,2024-11-23T14:21:30.816Z,131743,-0.15388116,-0.3809304,-0.59616834
1732371690830,2024-11-23T14:21:30.830Z,131757,-0.13028981,-0.39173105,-0.6234318
1732371690832,2024-11-23T14:21:30.832Z,131759,-0.13028981,-0.39173105,-0.6234318
1732371690849,2024-11-23T14:21:30.849Z,131776,-0.09294983,-0.36833638,-0.60057133
1732371690851,2024-11-23T14:21:30.851Z,131778,-0.09294983,-0.36833638,-0.60057133
1732371690868,2024-11-23T14:21:30.868Z,131795,-0.069530636,-0.30721024,-0.544732
1732371690870,2024-11-23T14:21:30.870Z,131797,-0.069530636,-0.30721024,-0.544732
1732371690885,2024-11-23T14:21:30.885Z,131812,-0.0559497,-0.29412168,-0.54120374
1732371690887,2024-11-23T14:21:30.887Z,131814,-0.0559497,-0.29412168,-0.54120374
1732371690904,2024-11-23T14:21:30.904Z,131831,-0.044518717,-0.287344,-0.5480258
1732371690906,2024-11-23T14:21:30.906Z,131833,-0.044518717,-0.287344,-0.5480258
1732371690923,2024-11-23T14:21:30.923Z,131850,-0.0149259195,-0.27146432,-0.5929455
1732371690924,2024-11-23T14:21:30.924Z,131851,-0.0149259195,-0.27146432,-0.5929455
1732371690959,2024-11-23T14:21:30.959Z,131886,-0.014197583,-0.25837353,-0.5814858
1732371690964,2024-11-23T14:21:30.964Z,131891,-0.014197583,-0.25837353,-0.5814858
1732371691007,2024-11-23T14:21:31.007Z,131934,0.005174162,-0.26093322,-0.5758679
1732371691013,2024-11-23T14:21:31.013Z,131940,0.005174162,-0.26093322,-0.5758679
1732371691054,2024-11-23T14:21:31.054Z,131981,-0.026988648,-0.28639463,-0.6451316
1732371691060,2024-11-23T14:21:31.060Z,131987,-0.026988648,-0.28639463,-0.6451316
1732371691088,2024-11-23T14:21:31.088Z,132015,0.004380985,-0.28698415,-0.6361558
1732371691092,2024-11-23T14:21:31.092Z,132019,0.004380985,-0.28698415,-0.6361558
1732371691115,2024-11-23T14:21:31.115Z,132042,0.028573154,-0.29988807,-0.62233186
1732371691118,2024-11-23T14:21:31.118Z,132045,0.028573154,-0.29988807,-0.62233186
1732371691140,2024-11-23T14:21:31.140Z,132067,-0.0022928338,-0.29163486,-0.5794996
1732371691143,2024-11-23T14:21:31.143Z,132070,-0.0022928338,-0.29163486,-0.5794996
1732371691164,2024-11-23T14:21:31.164Z,132091,0.012848514,-0.3112928,-0.5701121
1732371691167,2024-11-23T14:21:31.167Z,132094,0.012848514,-0.3112928,-0.5701121
1732371691186,2024-11-23T14:21:31.186Z,132113,0.013544588,-0.31140187,-0.56744593
1732371691188,2024-11-23T14:21:31.188Z,132115,0.013544588,-0.31140187,-0.56744593
1732371691203,2024-11-23T14:21:31.203Z,132130,-0.0043416726,-0.32082498,-0.59537756
1732371691205,2024-11-23T14:21:31.205Z,132132,-0.0043416726,-0.32082498,-0.59537756
1732371691232,2024-11-23T14:21:31.232Z,132159,-0.065322794,-0.32131967,-0.618326
1732371691236,2024-11-23T14:21:31.236Z,132163,-0.065322794,-0.32131967,-0.618326
1732371691273,2024-11-23T14:21:31.273Z,132200,-0.02538056,-0.32611185,-0.62244356
1732371691277,2024-11-23T14:21:31.277Z,132204,-0.02538056,-0.32611185,-0.62244356
1732371691303,2024-11-23T14:21:31.303Z,132230,0.017158315,-0.32400566,-0.609571
1732371691307,2024-11-23T14:21:31.307Z,132234,0.017158315,-0.32400566,-0.609571
1732371691329,2024-11-23T14:21:31.329Z,132256,0.0026610622,-0.32495114,-0.5953191
1732371691332,2024-11-23T14:21:31.332Z,132259,0.0026610622,-0.32495114,-0.5953191
1732371691367,2024-11-23T14:21:31.367Z,132294,0.015967224,-0.31434292,-0.55829203
1732371691372,2024-11-23T14:21:31.372Z,132299,0.015967224,-0.31434292,-0.55829203
1732371691415,2024-11-23T14:21:31.415Z,132342,-0.012430932,-0.32613125,-0.5728201
1732371691420,2024-11-23T14:21:31.420Z,132347,-0.012430932,-0.32613125,-0.5728201
1732371691448,2024-11-23T14:21:31.448Z,132375,-0.027459448,-0.33363628,-0.5868993
1732371691451,2024-11-23T14:21:31.451Z,132378,-0.027459448,-0.33363628,-0.5868993
1732371691472,2024-11-23T14:21:31.472Z,132399,-0.042402506,-0.35480288,-0.6140853
1732371691475,2024-11-23T14:21:31.475Z,132402,-0.042402506,-0.35480288,-0.6140853
1732371691495,2024-11-23T14:21:31.495Z,132422,-0.03032541,-0.35422134,-0.62407196
1732371691498,2024-11-23T14:21:31.498Z,132425,-0.03032541,-0.35422134,-0.62407196
1732371691516,2024-11-23T14:21:31.516Z,132443,-0.025800863,-0.40390676,-0.5799384
1732371691518,2024-11-23T14:21:31.518Z,132445,-0.025800863,-0.40390676,-0.5799384
1732371691533,2024-11-23T14:21:31.533Z,132460,-0.09660991,-0.41863406,-0.5533996
1732371691536,2024-11-23T14:21:31.536Z,132463,-0.09660991,-0.41863406,-0.5533996
1732371691551,2024-11-23T14:21:31.551Z,132478,-0.05072881,-0.50461715,-0.6236411
1732371691553,2024-11-23T14:21:31.553Z,132480,-0.05072881,-0.50461715,-0.6236411
1732371691568,2024-11-23T14:21:31.568Z,132495,-0.116527654,-0.53057003,-0.5556597
1732371691570,2024-11-23T14:21:31.570Z,132497,-0.116527654,-0.53057003,-0.5556597
1732371691585,2024-11-23T14:21:31.585Z,132512,-0.1294464,-0.5246017,-0.55785996
1732371691588,2024-11-23T14:21:31.588Z,132515,-0.1294464,-0.5246017,-0.55785996
1732371691606,2024-11-23T14:21:31.606Z,132533,-0.13384855,-0.5115692,-0.56161404
1732371691608,2024-11-23T14:21:31.608Z,132535,-0.13384855,-0.5115692,-0.56161404
1732371691631,2024-11-23T14:21:31.631Z,132558,-0.07267791,-0.5140467,-0.5678033
1732371691634,2024-11-23T14:21:31.634Z,132561,-0.07267791,-0.5140467,-0.5678033
1732371691656,2024-11-23T14:21:31.656Z,132583,-0.06383979,-0.47939137,-0.5410068
1732371691658,2024-11-23T14:21:31.658Z,132585,-0.06383979,-0.47939137,-0.5410068
1732371691672,2024-11-23T14:21:31.672Z,132599,-0.03783065,-0.47736233,-0.5552928
1732371691673,2024-11-23T14:21:31.673Z,132600,-0.03783065,-0.47736233,-0.5552928
1732371691688,2024-11-23T14:21:31.688Z,132615,-0.0069641033,-0.4783878,-0.577436
1732371691690,2024-11-23T14:21:31.690Z,132617,-0.0069641033,-0.4783878,-0.577436
1732371691721,2024-11-23T14:21:31.721Z,132648,0.030172952,-0.4343688,-0.5718622
1732371691726,2024-11-23T14:21:31.726Z,132653,0.030172952,-0.4343688,-0.5718622
1732371691752,2024-11-23T14:21:31.752Z,132679,0.03758804,-0.43902433,-0.5873564
1732371691755,2024-11-23T14:21:31.755Z,132682,0.03758804,-0.43902433,-0.5873564
1732371691772,2024-11-23T14:21:31.772Z,132699,0.040848855,-0.41186342,-0.5668682
1732371691775,2024-11-23T14:21:31.775Z,132702,0.040848855,-0.41186342,-0.5668682
1732371691790,2024-11-23T14:21:31.790Z,132717,0.07289122,-0.4252111,-0.5469762
1732371691792,2024-11-23T14:21:31.792Z,132719,0.07289122,-0.4252111,-0.5469762
1732371691808,2024-11-23T14:21:31.808Z,132735,0.0045007216,-0.42750907,-0.56740725
1732371691810,2024-11-23T14:21:31.810Z,132737,0.0045007216,-0.42750907,-0.56740725
1732371691826,2024-11-23T14:21:31.826Z,132753,0.077876404,-0.41258568,-0.56969297
1732371691828,2024-11-23T14:21:31.828Z,132755,0.077876404,-0.41258568,-0.56969297
1732371691842,2024-11-23T14:21:31.842Z,132769,0.14311244,-0.40256825,-0.5669075
1732371691844,2024-11-23T14:21:31.844Z,132771,0.14311244,-0.40256825,-0.5669075
1732371691860,2024-11-23T14:21:31.860Z,132787,0.17708099,-0.39972988,-0.5231712
1732371691862,2024-11-23T14:21:31.862Z,132789,0.17708099,-0.39972988,-0.5231712
1732371691890,2024-11-23T14:21:31.890Z,132817,0.12327864,-0.3846813,-0.49678284
1732371691894,2024-11-23T14:21:31.894Z,132821,0.12327864,-0.3846813,-0.49678284
1732371691922,2024-11-23T14:21:31.922Z,132849,0.15861467,-0.3892491,-0.4744338
1732371691925,2024-11-23T14:21:31.925Z,132852,0.15861467,-0.3892491,-0.4744338
1732371691941,2024-11-23T14:21:31.941Z,132868,0.21147157,-0.39024404,-0.4542572
1732371691943,2024-11-23T14:21:31.943Z,132870,0.21147157,-0.39024404,-0.4542572
1732371691959,2024-11-23T14:21:31.959Z,132886,0.20022322,-0.4207238,-0.48592484
1732371691961,2024-11-23T14:21:31.961Z,132888,0.20022322,-0.4207238,-0.48592484
1732371691975,2024-11-23T14:21:31.975Z,132902,0.28000945,-0.42853382,-0.4680491
1732371691977,2024-11-23T14:21:31.977Z,132904,0.28000945,-0.42853382,-0.4680491
1732371691993,2024-11-23T14:21:31.993Z,132920,0.34072718,-0.41598725,-0.4267536
1732371691995,2024-11-23T14:21:31.995Z,132922,0.34072718,-0.41598725,-0.4267536
1732371692010,2024-11-23T14:21:32.010Z,132937,0.32251036,-0.38392383,-0.41005108
1732371692012,2024-11-23T14:21:32.012Z,132939,0.32251036,-0.38392383,-0.41005108
1732371692028,2024-11-23T14:21:32.028Z,132955,0.2901226,-0.3772694,-0.38488814
1732371692030,2024-11-23T14:21:32.030Z,132957,0.2901226,-0.3772694,-0.38488814
1732371692044,2024-11-23T14:21:32.044Z,132971,0.4047897,-0.3921331,-0.3890344
1732371692046,2024-11-23T14:21:32.046Z,132973,0.4047897,-0.3921331,-0.3890344
1732371692061,2024-11-23T14:21:32.061Z,132988,0.37076378,-0.38147596,-0.4973714
1732371692065,2024-11-23T14:21:32.065Z,132992,0.37076378,-0.38147596,-0.4973714
1732371692087,2024-11-23T14:21:32.087Z,133014,0.3518698,-0.32390174,-0.42900255
1732371692090,2024-11-23T14:21:32.090Z,133017,0.3518698,-0.32390174,-0.42900255
1732371692107,2024-11-23T14:21:32.107Z,133034,0.42631656,-0.33009642,-0.37429553
1732371692109,2024-11-23T14:21:32.109Z,133036,0.42631656,-0.33009642,-0.37429553
1732371692123,2024-11-23T14:21:32.123Z,133050,0.3997526,-0.3321786,-0.35406405
1732371692124,2024-11-23T14:21:32.124Z,133051,0.3997526,-0.3321786,-0.35406405
1732371692140,2024-11-23T14:21:32.140Z,133067,0.50360924,-0.28819904,-0.27719745
1732371692142,2024-11-23T14:21:32.142Z,133069,0.50360924,-0.28819904,-0.27719745
1732371692157,2024-11-23T14:21:32.157Z,133084,0.4805404,-0.28337255,-0.31993848
1732371692159,2024-11-23T14:21:32.159Z,133086,0.4805404,-0.28337255,-0.31993848
1732371692174,2024-11-23T14:21:32.174Z,133101,0.40946472,-0.29352495,-0.3551233
1732371692176,2024-11-23T14:21:32.176Z,133103,0.40946472,-0.29352495,-0.3551233
1732371692193,2024-11-23T14:21:32.193Z,133120,0.4740887,-0.30471522,-0.32572585
1732371692194,2024-11-23T14:21:32.194Z,133121,0.4740887,-0.30471522,-0.32572585
1732371692209,2024-11-23T14:21:32.209Z,133136,0.460999,-0.3123074,-0.3218176
1732371692211,2024-11-23T14:21:32.211Z,133138,0.460999,-0.3123074,-0.3218176
1732371692227,2024-11-23T14:21:32.227Z,133154,0.50512284,-0.32142547,-0.25300947
1732371692229,2024-11-23T14:21:32.229Z,133156,0.50512284,-0.32142547,-0.25300947
1732371692245,2024-11-23T14:21:32.245Z,133172,0.40834343,-0.349762,-0.23915377
1732371692247,2024-11-23T14:21:32.247Z,133174,0.40834343,-0.349762,-0.23915377
1732371692262,2024-11-23T14:21:32.262Z,133189,0.4996467,-0.34690714,-0.32863748
1732371692265,2024-11-23T14:21:32.265Z,133192,0.4996467,-0.34690714,-0.32863748
1732371692280,2024-11-23T14:21:32.280Z,133207,0.4869426,-0.33360192,-0.28797224
1732371692282,2024-11-23T14:21:32.282Z,133209,0.4869426,-0.33360192,-0.28797224
1732371692309,2024-11-23T14:21:32.309Z,133236,0.5097002,-0.18814267,-0.46994662
1732371692314,2024-11-23T14:21:32.314Z,133241,0.5097002,-0.18814267,-0.46994662
1732371692349,2024-11-23T14:21:32.349Z,133276,0.45224506,-0.18860412,-0.41462073
1732371692354,2024-11-23T14:21:32.354Z,133281,0.45224506,-0.18860412,-0.41462073
1732371692378,2024-11-23T14:21:32.378Z,133305,0.6276284,-0.10306157,-0.18597598
1732371692381,2024-11-23T14:21:32.381Z,133308,0.6276284,-0.10306157,-0.18597598
1732371692400,2024-11-23T14:21:32.400Z,133327,0.59538954,-0.10836215,-0.059093326
1732371692403,2024-11-23T14:21:32.403Z,133330,0.59538954,-0.10836215,-0.059093326
1732371692424,2024-11-23T14:21:32.424Z,133351,0.46586606,-0.0028354516,-0.18371366
1732371692427,2024-11-23T14:21:32.427Z,133354,0.46586606,-0.0028354516,-0.18371366
1732371692445,2024-11-23T14:21:32.445Z,133372,0.50681674,-0.015543345,-0.17558818
1732371692447,2024-11-23T14:21:32.447Z,133374,0.50681674,-0.015543345,-0.17558818
1732371692464,2024-11-23T14:21:32.464Z,133391,0.46549475,-0.052730773,-0.25898322
1732371692466,2024-11-23T14:21:32.466Z,133393,0.46549475,-0.052730773,-0.25898322
1732371692487,2024-11-23T14:21:32.487Z,133414,0.5090798,-0.07823535,-0.21136148
1732371692490,2024-11-23T14:21:32.490Z,133417,0.5090798,-0.07823535,-0.21136148
1732371692504,2024-11-23T14:21:32.504Z,133431,0.39555213,-0.059347462,-0.27368474
1732371692506,2024-11-23T14:21:32.506Z,133433,0.39555213,-0.059347462,-0.27368474
1732371692521,2024-11-23T14:21:32.521Z,133448,0.5049578,-0.10043486,-0.21275283
1732371692523,2024-11-23T14:21:32.523Z,133450,0.5049578,-0.10043486,-0.21275283
1732371692540,2024-11-23T14:21:32.540Z,133467,0.5572836,-0.16369665,-0.06517156
1732371692542,2024-11-23T14:21:32.542Z,133469,0.5572836,-0.16369665,-0.06517156
1732371692559,2024-11-23T14:21:32.559Z,133486,0.40764666,-0.22106297,-0.15565304
1732371692563,2024-11-23T14:21:32.563Z,133490,0.40764666,-0.22106297,-0.15565304
1732371692585,2024-11-23T14:21:32.585Z,133512,0.4899525,-0.1745771,-0.105107546
1732371692587,2024-11-23T14:21:32.587Z,133514,0.4899525,-0.1745771,-0.105107546
1732371692606,2024-11-23T14:21:32.606Z,133533,0.4753284,-0.2212384,-0.15652509
1732371692608,2024-11-23T14:21:32.608Z,133535,0.4753284,-0.2212384,-0.15652509
1732371692626,2024-11-23T14:21:32.626Z,133553,0.47592273,-0.30937892,-0.035550762
1732371692628,2024-11-23T14:21:32.628Z,133555,0.47592273,-0.30937892,-0.035550762
1732371692642,2024-11-23T14:21:32.642Z,133569,0.39169312,-0.3369229,-0.1458023
1732371692644,2024-11-23T14:21:32.644Z,133571,0.39169312,-0.3369229,-0.1458023
1732371692658,2024-11-23T14:21:32.658Z,133585,0.34446272,-0.3434669,-0.20267521
1732371692660,2024-11-23T14:21:32.660Z,133587,0.34446272,-0.3434669,-0.20267521
1732371692675,2024-11-23T14:21:32.675Z,133602,0.5109116,-0.23846419,-0.08897038
1732371692677,2024-11-23T14:21:32.677Z,133604,0.5109116,-0.23846419,-0.08897038
1732371692694,2024-11-23T14:21:32.694Z,133621,0.42319822,-0.2772106,-0.095483385
1732371692695,2024-11-23T14:21:32.695Z,133622,0.42319822,-0.2772106,-0.095483385
1732371692710,2024-11-23T14:21:32.710Z,133637,0.4745191,-0.3091512,-0.09825988
1732371692712,2024-11-23T14:21:32.712Z,133639,0.4745191,-0.3091512,-0.09825988
1732371692730,2024-11-23T14:21:32.730Z,133657,0.5058187,-0.2521333,-0.12888502
1732371692732,2024-11-23T14:21:32.732Z,133659,0.5058187,-0.2521333,-0.12888502
1732371692747,2024-11-23T14:21:32.747Z,133674,0.5433591,-0.274575,-0.09729042
1732371692749,2024-11-23T14:21:32.749Z,133676,0.5433591,-0.274575,-0.09729042
1732371692767,2024-11-23T14:21:32.767Z,133694,0.568382,-0.30909723,-0.07687791
1732371692769,2024-11-23T14:21:32.769Z,133696,0.568382,-0.30909723,-0.07687791
1732371692783,2024-11-23T14:21:32.783Z,133710,0.58555716,-0.31054005,-0.085409924
1732371692785,2024-11-23T14:21:32.785Z,133712,0.58555716,-0.31054005,-0.085409924
1732371692803,2024-11-23T14:21:32.803Z,133730,0.5081061,-0.29106274,-0.11255409
1732371692806,2024-11-23T14:21:32.806Z,133733,0.5081061,-0.29106274,-0.11255409
1732371692820,2024-11-23T14:21:32.820Z,133747,0.46878722,-0.26025283,-0.17514071
1732371692823,2024-11-23T14:21:32.823Z,133750,0.46878722,-0.26025283,-0.17514071
1732371692840,2024-11-23T14:21:32.840Z,133767,0.5304619,-0.25951967,-0.12063708
1732371692842,2024-11-23T14:21:32.842Z,133769,0.5304619,-0.25951967,-0.12063708
1732371692869,2024-11-23T14:21:32.869Z,133796,0.5541648,-0.28287274,-0.1017315
1732371692873,2024-11-23T14:21:32.873Z,133800,0.5541648,-0.28287274,-0.1017315
1732371692911,2024-11-23T14:21:32.911Z,133838,0.5097181,-0.25826398,-0.13573827
1732371692917,2024-11-23T14:21:32.917Z,133844,0.5097181,-0.25826398,-0.13573827
1732371692943,2024-11-23T14:21:32.943Z,133870,0.5150252,-0.2613087,-0.15105742
1732371692946,2024-11-23T14:21:32.946Z,133873,0.5150252,-0.2613087,-0.15105742
1732371692967,2024-11-23T14:21:32.967Z,133894,0.47466668,-0.24113902,-0.20956217
1732371692970,2024-11-23T14:21:32.970Z,133897,0.47466668,-0.24113902,-0.20956217
1732371693000,2024-11-23T14:21:33Z,133927,0.5234969,-0.22748667,-0.18910336
1732371693005,2024-11-23T14:21:33.005Z,133932,0.5234969,-0.22748667,-0.18910336
1732371693046,2024-11-23T14:21:33.046Z,133973,0.5766092,-0.2588526,-0.19429687
1732371693051,2024-11-23T14:21:33.051Z,133978,0.5766092,-0.2588526,-0.19429687
1732371693072,2024-11-23T14:21:33.072Z,133999,0.48262766,-0.235003,-0.22576533
1732371693075,2024-11-23T14:21:33.075Z,134002,0.48262766,-0.235003,-0.22576533
1732371693094,2024-11-23T14:21:33.094Z,134021,0.5078495,-0.256955,-0.23934615
1732371693096,2024-11-23T14:21:33.096Z,134023,0.5078495,-0.256955,-0.23934615
1732371693113,2024-11-23T14:21:33.113Z,134040,0.52244794,-0.2527014,-0.22116797
1732371693115,2024-11-23T14:21:33.115Z,134042,0.52244794,-0.2527014,-0.22116797
1732371693146,2024-11-23T14:21:33.146Z,134073,0.46016958,-0.22724311,-0.24426222
1732371693151,2024-11-23T14:21:33.151Z,134078,0.46016958,-0.22724311,-0.24426222
1732371693180,2024-11-23T14:21:33.180Z,134107,0.48781365,-0.21177211,-0.25473034
1732371693183,2024-11-23T14:21:33.183Z,134110,0.48781365,-0.21177211,-0.25473034
1732371693204,2024-11-23T14:21:33.204Z,134131,0.5041941,-0.20056622,-0.22528999
1732371693207,2024-11-23T14:21:33.207Z,134134,0.5041941,-0.20056622,-0.22528999
1732371693228,2024-11-23T14:21:33.228Z,134155,0.42962596,-0.23355186,-0.22946921
1732371693231,2024-11-23T14:21:33.231Z,134158,0.42962596,-0.23355186,-0.22946921
1732371693246,2024-11-23T14:21:33.246Z,134173,0.41871145,-0.21801533,-0.2227749
1732371693249,2024-11-23T14:21:33.249Z,134176,0.41871145,-0.21801533,-0.2227749
1732371693264,2024-11-23T14:21:33.264Z,134191,0.4340563,-0.26204306,-0.19579753
1732371693267,2024-11-23T14:21:33.267Z,134194,0.4340563,-0.26204306,-0.19579753
1732371693283,2024-11-23T14:21:33.283Z,134210,0.42397627,-0.26210764,-0.25168127
1732371693286,2024-11-23T14:21:33.286Z,134213,0.42397627,-0.26210764,-0.25168127
1732371693301,2024-11-23T14:21:33.301Z,134228,0.34180814,-0.21614127,-0.39123243
1732371693303,2024-11-23T14:21:33.303Z,134230,0.34180814,-0.21614127,-0.39123243
1732371693318,2024-11-23T14:21:33.318Z,134245,0.36493742,-0.2660581,-0.3754354
1732371693320,2024-11-23T14:21:33.320Z,134247,0.36493742,-0.2660581,-0.3754354
1732371693336,2024-11-23T14:21:33.336Z,134263,0.37240094,-0.24959297,-0.36169901
1732371693339,2024-11-23T14:21:33.339Z,134266,0.37240094,-0.24959297,-0.36169901
1732371693356,2024-11-23T14:21:33.356Z,134283,0.32781482,-0.23914409,-0.3346447
1732371693359,2024-11-23T14:21:33.359Z,134286,0.32781482,-0.23914409,-0.3346447
1732371693375,2024-11-23T14:21:33.375Z,134302,0.35860386,-0.25084016,-0.36030802
1732371693377,2024-11-23T14:21:33.377Z,134304,0.35860386,-0.25084016,-0.36030802
1732371693391,2024-11-23T14:21:33.391Z,134318,0.37891436,-0.22943896,-0.3699187
1732371693393,2024-11-23T14:21:33.393Z,134320,0.37891436,-0.22943896,-0.3699187
1732371693409,2024-11-23T14:21:33.409Z,134336,0.3127532,-0.2301619,-0.33032164
1732371693411,2024-11-23T14:21:33.411Z,134338,0.3127532,-0.2301619,-0.33032164
1732371693426,2024-11-23T14:21:33.426Z,134353,0.2767592,-0.21520594,-0.3736113
1732371693428,2024-11-23T14:21:33.428Z,134355,0.2767592,-0.21520594,-0.3736113
1732371693442,2024-11-23T14:21:33.442Z,134369,0.24882902,-0.20993774,-0.40932715
1732371693444,2024-11-23T14:21:33.444Z,134371,0.24882902,-0.20993774,-0.40932715
1732371693477,2024-11-23T14:21:33.477Z,134404,0.27512094,-0.21744016,-0.41081324
1732371693482,2024-11-23T14:21:33.482Z,134409,0.27512094,-0.21744016,-0.41081324
1732371693514,2024-11-23T14:21:33.514Z,134441,0.34109688,-0.22579513,-0.4062252
1732371693517,2024-11-23T14:21:33.517Z,134444,0.34109688,-0.22579513,-0.4062252
1732371693538,2024-11-23T14:21:33.538Z,134465,0.30146822,-0.20979731,-0.40344426
1732371693541,2024-11-23T14:21:33.541Z,134468,0.30146822,-0.20979731,-0.40344426
1732371693580,2024-11-23T14:21:33.580Z,134507,0.24628745,-0.19773377,-0.35519144
1732371693585,2024-11-23T14:21:33.585Z,134512,0.24628745,-0.19773377,-0.35519144
1732371693625,2024-11-23T14:21:33.625Z,134552,0.22143823,-0.18319005,-0.35387102
1732371693630,2024-11-23T14:21:33.630Z,134557,0.22143823,-0.18319005,-0.35387102
1732371693669,2024-11-23T14:21:33.669Z,134596,0.22608876,-0.18835871,-0.38520032
1732371693674,2024-11-23T14:21:33.674Z,134601,0.22608876,-0.18835871,-0.38520032
1732371693695,2024-11-23T14:21:33.695Z,134622,0.19866255,-0.19336896,-0.4042449
1732371693698,2024-11-23T14:21:33.698Z,134625,0.19866255,-0.19336896,-0.4042449
1732371693714,2024-11-23T14:21:33.714Z,134641,0.1415811,-0.18122388,-0.43323618
1732371693716,2024-11-23T14:21:33.716Z,134643,0.1415811,-0.18122388,-0.43323618
1732371693730,2024-11-23T14:21:33.730Z,134657,0.23333317,-0.16837052,-0.40847963
1732371693732,2024-11-23T14:21:33.732Z,134659,0.23333317,-0.16837052,-0.40847963
1732371693745,2024-11-23T14:21:33.745Z,134672,0.21769598,-0.20885463,-0.40158868
1732371693747,2024-11-23T14:21:33.747Z,134674,0.21769598,-0.20885463,-0.40158868
1732371693762,2024-11-23T14:21:33.762Z,134689,0.17867994,-0.20863953,-0.41733205
1732371693765,2024-11-23T14:21:33.765Z,134692,0.17867994,-0.20863953,-0.41733205
1732371693779,2024-11-23T14:21:33.779Z,134706,0.21749187,-0.21906438,-0.43184647
1732371693781,2024-11-23T14:21:33.781Z,134708,0.21749187,-0.21906438,-0.43184647
1732371693797,2024-11-23T14:21:33.797Z,134724,0.22876462,-0.21576953,-0.40130654
1732371693799,2024-11-23T14:21:33.799Z,134726,0.22876462,-0.21576953,-0.40130654
1732371693814,2024-11-23T14:21:33.814Z,134741,0.14818193,-0.2012116,-0.38306054
1732371693815,2024-11-23T14:21:33.815Z,134742,0.14818193,-0.2012116,-0.38306054
1732371693829,2024-11-23T14:21:33.829Z,134756,0.06626561,-0.16758636,-0.4047658
1732371693831,2024-11-23T14:21:33.831Z,134758,0.06626561,-0.16758636,-0.4047658
1732371693847,2024-11-23T14:21:33.847Z,134774,0.10375617,-0.16831867,-0.3724878
1732371693850,2024-11-23T14:21:33.850Z,134777,0.10375617,-0.16831867,-0.3724878
1732371693865,2024-11-23T14:21:33.865Z,134792,0.17531648,-0.19795832,-0.35559073
1732371693867,2024-11-23T14:21:33.867Z,134794,0.17531648,-0.19795832,-0.35559073
1732371693883,2024-11-23T14:21:33.883Z,134810,0.09937311,-0.1825925,-0.37099633
1732371693886,2024-11-23T14:21:33.886Z,134813,0.09937311,-0.1825925,-0.37099633
1732371693904,2024-11-23T14:21:33.904Z,134831,0.08988951,-0.18664871,-0.3401995
1732371693907,2024-11-23T14:21:33.907Z,134834,0.08988951,-0.18664871,-0.3401995
1732371693923,2024-11-23T14:21:33.923Z,134850,-0.055399496,-0.15854761,-0.40193185
1732371693926,2024-11-23T14:21:33.926Z,134853,-0.055399496,-0.15854761,-0.40193185
1732371693941,2024-11-23T14:21:33.941Z,134868,0.005341914,-0.25683743,-0.39322016
1732371693943,2024-11-23T14:21:33.943Z,134870,0.005341914,-0.25683743,-0.39322016
1732371693972,2024-11-23T14:21:33.972Z,134899,0.09015449,-0.23933299,-0.3196184
1732371693977,2024-11-23T14:21:33.977Z,134904,0.09015449,-0.23933299,-0.3196184
1732371694017,2024-11-23T14:21:34.017Z,134944,0.0708691,-0.23101832,-0.33996263
1732371694022,2024-11-23T14:21:34.022Z,134949,0.0708691,-0.23101832,-0.33996263
1732371694047,2024-11-23T14:21:34.047Z,134974,0.033898074,-0.20177072,-0.36261207
1732371694050,2024-11-23T14:21:34.050Z,134977,0.033898074,-0.20177072,-0.36261207
1732371694074,2024-11-23T14:21:34.074Z,135001,-0.027610084,-0.21733585,-0.37922832
1732371694082,2024-11-23T14:21:34.082Z,135009,-0.027610084,-0.21733585,-0.37922832
1732371694104,2024-11-23T14:21:34.104Z,135031,-0.0018719699,-0.20955618,-0.38389966
1732371694107,2024-11-23T14:21:34.107Z,135034,-0.0018719699,-0.20955618,-0.38389966
1732371694124,2024-11-23T14:21:34.124Z,135051,0.09459205,-0.23635143,-0.4013286
1732371694127,2024-11-23T14:21:34.127Z,135054,0.09459205,-0.23635143,-0.4013286
1732371694143,2024-11-23T14:21:34.143Z,135070,0.0021631296,-0.21232788,-0.40293673
1732371694146,2024-11-23T14:21:34.146Z,135073,0.0021631296,-0.21232788,-0.40293673
1732371694161,2024-11-23T14:21:34.161Z,135088,0.02592736,-0.20747347,-0.32024348
1732371694163,2024-11-23T14:21:34.163Z,135090,0.02592736,-0.20747347,-0.32024348
1732371694186,2024-11-23T14:21:34.186Z,135113,0.08083344,-0.18672815,-0.37665218
1732371694190,2024-11-23T14:21:34.190Z,135117,0.08083344,-0.18672815,-0.37665218
1732371694211,2024-11-23T14:21:34.211Z,135138,0.030503472,-0.17500864,-0.40430796
1732371694214,2024-11-23T14:21:34.214Z,135141,0.030503472,-0.17500864,-0.40430796
1732371694232,2024-11-23T14:21:34.232Z,135159,0.09780441,-0.1771833,-0.45686826
1732371694235,2024-11-23T14:21:34.235Z,135162,0.09780441,-0.1771833,-0.45686826
1732371694251,2024-11-23T14:21:34.251Z,135178,0.060441133,-0.16624317,-0.42437005
1732371694254,2024-11-23T14:21:34.254Z,135181,0.060441133,-0.16624317,-0.42437005
1732371694271,2024-11-23T14:21:34.271Z,135198,0.133013,-0.19438359,-0.37242183
1732371694273,2024-11-23T14:21:34.273Z,135200,0.133013,-0.19438359,-0.37242183
1732371694288,2024-11-23T14:21:34.288Z,135215,0.088718385,-0.17723279,-0.3712146
1732371694290,2024-11-23T14:21:34.290Z,135217,0.088718385,-0.17723279,-0.3712146
1732371694320,2024-11-23T14:21:34.320Z,135247,0.0824488,-0.16813327,-0.4604992
1732371694326,2024-11-23T14:21:34.326Z,135253,0.0824488,-0.16813327,-0.4604992
1732371694366,2024-11-23T14:21:34.366Z,135293,0.09724292,-0.1663234,-0.4675806
1732371694372,2024-11-23T14:21:34.372Z,135299,0.09724292,-0.1663234,-0.4675806
1732371694411,2024-11-23T14:21:34.411Z,135338,0.08248705,-0.1785468,-0.5180831
1732371694417,2024-11-23T14:21:34.417Z,135344,0.08248705,-0.1785468,-0.5180831
1732371694450,2024-11-23T14:21:34.450Z,135377,0.14002384,-0.16176817,-0.48777014
1732371694455,2024-11-23T14:21:34.455Z,135382,0.14002384,-0.16176817,-0.48777014
1732371694481,2024-11-23T14:21:34.481Z,135408,0.11043954,-0.15996218,-0.46197206
1732371694484,2024-11-23T14:21:34.484Z,135411,0.11043954,-0.15996218,-0.46197206
1732371694507,2024-11-23T14:21:34.507Z,135434,0.10161878,-0.1656082,-0.49736586
1732371694511,2024-11-23T14:21:34.511Z,135438,0.10161878,-0.1656082,-0.49736586
1732371694532,2024-11-23T14:21:34.532Z,135459,0.14059474,-0.18180251,-0.44902036
1732371694535,2024-11-23T14:21:34.535Z,135462,0.14059474,-0.18180251,-0.44902036
1732371694553,2024-11-23T14:21:34.553Z,135480,0.029404815,-0.20099586,-0.49851504
1732371694556,2024-11-23T14:21:34.556Z,135483,0.029404815,-0.20099586,-0.49851504
1732371694574,2024-11-23T14:21:34.574Z,135501,0.04540907,-0.19032185,-0.49607566
1732371694576,2024-11-23T14:21:34.576Z,135503,0.04540907,-0.19032185,-0.49607566
1732371694613,2024-11-23T14:21:34.613Z,135540,0.058219776,-0.22616681,-0.4464509
1732371694619,2024-11-23T14:21:34.619Z,135546,0.058219776,-0.22616681,-0.4464509
1732371694657,2024-11-23T14:21:34.657Z,135584,0.072568916,-0.1998562,-0.43726802
1732371694662,2024-11-23T14:21:34.662Z,135589,0.072568916,-0.1998562,-0.43726802
1732371694687,2024-11-23T14:21:34.687Z,135614,0.11095293,-0.20023869,-0.4031248
1732371694691,2024-11-23T14:21:34.691Z,135618,0.11095293,-0.20023869,-0.4031248
1732371694713,2024-11-23T14:21:34.713Z,135640,0.049349252,-0.21003114,-0.43339792
1732371694720,2024-11-23T14:21:34.720Z,135647,0.049349252,-0.21003114,-0.43339792
1732371694741,2024-11-23T14:21:34.741Z,135668,0.032665264,-0.25414446,-0.4650073
1732371694744,2024-11-23T14:21:34.744Z,135671,0.032665264,-0.25414446,-0.4650073
1732371694759,2024-11-23T14:21:34.759Z,135686,0.024782317,-0.22784458,-0.46945935
1732371694761,2024-11-23T14:21:34.761Z,135688,0.024782317,-0.22784458,-0.46945935
1732371694775,2024-11-23T14:21:34.775Z,135702,-8.184854E-4,-0.24103215,-0.47189328
1732371694777,2024-11-23T14:21:34.777Z,135704,-8.184854E-4,-0.24103215,-0.47189328
1732371694794,2024-11-23T14:21:34.794Z,135721,0.029805476,-0.21041012,-0.39538676
1732371694796,2024-11-23T14:21:34.796Z,135723,0.029805476,-0.21041012,-0.39538676
1732371694810,2024-11-23T14:21:34.810Z,135737,0.051129214,-0.22914916,-0.36249274
1732371694812,2024-11-23T14:21:34.812Z,135739,0.051129214,-0.22914916,-0.36249274
1732371694826,2024-11-23T14:21:34.826Z,135753,0.06307786,-0.24154708,-0.36162958
1732371694828,2024-11-23T14:21:34.828Z,135755,0.06307786,-0.24154708,-0.36162958
1732371694842,2024-11-23T14:21:34.842Z,135769,-0.044099577,-0.24994461,-0.38044173
1732371694844,2024-11-23T14:21:34.844Z,135771,-0.044099577,-0.24994461,-0.38044173
1732371694860,2024-11-23T14:21:34.860Z,135787,0.046773512,-0.25085494,-0.4318762
1732371694862,2024-11-23T14:21:34.862Z,135789,0.046773512,-0.25085494,-0.4318762
1732371694877,2024-11-23T14:21:34.877Z,135804,0.019326573,-0.26546896,-0.4456358
1732371694879,2024-11-23T14:21:34.879Z,135806,0.019326573,-0.26546896,-0.4456358
1732371694896,2024-11-23T14:21:34.896Z,135823,-0.0053356662,-0.26435527,-0.435884
1732371694898,2024-11-23T14:21:34.898Z,135825,-0.0053356662,-0.26435527,-0.435884
1732371694913,2024-11-23T14:21:34.913Z,135840,0.027812725,-0.25983453,-0.412612
1732371694915,2024-11-23T14:21:34.915Z,135842,0.027812725,-0.25983453,-0.412612
1732371694930,2024-11-23T14:21:34.930Z,135857,0.05352863,-0.22004718,-0.38691938
1732371694933,2024-11-23T14:21:34.933Z,135860,0.05352863,-0.22004718,-0.38691938
1732371694949,2024-11-23T14:21:34.949Z,135876,0.021561885,-0.1754216,-0.48129937
1732371694951,2024-11-23T14:21:34.951Z,135878,0.021561885,-0.1754216,-0.48129937
1732371694968,2024-11-23T14:21:34.968Z,135895,0.063209936,-0.16127658,-0.46154606
1732371694970,2024-11-23T14:21:34.970Z,135897,0.063209936,-0.16127658,-0.46154606
1732371694984,2024-11-23T14:21:34.984Z,135911,0.09117687,-0.1344015,-0.40755236
1732371694987,2024-11-23T14:21:34.987Z,135914,0.09117687,-0.1344015,-0.40755236
1732371695022,2024-11-23T14:21:35.022Z,135949,0.026015563,-0.12539612,-0.4499149
1732371695026,2024-11-23T14:21:35.026Z,135953,0.026015563,-0.12539612,-0.4499149
1732371695061,2024-11-23T14:21:35.061Z,135988,0.019556345,-0.15522744,-0.4078588
1732371695067,2024-11-23T14:21:35.067Z,135994,0.019556345,-0.15522744,-0.4078588
1732371695089,2024-11-23T14:21:35.089Z,136016,0.0096001,-0.16359681,-0.4111578
1732371695093,2024-11-23T14:21:35.093Z,136020,0.0096001,-0.16359681,-0.4111578
1732371695113,2024-11-23T14:21:35.113Z,136040,0.021760466,-0.17776152,-0.42647776
1732371695115,2024-11-23T14:21:35.115Z,136042,0.021760466,-0.17776152,-0.42647776
1732371695133,2024-11-23T14:21:35.133Z,136060,-0.016275475,-0.2284379,-0.4496636
1732371695135,2024-11-23T14:21:35.135Z,136062,-0.016275475,-0.2284379,-0.4496636
1732371695155,2024-11-23T14:21:35.155Z,136082,-0.022535067,-0.23427966,-0.4062885
1732371695158,2024-11-23T14:21:35.158Z,136085,-0.022535067,-0.23427966,-0.4062885
1732371695181,2024-11-23T14:21:35.181Z,136108,-0.023798387,-0.25087917,-0.37702745
1732371695183,2024-11-23T14:21:35.183Z,136110,-0.023798387,-0.25087917,-0.37702745
1732371695197,2024-11-23T14:21:35.197Z,136124,-0.039186697,-0.2640976,-0.33565632
1732371695199,2024-11-23T14:21:35.199Z,136126,-0.039186697,-0.2640976,-0.33565632
1732371695214,2024-11-23T14:21:35.214Z,136141,-0.060496077,-0.2672586,-0.31350014
1732371695216,2024-11-23T14:21:35.216Z,136143,-0.060496077,-0.2672586,-0.31350014
1732371695233,2024-11-23T14:21:35.233Z,136160,-0.06606541,-0.28283662,-0.34724563
1732371695235,2024-11-23T14:21:35.235Z,136162,-0.06606541,-0.28283662,-0.34724563
1732371695249,2024-11-23T14:21:35.249Z,136176,-0.06183992,-0.33617413,-0.39218205
1732371695251,2024-11-23T14:21:35.251Z,136178,-0.06183992,-0.33617413,-0.39218205
1732371695265,2024-11-23T14:21:35.265Z,136192,-0.0809329,-0.35535127,-0.40679356
1732371695267,2024-11-23T14:21:35.267Z,136194,-0.0809329,-0.35535127,-0.40679356
1732371695284,2024-11-23T14:21:35.284Z,136211,-0.053817566,-0.33970544,-0.38215467
1732371695286,2024-11-23T14:21:35.286Z,136213,-0.053817566,-0.33970544,-0.38215467
1732371695301,2024-11-23T14:21:35.301Z,136228,-0.05810687,-0.34272933,-0.34623092
1732371695303,2024-11-23T14:21:35.303Z,136230,-0.05810687,-0.34272933,-0.34623092
1732371695318,2024-11-23T14:21:35.318Z,136245,-0.027752163,-0.32633644,-0.35705125
1732371695321,2024-11-23T14:21:35.321Z,136248,-0.027752163,-0.32633644,-0.35705125
1732371695335,2024-11-23T14:21:35.335Z,136262,-0.049040053,-0.3200905,-0.36309147
1732371695337,2024-11-23T14:21:35.337Z,136264,-0.049040053,-0.3200905,-0.36309147
1732371695352,2024-11-23T14:21:35.352Z,136279,-0.024019042,-0.31549406,-0.40913236
1732371695355,2024-11-23T14:21:35.355Z,136282,-0.024019042,-0.31549406,-0.40913236
1732371695384,2024-11-23T14:21:35.384Z,136311,-9.4765465E-4,-0.28685823,-0.43272218
1732371695389,2024-11-23T14:21:35.389Z,136316,-9.4765465E-4,-0.28685823,-0.43272218
1732371695420,2024-11-23T14:21:35.420Z,136347,0.026061805,-0.29760858,-0.41811955
1732371695423,2024-11-23T14:21:35.423Z,136350,0.026061805,-0.29760858,-0.41811955
1732371695442,2024-11-23T14:21:35.442Z,136369,-0.025210619,-0.2839202,-0.41095036
1732371695445,2024-11-23T14:21:35.445Z,136372,-0.025210619,-0.2839202,-0.41095036
1732371695463,2024-11-23T14:21:35.463Z,136390,0.010335487,-0.30758342,-0.4612795
1732371695465,2024-11-23T14:21:35.465Z,136392,0.010335487,-0.30758342,-0.4612795
1732371695482,2024-11-23T14:21:35.482Z,136409,0.003624471,-0.3024171,-0.4478245
1732371695484,2024-11-23T14:21:35.484Z,136411,0.003624471,-0.3024171,-0.4478245
1732371695517,2024-11-23T14:21:35.517Z,136444,0.032848284,-0.30794466,-0.42606848
1732371695523,2024-11-23T14:21:35.523Z,136450,0.032848284,-0.30794466,-0.42606848
1732371695554,2024-11-23T14:21:35.554Z,136481,0.091637105,-0.2940324,-0.43352112
1732371695557,2024-11-23T14:21:35.557Z,136484,0.091637105,-0.2940324,-0.43352112
1732371695598,2024-11-23T14:21:35.598Z,136525,0.08713437,-0.31992975,-0.4562073
1732371695605,2024-11-23T14:21:35.605Z,136532,0.08713437,-0.31992975,-0.4562073
1732371695642,2024-11-23T14:21:35.642Z,136569,0.07396498,-0.27890986,-0.41905597
1732371695646,2024-11-23T14:21:35.646Z,136573,0.07396498,-0.27890986,-0.41905597
1732371695667,2024-11-23T14:21:35.667Z,136594,0.120826006,-0.29563552,-0.37027073
1732371695670,2024-11-23T14:21:35.670Z,136597,0.120826006,-0.29563552,-0.37027073
1732371695692,2024-11-23T14:21:35.692Z,136619,0.100082465,-0.269215,-0.3653904
1732371695695,2024-11-23T14:21:35.695Z,136622,0.100082465,-0.269215,-0.3653904
1732371695717,2024-11-23T14:21:35.717Z,136644,0.13686459,-0.2650157,-0.3686177
1732371695719,2024-11-23T14:21:35.719Z,136646,0.13686459,-0.2650157,-0.3686177
1732371695740,2024-11-23T14:21:35.740Z,136667,0.09147985,-0.22649051,-0.38553542
1732371695743,2024-11-23T14:21:35.743Z,136670,0.09147985,-0.22649051,-0.38553542
1732371695768,2024-11-23T14:21:35.768Z,136695,0.11404526,-0.22619118,-0.35354123
1732371695770,2024-11-23T14:21:35.770Z,136697,0.11404526,-0.22619118,-0.35354123
1732371695784,2024-11-23T14:21:35.784Z,136711,0.15322705,-0.23268607,-0.39223
1732371695786,2024-11-23T14:21:35.786Z,136713,0.15322705,-0.23268607,-0.39223
1732371695801,2024-11-23T14:21:35.801Z,136728,0.15077373,-0.21845211,-0.37698936
1732371695803,2024-11-23T14:21:35.803Z,136730,0.15077373,-0.21845211,-0.37698936
1732371695820,2024-11-23T14:21:35.820Z,136747,0.17009243,-0.26771402,-0.34951437
1732371695822,2024-11-23T14:21:35.822Z,136749,0.17009243,-0.26771402,-0.34951437
1732371695836,2024-11-23T14:21:35.836Z,136763,0.19120856,-0.26868352,-0.32982922
1732371695838,2024-11-23T14:21:35.838Z,136765,0.19120856,-0.26868352,-0.32982922
1732371695855,2024-11-23T14:21:35.855Z,136782,0.19742157,-0.26386237,-0.284732
1732371695857,2024-11-23T14:21:35.857Z,136784,0.19742157,-0.26386237,-0.284732
1732371695872,2024-11-23T14:21:35.872Z,136799,0.21990941,-0.30155903,-0.27903906
1732371695874,2024-11-23T14:21:35.874Z,136801,0.21990941,-0.30155903,-0.27903906
1732371695890,2024-11-23T14:21:35.890Z,136817,0.2423477,-0.3054663,-0.21028297
1732371695892,2024-11-23T14:21:35.892Z,136819,0.2423477,-0.3054663,-0.21028297
1732371695911,2024-11-23T14:21:35.911Z,136838,0.19629972,-0.30249995,-0.30607212
1732371695913,2024-11-23T14:21:35.913Z,136840,0.19629972,-0.30249995,-0.30607212
1732371695929,2024-11-23T14:21:35.929Z,136856,0.28211567,-0.277376,-0.29273418
1732371695931,2024-11-23T14:21:35.931Z,136858,0.28211567,-0.277376,-0.29273418
1732371695958,2024-11-23T14:21:35.958Z,136885,0.32723728,-0.28394562,-0.2618317
1732371695962,2024-11-23T14:21:35.962Z,136889,0.32723728,-0.28394562,-0.2618317
1732371695989,2024-11-23T14:21:35.989Z,136916,0.31725883,-0.24606313,-0.28111428
1732371695992,2024-11-23T14:21:35.992Z,136919,0.31725883,-0.24606313,-0.28111428
1732371696013,2024-11-23T14:21:36.013Z,136940,0.25145984,-0.2308948,-0.30142093
1732371696016,2024-11-23T14:21:36.016Z,136943,0.25145984,-0.2308948,-0.30142093
1732371696034,2024-11-23T14:21:36.034Z,136961,0.36629725,-0.22173272,-0.22131608
1732371696037,2024-11-23T14:21:36.037Z,136964,0.36629725,-0.22173272,-0.22131608
1732371696054,2024-11-23T14:21:36.054Z,136981,0.370569,-0.2583987,-0.21952294
1732371696057,2024-11-23T14:21:36.057Z,136984,0.370569,-0.2583987,-0.21952294
1732371696072,2024-11-23T14:21:36.072Z,136999,0.3890196,-0.23277354,-0.2477893
1732371696074,2024-11-23T14:21:36.074Z,137001,0.3890196,-0.23277354,-0.2477893
1732371696091,2024-11-23T14:21:36.091Z,137018,0.33651006,-0.20354296,-0.22615692
1732371696095,2024-11-23T14:21:36.095Z,137022,0.33651006,-0.20354296,-0.22615692
1732371696109,2024-11-23T14:21:36.109Z,137036,0.29791093,-0.26432723,-0.30123258
1732371696111,2024-11-23T14:21:36.111Z,137038,0.29791093,-0.26432723,-0.30123258
1732371696129,2024-11-23T14:21:36.129Z,137056,0.44681415,-0.24828616,-0.18233477
1732371696131,2024-11-23T14:21:36.131Z,137058,0.44681415,-0.24828616,-0.18233477
1732371696145,2024-11-23T14:21:36.145Z,137072,0.31836498,-0.19792949,-0.22402428
1732371696147,2024-11-23T14:21:36.147Z,137074,0.31836498,-0.19792949,-0.22402428
1732371696161,2024-11-23T14:21:36.161Z,137088,0.37356496,-0.14669186,-0.2902283
1732371696163,2024-11-23T14:21:36.163Z,137090,0.37356496,-0.14669186,-0.2902283
1732371696186,2024-11-23T14:21:36.186Z,137113,0.3486091,-0.1512959,-0.34241602
1732371696188,2024-11-23T14:21:36.188Z,137115,0.3486091,-0.1512959,-0.34241602
1732371696202,2024-11-23T14:21:36.202Z,137129,0.4112253,-0.16760254,-0.18756431
1732371696203,2024-11-23T14:21:36.203Z,137130,0.4112253,-0.16760254,-0.18756431
1732371696218,2024-11-23T14:21:36.218Z,137145,0.30487823,-0.09032436,-0.23430099
1732371696220,2024-11-23T14:21:36.220Z,137147,0.30487823,-0.09032436,-0.23430099
1732371696235,2024-11-23T14:21:36.235Z,137162,0.3165802,-0.070233956,-0.30687597
1732371696237,2024-11-23T14:21:36.237Z,137164,0.3165802,-0.070233956,-0.30687597
1732371696256,2024-11-23T14:21:36.256Z,137183,0.47881326,-0.068668365,-0.15782855
1732371696259,2024-11-23T14:21:36.259Z,137186,0.47881326,-0.068668365,-0.15782855
1732371696275,2024-11-23T14:21:36.275Z,137202,0.43601382,-0.058502816,-0.17923021
1732371696278,2024-11-23T14:21:36.278Z,137205,0.43601382,-0.058502816,-0.17923021
1732371696295,2024-11-23T14:21:36.295Z,137222,0.34383214,0.28010532,-0.31386483
1732371696297,2024-11-23T14:21:36.297Z,137224,0.34383214,0.28010532,-0.31386483
1732371696315,2024-11-23T14:21:36.315Z,137242,0.37373644,0.21193647,-0.40304384
1732371696317,2024-11-23T14:21:36.317Z,137244,0.37373644,0.21193647,-0.40304384
1732371696331,2024-11-23T14:21:36.331Z,137258,0.46742028,0.13956515,-0.34466913
1732371696332,2024-11-23T14:21:36.332Z,137259,0.46742028,0.13956515,-0.34466913
1732371696347,2024-11-23T14:21:36.347Z,137274,0.4595415,0.26135466,-0.09562177
1732371696349,2024-11-23T14:21:36.349Z,137276,0.4595415,0.26135466,-0.09562177
1732371696366,2024-11-23T14:21:36.366Z,137293,0.32524237,0.20233092,-0.059388522
1732371696368,2024-11-23T14:21:36.368Z,137295,0.32524237,0.20233092,-0.059388522
1732371696381,2024-11-23T14:21:36.381Z,137308,0.22329824,0.1683836,-0.12530358
1732371696383,2024-11-23T14:21:36.383Z,137310,0.22329824,0.1683836,-0.12530358
1732371696397,2024-11-23T14:21:36.397Z,137324,0.3216599,-0.042705946,-0.093601815
1732371696399,2024-11-23T14:21:36.399Z,137326,0.3216599,-0.042705946,-0.093601815
1732371696415,2024-11-23T14:21:36.415Z,137342,0.3043195,-0.14584439,-0.13068375
1732371696417,2024-11-23T14:21:36.417Z,137344,0.3043195,-0.14584439,-0.13068375
1732371696432,2024-11-23T14:21:36.432Z,137359,0.35480422,-0.22661898,-0.21733977
1732371696434,2024-11-23T14:21:36.434Z,137361,0.35480422,-0.22661898,-0.21733977
1732371696452,2024-11-23T14:21:36.452Z,137379,0.29812932,-0.25847694,-0.25127408
1732371696454,2024-11-23T14:21:36.454Z,137381,0.29812932,-0.25847694,-0.25127408
1732371696471,2024-11-23T14:21:36.471Z,137398,0.26994732,-0.23298174,-0.07759655
1732371696473,2024-11-23T14:21:36.473Z,137400,0.26994732,-0.23298174,-0.07759655
1732371696487,2024-11-23T14:21:36.487Z,137414,0.3146697,-0.21408403,-0.10353196
1732371696489,2024-11-23T14:21:36.489Z,137416,0.3146697,-0.21408403,-0.10353196
1732371696505,2024-11-23T14:21:36.505Z,137432,0.37577757,-0.21641248,-0.1388657
1732371696508,2024-11-23T14:21:36.508Z,137435,0.37577757,-0.21641248,-0.1388657
1732371696524,2024-11-23T14:21:36.524Z,137451,0.36462596,-0.19681823,-0.07063752
1732371696526,2024-11-23T14:21:36.526Z,137453,0.36462596,-0.19681823,-0.07063752
1732371696556,2024-11-23T14:21:36.556Z,137483,0.2993675,-0.14590284,-0.10442768
1732371696560,2024-11-23T14:21:36.560Z,137487,0.2993675,-0.14590284,-0.10442768
1732371696597,2024-11-23T14:21:36.597Z,137524,0.33944783,-0.08972006,-0.09542713
1732371696602,2024-11-23T14:21:36.602Z,137529,0.33944783,-0.08972006,-0.09542713
1732371696631,2024-11-23T14:21:36.631Z,137558,0.40705693,-0.11866288,-0.07097214
1732371696634,2024-11-23T14:21:36.634Z,137561,0.40705693,-0.11866288,-0.07097214
1732371696654,2024-11-23T14:21:36.654Z,137581,0.43115816,-0.13619211,-0.048778195
1732371696657,2024-11-23T14:21:36.657Z,137584,0.43115816,-0.13619211,-0.048778195
1732371696676,2024-11-23T14:21:36.676Z,137603,0.35760996,-0.11206258,-0.10670396
1732371696679,2024-11-23T14:21:36.679Z,137606,0.35760996,-0.11206258,-0.10670396
1732371696701,2024-11-23T14:21:36.701Z,137628,0.36042216,-0.14226095,-0.07669734
1732371696704,2024-11-23T14:21:36.704Z,137631,0.36042216,-0.14226095,-0.07669734
1732371696722,2024-11-23T14:21:36.722Z,137649,0.3959482,-0.13984372,-0.0050568813
