Timestamp (ms),ISO DateTime,Elapsed Time (ms),Acceleration X,Acceleration Y,Acceleration Z
1734276943879,2024-12-15T15:35:43.879Z,29577,0.17567636,-0.9269753,-0.8070514
1734276943885,2024-12-15T15:35:43.885Z,29583,0.17567636,-0.9269753,-0.8070514
1734276943904,2024-12-15T15:35:43.904Z,29602,0.10846711,-0.9072634,-0.8127119
1734276943910,2024-12-15T15:35:43.910Z,29608,0.10846711,-0.9072634,-0.8127119
1734276943928,2024-12-15T15:35:43.928Z,29626,0.0634527,-0.891881,-0.8178175
1734276943933,2024-12-15T15:35:43.933Z,29631,0.0634527,-0.891881,-0.8178175
1734276943950,2024-12-15T15:35:43.950Z,29648,0.07903521,-0.8983123,-0.7921274
1734276943954,2024-12-15T15:35:43.954Z,29652,0.07903521,-0.8983123,-0.7921274
1734276943967,2024-12-15T15:35:43.967Z,29665,0.08583991,-0.8956147,-0.7810618
1734276943971,2024-12-15T15:35:43.971Z,29669,0.08583991,-0.8956147,-0.7810618
1734276943988,2024-12-15T15:35:43.988Z,29686,0.07354768,-0.8618682,-0.8217119
1734276943992,2024-12-15T15:35:43.992Z,29690,0.07354768,-0.8618682,-0.8217119
1734276944003,2024-12-15T15:35:44.003Z,29701,0.07098444,-0.8466991,-0.8002979
1734276944007,2024-12-15T15:35:44.007Z,29705,0.07098444,-0.8466991,-0.8002979
1734276944019,2024-12-15T15:35:44.019Z,29717,0.07192499,-0.859022,-0.7959226
1734276944023,2024-12-15T15:35:44.023Z,29721,0.07192499,-0.859022,-0.7959226
1734276944034,2024-12-15T15:35:44.034Z,29732,0.062816225,-0.8697936,-0.8559605
1734276944038,2024-12-15T15:35:44.038Z,29736,0.062816225,-0.8697936,-0.8559605
1734276944050,2024-12-15T15:35:44.050Z,29748,0.036215328,-0.88106155,-0.9101117
1734276944054,2024-12-15T15:35:44.054Z,29752,0.036215328,-0.88106155,-0.9101117
1734276944066,2024-12-15T15:35:44.066Z,29764,0.0041175503,-0.87922543,-0.9085687
1734276944070,2024-12-15T15:35:44.070Z,29768,0.0041175503,-0.87922543,-0.9085687
1734276944082,2024-12-15T15:35:44.082Z,29780,0.0076496024,-0.85171676,-0.89771533
1734276944086,2024-12-15T15:35:44.086Z,29784,0.0076496024,-0.85171676,-0.89771533
1734276944098,2024-12-15T15:35:44.098Z,29796,-0.006076052,-0.8455497,-0.8872851
1734276944101,2024-12-15T15:35:44.101Z,29799,-0.006076052,-0.8455497,-0.8872851
1734276944113,2024-12-15T15:35:44.113Z,29811,0.0043050395,-0.8544295,-0.8719024
1734276944117,2024-12-15T15:35:44.117Z,29815,0.0043050395,-0.8544295,-0.8719024
1734276944130,2024-12-15T15:35:44.130Z,29828,0.013553702,-0.86092603,-0.88232076
1734276944133,2024-12-15T15:35:44.133Z,29831,0.013553702,-0.86092603,-0.88232076
1734276944146,2024-12-15T15:35:44.146Z,29844,-0.04388229,-0.86036986,-0.9010098
1734276944149,2024-12-15T15:35:44.149Z,29847,-0.04388229,-0.86036986,-0.9010098
1734276944160,2024-12-15T15:35:44.160Z,29858,-0.088911116,-0.89624554,-0.9234324
1734276944164,2024-12-15T15:35:44.164Z,29862,-0.088911116,-0.89624554,-0.9234324
1734276944178,2024-12-15T15:35:44.178Z,29876,-0.062457442,-0.9239688,-0.9233932
1734276944182,2024-12-15T15:35:44.182Z,29880,-0.062457442,-0.9239688,-0.9233932
1734276944194,2024-12-15T15:35:44.194Z,29892,-0.017984537,-0.9519149,-0.8832643
1734276944198,2024-12-15T15:35:44.198Z,29896,-0.017984537,-0.9519149,-0.8832643
1734276944210,2024-12-15T15:35:44.210Z,29908,0.0066658203,-0.9453144,-0.8450805
1734276944214,2024-12-15T15:35:44.214Z,29912,0.0066658203,-0.9453144,-0.8450805
1734276944228,2024-12-15T15:35:44.228Z,29926,0.01996524,-0.8949749,-0.8588086
1734276944232,2024-12-15T15:35:44.232Z,29930,0.01996524,-0.8949749,-0.8588086
1734276944244,2024-12-15T15:35:44.244Z,29942,0.029526643,-0.85649836,-0.8834429
1734276944248,2024-12-15T15:35:44.248Z,29946,0.029526643,-0.85649836,-0.8834429
1734276944264,2024-12-15T15:35:44.264Z,29962,-0.0019339592,-0.85216665,-0.8934489
1734276944268,2024-12-15T15:35:44.268Z,29966,-0.0019339592,-0.85216665,-0.8934489
1734276944282,2024-12-15T15:35:44.282Z,29980,-0.04300105,-0.87333405,-0.88486356
1734276944287,2024-12-15T15:35:44.287Z,29985,-0.04300105,-0.87333405,-0.88486356
1734276944301,2024-12-15T15:35:44.301Z,29999,-0.06420042,-0.88184834,-0.9035062
1734276944305,2024-12-15T15:35:44.305Z,30003,-0.06420042,-0.88184834,-0.9035062
1734276944319,2024-12-15T15:35:44.319Z,30017,-0.03694335,-0.8622422,-0.86293733
1734276944323,2024-12-15T15:35:44.323Z,30021,-0.03694335,-0.8622422,-0.86293733
1734276944338,2024-12-15T15:35:44.338Z,30036,-0.0046452135,-0.8112303,-0.89055246
1734276944342,2024-12-15T15:35:44.342Z,30040,-0.0046452135,-0.8112303,-0.89055246
1734276944354,2024-12-15T15:35:44.354Z,30052,-0.041384082,-0.7747794,-0.94105476
1734276944357,2024-12-15T15:35:44.357Z,30055,-0.041384082,-0.7747794,-0.94105476
1734276944368,2024-12-15T15:35:44.368Z,30066,-0.11059462,-0.7780424,-0.9237016
1734276944372,2024-12-15T15:35:44.372Z,30070,-0.11059462,-0.7780424,-0.9237016
1734276944384,2024-12-15T15:35:44.384Z,30082,-0.16567962,-0.77132076,-0.9200227
1734276944388,2024-12-15T15:35:44.388Z,30086,-0.16567962,-0.77132076,-0.9200227
1734276944401,2024-12-15T15:35:44.401Z,30099,-0.1756421,-0.7361557,-0.940684
1734276944406,2024-12-15T15:35:44.406Z,30104,-0.1756421,-0.7361557,-0.940684
1734276944418,2024-12-15T15:35:44.418Z,30116,-0.1329851,-0.7034358,-0.94359887
1734276944421,2024-12-15T15:35:44.421Z,30119,-0.1329851,-0.7034358,-0.94359887
1734276944433,2024-12-15T15:35:44.433Z,30131,-0.093706764,-0.7008346,-0.9541411
1734276944440,2024-12-15T15:35:44.440Z,30138,-0.093706764,-0.7008346,-0.9541411
1734276944455,2024-12-15T15:35:44.455Z,30153,-0.10809487,-0.70457596,-0.9631713
1734276944459,2024-12-15T15:35:44.459Z,30157,-0.10809487,-0.70457596,-0.9631713
1734276944473,2024-12-15T15:35:44.473Z,30171,-0.11640712,-0.6922412,-0.9450471
1734276944477,2024-12-15T15:35:44.477Z,30175,-0.11640712,-0.6922412,-0.9450471
1734276944490,2024-12-15T15:35:44.490Z,30188,-0.101233535,-0.6431761,-0.92422205
1734276944494,2024-12-15T15:35:44.494Z,30192,-0.101233535,-0.6431761,-0.92422205
1734276944517,2024-12-15T15:35:44.517Z,30215,-0.12676896,-0.6050002,-0.9254147
1734276944520,2024-12-15T15:35:44.520Z,30218,-0.12676896,-0.6050002,-0.9254147
1734276944532,2024-12-15T15:35:44.532Z,30230,-0.16435803,-0.60906166,-0.91388804
1734276944535,2024-12-15T15:35:44.535Z,30233,-0.16435803,-0.60906166,-0.91388804
1734276944547,2024-12-15T15:35:44.547Z,30245,-0.16740632,-0.6143711,-0.8974736
1734276944552,2024-12-15T15:35:44.552Z,30250,-0.16740632,-0.6143711,-0.8974736
1734276944564,2024-12-15T15:35:44.564Z,30262,-0.16812956,-0.6123733,-0.89265865
1734276944568,2024-12-15T15:35:44.568Z,30266,-0.16812956,-0.6123733,-0.89265865
1734276944581,2024-12-15T15:35:44.581Z,30279,-0.18768258,-0.62038785,-0.8530725
1734276944586,2024-12-15T15:35:44.586Z,30284,-0.18768258,-0.62038785,-0.8530725
1734276944599,2024-12-15T15:35:44.599Z,30297,-0.17552559,-0.63270473,-0.79497594
1734276944604,2024-12-15T15:35:44.604Z,30302,-0.17552559,-0.63270473,-0.79497594
1734276944616,2024-12-15T15:35:44.616Z,30314,-0.17873627,-0.63840884,-0.7871621
1734276944620,2024-12-15T15:35:44.620Z,30318,-0.17873627,-0.63840884,-0.7871621
1734276944633,2024-12-15T15:35:44.633Z,30331,-0.19471517,-0.656927,-0.7705667
1734276944638,2024-12-15T15:35:44.638Z,30336,-0.19471517,-0.656927,-0.7705667
1734276944649,2024-12-15T15:35:44.649Z,30347,-0.15918157,-0.6660669,-0.7404074
1734276944652,2024-12-15T15:35:44.652Z,30350,-0.15918157,-0.6660669,-0.7404074
1734276944662,2024-12-15T15:35:44.662Z,30360,-0.1460476,-0.6681668,-0.71519524
1734276944666,2024-12-15T15:35:44.666Z,30364,-0.1460476,-0.6681668,-0.71519524
1734276944677,2024-12-15T15:35:44.677Z,30375,-0.16704576,-0.7091334,-0.72327965
1734276944681,2024-12-15T15:35:44.681Z,30379,-0.16704576,-0.7091334,-0.72327965
1734276944693,2024-12-15T15:35:44.693Z,30391,-0.15723303,-0.7339442,-0.75305915
1734276944697,2024-12-15T15:35:44.697Z,30395,-0.15723303,-0.7339442,-0.75305915
1734276944710,2024-12-15T15:35:44.710Z,30408,-0.14560898,-0.72198004,-0.75748056
1734276944714,2024-12-15T15:35:44.714Z,30412,-0.14560898,-0.72198004,-0.75748056
1734276944727,2024-12-15T15:35:44.727Z,30425,-0.18460266,-0.75684667,-0.7461171
1734276944731,2024-12-15T15:35:44.731Z,30429,-0.18460266,-0.75684667,-0.7461171
1734276944744,2024-12-15T15:35:44.744Z,30442,-0.20630395,-0.83457106,-0.7713014
1734276944748,2024-12-15T15:35:44.748Z,30446,-0.20630395,-0.83457106,-0.7713014
1734276944760,2024-12-15T15:35:44.760Z,30458,-0.23994991,-0.9191604,-0.7974941
1734276944764,2024-12-15T15:35:44.764Z,30462,-0.23994991,-0.9191604,-0.7974941
1734276944776,2024-12-15T15:35:44.776Z,30474,-0.2960396,-0.9991565,-0.78621256
1734276944780,2024-12-15T15:35:44.780Z,30478,-0.2960396,-0.9991565,-0.78621256
1734276944793,2024-12-15T15:35:44.793Z,30491,-0.29287058,-1.0250022,-0.8260064
1734276944797,2024-12-15T15:35:44.797Z,30495,-0.29287058,-1.0250022,-0.8260064
1734276944812,2024-12-15T15:35:44.812Z,30510,-0.27600035,-1.0125977,-0.84249
1734276944815,2024-12-15T15:35:44.815Z,30513,-0.27600035,-1.0125977,-0.84249
1734276944830,2024-12-15T15:35:44.830Z,30528,-0.30430603,-1.0167906,-0.87697124
1734276944833,2024-12-15T15:35:44.833Z,30531,-0.30430603,-1.0167906,-0.87697124
1734276944844,2024-12-15T15:35:44.844Z,30542,-0.3589754,-1.0319505,-0.91090435
1734276944848,2024-12-15T15:35:44.848Z,30546,-0.3589754,-1.0319505,-0.91090435
1734276944861,2024-12-15T15:35:44.861Z,30559,-0.32981402,-0.98111516,-0.90297383
1734276944865,2024-12-15T15:35:44.865Z,30563,-0.32981402,-0.98111516,-0.90297383
1734276944878,2024-12-15T15:35:44.878Z,30576,-0.20978692,-0.9169776,-0.8955118
1734276944882,2024-12-15T15:35:44.882Z,30580,-0.20978692,-0.9169776,-0.8955118
1734276944895,2024-12-15T15:35:44.895Z,30593,-0.25063872,-0.7980263,-1.0327591
1734276944900,2024-12-15T15:35:44.900Z,30598,-0.25063872,-0.7980263,-1.0327591
1734276944911,2024-12-15T15:35:44.911Z,30609,-0.21073286,-0.81391686,-1.0279287
1734276944915,2024-12-15T15:35:44.915Z,30613,-0.21073286,-0.81391686,-1.0279287
1734276944927,2024-12-15T15:35:44.927Z,30625,-0.17498451,-0.7644339,-1.0431892
1734276944931,2024-12-15T15:35:44.931Z,30629,-0.17498451,-0.7644339,-1.0431892
1734276944943,2024-12-15T15:35:44.943Z,30641,-0.19001053,-0.650949,-1.0738635
1734276944947,2024-12-15T15:35:44.947Z,30645,-0.19001053,-0.650949,-1.0738635
1734276944958,2024-12-15T15:35:44.958Z,30656,-0.25251248,-0.5805862,-1.0356783
1734276944961,2024-12-15T15:35:44.961Z,30659,-0.25251248,-0.5805862,-1.0356783
1734276944973,2024-12-15T15:35:44.973Z,30671,-0.2975791,-0.5804162,-0.9755491
1734276944977,2024-12-15T15:35:44.977Z,30675,-0.2975791,-0.5804162,-0.9755491
1734276944987,2024-12-15T15:35:44.987Z,30685,-0.34598807,-0.5666368,-1.0193385
1734276944991,2024-12-15T15:35:44.991Z,30689,-0.34598807,-0.5666368,-1.0193385
1734276945002,2024-12-15T15:35:45.002Z,30700,-0.38198262,-0.5269226,-1.0553303
1734276945006,2024-12-15T15:35:45.006Z,30704,-0.38198262,-0.5269226,-1.0553303
1734276945017,2024-12-15T15:35:45.017Z,30715,-0.3728016,-0.48455322,-0.9800795
1734276945021,2024-12-15T15:35:45.021Z,30719,-0.3728016,-0.48455322,-0.9800795
1734276945031,2024-12-15T15:35:45.031Z,30729,-0.33900014,-0.45019463,-0.93809277
1734276945035,2024-12-15T15:35:45.035Z,30733,-0.33900014,-0.45019463,-0.93809277
1734276945046,2024-12-15T15:35:45.046Z,30744,-0.3589511,-0.44665748,-0.8874136
1734276945050,2024-12-15T15:35:45.050Z,30748,-0.3589511,-0.44665748,-0.8874136
1734276945061,2024-12-15T15:35:45.061Z,30759,-0.4090348,-0.47064835,-0.8560581
1734276945064,2024-12-15T15:35:45.064Z,30762,-0.4090348,-0.47064835,-0.8560581
1734276945079,2024-12-15T15:35:45.079Z,30777,-0.49278718,-0.5280465,-0.8816097
1734276945083,2024-12-15T15:35:45.083Z,30781,-0.49278718,-0.5280465,-0.8816097
1734276945095,2024-12-15T15:35:45.095Z,30793,-0.5302555,-0.6185375,-0.8530267
1734276945099,2024-12-15T15:35:45.099Z,30797,-0.5302555,-0.6185375,-0.8530267
1734276945113,2024-12-15T15:35:45.113Z,30811,-0.4649277,-0.6522307,-0.841547
1734276945119,2024-12-15T15:35:45.119Z,30817,-0.4649277,-0.6522307,-0.841547
1734276945134,2024-12-15T15:35:45.134Z,30832,-0.45255363,-0.5814903,-0.83868694
1734276945140,2024-12-15T15:35:45.140Z,30838,-0.45255363,-0.5814903,-0.83868694
1734276945152,2024-12-15T15:35:45.152Z,30850,-0.47326067,-0.5160492,-0.76941246
1734276945156,2024-12-15T15:35:45.156Z,30854,-0.47326067,-0.5160492,-0.76941246
1734276945167,2024-12-15T15:35:45.167Z,30865,-0.42535242,-0.55263895,-0.7241128
1734276945169,2024-12-15T15:35:45.169Z,30867,-0.42535242,-0.55263895,-0.7241128
1734276945179,2024-12-15T15:35:45.179Z,30877,-0.3910166,-0.5618857,-0.78224754
1734276945183,2024-12-15T15:35:45.183Z,30881,-0.3910166,-0.5618857,-0.78224754
1734276945198,2024-12-15T15:35:45.198Z,30896,-0.36608267,-0.51835495,-0.7325464
1734276945203,2024-12-15T15:35:45.203Z,30901,-0.36608267,-0.51835495,-0.7325464
1734276945214,2024-12-15T15:35:45.214Z,30912,-0.34676746,-0.5448234,-0.695263
1734276945217,2024-12-15T15:35:45.217Z,30915,-0.34676746,-0.5448234,-0.695263
1734276945228,2024-12-15T15:35:45.228Z,30926,-0.37132993,-0.7096016,-0.7855278
1734276945232,2024-12-15T15:35:45.232Z,30930,-0.37132993,-0.7096016,-0.7855278
1734276945241,2024-12-15T15:35:45.241Z,30939,-0.37949395,-0.5851203,-0.7881073
1734276945245,2024-12-15T15:35:45.245Z,30943,-0.37949395,-0.5851203,-0.7881073
1734276945256,2024-12-15T15:35:45.256Z,30954,-0.35835433,-0.5206271,-0.80637443
1734276945260,2024-12-15T15:35:45.260Z,30958,-0.35835433,-0.5206271,-0.80637443
1734276945271,2024-12-15T15:35:45.271Z,30969,-0.33503366,-0.62430274,-0.7963181
1734276945274,2024-12-15T15:35:45.274Z,30972,-0.33503366,-0.62430274,-0.7963181
1734276945284,2024-12-15T15:35:45.284Z,30982,-0.31053552,-0.7304214,-0.7913127
1734276945287,2024-12-15T15:35:45.287Z,30985,-0.31053552,-0.7304214,-0.7913127
1734276945299,2024-12-15T15:35:45.299Z,30997,-0.3316828,-0.734136,-0.85045385
1734276945303,2024-12-15T15:35:45.303Z,31001,-0.3316828,-0.734136,-0.85045385
1734276945314,2024-12-15T15:35:45.314Z,31012,-0.35933682,-0.7271628,-0.84141594
1734276945317,2024-12-15T15:35:45.317Z,31015,-0.35933682,-0.7271628,-0.84141594
1734276945328,2024-12-15T15:35:45.328Z,31026,-0.33993116,-0.6909496,-0.8457024
1734276945332,2024-12-15T15:35:45.332Z,31030,-0.33993116,-0.6909496,-0.8457024
1734276945341,2024-12-15T15:35:45.341Z,31039,-0.3366041,-0.6349965,-0.8733317
1734276945345,2024-12-15T15:35:45.345Z,31043,-0.3366041,-0.6349965,-0.8733317
1734276945357,2024-12-15T15:35:45.357Z,31055,-0.36528027,-0.70727473,-0.8943548
1734276945360,2024-12-15T15:35:45.360Z,31058,-0.36528027,-0.70727473,-0.8943548
1734276945371,2024-12-15T15:35:45.371Z,31069,-0.37742057,-0.82965934,-0.88748014
1734276945375,2024-12-15T15:35:45.375Z,31073,-0.37742057,-0.82965934,-0.88748014
1734276945388,2024-12-15T15:35:45.388Z,31086,-0.34676886,-0.8438682,-0.86809283
1734276945392,2024-12-15T15:35:45.392Z,31090,-0.34676886,-0.8438682,-0.86809283
1734276945403,2024-12-15T15:35:45.403Z,31101,-0.3384074,-0.8219669,-0.9059031
1734276945408,2024-12-15T15:35:45.408Z,31106,-0.3384074,-0.8219669,-0.9059031
1734276945421,2024-12-15T15:35:45.421Z,31119,-0.3548928,-0.87616575,-0.8650291
1734276945425,2024-12-15T15:35:45.425Z,31123,-0.3548928,-0.87616575,-0.8650291
1734276945440,2024-12-15T15:35:45.440Z,31138,-0.33807933,-0.9391432,-0.8173785
1734276945443,2024-12-15T15:35:45.443Z,31141,-0.33807933,-0.9391432,-0.8173785
1734276945455,2024-12-15T15:35:45.455Z,31153,-0.28056344,-0.9082615,-0.8230767
1734276945460,2024-12-15T15:35:45.460Z,31158,-0.28056344,-0.9082615,-0.8230767
1734276945472,2024-12-15T15:35:45.472Z,31170,-0.33348083,-0.9033157,-0.86380965
1734276945477,2024-12-15T15:35:45.477Z,31175,-0.33348083,-0.9033157,-0.86380965
1734276945489,2024-12-15T15:35:45.489Z,31187,-0.40760505,-0.945358,-0.8386428
1734276945493,2024-12-15T15:35:45.493Z,31191,-0.40760505,-0.945358,-0.8386428
1734276945505,2024-12-15T15:35:45.505Z,31203,-0.40455517,-0.95620924,-0.80188584
1734276945508,2024-12-15T15:35:45.508Z,31206,-0.40455517,-0.95620924,-0.80188584
1734276945517,2024-12-15T15:35:45.517Z,31215,-0.34440508,-0.9201684,-0.78511894
1734276945521,2024-12-15T15:35:45.521Z,31219,-0.34440508,-0.9201684,-0.78511894
1734276945530,2024-12-15T15:35:45.530Z,31228,-0.28821293,-0.8462364,-0.73841715
1734276945533,2024-12-15T15:35:45.533Z,31231,-0.28821293,-0.8462364,-0.73841715
1734276945542,2024-12-15T15:35:45.542Z,31240,-0.35290968,-0.84525245,-0.75137466
1734276945545,2024-12-15T15:35:45.545Z,31243,-0.35290968,-0.84525245,-0.75137466
1734276945554,2024-12-15T15:35:45.554Z,31252,-0.40908536,-0.9422814,-0.7367621
1734276945557,2024-12-15T15:35:45.557Z,31255,-0.40908536,-0.9422814,-0.7367621
1734276945567,2024-12-15T15:35:45.567Z,31265,-0.35269853,-0.9838134,-0.7162387
1734276945570,2024-12-15T15:35:45.570Z,31268,-0.35269853,-0.9838134,-0.7162387
1734276945581,2024-12-15T15:35:45.581Z,31279,-0.31228426,-0.90723747,-0.6994764
1734276945583,2024-12-15T15:35:45.583Z,31281,-0.31228426,-0.90723747,-0.6994764
1734276945592,2024-12-15T15:35:45.592Z,31290,-0.31969953,-0.904844,-0.76464874
1734276945595,2024-12-15T15:35:45.595Z,31293,-0.31969953,-0.904844,-0.76464874
1734276945605,2024-12-15T15:35:45.605Z,31303,-0.3398659,-1.0015471,-0.7682921
1734276945608,2024-12-15T15:35:45.608Z,31306,-0.3398659,-1.0015471,-0.7682921
1734276945618,2024-12-15T15:35:45.618Z,31316,-0.39186478,-1.0469044,-0.7073838
1734276945621,2024-12-15T15:35:45.621Z,31319,-0.39186478,-1.0469044,-0.7073838
1734276945632,2024-12-15T15:35:45.632Z,31330,-0.35722986,-1.0238985,-0.65133184
1734276945635,2024-12-15T15:35:45.635Z,31333,-0.35722986,-1.0238985,-0.65133184
1734276945645,2024-12-15T15:35:45.645Z,31343,-0.2637879,-1.0247307,-0.63855445
1734276945648,2024-12-15T15:35:45.648Z,31346,-0.2637879,-1.0247307,-0.63855445
1734276945657,2024-12-15T15:35:45.657Z,31355,-0.2778581,-1.0566549,-0.66945434
1734276945660,2024-12-15T15:35:45.660Z,31358,-0.2778581,-1.0566549,-0.66945434
1734276945670,2024-12-15T15:35:45.670Z,31368,-0.38042867,-1.095342,-0.6710547
1734276945674,2024-12-15T15:35:45.674Z,31372,-0.38042867,-1.095342,-0.6710547
1734276945689,2024-12-15T15:35:45.689Z,31387,-0.3836418,-1.100768,-0.6151209
1734276945694,2024-12-15T15:35:45.694Z,31392,-0.3836418,-1.100768,-0.6151209
1734276945704,2024-12-15T15:35:45.704Z,31402,-0.33262163,-1.1038786,-0.57844156
1734276945709,2024-12-15T15:35:45.709Z,31407,-0.33262163,-1.1038786,-0.57844156
1734276945719,2024-12-15T15:35:45.719Z,31417,-0.34369987,-1.1933705,-0.5647632
1734276945721,2024-12-15T15:35:45.721Z,31419,-0.34369987,-1.1933705,-0.5647632
1734276945731,2024-12-15T15:35:45.731Z,31429,-0.37023613,-1.2468687,-0.5467385
1734276945735,2024-12-15T15:35:45.735Z,31433,-0.37023613,-1.2468687,-0.5467385
1734276945745,2024-12-15T15:35:45.745Z,31443,-0.3398092,-1.2198366,-0.50779074
1734276945748,2024-12-15T15:35:45.748Z,31446,-0.3398092,-1.2198366,-0.50779074
1734276945757,2024-12-15T15:35:45.757Z,31455,-0.32078007,-1.1879706,-0.4383676
1734276945760,2024-12-15T15:35:45.760Z,31458,-0.32078007,-1.1879706,-0.4383676
1734276945769,2024-12-15T15:35:45.769Z,31467,-0.35587937,-1.1911539,-0.44211096
1734276945772,2024-12-15T15:35:45.772Z,31470,-0.35587937,-1.1911539,-0.44211096
1734276945781,2024-12-15T15:35:45.781Z,31479,-0.36474726,-1.1910233,-0.48800978
1734276945785,2024-12-15T15:35:45.785Z,31483,-0.36474726,-1.1910233,-0.48800978
1734276945796,2024-12-15T15:35:45.796Z,31494,-0.34490168,-1.1593008,-0.48436883
1734276945801,2024-12-15T15:35:45.801Z,31499,-0.34490168,-1.1593008,-0.48436883
1734276945812,2024-12-15T15:35:45.812Z,31510,-0.32098013,-1.1052616,-0.44021735
1734276945816,2024-12-15T15:35:45.816Z,31514,-0.32098013,-1.1052616,-0.44021735
1734276945827,2024-12-15T15:35:45.827Z,31525,-0.27128562,-1.0824435,-0.43939883
1734276945830,2024-12-15T15:35:45.830Z,31528,-0.27128562,-1.0824435,-0.43939883
1734276945841,2024-12-15T15:35:45.841Z,31539,-0.25664356,-1.1202459,-0.41742814
1734276945844,2024-12-15T15:35:45.844Z,31542,-0.25664356,-1.1202459,-0.41742814
1734276945853,2024-12-15T15:35:45.853Z,31551,-0.27188972,-1.1768516,-0.36276612
1734276945858,2024-12-15T15:35:45.858Z,31556,-0.27188972,-1.1768516,-0.36276612
1734276945869,2024-12-15T15:35:45.869Z,31567,-0.274658,-1.1601554,-0.40328383
1734276945872,2024-12-15T15:35:45.872Z,31570,-0.274658,-1.1601554,-0.40328383
1734276945881,2024-12-15T15:35:45.881Z,31579,-0.29166767,-1.1652441,-0.46646497
1734276945884,2024-12-15T15:35:45.884Z,31582,-0.29166767,-1.1652441,-0.46646497
1734276945893,2024-12-15T15:35:45.893Z,31591,-0.37443206,-1.1843424,-0.52560997
1734276945896,2024-12-15T15:35:45.896Z,31594,-0.37443206,-1.1843424,-0.52560997
1734276945905,2024-12-15T15:35:45.905Z,31603,-0.38458696,-1.2039485,-0.52247065
1734276945909,2024-12-15T15:35:45.909Z,31607,-0.38458696,-1.2039485,-0.52247065
1734276945919,2024-12-15T15:35:45.919Z,31617,-0.28855863,-1.2209237,-0.5236311
1734276945923,2024-12-15T15:35:45.923Z,31621,-0.28855863,-1.2209237,-0.5236311
1734276945933,2024-12-15T15:35:45.933Z,31631,-0.223032,-1.2050681,-0.54954624
1734276945936,2024-12-15T15:35:45.936Z,31634,-0.223032,-1.2050681,-0.54954624
1734276945948,2024-12-15T15:35:45.948Z,31646,-0.17763346,-1.1466188,-0.51014245
1734276945951,2024-12-15T15:35:45.951Z,31649,-0.17763346,-1.1466188,-0.51014245
1734276945961,2024-12-15T15:35:45.961Z,31659,-0.13046087,-1.0853342,-0.4508705
1734276945964,2024-12-15T15:35:45.964Z,31662,-0.13046087,-1.0853342,-0.4508705
1734276945975,2024-12-15T15:35:45.975Z,31673,-0.08269518,-1.1227522,-0.4470126
1734276945978,2024-12-15T15:35:45.978Z,31676,-0.08269518,-1.1227522,-0.4470126
1734276945988,2024-12-15T15:35:45.988Z,31686,-0.089984,-1.2101545,-0.4048294
1734276945991,2024-12-15T15:35:45.991Z,31689,-0.089984,-1.2101545,-0.4048294
1734276946001,2024-12-15T15:35:46.001Z,31699,-0.10661867,-1.2238259,-0.41063178
1734276946004,2024-12-15T15:35:46.004Z,31702,-0.10661867,-1.2238259,-0.41063178
1734276946016,2024-12-15T15:35:46.016Z,31714,-0.1559099,-1.212563,-0.5240337
1734276946019,2024-12-15T15:35:46.019Z,31717,-0.1559099,-1.212563,-0.5240337
1734276946031,2024-12-15T15:35:46.031Z,31729,-0.20412193,-1.2356968,-0.49971738
1734276946034,2024-12-15T15:35:46.034Z,31732,-0.20412193,-1.2356968,-0.49971738
1734276946043,2024-12-15T15:35:46.043Z,31741,-0.18314677,-1.2024469,-0.39735076
1734276946046,2024-12-15T15:35:46.046Z,31744,-0.18314677,-1.2024469,-0.39735076
1734276946057,2024-12-15T15:35:46.057Z,31755,-0.11123383,-1.1688849,-0.35541993
1734276946063,2024-12-15T15:35:46.063Z,31761,-0.11123383,-1.1688849,-0.35541993
1734276946073,2024-12-15T15:35:46.073Z,31771,-0.09404899,-1.1759045,-0.36236638
1734276946076,2024-12-15T15:35:46.076Z,31774,-0.09404899,-1.1759045,-0.36236638
1734276946086,2024-12-15T15:35:46.086Z,31784,-0.116811454,-1.1954815,-0.29458454
1734276946089,2024-12-15T15:35:46.089Z,31787,-0.116811454,-1.1954815,-0.29458454
1734276946099,2024-12-15T15:35:46.099Z,31797,-0.12963639,-1.2020357,-0.261061
1734276946102,2024-12-15T15:35:46.102Z,31800,-0.12963639,-1.2020357,-0.261061
1734276946111,2024-12-15T15:35:46.111Z,31809,-0.11331967,-1.1970967,-0.2810596
1734276946115,2024-12-15T15:35:46.115Z,31813,-0.11331967,-1.1970967,-0.2810596
1734276946124,2024-12-15T15:35:46.124Z,31822,-0.086359665,-1.1880202,-0.27775124
1734276946128,2024-12-15T15:35:46.128Z,31826,-0.086359665,-1.1880202,-0.27775124
1734276946139,2024-12-15T15:35:46.139Z,31837,-0.08323986,-1.2066674,-0.26774707
1734276946143,2024-12-15T15:35:46.143Z,31841,-0.08323986,-1.2066674,-0.26774707
1734276946152,2024-12-15T15:35:46.152Z,31850,-0.10127326,-1.2238752,-0.2691279
1734276946155,2024-12-15T15:35:46.155Z,31853,-0.10127326,-1.2238752,-0.2691279
1734276946165,2024-12-15T15:35:46.165Z,31863,-0.1217102,-1.2196507,-0.25326145
1734276946168,2024-12-15T15:35:46.168Z,31866,-0.1217102,-1.2196507,-0.25326145
1734276946179,2024-12-15T15:35:46.179Z,31877,-0.120572895,-1.2248889,-0.23480354
1734276946182,2024-12-15T15:35:46.182Z,31880,-0.120572895,-1.2248889,-0.23480354
1734276946191,2024-12-15T15:35:46.191Z,31889,-0.08497125,-1.2517592,-0.26126152
1734276946194,2024-12-15T15:35:46.194Z,31892,-0.08497125,-1.2517592,-0.26126152
1734276946204,2024-12-15T15:35:46.204Z,31902,-0.06455048,-1.2556818,-0.27234146
1734276946207,2024-12-15T15:35:46.207Z,31905,-0.06455048,-1.2556818,-0.27234146
1734276946218,2024-12-15T15:35:46.218Z,31916,-0.02623408,-1.2414738,-0.24402398
1734276946222,2024-12-15T15:35:46.222Z,31920,-0.02623408,-1.2414738,-0.24402398
1734276946237,2024-12-15T15:35:46.237Z,31935,0.02544095,-1.2518353,-0.29296288
1734276946241,2024-12-15T15:35:46.241Z,31939,0.02544095,-1.2518353,-0.29296288
1734276946252,2024-12-15T15:35:46.252Z,31950,-0.006649337,-1.2847581,-0.3361968
1734276946256,2024-12-15T15:35:46.256Z,31954,-0.006649337,-1.2847581,-0.3361968
1734276946269,2024-12-15T15:35:46.269Z,31967,-0.01766264,-1.3197725,-0.3169255
1734276946271,2024-12-15T15:35:46.271Z,31969,-0.01766264,-1.3197725,-0.3169255
1734276946281,2024-12-15T15:35:46.281Z,31979,0.047350083,-1.3132228,-0.3102464
1734276946284,2024-12-15T15:35:46.284Z,31982,0.047350083,-1.3132228,-0.3102464
1734276946295,2024-12-15T15:35:46.295Z,31993,0.06791241,-1.2907006,-0.30437246
1734276946298,2024-12-15T15:35:46.298Z,31996,0.06791241,-1.2907006,-0.30437246
1734276946307,2024-12-15T15:35:46.307Z,32005,0.06927122,-1.2914282,-0.2618535
1734276946310,2024-12-15T15:35:46.310Z,32008,0.06927122,-1.2914282,-0.2618535
1734276946320,2024-12-15T15:35:46.320Z,32018,0.08296149,-1.2714319,-0.23051111
1734276946323,2024-12-15T15:35:46.323Z,32021,0.08296149,-1.2714319,-0.23051111
1734276946335,2024-12-15T15:35:46.335Z,32033,0.062795885,-1.2762142,-0.2400589
1734276946337,2024-12-15T15:35:46.337Z,32035,0.062795885,-1.2762142,-0.2400589
1734276946347,2024-12-15T15:35:46.347Z,32045,0.063719526,-1.281539,-0.25546113
1734276946350,2024-12-15T15:35:46.350Z,32048,0.063719526,-1.281539,-0.25546113
1734276946361,2024-12-15T15:35:46.361Z,32059,0.07736892,-1.2471449,-0.19426753
1734276946365,2024-12-15T15:35:46.365Z,32063,0.07736892,-1.2471449,-0.19426753
1734276946373,2024-12-15T15:35:46.373Z,32071,0.070418574,-1.1975657,-0.17628866
1734276946377,2024-12-15T15:35:46.377Z,32075,0.070418574,-1.1975657,-0.17628866
1734276946387,2024-12-15T15:35:46.387Z,32085,0.028528322,-1.2122253,-0.23530719
1734276946391,2024-12-15T15:35:46.391Z,32089,0.028528322,-1.2122253,-0.23530719
1734276946404,2024-12-15T15:35:46.404Z,32102,-0.0024313144,-1.2528143,-0.22685121
1734276946407,2024-12-15T15:35:46.407Z,32105,-0.0024313144,-1.2528143,-0.22685121
1734276946419,2024-12-15T15:35:46.419Z,32117,-0.0016047818,-1.2212073,-0.2006514
1734276946422,2024-12-15T15:35:46.422Z,32120,-0.0016047818,-1.2212073,-0.2006514
1734276946433,2024-12-15T15:35:46.433Z,32131,0.022175262,-1.1865174,-0.18075593
1734276946436,2024-12-15T15:35:46.436Z,32134,0.022175262,-1.1865174,-0.18075593
1734276946446,2024-12-15T15:35:46.446Z,32144,0.06353473,-1.1867658,-0.14865203
1734276946450,2024-12-15T15:35:46.450Z,32148,0.06353473,-1.1867658,-0.14865203
1734276946458,2024-12-15T15:35:46.458Z,32156,0.057890434,-1.1862648,-0.13900754
1734276946461,2024-12-15T15:35:46.461Z,32159,0.057890434,-1.1862648,-0.13900754
1734276946471,2024-12-15T15:35:46.471Z,32169,0.04314436,-1.1953759,-0.15097177
1734276946475,2024-12-15T15:35:46.475Z,32173,0.04314436,-1.1953759,-0.15097177
1734276946486,2024-12-15T15:35:46.486Z,32184,0.084333666,-1.1918793,-0.1487803
1734276946489,2024-12-15T15:35:46.489Z,32187,0.084333666,-1.1918793,-0.1487803
1734276946501,2024-12-15T15:35:46.501Z,32199,0.09683831,-1.1605729,-0.16503836
1734276946504,2024-12-15T15:35:46.504Z,32202,0.09683831,-1.1605729,-0.16503836
1734276946515,2024-12-15T15:35:46.515Z,32213,0.102118686,-1.179365,-0.19070598
1734276946519,2024-12-15T15:35:46.519Z,32217,0.102118686,-1.179365,-0.19070598
1734276946528,2024-12-15T15:35:46.528Z,32226,0.13573588,-1.2109709,-0.18212032
1734276946532,2024-12-15T15:35:46.532Z,32230,0.13573588,-1.2109709,-0.18212032
1734276946540,2024-12-15T15:35:46.540Z,32238,0.17914638,-1.201162,-0.19642949
1734276946543,2024-12-15T15:35:46.543Z,32241,0.17914638,-1.201162,-0.19642949
1734276946555,2024-12-15T15:35:46.555Z,32253,0.18741882,-1.1778667,-0.20134526
1734276946558,2024-12-15T15:35:46.558Z,32256,0.18741882,-1.1778667,-0.20134526
1734276946568,2024-12-15T15:35:46.568Z,32266,0.14869039,-1.1910548,-0.18677707
1734276946571,2024-12-15T15:35:46.571Z,32269,0.14869039,-1.1910548,-0.18677707
1734276946580,2024-12-15T15:35:46.580Z,32278,0.13761854,-1.2365675,-0.19046763
1734276946583,2024-12-15T15:35:46.583Z,32281,0.13761854,-1.2365675,-0.19046763
1734276946592,2024-12-15T15:35:46.592Z,32290,0.13277227,-1.2618968,-0.21804425
1734276946595,2024-12-15T15:35:46.595Z,32293,0.13277227,-1.2618968,-0.21804425
1734276946605,2024-12-15T15:35:46.605Z,32303,0.1210867,-1.2714201,-0.25099194
1734276946609,2024-12-15T15:35:46.609Z,32307,0.1210867,-1.2714201,-0.25099194
1734276946620,2024-12-15T15:35:46.620Z,32318,0.121608995,-1.2464418,-0.2656596
1734276946623,2024-12-15T15:35:46.623Z,32321,0.121608995,-1.2464418,-0.2656596
1734276946635,2024-12-15T15:35:46.635Z,32333,0.1061417,-1.2166516,-0.3021718
1734276946638,2024-12-15T15:35:46.638Z,32336,0.1061417,-1.2166516,-0.3021718
1734276946648,2024-12-15T15:35:46.648Z,32346,0.070191465,-1.273992,-0.27830648
1734276946651,2024-12-15T15:35:46.651Z,32349,0.070191465,-1.273992,-0.27830648
1734276946661,2024-12-15T15:35:46.661Z,32359,0.036143947,-1.3596966,-0.26202798
1734276946665,2024-12-15T15:35:46.665Z,32363,0.036143947,-1.3596966,-0.26202798
1734276946677,2024-12-15T15:35:46.677Z,32375,0.011409223,-1.4105042,-0.2756839
1734276946681,2024-12-15T15:35:46.681Z,32379,0.011409223,-1.4105042,-0.2756839
1734276946690,2024-12-15T15:35:46.690Z,32388,-0.021580726,-1.4403632,-0.2585575
1734276946693,2024-12-15T15:35:46.693Z,32391,-0.021580726,-1.4403632,-0.2585575
1734276946703,2024-12-15T15:35:46.703Z,32401,-0.028129146,-1.4259051,-0.259328
1734276946705,2024-12-15T15:35:46.705Z,32403,-0.028129146,-1.4259051,-0.259328
1734276946714,2024-12-15T15:35:46.714Z,32412,-0.022518402,-1.389918,-0.28820673
1734276946717,2024-12-15T15:35:46.717Z,32415,-0.022518402,-1.389918,-0.28820673
1734276946727,2024-12-15T15:35:46.727Z,32425,-0.0028920376,-1.3428447,-0.31916448
1734276946730,2024-12-15T15:35:46.730Z,32428,-0.0028920376,-1.3428447,-0.31916448
1734276946741,2024-12-15T15:35:46.741Z,32439,0.040755726,-1.3105036,-0.28978166
1734276946744,2024-12-15T15:35:46.744Z,32442,0.040755726,-1.3105036,-0.28978166
1734276946756,2024-12-15T15:35:46.756Z,32454,0.1215683,-1.2780468,-0.19198021
1734276946759,2024-12-15T15:35:46.759Z,32457,0.1215683,-1.2780468,-0.19198021
1734276946774,2024-12-15T15:35:46.774Z,32472,0.13576287,-1.242077,-0.11302139
1734276946780,2024-12-15T15:35:46.780Z,32478,0.13576287,-1.242077,-0.11302139
1734276946791,2024-12-15T15:35:46.791Z,32489,0.05782286,-1.2677939,-0.08776042
1734276946794,2024-12-15T15:35:46.794Z,32492,0.05782286,-1.2677939,-0.08776042
1734276946803,2024-12-15T15:35:46.803Z,32501,0.031521875,-1.3172063,-0.071767546
1734276946805,2024-12-15T15:35:46.805Z,32503,0.031521875,-1.3172063,-0.071767546
1734276946814,2024-12-15T15:35:46.814Z,32512,0.08107724,-1.2981378,-0.016989809
1734276946817,2024-12-15T15:35:46.817Z,32515,0.08107724,-1.2981378,-0.016989809
1734276946825,2024-12-15T15:35:46.825Z,32523,0.12596808,-1.2222534,0.045909576
1734276946828,2024-12-15T15:35:46.828Z,32526,0.12596808,-1.2222534,0.045909576
1734276946839,2024-12-15T15:35:46.839Z,32537,0.13366024,-1.1707685,0.075060554
1734276946842,2024-12-15T15:35:46.842Z,32540,0.13366024,-1.1707685,0.075060554
1734276946853,2024-12-15T15:35:46.853Z,32551,0.15564921,-1.1985806,0.10556687
1734276946856,2024-12-15T15:35:46.856Z,32554,0.15564921,-1.1985806,0.10556687
1734276946867,2024-12-15T15:35:46.867Z,32565,0.114545844,-1.2573379,0.13261768
1734276946871,2024-12-15T15:35:46.871Z,32569,0.114545844,-1.2573379,0.13261768
1734276946883,2024-12-15T15:35:46.883Z,32581,0.056514926,-1.3138981,0.16239202
1734276946887,2024-12-15T15:35:46.887Z,32585,0.056514926,-1.3138981,0.16239202
1734276946897,2024-12-15T15:35:46.897Z,32595,0.085844375,-1.3576678,0.17672662
1734276946900,2024-12-15T15:35:46.900Z,32598,0.085844375,-1.3576678,0.17672662
1734276946909,2024-12-15T15:35:46.909Z,32607,0.12171113,-1.3542159,0.18077348
1734276946912,2024-12-15T15:35:46.912Z,32610,0.12171113,-1.3542159,0.18077348
1734276946921,2024-12-15T15:35:46.921Z,32619,0.1344186,-1.3078291,0.16354217
1734276946923,2024-12-15T15:35:46.923Z,32621,0.1344186,-1.3078291,0.16354217
1734276946932,2024-12-15T15:35:46.932Z,32630,0.06730113,-1.2661864,0.10620763
1734276946935,2024-12-15T15:35:46.935Z,32633,0.06730113,-1.2661864,0.10620763
1734276946943,2024-12-15T15:35:46.943Z,32641,-0.056360982,-1.2974656,-0.028648106
1734276946946,2024-12-15T15:35:46.946Z,32644,-0.056360982,-1.2974656,-0.028648106
1734276946955,2024-12-15T15:35:46.955Z,32653,-0.063045435,-1.4167871,-0.086177275
1734276946959,2024-12-15T15:35:46.959Z,32657,-0.063045435,-1.4167871,-0.086177275
1734276946969,2024-12-15T15:35:46.969Z,32667,0.003098069,-1.5081426,-0.10253862
1734276946972,2024-12-15T15:35:46.972Z,32670,0.003098069,-1.5081426,-0.10253862
1734276946980,2024-12-15T15:35:46.980Z,32678,0.03061448,-1.52043,-0.1284686
1734276946983,2024-12-15T15:35:46.983Z,32681,0.03061448,-1.52043,-0.1284686
1734276946991,2024-12-15T15:35:46.991Z,32689,0.025131216,-1.4927292,-0.13569528
1734276946994,2024-12-15T15:35:46.994Z,32692,0.025131216,-1.4927292,-0.13569528
1734276947004,2024-12-15T15:35:47.004Z,32702,-0.0335253,-1.440168,-0.18929778
1734276947008,2024-12-15T15:35:47.008Z,32706,-0.0335253,-1.440168,-0.18929778
1734276947021,2024-12-15T15:35:47.021Z,32719,-0.15419132,-1.4096602,-0.2608738
1734276947025,2024-12-15T15:35:47.025Z,32723,-0.15419132,-1.4096602,-0.2608738
1734276947035,2024-12-15T15:35:47.035Z,32733,-0.2901329,-1.4221992,-0.33565035
1734276947038,2024-12-15T15:35:47.038Z,32736,-0.2901329,-1.4221992,-0.33565035
1734276947047,2024-12-15T15:35:47.047Z,32745,-0.295238,-1.4553101,-0.4103851
1734276947050,2024-12-15T15:35:47.050Z,32748,-0.295238,-1.4553101,-0.4103851
1734276947059,2024-12-15T15:35:47.059Z,32757,-0.11881182,-1.4509571,-0.42918357
1734276947063,2024-12-15T15:35:47.063Z,32761,-0.11881182,-1.4509571,-0.42918357
1734276947073,2024-12-15T15:35:47.073Z,32771,-0.03023699,-1.3824666,-0.40931836
1734276947077,2024-12-15T15:35:47.077Z,32775,-0.03023699,-1.3824666,-0.40931836
1734276947086,2024-12-15T15:35:47.086Z,32784,-0.09291832,-1.284509,-0.39884022
1734276947089,2024-12-15T15:35:47.089Z,32787,-0.09291832,-1.284509,-0.39884022
1734276947099,2024-12-15T15:35:47.099Z,32797,-0.24621461,-1.2040161,-0.4215172
1734276947103,2024-12-15T15:35:47.103Z,32801,-0.24621461,-1.2040161,-0.4215172
1734276947113,2024-12-15T15:35:47.113Z,32811,-0.34475145,-1.1939859,-0.4285366
1734276947117,2024-12-15T15:35:47.117Z,32815,-0.34475145,-1.1939859,-0.4285366
1734276947130,2024-12-15T15:35:47.130Z,32828,-0.30314422,-1.1600174,-0.43415916
1734276947133,2024-12-15T15:35:47.133Z,32831,-0.30314422,-1.1600174,-0.43415916
1734276947144,2024-12-15T15:35:47.144Z,32842,-0.2813801,-1.0447189,-0.46826276
1734276947148,2024-12-15T15:35:47.148Z,32846,-0.2813801,-1.0447189,-0.46826276
1734276947158,2024-12-15T15:35:47.158Z,32856,-0.26596302,-0.975601,-0.41543105
1734276947162,2024-12-15T15:35:47.162Z,32860,-0.26596302,-0.975601,-0.41543105
1734276947173,2024-12-15T15:35:47.173Z,32871,-0.2891562,-1.0107541,-0.35386524
1734276947176,2024-12-15T15:35:47.176Z,32874,-0.2891562,-1.0107541,-0.35386524
1734276947187,2024-12-15T15:35:47.187Z,32885,-0.38038313,-1.0847247,-0.35850218
1734276947190,2024-12-15T15:35:47.190Z,32888,-0.38038313,-1.0847247,-0.35850218
1734276947199,2024-12-15T15:35:47.199Z,32897,-0.41596267,-1.0928973,-0.37072828
1734276947203,2024-12-15T15:35:47.203Z,32901,-0.41596267,-1.0928973,-0.37072828
1734276947215,2024-12-15T15:35:47.215Z,32913,-0.39879084,-1.0129158,-0.3338299
1734276947219,2024-12-15T15:35:47.219Z,32917,-0.39879084,-1.0129158,-0.3338299
1734276947229,2024-12-15T15:35:47.229Z,32927,-0.35223466,-0.9030267,-0.36421832
1734276947233,2024-12-15T15:35:47.233Z,32931,-0.35223466,-0.9030267,-0.36421832
1734276947242,2024-12-15T15:35:47.242Z,32940,-0.33439952,-0.84488755,-0.4660423
1734276947246,2024-12-15T15:35:47.246Z,32944,-0.33439952,-0.84488755,-0.4660423
1734276947256,2024-12-15T15:35:47.256Z,32954,-0.35093716,-0.8343811,-0.38756603
1734276947259,2024-12-15T15:35:47.259Z,32957,-0.35093716,-0.8343811,-0.38756603
1734276947271,2024-12-15T15:35:47.271Z,32969,-0.38021016,-0.85940605,-0.38471454
1734276947274,2024-12-15T15:35:47.274Z,32972,-0.38021016,-0.85940605,-0.38471454
1734276947283,2024-12-15T15:35:47.283Z,32981,-0.36620116,-0.9557057,-0.46133748
1734276947286,2024-12-15T15:35:47.286Z,32984,-0.36620116,-0.9557057,-0.46133748
1734276947297,2024-12-15T15:35:47.297Z,32995,-0.3616876,-0.9117192,-0.4789456
1734276947304,2024-12-15T15:35:47.304Z,33002,-0.3616876,-0.9117192,-0.4789456
1734276947317,2024-12-15T15:35:47.317Z,33015,-0.4041033,-0.8244861,-0.47535506
1734276947321,2024-12-15T15:35:47.321Z,33019,-0.4041033,-0.8244861,-0.47535506
1734276947333,2024-12-15T15:35:47.333Z,33031,-0.4273861,-0.8982335,-0.52006733
1734276947337,2024-12-15T15:35:47.337Z,33035,-0.4273861,-0.8982335,-0.52006733
1734276947347,2024-12-15T15:35:47.347Z,33045,-0.3899414,-1.0098318,-0.54963523
1734276947351,2024-12-15T15:35:47.351Z,33049,-0.3899414,-1.0098318,-0.54963523
1734276947359,2024-12-15T15:35:47.359Z,33057,-0.295553,-0.97547686,-0.48330972
1734276947362,2024-12-15T15:35:47.362Z,33060,-0.295553,-0.97547686,-0.48330972
1734276947373,2024-12-15T15:35:47.373Z,33071,-0.32913777,-0.8575608,-0.54122746
1734276947377,2024-12-15T15:35:47.377Z,33075,-0.32913777,-0.8575608,-0.54122746
1734276947388,2024-12-15T15:35:47.388Z,33086,-0.39646938,-0.87035304,-0.60866594
1734276947391,2024-12-15T15:35:47.391Z,33089,-0.39646938,-0.87035304,-0.60866594
1734276947403,2024-12-15T15:35:47.403Z,33101,-0.4317005,-0.9599444,-0.5983318
1734276947407,2024-12-15T15:35:47.407Z,33105,-0.4317005,-0.9599444,-0.5983318
1734276947418,2024-12-15T15:35:47.418Z,33116,-0.47910175,-0.995821,-0.60419697
1734276947421,2024-12-15T15:35:47.421Z,33119,-0.47910175,-0.995821,-0.60419697
1734276947430,2024-12-15T15:35:47.430Z,33128,-0.46057898,-1.0020761,-0.6296764
1734276947433,2024-12-15T15:35:47.433Z,33131,-0.46057898,-1.0020761,-0.6296764
1734276947443,2024-12-15T15:35:47.443Z,33141,-0.4334429,-0.9395276,-0.6673851
1734276947447,2024-12-15T15:35:47.447Z,33145,-0.4334429,-0.9395276,-0.6673851
1734276947456,2024-12-15T15:35:47.456Z,33154,-0.45266867,-0.83256763,-0.70831573
1734276947458,2024-12-15T15:35:47.458Z,33156,-0.45266867,-0.83256763,-0.70831573
1734276947468,2024-12-15T15:35:47.468Z,33166,-0.4096194,-0.8095513,-0.6575554
1734276947471,2024-12-15T15:35:47.471Z,33169,-0.4096194,-0.8095513,-0.6575554
1734276947479,2024-12-15T15:35:47.479Z,33177,-0.4017008,-0.90103906,-0.7497885
1734276947482,2024-12-15T15:35:47.482Z,33180,-0.4017008,-0.90103906,-0.7497885
1734276947490,2024-12-15T15:35:47.490Z,33188,-0.45605856,-1.0394785,-0.77991974
1734276947493,2024-12-15T15:35:47.493Z,33191,-0.45605856,-1.0394785,-0.77991974
1734276947502,2024-12-15T15:35:47.502Z,33200,-0.38423365,-1.0214113,-0.6460862
1734276947505,2024-12-15T15:35:47.505Z,33203,-0.38423365,-1.0214113,-0.6460862
1734276947516,2024-12-15T15:35:47.516Z,33214,-0.33070996,-0.8421731,-0.6445398
1734276947520,2024-12-15T15:35:47.520Z,33218,-0.33070996,-0.8421731,-0.6445398
1734276947530,2024-12-15T15:35:47.530Z,33228,-0.3155429,-0.74318373,-0.73347193
1734276947533,2024-12-15T15:35:47.533Z,33231,-0.3155429,-0.74318373,-0.73347193
1734276947544,2024-12-15T15:35:47.544Z,33242,-0.40784395,-0.7624639,-0.82465917
1734276947548,2024-12-15T15:35:47.548Z,33246,-0.40784395,-0.7624639,-0.82465917
1734276947557,2024-12-15T15:35:47.557Z,33255,-0.5313204,-0.8861422,-0.7747186
1734276947560,2024-12-15T15:35:47.560Z,33258,-0.5313204,-0.8861422,-0.7747186
1734276947569,2024-12-15T15:35:47.569Z,33267,-0.41558805,-0.97054005,-0.74391985
1734276947572,2024-12-15T15:35:47.572Z,33270,-0.41558805,-0.97054005,-0.74391985
1734276947580,2024-12-15T15:35:47.580Z,33278,-0.27954897,-0.8574303,-0.7308924
1734276947584,2024-12-15T15:35:47.584Z,33282,-0.27954897,-0.8574303,-0.7308924
1734276947596,2024-12-15T15:35:47.596Z,33294,-0.32950622,-0.7239929,-0.65683997
1734276947600,2024-12-15T15:35:47.600Z,33298,-0.32950622,-0.7239929,-0.65683997
1734276947607,2024-12-15T15:35:47.607Z,33305,-0.25155106,-0.73829013,-0.6635584
1734276947610,2024-12-15T15:35:47.610Z,33308,-0.25155106,-0.73829013,-0.6635584
1734276947619,2024-12-15T15:35:47.619Z,33317,-0.2536848,-0.7614702,-0.838073
1734276947622,2024-12-15T15:35:47.622Z,33320,-0.2536848,-0.7614702,-0.838073
1734276947630,2024-12-15T15:35:47.630Z,33328,-0.43653798,-0.75944287,-0.80992275
1734276947633,2024-12-15T15:35:47.633Z,33331,-0.43653798,-0.75944287,-0.80992275
1734276947645,2024-12-15T15:35:47.645Z,33343,-0.42629653,-0.7135869,-0.72762823
1734276947649,2024-12-15T15:35:47.649Z,33347,-0.42629653,-0.7135869,-0.72762823
1734276947660,2024-12-15T15:35:47.660Z,33358,-0.39604738,-0.67021596,-0.8168505
1734276947663,2024-12-15T15:35:47.663Z,33361,-0.39604738,-0.67021596,-0.8168505
1734276947672,2024-12-15T15:35:47.672Z,33370,-0.43204302,-0.7199977,-0.77284586
1734276947674,2024-12-15T15:35:47.674Z,33372,-0.43204302,-0.7199977,-0.77284586
1734276947683,2024-12-15T15:35:47.683Z,33381,-0.413315,-0.7602323,-0.8029633
1734276947686,2024-12-15T15:35:47.686Z,33384,-0.413315,-0.7602323,-0.8029633
1734276947695,2024-12-15T15:35:47.695Z,33393,-0.48074466,-0.75616276,-0.7959249
1734276947698,2024-12-15T15:35:47.698Z,33396,-0.48074466,-0.75616276,-0.7959249
1734276947708,2024-12-15T15:35:47.708Z,33406,-0.41795462,-0.77605546,-0.7769608
1734276947712,2024-12-15T15:35:47.712Z,33410,-0.41795462,-0.77605546,-0.7769608
1734276947723,2024-12-15T15:35:47.723Z,33421,-0.38855964,-0.7402269,-0.8001621
1734276947726,2024-12-15T15:35:47.726Z,33424,-0.38855964,-0.7402269,-0.8001621
1734276947737,2024-12-15T15:35:47.737Z,33435,-0.5059666,-0.7785053,-0.71831787
1734276947739,2024-12-15T15:35:47.739Z,33437,-0.5059666,-0.7785053,-0.71831787
1734276947750,2024-12-15T15:35:47.750Z,33448,-0.5013718,-0.90197265,-0.7097807
1734276947753,2024-12-15T15:35:47.753Z,33451,-0.5013718,-0.90197265,-0.7097807
1734276947764,2024-12-15T15:35:47.764Z,33462,-0.46813032,-0.93856347,-0.71281976
1734276947768,2024-12-15T15:35:47.768Z,33466,-0.46813032,-0.93856347,-0.71281976
1734276947780,2024-12-15T15:35:47.780Z,33478,-0.49180308,-0.82636654,-0.686249
1734276947783,2024-12-15T15:35:47.783Z,33481,-0.49180308,-0.82636654,-0.686249
1734276947793,2024-12-15T15:35:47.793Z,33491,-0.5212472,-0.7765746,-0.6765858
1734276947796,2024-12-15T15:35:47.796Z,33494,-0.5212472,-0.7765746,-0.6765858
1734276947808,2024-12-15T15:35:47.808Z,33506,-0.46401447,-0.8400343,-0.6543382
1734276947816,2024-12-15T15:35:47.816Z,33514,-0.46401447,-0.8400343,-0.6543382
1734276947826,2024-12-15T15:35:47.826Z,33524,-0.35016173,-0.8462919,-0.6508282
1734276947829,2024-12-15T15:35:47.829Z,33527,-0.35016173,-0.8462919,-0.6508282
1734276947839,2024-12-15T15:35:47.839Z,33537,-0.23574671,-0.78406626,-0.640017
1734276947842,2024-12-15T15:35:47.842Z,33540,-0.23574671,-0.78406626,-0.640017
1734276947853,2024-12-15T15:35:47.853Z,33551,-0.23794843,-0.72463477,-0.7286345
1734276947855,2024-12-15T15:35:47.855Z,33553,-0.23794843,-0.72463477,-0.7286345
1734276947865,2024-12-15T15:35:47.865Z,33563,-0.36763284,-0.7434722,-0.7570624
1734276947868,2024-12-15T15:35:47.868Z,33566,-0.36763284,-0.7434722,-0.7570624
1734276947876,2024-12-15T15:35:47.876Z,33574,-0.36285558,-0.7647261,-0.7246731
1734276947878,2024-12-15T15:35:47.878Z,33576,-0.36285558,-0.7647261,-0.7246731
1734276947887,2024-12-15T15:35:47.887Z,33585,-0.25921345,-0.6952575,-0.765098
1734276947890,2024-12-15T15:35:47.890Z,33588,-0.25921345,-0.6952575,-0.765098
1734276947902,2024-12-15T15:35:47.902Z,33600,-0.24112794,-0.6168169,-0.70913756
1734276947905,2024-12-15T15:35:47.905Z,33603,-0.24112794,-0.6168169,-0.70913756
1734276947916,2024-12-15T15:35:47.916Z,33614,-0.19148552,-0.6313582,-0.7097728
1734276947919,2024-12-15T15:35:47.919Z,33617,-0.19148552,-0.6313582,-0.7097728
1734276947928,2024-12-15T15:35:47.928Z,33626,-0.16602434,-0.7335063,-0.7924535
1734276947932,2024-12-15T15:35:47.932Z,33630,-0.16602434,-0.7335063,-0.7924535
1734276947940,2024-12-15T15:35:47.940Z,33638,-0.19823945,-0.8534088,-0.7184608
1734276947943,2024-12-15T15:35:47.943Z,33641,-0.19823945,-0.8534088,-0.7184608
1734276947954,2024-12-15T15:35:47.954Z,33652,-0.2132949,-0.8827949,-0.710113
1734276947956,2024-12-15T15:35:47.956Z,33654,-0.2132949,-0.8827949,-0.710113
1734276947964,2024-12-15T15:35:47.964Z,33662,-0.32828256,-0.854331,-0.7384185
1734276947967,2024-12-15T15:35:47.967Z,33665,-0.32828256,-0.854331,-0.7384185
1734276947975,2024-12-15T15:35:47.975Z,33673,-0.43128636,-0.8457777,-0.7198834
1734276947979,2024-12-15T15:35:47.979Z,33677,-0.43128636,-0.8457777,-0.7198834
1734276947989,2024-12-15T15:35:47.989Z,33687,-0.41925368,-0.8603025,-0.6793378
1734276947992,2024-12-15T15:35:47.992Z,33690,-0.41925368,-0.8603025,-0.6793378
1734276948005,2024-12-15T15:35:48.005Z,33703,-0.40649995,-0.92917174,-0.65803045
1734276948007,2024-12-15T15:35:48.007Z,33705,-0.40649995,-0.92917174,-0.65803045
1734276948016,2024-12-15T15:35:48.016Z,33714,-0.41861105,-1.0506964,-0.70099413
1734276948019,2024-12-15T15:35:48.019Z,33717,-0.41861105,-1.0506964,-0.70099413
1734276948030,2024-12-15T15:35:48.030Z,33728,-0.41978315,-1.1426032,-0.7089043
1734276948033,2024-12-15T15:35:48.033Z,33731,-0.41978315,-1.1426032,-0.7089043
1734276948041,2024-12-15T15:35:48.041Z,33739,-0.37748104,-1.1041365,-0.7238553
1734276948044,2024-12-15T15:35:48.044Z,33742,-0.37748104,-1.1041365,-0.7238553
1734276948053,2024-12-15T15:35:48.053Z,33751,-0.32050925,-0.9933899,-0.7158948
1734276948056,2024-12-15T15:35:48.056Z,33754,-0.32050925,-0.9933899,-0.7158948
1734276948066,2024-12-15T15:35:48.066Z,33764,-0.2700794,-0.9274437,-0.6736525
1734276948069,2024-12-15T15:35:48.069Z,33767,-0.2700794,-0.9274437,-0.6736525
1734276948077,2024-12-15T15:35:48.077Z,33775,-0.2725415,-0.90486306,-0.7103996
1734276948081,2024-12-15T15:35:48.081Z,33779,-0.2725415,-0.90486306,-0.7103996
1734276948091,2024-12-15T15:35:48.091Z,33789,-0.35606167,-0.9041932,-0.7206951
1734276948093,2024-12-15T15:35:48.093Z,33791,-0.35606167,-0.9041932,-0.7206951
1734276948102,2024-12-15T15:35:48.102Z,33800,-0.41097286,-0.904632,-0.6866067
1734276948104,2024-12-15T15:35:48.104Z,33802,-0.41097286,-0.904632,-0.6866067
1734276948111,2024-12-15T15:35:48.111Z,33809,-0.36515397,-0.9139175,-0.70340204
1734276948114,2024-12-15T15:35:48.114Z,33812,-0.36515397,-0.9139175,-0.70340204
1734276948122,2024-12-15T15:35:48.122Z,33820,-0.23844887,-0.9380219,-0.70168173
1734276948124,2024-12-15T15:35:48.124Z,33822,-0.23844887,-0.9380219,-0.70168173
1734276948133,2024-12-15T15:35:48.133Z,33831,-0.08258015,-0.8884464,-0.74396193
1734276948135,2024-12-15T15:35:48.135Z,33833,-0.08258015,-0.8884464,-0.74396193
1734276948144,2024-12-15T15:35:48.144Z,33842,-0.04636963,-0.7974994,-0.8131696
1734276948147,2024-12-15T15:35:48.147Z,33845,-0.04636963,-0.7974994,-0.8131696
1734276948157,2024-12-15T15:35:48.157Z,33855,-0.14123754,-0.7817957,-0.74185115
1734276948161,2024-12-15T15:35:48.161Z,33859,-0.14123754,-0.7817957,-0.74185115
1734276948171,2024-12-15T15:35:48.171Z,33869,-0.20947737,-0.7875316,-0.75133634
1734276948173,2024-12-15T15:35:48.173Z,33871,-0.20947737,-0.7875316,-0.75133634
1734276948184,2024-12-15T15:35:48.184Z,33882,-0.21035945,-0.79693604,-0.80235153
1734276948188,2024-12-15T15:35:48.188Z,33886,-0.21035945,-0.79693604,-0.80235153
1734276948196,2024-12-15T15:35:48.196Z,33894,-0.16770805,-0.8038258,-0.7681702
1734276948199,2024-12-15T15:35:48.199Z,33897,-0.16770805,-0.8038258,-0.7681702
1734276948207,2024-12-15T15:35:48.207Z,33905,-0.095329344,-0.7548541,-0.7694035
1734276948210,2024-12-15T15:35:48.210Z,33908,-0.095329344,-0.7548541,-0.7694035
1734276948220,2024-12-15T15:35:48.220Z,33918,-0.0854767,-0.74377054,-0.7939102
1734276948223,2024-12-15T15:35:48.223Z,33921,-0.0854767,-0.74377054,-0.7939102
1734276948233,2024-12-15T15:35:48.233Z,33931,-0.064142786,-0.78128004,-0.84918463
1734276948236,2024-12-15T15:35:48.236Z,33934,-0.064142786,-0.78128004,-0.84918463
1734276948244,2024-12-15T15:35:48.244Z,33942,-0.057737585,-0.84693056,-0.88884705
1734276948248,2024-12-15T15:35:48.248Z,33946,-0.057737585,-0.84693056,-0.88884705
1734276948256,2024-12-15T15:35:48.256Z,33954,-0.13874932,-0.908956,-0.814186
1734276948259,2024-12-15T15:35:48.259Z,33957,-0.13874932,-0.908956,-0.814186
1734276948271,2024-12-15T15:35:48.271Z,33969,-0.1900628,-0.89583814,-0.7889093
1734276948275,2024-12-15T15:35:48.275Z,33973,-0.1900628,-0.89583814,-0.7889093
1734276948283,2024-12-15T15:35:48.283Z,33981,-0.20110421,-0.85296446,-0.8217849
1734276948286,2024-12-15T15:35:48.286Z,33984,-0.20110421,-0.85296446,-0.8217849
1734276948296,2024-12-15T15:35:48.296Z,33994,-0.23388939,-0.86614186,-0.77498627
1734276948299,2024-12-15T15:35:48.299Z,33997,-0.23388939,-0.86614186,-0.77498627
1734276948309,2024-12-15T15:35:48.309Z,34007,-0.25369883,-0.9066647,-0.74527013
1734276948312,2024-12-15T15:35:48.312Z,34010,-0.25369883,-0.9066647,-0.74527013
1734276948326,2024-12-15T15:35:48.326Z,34024,-0.24687341,-0.9433113,-0.7605321
1734276948329,2024-12-15T15:35:48.329Z,34027,-0.24687341,-0.9433113,-0.7605321
1734276948340,2024-12-15T15:35:48.340Z,34038,-0.17734174,-0.9304513,-0.749974
1734276948347,2024-12-15T15:35:48.347Z,34045,-0.17734174,-0.9304513,-0.749974
1734276948358,2024-12-15T15:35:48.358Z,34056,-0.08806486,-0.85974354,-0.77798444
1734276948363,2024-12-15T15:35:48.363Z,34061,-0.08806486,-0.85974354,-0.77798444
1734276948372,2024-12-15T15:35:48.372Z,34070,-0.122811146,-0.785005,-0.7722535
1734276948375,2024-12-15T15:35:48.375Z,34073,-0.122811146,-0.785005,-0.7722535
1734276948384,2024-12-15T15:35:48.384Z,34082,-0.20478757,-0.7583204,-0.7631674
1734276948387,2024-12-15T15:35:48.387Z,34085,-0.20478757,-0.7583204,-0.7631674
1734276948394,2024-12-15T15:35:48.394Z,34092,-0.23545533,-0.7824518,-0.7610218
1734276948397,2024-12-15T15:35:48.397Z,34095,-0.23545533,-0.7824518,-0.7610218
1734276948405,2024-12-15T15:35:48.405Z,34103,-0.19783062,-0.8187622,-0.7705627
1734276948408,2024-12-15T15:35:48.408Z,34106,-0.19783062,-0.8187622,-0.7705627
1734276948419,2024-12-15T15:35:48.419Z,34117,-0.13473184,-0.8221738,-0.7614326
1734276948421,2024-12-15T15:35:48.421Z,34119,-0.13473184,-0.8221738,-0.7614326
1734276948429,2024-12-15T15:35:48.429Z,34127,-0.097156055,-0.8254565,-0.75710547
1734276948431,2024-12-15T15:35:48.431Z,34129,-0.097156055,-0.8254565,-0.75710547
1734276948441,2024-12-15T15:35:48.441Z,34139,-0.07203504,-0.84473866,-0.7713575
1734276948445,2024-12-15T15:35:48.445Z,34143,-0.07203504,-0.84473866,-0.7713575
1734276948454,2024-12-15T15:35:48.454Z,34152,-0.021013012,-0.86210215,-0.7920173
1734276948457,2024-12-15T15:35:48.457Z,34155,-0.021013012,-0.86210215,-0.7920173
1734276948465,2024-12-15T15:35:48.465Z,34163,0.0051831207,-0.8714221,-0.8078104
1734276948468,2024-12-15T15:35:48.468Z,34166,0.0051831207,-0.8714221,-0.8078104
1734276948476,2024-12-15T15:35:48.476Z,34174,-0.0088893045,-0.8812529,-0.81191283
1734276948478,2024-12-15T15:35:48.478Z,34176,-0.0088893045,-0.8812529,-0.81191283
1734276948488,2024-12-15T15:35:48.488Z,34186,-0.0040031048,-0.8700766,-0.8078109
1734276948491,2024-12-15T15:35:48.491Z,34189,-0.0040031048,-0.8700766,-0.8078109
1734276948500,2024-12-15T15:35:48.500Z,34198,5.0087436E-4,-0.86743456,-0.802745
1734276948503,2024-12-15T15:35:48.503Z,34201,5.0087436E-4,-0.86743456,-0.802745
1734276948511,2024-12-15T15:35:48.511Z,34209,-0.0372593,-0.892876,-0.80149007
1734276948513,2024-12-15T15:35:48.513Z,34211,-0.0372593,-0.892876,-0.80149007
1734276948521,2024-12-15T15:35:48.521Z,34219,-0.06495721,-0.91513795,-0.80698806
1734276948523,2024-12-15T15:35:48.523Z,34221,-0.06495721,-0.91513795,-0.80698806
1734276948531,2024-12-15T15:35:48.531Z,34229,-0.044059142,-0.9086155,-0.8114332
1734276948533,2024-12-15T15:35:48.533Z,34231,-0.044059142,-0.9086155,-0.8114332
1734276948542,2024-12-15T15:35:48.542Z,34240,-0.024952548,-0.8968163,-0.81091243
1734276948545,2024-12-15T15:35:48.545Z,34243,-0.024952548,-0.8968163,-0.81091243
1734276948555,2024-12-15T15:35:48.555Z,34253,-0.021278802,-0.8967774,-0.8059667
1734276948558,2024-12-15T15:35:48.558Z,34256,-0.021278802,-0.8967774,-0.8059667
1734276948567,2024-12-15T15:35:48.567Z,34265,-0.0017727528,-0.9150126,-0.79714215
1734276948570,2024-12-15T15:35:48.570Z,34268,-0.0017727528,-0.9150126,-0.79714215
1734276948581,2024-12-15T15:35:48.581Z,34279,0.020416817,-0.93883604,-0.8034858
1734276948584,2024-12-15T15:35:48.584Z,34282,0.020416817,-0.93883604,-0.8034858
1734276948592,2024-12-15T15:35:48.592Z,34290,0.03299909,-0.9325972,-0.8264529
1734276948594,2024-12-15T15:35:48.594Z,34292,0.03299909,-0.9325972,-0.8264529
1734276948602,2024-12-15T15:35:48.602Z,34300,0.007939705,-0.8973696,-0.83336097
1734276948604,2024-12-15T15:35:48.604Z,34302,0.007939705,-0.8973696,-0.83336097
1734276948611,2024-12-15T15:35:48.611Z,34309,-0.025422473,-0.855056,-0.82665265
1734276948614,2024-12-15T15:35:48.614Z,34312,-0.025422473,-0.855056,-0.82665265
1734276948622,2024-12-15T15:35:48.622Z,34320,-0.01410933,-0.8502158,-0.8331472
1734276948625,2024-12-15T15:35:48.625Z,34323,-0.01410933,-0.8502158,-0.8331472
1734276948635,2024-12-15T15:35:48.635Z,34333,0.0072610495,-0.8612098,-0.8454203
1734276948639,2024-12-15T15:35:48.639Z,34337,0.0072610495,-0.8612098,-0.8454203
1734276948649,2024-12-15T15:35:48.649Z,34347,0.0017661036,-0.85549027,-0.831219
1734276948652,2024-12-15T15:35:48.652Z,34350,0.0017661036,-0.85549027,-0.831219
1734276948660,2024-12-15T15:35:48.660Z,34358,-0.027670415,-0.85313904,-0.8277037
1734276948663,2024-12-15T15:35:48.663Z,34361,-0.027670415,-0.85313904,-0.8277037
1734276948673,2024-12-15T15:35:48.673Z,34371,-0.05187447,-0.8848999,-0.8061036
1734276948676,2024-12-15T15:35:48.676Z,34374,-0.05187447,-0.8848999,-0.8061036
1734276948685,2024-12-15T15:35:48.685Z,34383,-0.02742822,-0.9163279,-0.7942497
1734276948688,2024-12-15T15:35:48.688Z,34386,-0.02742822,-0.9163279,-0.7942497
1734276948696,2024-12-15T15:35:48.696Z,34394,0.0041276547,-0.91000587,-0.7784676
1734276948699,2024-12-15T15:35:48.699Z,34397,0.0041276547,-0.91000587,-0.7784676
1734276948708,2024-12-15T15:35:48.708Z,34406,-0.0010834368,-0.87277925,-0.7607156
1734276948710,2024-12-15T15:35:48.710Z,34408,-0.0010834368,-0.87277925,-0.7607156
1734276948720,2024-12-15T15:35:48.720Z,34418,-0.066415995,-0.8409427,-0.78884846
1734276948723,2024-12-15T15:35:48.723Z,34421,-0.066415995,-0.8409427,-0.78884846
1734276948732,2024-12-15T15:35:48.732Z,34430,-0.15864837,-0.8296367,-0.8330208
1734276948734,2024-12-15T15:35:48.734Z,34432,-0.15864837,-0.8296367,-0.8330208
1734276948743,2024-12-15T15:35:48.743Z,34441,-0.19478083,-0.8362258,-0.82719237
1734276948746,2024-12-15T15:35:48.746Z,34444,-0.19478083,-0.8362258,-0.82719237
1734276948756,2024-12-15T15:35:48.756Z,34454,-0.1717107,-0.84840405,-0.79321605
1734276948759,2024-12-15T15:35:48.759Z,34457,-0.1717107,-0.84840405,-0.79321605
1734276948768,2024-12-15T15:35:48.768Z,34466,-0.1424036,-0.8511584,-0.7432904
1734276948771,2024-12-15T15:35:48.771Z,34469,-0.1424036,-0.8511584,-0.7432904
1734276948781,2024-12-15T15:35:48.781Z,34479,-0.12201014,-0.8498087,-0.7224998
1734276948783,2024-12-15T15:35:48.783Z,34481,-0.12201014,-0.8498087,-0.7224998
1734276948797,2024-12-15T15:35:48.797Z,34495,-0.13373162,-0.83124846,-0.7144934
1734276948800,2024-12-15T15:35:48.800Z,34498,-0.13373162,-0.83124846,-0.7144934
1734276948809,2024-12-15T15:35:48.809Z,34507,-0.14025661,-0.7932447,-0.7233169
1734276948812,2024-12-15T15:35:48.812Z,34510,-0.14025661,-0.7932447,-0.7233169
1734276948821,2024-12-15T15:35:48.821Z,34519,-0.12082342,-0.7596564,-0.7416403
1734276948824,2024-12-15T15:35:48.824Z,34522,-0.12082342,-0.7596564,-0.7416403
1734276948833,2024-12-15T15:35:48.833Z,34531,-0.0736561,-0.7547935,-0.74194086
1734276948836,2024-12-15T15:35:48.836Z,34534,-0.0736561,-0.7547935,-0.74194086
1734276948844,2024-12-15T15:35:48.844Z,34542,-0.034371413,-0.77315235,-0.72747123
1734276948847,2024-12-15T15:35:48.847Z,34545,-0.034371413,-0.77315235,-0.72747123
1734276948857,2024-12-15T15:35:48.857Z,34555,0.0060058488,-0.7993547,-0.72462046
1734276948859,2024-12-15T15:35:48.859Z,34557,0.0060058488,-0.7993547,-0.72462046
1734276948871,2024-12-15T15:35:48.871Z,34569,0.06801073,-0.8147308,-0.72127235
1734276948874,2024-12-15T15:35:48.874Z,34572,0.06801073,-0.8147308,-0.72127235
1734276948882,2024-12-15T15:35:48.882Z,34580,0.120146595,-0.83505815,-0.6803644
1734276948885,2024-12-15T15:35:48.885Z,34583,0.120146595,-0.83505815,-0.6803644
1734276948893,2024-12-15T15:35:48.893Z,34591,0.07982154,-0.85893315,-0.6880115
1734276948896,2024-12-15T15:35:48.896Z,34594,0.07982154,-0.85893315,-0.6880115
1734276948907,2024-12-15T15:35:48.907Z,34605,0.009052231,-0.82174885,-0.7131711
1734276948909,2024-12-15T15:35:48.909Z,34607,0.009052231,-0.82174885,-0.7131711
1734276948917,2024-12-15T15:35:48.917Z,34615,-0.06336622,-0.6920989,-0.7664095
1734276948920,2024-12-15T15:35:48.920Z,34618,-0.06336622,-0.6920989,-0.7664095
1734276948928,2024-12-15T15:35:48.928Z,34626,-0.1718795,-0.61040634,-0.7908319
1734276948931,2024-12-15T15:35:48.931Z,34629,-0.1718795,-0.61040634,-0.7908319
1734276948940,2024-12-15T15:35:48.940Z,34638,-0.21809833,-0.60700864,-0.78149325
1734276948942,2024-12-15T15:35:48.942Z,34640,-0.21809833,-0.60700864,-0.78149325
1734276948953,2024-12-15T15:35:48.953Z,34651,-0.18388252,-0.666168,-0.75862116
1734276948955,2024-12-15T15:35:48.955Z,34653,-0.18388252,-0.666168,-0.75862116
1734276948963,2024-12-15T15:35:48.963Z,34661,-0.18265632,-0.7849427,-0.7518569
1734276948966,2024-12-15T15:35:48.966Z,34664,-0.18265632,-0.7849427,-0.7518569
1734276948975,2024-12-15T15:35:48.975Z,34673,-0.16568854,-0.8941237,-0.7723045
1734276948977,2024-12-15T15:35:48.977Z,34675,-0.16568854,-0.8941237,-0.7723045
1734276948986,2024-12-15T15:35:48.986Z,34684,-0.12871715,-0.85920215,-0.8544695
1734276948988,2024-12-15T15:35:48.988Z,34686,-0.12871715,-0.85920215,-0.8544695
1734276948996,2024-12-15T15:35:48.996Z,34694,-0.10401003,-0.74102694,-0.8349089
1734276948998,2024-12-15T15:35:48.998Z,34696,-0.10401003,-0.74102694,-0.8349089
1734276949007,2024-12-15T15:35:49.007Z,34705,-0.109758854,-0.7589943,-0.7389892
1734276949010,2024-12-15T15:35:49.010Z,34708,-0.109758854,-0.7589943,-0.7389892
1734276949020,2024-12-15T15:35:49.020Z,34718,-0.18459658,-0.91907334,-0.7439034
1734276949023,2024-12-15T15:35:49.023Z,34721,-0.18459658,-0.91907334,-0.7439034
1734276949033,2024-12-15T15:35:49.033Z,34731,-0.26758656,-0.9382446,-0.7997346
1734276949036,2024-12-15T15:35:49.036Z,34734,-0.26758656,-0.9382446,-0.7997346
1734276949044,2024-12-15T15:35:49.044Z,34742,-0.32261205,-0.79293394,-0.78855675
1734276949047,2024-12-15T15:35:49.047Z,34745,-0.32261205,-0.79293394,-0.78855675
1734276949055,2024-12-15T15:35:49.055Z,34753,-0.30677885,-0.74993247,-0.7606045
1734276949058,2024-12-15T15:35:49.058Z,34756,-0.30677885,-0.74993247,-0.7606045
1734276949065,2024-12-15T15:35:49.065Z,34763,-0.19288167,-0.84176016,-0.74422604
1734276949068,2024-12-15T15:35:49.068Z,34766,-0.19288167,-0.84176016,-0.74422604
1734276949075,2024-12-15T15:35:49.075Z,34773,-0.081903666,-0.976419,-0.75204986
1734276949078,2024-12-15T15:35:49.078Z,34776,-0.081903666,-0.976419,-0.75204986
1734276949086,2024-12-15T15:35:49.086Z,34784,-0.05836126,-1.0600119,-0.7431706
1734276949089,2024-12-15T15:35:49.089Z,34787,-0.05836126,-1.0600119,-0.7431706
1734276949098,2024-12-15T15:35:49.098Z,34796,-0.079116434,-0.9847852,-0.7461925
1734276949101,2024-12-15T15:35:49.101Z,34799,-0.079116434,-0.9847852,-0.7461925
1734276949111,2024-12-15T15:35:49.111Z,34809,-0.080900006,-0.91070753,-0.71087474
1734276949113,2024-12-15T15:35:49.113Z,34811,-0.080900006,-0.91070753,-0.71087474
1734276949121,2024-12-15T15:35:49.121Z,34819,-0.032494824,-1.0453056,-0.67219913
1734276949124,2024-12-15T15:35:49.124Z,34822,-0.032494824,-1.0453056,-0.67219913
1734276949133,2024-12-15T15:35:49.133Z,34831,-0.009271001,-1.2105366,-0.709105
1734276949136,2024-12-15T15:35:49.136Z,34834,-0.009271001,-1.2105366,-0.709105
1734276949143,2024-12-15T15:35:49.143Z,34841,-0.012355432,-1.1628569,-0.71857214
1734276949147,2024-12-15T15:35:49.147Z,34845,-0.012355432,-1.1628569,-0.71857214
1734276949157,2024-12-15T15:35:49.157Z,34855,-0.030164368,-0.984063,-0.68656796
1734276949159,2024-12-15T15:35:49.159Z,34857,-0.030164368,-0.984063,-0.68656796
1734276949169,2024-12-15T15:35:49.169Z,34867,-0.08199752,-0.9396455,-0.7323112
1734276949172,2024-12-15T15:35:49.172Z,34870,-0.08199752,-0.9396455,-0.7323112
1734276949180,2024-12-15T15:35:49.180Z,34878,-0.13427193,-0.8839513,-0.76540166
1734276949185,2024-12-15T15:35:49.185Z,34883,-0.13427193,-0.8839513,-0.76540166
1734276949192,2024-12-15T15:35:49.192Z,34890,-0.15877572,-0.77238286,-0.7631628
1734276949194,2024-12-15T15:35:49.194Z,34892,-0.15877572,-0.77238286,-0.7631628
1734276949202,2024-12-15T15:35:49.202Z,34900,-0.16410907,-0.75266826,-0.80265427
1734276949204,2024-12-15T15:35:49.204Z,34902,-0.16410907,-0.75266826,-0.80265427
1734276949213,2024-12-15T15:35:49.213Z,34911,-0.1840904,-0.8470042,-0.8048197
1734276949216,2024-12-15T15:35:49.216Z,34914,-0.1840904,-0.8470042,-0.8048197
1734276949224,2024-12-15T15:35:49.224Z,34922,-0.19648504,-0.8866219,-0.78831184
1734276949227,2024-12-15T15:35:49.227Z,34925,-0.19648504,-0.8866219,-0.78831184
1734276949235,2024-12-15T15:35:49.235Z,34933,-0.18591502,-0.87541926,-0.82499707
1734276949238,2024-12-15T15:35:49.238Z,34936,-0.18591502,-0.87541926,-0.82499707
1734276949251,2024-12-15T15:35:49.251Z,34949,-0.1667535,-0.8746609,-0.84074134
1734276949254,2024-12-15T15:35:49.254Z,34952,-0.1667535,-0.8746609,-0.84074134
1734276949263,2024-12-15T15:35:49.263Z,34961,-0.21817537,-0.8481261,-0.83763796
1734276949266,2024-12-15T15:35:49.266Z,34964,-0.21817537,-0.8481261,-0.83763796
1734276949275,2024-12-15T15:35:49.275Z,34973,-0.28659788,-0.8027652,-0.81725717
1734276949278,2024-12-15T15:35:49.278Z,34976,-0.28659788,-0.8027652,-0.81725717
1734276949288,2024-12-15T15:35:49.288Z,34986,-0.30203962,-0.80491537,-0.81028515
1734276949290,2024-12-15T15:35:49.290Z,34988,-0.30203962,-0.80491537,-0.81028515
1734276949297,2024-12-15T15:35:49.297Z,34995,-0.30516428,-0.79216623,-0.82484055
1734276949300,2024-12-15T15:35:49.300Z,34998,-0.30516428,-0.79216623,-0.82484055
1734276949307,2024-12-15T15:35:49.307Z,35005,-0.29817703,-0.67335624,-0.7773882
1734276949309,2024-12-15T15:35:49.309Z,35007,-0.29817703,-0.67335624,-0.7773882
1734276949317,2024-12-15T15:35:49.317Z,35015,-0.29879352,-0.59838843,-0.7738569
1734276949319,2024-12-15T15:35:49.319Z,35017,-0.29879352,-0.59838843,-0.7738569
1734276949326,2024-12-15T15:35:49.326Z,35024,-0.29973388,-0.67393893,-0.79473174
1734276949330,2024-12-15T15:35:49.330Z,35028,-0.29973388,-0.67393893,-0.79473174
1734276949339,2024-12-15T15:35:49.339Z,35037,-0.31374016,-0.7768607,-0.7965305
1734276949342,2024-12-15T15:35:49.342Z,35040,-0.31374016,-0.7768607,-0.7965305
1734276949350,2024-12-15T15:35:49.350Z,35048,-0.33016017,-0.7485575,-0.7636754
1734276949352,2024-12-15T15:35:49.352Z,35050,-0.33016017,-0.7485575,-0.7636754
1734276949359,2024-12-15T15:35:49.359Z,35057,-0.3120178,-0.7024101,-0.74595445
1734276949361,2024-12-15T15:35:49.361Z,35059,-0.3120178,-0.7024101,-0.74595445
1734276949369,2024-12-15T15:35:49.369Z,35067,-0.28368312,-0.76263404,-0.7579901
1734276949372,2024-12-15T15:35:49.372Z,35070,-0.28368312,-0.76263404,-0.7579901
1734276949379,2024-12-15T15:35:49.379Z,35077,-0.28621584,-0.8535525,-0.77535874
1734276949381,2024-12-15T15:35:49.381Z,35079,-0.28621584,-0.8535525,-0.77535874
1734276949389,2024-12-15T15:35:49.389Z,35087,-0.3344681,-0.8472558,-0.72104204
1734276949392,2024-12-15T15:35:49.392Z,35090,-0.3344681,-0.8472558,-0.72104204
1734276949401,2024-12-15T15:35:49.401Z,35099,-0.34719917,-0.7877726,-0.70593417
1734276949404,2024-12-15T15:35:49.404Z,35102,-0.34719917,-0.7877726,-0.70593417
1734276949411,2024-12-15T15:35:49.411Z,35109,-0.33690405,-0.7719952,-0.73042446
1734276949414,2024-12-15T15:35:49.414Z,35112,-0.33690405,-0.7719952,-0.73042446
1734276949425,2024-12-15T15:35:49.425Z,35123,-0.33187518,-0.70305157,-0.7543469
1734276949427,2024-12-15T15:35:49.427Z,35125,-0.33187518,-0.70305157,-0.7543469
1734276949436,2024-12-15T15:35:49.436Z,35134,-0.3171306,-0.53300345,-0.7254771
1734276949439,2024-12-15T15:35:49.439Z,35137,-0.3171306,-0.53300345,-0.7254771
1734276949447,2024-12-15T15:35:49.447Z,35145,-0.30262238,-0.4814676,-0.7170013
1734276949451,2024-12-15T15:35:49.451Z,35149,-0.30262238,-0.4814676,-0.7170013
1734276949458,2024-12-15T15:35:49.458Z,35156,-0.2750343,-0.55331326,-0.78751665
1734276949460,2024-12-15T15:35:49.460Z,35158,-0.2750343,-0.55331326,-0.78751665
1734276949469,2024-12-15T15:35:49.469Z,35167,-0.30894506,-0.63797265,-0.85359055
1734276949471,2024-12-15T15:35:49.471Z,35169,-0.30894506,-0.63797265,-0.85359055
1734276949479,2024-12-15T15:35:49.479Z,35177,-0.325403,-0.6781568,-0.8256758
1734276949482,2024-12-15T15:35:49.482Z,35180,-0.325403,-0.6781568,-0.8256758
1734276949492,2024-12-15T15:35:49.492Z,35190,-0.30715573,-0.7060108,-0.80824965
1734276949495,2024-12-15T15:35:49.495Z,35193,-0.30715573,-0.7060108,-0.80824965
1734276949504,2024-12-15T15:35:49.504Z,35202,-0.28790995,-0.7423719,-0.84847325
1734276949506,2024-12-15T15:35:49.506Z,35204,-0.28790995,-0.7423719,-0.84847325
1734276949513,2024-12-15T15:35:49.513Z,35211,-0.2995481,-0.697594,-0.8599166
1734276949516,2024-12-15T15:35:49.516Z,35214,-0.2995481,-0.697594,-0.8599166
1734276949525,2024-12-15T15:35:49.525Z,35223,-0.34546658,-0.6601226,-0.81482697
1734276949528,2024-12-15T15:35:49.528Z,35226,-0.34546658,-0.6601226,-0.81482697
1734276949537,2024-12-15T15:35:49.537Z,35235,-0.32968697,-0.7507697,-0.81716126
1734276949540,2024-12-15T15:35:49.540Z,35238,-0.32968697,-0.7507697,-0.81716126
1734276949548,2024-12-15T15:35:49.548Z,35246,-0.28296822,-0.86028916,-0.8496747
1734276949550,2024-12-15T15:35:49.550Z,35248,-0.28296822,-0.86028916,-0.8496747
1734276949558,2024-12-15T15:35:49.558Z,35256,-0.3144363,-0.8813983,-0.85809135
1734276949560,2024-12-15T15:35:49.560Z,35258,-0.3144363,-0.8813983,-0.85809135
1734276949569,2024-12-15T15:35:49.569Z,35267,-0.33167797,-0.8092656,-0.8031059
1734276949572,2024-12-15T15:35:49.572Z,35270,-0.33167797,-0.8092656,-0.8031059
1734276949581,2024-12-15T15:35:49.581Z,35279,-0.2993606,-0.72910583,-0.7804272
1734276949584,2024-12-15T15:35:49.584Z,35282,-0.2993606,-0.72910583,-0.7804272
1734276949592,2024-12-15T15:35:49.592Z,35290,-0.30984885,-0.81545323,-0.81962067
1734276949594,2024-12-15T15:35:49.594Z,35292,-0.30984885,-0.81545323,-0.81962067
1734276949602,2024-12-15T15:35:49.602Z,35300,-0.32084006,-0.9479931,-0.843098
1734276949604,2024-12-15T15:35:49.604Z,35302,-0.32084006,-0.9479931,-0.843098
1734276949611,2024-12-15T15:35:49.611Z,35309,-0.3187096,-0.9192912,-0.78945434
1734276949613,2024-12-15T15:35:49.613Z,35311,-0.3187096,-0.9192912,-0.78945434
1734276949621,2024-12-15T15:35:49.621Z,35319,-0.3033643,-0.8143597,-0.7806751
1734276949624,2024-12-15T15:35:49.624Z,35322,-0.3033643,-0.8143597,-0.7806751
1734276949632,2024-12-15T15:35:49.632Z,35330,-0.2774466,-0.83502966,-0.7707201
1734276949635,2024-12-15T15:35:49.635Z,35333,-0.2774466,-0.83502966,-0.7707201
1734276949642,2024-12-15T15:35:49.642Z,35340,-0.2979705,-0.94515246,-0.8069756
1734276949645,2024-12-15T15:35:49.645Z,35343,-0.2979705,-0.94515246,-0.8069756
1734276949652,2024-12-15T15:35:49.652Z,35350,-0.34037912,-1.0293951,-0.76121086
1734276949654,2024-12-15T15:35:49.654Z,35352,-0.34037912,-1.0293951,-0.76121086
1734276949664,2024-12-15T15:35:49.664Z,35362,-0.34758464,-1.0986646,-0.7565955
1734276949667,2024-12-15T15:35:49.667Z,35365,-0.34758464,-1.0986646,-0.7565955
1734276949675,2024-12-15T15:35:49.675Z,35373,-0.31754136,-1.0928193,-0.7661742
1734276949677,2024-12-15T15:35:49.677Z,35375,-0.31754136,-1.0928193,-0.7661742
1734276949685,2024-12-15T15:35:49.685Z,35383,-0.2726328,-1.0000902,-0.75120544
1734276949688,2024-12-15T15:35:49.688Z,35386,-0.2726328,-1.0000902,-0.75120544
1734276949699,2024-12-15T15:35:49.699Z,35397,-0.31017092,-0.9130802,-0.7868223
1734276949706,2024-12-15T15:35:49.706Z,35404,-0.31017092,-0.9130802,-0.7868223
1734276949716,2024-12-15T15:35:49.716Z,35414,-0.38291702,-0.87477344,-0.72527385
1734276949718,2024-12-15T15:35:49.718Z,35416,-0.38291702,-0.87477344,-0.72527385
1734276949727,2024-12-15T15:35:49.727Z,35425,-0.39271522,-0.8997924,-0.6926539
1734276949729,2024-12-15T15:35:49.729Z,35427,-0.39271522,-0.8997924,-0.6926539
1734276949737,2024-12-15T15:35:49.737Z,35435,-0.33154026,-0.92943335,-0.7249731
1734276949739,2024-12-15T15:35:49.739Z,35437,-0.33154026,-0.92943335,-0.7249731
1734276949746,2024-12-15T15:35:49.746Z,35444,-0.26969653,-0.7944065,-0.7215821
1734276949748,2024-12-15T15:35:49.748Z,35446,-0.26969653,-0.7944065,-0.7215821
1734276949758,2024-12-15T15:35:49.758Z,35456,-0.3436656,-0.6086689,-0.7370259
1734276949760,2024-12-15T15:35:49.760Z,35458,-0.3436656,-0.6086689,-0.7370259
1734276949769,2024-12-15T15:35:49.769Z,35467,-0.41855878,-0.6803094,-0.74459636
1734276949772,2024-12-15T15:35:49.772Z,35470,-0.41855878,-0.6803094,-0.74459636
1734276949779,2024-12-15T15:35:49.779Z,35477,-0.39145282,-0.91528267,-0.7478931
1734276949782,2024-12-15T15:35:49.782Z,35480,-0.39145282,-0.91528267,-0.7478931
1734276949790,2024-12-15T15:35:49.790Z,35488,-0.35627273,-0.9711324,-0.7717534
1734276949793,2024-12-15T15:35:49.793Z,35491,-0.35627273,-0.9711324,-0.7717534
1734276949800,2024-12-15T15:35:49.800Z,35498,-0.31575346,-0.78717333,-0.72585547
1734276949803,2024-12-15T15:35:49.803Z,35501,-0.31575346,-0.78717333,-0.72585547
1734276949810,2024-12-15T15:35:49.810Z,35508,-0.30893636,-0.659982,-0.6832748
1734276949812,2024-12-15T15:35:49.812Z,35510,-0.30893636,-0.659982,-0.6832748
1734276949819,2024-12-15T15:35:49.819Z,35517,-0.33920705,-0.77302015,-0.7103146
1734276949822,2024-12-15T15:35:49.822Z,35520,-0.33920705,-0.77302015,-0.7103146
1734276949829,2024-12-15T15:35:49.829Z,35527,-0.4051482,-0.94936067,-0.72701573
1734276949833,2024-12-15T15:35:49.833Z,35531,-0.4051482,-0.94936067,-0.72701573
1734276949840,2024-12-15T15:35:49.840Z,35538,-0.40802068,-0.93412524,-0.6891931
1734276949842,2024-12-15T15:35:49.842Z,35540,-0.40802068,-0.93412524,-0.6891931
1734276949849,2024-12-15T15:35:49.849Z,35547,-0.37271968,-0.8095445,-0.64114046
1734276949852,2024-12-15T15:35:49.852Z,35550,-0.37271968,-0.8095445,-0.64114046
1734276949860,2024-12-15T15:35:49.860Z,35558,-0.34371004,-0.80420065,-0.60218734
1734276949863,2024-12-15T15:35:49.863Z,35561,-0.34371004,-0.80420065,-0.60218734
1734276949875,2024-12-15T15:35:49.875Z,35573,-0.37557212,-0.90215254,-0.6275263
1734276949878,2024-12-15T15:35:49.878Z,35576,-0.37557212,-0.90215254,-0.6275263
1734276949886,2024-12-15T15:35:49.886Z,35584,-0.3808066,-0.96899295,-0.5977139
1734276949889,2024-12-15T15:35:49.889Z,35587,-0.3808066,-0.96899295,-0.5977139
1734276949897,2024-12-15T15:35:49.897Z,35595,-0.31863317,-0.91992056,-0.58607334
1734276949899,2024-12-15T15:35:49.899Z,35597,-0.31863317,-0.91992056,-0.58607334
1734276949906,2024-12-15T15:35:49.906Z,35604,-0.29216766,-0.82419044,-0.5558018
1734276949908,2024-12-15T15:35:49.908Z,35606,-0.29216766,-0.82419044,-0.5558018
1734276949915,2024-12-15T15:35:49.915Z,35613,-0.29955608,-0.8373339,-0.56057376
1734276949918,2024-12-15T15:35:49.918Z,35616,-0.29955608,-0.8373339,-0.56057376
1734276949926,2024-12-15T15:35:49.926Z,35624,-0.31420872,-0.9589076,-0.57751375
1734276949929,2024-12-15T15:35:49.929Z,35627,-0.31420872,-0.9589076,-0.57751375
1734276949938,2024-12-15T15:35:49.938Z,35636,-0.34045938,-1.0514587,-0.545124
1734276949940,2024-12-15T15:35:49.940Z,35638,-0.34045938,-1.0514587,-0.545124
1734276949948,2024-12-15T15:35:49.948Z,35646,-0.33733252,-1.0671104,-0.46436313
1734276949950,2024-12-15T15:35:49.950Z,35648,-0.33733252,-1.0671104,-0.46436313
1734276949958,2024-12-15T15:35:49.958Z,35656,-0.29018882,-1.0956647,-0.4944185
1734276949960,2024-12-15T15:35:49.960Z,35658,-0.29018882,-1.0956647,-0.4944185
1734276949968,2024-12-15T15:35:49.968Z,35666,-0.2632204,-1.1461481,-0.5361075
1734276949970,2024-12-15T15:35:49.970Z,35668,-0.2632204,-1.1461481,-0.5361075
1734276949978,2024-12-15T15:35:49.978Z,35676,-0.26850864,-1.089497,-0.51571697
1734276949980,2024-12-15T15:35:49.980Z,35678,-0.26850864,-1.089497,-0.51571697
1734276949987,2024-12-15T15:35:49.987Z,35685,-0.31489488,-1.0021434,-0.45030063
1734276949990,2024-12-15T15:35:49.990Z,35688,-0.31489488,-1.0021434,-0.45030063
1734276949998,2024-12-15T15:35:49.998Z,35696,-0.3201667,-1.0843885,-0.51056266
1734276950000,2024-12-15T15:35:50Z,35698,-0.3201667,-1.0843885,-0.51056266
1734276950009,2024-12-15T15:35:50.009Z,35707,-0.32054076,-1.1638486,-0.5555533
1734276950011,2024-12-15T15:35:50.011Z,35709,-0.32054076,-1.1638486,-0.5555533
1734276950019,2024-12-15T15:35:50.019Z,35717,-0.29301596,-0.9860225,-0.45120084
1734276950021,2024-12-15T15:35:50.021Z,35719,-0.29301596,-0.9860225,-0.45120084
1734276950028,2024-12-15T15:35:50.028Z,35726,-0.23991366,-0.7833607,-0.42328224
1734276950030,2024-12-15T15:35:50.030Z,35728,-0.23991366,-0.7833607,-0.42328224
1734276950037,2024-12-15T15:35:50.037Z,35735,-0.27907535,-0.869917,-0.48606142
1734276950040,2024-12-15T15:35:50.040Z,35738,-0.27907535,-0.869917,-0.48606142
1734276950049,2024-12-15T15:35:50.049Z,35747,-0.35125348,-1.1122713,-0.4753885
1734276950053,2024-12-15T15:35:50.053Z,35751,-0.35125348,-1.1122713,-0.4753885
1734276950060,2024-12-15T15:35:50.060Z,35758,-0.37222156,-1.1968145,-0.48841766
1734276950062,2024-12-15T15:35:50.062Z,35760,-0.37222156,-1.1968145,-0.48841766
1734276950071,2024-12-15T15:35:50.071Z,35769,-0.3729972,-1.1453454,-0.5112215
1734276950073,2024-12-15T15:35:50.073Z,35771,-0.3729972,-1.1453454,-0.5112215
1734276950080,2024-12-15T15:35:50.080Z,35778,-0.37195972,-1.1360632,-0.49801344
1734276950084,2024-12-15T15:35:50.084Z,35782,-0.37195972,-1.1360632,-0.49801344
1734276950094,2024-12-15T15:35:50.094Z,35792,-0.3168709,-1.1432167,-0.44309828
1734276950097,2024-12-15T15:35:50.097Z,35795,-0.3168709,-1.1432167,-0.44309828
1734276950108,2024-12-15T15:35:50.108Z,35806,-0.23399433,-1.0894253,-0.42535567
1734276950111,2024-12-15T15:35:50.111Z,35809,-0.23399433,-1.0894253,-0.42535567
1734276950118,2024-12-15T15:35:50.118Z,35816,-0.24714853,-1.0348016,-0.5589826
1734276950121,2024-12-15T15:35:50.121Z,35819,-0.24714853,-1.0348016,-0.5589826
1734276950131,2024-12-15T15:35:50.131Z,35829,-0.31335497,-0.9987424,-0.59142995
1734276950134,2024-12-15T15:35:50.134Z,35832,-0.31335497,-0.9987424,-0.59142995
1734276950143,2024-12-15T15:35:50.143Z,35841,-0.29059768,-0.91904324,-0.53652924
1734276950146,2024-12-15T15:35:50.146Z,35844,-0.29059768,-0.91904324,-0.53652924
1734276950159,2024-12-15T15:35:50.159Z,35857,-0.22553062,-0.88688916,-0.55142605
1734276950163,2024-12-15T15:35:50.163Z,35861,-0.22553062,-0.88688916,-0.55142605
1734276950171,2024-12-15T15:35:50.171Z,35869,-0.18163535,-0.9750934,-0.5568394
1734276950173,2024-12-15T15:35:50.173Z,35871,-0.18163535,-0.9750934,-0.5568394
1734276950180,2024-12-15T15:35:50.180Z,35878,-0.16922405,-1.0649179,-0.5550004
1734276950183,2024-12-15T15:35:50.183Z,35881,-0.16922405,-1.0649179,-0.5550004
1734276950190,2024-12-15T15:35:50.190Z,35888,-0.17174831,-1.0373946,-0.5268307
1734276950192,2024-12-15T15:35:50.192Z,35890,-0.17174831,-1.0373946,-0.5268307
1734276950199,2024-12-15T15:35:50.199Z,35897,-0.15999202,-0.9983468,-0.508924
1734276950201,2024-12-15T15:35:50.201Z,35899,-0.15999202,-0.9983468,-0.508924
1734276950211,2024-12-15T15:35:50.211Z,35909,-0.19466761,-1.0593932,-0.5312129
1734276950213,2024-12-15T15:35:50.213Z,35911,-0.19466761,-1.0593932,-0.5312129
1734276950221,2024-12-15T15:35:50.221Z,35919,-0.2319745,-1.1132528,-0.5442144
1734276950224,2024-12-15T15:35:50.224Z,35922,-0.2319745,-1.1132528,-0.5442144
1734276950231,2024-12-15T15:35:50.231Z,35929,-0.2491786,-1.100026,-0.5187284
1734276950233,2024-12-15T15:35:50.233Z,35931,-0.2491786,-1.100026,-0.5187284
1734276950240,2024-12-15T15:35:50.240Z,35938,-0.17741665,-1.1056056,-0.43759358
1734276950243,2024-12-15T15:35:50.243Z,35941,-0.17741665,-1.1056056,-0.43759358
1734276950250,2024-12-15T15:35:50.250Z,35948,-0.12819384,-1.1427824,-0.39208296
1734276950252,2024-12-15T15:35:50.252Z,35950,-0.12819384,-1.1427824,-0.39208296
1734276950259,2024-12-15T15:35:50.259Z,35957,-0.1501762,-1.218713,-0.38656092
1734276950261,2024-12-15T15:35:50.261Z,35959,-0.1501762,-1.218713,-0.38656092
1734276950269,2024-12-15T15:35:50.269Z,35967,-0.17391028,-1.2752818,-0.36582854
1734276950272,2024-12-15T15:35:50.272Z,35970,-0.17391028,-1.2752818,-0.36582854
1734276950280,2024-12-15T15:35:50.280Z,35978,-0.13890149,-1.2266712,-0.31311718
1734276950283,2024-12-15T15:35:50.283Z,35981,-0.13890149,-1.2266712,-0.31311718
1734276950292,2024-12-15T15:35:50.292Z,35990,-0.0771109,-1.1800528,-0.28061286
1734276950294,2024-12-15T15:35:50.294Z,35992,-0.0771109,-1.1800528,-0.28061286
1734276950302,2024-12-15T15:35:50.302Z,36000,-0.099053584,-1.2469558,-0.32136223
1734276950305,2024-12-15T15:35:50.305Z,36003,-0.099053584,-1.2469558,-0.32136223
1734276950311,2024-12-15T15:35:50.311Z,36009,-0.15582876,-1.284577,-0.36492953
1734276950313,2024-12-15T15:35:50.313Z,36011,-0.15582876,-1.284577,-0.36492953
1734276950322,2024-12-15T15:35:50.322Z,36020,-0.18945342,-1.1583968,-0.39953738
1734276950324,2024-12-15T15:35:50.324Z,36022,-0.18945342,-1.1583968,-0.39953738
1734276950331,2024-12-15T15:35:50.331Z,36029,-0.15668112,-1.0116479,-0.39458114
1734276950334,2024-12-15T15:35:50.334Z,36032,-0.15668112,-1.0116479,-0.39458114
1734276950342,2024-12-15T15:35:50.342Z,36040,-0.12177058,-0.9888645,-0.38521522
1734276950344,2024-12-15T15:35:50.344Z,36042,-0.12177058,-0.9888645,-0.38521522
1734276950352,2024-12-15T15:35:50.352Z,36050,-0.10879836,-1.0963784,-0.3131095
1734276950354,2024-12-15T15:35:50.354Z,36052,-0.10879836,-1.0963784,-0.3131095
1734276950361,2024-12-15T15:35:50.361Z,36059,-0.07787842,-1.2168955,-0.27169612
1734276950363,2024-12-15T15:35:50.363Z,36061,-0.07787842,-1.2168955,-0.27169612
1734276950371,2024-12-15T15:35:50.371Z,36069,-0.08603114,-1.2627591,-0.2884624
1734276950373,2024-12-15T15:35:50.373Z,36071,-0.08603114,-1.2627591,-0.2884624
1734276950383,2024-12-15T15:35:50.383Z,36081,-0.12693022,-1.2624832,-0.30020502
1734276950386,2024-12-15T15:35:50.386Z,36084,-0.12693022,-1.2624832,-0.30020502
1734276950394,2024-12-15T15:35:50.394Z,36092,-0.11908323,-1.2387934,-0.21435015
1734276950397,2024-12-15T15:35:50.397Z,36095,-0.11908323,-1.2387934,-0.21435015
1734276950405,2024-12-15T15:35:50.405Z,36103,-0.1156721,-1.2022159,-0.24845596
1734276950408,2024-12-15T15:35:50.408Z,36106,-0.1156721,-1.2022159,-0.24845596
1734276950414,2024-12-15T15:35:50.414Z,36112,-0.092304856,-1.189094,-0.28067976
1734276950417,2024-12-15T15:35:50.417Z,36115,-0.092304856,-1.189094,-0.28067976
1734276950426,2024-12-15T15:35:50.426Z,36124,-0.07195825,-1.1645988,-0.33952537
1734276950428,2024-12-15T15:35:50.428Z,36126,-0.07195825,-1.1645988,-0.33952537
1734276950436,2024-12-15T15:35:50.436Z,36134,-0.090337,-1.1077094,-0.42692724
1734276950439,2024-12-15T15:35:50.439Z,36137,-0.090337,-1.1077094,-0.42692724
1734276950446,2024-12-15T15:35:50.446Z,36144,-0.042940505,-1.0309821,-0.34360477
1734276950450,2024-12-15T15:35:50.450Z,36148,-0.042940505,-1.0309821,-0.34360477
1734276950459,2024-12-15T15:35:50.459Z,36157,0.045899365,-0.97277045,-0.34655118
1734276950461,2024-12-15T15:35:50.461Z,36159,0.045899365,-0.97277045,-0.34655118
1734276950469,2024-12-15T15:35:50.469Z,36167,0.0662881,-1.0050066,-0.39236733
1734276950471,2024-12-15T15:35:50.471Z,36169,0.0662881,-1.0050066,-0.39236733
1734276950479,2024-12-15T15:35:50.479Z,36177,0.0018511346,-1.130432,-0.3613834
1734276950482,2024-12-15T15:35:50.482Z,36180,0.0018511346,-1.130432,-0.3613834
1734276950491,2024-12-15T15:35:50.491Z,36189,-0.020283418,-1.1689001,-0.32858777
1734276950493,2024-12-15T15:35:50.493Z,36191,-0.020283418,-1.1689001,-0.32858777
1734276950501,2024-12-15T15:35:50.501Z,36199,-0.009969447,-1.1666456,-0.29164574
1734276950503,2024-12-15T15:35:50.503Z,36201,-0.009969447,-1.1666456,-0.29164574
1734276950513,2024-12-15T15:35:50.513Z,36211,-0.0018849039,-1.1597623,-0.2952698
1734276950516,2024-12-15T15:35:50.516Z,36214,-0.0018849039,-1.1597623,-0.2952698
1734276950524,2024-12-15T15:35:50.524Z,36222,0.03668106,-1.1652147,-0.24135609
1734276950526,2024-12-15T15:35:50.526Z,36224,0.03668106,-1.1652147,-0.24135609
1734276950533,2024-12-15T15:35:50.533Z,36231,0.027042134,-1.1549221,-0.22180891
1734276950536,2024-12-15T15:35:50.536Z,36234,0.027042134,-1.1549221,-0.22180891
1734276950542,2024-12-15T15:35:50.542Z,36240,0.010058623,-1.178916,-0.23033355
1734276950545,2024-12-15T15:35:50.545Z,36243,0.010058623,-1.178916,-0.23033355
1734276950555,2024-12-15T15:35:50.555Z,36253,0.07244828,-1.2351722,-0.10503395
1734276950557,2024-12-15T15:35:50.557Z,36255,0.07244828,-1.2351722,-0.10503395
1734276950565,2024-12-15T15:35:50.565Z,36263,0.11545465,-1.227734,-0.05358286
1734276950568,2024-12-15T15:35:50.568Z,36266,0.11545465,-1.227734,-0.05358286
1734276950575,2024-12-15T15:35:50.575Z,36273,0.0923342,-1.2176226,-0.08218249
1734276950578,2024-12-15T15:35:50.578Z,36276,0.0923342,-1.2176226,-0.08218249
1734276950585,2024-12-15T15:35:50.585Z,36283,0.11218175,-1.2146285,-0.010766489
1734276950588,2024-12-15T15:35:50.588Z,36286,0.11218175,-1.2146285,-0.010766489
1734276950603,2024-12-15T15:35:50.603Z,36301,0.17252274,-1.1802728,-0.0044434424
1734276950609,2024-12-15T15:35:50.609Z,36307,0.17252274,-1.1802728,-0.0044434424
1734276950617,2024-12-15T15:35:50.617Z,36315,0.13594812,-1.1918494,-0.08224025
1734276950621,2024-12-15T15:35:50.621Z,36319,0.13594812,-1.1918494,-0.08224025
1734276950629,2024-12-15T15:35:50.629Z,36327,0.12614968,-1.1821675,-0.04445266
1734276950631,2024-12-15T15:35:50.631Z,36329,0.12614968,-1.1821675,-0.04445266
1734276950640,2024-12-15T15:35:50.640Z,36338,0.1805689,-1.137771,-0.07593218
1734276950642,2024-12-15T15:35:50.642Z,36340,0.1805689,-1.137771,-0.07593218
1734276950649,2024-12-15T15:35:50.649Z,36347,0.17411987,-1.1423537,-0.15160029
1734276950652,2024-12-15T15:35:50.652Z,36350,0.17411987,-1.1423537,-0.15160029
1734276950660,2024-12-15T15:35:50.660Z,36358,0.15405251,-1.1217828,-0.101973176
1734276950662,2024-12-15T15:35:50.662Z,36360,0.15405251,-1.1217828,-0.101973176
1734276950669,2024-12-15T15:35:50.669Z,36367,0.20745967,-1.1067216,-0.040919553
1734276950672,2024-12-15T15:35:50.672Z,36370,0.20745967,-1.1067216,-0.040919553
1734276950679,2024-12-15T15:35:50.679Z,36377,0.26629078,-1.1646299,-0.05342624
1734276950681,2024-12-15T15:35:50.681Z,36379,0.26629078,-1.1646299,-0.05342624
1734276950690,2024-12-15T15:35:50.690Z,36388,0.24320741,-1.2478473,-0.05899367
1734276950692,2024-12-15T15:35:50.692Z,36390,0.24320741,-1.2478473,-0.05899367
1734276950699,2024-12-15T15:35:50.699Z,36397,0.19195846,-1.2894089,-0.06860199
1734276950701,2024-12-15T15:35:50.701Z,36399,0.19195846,-1.2894089,-0.06860199
1734276950708,2024-12-15T15:35:50.708Z,36406,0.13761602,-1.3091799,-0.08762238
1734276950710,2024-12-15T15:35:50.710Z,36408,0.13761602,-1.3091799,-0.08762238
1734276950717,2024-12-15T15:35:50.717Z,36415,0.18057427,-1.3417162,-0.08921573
1734276950719,2024-12-15T15:35:50.719Z,36417,0.18057427,-1.3417162,-0.08921573
1734276950727,2024-12-15T15:35:50.727Z,36425,0.17343566,-1.3637983,-0.12958497
1734276950729,2024-12-15T15:35:50.729Z,36427,0.17343566,-1.3637983,-0.12958497
1734276950739,2024-12-15T15:35:50.739Z,36437,0.118582115,-1.2740791,-0.078336924
1734276950741,2024-12-15T15:35:50.741Z,36439,0.118582115,-1.2740791,-0.078336924
1734276950749,2024-12-15T15:35:50.749Z,36447,0.14069034,-1.1956118,-0.10368707
1734276950751,2024-12-15T15:35:50.751Z,36449,0.14069034,-1.1956118,-0.10368707
1734276950758,2024-12-15T15:35:50.758Z,36456,0.16247635,-1.2341101,-0.08350107
1734276950760,2024-12-15T15:35:50.760Z,36458,0.16247635,-1.2341101,-0.08350107
1734276950766,2024-12-15T15:35:50.766Z,36464,0.21267477,-1.2809132,-0.079112425
1734276950768,2024-12-15T15:35:50.768Z,36466,0.21267477,-1.2809132,-0.079112425
1734276950776,2024-12-15T15:35:50.776Z,36474,0.19938952,-1.2630718,-0.121208236
1734276950779,2024-12-15T15:35:50.779Z,36477,0.19938952,-1.2630718,-0.121208236
1734276950788,2024-12-15T15:35:50.788Z,36486,0.16523777,-1.2018361,-0.14862451
1734276950791,2024-12-15T15:35:50.791Z,36489,0.16523777,-1.2018361,-0.14862451
1734276950798,2024-12-15T15:35:50.798Z,36496,0.16175634,-1.1408874,-0.11704049
1734276950802,2024-12-15T15:35:50.802Z,36500,0.16175634,-1.1408874,-0.11704049
1734276950811,2024-12-15T15:35:50.811Z,36509,0.180639,-1.1206257,-0.082529664
1734276950813,2024-12-15T15:35:50.813Z,36511,0.180639,-1.1206257,-0.082529664
1734276950820,2024-12-15T15:35:50.820Z,36518,0.14546624,-1.1516919,-0.10333124
1734276950822,2024-12-15T15:35:50.822Z,36520,0.14546624,-1.1516919,-0.10333124
1734276950829,2024-12-15T15:35:50.829Z,36527,0.12135095,-1.1937805,-0.08999887
1734276950831,2024-12-15T15:35:50.831Z,36529,0.12135095,-1.1937805,-0.08999887
1734276950838,2024-12-15T15:35:50.838Z,36536,0.15545161,-1.2006301,-0.056546483
1734276950840,2024-12-15T15:35:50.840Z,36538,0.15545161,-1.2006301,-0.056546483
1734276950848,2024-12-15T15:35:50.848Z,36546,0.20556945,-1.1930456,-0.06030579
1734276950851,2024-12-15T15:35:50.851Z,36549,0.20556945,-1.1930456,-0.06030579
1734276950859,2024-12-15T15:35:50.859Z,36557,0.20032975,-1.2018204,-0.096498035
1734276950861,2024-12-15T15:35:50.861Z,36559,0.20032975,-1.2018204,-0.096498035
1734276950868,2024-12-15T15:35:50.868Z,36566,0.16351826,-1.2096342,-0.12732512
1734276950870,2024-12-15T15:35:50.870Z,36568,0.16351826,-1.2096342,-0.12732512
1734276950880,2024-12-15T15:35:50.880Z,36578,0.13429554,-1.2236959,-0.16933069
1734276950883,2024-12-15T15:35:50.883Z,36581,0.13429554,-1.2236959,-0.16933069
1734276950890,2024-12-15T15:35:50.890Z,36588,0.0934718,-1.2516459,-0.17324695
1734276950893,2024-12-15T15:35:50.893Z,36591,0.0934718,-1.2516459,-0.17324695
1734276950900,2024-12-15T15:35:50.900Z,36598,0.03518979,-1.2530373,-0.16831844
1734276950902,2024-12-15T15:35:50.902Z,36600,0.03518979,-1.2530373,-0.16831844
1734276950909,2024-12-15T15:35:50.909Z,36607,0.059747756,-1.2391101,-0.19366221
1734276950912,2024-12-15T15:35:50.912Z,36610,0.059747756,-1.2391101,-0.19366221
1734276950919,2024-12-15T15:35:50.919Z,36617,0.08481105,-1.2443502,-0.2043508
1734276950921,2024-12-15T15:35:50.921Z,36619,0.08481105,-1.2443502,-0.2043508
1734276950930,2024-12-15T15:35:50.930Z,36628,0.077945404,-1.2691058,-0.1990754
1734276950932,2024-12-15T15:35:50.932Z,36630,0.077945404,-1.2691058,-0.1990754
1734276950941,2024-12-15T15:35:50.941Z,36639,0.091373004,-1.2769028,-0.20914872
1734276950944,2024-12-15T15:35:50.944Z,36642,0.091373004,-1.2769028,-0.20914872
1734276950951,2024-12-15T15:35:50.951Z,36649,0.04450381,-1.2460262,-0.21049511
1734276950953,2024-12-15T15:35:50.953Z,36651,0.04450381,-1.2460262,-0.21049511
1734276950960,2024-12-15T15:35:50.960Z,36658,-0.00595438,-1.211203,-0.21384919
1734276950963,2024-12-15T15:35:50.963Z,36661,-0.00595438,-1.211203,-0.21384919
1734276950970,2024-12-15T15:35:50.970Z,36668,0.03133737,-1.2072405,-0.23046084
1734276950973,2024-12-15T15:35:50.973Z,36671,0.03133737,-1.2072405,-0.23046084
1734276950981,2024-12-15T15:35:50.981Z,36679,0.022672454,-1.2369527,-0.25144768
1734276950986,2024-12-15T15:35:50.986Z,36684,0.022672454,-1.2369527,-0.25144768
1734276950995,2024-12-15T15:35:50.995Z,36693,-0.027322354,-1.2539392,-0.24946772
1734276950997,2024-12-15T15:35:50.997Z,36695,-0.027322354,-1.2539392,-0.24946772
1734276951006,2024-12-15T15:35:51.006Z,36704,-0.058244478,-1.2135803,-0.29578966
1734276951009,2024-12-15T15:35:51.009Z,36707,-0.058244478,-1.2135803,-0.29578966
1734276951017,2024-12-15T15:35:51.017Z,36715,-0.068454005,-1.1918247,-0.3147342
1734276951023,2024-12-15T15:35:51.023Z,36721,-0.068454005,-1.1918247,-0.3147342
1734276951032,2024-12-15T15:35:51.032Z,36730,-0.019270996,-1.198868,-0.3008273
1734276951034,2024-12-15T15:35:51.034Z,36732,-0.019270996,-1.198868,-0.3008273
1734276951043,2024-12-15T15:35:51.043Z,36741,-0.014777933,-1.1805452,-0.30073208
1734276951047,2024-12-15T15:35:51.047Z,36745,-0.014777933,-1.1805452,-0.30073208
1734276951054,2024-12-15T15:35:51.054Z,36752,-0.120186776,-1.1569177,-0.27885845
1734276951058,2024-12-15T15:35:51.058Z,36756,-0.120186776,-1.1569177,-0.27885845
1734276951065,2024-12-15T15:35:51.065Z,36763,-0.16842581,-1.1517396,-0.25354338
1734276951067,2024-12-15T15:35:51.067Z,36765,-0.16842581,-1.1517396,-0.25354338
1734276951076,2024-12-15T15:35:51.076Z,36774,-0.13649592,-1.1626285,-0.2991944
1734276951078,2024-12-15T15:35:51.078Z,36776,-0.13649592,-1.1626285,-0.2991944
1734276951087,2024-12-15T15:35:51.087Z,36785,-0.11731372,-1.1606132,-0.34596846
1734276951089,2024-12-15T15:35:51.089Z,36787,-0.11731372,-1.1606132,-0.34596846
1734276951097,2024-12-15T15:35:51.097Z,36795,-0.11828321,-1.1192163,-0.27600098
1734276951099,2024-12-15T15:35:51.099Z,36797,-0.11828321,-1.1192163,-0.27600098
1734276951107,2024-12-15T15:35:51.107Z,36805,-0.09895142,-1.0619205,-0.25742334
1734276951110,2024-12-15T15:35:51.110Z,36808,-0.09895142,-1.0619205,-0.25742334
1734276951117,2024-12-15T15:35:51.117Z,36815,-0.08135598,-1.0613915,-0.27560595
1734276951119,2024-12-15T15:35:51.119Z,36817,-0.08135598,-1.0613915,-0.27560595
1734276951127,2024-12-15T15:35:51.127Z,36825,-0.1488954,-1.1132091,-0.32943067
1734276951129,2024-12-15T15:35:51.129Z,36827,-0.1488954,-1.1132091,-0.32943067
1734276951139,2024-12-15T15:35:51.139Z,36837,-0.20461717,-1.1600759,-0.29973364
1734276951141,2024-12-15T15:35:51.141Z,36839,-0.20461717,-1.1600759,-0.29973364
1734276951148,2024-12-15T15:35:51.148Z,36846,-0.17727903,-1.1504,-0.27628502
1734276951150,2024-12-15T15:35:51.150Z,36848,-0.17727903,-1.1504,-0.27628502
1734276951158,2024-12-15T15:35:51.158Z,36856,-0.188507,-1.126638,-0.31392607
1734276951160,2024-12-15T15:35:51.160Z,36858,-0.188507,-1.126638,-0.31392607
1734276951168,2024-12-15T15:35:51.168Z,36866,-0.22925721,-1.1376053,-0.30094746
1734276951171,2024-12-15T15:35:51.171Z,36869,-0.22925721,-1.1376053,-0.30094746
1734276951177,2024-12-15T15:35:51.177Z,36875,-0.24318491,-1.1212815,-0.2872256
1734276951179,2024-12-15T15:35:51.179Z,36877,-0.24318491,-1.1212815,-0.2872256
1734276951186,2024-12-15T15:35:51.186Z,36884,-0.23192972,-1.0777047,-0.30002856
1734276951188,2024-12-15T15:35:51.188Z,36886,-0.23192972,-1.0777047,-0.30002856
1734276951195,2024-12-15T15:35:51.195Z,36893,-0.22083755,-1.0704377,-0.32208332
1734276951197,2024-12-15T15:35:51.197Z,36895,-0.22083755,-1.0704377,-0.32208332
1734276951205,2024-12-15T15:35:51.205Z,36903,-0.2762917,-1.1163795,-0.37183675
1734276951207,2024-12-15T15:35:51.207Z,36905,-0.2762917,-1.1163795,-0.37183675
1734276951213,2024-12-15T15:35:51.213Z,36911,-0.32112256,-1.1520872,-0.37653577
1734276951215,2024-12-15T15:35:51.215Z,36913,-0.32112256,-1.1520872,-0.37653577
1734276951227,2024-12-15T15:35:51.227Z,36925,-0.28742558,-1.124677,-0.35270974
1734276951229,2024-12-15T15:35:51.229Z,36927,-0.28742558,-1.124677,-0.35270974
1734276951237,2024-12-15T15:35:51.237Z,36935,-0.21072349,-1.0900822,-0.3649178
1734276951240,2024-12-15T15:35:51.240Z,36938,-0.21072349,-1.0900822,-0.3649178
1734276951247,2024-12-15T15:35:51.247Z,36945,-0.19154002,-1.0772148,-0.40241912
1734276951250,2024-12-15T15:35:51.250Z,36948,-0.19154002,-1.0772148,-0.40241912
1734276951257,2024-12-15T15:35:51.257Z,36955,-0.25772154,-1.0722077,-0.4085076
1734276951259,2024-12-15T15:35:51.259Z,36957,-0.25772154,-1.0722077,-0.4085076
1734276951266,2024-12-15T15:35:51.266Z,36964,-0.26448557,-1.0553378,-0.36574364
1734276951268,2024-12-15T15:35:51.268Z,36966,-0.26448557,-1.0553378,-0.36574364
1734276951276,2024-12-15T15:35:51.276Z,36974,-0.2048718,-1.0346084,-0.33364636
1734276951278,2024-12-15T15:35:51.278Z,36976,-0.2048718,-1.0346084,-0.33364636
1734276951286,2024-12-15T15:35:51.286Z,36984,-0.18110009,-1.0357763,-0.38542897
1734276951288,2024-12-15T15:35:51.288Z,36986,-0.18110009,-1.0357763,-0.38542897
1734276951295,2024-12-15T15:35:51.295Z,36993,-0.1911956,-1.0367544,-0.41034374
1734276951297,2024-12-15T15:35:51.297Z,36995,-0.1911956,-1.0367544,-0.41034374
1734276951304,2024-12-15T15:35:51.304Z,37002,-0.23400022,-1.0098104,-0.40876532
1734276951307,2024-12-15T15:35:51.307Z,37005,-0.23400022,-1.0098104,-0.40876532
1734276951315,2024-12-15T15:35:51.315Z,37013,-0.25430554,-1.0294605,-0.41095522
1734276951317,2024-12-15T15:35:51.317Z,37015,-0.25430554,-1.0294605,-0.41095522
1734276951327,2024-12-15T15:35:51.327Z,37025,-0.23121709,-1.0928832,-0.4237815
1734276951329,2024-12-15T15:35:51.329Z,37027,-0.23121709,-1.0928832,-0.4237815
1734276951336,2024-12-15T15:35:51.336Z,37034,-0.20776492,-1.1207621,-0.42827874
1734276951338,2024-12-15T15:35:51.338Z,37036,-0.20776492,-1.1207621,-0.42827874
1734276951346,2024-12-15T15:35:51.346Z,37044,-0.18501313,-1.0686456,-0.37907836
1734276951348,2024-12-15T15:35:51.348Z,37046,-0.18501313,-1.0686456,-0.37907836
1734276951357,2024-12-15T15:35:51.357Z,37055,-0.15443002,-1.0073657,-0.3748821
1734276951359,2024-12-15T15:35:51.359Z,37057,-0.15443002,-1.0073657,-0.3748821
1734276951366,2024-12-15T15:35:51.366Z,37064,-0.23545876,-1.0610216,-0.45374078
1734276951368,2024-12-15T15:35:51.368Z,37066,-0.23545876,-1.0610216,-0.45374078
1734276951376,2024-12-15T15:35:51.376Z,37074,-0.31680816,-1.1639372,-0.47595322
1734276951378,2024-12-15T15:35:51.378Z,37076,-0.31680816,-1.1639372,-0.47595322
1734276951385,2024-12-15T15:35:51.385Z,37083,-0.25197676,-1.1433619,-0.46097738
1734276951388,2024-12-15T15:35:51.388Z,37086,-0.25197676,-1.1433619,-0.46097738
1734276951396,2024-12-15T15:35:51.396Z,37094,-0.20388596,-1.0327382,-0.45499736
1734276951398,2024-12-15T15:35:51.398Z,37096,-0.20388596,-1.0327382,-0.45499736
1734276951405,2024-12-15T15:35:51.405Z,37103,-0.23855399,-0.98380584,-0.46748635
1734276951408,2024-12-15T15:35:51.408Z,37106,-0.23855399,-0.98380584,-0.46748635
1734276951417,2024-12-15T15:35:51.417Z,37115,-0.30037048,-1.0258173,-0.48587725
1734276951419,2024-12-15T15:35:51.419Z,37117,-0.30037048,-1.0258173,-0.48587725
1734276951429,2024-12-15T15:35:51.429Z,37127,-0.33020675,-1.1099031,-0.49992418
1734276951432,2024-12-15T15:35:51.432Z,37130,-0.33020675,-1.1099031,-0.49992418
1734276951441,2024-12-15T15:35:51.441Z,37139,-0.2811997,-1.129756,-0.51350623
1734276951446,2024-12-15T15:35:51.446Z,37144,-0.2811997,-1.129756,-0.51350623
1734276951458,2024-12-15T15:35:51.458Z,37156,-0.24792984,-1.0503423,-0.500729
1734276951461,2024-12-15T15:35:51.461Z,37159,-0.24792984,-1.0503423,-0.500729
1734276951469,2024-12-15T15:35:51.469Z,37167,-0.26575074,-0.9580433,-0.47957432
1734276951472,2024-12-15T15:35:51.472Z,37170,-0.26575074,-0.9580433,-0.47957432
1734276951478,2024-12-15T15:35:51.478Z,37176,-0.29382664,-0.9834213,-0.52427894
1734276951480,2024-12-15T15:35:51.480Z,37178,-0.29382664,-0.9834213,-0.52427894
1734276951487,2024-12-15T15:35:51.487Z,37185,-0.3591971,-1.0845698,-0.5956168
1734276951489,2024-12-15T15:35:51.489Z,37187,-0.3591971,-1.0845698,-0.5956168
1734276951496,2024-12-15T15:35:51.496Z,37194,-0.41592595,-1.1137574,-0.5740898
1734276951498,2024-12-15T15:35:51.498Z,37196,-0.41592595,-1.1137574,-0.5740898
1734276951505,2024-12-15T15:35:51.505Z,37203,-0.40717176,-1.0102654,-0.44471282
1734276951507,2024-12-15T15:35:51.507Z,37205,-0.40717176,-1.0102654,-0.44471282
1734276951513,2024-12-15T15:35:51.513Z,37211,-0.34912857,-0.95886254,-0.4496706
1734276951515,2024-12-15T15:35:51.515Z,37213,-0.34912857,-0.95886254,-0.4496706
1734276951522,2024-12-15T15:35:51.522Z,37220,-0.39304313,-1.0575771,-0.5830267
1734276951524,2024-12-15T15:35:51.524Z,37222,-0.39304313,-1.0575771,-0.5830267
1734276951531,2024-12-15T15:35:51.531Z,37229,-0.45721158,-1.1403365,-0.5863649
1734276951533,2024-12-15T15:35:51.533Z,37231,-0.45721158,-1.1403365,-0.5863649
1734276951541,2024-12-15T15:35:51.541Z,37239,-0.46579632,-1.0769129,-0.5694631
1734276951543,2024-12-15T15:35:51.543Z,37241,-0.46579632,-1.0769129,-0.5694631
1734276951549,2024-12-15T15:35:51.549Z,37247,-0.51063114,-0.9957824,-0.58837336
1734276951552,2024-12-15T15:35:51.552Z,37250,-0.51063114,-0.9957824,-0.58837336
1734276951561,2024-12-15T15:35:51.561Z,37259,-0.52203614,-1.0071701,-0.5422547
1734276951563,2024-12-15T15:35:51.563Z,37261,-0.52203614,-1.0071701,-0.5422547
1734276951570,2024-12-15T15:35:51.570Z,37268,-0.4605858,-1.0181501,-0.47624585
1734276951572,2024-12-15T15:35:51.572Z,37270,-0.4605858,-1.0181501,-0.47624585
1734276951580,2024-12-15T15:35:51.580Z,37278,-0.40579963,-0.96140766,-0.5143859
1734276951583,2024-12-15T15:35:51.583Z,37281,-0.40579963,-0.96140766,-0.5143859
1734276951591,2024-12-15T15:35:51.591Z,37289,-0.41563708,-0.9078002,-0.5857855
1734276951593,2024-12-15T15:35:51.593Z,37291,-0.41563708,-0.9078002,-0.5857855
1734276951600,2024-12-15T15:35:51.600Z,37298,-0.45787492,-0.88157594,-0.6161049
1734276951602,2024-12-15T15:35:51.602Z,37300,-0.45787492,-0.88157594,-0.6161049
1734276951609,2024-12-15T15:35:51.609Z,37307,-0.43851265,-0.88188446,-0.62482464
1734276951611,2024-12-15T15:35:51.611Z,37309,-0.43851265,-0.88188446,-0.62482464
1734276951618,2024-12-15T15:35:51.618Z,37316,-0.37158078,-0.88178897,-0.60453874
1734276951620,2024-12-15T15:35:51.620Z,37318,-0.37158078,-0.88178897,-0.60453874
1734276951629,2024-12-15T15:35:51.629Z,37327,-0.37975985,-0.87795764,-0.651897
1734276951632,2024-12-15T15:35:51.632Z,37330,-0.37975985,-0.87795764,-0.651897
1734276951641,2024-12-15T15:35:51.641Z,37339,-0.3958618,-0.88018733,-0.66210747
1734276951643,2024-12-15T15:35:51.643Z,37341,-0.3958618,-0.88018733,-0.66210747
1734276951650,2024-12-15T15:35:51.650Z,37348,-0.3073381,-0.8005908,-0.59873927
1734276951652,2024-12-15T15:35:51.652Z,37350,-0.3073381,-0.8005908,-0.59873927
1734276951659,2024-12-15T15:35:51.659Z,37357,-0.24647596,-0.7019341,-0.62281996
1734276951662,2024-12-15T15:35:51.662Z,37360,-0.24647596,-0.7019341,-0.62281996
1734276951672,2024-12-15T15:35:51.672Z,37370,-0.27411038,-0.72237283,-0.6971588
1734276951675,2024-12-15T15:35:51.675Z,37373,-0.27411038,-0.72237283,-0.6971588
1734276951681,2024-12-15T15:35:51.681Z,37379,-0.26587728,-0.80499804,-0.71735334
1734276951684,2024-12-15T15:35:51.684Z,37382,-0.26587728,-0.80499804,-0.71735334
1734276951691,2024-12-15T15:35:51.691Z,37389,-0.24822095,-0.8176939,-0.64861757
1734276951693,2024-12-15T15:35:51.693Z,37391,-0.24822095,-0.8176939,-0.64861757
1734276951699,2024-12-15T15:35:51.699Z,37397,-0.29924515,-0.7749442,-0.6348643
1734276951701,2024-12-15T15:35:51.701Z,37399,-0.29924515,-0.7749442,-0.6348643
1734276951709,2024-12-15T15:35:51.709Z,37407,-0.29077417,-0.7728055,-0.65878236
1734276951711,2024-12-15T15:35:51.711Z,37409,-0.29077417,-0.7728055,-0.65878236
1734276951717,2024-12-15T15:35:51.717Z,37415,-0.27192742,-0.7793148,-0.6339982
1734276951719,2024-12-15T15:35:51.719Z,37417,-0.27192742,-0.7793148,-0.6339982
1734276951727,2024-12-15T15:35:51.727Z,37425,-0.28164554,-0.74095243,-0.61280555
1734276951729,2024-12-15T15:35:51.729Z,37427,-0.28164554,-0.74095243,-0.61280555
1734276951736,2024-12-15T15:35:51.736Z,37434,-0.36195606,-0.71802115,-0.6513362
1734276951738,2024-12-15T15:35:51.738Z,37436,-0.36195606,-0.71802115,-0.6513362
1734276951745,2024-12-15T15:35:51.745Z,37443,-0.46165025,-0.7802631,-0.6470266
1734276951747,2024-12-15T15:35:51.747Z,37445,-0.46165025,-0.7802631,-0.6470266
1734276951755,2024-12-15T15:35:51.755Z,37453,-0.3932316,-0.8427026,-0.5870792
1734276951757,2024-12-15T15:35:51.757Z,37455,-0.3932316,-0.8427026,-0.5870792
1734276951764,2024-12-15T15:35:51.764Z,37462,-0.3479599,-0.84883076,-0.6728551
1734276951767,2024-12-15T15:35:51.767Z,37465,-0.3479599,-0.84883076,-0.6728551
1734276951774,2024-12-15T15:35:51.774Z,37472,-0.43549648,-0.8417097,-0.68113357
1734276951777,2024-12-15T15:35:51.777Z,37475,-0.43549648,-0.8417097,-0.68113357
1734276951786,2024-12-15T15:35:51.786Z,37484,-0.52925193,-0.8093234,-0.67821246
1734276951788,2024-12-15T15:35:51.788Z,37486,-0.52925193,-0.8093234,-0.67821246
1734276951796,2024-12-15T15:35:51.796Z,37494,-0.55697733,-0.77950627,-0.653459
1734276951798,2024-12-15T15:35:51.798Z,37496,-0.55697733,-0.77950627,-0.653459
1734276951805,2024-12-15T15:35:51.805Z,37503,-0.48920092,-0.8228843,-0.6215504
1734276951807,2024-12-15T15:35:51.807Z,37505,-0.48920092,-0.8228843,-0.6215504
1734276951814,2024-12-15T15:35:51.814Z,37512,-0.38875863,-0.86755735,-0.672759
1734276951816,2024-12-15T15:35:51.816Z,37514,-0.38875863,-0.86755735,-0.672759
1734276951823,2024-12-15T15:35:51.823Z,37521,-0.37631583,-0.8317702,-0.7371523
1734276951825,2024-12-15T15:35:51.825Z,37523,-0.37631583,-0.8317702,-0.7371523
1734276951831,2024-12-15T15:35:51.831Z,37529,-0.37907198,-0.73396164,-0.7302919
1734276951833,2024-12-15T15:35:51.833Z,37531,-0.37907198,-0.73396164,-0.7302919
1734276951840,2024-12-15T15:35:51.840Z,37538,-0.35367045,-0.68728167,-0.73808694
1734276951842,2024-12-15T15:35:51.842Z,37540,-0.35367045,-0.68728167,-0.73808694
1734276951849,2024-12-15T15:35:51.849Z,37547,-0.28007764,-0.7391344,-0.7565815
1734276951851,2024-12-15T15:35:51.851Z,37549,-0.28007764,-0.7391344,-0.7565815
1734276951861,2024-12-15T15:35:51.861Z,37559,-0.27432224,-0.7875224,-0.74909323
1734276951864,2024-12-15T15:35:51.864Z,37562,-0.27432224,-0.7875224,-0.74909323
1734276951876,2024-12-15T15:35:51.876Z,37574,-0.3359924,-0.7824007,-0.7152368
1734276951878,2024-12-15T15:35:51.878Z,37576,-0.3359924,-0.7824007,-0.7152368
1734276951886,2024-12-15T15:35:51.886Z,37584,-0.31185842,-0.78451455,-0.7142672
1734276951890,2024-12-15T15:35:51.890Z,37588,-0.31185842,-0.78451455,-0.7142672
1734276951897,2024-12-15T15:35:51.897Z,37595,-0.18789251,-0.7738225,-0.6890209
1734276951899,2024-12-15T15:35:51.899Z,37597,-0.18789251,-0.7738225,-0.6890209
1734276951907,2024-12-15T15:35:51.907Z,37605,-0.12538968,-0.66380346,-0.7061725
1734276951909,2024-12-15T15:35:51.909Z,37607,-0.12538968,-0.66380346,-0.7061725
1734276951916,2024-12-15T15:35:51.916Z,37614,-0.2560522,-0.6009751,-0.75283384
1734276951918,2024-12-15T15:35:51.918Z,37616,-0.2560522,-0.6009751,-0.75283384
1734276951926,2024-12-15T15:35:51.926Z,37624,-0.3740676,-0.6993646,-0.7398673
1734276951928,2024-12-15T15:35:51.928Z,37626,-0.3740676,-0.6993646,-0.7398673
1734276951935,2024-12-15T15:35:51.935Z,37633,-0.38189918,-0.79684263,-0.65272367
1734276951938,2024-12-15T15:35:51.938Z,37636,-0.38189918,-0.79684263,-0.65272367
1734276951946,2024-12-15T15:35:51.946Z,37644,-0.37552345,-0.85174245,-0.62163574
1734276951948,2024-12-15T15:35:51.948Z,37646,-0.37552345,-0.85174245,-0.62163574
1734276951957,2024-12-15T15:35:51.957Z,37655,-0.33574715,-0.94547284,-0.67306614
1734276951960,2024-12-15T15:35:51.960Z,37658,-0.33574715,-0.94547284,-0.67306614
1734276951968,2024-12-15T15:35:51.968Z,37666,-0.33778757,-0.9819054,-0.70313036
1734276951971,2024-12-15T15:35:51.971Z,37669,-0.33778757,-0.9819054,-0.70313036
1734276951978,2024-12-15T15:35:51.978Z,37676,-0.38797224,-0.86360484,-0.6186349
1734276951980,2024-12-15T15:35:51.980Z,37678,-0.38797224,-0.86360484,-0.6186349
1734276951987,2024-12-15T15:35:51.987Z,37685,-0.44148493,-0.74398565,-0.57861954
1734276951990,2024-12-15T15:35:51.990Z,37688,-0.44148493,-0.74398565,-0.57861954
1734276951997,2024-12-15T15:35:51.997Z,37695,-0.43750283,-0.8880955,-0.62924814
1734276952000,2024-12-15T15:35:52Z,37698,-0.43750283,-0.8880955,-0.62924814
1734276952009,2024-12-15T15:35:52.009Z,37707,-0.36871845,-1.0792992,-0.6714081
1734276952012,2024-12-15T15:35:52.012Z,37710,-0.36871845,-1.0792992,-0.6714081
1734276952018,2024-12-15T15:35:52.018Z,37716,-0.31757843,-1.0316834,-0.68617153
1734276952020,2024-12-15T15:35:52.020Z,37718,-0.31757843,-1.0316834,-0.68617153
1734276952027,2024-12-15T15:35:52.027Z,37725,-0.3871024,-0.86761767,-0.6296166
1734276952029,2024-12-15T15:35:52.029Z,37727,-0.3871024,-0.86761767,-0.6296166
1734276952035,2024-12-15T15:35:52.035Z,37733,-0.43565232,-0.85353434,-0.6087683
1734276952038,2024-12-15T15:35:52.038Z,37736,-0.43565232,-0.85353434,-0.6087683
1734276952044,2024-12-15T15:35:52.044Z,37742,-0.3249697,-0.92066777,-0.62614757
1734276952047,2024-12-15T15:35:52.047Z,37745,-0.3249697,-0.92066777,-0.62614757
1734276952054,2024-12-15T15:35:52.054Z,37752,-0.20294793,-0.90264374,-0.65567815
1734276952057,2024-12-15T15:35:52.057Z,37755,-0.20294793,-0.90264374,-0.65567815
1734276952064,2024-12-15T15:35:52.064Z,37762,-0.1543651,-0.81675476,-0.6909711
1734276952066,2024-12-15T15:35:52.066Z,37764,-0.1543651,-0.81675476,-0.6909711
1734276952073,2024-12-15T15:35:52.073Z,37771,-0.1771917,-0.7498781,-0.7198919
1734276952076,2024-12-15T15:35:52.076Z,37774,-0.1771917,-0.7498781,-0.7198919
1734276952082,2024-12-15T15:35:52.082Z,37780,-0.21355362,-0.70974207,-0.70497346
1734276952084,2024-12-15T15:35:52.084Z,37782,-0.21355362,-0.70974207,-0.70497346
1734276952093,2024-12-15T15:35:52.093Z,37791,-0.24043962,-0.73726344,-0.7414324
1734276952095,2024-12-15T15:35:52.095Z,37793,-0.24043962,-0.73726344,-0.7414324
1734276952103,2024-12-15T15:35:52.103Z,37801,-0.28508994,-0.8326957,-0.77116346
1734276952105,2024-12-15T15:35:52.105Z,37803,-0.28508994,-0.8326957,-0.77116346
1734276952113,2024-12-15T15:35:52.113Z,37811,-0.26670983,-0.8557371,-0.72637737
1734276952115,2024-12-15T15:35:52.115Z,37813,-0.26670983,-0.8557371,-0.72637737
1734276952124,2024-12-15T15:35:52.124Z,37822,-0.17090937,-0.77953875,-0.72461385
1734276952126,2024-12-15T15:35:52.126Z,37824,-0.17090937,-0.77953875,-0.72461385
1734276952133,2024-12-15T15:35:52.133Z,37831,-0.10184727,-0.69756883,-0.7174074
1734276952135,2024-12-15T15:35:52.135Z,37833,-0.10184727,-0.69756883,-0.7174074
1734276952142,2024-12-15T15:35:52.142Z,37840,-0.07778307,-0.6816159,-0.70811915
1734276952145,2024-12-15T15:35:52.145Z,37843,-0.07778307,-0.6816159,-0.70811915
1734276952151,2024-12-15T15:35:52.151Z,37849,-0.11424646,-0.757209,-0.77397275
1734276952154,2024-12-15T15:35:52.154Z,37852,-0.11424646,-0.757209,-0.77397275
1734276952161,2024-12-15T15:35:52.161Z,37859,-0.14278314,-0.8262227,-0.7885918
1734276952164,2024-12-15T15:35:52.164Z,37862,-0.14278314,-0.8262227,-0.7885918
1734276952170,2024-12-15T15:35:52.170Z,37868,-0.11625719,-0.77548885,-0.76274735
1734276952173,2024-12-15T15:35:52.173Z,37871,-0.11625719,-0.77548885,-0.76274735
1734276952179,2024-12-15T15:35:52.179Z,37877,-0.105359465,-0.74598855,-0.7910275
1734276952182,2024-12-15T15:35:52.182Z,37880,-0.105359465,-0.74598855,-0.7910275
1734276952190,2024-12-15T15:35:52.190Z,37888,-0.13400842,-0.82408684,-0.79133666
1734276952193,2024-12-15T15:35:52.193Z,37891,-0.13400842,-0.82408684,-0.79133666
1734276952199,2024-12-15T15:35:52.199Z,37897,-0.14906509,-0.865171,-0.79891694
1734276952201,2024-12-15T15:35:52.201Z,37899,-0.14906509,-0.865171,-0.79891694
1734276952207,2024-12-15T15:35:52.207Z,37905,-0.14340995,-0.81434554,-0.7962175
1734276952209,2024-12-15T15:35:52.209Z,37907,-0.14340995,-0.81434554,-0.7962175
1734276952216,2024-12-15T15:35:52.216Z,37914,-0.12162215,-0.75249046,-0.77881026
1734276952217,2024-12-15T15:35:52.217Z,37915,-0.12162215,-0.75249046,-0.77881026
1734276952224,2024-12-15T15:35:52.224Z,37922,-0.064798266,-0.7160052,-0.77749044
1734276952227,2024-12-15T15:35:52.227Z,37925,-0.064798266,-0.7160052,-0.77749044
1734276952233,2024-12-15T15:35:52.233Z,37931,-0.055440124,-0.7105669,-0.7844728
1734276952236,2024-12-15T15:35:52.236Z,37934,-0.055440124,-0.7105669,-0.7844728
1734276952245,2024-12-15T15:35:52.245Z,37943,-0.13146353,-0.7520794,-0.7963462
1734276952247,2024-12-15T15:35:52.247Z,37945,-0.13146353,-0.7520794,-0.7963462
1734276952256,2024-12-15T15:35:52.256Z,37954,-0.15415844,-0.7678653,-0.801464
1734276952258,2024-12-15T15:35:52.258Z,37956,-0.15415844,-0.7678653,-0.801464
1734276952265,2024-12-15T15:35:52.265Z,37963,-0.12919582,-0.750871,-0.81586164
1734276952267,2024-12-15T15:35:52.267Z,37965,-0.12919582,-0.750871,-0.81586164
1734276952275,2024-12-15T15:35:52.275Z,37973,-0.15045816,-0.76089305,-0.79012805
1734276952277,2024-12-15T15:35:52.277Z,37975,-0.15045816,-0.76089305,-0.79012805
1734276952284,2024-12-15T15:35:52.284Z,37982,-0.17486875,-0.77817285,-0.7550823
1734276952287,2024-12-15T15:35:52.287Z,37985,-0.17486875,-0.77817285,-0.7550823
1734276952295,2024-12-15T15:35:52.295Z,37993,-0.16463768,-0.79260176,-0.76349425
1734276952297,2024-12-15T15:35:52.297Z,37995,-0.16463768,-0.79260176,-0.76349425
1734276952307,2024-12-15T15:35:52.307Z,38005,-0.12891254,-0.80948716,-0.7855318
1734276952310,2024-12-15T15:35:52.310Z,38008,-0.12891254,-0.80948716,-0.7855318
1734276952323,2024-12-15T15:35:52.323Z,38021,-0.09414703,-0.8327869,-0.76699144
1734276952325,2024-12-15T15:35:52.325Z,38023,-0.09414703,-0.8327869,-0.76699144
1734276952332,2024-12-15T15:35:52.332Z,38030,-0.08547495,-0.87566966,-0.77040255
1734276952335,2024-12-15T15:35:52.335Z,38033,-0.08547495,-0.87566966,-0.77040255
1734276952342,2024-12-15T15:35:52.342Z,38040,-0.05953549,-0.8849385,-0.76798135
1734276952344,2024-12-15T15:35:52.344Z,38042,-0.05953549,-0.8849385,-0.76798135
1734276952352,2024-12-15T15:35:52.352Z,38050,-0.022356363,-0.8447528,-0.7680326
1734276952355,2024-12-15T15:35:52.355Z,38053,-0.022356363,-0.8447528,-0.7680326
1734276952362,2024-12-15T15:35:52.362Z,38060,-0.043095343,-0.8081038,-0.80272776
1734276952364,2024-12-15T15:35:52.364Z,38062,-0.043095343,-0.8081038,-0.80272776
1734276952371,2024-12-15T15:35:52.371Z,38069,-0.094873615,-0.8190916,-0.82077044
1734276952373,2024-12-15T15:35:52.373Z,38071,-0.094873615,-0.8190916,-0.82077044
1734276952381,2024-12-15T15:35:52.381Z,38079,-0.10221932,-0.8324361,-0.8035931
1734276952383,2024-12-15T15:35:52.383Z,38081,-0.10221932,-0.8324361,-0.8035931
1734276952393,2024-12-15T15:35:52.393Z,38091,-0.04428918,-0.82528466,-0.7912249
1734276952395,2024-12-15T15:35:52.395Z,38093,-0.04428918,-0.82528466,-0.7912249
1734276952403,2024-12-15T15:35:52.403Z,38101,8.905824E-4,-0.8226402,-0.7978442
1734276952406,2024-12-15T15:35:52.406Z,38104,8.905824E-4,-0.8226402,-0.7978442
1734276952413,2024-12-15T15:35:52.413Z,38111,-0.0036176392,-0.8343434,-0.80644417
1734276952415,2024-12-15T15:35:52.415Z,38113,-0.0036176392,-0.8343434,-0.80644417
1734276952422,2024-12-15T15:35:52.422Z,38120,-0.0153623065,-0.8254918,-0.80977947
1734276952425,2024-12-15T15:35:52.425Z,38123,-0.0153623065,-0.8254918,-0.80977947
1734276952432,2024-12-15T15:35:52.432Z,38130,-0.012880983,-0.80052316,-0.8117586
1734276952434,2024-12-15T15:35:52.434Z,38132,-0.012880983,-0.80052316,-0.8117586
1734276952441,2024-12-15T15:35:52.441Z,38139,-6.189574E-4,-0.81180215,-0.80837744
1734276952443,2024-12-15T15:35:52.443Z,38141,-6.189574E-4,-0.81180215,-0.80837744
1734276952450,2024-12-15T15:35:52.450Z,38148,0.03539361,-0.8327128,-0.8181455
1734276952452,2024-12-15T15:35:52.452Z,38150,0.03539361,-0.8327128,-0.8181455
1734276952459,2024-12-15T15:35:52.459Z,38157,0.07928312,-0.80826515,-0.8312828
1734276952462,2024-12-15T15:35:52.462Z,38160,0.07928312,-0.80826515,-0.8312828
1734276952470,2024-12-15T15:35:52.470Z,38168,0.0799214,-0.7637027,-0.8370916
1734276952472,2024-12-15T15:35:52.472Z,38170,0.0799214,-0.7637027,-0.8370916
1734276952479,2024-12-15T15:35:52.479Z,38177,0.039344735,-0.77030313,-0.7931597
1734276952481,2024-12-15T15:35:52.481Z,38179,0.039344735,-0.77030313,-0.7931597
1734276952488,2024-12-15T15:35:52.488Z,38186,-0.018136116,-0.8058213,-0.77855295
1734276952490,2024-12-15T15:35:52.490Z,38188,-0.018136116,-0.8058213,-0.77855295
1734276952497,2024-12-15T15:35:52.497Z,38195,-0.04479631,-0.82624537,-0.8219579
1734276952499,2024-12-15T15:35:52.499Z,38197,-0.04479631,-0.82624537,-0.8219579
1734276952508,2024-12-15T15:35:52.508Z,38206,-0.043375745,-0.8350922,-0.83398825
1734276952510,2024-12-15T15:35:52.510Z,38208,-0.043375745,-0.8350922,-0.83398825
1734276952518,2024-12-15T15:35:52.518Z,38216,-0.04847201,-0.8516428,-0.81662136
1734276952521,2024-12-15T15:35:52.521Z,38219,-0.04847201,-0.8516428,-0.81662136
1734276952528,2024-12-15T15:35:52.528Z,38226,-0.05567201,-0.8480288,-0.788473
1734276952530,2024-12-15T15:35:52.530Z,38228,-0.05567201,-0.8480288,-0.788473
1734276952537,2024-12-15T15:35:52.537Z,38235,-0.050832674,-0.82881814,-0.76182705
1734276952540,2024-12-15T15:35:52.540Z,38238,-0.050832674,-0.82881814,-0.76182705
1734276952546,2024-12-15T15:35:52.546Z,38244,-0.03660116,-0.8171252,-0.7542477
1734276952548,2024-12-15T15:35:52.548Z,38246,-0.03660116,-0.8171252,-0.7542477
1734276952556,2024-12-15T15:35:52.556Z,38254,-0.069891006,-0.8260527,-0.7554362
1734276952559,2024-12-15T15:35:52.559Z,38257,-0.069891006,-0.8260527,-0.7554362
1734276952565,2024-12-15T15:35:52.565Z,38263,-0.1124662,-0.83455783,-0.74148357
1734276952567,2024-12-15T15:35:52.567Z,38265,-0.1124662,-0.83455783,-0.74148357
1734276952574,2024-12-15T15:35:52.574Z,38272,-0.10221953,-0.8402476,-0.7285207
1734276952576,2024-12-15T15:35:52.576Z,38274,-0.10221953,-0.8402476,-0.7285207
1734276952581,2024-12-15T15:35:52.581Z,38279,-0.07064971,-0.8703001,-0.7335884
1734276952583,2024-12-15T15:35:52.583Z,38281,-0.07064971,-0.8703001,-0.7335884
1734276952590,2024-12-15T15:35:52.590Z,38288,-0.09490907,-0.8963493,-0.7493578
1734276952593,2024-12-15T15:35:52.593Z,38291,-0.09490907,-0.8963493,-0.7493578
1734276952601,2024-12-15T15:35:52.601Z,38299,-0.11940169,-0.883481,-0.7422185
1734276952604,2024-12-15T15:35:52.604Z,38302,-0.11940169,-0.883481,-0.7422185
1734276952612,2024-12-15T15:35:52.612Z,38310,-0.09458705,-0.8483589,-0.7293008
1734276952614,2024-12-15T15:35:52.614Z,38312,-0.09458705,-0.8483589,-0.7293008
1734276952621,2024-12-15T15:35:52.621Z,38319,-0.04420903,-0.8331711,-0.70858634
1734276952624,2024-12-15T15:35:52.624Z,38322,-0.04420903,-0.8331711,-0.70858634
1734276952630,2024-12-15T15:35:52.630Z,38328,-0.010769868,-0.8494047,-0.7024402
1734276952632,2024-12-15T15:35:52.632Z,38330,-0.010769868,-0.8494047,-0.7024402
1734276952639,2024-12-15T15:35:52.639Z,38337,-0.010718996,-0.8605005,-0.7073913
1734276952641,2024-12-15T15:35:52.641Z,38339,-0.010718996,-0.8605005,-0.7073913
1734276952649,2024-12-15T15:35:52.649Z,38347,-0.029368835,-0.84885645,-0.7297872
1734276952651,2024-12-15T15:35:52.651Z,38349,-0.029368835,-0.84885645,-0.7297872
1734276952658,2024-12-15T15:35:52.658Z,38356,-0.05303758,-0.8556564,-0.7197984
1734276952660,2024-12-15T15:35:52.660Z,38358,-0.05303758,-0.8556564,-0.7197984
1734276952666,2024-12-15T15:35:52.666Z,38364,-0.091191374,-0.8680955,-0.7199438
1734276952668,2024-12-15T15:35:52.668Z,38366,-0.091191374,-0.8680955,-0.7199438
1734276952675,2024-12-15T15:35:52.675Z,38373,-0.14968836,-0.83091354,-0.73863345
1734276952678,2024-12-15T15:35:52.678Z,38376,-0.14968836,-0.83091354,-0.73863345
1734276952685,2024-12-15T15:35:52.685Z,38383,-0.16506302,-0.7711737,-0.7275395
1734276952687,2024-12-15T15:35:52.687Z,38385,-0.16506302,-0.7711737,-0.7275395
1734276952695,2024-12-15T15:35:52.695Z,38393,-0.12868337,-0.7594641,-0.7237292
1734276952697,2024-12-15T15:35:52.697Z,38395,-0.12868337,-0.7594641,-0.7237292
1734276952705,2024-12-15T15:35:52.705Z,38403,-0.07371322,-0.7997519,-0.7290368
1734276952708,2024-12-15T15:35:52.708Z,38406,-0.07371322,-0.7997519,-0.7290368
1734276952716,2024-12-15T15:35:52.716Z,38414,-0.046271764,-0.83505064,-0.75708836
1734276952721,2024-12-15T15:35:52.721Z,38419,-0.046271764,-0.83505064,-0.75708836
1734276952730,2024-12-15T15:35:52.730Z,38428,-0.04869712,-0.8191977,-0.78701
1734276952733,2024-12-15T15:35:52.733Z,38431,-0.04869712,-0.8191977,-0.78701
1734276952742,2024-12-15T15:35:52.742Z,38440,-0.040899996,-0.77401036,-0.803417
1734276952744,2024-12-15T15:35:52.744Z,38442,-0.040899996,-0.77401036,-0.803417
1734276952750,2024-12-15T15:35:52.750Z,38448,-0.04507715,-0.7255672,-0.79091537
1734276952752,2024-12-15T15:35:52.752Z,38450,-0.04507715,-0.7255672,-0.79091537
1734276952760,2024-12-15T15:35:52.760Z,38458,-0.08630871,-0.6694837,-0.7774258
1734276952762,2024-12-15T15:35:52.762Z,38460,-0.08630871,-0.6694837,-0.7774258
1734276952769,2024-12-15T15:35:52.769Z,38467,-0.10512636,-0.63683605,-0.79695356
1734276952771,2024-12-15T15:35:52.771Z,38469,-0.10512636,-0.63683605,-0.79695356
1734276952779,2024-12-15T15:35:52.779Z,38477,-0.118464336,-0.6544914,-0.81440073
1734276952782,2024-12-15T15:35:52.782Z,38480,-0.118464336,-0.6544914,-0.81440073
1734276952788,2024-12-15T15:35:52.788Z,38486,-0.17232645,-0.68763715,-0.7987558
1734276952791,2024-12-15T15:35:52.791Z,38489,-0.17232645,-0.68763715,-0.7987558
1734276952798,2024-12-15T15:35:52.798Z,38496,-0.17011164,-0.6978372,-0.76475877
1734276952801,2024-12-15T15:35:52.801Z,38499,-0.17011164,-0.6978372,-0.76475877
1734276952811,2024-12-15T15:35:52.811Z,38509,-0.09666534,-0.7136536,-0.76038396
1734276952813,2024-12-15T15:35:52.813Z,38511,-0.09666534,-0.7136536,-0.76038396
1734276952821,2024-12-15T15:35:52.821Z,38519,-0.056623723,-0.7579733,-0.7690936
1734276952823,2024-12-15T15:35:52.823Z,38521,-0.056623723,-0.7579733,-0.7690936
1734276952831,2024-12-15T15:35:52.831Z,38529,-0.049451835,-0.77716196,-0.72585636
1734276952833,2024-12-15T15:35:52.833Z,38531,-0.049451835,-0.77716196,-0.72585636
1734276952841,2024-12-15T15:35:52.841Z,38539,-0.042920254,-0.74216616,-0.6959265
1734276952843,2024-12-15T15:35:52.843Z,38541,-0.042920254,-0.74216616,-0.6959265
1734276952849,2024-12-15T15:35:52.849Z,38547,-0.061290883,-0.71640337,-0.72056645
1734276952851,2024-12-15T15:35:52.851Z,38549,-0.061290883,-0.71640337,-0.72056645
1734276952858,2024-12-15T15:35:52.858Z,38556,-0.12284063,-0.7148731,-0.69494414
1734276952860,2024-12-15T15:35:52.860Z,38558,-0.12284063,-0.7148731,-0.69494414
1734276952868,2024-12-15T15:35:52.868Z,38566,-0.1867783,-0.7280931,-0.67356366
1734276952870,2024-12-15T15:35:52.870Z,38568,-0.1867783,-0.7280931,-0.67356366
1734276952878,2024-12-15T15:35:52.878Z,38576,-0.19445102,-0.7415347,-0.67142254
1734276952880,2024-12-15T15:35:52.880Z,38578,-0.19445102,-0.7415347,-0.67142254
1734276952886,2024-12-15T15:35:52.886Z,38584,-0.16867605,-0.77482307,-0.7002747
1734276952889,2024-12-15T15:35:52.889Z,38587,-0.16867605,-0.77482307,-0.7002747
1734276952897,2024-12-15T15:35:52.897Z,38595,-0.17577164,-0.77142966,-0.6914678
1734276952899,2024-12-15T15:35:52.899Z,38597,-0.17577164,-0.77142966,-0.6914678
1734276952906,2024-12-15T15:35:52.906Z,38604,-0.1838609,-0.7281047,-0.70863664
1734276952909,2024-12-15T15:35:52.909Z,38607,-0.1838609,-0.7281047,-0.70863664
1734276952915,2024-12-15T15:35:52.915Z,38613,-0.16791128,-0.69467634,-0.705915
1734276952917,2024-12-15T15:35:52.917Z,38615,-0.16791128,-0.69467634,-0.705915
1734276952924,2024-12-15T15:35:52.924Z,38622,-0.11112917,-0.68934137,-0.70875245
1734276952926,2024-12-15T15:35:52.926Z,38624,-0.11112917,-0.68934137,-0.70875245
1734276952933,2024-12-15T15:35:52.933Z,38631,-0.09758541,-0.7257596,-0.75423634
1734276952936,2024-12-15T15:35:52.936Z,38634,-0.09758541,-0.7257596,-0.75423634
1734276952945,2024-12-15T15:35:52.945Z,38643,-0.12357111,-0.72482216,-0.7999421
1734276952947,2024-12-15T15:35:52.947Z,38645,-0.12357111,-0.72482216,-0.7999421
1734276952954,2024-12-15T15:35:52.954Z,38652,-0.13094808,-0.7057983,-0.8394547
1734276952956,2024-12-15T15:35:52.956Z,38654,-0.13094808,-0.7057983,-0.8394547
1734276952963,2024-12-15T15:35:52.963Z,38661,-0.10987922,-0.71204495,-0.8599781
1734276952964,2024-12-15T15:35:52.964Z,38662,-0.10987922,-0.71204495,-0.8599781
1734276952970,2024-12-15T15:35:52.970Z,38668,-0.0812122,-0.68888056,-0.8541241
1734276952973,2024-12-15T15:35:52.973Z,38671,-0.0812122,-0.68888056,-0.8541241
1734276952980,2024-12-15T15:35:52.980Z,38678,-0.0952727,-0.66115296,-0.8633874
1734276952981,2024-12-15T15:35:52.981Z,38679,-0.0952727,-0.66115296,-0.8633874
1734276952989,2024-12-15T15:35:52.989Z,38687,-0.09700239,-0.67540497,-0.8833934
1734276952992,2024-12-15T15:35:52.992Z,38690,-0.09700239,-0.67540497,-0.8833934
1734276952999,2024-12-15T15:35:52.999Z,38697,-0.07837412,-0.7213997,-0.9057048
1734276953001,2024-12-15T15:35:53.001Z,38699,-0.07837412,-0.7213997,-0.9057048
1734276953008,2024-12-15T15:35:53.008Z,38706,-0.11080722,-0.77522165,-0.9258255
