Timestamp (ms),ISO DateTime,Elapsed Time (ms),Acceleration X,Acceleration Y,Acceleration Z
1734432164376,2024-12-17T10:42:44.376Z,38755,-0.041576922,-0.64110273,-0.8542485
1734432164383,2024-12-17T10:42:44.383Z,38762,-0.041576922,-0.64110273,-0.8542485
1734432164403,2024-12-17T10:42:44.403Z,38782,-0.060328677,-0.63531923,-0.8187987
1734432164410,2024-12-17T10:42:44.410Z,38789,-0.060328677,-0.63531923,-0.8187987
1734432164425,2024-12-17T10:42:44.425Z,38804,-0.061605223,-0.646518,-0.7544496
1734432164429,2024-12-17T10:42:44.429Z,38808,-0.061605223,-0.646518,-0.7544496
1734432164443,2024-12-17T10:42:44.443Z,38822,-0.039817106,-0.69207543,-0.6953517
1734432164446,2024-12-17T10:42:44.446Z,38825,-0.039817106,-0.69207543,-0.6953517
1734432164462,2024-12-17T10:42:44.462Z,38841,-0.016328001,-0.7209428,-0.6635448
1734432164466,2024-12-17T10:42:44.466Z,38845,-0.016328001,-0.7209428,-0.6635448
1734432164478,2024-12-17T10:42:44.478Z,38857,-0.03583867,-0.7156071,-0.67029876
1734432164482,2024-12-17T10:42:44.482Z,38861,-0.03583867,-0.7156071,-0.67029876
1734432164494,2024-12-17T10:42:44.494Z,38873,-0.08790461,-0.7143955,-0.6901828
1734432164497,2024-12-17T10:42:44.497Z,38876,-0.08790461,-0.7143955,-0.6901828
1734432164509,2024-12-17T10:42:44.509Z,38888,-0.10105642,-0.722208,-0.669456
1734432164512,2024-12-17T10:42:44.512Z,38891,-0.10105642,-0.722208,-0.669456
1734432164523,2024-12-17T10:42:44.523Z,38902,-0.12109182,-0.745865,-0.64859587
1734432164528,2024-12-17T10:42:44.528Z,38907,-0.12109182,-0.745865,-0.64859587
1734432164539,2024-12-17T10:42:44.539Z,38918,-0.15097336,-0.7679151,-0.6452031
1734432164543,2024-12-17T10:42:44.543Z,38922,-0.15097336,-0.7679151,-0.6452031
1734432164556,2024-12-17T10:42:44.556Z,38935,-0.12485962,-0.7316355,-0.6442278
1734432164561,2024-12-17T10:42:44.561Z,38940,-0.12485962,-0.7316355,-0.6442278
1734432164573,2024-12-17T10:42:44.573Z,38952,-0.060657095,-0.69444674,-0.6949505
1734432164579,2024-12-17T10:42:44.579Z,38958,-0.060657095,-0.69444674,-0.6949505
1734432164593,2024-12-17T10:42:44.593Z,38972,-0.024744365,-0.68135357,-0.7397198
1734432164596,2024-12-17T10:42:44.596Z,38975,-0.024744365,-0.68135357,-0.7397198
1734432164607,2024-12-17T10:42:44.607Z,38986,-0.054697778,-0.66853863,-0.74396455
1734432164611,2024-12-17T10:42:44.611Z,38990,-0.054697778,-0.66853863,-0.74396455
1734432164623,2024-12-17T10:42:44.623Z,39002,-0.11150337,-0.6978684,-0.7619201
1734432164626,2024-12-17T10:42:44.626Z,39005,-0.11150337,-0.6978684,-0.7619201
1734432164638,2024-12-17T10:42:44.638Z,39017,-0.12296326,-0.72789615,-0.814579
1734432164642,2024-12-17T10:42:44.642Z,39021,-0.12296326,-0.72789615,-0.814579
1734432164655,2024-12-17T10:42:44.655Z,39034,-0.07095323,-0.7244235,-0.83510375
1734432164659,2024-12-17T10:42:44.659Z,39038,-0.07095323,-0.7244235,-0.83510375
1734432164671,2024-12-17T10:42:44.671Z,39050,-0.0690094,-0.7605323,-0.8189654
1734432164676,2024-12-17T10:42:44.676Z,39055,-0.0690094,-0.7605323,-0.8189654
1734432164688,2024-12-17T10:42:44.688Z,39067,-0.025495348,-0.8053833,-0.78055054
1734432164692,2024-12-17T10:42:44.692Z,39071,-0.025495348,-0.8053833,-0.78055054
1734432164703,2024-12-17T10:42:44.703Z,39082,0.06645145,-0.76330215,-0.7298403
1734432164707,2024-12-17T10:42:44.707Z,39086,0.06645145,-0.76330215,-0.7298403
1734432164719,2024-12-17T10:42:44.719Z,39098,0.10029543,-0.6846299,-0.64530355
1734432164722,2024-12-17T10:42:44.722Z,39101,0.10029543,-0.6846299,-0.64530355
1734432164735,2024-12-17T10:42:44.735Z,39114,0.07357847,-0.65461767,-0.59268373
1734432164739,2024-12-17T10:42:44.739Z,39118,0.07357847,-0.65461767,-0.59268373
1734432164750,2024-12-17T10:42:44.750Z,39129,-0.011158325,-0.66319567,-0.5385649
1734432164754,2024-12-17T10:42:44.754Z,39133,-0.011158325,-0.66319567,-0.5385649
1734432164766,2024-12-17T10:42:44.766Z,39145,-0.08279218,-0.687571,-0.55112576
1734432164770,2024-12-17T10:42:44.770Z,39149,-0.08279218,-0.687571,-0.55112576
1734432164781,2024-12-17T10:42:44.781Z,39160,-0.1360051,-0.68181616,-0.5862621
1734432164785,2024-12-17T10:42:44.785Z,39164,-0.1360051,-0.68181616,-0.5862621
1734432164798,2024-12-17T10:42:44.798Z,39177,-0.18416964,-0.61706376,-0.6028893
1734432164803,2024-12-17T10:42:44.803Z,39182,-0.18416964,-0.61706376,-0.6028893
1734432164817,2024-12-17T10:42:44.817Z,39196,-0.21093693,-0.62251735,-0.6653895
1734432164821,2024-12-17T10:42:44.821Z,39200,-0.21093693,-0.62251735,-0.6653895
1734432164834,2024-12-17T10:42:44.834Z,39213,-0.18529294,-0.6654763,-0.71038413
1734432164838,2024-12-17T10:42:44.838Z,39217,-0.18529294,-0.6654763,-0.71038413
1734432164852,2024-12-17T10:42:44.852Z,39231,-0.06502606,-0.6527028,-0.757188
1734432164857,2024-12-17T10:42:44.857Z,39236,-0.06502606,-0.6527028,-0.757188
1734432164870,2024-12-17T10:42:44.870Z,39249,-0.014210614,-0.6014147,-0.8368327
1734432164874,2024-12-17T10:42:44.874Z,39253,-0.014210614,-0.6014147,-0.8368327
1734432164888,2024-12-17T10:42:44.888Z,39267,-0.052769016,-0.5303154,-0.9343338
1734432164892,2024-12-17T10:42:44.892Z,39271,-0.052769016,-0.5303154,-0.9343338
1734432164910,2024-12-17T10:42:44.910Z,39289,-0.14884137,-0.5539768,-0.9624653
1734432164918,2024-12-17T10:42:44.918Z,39297,-0.14884137,-0.5539768,-0.9624653
1734432164932,2024-12-17T10:42:44.932Z,39311,-0.23964383,-0.6778937,-0.96788037
1734432164936,2024-12-17T10:42:44.936Z,39315,-0.23964383,-0.6778937,-0.96788037
1734432164948,2024-12-17T10:42:44.948Z,39327,-0.1368189,-0.7304668,-0.949427
1734432164952,2024-12-17T10:42:44.952Z,39331,-0.1368189,-0.7304668,-0.949427
1734432164965,2024-12-17T10:42:44.965Z,39344,-0.058002148,-0.5947671,-0.8882992
1734432164970,2024-12-17T10:42:44.970Z,39349,-0.058002148,-0.5947671,-0.8882992
1734432164983,2024-12-17T10:42:44.983Z,39362,-0.06733551,-0.47073635,-0.8406872
1734432164988,2024-12-17T10:42:44.988Z,39367,-0.06733551,-0.47073635,-0.8406872
1734432165001,2024-12-17T10:42:45.001Z,39380,-0.065593645,-0.3789417,-0.7917582
1734432165005,2024-12-17T10:42:45.005Z,39384,-0.065593645,-0.3789417,-0.7917582
1734432165019,2024-12-17T10:42:45.019Z,39398,-0.20064634,-0.2886313,-0.7554613
1734432165022,2024-12-17T10:42:45.022Z,39401,-0.20064634,-0.2886313,-0.7554613
1734432165034,2024-12-17T10:42:45.034Z,39413,-0.33562136,-0.28546008,-0.7642231
1734432165038,2024-12-17T10:42:45.038Z,39417,-0.33562136,-0.28546008,-0.7642231
1734432165052,2024-12-17T10:42:45.052Z,39431,-0.2542002,-0.32980072,-0.74693745
1734432165057,2024-12-17T10:42:45.057Z,39436,-0.2542002,-0.32980072,-0.74693745
1734432165071,2024-12-17T10:42:45.071Z,39450,-0.19243766,-0.31848076,-0.8034877
1734432165075,2024-12-17T10:42:45.075Z,39454,-0.19243766,-0.31848076,-0.8034877
1734432165086,2024-12-17T10:42:45.086Z,39465,-0.25781503,-0.24309433,-0.89469045
1734432165090,2024-12-17T10:42:45.090Z,39469,-0.25781503,-0.24309433,-0.89469045
1734432165100,2024-12-17T10:42:45.100Z,39479,-0.27360556,-0.16674542,-0.9487986
1734432165104,2024-12-17T10:42:45.104Z,39483,-0.27360556,-0.16674542,-0.9487986
1734432165114,2024-12-17T10:42:45.114Z,39493,-0.2982156,-0.13925922,-0.9580447
1734432165118,2024-12-17T10:42:45.118Z,39497,-0.2982156,-0.13925922,-0.9580447
1734432165129,2024-12-17T10:42:45.129Z,39508,-0.37029964,-0.20198601,-1.0054677
1734432165133,2024-12-17T10:42:45.133Z,39512,-0.37029964,-0.20198601,-1.0054677
1734432165146,2024-12-17T10:42:45.146Z,39525,-0.3701426,-0.30711356,-1.0669813
1734432165151,2024-12-17T10:42:45.151Z,39530,-0.3701426,-0.30711356,-1.0669813
1734432165165,2024-12-17T10:42:45.165Z,39544,-0.31613904,-0.34776425,-1.0234693
1734432165169,2024-12-17T10:42:45.169Z,39548,-0.31613904,-0.34776425,-1.0234693
1734432165182,2024-12-17T10:42:45.182Z,39561,-0.18487914,-0.2988409,-0.9523749
1734432165186,2024-12-17T10:42:45.186Z,39565,-0.18487914,-0.2988409,-0.9523749
1734432165199,2024-12-17T10:42:45.199Z,39578,-0.17525503,-0.298623,-0.9069577
1734432165202,2024-12-17T10:42:45.202Z,39581,-0.17525503,-0.298623,-0.9069577
1734432165215,2024-12-17T10:42:45.215Z,39594,-0.10866558,-0.3802856,-0.81944096
1734432165219,2024-12-17T10:42:45.219Z,39598,-0.10866558,-0.3802856,-0.81944096
1734432165230,2024-12-17T10:42:45.230Z,39609,-0.023328535,-0.39310563,-0.7679771
1734432165233,2024-12-17T10:42:45.233Z,39612,-0.023328535,-0.39310563,-0.7679771
1734432165245,2024-12-17T10:42:45.245Z,39624,-0.086286955,-0.3561674,-0.7732746
1734432165250,2024-12-17T10:42:45.250Z,39629,-0.086286955,-0.3561674,-0.7732746
1734432165264,2024-12-17T10:42:45.264Z,39643,-0.067918725,-0.34046072,-0.67255336
1734432165267,2024-12-17T10:42:45.267Z,39646,-0.067918725,-0.34046072,-0.67255336
1734432165281,2024-12-17T10:42:45.281Z,39660,-0.11109632,-0.35291544,-0.6764302
1734432165285,2024-12-17T10:42:45.285Z,39664,-0.11109632,-0.35291544,-0.6764302
1734432165299,2024-12-17T10:42:45.299Z,39678,-0.238623,-0.47933456,-0.68136036
1734432165303,2024-12-17T10:42:45.303Z,39682,-0.238623,-0.47933456,-0.68136036
1734432165316,2024-12-17T10:42:45.316Z,39695,-0.19075538,-0.5585648,-0.7111508
1734432165319,2024-12-17T10:42:45.319Z,39698,-0.19075538,-0.5585648,-0.7111508
1734432165329,2024-12-17T10:42:45.329Z,39708,-0.10442316,-0.4713653,-0.78856987
1734432165332,2024-12-17T10:42:45.332Z,39711,-0.10442316,-0.4713653,-0.78856987
1734432165343,2024-12-17T10:42:45.343Z,39722,-0.102084406,-0.41715467,-0.78373635
1734432165347,2024-12-17T10:42:45.347Z,39726,-0.102084406,-0.41715467,-0.78373635
1734432165359,2024-12-17T10:42:45.359Z,39738,-0.26637575,-0.49003258,-0.81415176
1734432165363,2024-12-17T10:42:45.363Z,39742,-0.26637575,-0.49003258,-0.81415176
1734432165374,2024-12-17T10:42:45.374Z,39753,-0.2685879,-0.67324036,-0.82392436
1734432165377,2024-12-17T10:42:45.377Z,39756,-0.2685879,-0.67324036,-0.82392436
1734432165390,2024-12-17T10:42:45.390Z,39769,-0.21917287,-0.59740895,-0.75584817
1734432165395,2024-12-17T10:42:45.395Z,39774,-0.21917287,-0.59740895,-0.75584817
1734432165407,2024-12-17T10:42:45.407Z,39786,-0.2555123,-0.53207725,-0.90001124
1734432165412,2024-12-17T10:42:45.412Z,39791,-0.2555123,-0.53207725,-0.90001124
1734432165426,2024-12-17T10:42:45.426Z,39805,-0.30445305,-0.53969693,-0.90619826
1734432165429,2024-12-17T10:42:45.429Z,39808,-0.30445305,-0.53969693,-0.90619826
1734432165440,2024-12-17T10:42:45.440Z,39819,-0.16732904,-0.5529645,-0.77314097
1734432165444,2024-12-17T10:42:45.444Z,39823,-0.16732904,-0.5529645,-0.77314097
1734432165454,2024-12-17T10:42:45.454Z,39833,-0.07090996,-0.37079358,-0.70815384
1734432165457,2024-12-17T10:42:45.457Z,39836,-0.07090996,-0.37079358,-0.70815384
1734432165467,2024-12-17T10:42:45.467Z,39846,-0.20322333,-0.29200456,-0.81627834
1734432165471,2024-12-17T10:42:45.471Z,39850,-0.20322333,-0.29200456,-0.81627834
1734432165482,2024-12-17T10:42:45.482Z,39861,-0.060458362,-0.4950562,-0.822488
1734432165485,2024-12-17T10:42:45.485Z,39864,-0.060458362,-0.4950562,-0.822488
1734432165497,2024-12-17T10:42:45.497Z,39876,-0.012936887,-0.433302,-0.7476792
1734432165501,2024-12-17T10:42:45.501Z,39880,-0.012936887,-0.433302,-0.7476792
1734432165512,2024-12-17T10:42:45.512Z,39891,-0.305971,-0.3230537,-0.7573559
1734432165518,2024-12-17T10:42:45.518Z,39897,-0.305971,-0.3230537,-0.7573559
1734432165535,2024-12-17T10:42:45.535Z,39914,-0.23186848,-0.52939147,-0.82713926
1734432165539,2024-12-17T10:42:45.539Z,39918,-0.23186848,-0.52939147,-0.82713926
1734432165549,2024-12-17T10:42:45.549Z,39928,-0.09873327,-0.6221841,-0.8522817
1734432165552,2024-12-17T10:42:45.552Z,39931,-0.09873327,-0.6221841,-0.8522817
1734432165565,2024-12-17T10:42:45.565Z,39944,-0.23301515,-0.5978398,-0.77937394
1734432165570,2024-12-17T10:42:45.570Z,39949,-0.23301515,-0.5978398,-0.77937394
1734432165583,2024-12-17T10:42:45.583Z,39962,-0.15874182,-0.5644183,-0.76386607
1734432165587,2024-12-17T10:42:45.587Z,39966,-0.15874182,-0.5644183,-0.76386607
1734432165599,2024-12-17T10:42:45.599Z,39978,-0.18016155,-0.47446558,-0.7867336
1734432165602,2024-12-17T10:42:45.602Z,39981,-0.18016155,-0.47446558,-0.7867336
1734432165613,2024-12-17T10:42:45.613Z,39992,-0.2850596,-0.4910287,-0.81065005
1734432165618,2024-12-17T10:42:45.618Z,39997,-0.2850596,-0.4910287,-0.81065005
1734432165630,2024-12-17T10:42:45.630Z,40009,-0.18829408,-0.5564353,-0.80859715
1734432165634,2024-12-17T10:42:45.634Z,40013,-0.18829408,-0.5564353,-0.80859715
1734432165646,2024-12-17T10:42:45.646Z,40025,-0.19076419,-0.5684824,-0.7641551
1734432165651,2024-12-17T10:42:45.651Z,40030,-0.19076419,-0.5684824,-0.7641551
1734432165663,2024-12-17T10:42:45.663Z,40042,-0.20198219,-0.630286,-0.7089826
1734432165666,2024-12-17T10:42:45.666Z,40045,-0.20198219,-0.630286,-0.7089826
1734432165677,2024-12-17T10:42:45.677Z,40056,-0.19633332,-0.71994436,-0.6665702
1734432165682,2024-12-17T10:42:45.682Z,40061,-0.19633332,-0.71994436,-0.6665702
1734432165693,2024-12-17T10:42:45.693Z,40072,-0.21165504,-0.7727244,-0.68591
1734432165697,2024-12-17T10:42:45.697Z,40076,-0.21165504,-0.7727244,-0.68591
1734432165709,2024-12-17T10:42:45.709Z,40088,-0.21086165,-0.76011515,-0.69562757
1734432165712,2024-12-17T10:42:45.712Z,40091,-0.21086165,-0.76011515,-0.69562757
1734432165724,2024-12-17T10:42:45.724Z,40103,-0.21846132,-0.77934885,-0.68481046
1734432165727,2024-12-17T10:42:45.727Z,40106,-0.21846132,-0.77934885,-0.68481046
1734432165740,2024-12-17T10:42:45.740Z,40119,-0.04316414,-0.76163495,-0.6685984
1734432165744,2024-12-17T10:42:45.744Z,40123,-0.04316414,-0.76163495,-0.6685984
1734432165756,2024-12-17T10:42:45.756Z,40135,-0.097635984,-0.6233338,-0.6229005
1734432165759,2024-12-17T10:42:45.759Z,40138,-0.097635984,-0.6233338,-0.6229005
1734432165769,2024-12-17T10:42:45.769Z,40148,-0.18275641,-0.7125501,-0.557763
1734432165772,2024-12-17T10:42:45.772Z,40151,-0.18275641,-0.7125501,-0.557763
1734432165783,2024-12-17T10:42:45.783Z,40162,-0.13124843,-0.932556,-0.52873707
1734432165787,2024-12-17T10:42:45.787Z,40166,-0.13124843,-0.932556,-0.52873707
1734432165800,2024-12-17T10:42:45.800Z,40179,-0.10065517,-0.8845003,-0.5882465
1734432165805,2024-12-17T10:42:45.805Z,40184,-0.10065517,-0.8845003,-0.5882465
1734432165818,2024-12-17T10:42:45.818Z,40197,-0.18381827,-0.8640197,-0.5642831
1734432165822,2024-12-17T10:42:45.822Z,40201,-0.18381827,-0.8640197,-0.5642831
1734432165832,2024-12-17T10:42:45.832Z,40211,-0.20012082,-0.95787936,-0.50792825
1734432165836,2024-12-17T10:42:45.836Z,40215,-0.20012082,-0.95787936,-0.50792825
1734432165846,2024-12-17T10:42:45.846Z,40225,-0.23622277,-0.9013771,-0.52896667
1734432165850,2024-12-17T10:42:45.850Z,40229,-0.23622277,-0.9013771,-0.52896667
1734432165861,2024-12-17T10:42:45.861Z,40240,-0.16840197,-0.7883441,-0.5388172
1734432165866,2024-12-17T10:42:45.866Z,40245,-0.16840197,-0.7883441,-0.5388172
1734432165877,2024-12-17T10:42:45.877Z,40256,-0.10837287,-0.7611181,-0.58205277
1734432165881,2024-12-17T10:42:45.881Z,40260,-0.10837287,-0.7611181,-0.58205277
1734432165894,2024-12-17T10:42:45.894Z,40273,-0.12823091,-0.8176646,-0.72137976
1734432165900,2024-12-17T10:42:45.900Z,40279,-0.12823091,-0.8176646,-0.72137976
1734432165910,2024-12-17T10:42:45.910Z,40289,-0.08608426,-0.93981516,-0.6845492
1734432165913,2024-12-17T10:42:45.913Z,40292,-0.08608426,-0.93981516,-0.6845492
1734432165922,2024-12-17T10:42:45.922Z,40301,-0.22819284,-1.0336276,-0.69913524
1734432165925,2024-12-17T10:42:45.925Z,40304,-0.22819284,-1.0336276,-0.69913524
1734432165935,2024-12-17T10:42:45.935Z,40314,-0.31235763,-1.1227306,-0.8495756
1734432165938,2024-12-17T10:42:45.938Z,40317,-0.31235763,-1.1227306,-0.8495756
1734432165946,2024-12-17T10:42:45.946Z,40325,-0.24224143,-1.1506484,-0.8846824
1734432165949,2024-12-17T10:42:45.949Z,40328,-0.24224143,-1.1506484,-0.8846824
1734432165959,2024-12-17T10:42:45.959Z,40338,-0.21590145,-1.0885245,-0.7946188
1734432165963,2024-12-17T10:42:45.963Z,40342,-0.21590145,-1.0885245,-0.7946188
1734432165975,2024-12-17T10:42:45.975Z,40354,-0.1460492,-0.9975475,-0.79271793
1734432165978,2024-12-17T10:42:45.978Z,40357,-0.1460492,-0.9975475,-0.79271793
1734432165988,2024-12-17T10:42:45.988Z,40367,0.01142668,-0.9752497,-0.8243811
1734432165991,2024-12-17T10:42:45.991Z,40370,0.01142668,-0.9752497,-0.8243811
1734432166002,2024-12-17T10:42:46.002Z,40381,-0.008663933,-1.045343,-0.72821915
1734432166006,2024-12-17T10:42:46.006Z,40385,-0.008663933,-1.045343,-0.72821915
1734432166018,2024-12-17T10:42:46.018Z,40397,0.046504002,-1.0977026,-0.7086626
1734432166022,2024-12-17T10:42:46.022Z,40401,0.046504002,-1.0977026,-0.7086626
1734432166031,2024-12-17T10:42:46.031Z,40410,-0.0014963748,-1.0781893,-0.7089916
1734432166034,2024-12-17T10:42:46.034Z,40413,-0.0014963748,-1.0781893,-0.7089916
1734432166044,2024-12-17T10:42:46.044Z,40423,-0.16228977,-1.0846684,-0.72584134
1734432166047,2024-12-17T10:42:46.047Z,40426,-0.16228977,-1.0846684,-0.72584134
1734432166057,2024-12-17T10:42:46.057Z,40436,-0.19343917,-1.1165441,-0.6995416
1734432166060,2024-12-17T10:42:46.060Z,40439,-0.19343917,-1.1165441,-0.6995416
1734432166069,2024-12-17T10:42:46.069Z,40448,-0.21092635,-1.1199232,-0.6236897
1734432166072,2024-12-17T10:42:46.072Z,40451,-0.21092635,-1.1199232,-0.6236897
1734432166082,2024-12-17T10:42:46.082Z,40461,-0.11281864,-1.1438044,-0.5456016
1734432166086,2024-12-17T10:42:46.086Z,40465,-0.11281864,-1.1438044,-0.5456016
1734432166099,2024-12-17T10:42:46.099Z,40478,-0.035146236,-1.13558,-0.6777484
1734432166103,2024-12-17T10:42:46.103Z,40482,-0.035146236,-1.13558,-0.6777484
1734432166114,2024-12-17T10:42:46.114Z,40493,-0.049801562,-1.0432599,-0.69807
1734432166117,2024-12-17T10:42:46.117Z,40496,-0.049801562,-1.0432599,-0.69807
1734432166128,2024-12-17T10:42:46.128Z,40507,-0.040503502,-1.0540414,-0.57000846
1734432166133,2024-12-17T10:42:46.133Z,40512,-0.040503502,-1.0540414,-0.57000846
1734432166144,2024-12-17T10:42:46.144Z,40523,-0.035818413,-1.112637,-0.5539294
1734432166147,2024-12-17T10:42:46.147Z,40526,-0.035818413,-1.112637,-0.5539294
1734432166159,2024-12-17T10:42:46.159Z,40538,-0.103734285,-1.1157262,-0.70368797
1734432166162,2024-12-17T10:42:46.162Z,40541,-0.103734285,-1.1157262,-0.70368797
1734432166174,2024-12-17T10:42:46.174Z,40553,-0.19474865,-1.1290474,-0.7822931
1734432166177,2024-12-17T10:42:46.177Z,40556,-0.19474865,-1.1290474,-0.7822931
1734432166188,2024-12-17T10:42:46.188Z,40567,-0.20047769,-1.1212772,-0.6824883
1734432166191,2024-12-17T10:42:46.191Z,40570,-0.20047769,-1.1212772,-0.6824883
1734432166204,2024-12-17T10:42:46.204Z,40583,-0.16653949,-1.1878659,-0.5975739
1734432166207,2024-12-17T10:42:46.207Z,40586,-0.16653949,-1.1878659,-0.5975739
1734432166217,2024-12-17T10:42:46.217Z,40596,-0.040884156,-1.2211775,-0.6067594
1734432166221,2024-12-17T10:42:46.221Z,40600,-0.040884156,-1.2211775,-0.6067594
1734432166231,2024-12-17T10:42:46.231Z,40610,0.04388623,-1.156439,-0.63058215
1734432166235,2024-12-17T10:42:46.235Z,40614,0.04388623,-1.156439,-0.63058215
1734432166245,2024-12-17T10:42:46.245Z,40624,0.11377741,-1.0907763,-0.6744262
1734432166249,2024-12-17T10:42:46.249Z,40628,0.11377741,-1.0907763,-0.6744262
1734432166259,2024-12-17T10:42:46.259Z,40638,0.12767862,-1.0045183,-0.63023883
1734432166262,2024-12-17T10:42:46.262Z,40641,0.12767862,-1.0045183,-0.63023883
1734432166272,2024-12-17T10:42:46.272Z,40651,0.10811319,-0.98835826,-0.5342146
1734432166275,2024-12-17T10:42:46.275Z,40654,0.10811319,-0.98835826,-0.5342146
1734432166284,2024-12-17T10:42:46.284Z,40663,0.0611458,-1.1392126,-0.5882157
1734432166286,2024-12-17T10:42:46.286Z,40665,0.0611458,-1.1392126,-0.5882157
1734432166296,2024-12-17T10:42:46.296Z,40675,-0.044546712,-1.268677,-0.69452703
1734432166301,2024-12-17T10:42:46.301Z,40680,-0.044546712,-1.268677,-0.69452703
1734432166311,2024-12-17T10:42:46.311Z,40690,-0.10414535,-1.2560107,-0.7504858
1734432166314,2024-12-17T10:42:46.314Z,40693,-0.10414535,-1.2560107,-0.7504858
1734432166325,2024-12-17T10:42:46.325Z,40704,-0.014440739,-1.1190976,-0.6725246
1734432166329,2024-12-17T10:42:46.329Z,40708,-0.014440739,-1.1190976,-0.6725246
1734432166340,2024-12-17T10:42:46.340Z,40719,0.09138548,-0.9486609,-0.49088994
1734432166343,2024-12-17T10:42:46.343Z,40722,0.09138548,-0.9486609,-0.49088994
1734432166353,2024-12-17T10:42:46.353Z,40732,-0.024457734,-0.935631,-0.54357326
1734432166356,2024-12-17T10:42:46.356Z,40735,-0.024457734,-0.935631,-0.54357326
1734432166365,2024-12-17T10:42:46.365Z,40744,-0.11185346,-1.0588446,-0.73878276
1734432166368,2024-12-17T10:42:46.368Z,40747,-0.11185346,-1.0588446,-0.73878276
1734432166377,2024-12-17T10:42:46.377Z,40756,-0.005154931,-1.1209015,-0.7576244
1734432166380,2024-12-17T10:42:46.380Z,40759,-0.005154931,-1.1209015,-0.7576244
1734432166391,2024-12-17T10:42:46.391Z,40770,0.06257144,-1.066125,-0.6592802
1734432166394,2024-12-17T10:42:46.394Z,40773,0.06257144,-1.066125,-0.6592802
1734432166404,2024-12-17T10:42:46.404Z,40783,0.0405491,-1.0125782,-0.5600214
1734432166407,2024-12-17T10:42:46.407Z,40786,0.0405491,-1.0125782,-0.5600214
1734432166415,2024-12-17T10:42:46.415Z,40794,0.021020046,-0.9739158,-0.5252723
1734432166418,2024-12-17T10:42:46.418Z,40797,0.021020046,-0.9739158,-0.5252723
1734432166428,2024-12-17T10:42:46.428Z,40807,-0.035462182,-1.034198,-0.58195406
1734432166432,2024-12-17T10:42:46.432Z,40811,-0.035462182,-1.034198,-0.58195406
1734432166443,2024-12-17T10:42:46.443Z,40822,-0.07864883,-1.1303014,-0.681656
1734432166453,2024-12-17T10:42:46.453Z,40832,-0.07864883,-1.1303014,-0.681656
1734432166462,2024-12-17T10:42:46.462Z,40841,-0.041429874,-1.1059066,-0.6289226
1734432166465,2024-12-17T10:42:46.465Z,40844,-0.041429874,-1.1059066,-0.6289226
1734432166476,2024-12-17T10:42:46.476Z,40855,-0.0532217,-1.0340679,-0.590741
1734432166479,2024-12-17T10:42:46.479Z,40858,-0.0532217,-1.0340679,-0.590741
1734432166491,2024-12-17T10:42:46.491Z,40870,-0.03336039,-0.970063,-0.621873
1734432166493,2024-12-17T10:42:46.493Z,40872,-0.03336039,-0.970063,-0.621873
1734432166503,2024-12-17T10:42:46.503Z,40882,0.021836367,-0.8920199,-0.6519986
1734432166507,2024-12-17T10:42:46.507Z,40886,0.021836367,-0.8920199,-0.6519986
1734432166519,2024-12-17T10:42:46.519Z,40898,-0.012748567,-0.90737504,-0.6723626
1734432166522,2024-12-17T10:42:46.522Z,40901,-0.012748567,-0.90737504,-0.6723626
1734432166533,2024-12-17T10:42:46.533Z,40912,-0.024871388,-0.9977564,-0.62587893
1734432166537,2024-12-17T10:42:46.537Z,40916,-0.024871388,-0.9977564,-0.62587893
1734432166547,2024-12-17T10:42:46.547Z,40926,0.011857062,-1.0999889,-0.56912124
1734432166550,2024-12-17T10:42:46.550Z,40929,0.011857062,-1.0999889,-0.56912124
1734432166559,2024-12-17T10:42:46.559Z,40938,0.003530639,-1.1301771,-0.50652546
1734432166562,2024-12-17T10:42:46.562Z,40941,0.003530639,-1.1301771,-0.50652546
1734432166573,2024-12-17T10:42:46.573Z,40952,0.0024886662,-1.0844191,-0.5255024
1734432166576,2024-12-17T10:42:46.576Z,40955,0.0024886662,-1.0844191,-0.5255024
1734432166587,2024-12-17T10:42:46.587Z,40966,0.004509401,-0.9805303,-0.56303394
1734432166591,2024-12-17T10:42:46.591Z,40970,0.004509401,-0.9805303,-0.56303394
1734432166607,2024-12-17T10:42:46.607Z,40986,-0.0141422,-0.8442425,-0.5751571
1734432166612,2024-12-17T10:42:46.612Z,40991,-0.0141422,-0.8442425,-0.5751571
1734432166622,2024-12-17T10:42:46.622Z,41001,-0.047064155,-0.80519575,-0.5516726
1734432166625,2024-12-17T10:42:46.625Z,41004,-0.047064155,-0.80519575,-0.5516726
1734432166634,2024-12-17T10:42:46.634Z,41013,-0.0756501,-0.9388807,-0.5544962
1734432166637,2024-12-17T10:42:46.637Z,41016,-0.0756501,-0.9388807,-0.5544962
1734432166646,2024-12-17T10:42:46.646Z,41025,-0.068253756,-1.0790893,-0.5840033
1734432166649,2024-12-17T10:42:46.649Z,41028,-0.068253756,-1.0790893,-0.5840033
1734432166658,2024-12-17T10:42:46.658Z,41037,-0.055725858,-1.1171016,-0.5445465
1734432166661,2024-12-17T10:42:46.661Z,41040,-0.055725858,-1.1171016,-0.5445465
1734432166670,2024-12-17T10:42:46.670Z,41049,-0.082188115,-1.1212441,-0.4840296
1734432166673,2024-12-17T10:42:46.673Z,41052,-0.082188115,-1.1212441,-0.4840296
1734432166682,2024-12-17T10:42:46.682Z,41061,-0.0880998,-1.0440942,-0.5147383
1734432166685,2024-12-17T10:42:46.685Z,41064,-0.0880998,-1.0440942,-0.5147383
1734432166695,2024-12-17T10:42:46.695Z,41074,-0.092710875,-0.90380013,-0.5620384
1734432166698,2024-12-17T10:42:46.698Z,41077,-0.092710875,-0.90380013,-0.5620384
1734432166709,2024-12-17T10:42:46.709Z,41088,-0.14040613,-0.8220084,-0.5796115
1734432166711,2024-12-17T10:42:46.711Z,41090,-0.14040613,-0.8220084,-0.5796115
1734432166720,2024-12-17T10:42:46.720Z,41099,-0.122984484,-0.8265071,-0.5937352
1734432166723,2024-12-17T10:42:46.723Z,41102,-0.122984484,-0.8265071,-0.5937352
1734432166733,2024-12-17T10:42:46.733Z,41112,-0.051496666,-0.905999,-0.59795666
1734432166737,2024-12-17T10:42:46.737Z,41116,-0.051496666,-0.905999,-0.59795666
1734432166747,2024-12-17T10:42:46.747Z,41126,-0.01960765,-0.97214824,-0.5684202
1734432166750,2024-12-17T10:42:46.750Z,41129,-0.01960765,-0.97214824,-0.5684202
1734432166762,2024-12-17T10:42:46.762Z,41141,-0.12800357,-1.0043414,-0.58724445
1734432166766,2024-12-17T10:42:46.766Z,41145,-0.12800357,-1.0043414,-0.58724445
1734432166777,2024-12-17T10:42:46.777Z,41156,-0.23023328,-0.9874102,-0.65099573
1734432166781,2024-12-17T10:42:46.781Z,41160,-0.23023328,-0.9874102,-0.65099573
1734432166790,2024-12-17T10:42:46.790Z,41169,-0.18145552,-0.93576086,-0.5926284
1734432166794,2024-12-17T10:42:46.794Z,41173,-0.18145552,-0.93576086,-0.5926284
1734432166804,2024-12-17T10:42:46.804Z,41183,-0.110151954,-0.937269,-0.58150995
1734432166807,2024-12-17T10:42:46.807Z,41186,-0.110151954,-0.937269,-0.58150995
1734432166817,2024-12-17T10:42:46.817Z,41196,-0.06998755,-0.96102655,-0.61867446
1734432166821,2024-12-17T10:42:46.821Z,41200,-0.06998755,-0.96102655,-0.61867446
1734432166831,2024-12-17T10:42:46.831Z,41210,-0.02433311,-0.9110532,-0.65039766
1734432166835,2024-12-17T10:42:46.835Z,41214,-0.02433311,-0.9110532,-0.65039766
1734432166846,2024-12-17T10:42:46.846Z,41225,-0.038129438,-0.80393356,-0.6376798
1734432166849,2024-12-17T10:42:46.849Z,41228,-0.038129438,-0.80393356,-0.6376798
1734432166859,2024-12-17T10:42:46.859Z,41238,-0.08781971,-0.7379951,-0.64890474
1734432166862,2024-12-17T10:42:46.862Z,41241,-0.08781971,-0.7379951,-0.64890474
1734432166872,2024-12-17T10:42:46.872Z,41251,-0.16711375,-0.8043698,-0.65611845
1734432166875,2024-12-17T10:42:46.875Z,41254,-0.16711375,-0.8043698,-0.65611845
1734432166884,2024-12-17T10:42:46.884Z,41263,-0.17483069,-1.004692,-0.6973121
1734432166888,2024-12-17T10:42:46.888Z,41267,-0.17483069,-1.004692,-0.6973121
1734432166898,2024-12-17T10:42:46.898Z,41277,-0.097655974,-1.1541156,-0.72958124
1734432166901,2024-12-17T10:42:46.901Z,41280,-0.097655974,-1.1541156,-0.72958124
1734432166911,2024-12-17T10:42:46.911Z,41290,-0.042275637,-1.0945717,-0.6794249
1734432166915,2024-12-17T10:42:46.915Z,41294,-0.042275637,-1.0945717,-0.6794249
1734432166926,2024-12-17T10:42:46.926Z,41305,-0.019095082,-0.76192784,-0.64369595
1734432166929,2024-12-17T10:42:46.929Z,41308,-0.019095082,-0.76192784,-0.64369595
1734432166941,2024-12-17T10:42:46.941Z,41320,-0.012298584,-0.56073153,-0.58118033
1734432166944,2024-12-17T10:42:46.944Z,41323,-0.012298584,-0.56073153,-0.58118033
1734432166954,2024-12-17T10:42:46.954Z,41333,0.013136355,-0.71608984,-0.6555628
1734432166957,2024-12-17T10:42:46.957Z,41336,0.013136355,-0.71608984,-0.6555628
1734432166966,2024-12-17T10:42:46.966Z,41345,-0.04998938,-0.774803,-0.8240179
1734432166969,2024-12-17T10:42:46.969Z,41348,-0.04998938,-0.774803,-0.8240179
1734432166979,2024-12-17T10:42:46.979Z,41358,-0.20212191,-0.6525796,-0.80506593
1734432166983,2024-12-17T10:42:46.983Z,41362,-0.20212191,-0.6525796,-0.80506593
1734432166996,2024-12-17T10:42:46.996Z,41375,-0.2778982,-0.66538393,-0.7323066
1734432167000,2024-12-17T10:42:47Z,41379,-0.2778982,-0.66538393,-0.7323066
1734432167012,2024-12-17T10:42:47.012Z,41391,-0.3199444,-0.8192576,-0.7842541
1734432167015,2024-12-17T10:42:47.015Z,41394,-0.3199444,-0.8192576,-0.7842541
1734432167025,2024-12-17T10:42:47.025Z,41404,-0.25463238,-0.98768705,-0.7602666
1734432167028,2024-12-17T10:42:47.028Z,41407,-0.25463238,-0.98768705,-0.7602666
1734432167037,2024-12-17T10:42:47.037Z,41416,-0.05493618,-0.91333216,-0.65190494
1734432167040,2024-12-17T10:42:47.040Z,41419,-0.05493618,-0.91333216,-0.65190494
1734432167051,2024-12-17T10:42:47.051Z,41430,0.052559692,-0.69837725,-0.6658166
1734432167054,2024-12-17T10:42:47.054Z,41433,0.052559692,-0.69837725,-0.6658166
1734432167065,2024-12-17T10:42:47.065Z,41444,0.19901952,-0.5882785,-0.65143335
1734432167069,2024-12-17T10:42:47.069Z,41448,0.19901952,-0.5882785,-0.65143335
1734432167079,2024-12-17T10:42:47.079Z,41458,0.19242433,-0.5215608,-0.6674653
1734432167083,2024-12-17T10:42:47.083Z,41462,0.19242433,-0.5215608,-0.6674653
1734432167094,2024-12-17T10:42:47.094Z,41473,-0.035111718,-0.45618358,-0.75316
1734432167099,2024-12-17T10:42:47.099Z,41478,-0.035111718,-0.45618358,-0.75316
1734432167115,2024-12-17T10:42:47.115Z,41494,-0.28857997,-0.5595059,-0.8895837
1734432167118,2024-12-17T10:42:47.118Z,41497,-0.28857997,-0.5595059,-0.8895837
1734432167128,2024-12-17T10:42:47.128Z,41507,-0.4250436,-0.79334795,-0.9383424
1734432167131,2024-12-17T10:42:47.131Z,41510,-0.4250436,-0.79334795,-0.9383424
1734432167143,2024-12-17T10:42:47.143Z,41522,-0.36188224,-0.94599813,-0.9629672
1734432167146,2024-12-17T10:42:47.146Z,41525,-0.36188224,-0.94599813,-0.9629672
1734432167155,2024-12-17T10:42:47.155Z,41534,-0.072966106,-0.9000779,-0.7909867
1734432167158,2024-12-17T10:42:47.158Z,41537,-0.072966106,-0.9000779,-0.7909867
1734432167168,2024-12-17T10:42:47.168Z,41547,0.105240956,-0.6740351,-0.6126367
1734432167171,2024-12-17T10:42:47.171Z,41550,0.105240956,-0.6740351,-0.6126367
1734432167181,2024-12-17T10:42:47.181Z,41560,-0.08130933,-0.5272089,-0.7270006
1734432167185,2024-12-17T10:42:47.185Z,41564,-0.08130933,-0.5272089,-0.7270006
1734432167194,2024-12-17T10:42:47.194Z,41573,-0.16272514,-0.6618771,-0.82752806
1734432167197,2024-12-17T10:42:47.197Z,41576,-0.16272514,-0.6618771,-0.82752806
1734432167208,2024-12-17T10:42:47.208Z,41587,-0.12210334,-0.7479034,-0.8041383
1734432167212,2024-12-17T10:42:47.212Z,41591,-0.12210334,-0.7479034,-0.8041383
1734432167223,2024-12-17T10:42:47.223Z,41602,-0.22042479,-0.72960526,-0.67173
1734432167226,2024-12-17T10:42:47.226Z,41605,-0.22042479,-0.72960526,-0.67173
1734432167235,2024-12-17T10:42:47.235Z,41614,-0.36746976,-0.8094145,-0.75709283
1734432167239,2024-12-17T10:42:47.239Z,41618,-0.36746976,-0.8094145,-0.75709283
1734432167248,2024-12-17T10:42:47.248Z,41627,-0.4892795,-0.9538765,-0.8081577
1734432167252,2024-12-17T10:42:47.252Z,41631,-0.4892795,-0.9538765,-0.8081577
1734432167262,2024-12-17T10:42:47.262Z,41641,-0.31190878,-0.9756898,-0.6869069
1734432167265,2024-12-17T10:42:47.265Z,41644,-0.31190878,-0.9756898,-0.6869069
1734432167275,2024-12-17T10:42:47.275Z,41654,0.0028616234,-0.71192425,-0.4804483
1734432167278,2024-12-17T10:42:47.278Z,41657,0.0028616234,-0.71192425,-0.4804483
1734432167287,2024-12-17T10:42:47.287Z,41666,0.045870993,-0.57899755,-0.38891593
1734432167289,2024-12-17T10:42:47.289Z,41668,0.045870993,-0.57899755,-0.38891593
1734432167300,2024-12-17T10:42:47.300Z,41679,0.13880189,-0.6971301,-0.4643082
1734432167304,2024-12-17T10:42:47.304Z,41683,0.13880189,-0.6971301,-0.4643082
1734432167315,2024-12-17T10:42:47.315Z,41694,0.12096039,-0.60693467,-0.53629625
1734432167319,2024-12-17T10:42:47.319Z,41698,0.12096039,-0.60693467,-0.53629625
1734432167328,2024-12-17T10:42:47.328Z,41707,-0.047623094,-0.5301022,-0.64053327
1734432167332,2024-12-17T10:42:47.332Z,41711,-0.047623094,-0.5301022,-0.64053327
1734432167343,2024-12-17T10:42:47.343Z,41722,-0.094710656,-0.7194679,-0.64169437
1734432167345,2024-12-17T10:42:47.345Z,41724,-0.094710656,-0.7194679,-0.64169437
1734432167354,2024-12-17T10:42:47.354Z,41733,-0.22496188,-0.69743073,-0.7191459
1734432167357,2024-12-17T10:42:47.357Z,41736,-0.22496188,-0.69743073,-0.7191459
1734432167365,2024-12-17T10:42:47.365Z,41744,-0.41684824,-0.64306396,-0.7940666
1734432167368,2024-12-17T10:42:47.368Z,41747,-0.41684824,-0.64306396,-0.7940666
1734432167378,2024-12-17T10:42:47.378Z,41757,-0.2827908,-0.7157058,-0.73120654
1734432167380,2024-12-17T10:42:47.380Z,41759,-0.2827908,-0.7157058,-0.73120654
1734432167389,2024-12-17T10:42:47.389Z,41768,-0.10464872,-0.420696,-0.7365887
1734432167392,2024-12-17T10:42:47.392Z,41771,-0.10464872,-0.420696,-0.7365887
1734432167402,2024-12-17T10:42:47.402Z,41781,-0.17387623,-0.26170665,-0.7900191
1734432167405,2024-12-17T10:42:47.405Z,41784,-0.17387623,-0.26170665,-0.7900191
1734432167415,2024-12-17T10:42:47.415Z,41794,-0.12209512,-0.5283161,-0.80408
1734432167418,2024-12-17T10:42:47.418Z,41797,-0.12209512,-0.5283161,-0.80408
1734432167427,2024-12-17T10:42:47.427Z,41806,-0.2362386,-0.6386948,-0.8965024
1734432167431,2024-12-17T10:42:47.431Z,41810,-0.2362386,-0.6386948,-0.8965024
1734432167441,2024-12-17T10:42:47.441Z,41820,-0.21518989,-0.6377833,-0.89381415
1734432167443,2024-12-17T10:42:47.443Z,41822,-0.21518989,-0.6377833,-0.89381415
1734432167452,2024-12-17T10:42:47.452Z,41831,-0.17127462,-0.58116436,-0.9445547
1734432167455,2024-12-17T10:42:47.455Z,41834,-0.17127462,-0.58116436,-0.9445547
1734432167463,2024-12-17T10:42:47.463Z,41842,-0.38250583,-0.60843843,-0.87356883
1734432167466,2024-12-17T10:42:47.466Z,41845,-0.38250583,-0.60843843,-0.87356883
1734432167476,2024-12-17T10:42:47.476Z,41855,-0.19165726,-0.5484905,-0.76131994
1734432167479,2024-12-17T10:42:47.479Z,41858,-0.19165726,-0.5484905,-0.76131994
1734432167490,2024-12-17T10:42:47.490Z,41869,-0.11420567,-0.2655978,-0.81392896
1734432167494,2024-12-17T10:42:47.494Z,41873,-0.11420567,-0.2655978,-0.81392896
1734432167504,2024-12-17T10:42:47.504Z,41883,-0.1031473,-0.37563327,-0.71427834
1734432167507,2024-12-17T10:42:47.507Z,41886,-0.1031473,-0.37563327,-0.71427834
1734432167517,2024-12-17T10:42:47.517Z,41896,-0.020106202,-0.5428251,-0.71222454
1734432167520,2024-12-17T10:42:47.520Z,41899,-0.020106202,-0.5428251,-0.71222454
1734432167531,2024-12-17T10:42:47.531Z,41910,-0.121747695,-0.51360536,-0.84785944
1734432167535,2024-12-17T10:42:47.535Z,41914,-0.121747695,-0.51360536,-0.84785944
1734432167548,2024-12-17T10:42:47.548Z,41927,-0.10119798,-0.57724124,-0.93838835
1734432167550,2024-12-17T10:42:47.550Z,41929,-0.10119798,-0.57724124,-0.93838835
1734432167560,2024-12-17T10:42:47.560Z,41939,-0.08524367,-0.62061906,-0.8783831
1734432167563,2024-12-17T10:42:47.563Z,41942,-0.08524367,-0.62061906,-0.8783831
1734432167573,2024-12-17T10:42:47.573Z,41952,-0.20025377,-0.63690144,-0.8418554
1734432167576,2024-12-17T10:42:47.576Z,41955,-0.20025377,-0.63690144,-0.8418554
1734432167588,2024-12-17T10:42:47.588Z,41967,-0.17634687,-0.5883994,-0.8654044
1734432167596,2024-12-17T10:42:47.596Z,41975,-0.17634687,-0.5883994,-0.8654044
1734432167610,2024-12-17T10:42:47.610Z,41989,-0.18661173,-0.47622085,-0.8198358
1734432167613,2024-12-17T10:42:47.613Z,41992,-0.18661173,-0.47622085,-0.8198358
1734432167624,2024-12-17T10:42:47.624Z,42003,-0.013093353,-0.59330136,-0.73087776
1734432167627,2024-12-17T10:42:47.627Z,42006,-0.013093353,-0.59330136,-0.73087776
1734432167638,2024-12-17T10:42:47.638Z,42017,0.036711212,-0.5240699,-0.6964869
1734432167641,2024-12-17T10:42:47.641Z,42020,0.036711212,-0.5240699,-0.6964869
1734432167650,2024-12-17T10:42:47.650Z,42029,-0.12815833,-0.3950075,-0.79900837
1734432167653,2024-12-17T10:42:47.653Z,42032,-0.12815833,-0.3950075,-0.79900837
1734432167662,2024-12-17T10:42:47.662Z,42041,-0.19913514,-0.64064103,-0.89920187
1734432167664,2024-12-17T10:42:47.664Z,42043,-0.19913514,-0.64064103,-0.89920187
1734432167674,2024-12-17T10:42:47.674Z,42053,-0.16035035,-0.8358185,-0.92022556
1734432167678,2024-12-17T10:42:47.678Z,42057,-0.16035035,-0.8358185,-0.92022556
1734432167689,2024-12-17T10:42:47.689Z,42068,-0.111198455,-0.6855841,-0.949854
1734432167693,2024-12-17T10:42:47.693Z,42072,-0.111198455,-0.6855841,-0.949854
1734432167704,2024-12-17T10:42:47.704Z,42083,-0.037419774,-0.55571896,-0.89065176
1734432167708,2024-12-17T10:42:47.708Z,42087,-0.037419774,-0.55571896,-0.89065176
1734432167718,2024-12-17T10:42:47.718Z,42097,0.04171659,-0.4890979,-0.99336326
1734432167723,2024-12-17T10:42:47.723Z,42102,0.04171659,-0.4890979,-0.99336326
1734432167733,2024-12-17T10:42:47.733Z,42112,0.059283342,-0.50076115,-0.8975655
1734432167737,2024-12-17T10:42:47.737Z,42116,0.059283342,-0.50076115,-0.8975655
1734432167747,2024-12-17T10:42:47.747Z,42126,-0.07328829,-0.41334304,-0.739934
1734432167750,2024-12-17T10:42:47.750Z,42129,-0.07328829,-0.41334304,-0.739934
1734432167760,2024-12-17T10:42:47.760Z,42139,0.022588031,-0.16274011,-0.8363351
1734432167763,2024-12-17T10:42:47.763Z,42142,0.022588031,-0.16274011,-0.8363351
1734432167772,2024-12-17T10:42:47.772Z,42151,-0.06420797,-0.21416713,-0.8644907
1734432167775,2024-12-17T10:42:47.775Z,42154,-0.06420797,-0.21416713,-0.8644907
1734432167783,2024-12-17T10:42:47.783Z,42162,-0.15620117,-0.57401156,-0.9170693
1734432167786,2024-12-17T10:42:47.786Z,42165,-0.15620117,-0.57401156,-0.9170693
1734432167797,2024-12-17T10:42:47.797Z,42176,-0.07839348,-0.6408515,-0.9354162
1734432167801,2024-12-17T10:42:47.801Z,42180,-0.07839348,-0.6408515,-0.9354162
1734432167811,2024-12-17T10:42:47.811Z,42190,-0.05710652,-0.38263145,-0.85998905
1734432167814,2024-12-17T10:42:47.814Z,42193,-0.05710652,-0.38263145,-0.85998905
1734432167826,2024-12-17T10:42:47.826Z,42205,-0.049248848,-0.1374935,-0.8459288
1734432167829,2024-12-17T10:42:47.829Z,42208,-0.049248848,-0.1374935,-0.8459288
1734432167838,2024-12-17T10:42:47.838Z,42217,-0.15020148,-0.0654577,-0.88808763
1734432167842,2024-12-17T10:42:47.842Z,42221,-0.15020148,-0.0654577,-0.88808763
1734432167852,2024-12-17T10:42:47.852Z,42231,-0.32269663,-0.33673182,-0.91506785
1734432167856,2024-12-17T10:42:47.856Z,42235,-0.32269663,-0.33673182,-0.91506785
1734432167866,2024-12-17T10:42:47.866Z,42245,-0.29900017,-0.6428045,-0.8054377
1734432167869,2024-12-17T10:42:47.869Z,42248,-0.29900017,-0.6428045,-0.8054377
1734432167878,2024-12-17T10:42:47.878Z,42257,-0.15657337,-0.59079665,-0.7759954
1734432167881,2024-12-17T10:42:47.881Z,42260,-0.15657337,-0.59079665,-0.7759954
1734432167893,2024-12-17T10:42:47.893Z,42272,-0.1537751,-0.4296901,-0.77388287
1734432167896,2024-12-17T10:42:47.896Z,42275,-0.1537751,-0.4296901,-0.77388287
1734432167906,2024-12-17T10:42:47.906Z,42285,-0.09396502,-0.38375267,-0.75780195
1734432167910,2024-12-17T10:42:47.910Z,42289,-0.09396502,-0.38375267,-0.75780195
1734432167920,2024-12-17T10:42:47.920Z,42299,0.03840626,-0.28219503,-0.7905334
1734432167924,2024-12-17T10:42:47.924Z,42303,0.03840626,-0.28219503,-0.7905334
1734432167934,2024-12-17T10:42:47.934Z,42313,0.012297593,-0.13298786,-0.86251837
1734432167937,2024-12-17T10:42:47.937Z,42316,0.012297593,-0.13298786,-0.86251837
1734432167949,2024-12-17T10:42:47.949Z,42328,-0.092090294,-0.11692445,-0.93639845
1734432167953,2024-12-17T10:42:47.953Z,42332,-0.092090294,-0.11692445,-0.93639845
1734432167965,2024-12-17T10:42:47.965Z,42344,-0.19632737,-0.28560367,-0.9816153
1734432167969,2024-12-17T10:42:47.969Z,42348,-0.19632737,-0.28560367,-0.9816153
1734432167979,2024-12-17T10:42:47.979Z,42358,-0.090233825,-0.44602814,-1.033994
1734432167982,2024-12-17T10:42:47.982Z,42361,-0.090233825,-0.44602814,-1.033994
1734432167992,2024-12-17T10:42:47.992Z,42371,-0.09978721,-0.43341613,-1.0348743
1734432167995,2024-12-17T10:42:47.995Z,42374,-0.09978721,-0.43341613,-1.0348743
1734432168006,2024-12-17T10:42:48.006Z,42385,-0.222072,-0.47910428,-1.0255674
1734432168009,2024-12-17T10:42:48.009Z,42388,-0.222072,-0.47910428,-1.0255674
1734432168019,2024-12-17T10:42:48.019Z,42398,-0.16451916,-0.63991493,-0.99220026
1734432168023,2024-12-17T10:42:48.023Z,42402,-0.16451916,-0.63991493,-0.99220026
1734432168033,2024-12-17T10:42:48.033Z,42412,-0.020236569,-0.5726237,-0.91038495
1734432168036,2024-12-17T10:42:48.036Z,42415,-0.020236569,-0.5726237,-0.91038495
1734432168046,2024-12-17T10:42:48.046Z,42425,-0.0036830627,-0.38528624,-0.80251414
1734432168049,2024-12-17T10:42:48.049Z,42428,-0.0036830627,-0.38528624,-0.80251414
1734432168060,2024-12-17T10:42:48.060Z,42439,-0.03525445,-0.400366,-0.7613267
1734432168064,2024-12-17T10:42:48.064Z,42443,-0.03525445,-0.400366,-0.7613267
1734432168075,2024-12-17T10:42:48.075Z,42454,-0.052069325,-0.46862924,-0.7311023
1734432168079,2024-12-17T10:42:48.079Z,42458,-0.052069325,-0.46862924,-0.7311023
1734432168089,2024-12-17T10:42:48.089Z,42468,-0.08318964,-0.40953115,-0.6871096
1734432168096,2024-12-17T10:42:48.096Z,42475,-0.08318964,-0.40953115,-0.6871096
1734432168106,2024-12-17T10:42:48.106Z,42485,-0.18504888,-0.431086,-0.68872064
1734432168109,2024-12-17T10:42:48.109Z,42488,-0.18504888,-0.431086,-0.68872064
1734432168117,2024-12-17T10:42:48.117Z,42496,-0.26528183,-0.56700546,-0.7280138
1734432168121,2024-12-17T10:42:48.121Z,42500,-0.26528183,-0.56700546,-0.7280138
1734432168130,2024-12-17T10:42:48.130Z,42509,-0.17639518,-0.63652176,-0.70414627
1734432168133,2024-12-17T10:42:48.133Z,42512,-0.17639518,-0.63652176,-0.70414627
1734432168144,2024-12-17T10:42:48.144Z,42523,-0.11536889,-0.5796242,-0.69942397
1734432168149,2024-12-17T10:42:48.149Z,42528,-0.11536889,-0.5796242,-0.69942397
1734432168159,2024-12-17T10:42:48.159Z,42538,-0.08944983,-0.5519704,-0.68985164
1734432168163,2024-12-17T10:42:48.163Z,42542,-0.08944983,-0.5519704,-0.68985164
1734432168175,2024-12-17T10:42:48.175Z,42554,-0.055018786,-0.559387,-0.72182953
1734432168178,2024-12-17T10:42:48.178Z,42557,-0.055018786,-0.559387,-0.72182953
1734432168186,2024-12-17T10:42:48.186Z,42565,-0.09151505,-0.47049242,-0.73499686
1734432168189,2024-12-17T10:42:48.189Z,42568,-0.09151505,-0.47049242,-0.73499686
1734432168197,2024-12-17T10:42:48.197Z,42576,-0.107923396,-0.38316724,-0.69107413
1734432168200,2024-12-17T10:42:48.200Z,42579,-0.107923396,-0.38316724,-0.69107413
1734432168208,2024-12-17T10:42:48.208Z,42587,-0.12635565,-0.36607367,-0.7077174
1734432168211,2024-12-17T10:42:48.211Z,42590,-0.12635565,-0.36607367,-0.7077174
1734432168219,2024-12-17T10:42:48.219Z,42598,-0.22194326,-0.37145257,-0.74047
1734432168222,2024-12-17T10:42:48.222Z,42601,-0.22194326,-0.37145257,-0.74047
1734432168231,2024-12-17T10:42:48.231Z,42610,-0.2257826,-0.39686412,-0.7491539
1734432168234,2024-12-17T10:42:48.234Z,42613,-0.2257826,-0.39686412,-0.7491539
1734432168243,2024-12-17T10:42:48.243Z,42622,-0.09404716,-0.3094313,-0.7202337
1734432168246,2024-12-17T10:42:48.246Z,42625,-0.09404716,-0.3094313,-0.7202337
1734432168255,2024-12-17T10:42:48.255Z,42634,-0.12117736,-0.25667706,-0.6664474
1734432168258,2024-12-17T10:42:48.258Z,42637,-0.12117736,-0.25667706,-0.6664474
1734432168267,2024-12-17T10:42:48.267Z,42646,-0.20231444,-0.36216053,-0.7356953
1734432168270,2024-12-17T10:42:48.270Z,42649,-0.20231444,-0.36216053,-0.7356953
1734432168279,2024-12-17T10:42:48.279Z,42658,-0.14554714,-0.36005858,-0.7543069
1734432168282,2024-12-17T10:42:48.282Z,42661,-0.14554714,-0.36005858,-0.7543069
1734432168291,2024-12-17T10:42:48.291Z,42670,-0.26373193,-0.3114386,-0.72664034
1734432168293,2024-12-17T10:42:48.293Z,42672,-0.26373193,-0.3114386,-0.72664034
1734432168301,2024-12-17T10:42:48.301Z,42680,-0.28477672,-0.36799267,-0.7007323
1734432168304,2024-12-17T10:42:48.304Z,42683,-0.28477672,-0.36799267,-0.7007323
1734432168314,2024-12-17T10:42:48.314Z,42693,-0.15334545,-0.37672818,-0.6638857
1734432168316,2024-12-17T10:42:48.316Z,42695,-0.15334545,-0.37672818,-0.6638857
1734432168327,2024-12-17T10:42:48.327Z,42706,-0.06670741,-0.30616665,-0.63929045
1734432168330,2024-12-17T10:42:48.330Z,42709,-0.06670741,-0.30616665,-0.63929045
1734432168340,2024-12-17T10:42:48.340Z,42719,-0.028915185,-0.21650234,-0.63613755
1734432168343,2024-12-17T10:42:48.343Z,42722,-0.028915185,-0.21650234,-0.63613755
1734432168350,2024-12-17T10:42:48.350Z,42729,-0.045679417,-0.16661768,-0.6944105
1734432168353,2024-12-17T10:42:48.353Z,42732,-0.045679417,-0.16661768,-0.6944105
1734432168362,2024-12-17T10:42:48.362Z,42741,-0.15360175,-0.2229425,-0.7454344
1734432168365,2024-12-17T10:42:48.365Z,42744,-0.15360175,-0.2229425,-0.7454344
1734432168376,2024-12-17T10:42:48.376Z,42755,-0.17325719,-0.45812514,-0.7241884
1734432168379,2024-12-17T10:42:48.379Z,42758,-0.17325719,-0.45812514,-0.7241884
1734432168390,2024-12-17T10:42:48.390Z,42769,-0.2122098,-0.5872392,-0.78006303
1734432168393,2024-12-17T10:42:48.393Z,42772,-0.2122098,-0.5872392,-0.78006303
1734432168401,2024-12-17T10:42:48.401Z,42780,-0.32852623,-0.5441605,-0.83611816
1734432168404,2024-12-17T10:42:48.404Z,42783,-0.32852623,-0.5441605,-0.83611816
1734432168413,2024-12-17T10:42:48.413Z,42792,-0.26035553,-0.5134228,-0.8118439
1734432168415,2024-12-17T10:42:48.415Z,42794,-0.26035553,-0.5134228,-0.8118439
1734432168424,2024-12-17T10:42:48.424Z,42803,-0.12877017,-0.47019464,-0.7924443
1734432168427,2024-12-17T10:42:48.427Z,42806,-0.12877017,-0.47019464,-0.7924443
1734432168434,2024-12-17T10:42:48.434Z,42813,-0.17075567,-0.37631696,-0.79023
1734432168437,2024-12-17T10:42:48.437Z,42816,-0.17075567,-0.37631696,-0.79023
1734432168445,2024-12-17T10:42:48.445Z,42824,-0.11391572,-0.35049495,-0.80452555
1734432168448,2024-12-17T10:42:48.448Z,42827,-0.11391572,-0.35049495,-0.80452555
1734432168460,2024-12-17T10:42:48.460Z,42839,-0.100537226,-0.3777385,-0.81639415
1734432168462,2024-12-17T10:42:48.462Z,42841,-0.100537226,-0.3777385,-0.81639415
1734432168470,2024-12-17T10:42:48.470Z,42849,-0.20655939,-0.47481108,-0.82195187
1734432168472,2024-12-17T10:42:48.472Z,42851,-0.20655939,-0.47481108,-0.82195187
1734432168480,2024-12-17T10:42:48.480Z,42859,-0.2165983,-0.5644366,-0.86465394
1734432168482,2024-12-17T10:42:48.482Z,42861,-0.2165983,-0.5644366,-0.86465394
1734432168491,2024-12-17T10:42:48.491Z,42870,-0.15630303,-0.5470848,-0.92128694
1734432168494,2024-12-17T10:42:48.494Z,42873,-0.15630303,-0.5470848,-0.92128694
1734432168503,2024-12-17T10:42:48.503Z,42882,-0.22626105,-0.46876714,-0.9534095
1734432168505,2024-12-17T10:42:48.505Z,42884,-0.22626105,-0.46876714,-0.9534095
1734432168514,2024-12-17T10:42:48.514Z,42893,-0.25020888,-0.44062153,-0.89933586
1734432168518,2024-12-17T10:42:48.518Z,42897,-0.25020888,-0.44062153,-0.89933586
1734432168530,2024-12-17T10:42:48.530Z,42909,-0.2353958,-0.5323255,-0.8028108
1734432168535,2024-12-17T10:42:48.535Z,42914,-0.2353958,-0.5323255,-0.8028108
1734432168545,2024-12-17T10:42:48.545Z,42924,-0.092116,-0.64079684,-0.8072766
1734432168548,2024-12-17T10:42:48.548Z,42927,-0.092116,-0.64079684,-0.8072766
1734432168556,2024-12-17T10:42:48.556Z,42935,0.0031208373,-0.6917427,-0.73508155
1734432168559,2024-12-17T10:42:48.559Z,42938,0.0031208373,-0.6917427,-0.73508155
1734432168568,2024-12-17T10:42:48.568Z,42947,0.025462441,-0.57316196,-0.69907385
1734432168571,2024-12-17T10:42:48.571Z,42950,0.025462441,-0.57316196,-0.69907385
1734432168580,2024-12-17T10:42:48.580Z,42959,-0.051936444,-0.32407102,-0.6852843
1734432168583,2024-12-17T10:42:48.583Z,42962,-0.051936444,-0.32407102,-0.6852843
1734432168591,2024-12-17T10:42:48.591Z,42970,-0.09889859,-0.30218115,-0.77154094
1734432168594,2024-12-17T10:42:48.594Z,42973,-0.09889859,-0.30218115,-0.77154094
1734432168602,2024-12-17T10:42:48.602Z,42981,-0.23888727,-0.33699116,-0.7197204
1734432168605,2024-12-17T10:42:48.605Z,42984,-0.23888727,-0.33699116,-0.7197204
1734432168613,2024-12-17T10:42:48.613Z,42992,-0.31179348,-0.46166408,-0.83490443
1734432168616,2024-12-17T10:42:48.616Z,42995,-0.31179348,-0.46166408,-0.83490443
1734432168627,2024-12-17T10:42:48.627Z,43006,-0.3336256,-0.6172513,-0.74892724
1734432168630,2024-12-17T10:42:48.630Z,43009,-0.3336256,-0.6172513,-0.74892724
1734432168640,2024-12-17T10:42:48.640Z,43019,-0.3452286,-0.7051281,-0.65565544
1734432168644,2024-12-17T10:42:48.644Z,43023,-0.3452286,-0.7051281,-0.65565544
1734432168653,2024-12-17T10:42:48.653Z,43032,-0.17149734,-0.6780661,-0.8057257
1734432168656,2024-12-17T10:42:48.656Z,43035,-0.17149734,-0.6780661,-0.8057257
1734432168665,2024-12-17T10:42:48.665Z,43044,-0.15659204,-0.5149737,-0.78967077
1734432168668,2024-12-17T10:42:48.668Z,43047,-0.15659204,-0.5149737,-0.78967077
1734432168677,2024-12-17T10:42:48.677Z,43056,-0.09953363,-0.39912105,-0.6258868
1734432168679,2024-12-17T10:42:48.679Z,43058,-0.09953363,-0.39912105,-0.6258868
1734432168687,2024-12-17T10:42:48.687Z,43066,-0.026979348,-0.33827794,-0.57956266
1734432168689,2024-12-17T10:42:48.689Z,43068,-0.026979348,-0.33827794,-0.57956266
1734432168698,2024-12-17T10:42:48.698Z,43077,-0.028774098,-0.4869328,-0.58504736
1734432168701,2024-12-17T10:42:48.701Z,43080,-0.028774098,-0.4869328,-0.58504736
1734432168712,2024-12-17T10:42:48.712Z,43091,0.014683116,-0.6785212,-0.49778163
1734432168714,2024-12-17T10:42:48.714Z,43093,0.014683116,-0.6785212,-0.49778163
1734432168723,2024-12-17T10:42:48.723Z,43102,-0.16903122,-0.7497292,-0.39292943
1734432168725,2024-12-17T10:42:48.725Z,43104,-0.16903122,-0.7497292,-0.39292943
1734432168735,2024-12-17T10:42:48.735Z,43114,-0.1129684,-0.8656301,-0.33470786
1734432168740,2024-12-17T10:42:48.740Z,43119,-0.1129684,-0.8656301,-0.33470786
1734432168749,2024-12-17T10:42:48.749Z,43128,-0.06751682,-0.8371304,-0.51915616
1734432168751,2024-12-17T10:42:48.751Z,43130,-0.06751682,-0.8371304,-0.51915616
1734432168761,2024-12-17T10:42:48.761Z,43140,-0.3428019,-0.7934196,-0.6028069
1734432168764,2024-12-17T10:42:48.764Z,43143,-0.3428019,-0.7934196,-0.6028069
1734432168774,2024-12-17T10:42:48.774Z,43153,-0.33803812,-0.878075,-0.6170046
1734432168778,2024-12-17T10:42:48.778Z,43157,-0.33803812,-0.878075,-0.6170046
1734432168786,2024-12-17T10:42:48.786Z,43165,-0.19541569,-0.93483526,-0.65651554
1734432168789,2024-12-17T10:42:48.789Z,43168,-0.19541569,-0.93483526,-0.65651554
1734432168798,2024-12-17T10:42:48.798Z,43177,-0.28350613,-0.99160594,-0.6823388
1734432168800,2024-12-17T10:42:48.800Z,43179,-0.28350613,-0.99160594,-0.6823388
1734432168809,2024-12-17T10:42:48.809Z,43188,-0.17285702,-1.0434395,-0.7275229
1734432168811,2024-12-17T10:42:48.811Z,43190,-0.17285702,-1.0434395,-0.7275229
1734432168819,2024-12-17T10:42:48.819Z,43198,-0.09283227,-0.97712755,-0.6531713
1734432168821,2024-12-17T10:42:48.821Z,43200,-0.09283227,-0.97712755,-0.6531713
1734432168829,2024-12-17T10:42:48.829Z,43208,-0.20452765,-0.96220285,-0.57716054
1734432168831,2024-12-17T10:42:48.831Z,43210,-0.20452765,-0.96220285,-0.57716054
1734432168839,2024-12-17T10:42:48.839Z,43218,-0.19359998,-1.0963401,-0.5916752
1734432168842,2024-12-17T10:42:48.842Z,43221,-0.19359998,-1.0963401,-0.5916752
1734432168849,2024-12-17T10:42:48.849Z,43228,-0.1016448,-1.1400491,-0.652641
1734432168852,2024-12-17T10:42:48.852Z,43231,-0.1016448,-1.1400491,-0.652641
1734432168861,2024-12-17T10:42:48.861Z,43240,-0.07931882,-1.0857897,-0.55234176
1734432168863,2024-12-17T10:42:48.863Z,43242,-0.07931882,-1.0857897,-0.55234176
1734432168872,2024-12-17T10:42:48.872Z,43251,-0.026709352,-1.0159197,-0.52540195
1734432168875,2024-12-17T10:42:48.875Z,43254,-0.026709352,-1.0159197,-0.52540195
1734432168882,2024-12-17T10:42:48.882Z,43261,-0.10802151,-1.0166732,-0.5387035
1734432168885,2024-12-17T10:42:48.885Z,43264,-0.10802151,-1.0166732,-0.5387035
1734432168893,2024-12-17T10:42:48.893Z,43272,-0.10038405,-1.0345472,-0.669533
1734432168896,2024-12-17T10:42:48.896Z,43275,-0.10038405,-1.0345472,-0.669533
1734432168905,2024-12-17T10:42:48.905Z,43284,0.056330524,-0.96034026,-0.64834917
1734432168908,2024-12-17T10:42:48.908Z,43287,0.056330524,-0.96034026,-0.64834917
1734432168915,2024-12-17T10:42:48.915Z,43294,0.08414659,-0.96682143,-0.42484447
1734432168918,2024-12-17T10:42:48.918Z,43297,0.08414659,-0.96682143,-0.42484447
1734432168926,2024-12-17T10:42:48.926Z,43305,0.106417395,-1.1004198,-0.37148142
1734432168928,2024-12-17T10:42:48.928Z,43307,0.106417395,-1.1004198,-0.37148142
1734432168937,2024-12-17T10:42:48.937Z,43316,0.033401437,-1.1770946,-0.5977166
1734432168940,2024-12-17T10:42:48.940Z,43319,0.033401437,-1.1770946,-0.5977166
1734432168955,2024-12-17T10:42:48.955Z,43334,-0.24949239,-1.233503,-0.7574851
1734432168958,2024-12-17T10:42:48.958Z,43337,-0.24949239,-1.233503,-0.7574851
1734432168966,2024-12-17T10:42:48.966Z,43345,-0.28214476,-1.2343017,-0.8647965
1734432168968,2024-12-17T10:42:48.968Z,43347,-0.28214476,-1.2343017,-0.8647965
1734432168976,2024-12-17T10:42:48.976Z,43355,-0.23503883,-1.201459,-0.8010341
1734432168979,2024-12-17T10:42:48.979Z,43358,-0.23503883,-1.201459,-0.8010341
1734432168987,2024-12-17T10:42:48.987Z,43366,-0.070500486,-1.1602376,-0.682482
1734432168990,2024-12-17T10:42:48.990Z,43369,-0.070500486,-1.1602376,-0.682482
1734432168999,2024-12-17T10:42:48.999Z,43378,0.0014637909,-1.1388736,-0.59812033
1734432169002,2024-12-17T10:42:49.002Z,43381,0.0014637909,-1.1388736,-0.59812033
1734432169010,2024-12-17T10:42:49.010Z,43389,-0.060799923,-1.1805133,-0.61875117
1734432169013,2024-12-17T10:42:49.013Z,43392,-0.060799923,-1.1805133,-0.61875117
1734432169023,2024-12-17T10:42:49.023Z,43402,0.0029329727,-1.2383852,-0.6060351
1734432169026,2024-12-17T10:42:49.026Z,43405,0.0029329727,-1.2383852,-0.6060351
1734432169035,2024-12-17T10:42:49.035Z,43414,-0.041162714,-1.2572746,-0.5956575
1734432169038,2024-12-17T10:42:49.038Z,43417,-0.041162714,-1.2572746,-0.5956575
1734432169047,2024-12-17T10:42:49.047Z,43426,-0.115965016,-1.2161148,-0.61645967
1734432169049,2024-12-17T10:42:49.049Z,43428,-0.115965016,-1.2161148,-0.61645967
1734432169058,2024-12-17T10:42:49.058Z,43437,0.058621295,-1.1441149,-0.57223386
1734432169061,2024-12-17T10:42:49.061Z,43440,0.058621295,-1.1441149,-0.57223386
1734432169069,2024-12-17T10:42:49.069Z,43448,0.13449447,-1.0485096,-0.5749106
1734432169072,2024-12-17T10:42:49.072Z,43451,0.13449447,-1.0485096,-0.5749106
1734432169081,2024-12-17T10:42:49.081Z,43460,-0.014165084,-1.013002,-0.5502548
1734432169084,2024-12-17T10:42:49.084Z,43463,-0.014165084,-1.013002,-0.5502548
1734432169092,2024-12-17T10:42:49.092Z,43471,-0.045490276,-1.0125226,-0.46298295
1734432169095,2024-12-17T10:42:49.095Z,43474,-0.045490276,-1.0125226,-0.46298295
1734432169102,2024-12-17T10:42:49.102Z,43481,0.03428874,-1.0307676,-0.45280442
1734432169105,2024-12-17T10:42:49.105Z,43484,0.03428874,-1.0307676,-0.45280442
1734432169115,2024-12-17T10:42:49.115Z,43494,0.03630889,-1.0852565,-0.4343283
1734432169119,2024-12-17T10:42:49.119Z,43498,0.03630889,-1.0852565,-0.4343283
1734432169128,2024-12-17T10:42:49.128Z,43507,-0.011424552,-1.0862762,-0.4714361
1734432169131,2024-12-17T10:42:49.131Z,43510,-0.011424552,-1.0862762,-0.4714361
1734432169138,2024-12-17T10:42:49.138Z,43517,-0.23774582,-1.0222721,-0.6412885
1734432169141,2024-12-17T10:42:49.141Z,43520,-0.23774582,-1.0222721,-0.6412885
1734432169149,2024-12-17T10:42:49.149Z,43528,-0.2349424,-1.0388699,-0.65632665
1734432169152,2024-12-17T10:42:49.152Z,43531,-0.2349424,-1.0388699,-0.65632665
1734432169162,2024-12-17T10:42:49.162Z,43541,0.02738236,-1.1039366,-0.53216034
1734432169164,2024-12-17T10:42:49.164Z,43543,0.02738236,-1.1039366,-0.53216034
1734432169172,2024-12-17T10:42:49.172Z,43551,0.029527603,-1.0957973,-0.43296623
1734432169175,2024-12-17T10:42:49.175Z,43554,0.029527603,-1.0957973,-0.43296623
1734432169184,2024-12-17T10:42:49.184Z,43563,-0.03866394,-1.1540575,-0.3324475
1734432169186,2024-12-17T10:42:49.186Z,43565,-0.03866394,-1.1540575,-0.3324475
1734432169195,2024-12-17T10:42:49.195Z,43574,0.075321294,-1.222069,-0.39995646
1734432169197,2024-12-17T10:42:49.197Z,43576,0.075321294,-1.222069,-0.39995646
1734432169205,2024-12-17T10:42:49.205Z,43584,0.096028484,-1.1341418,-0.59152097
1734432169207,2024-12-17T10:42:49.207Z,43586,0.096028484,-1.1341418,-0.59152097
1734432169217,2024-12-17T10:42:49.217Z,43596,-0.032611586,-1.0171707,-0.6644272
1734432169220,2024-12-17T10:42:49.220Z,43599,-0.032611586,-1.0171707,-0.6644272
1734432169230,2024-12-17T10:42:49.230Z,43609,-0.07187823,-1.0164638,-0.67769045
1734432169233,2024-12-17T10:42:49.233Z,43612,-0.07187823,-1.0164638,-0.67769045
1734432169241,2024-12-17T10:42:49.241Z,43620,0.0091445185,-1.053154,-0.59763575
1734432169244,2024-12-17T10:42:49.244Z,43623,0.0091445185,-1.053154,-0.59763575
1734432169252,2024-12-17T10:42:49.252Z,43631,0.04055159,-1.0853757,-0.5351407
1734432169256,2024-12-17T10:42:49.256Z,43635,0.04055159,-1.0853757,-0.5351407
1734432169265,2024-12-17T10:42:49.265Z,43644,0.021578727,-1.0898447,-0.5185351
1734432169267,2024-12-17T10:42:49.267Z,43646,0.021578727,-1.0898447,-0.5185351
1734432169277,2024-12-17T10:42:49.277Z,43656,0.03275988,-1.0611517,-0.4652914
1734432169280,2024-12-17T10:42:49.280Z,43659,0.03275988,-1.0611517,-0.4652914
1734432169288,2024-12-17T10:42:49.288Z,43667,-8.3282334E-4,-1.040587,-0.5180423
1734432169291,2024-12-17T10:42:49.291Z,43670,-8.3282334E-4,-1.040587,-0.5180423
1734432169299,2024-12-17T10:42:49.299Z,43678,-0.04605881,-1.0065427,-0.6181824
1734432169301,2024-12-17T10:42:49.301Z,43680,-0.04605881,-1.0065427,-0.6181824
1734432169309,2024-12-17T10:42:49.309Z,43688,-0.05199772,-0.93524915,-0.61773235
1734432169312,2024-12-17T10:42:49.312Z,43691,-0.05199772,-0.93524915,-0.61773235
1734432169320,2024-12-17T10:42:49.320Z,43699,-0.060129248,-0.9453032,-0.58456165
1734432169323,2024-12-17T10:42:49.323Z,43702,-0.060129248,-0.9453032,-0.58456165
1734432169331,2024-12-17T10:42:49.331Z,43710,-0.019743832,-1.0522022,-0.6123772
1734432169334,2024-12-17T10:42:49.334Z,43713,-0.019743832,-1.0522022,-0.6123772
1734432169343,2024-12-17T10:42:49.343Z,43722,0.038424324,-1.1098552,-0.6264468
1734432169347,2024-12-17T10:42:49.347Z,43726,0.038424324,-1.1098552,-0.6264468
1734432169358,2024-12-17T10:42:49.358Z,43737,0.018144216,-1.0775517,-0.5579286
1734432169361,2024-12-17T10:42:49.361Z,43740,0.018144216,-1.0775517,-0.5579286
1734432169370,2024-12-17T10:42:49.370Z,43749,0.011744977,-1.0544206,-0.54844916
1734432169373,2024-12-17T10:42:49.373Z,43752,0.011744977,-1.0544206,-0.54844916
1734432169382,2024-12-17T10:42:49.382Z,43761,-0.0027840987,-0.9819667,-0.5696876
1734432169385,2024-12-17T10:42:49.385Z,43764,-0.0027840987,-0.9819667,-0.5696876
1734432169395,2024-12-17T10:42:49.395Z,43774,-0.08923257,-0.9158148,-0.58018315
1734432169398,2024-12-17T10:42:49.398Z,43777,-0.08923257,-0.9158148,-0.58018315
1734432169406,2024-12-17T10:42:49.406Z,43785,-0.15187445,-0.98197776,-0.5828826
1734432169408,2024-12-17T10:42:49.408Z,43787,-0.15187445,-0.98197776,-0.5828826
1734432169416,2024-12-17T10:42:49.416Z,43795,-0.032404445,-1.0602561,-0.5206083
1734432169418,2024-12-17T10:42:49.418Z,43797,-0.032404445,-1.0602561,-0.5206083
1734432169427,2024-12-17T10:42:49.427Z,43806,0.092800185,-1.0545603,-0.44657964
1734432169431,2024-12-17T10:42:49.431Z,43810,0.092800185,-1.0545603,-0.44657964
1734432169440,2024-12-17T10:42:49.440Z,43819,0.024896393,-1.0429616,-0.40229392
1734432169443,2024-12-17T10:42:49.443Z,43822,0.024896393,-1.0429616,-0.40229392
1734432169450,2024-12-17T10:42:49.450Z,43829,-0.12520611,-1.0504755,-0.4468032
1734432169452,2024-12-17T10:42:49.452Z,43831,-0.12520611,-1.0504755,-0.4468032
1734432169460,2024-12-17T10:42:49.460Z,43839,-0.15610793,-1.0158144,-0.5659287
1734432169462,2024-12-17T10:42:49.462Z,43841,-0.15610793,-1.0158144,-0.5659287
1734432169469,2024-12-17T10:42:49.469Z,43848,-0.16202004,-0.90607244,-0.5404497
1734432169472,2024-12-17T10:42:49.472Z,43851,-0.16202004,-0.90607244,-0.5404497
1734432169480,2024-12-17T10:42:49.480Z,43859,-0.12259753,-0.8574315,-0.47780913
1734432169483,2024-12-17T10:42:49.483Z,43862,-0.12259753,-0.8574315,-0.47780913
1734432169493,2024-12-17T10:42:49.493Z,43872,-0.026301853,-0.884866,-0.45216367
1734432169496,2024-12-17T10:42:49.496Z,43875,-0.026301853,-0.884866,-0.45216367
1734432169504,2024-12-17T10:42:49.504Z,43883,-0.014884893,-0.84921664,-0.4947986
1734432169507,2024-12-17T10:42:49.507Z,43886,-0.014884893,-0.84921664,-0.4947986
1734432169514,2024-12-17T10:42:49.514Z,43893,-0.018252058,-0.8177844,-0.51006323
1734432169517,2024-12-17T10:42:49.517Z,43896,-0.018252058,-0.8177844,-0.51006323
1734432169524,2024-12-17T10:42:49.524Z,43903,0.016224936,-0.87562513,-0.54089475
1734432169527,2024-12-17T10:42:49.527Z,43906,0.016224936,-0.87562513,-0.54089475
1734432169534,2024-12-17T10:42:49.534Z,43913,-0.033908453,-0.8660153,-0.5790923
1734432169536,2024-12-17T10:42:49.536Z,43915,-0.033908453,-0.8660153,-0.5790923
1734432169544,2024-12-17T10:42:49.544Z,43923,-0.23969665,-0.7834549,-0.5914427
1734432169547,2024-12-17T10:42:49.547Z,43926,-0.23969665,-0.7834549,-0.5914427
1734432169557,2024-12-17T10:42:49.557Z,43936,-0.38290095,-0.81196415,-0.63102084
1734432169560,2024-12-17T10:42:49.560Z,43939,-0.38290095,-0.81196415,-0.63102084
1734432169568,2024-12-17T10:42:49.568Z,43947,-0.1946747,-0.9239752,-0.6186334
1734432169570,2024-12-17T10:42:49.570Z,43949,-0.1946747,-0.9239752,-0.6186334
1734432169578,2024-12-17T10:42:49.578Z,43957,0.025902165,-0.9529948,-0.5480156
1734432169580,2024-12-17T10:42:49.580Z,43959,0.025902165,-0.9529948,-0.5480156
1734432169587,2024-12-17T10:42:49.587Z,43966,-0.040201172,-0.9356435,-0.5823524
1734432169590,2024-12-17T10:42:49.590Z,43969,-0.040201172,-0.9356435,-0.5823524
1734432169597,2024-12-17T10:42:49.597Z,43976,-0.13123654,-0.8533552,-0.6674512
1734432169599,2024-12-17T10:42:49.599Z,43978,-0.13123654,-0.8533552,-0.6674512
1734432169607,2024-12-17T10:42:49.607Z,43986,-0.0826943,-0.667864,-0.7140199
1734432169609,2024-12-17T10:42:49.609Z,43988,-0.0826943,-0.667864,-0.7140199
1734432169617,2024-12-17T10:42:49.617Z,43996,-0.15755396,-0.5116748,-0.6937961
1734432169619,2024-12-17T10:42:49.619Z,43998,-0.15755396,-0.5116748,-0.6937961
1734432169630,2024-12-17T10:42:49.630Z,44009,-0.2762622,-0.61737275,-0.6432075
1734432169633,2024-12-17T10:42:49.633Z,44012,-0.2762622,-0.61737275,-0.6432075
1734432169641,2024-12-17T10:42:49.641Z,44020,-0.2465303,-1.0209386,-0.5805718
1734432169644,2024-12-17T10:42:49.644Z,44023,-0.2465303,-1.0209386,-0.5805718
1734432169651,2024-12-17T10:42:49.651Z,44030,-0.08077129,-1.2795807,-0.49238214
1734432169653,2024-12-17T10:42:49.653Z,44032,-0.08077129,-1.2795807,-0.49238214
1734432169661,2024-12-17T10:42:49.661Z,44040,-0.050077327,-1.156888,-0.5244202
1734432169664,2024-12-17T10:42:49.664Z,44043,-0.050077327,-1.156888,-0.5244202
1734432169671,2024-12-17T10:42:49.671Z,44050,-0.229528,-0.85375637,-0.61572933
1734432169674,2024-12-17T10:42:49.674Z,44053,-0.229528,-0.85375637,-0.61572933
1734432169684,2024-12-17T10:42:49.684Z,44063,-0.3483529,-0.6474613,-0.69522977
1734432169686,2024-12-17T10:42:49.686Z,44065,-0.3483529,-0.6474613,-0.69522977
1734432169694,2024-12-17T10:42:49.694Z,44073,-0.2944865,-0.4439472,-0.7321612
1734432169699,2024-12-17T10:42:49.699Z,44078,-0.2944865,-0.4439472,-0.7321612
1734432169710,2024-12-17T10:42:49.710Z,44089,-0.2169103,-0.343146,-0.70220935
1734432169713,2024-12-17T10:42:49.713Z,44092,-0.2169103,-0.343146,-0.70220935
1734432169725,2024-12-17T10:42:49.725Z,44104,-0.024206853,-0.59072244,-0.6300818
1734432169729,2024-12-17T10:42:49.729Z,44108,-0.024206853,-0.59072244,-0.6300818
1734432169738,2024-12-17T10:42:49.738Z,44117,-0.04451505,-0.9234272,-0.541326
1734432169741,2024-12-17T10:42:49.741Z,44120,-0.04451505,-0.9234272,-0.541326
1734432169751,2024-12-17T10:42:49.751Z,44130,-0.21316344,-1.1202079,-0.56013864
1734432169755,2024-12-17T10:42:49.755Z,44134,-0.21316344,-1.1202079,-0.56013864
1734432169764,2024-12-17T10:42:49.764Z,44143,-0.15553184,-1.2206793,-0.6389428
1734432169767,2024-12-17T10:42:49.767Z,44146,-0.15553184,-1.2206793,-0.6389428
1734432169779,2024-12-17T10:42:49.779Z,44158,-0.21575859,-1.1044978,-0.78626883
1734432169782,2024-12-17T10:42:49.782Z,44161,-0.21575859,-1.1044978,-0.78626883
1734432169791,2024-12-17T10:42:49.791Z,44170,-0.30791914,-0.721711,-0.73682165
1734432169794,2024-12-17T10:42:49.794Z,44173,-0.30791914,-0.721711,-0.73682165
1734432169802,2024-12-17T10:42:49.802Z,44181,-0.082187474,-0.4111347,-0.64552563
1734432169804,2024-12-17T10:42:49.804Z,44183,-0.082187474,-0.4111347,-0.64552563
1734432169812,2024-12-17T10:42:49.812Z,44191,-0.06256158,-0.3131812,-0.6875125
1734432169814,2024-12-17T10:42:49.814Z,44193,-0.06256158,-0.3131812,-0.6875125
1734432169821,2024-12-17T10:42:49.821Z,44200,-0.08015162,-0.4626961,-0.6746662
1734432169824,2024-12-17T10:42:49.824Z,44203,-0.08015162,-0.4626961,-0.6746662
1734432169832,2024-12-17T10:42:49.832Z,44211,0.044043623,-0.75488454,-0.59960634
1734432169834,2024-12-17T10:42:49.834Z,44213,0.044043623,-0.75488454,-0.59960634
1734432169844,2024-12-17T10:42:49.844Z,44223,-0.057491116,-0.9652288,-0.599283
1734432169847,2024-12-17T10:42:49.847Z,44226,-0.057491116,-0.9652288,-0.599283
1734432169856,2024-12-17T10:42:49.856Z,44235,-0.26700172,-1.1205536,-0.6944256
1734432169859,2024-12-17T10:42:49.859Z,44238,-0.26700172,-1.1205536,-0.6944256
1734432169868,2024-12-17T10:42:49.868Z,44247,-0.3035199,-1.099237,-0.61898285
1734432169872,2024-12-17T10:42:49.872Z,44251,-0.3035199,-1.099237,-0.61898285
1734432169880,2024-12-17T10:42:49.880Z,44259,-0.26970837,-0.8207925,-0.5886153
1734432169883,2024-12-17T10:42:49.883Z,44262,-0.26970837,-0.8207925,-0.5886153
1734432169891,2024-12-17T10:42:49.891Z,44270,-0.14188126,-0.5688701,-0.6667391
1734432169893,2024-12-17T10:42:49.893Z,44272,-0.14188126,-0.5688701,-0.6667391
1734432169900,2024-12-17T10:42:49.900Z,44279,-0.10247394,-0.39223814,-0.7801819
1734432169902,2024-12-17T10:42:49.902Z,44281,-0.10247394,-0.39223814,-0.7801819
1734432169910,2024-12-17T10:42:49.910Z,44289,-0.117846,-0.27551335,-0.8558005
1734432169913,2024-12-17T10:42:49.913Z,44292,-0.117846,-0.27551335,-0.8558005
1734432169921,2024-12-17T10:42:49.921Z,44300,-0.107801646,-0.29914021,-0.86508554
1734432169924,2024-12-17T10:42:49.924Z,44303,-0.107801646,-0.29914021,-0.86508554
1734432169933,2024-12-17T10:42:49.933Z,44312,-0.29064384,-0.46361682,-0.90611035
1734432169935,2024-12-17T10:42:49.935Z,44314,-0.29064384,-0.46361682,-0.90611035
1734432169942,2024-12-17T10:42:49.942Z,44321,-0.4280976,-0.86090565,-0.85082006
1734432169945,2024-12-17T10:42:49.945Z,44324,-0.4280976,-0.86090565,-0.85082006
1734432169951,2024-12-17T10:42:49.951Z,44330,-0.37331435,-1.0161434,-0.7779651
1734432169954,2024-12-17T10:42:49.954Z,44333,-0.37331435,-1.0161434,-0.7779651
1734432169962,2024-12-17T10:42:49.962Z,44341,-0.23212181,-0.76900554,-0.7078278
1734432169965,2024-12-17T10:42:49.965Z,44344,-0.23212181,-0.76900554,-0.7078278
1734432169974,2024-12-17T10:42:49.974Z,44353,-0.043764047,-0.6951079,-0.66784686
1734432169977,2024-12-17T10:42:49.977Z,44356,-0.043764047,-0.6951079,-0.66784686
1734432169986,2024-12-17T10:42:49.986Z,44365,-0.06704439,-0.61988026,-0.7859905
1734432169988,2024-12-17T10:42:49.988Z,44367,-0.06704439,-0.61988026,-0.7859905
1734432169997,2024-12-17T10:42:49.997Z,44376,-0.053708307,-0.4339766,-0.74530524
1734432170000,2024-12-17T10:42:50Z,44379,-0.053708307,-0.4339766,-0.74530524
1734432170008,2024-12-17T10:42:50.008Z,44387,0.12434314,-0.26884815,-0.71320057
1734432170011,2024-12-17T10:42:50.011Z,44390,0.12434314,-0.26884815,-0.71320057
1734432170019,2024-12-17T10:42:50.019Z,44398,-0.009668039,-0.13538307,-0.81543815
1734432170022,2024-12-17T10:42:50.022Z,44401,-0.009668039,-0.13538307,-0.81543815
1734432170030,2024-12-17T10:42:50.030Z,44409,-0.10253805,-0.37098786,-0.7779602
1734432170032,2024-12-17T10:42:50.032Z,44411,-0.10253805,-0.37098786,-0.7779602
1734432170041,2024-12-17T10:42:50.041Z,44420,-0.18452328,-0.794759,-0.7923198
1734432170044,2024-12-17T10:42:50.044Z,44423,-0.18452328,-0.794759,-0.7923198
1734432170051,2024-12-17T10:42:50.051Z,44430,-0.33454525,-0.9871867,-0.7117853
1734432170054,2024-12-17T10:42:50.054Z,44433,-0.33454525,-0.9871867,-0.7117853
1734432170061,2024-12-17T10:42:50.061Z,44440,-0.27453506,-0.94802207,-0.6682946
1734432170063,2024-12-17T10:42:50.063Z,44442,-0.27453506,-0.94802207,-0.6682946
1734432170070,2024-12-17T10:42:50.070Z,44449,-0.18388672,-0.7102734,-0.7971135
1734432170072,2024-12-17T10:42:50.072Z,44451,-0.18388672,-0.7102734,-0.7971135
1734432170079,2024-12-17T10:42:50.079Z,44458,-0.024667855,-0.4503288,-0.8397565
1734432170081,2024-12-17T10:42:50.081Z,44460,-0.024667855,-0.4503288,-0.8397565
1734432170088,2024-12-17T10:42:50.088Z,44467,0.054051064,-0.3046828,-0.7267029
1734432170091,2024-12-17T10:42:50.091Z,44470,0.054051064,-0.3046828,-0.7267029
1734432170099,2024-12-17T10:42:50.099Z,44478,-0.30008096,-0.2798423,-0.5983405
1734432170101,2024-12-17T10:42:50.101Z,44480,-0.30008096,-0.2798423,-0.5983405
1734432170110,2024-12-17T10:42:50.110Z,44489,-0.18648711,-0.40890652,-0.8447856
1734432170114,2024-12-17T10:42:50.114Z,44493,-0.18648711,-0.40890652,-0.8447856
1734432170120,2024-12-17T10:42:50.120Z,44499,-0.03388664,-0.5598758,-0.92984384
1734432170123,2024-12-17T10:42:50.123Z,44502,-0.03388664,-0.5598758,-0.92984384
1734432170131,2024-12-17T10:42:50.131Z,44510,-0.25292143,-0.679309,-0.8523276
1734432170133,2024-12-17T10:42:50.133Z,44512,-0.25292143,-0.679309,-0.8523276
1734432170143,2024-12-17T10:42:50.143Z,44522,-0.38296422,-0.6492662,-0.7317456
1734432170145,2024-12-17T10:42:50.145Z,44524,-0.38296422,-0.6492662,-0.7317456
1734432170154,2024-12-17T10:42:50.154Z,44533,-0.35638362,-0.6347358,-0.7774419
1734432170157,2024-12-17T10:42:50.157Z,44536,-0.35638362,-0.6347358,-0.7774419
1734432170166,2024-12-17T10:42:50.166Z,44545,-0.17888172,-0.77511173,-0.70599806
1734432170169,2024-12-17T10:42:50.169Z,44548,-0.17888172,-0.77511173,-0.70599806
1734432170177,2024-12-17T10:42:50.177Z,44556,-0.020016072,-0.63421226,-0.5766132
1734432170179,2024-12-17T10:42:50.179Z,44558,-0.020016072,-0.63421226,-0.5766132
1734432170186,2024-12-17T10:42:50.186Z,44565,-0.040422425,-0.32796684,-0.54963803
1734432170188,2024-12-17T10:42:50.188Z,44567,-0.040422425,-0.32796684,-0.54963803
1734432170196,2024-12-17T10:42:50.196Z,44575,0.0074362895,-0.33900025,-0.6274165
1734432170200,2024-12-17T10:42:50.200Z,44579,0.0074362895,-0.33900025,-0.6274165
1734432170212,2024-12-17T10:42:50.212Z,44591,-0.06397598,-0.55816835,-0.7738185
1734432170218,2024-12-17T10:42:50.218Z,44597,-0.06397598,-0.55816835,-0.7738185
1734432170229,2024-12-17T10:42:50.229Z,44608,-0.17699984,-0.6027439,-0.7644729
1734432170231,2024-12-17T10:42:50.231Z,44610,-0.17699984,-0.6027439,-0.7644729
1734432170240,2024-12-17T10:42:50.240Z,44619,-0.1344984,-0.47595346,-0.69645447
1734432170243,2024-12-17T10:42:50.243Z,44622,-0.1344984,-0.47595346,-0.69645447
1734432170249,2024-12-17T10:42:50.249Z,44628,-0.16008602,-0.50447065,-0.6563254
1734432170252,2024-12-17T10:42:50.252Z,44631,-0.16008602,-0.50447065,-0.6563254
1734432170259,2024-12-17T10:42:50.259Z,44638,-0.070956916,-0.6977239,-0.617985
1734432170261,2024-12-17T10:42:50.261Z,44640,-0.070956916,-0.6977239,-0.617985
1734432170269,2024-12-17T10:42:50.269Z,44648,-0.040222816,-0.61787647,-0.7811507
1734432170272,2024-12-17T10:42:50.272Z,44651,-0.040222816,-0.61787647,-0.7811507
1734432170280,2024-12-17T10:42:50.280Z,44659,-0.11972951,-0.57899946,-0.8684115
1734432170283,2024-12-17T10:42:50.283Z,44662,-0.11972951,-0.57899946,-0.8684115
1734432170295,2024-12-17T10:42:50.295Z,44674,-0.0635227,-0.5945403,-0.9066022
1734432170297,2024-12-17T10:42:50.297Z,44676,-0.0635227,-0.5945403,-0.9066022
1734432170304,2024-12-17T10:42:50.304Z,44683,-0.17263405,-0.41094267,-1.0208611
1734432170306,2024-12-17T10:42:50.306Z,44685,-0.17263405,-0.41094267,-1.0208611
1734432170314,2024-12-17T10:42:50.314Z,44693,-0.24382402,-0.42570123,-1.0690528
1734432170317,2024-12-17T10:42:50.317Z,44696,-0.24382402,-0.42570123,-1.0690528
1734432170325,2024-12-17T10:42:50.325Z,44704,-0.26121894,-0.59216595,-1.0947021
1734432170327,2024-12-17T10:42:50.327Z,44706,-0.26121894,-0.59216595,-1.0947021
1734432170336,2024-12-17T10:42:50.336Z,44715,-0.19039361,-0.679392,-0.8361665
1734432170339,2024-12-17T10:42:50.339Z,44718,-0.19039361,-0.679392,-0.8361665
1734432170347,2024-12-17T10:42:50.347Z,44726,0.014762562,-0.4888172,-0.7871228
1734432170349,2024-12-17T10:42:50.349Z,44728,0.014762562,-0.4888172,-0.7871228
1734432170358,2024-12-17T10:42:50.358Z,44737,-0.08850144,-0.44245034,-0.82898784
1734432170361,2024-12-17T10:42:50.361Z,44740,-0.08850144,-0.44245034,-0.82898784
1734432170368,2024-12-17T10:42:50.368Z,44747,-0.042998046,-0.63602144,-0.658841
1734432170370,2024-12-17T10:42:50.370Z,44749,-0.042998046,-0.63602144,-0.658841
1734432170379,2024-12-17T10:42:50.379Z,44758,0.0805476,-0.37394077,-0.6039161
1734432170381,2024-12-17T10:42:50.381Z,44760,0.0805476,-0.37394077,-0.6039161
1734432170388,2024-12-17T10:42:50.388Z,44767,-0.08071525,-0.17453969,-0.57834435
1734432170391,2024-12-17T10:42:50.391Z,44770,-0.08071525,-0.17453969,-0.57834435
1734432170399,2024-12-17T10:42:50.399Z,44778,-0.17764789,-0.4697439,-0.6559695
1734432170401,2024-12-17T10:42:50.401Z,44780,-0.17764789,-0.4697439,-0.6559695
1734432170410,2024-12-17T10:42:50.410Z,44789,-0.03280676,-0.61279464,-0.60401696
1734432170412,2024-12-17T10:42:50.412Z,44791,-0.03280676,-0.61279464,-0.60401696
1734432170421,2024-12-17T10:42:50.421Z,44800,0.12899652,-0.35917366,-0.58381385
1734432170426,2024-12-17T10:42:50.426Z,44805,0.12899652,-0.35917366,-0.58381385
1734432170434,2024-12-17T10:42:50.434Z,44813,0.10851579,-0.20195486,-0.6641165
1734432170436,2024-12-17T10:42:50.436Z,44815,0.10851579,-0.20195486,-0.6641165
1734432170445,2024-12-17T10:42:50.445Z,44824,-0.03903347,-0.3475583,-0.7526934
1734432170447,2024-12-17T10:42:50.447Z,44826,-0.03903347,-0.3475583,-0.7526934
1734432170454,2024-12-17T10:42:50.454Z,44833,-0.15098093,-0.53103894,-0.87233865
1734432170456,2024-12-17T10:42:50.456Z,44835,-0.15098093,-0.53103894,-0.87233865
1734432170464,2024-12-17T10:42:50.464Z,44843,-0.16081065,-0.58159244,-0.87980145
1734432170466,2024-12-17T10:42:50.466Z,44845,-0.16081065,-0.58159244,-0.87980145
1734432170475,2024-12-17T10:42:50.475Z,44854,-0.14080507,-0.6393986,-0.8891937
1734432170478,2024-12-17T10:42:50.478Z,44857,-0.14080507,-0.6393986,-0.8891937
1734432170484,2024-12-17T10:42:50.484Z,44863,-0.08449842,-0.6673661,-0.9294738
1734432170486,2024-12-17T10:42:50.486Z,44865,-0.08449842,-0.6673661,-0.9294738
1734432170494,2024-12-17T10:42:50.494Z,44873,0.009926748,-0.46082225,-0.918551
1734432170496,2024-12-17T10:42:50.496Z,44875,0.009926748,-0.46082225,-0.918551
1734432170503,2024-12-17T10:42:50.503Z,44882,0.072693445,-0.24660917,-0.86000955
1734432170505,2024-12-17T10:42:50.505Z,44884,0.072693445,-0.24660917,-0.86000955
1734432170512,2024-12-17T10:42:50.512Z,44891,0.066489026,-0.18043411,-0.8648509
1734432170515,2024-12-17T10:42:50.515Z,44894,0.066489026,-0.18043411,-0.8648509
1734432170524,2024-12-17T10:42:50.524Z,44903,-0.064241976,-0.13278806,-0.90811706
1734432170527,2024-12-17T10:42:50.527Z,44906,-0.064241976,-0.13278806,-0.90811706
1734432170536,2024-12-17T10:42:50.536Z,44915,-0.14226203,-0.24030255,-0.8781115
1734432170538,2024-12-17T10:42:50.538Z,44917,-0.14226203,-0.24030255,-0.8781115
1734432170547,2024-12-17T10:42:50.547Z,44926,-0.14139384,-0.37202254,-0.86054057
1734432170549,2024-12-17T10:42:50.549Z,44928,-0.14139384,-0.37202254,-0.86054057
1734432170556,2024-12-17T10:42:50.556Z,44935,-0.25090876,-0.40713033,-0.8605252
1734432170559,2024-12-17T10:42:50.559Z,44938,-0.25090876,-0.40713033,-0.8605252
1734432170566,2024-12-17T10:42:50.566Z,44945,-0.23404525,-0.48448732,-0.83011186
1734432170568,2024-12-17T10:42:50.568Z,44947,-0.23404525,-0.48448732,-0.83011186
1734432170575,2024-12-17T10:42:50.575Z,44954,-0.07564638,-0.5640301,-0.8183011
1734432170578,2024-12-17T10:42:50.578Z,44957,-0.07564638,-0.5640301,-0.8183011
1734432170586,2024-12-17T10:42:50.586Z,44965,0.017188737,-0.4986849,-0.74876624
1734432170588,2024-12-17T10:42:50.588Z,44967,0.017188737,-0.4986849,-0.74876624
1734432170597,2024-12-17T10:42:50.597Z,44976,-0.063737646,-0.35413212,-0.72691005
1734432170599,2024-12-17T10:42:50.599Z,44978,-0.063737646,-0.35413212,-0.72691005
1734432170606,2024-12-17T10:42:50.606Z,44985,-0.04475194,-0.3113431,-0.74649864
1734432170608,2024-12-17T10:42:50.608Z,44987,-0.04475194,-0.3113431,-0.74649864
1734432170615,2024-12-17T10:42:50.615Z,44994,0.02095403,-0.31638104,-0.74247116
1734432170618,2024-12-17T10:42:50.618Z,44997,0.02095403,-0.31638104,-0.74247116
1734432170625,2024-12-17T10:42:50.625Z,45004,-0.043714263,-0.35891446,-0.74556965
1734432170628,2024-12-17T10:42:50.628Z,45007,-0.043714263,-0.35891446,-0.74556965
1734432170634,2024-12-17T10:42:50.634Z,45013,-0.15484904,-0.4492503,-0.7562954
1734432170637,2024-12-17T10:42:50.637Z,45016,-0.15484904,-0.4492503,-0.7562954
1734432170644,2024-12-17T10:42:50.644Z,45023,-0.2281704,-0.5777753,-0.8435348
1734432170646,2024-12-17T10:42:50.646Z,45025,-0.2281704,-0.5777753,-0.8435348
1734432170653,2024-12-17T10:42:50.653Z,45032,-0.24680938,-0.7302569,-0.89901775
1734432170655,2024-12-17T10:42:50.655Z,45034,-0.24680938,-0.7302569,-0.89901775
1734432170664,2024-12-17T10:42:50.664Z,45043,-0.16264033,-0.6907558,-0.86115515
1734432170667,2024-12-17T10:42:50.667Z,45046,-0.16264033,-0.6907558,-0.86115515
1734432170676,2024-12-17T10:42:50.676Z,45055,-0.029048048,-0.51146597,-0.8115114
1734432170679,2024-12-17T10:42:50.679Z,45058,-0.029048048,-0.51146597,-0.8115114
1734432170691,2024-12-17T10:42:50.691Z,45070,0.16790967,-0.3683852,-0.7484285
1734432170697,2024-12-17T10:42:50.697Z,45076,0.16790967,-0.3683852,-0.7484285
1734432170710,2024-12-17T10:42:50.710Z,45089,0.20934425,-0.21036407,-0.6791009
1734432170713,2024-12-17T10:42:50.713Z,45092,0.20934425,-0.21036407,-0.6791009
1734432170722,2024-12-17T10:42:50.722Z,45101,0.11758313,-0.24316035,-0.67617244
1734432170724,2024-12-17T10:42:50.724Z,45103,0.11758313,-0.24316035,-0.67617244
1734432170732,2024-12-17T10:42:50.732Z,45111,0.15686502,-0.43517643,-0.63156325
1734432170734,2024-12-17T10:42:50.734Z,45113,0.15686502,-0.43517643,-0.63156325
1734432170740,2024-12-17T10:42:50.740Z,45119,0.06182481,-0.48494655,-0.57497853
1734432170743,2024-12-17T10:42:50.743Z,45122,0.06182481,-0.48494655,-0.57497853
1734432170751,2024-12-17T10:42:50.751Z,45130,-0.19785388,-0.4468819,-0.63733965
1734432170754,2024-12-17T10:42:50.754Z,45133,-0.19785388,-0.4468819,-0.63733965
1734432170762,2024-12-17T10:42:50.762Z,45141,-0.17908527,-0.4461944,-0.6882598
1734432170765,2024-12-17T10:42:50.765Z,45144,-0.17908527,-0.4461944,-0.6882598
1734432170774,2024-12-17T10:42:50.774Z,45153,-0.14897275,-0.4085847,-0.6805637
1734432170777,2024-12-17T10:42:50.777Z,45156,-0.14897275,-0.4085847,-0.6805637
1734432170785,2024-12-17T10:42:50.785Z,45164,-0.23009558,-0.33551797,-0.7271817
1734432170787,2024-12-17T10:42:50.787Z,45166,-0.23009558,-0.33551797,-0.7271817
1734432170794,2024-12-17T10:42:50.794Z,45173,-0.20492597,-0.2689699,-0.7890401
1734432170797,2024-12-17T10:42:50.797Z,45176,-0.20492597,-0.2689699,-0.7890401
1734432170804,2024-12-17T10:42:50.804Z,45183,-0.17379516,-0.2500762,-0.7958208
1734432170806,2024-12-17T10:42:50.806Z,45185,-0.17379516,-0.2500762,-0.7958208
1734432170813,2024-12-17T10:42:50.813Z,45192,-0.14908661,-0.24821052,-0.7709988
1734432170816,2024-12-17T10:42:50.816Z,45195,-0.14908661,-0.24821052,-0.7709988
1734432170824,2024-12-17T10:42:50.824Z,45203,-0.18033521,-0.24192101,-0.8918154
1734432170826,2024-12-17T10:42:50.826Z,45205,-0.18033521,-0.24192101,-0.8918154
1734432170834,2024-12-17T10:42:50.834Z,45213,-0.19930837,-0.2935449,-0.8823643
1734432170836,2024-12-17T10:42:50.836Z,45215,-0.19930837,-0.2935449,-0.8823643
1734432170843,2024-12-17T10:42:50.843Z,45222,-0.086455055,-0.33305913,-0.79694617
1734432170846,2024-12-17T10:42:50.846Z,45225,-0.086455055,-0.33305913,-0.79694617
1734432170853,2024-12-17T10:42:50.853Z,45232,-0.08621544,-0.40143457,-0.7693998
1734432170855,2024-12-17T10:42:50.855Z,45234,-0.08621544,-0.40143457,-0.7693998
1734432170864,2024-12-17T10:42:50.864Z,45243,-0.1647748,-0.38797602,-0.8056069
1734432170867,2024-12-17T10:42:50.867Z,45246,-0.1647748,-0.38797602,-0.8056069
1734432170876,2024-12-17T10:42:50.876Z,45255,-0.12680168,-0.33275402,-0.757453
1734432170879,2024-12-17T10:42:50.879Z,45258,-0.12680168,-0.33275402,-0.757453
1734432170886,2024-12-17T10:42:50.886Z,45265,-0.051786195,-0.27797776,-0.62675405
1734432170888,2024-12-17T10:42:50.888Z,45267,-0.051786195,-0.27797776,-0.62675405
1734432170896,2024-12-17T10:42:50.896Z,45275,-0.12810364,-0.32323405,-0.57646894
1734432170898,2024-12-17T10:42:50.898Z,45277,-0.12810364,-0.32323405,-0.57646894
1734432170905,2024-12-17T10:42:50.905Z,45284,-0.11445511,-0.458621,-0.63580614
1734432170908,2024-12-17T10:42:50.908Z,45287,-0.11445511,-0.458621,-0.63580614
1734432170916,2024-12-17T10:42:50.916Z,45295,-0.045892898,-0.46327752,-0.6664043
1734432170918,2024-12-17T10:42:50.918Z,45297,-0.045892898,-0.46327752,-0.6664043
1734432170925,2024-12-17T10:42:50.925Z,45304,-0.22875187,-0.46979883,-0.58765066
1734432170928,2024-12-17T10:42:50.928Z,45307,-0.22875187,-0.46979883,-0.58765066
1734432170936,2024-12-17T10:42:50.936Z,45315,-0.17625661,-0.58081305,-0.65319735
1734432170939,2024-12-17T10:42:50.939Z,45318,-0.17625661,-0.58081305,-0.65319735
1734432170948,2024-12-17T10:42:50.948Z,45327,-0.06508551,-0.6245114,-0.795488
1734432170950,2024-12-17T10:42:50.950Z,45329,-0.06508551,-0.6245114,-0.795488
1734432170957,2024-12-17T10:42:50.957Z,45336,-0.13518237,-0.5885668,-0.7442332
1734432170960,2024-12-17T10:42:50.960Z,45339,-0.13518237,-0.5885668,-0.7442332
1734432170968,2024-12-17T10:42:50.968Z,45347,-0.13763544,-0.5522536,-0.71900594
1734432170970,2024-12-17T10:42:50.970Z,45349,-0.13763544,-0.5522536,-0.71900594
1734432170978,2024-12-17T10:42:50.978Z,45357,-0.06235385,-0.56827676,-0.7862356
1734432170980,2024-12-17T10:42:50.980Z,45359,-0.06235385,-0.56827676,-0.7862356
1734432170989,2024-12-17T10:42:50.989Z,45368,-0.025428435,-0.5844961,-0.81575227
1734432170992,2024-12-17T10:42:50.992Z,45371,-0.025428435,-0.5844961,-0.81575227
1734432171000,2024-12-17T10:42:51Z,45379,-0.117015794,-0.5919897,-0.7845174
1734432171002,2024-12-17T10:42:51.002Z,45381,-0.117015794,-0.5919897,-0.7845174
1734432171009,2024-12-17T10:42:51.009Z,45388,-0.19424494,-0.6327973,-0.8299915
1734432171011,2024-12-17T10:42:51.011Z,45390,-0.19424494,-0.6327973,-0.8299915
1734432171018,2024-12-17T10:42:51.018Z,45397,-0.12017558,-0.64342344,-0.77533543
1734432171020,2024-12-17T10:42:51.020Z,45399,-0.12017558,-0.64342344,-0.77533543
1734432171029,2024-12-17T10:42:51.029Z,45408,-0.07345665,-0.56259024,-0.74759775
1734432171032,2024-12-17T10:42:51.032Z,45411,-0.07345665,-0.56259024,-0.74759775
1734432171038,2024-12-17T10:42:51.038Z,45417,-0.13479206,-0.47774953,-0.7043013
1734432171040,2024-12-17T10:42:51.040Z,45419,-0.13479206,-0.47774953,-0.7043013
1734432171048,2024-12-17T10:42:51.048Z,45427,-0.124913424,-0.48012432,-0.68013376
1734432171051,2024-12-17T10:42:51.051Z,45430,-0.124913424,-0.48012432,-0.68013376
1734432171058,2024-12-17T10:42:51.058Z,45437,-0.15167755,-0.5131551,-0.74996424
1734432171062,2024-12-17T10:42:51.062Z,45441,-0.15167755,-0.5131551,-0.74996424
1734432171071,2024-12-17T10:42:51.071Z,45450,-0.27360728,-0.6007262,-0.63247746
1734432171074,2024-12-17T10:42:51.074Z,45453,-0.27360728,-0.6007262,-0.63247746
1734432171083,2024-12-17T10:42:51.083Z,45462,-0.18455215,-0.6511369,-0.58835137
1734432171086,2024-12-17T10:42:51.086Z,45465,-0.18455215,-0.6511369,-0.58835137
1734432171094,2024-12-17T10:42:51.094Z,45473,-0.0995511,-0.6304758,-0.6864165
1734432171096,2024-12-17T10:42:51.096Z,45475,-0.0995511,-0.6304758,-0.6864165
1734432171103,2024-12-17T10:42:51.103Z,45482,-0.08184126,-0.60683674,-0.65637946
1734432171105,2024-12-17T10:42:51.105Z,45484,-0.08184126,-0.60683674,-0.65637946
1734432171116,2024-12-17T10:42:51.116Z,45495,-0.10719147,-0.5995901,-0.6522845
1734432171118,2024-12-17T10:42:51.118Z,45497,-0.10719147,-0.5995901,-0.6522845
1734432171125,2024-12-17T10:42:51.125Z,45504,-0.1121281,-0.54405093,-0.73199797
1734432171127,2024-12-17T10:42:51.127Z,45506,-0.1121281,-0.54405093,-0.73199797
1734432171141,2024-12-17T10:42:51.141Z,45520,-0.103865154,-0.49214286,-0.7017987
1734432171144,2024-12-17T10:42:51.144Z,45523,-0.103865154,-0.49214286,-0.7017987
1734432171152,2024-12-17T10:42:51.152Z,45531,-0.09511838,-0.5994084,-0.6950805
1734432171154,2024-12-17T10:42:51.154Z,45533,-0.09511838,-0.5994084,-0.6950805
1734432171162,2024-12-17T10:42:51.162Z,45541,-0.16344737,-0.67363936,-0.7526634
1734432171164,2024-12-17T10:42:51.164Z,45543,-0.16344737,-0.67363936,-0.7526634
1734432171172,2024-12-17T10:42:51.172Z,45551,-0.26324326,-0.7421834,-0.71099544
1734432171174,2024-12-17T10:42:51.174Z,45553,-0.26324326,-0.7421834,-0.71099544
1734432171182,2024-12-17T10:42:51.182Z,45561,-0.31302038,-0.8333569,-0.6276105
1734432171184,2024-12-17T10:42:51.184Z,45563,-0.31302038,-0.8333569,-0.6276105
1734432171192,2024-12-17T10:42:51.192Z,45571,-0.3037947,-0.8752874,-0.4717065
1734432171195,2024-12-17T10:42:51.195Z,45574,-0.3037947,-0.8752874,-0.4717065
1734432171202,2024-12-17T10:42:51.202Z,45581,-0.20617695,-0.91264004,-0.4720878
1734432171204,2024-12-17T10:42:51.204Z,45583,-0.20617695,-0.91264004,-0.4720878
1734432171212,2024-12-17T10:42:51.212Z,45591,-0.11937689,-0.94298345,-0.425001
1734432171214,2024-12-17T10:42:51.214Z,45593,-0.11937689,-0.94298345,-0.425001
1734432171223,2024-12-17T10:42:51.223Z,45602,0.0037466262,-0.7975437,-0.48764384
1734432171226,2024-12-17T10:42:51.226Z,45605,0.0037466262,-0.7975437,-0.48764384
1734432171233,2024-12-17T10:42:51.233Z,45612,-0.09260909,-0.61168164,-0.43546417
1734432171235,2024-12-17T10:42:51.235Z,45614,-0.09260909,-0.61168164,-0.43546417
1734432171243,2024-12-17T10:42:51.243Z,45622,-0.09554982,-0.59598786,-0.4793348
1734432171246,2024-12-17T10:42:51.246Z,45625,-0.09554982,-0.59598786,-0.4793348
1734432171253,2024-12-17T10:42:51.253Z,45632,0.02705357,-0.7099941,-0.4835292
1734432171255,2024-12-17T10:42:51.255Z,45634,0.02705357,-0.7099941,-0.4835292
1734432171264,2024-12-17T10:42:51.264Z,45643,-0.009888834,-0.8273357,-0.56588084
1734432171266,2024-12-17T10:42:51.266Z,45645,-0.009888834,-0.8273357,-0.56588084
1734432171273,2024-12-17T10:42:51.273Z,45652,-0.1775784,-0.88413227,-0.5862805
1734432171275,2024-12-17T10:42:51.275Z,45654,-0.1775784,-0.88413227,-0.5862805
1734432171282,2024-12-17T10:42:51.282Z,45661,-0.24351907,-1.0038365,-0.46413398
1734432171285,2024-12-17T10:42:51.285Z,45664,-0.24351907,-1.0038365,-0.46413398
1734432171294,2024-12-17T10:42:51.294Z,45673,-0.19610362,-1.1485394,-0.5826268
1734432171297,2024-12-17T10:42:51.297Z,45676,-0.19610362,-1.1485394,-0.5826268
1734432171306,2024-12-17T10:42:51.306Z,45685,-0.1849041,-1.0874842,-0.7421181
1734432171309,2024-12-17T10:42:51.309Z,45688,-0.1849041,-1.0874842,-0.7421181
1734432171317,2024-12-17T10:42:51.317Z,45696,-0.18807065,-1.0082561,-0.7126447
1734432171319,2024-12-17T10:42:51.319Z,45698,-0.18807065,-1.0082561,-0.7126447
1734432171325,2024-12-17T10:42:51.325Z,45704,-0.13881896,-0.9448531,-0.691896
1734432171328,2024-12-17T10:42:51.328Z,45707,-0.13881896,-0.9448531,-0.691896
1734432171335,2024-12-17T10:42:51.335Z,45714,-0.14005373,-0.95416325,-0.6506371
1734432171337,2024-12-17T10:42:51.337Z,45716,-0.14005373,-0.95416325,-0.6506371
1734432171345,2024-12-17T10:42:51.345Z,45724,-0.06506583,-0.9073984,-0.5546649
1734432171348,2024-12-17T10:42:51.348Z,45727,-0.06506583,-0.9073984,-0.5546649
1734432171356,2024-12-17T10:42:51.356Z,45735,0.056183547,-0.87320495,-0.49074882
1734432171358,2024-12-17T10:42:51.358Z,45737,0.056183547,-0.87320495,-0.49074882
1734432171366,2024-12-17T10:42:51.366Z,45745,-0.024376618,-0.95624185,-0.35241666
1734432171368,2024-12-17T10:42:51.368Z,45747,-0.024376618,-0.95624185,-0.35241666
1734432171375,2024-12-17T10:42:51.375Z,45754,-0.025553815,-1.1352508,-0.35107368
1734432171378,2024-12-17T10:42:51.378Z,45757,-0.025553815,-1.1352508,-0.35107368
1734432171385,2024-12-17T10:42:51.385Z,45764,0.031852845,-1.233773,-0.51360095
1734432171387,2024-12-17T10:42:51.387Z,45766,0.031852845,-1.233773,-0.51360095
1734432171395,2024-12-17T10:42:51.395Z,45774,-6.613635E-4,-1.1350716,-0.682858
1734432171398,2024-12-17T10:42:51.398Z,45777,-6.613635E-4,-1.1350716,-0.682858
1734432171405,2024-12-17T10:42:51.405Z,45784,-0.006519751,-1.1787963,-0.60973626
1734432171408,2024-12-17T10:42:51.408Z,45787,-0.006519751,-1.1787963,-0.60973626
1734432171417,2024-12-17T10:42:51.417Z,45796,0.009915031,-0.97058743,-0.4799906
1734432171419,2024-12-17T10:42:51.419Z,45798,0.009915031,-0.97058743,-0.4799906
1734432171426,2024-12-17T10:42:51.426Z,45805,-0.05285694,-1.0142499,-0.52009773
1734432171429,2024-12-17T10:42:51.429Z,45808,-0.05285694,-1.0142499,-0.52009773
1734432171435,2024-12-17T10:42:51.435Z,45814,-0.024326814,-1.1231494,-0.5860014
1734432171437,2024-12-17T10:42:51.437Z,45816,-0.024326814,-1.1231494,-0.5860014
1734432171444,2024-12-17T10:42:51.444Z,45823,-0.007718451,-1.0416553,-0.57225955
1734432171446,2024-12-17T10:42:51.446Z,45825,-0.007718451,-1.0416553,-0.57225955
1734432171453,2024-12-17T10:42:51.453Z,45832,-0.06754763,-1.113213,-0.5877032
1734432171456,2024-12-17T10:42:51.456Z,45835,-0.06754763,-1.113213,-0.5877032
1734432171465,2024-12-17T10:42:51.465Z,45844,-0.14496255,-1.2344095,-0.6451107
1734432171468,2024-12-17T10:42:51.468Z,45847,-0.14496255,-1.2344095,-0.6451107
1734432171477,2024-12-17T10:42:51.477Z,45856,-0.1381149,-1.2260208,-0.69419855
1734432171479,2024-12-17T10:42:51.479Z,45858,-0.1381149,-1.2260208,-0.69419855
1734432171486,2024-12-17T10:42:51.486Z,45865,-0.029312525,-1.1683774,-0.6626427
1734432171488,2024-12-17T10:42:51.488Z,45867,-0.029312525,-1.1683774,-0.6626427
1734432171497,2024-12-17T10:42:51.497Z,45876,0.024926728,-1.1355675,-0.546043
1734432171499,2024-12-17T10:42:51.499Z,45878,0.024926728,-1.1355675,-0.546043
1734432171507,2024-12-17T10:42:51.507Z,45886,-0.0383982,-1.1655971,-0.51383245
1734432171509,2024-12-17T10:42:51.509Z,45888,-0.0383982,-1.1655971,-0.51383245
1734432171517,2024-12-17T10:42:51.517Z,45896,-0.0743434,-1.2126292,-0.5494337
1734432171519,2024-12-17T10:42:51.519Z,45898,-0.0743434,-1.2126292,-0.5494337
1734432171525,2024-12-17T10:42:51.525Z,45904,0.036008026,-1.2066183,-0.43171018
1734432171528,2024-12-17T10:42:51.528Z,45907,0.036008026,-1.2066183,-0.43171018
1734432171536,2024-12-17T10:42:51.536Z,45915,0.21549389,-1.1675233,-0.30471632
1734432171538,2024-12-17T10:42:51.538Z,45917,0.21549389,-1.1675233,-0.30471632
1734432171546,2024-12-17T10:42:51.546Z,45925,0.17840803,-1.1347715,-0.345736
1734432171549,2024-12-17T10:42:51.549Z,45928,0.17840803,-1.1347715,-0.345736
1734432171557,2024-12-17T10:42:51.557Z,45936,0.050433025,-1.1073693,-0.46296895
1734432171560,2024-12-17T10:42:51.560Z,45939,0.050433025,-1.1073693,-0.46296895
1734432171568,2024-12-17T10:42:51.568Z,45947,0.020755172,-1.0886073,-0.5308764
1734432171571,2024-12-17T10:42:51.571Z,45950,0.020755172,-1.0886073,-0.5308764
1734432171582,2024-12-17T10:42:51.582Z,45961,0.07068739,-1.0991641,-0.51233536
1734432171585,2024-12-17T10:42:51.585Z,45964,0.07068739,-1.0991641,-0.51233536
1734432171595,2024-12-17T10:42:51.595Z,45974,-0.008296413,-1.1571726,-0.5099015
1734432171597,2024-12-17T10:42:51.597Z,45976,-0.008296413,-1.1571726,-0.5099015
1734432171605,2024-12-17T10:42:51.605Z,45984,-0.116920784,-1.1953402,-0.49624604
1734432171607,2024-12-17T10:42:51.607Z,45986,-0.116920784,-1.1953402,-0.49624604
1734432171614,2024-12-17T10:42:51.614Z,45993,-0.06837482,-1.1336116,-0.5025957
1734432171616,2024-12-17T10:42:51.616Z,45995,-0.06837482,-1.1336116,-0.5025957
1734432171622,2024-12-17T10:42:51.622Z,46001,0.11303131,-1.0287964,-0.5699669
1734432171624,2024-12-17T10:42:51.624Z,46003,0.11303131,-1.0287964,-0.5699669
1734432171631,2024-12-17T10:42:51.631Z,46010,0.12584764,-0.91588956,-0.51770127
1734432171634,2024-12-17T10:42:51.634Z,46013,0.12584764,-0.91588956,-0.51770127
1734432171641,2024-12-17T10:42:51.641Z,46020,-0.042823102,-0.83623993,-0.501583
1734432171643,2024-12-17T10:42:51.643Z,46022,-0.042823102,-0.83623993,-0.501583
1734432171650,2024-12-17T10:42:51.650Z,46029,-0.16617404,-0.8912049,-0.5372429
1734432171652,2024-12-17T10:42:51.652Z,46031,-0.16617404,-0.8912049,-0.5372429
1734432171659,2024-12-17T10:42:51.659Z,46038,-0.102221884,-1.0129728,-0.5235734
1734432171662,2024-12-17T10:42:51.662Z,46041,-0.102221884,-1.0129728,-0.5235734
1734432171670,2024-12-17T10:42:51.670Z,46049,0.016855825,-1.0444897,-0.45127234
1734432171672,2024-12-17T10:42:51.672Z,46051,0.016855825,-1.0444897,-0.45127234
1734432171681,2024-12-17T10:42:51.681Z,46060,0.06328707,-1.0284714,-0.35306376
1734432171684,2024-12-17T10:42:51.684Z,46063,0.06328707,-1.0284714,-0.35306376
1734432171690,2024-12-17T10:42:51.690Z,46069,0.036482237,-1.0223782,-0.3905827
1734432171693,2024-12-17T10:42:51.693Z,46072,0.036482237,-1.0223782,-0.3905827
1734432171699,2024-12-17T10:42:51.699Z,46078,0.05467554,-0.9937239,-0.4764366
1734432171702,2024-12-17T10:42:51.702Z,46081,0.05467554,-0.9937239,-0.4764366
1734432171708,2024-12-17T10:42:51.708Z,46087,0.032645818,-0.9420069,-0.51980007
1734432171710,2024-12-17T10:42:51.710Z,46089,0.032645818,-0.9420069,-0.51980007
1734432171718,2024-12-17T10:42:51.718Z,46097,-0.103350386,-0.9396011,-0.61001515
1734432171720,2024-12-17T10:42:51.720Z,46099,-0.103350386,-0.9396011,-0.61001515
1734432171730,2024-12-17T10:42:51.730Z,46109,-0.08647033,-1.0338073,-0.68553776
1734432171733,2024-12-17T10:42:51.733Z,46112,-0.08647033,-1.0338073,-0.68553776
1734432171739,2024-12-17T10:42:51.739Z,46118,0.07372467,-1.0625458,-0.6365099
1734432171741,2024-12-17T10:42:51.741Z,46120,0.07372467,-1.0625458,-0.6365099
1734432171748,2024-12-17T10:42:51.748Z,46127,0.08928733,-1.0433837,-0.5742925
1734432171750,2024-12-17T10:42:51.750Z,46129,0.08928733,-1.0433837,-0.5742925
1734432171756,2024-12-17T10:42:51.756Z,46135,0.022229992,-1.037697,-0.59021467
1734432171759,2024-12-17T10:42:51.759Z,46138,0.022229992,-1.037697,-0.59021467
1734432171765,2024-12-17T10:42:51.765Z,46144,0.02369813,-1.0041304,-0.55438864
1734432171768,2024-12-17T10:42:51.768Z,46147,0.02369813,-1.0041304,-0.55438864
1734432171774,2024-12-17T10:42:51.774Z,46153,0.003273443,-0.9568686,-0.578606
1734432171776,2024-12-17T10:42:51.776Z,46155,0.003273443,-0.9568686,-0.578606
1734432171783,2024-12-17T10:42:51.783Z,46162,-0.08487908,-0.92654693,-0.65652144
1734432171786,2024-12-17T10:42:51.786Z,46165,-0.08487908,-0.92654693,-0.65652144
1734432171792,2024-12-17T10:42:51.792Z,46171,-0.16140756,-0.8629187,-0.64801615
1734432171794,2024-12-17T10:42:51.794Z,46173,-0.16140756,-0.8629187,-0.64801615
1734432171802,2024-12-17T10:42:51.802Z,46181,-0.10676147,-0.8536725,-0.53158844
1734432171804,2024-12-17T10:42:51.804Z,46183,-0.10676147,-0.8536725,-0.53158844
1734432171812,2024-12-17T10:42:51.812Z,46191,0.011004611,-0.9599027,-0.44291225
1734432171815,2024-12-17T10:42:51.815Z,46194,0.011004611,-0.9599027,-0.44291225
1734432171822,2024-12-17T10:42:51.822Z,46201,0.035048403,-1.033413,-0.42688826
1734432171824,2024-12-17T10:42:51.824Z,46203,0.035048403,-1.033413,-0.42688826
1734432171830,2024-12-17T10:42:51.830Z,46209,-0.007933897,-0.9850044,-0.42542157
1734432171833,2024-12-17T10:42:51.833Z,46212,-0.007933897,-0.9850044,-0.42542157
1734432171840,2024-12-17T10:42:51.840Z,46219,-0.07985176,-0.9244935,-0.45900124
1734432171843,2024-12-17T10:42:51.843Z,46222,-0.07985176,-0.9244935,-0.45900124
1734432171850,2024-12-17T10:42:51.850Z,46229,-0.08748692,-0.8077163,-0.5266995
1734432171852,2024-12-17T10:42:51.852Z,46231,-0.08748692,-0.8077163,-0.5266995
1734432171859,2024-12-17T10:42:51.859Z,46238,-0.077239804,-0.7360695,-0.46303606
1734432171862,2024-12-17T10:42:51.862Z,46241,-0.077239804,-0.7360695,-0.46303606
1734432171871,2024-12-17T10:42:51.871Z,46250,-0.068079524,-0.82952464,-0.4237031
1734432171873,2024-12-17T10:42:51.873Z,46252,-0.068079524,-0.82952464,-0.4237031
1734432171884,2024-12-17T10:42:51.884Z,46263,-0.06865132,-1.0044521,-0.5190132
1734432171886,2024-12-17T10:42:51.886Z,46265,-0.06865132,-1.0044521,-0.5190132
1734432171894,2024-12-17T10:42:51.894Z,46273,-0.044379134,-1.0726742,-0.6176971
1734432171897,2024-12-17T10:42:51.897Z,46276,-0.044379134,-1.0726742,-0.6176971
1734432171904,2024-12-17T10:42:51.904Z,46283,-0.06697681,-0.97098184,-0.62073904
1734432171906,2024-12-17T10:42:51.906Z,46285,-0.06697681,-0.97098184,-0.62073904
1734432171914,2024-12-17T10:42:51.914Z,46293,-0.13116184,-0.8323262,-0.57255125
1734432171916,2024-12-17T10:42:51.916Z,46295,-0.13116184,-0.8323262,-0.57255125
1734432171923,2024-12-17T10:42:51.923Z,46302,-0.12221345,-0.7998581,-0.6356219
1734432171925,2024-12-17T10:42:51.925Z,46304,-0.12221345,-0.7998581,-0.6356219
1734432171933,2024-12-17T10:42:51.933Z,46312,-0.15644349,-0.82291687,-0.5506869
1734432171935,2024-12-17T10:42:51.935Z,46314,-0.15644349,-0.82291687,-0.5506869
1734432171941,2024-12-17T10:42:51.941Z,46320,-0.07758071,-0.9210951,-0.43974543
1734432171943,2024-12-17T10:42:51.943Z,46322,-0.07758071,-0.9210951,-0.43974543
1734432171951,2024-12-17T10:42:51.951Z,46330,-0.030030672,-1.0061283,-0.4580802
1734432171954,2024-12-17T10:42:51.954Z,46333,-0.030030672,-1.0061283,-0.4580802
1734432171964,2024-12-17T10:42:51.964Z,46343,-0.07578163,-0.92444706,-0.56870025
1734432171966,2024-12-17T10:42:51.966Z,46345,-0.07578163,-0.92444706,-0.56870025
1734432171975,2024-12-17T10:42:51.975Z,46354,-0.12346603,-0.749458,-0.56322277
1734432171980,2024-12-17T10:42:51.980Z,46359,-0.12346603,-0.749458,-0.56322277
1734432171988,2024-12-17T10:42:51.988Z,46367,-0.16516174,-0.73886704,-0.5132396
1734432171993,2024-12-17T10:42:51.993Z,46372,-0.16516174,-0.73886704,-0.5132396
1734432172001,2024-12-17T10:42:52.001Z,46380,-0.17717838,-0.87399924,-0.5846406
1734432172003,2024-12-17T10:42:52.003Z,46382,-0.17717838,-0.87399924,-0.5846406
1734432172010,2024-12-17T10:42:52.010Z,46389,-0.1483896,-0.9832986,-0.5889867
1734432172012,2024-12-17T10:42:52.012Z,46391,-0.1483896,-0.9832986,-0.5889867
1734432172019,2024-12-17T10:42:52.019Z,46398,-0.040139303,-1.0139978,-0.5663029
1734432172021,2024-12-17T10:42:52.021Z,46400,-0.040139303,-1.0139978,-0.5663029
1734432172029,2024-12-17T10:42:52.029Z,46408,-0.10245748,-0.82564425,-0.68871063
1734432172031,2024-12-17T10:42:52.031Z,46410,-0.10245748,-0.82564425,-0.68871063
1734432172037,2024-12-17T10:42:52.037Z,46416,-0.18548469,-0.532363,-0.6844653
1734432172039,2024-12-17T10:42:52.039Z,46418,-0.18548469,-0.532363,-0.6844653
1734432172046,2024-12-17T10:42:52.046Z,46425,-0.028993765,-0.49184164,-0.55138
1734432172049,2024-12-17T10:42:52.049Z,46428,-0.028993765,-0.49184164,-0.55138
1734432172056,2024-12-17T10:42:52.056Z,46435,0.03292119,-0.62703687,-0.5150823
1734432172059,2024-12-17T10:42:52.059Z,46438,0.03292119,-0.62703687,-0.5150823
1734432172067,2024-12-17T10:42:52.067Z,46446,-0.15194367,-0.7755224,-0.62248445
1734432172070,2024-12-17T10:42:52.070Z,46449,-0.15194367,-0.7755224,-0.62248445
1734432172076,2024-12-17T10:42:52.076Z,46455,-0.2632041,-0.9613546,-0.6834005
1734432172078,2024-12-17T10:42:52.078Z,46457,-0.2632041,-0.9613546,-0.6834005
1734432172086,2024-12-17T10:42:52.086Z,46465,-0.20687611,-1.1222248,-0.6879749
1734432172088,2024-12-17T10:42:52.088Z,46467,-0.20687611,-1.1222248,-0.6879749
1734432172096,2024-12-17T10:42:52.096Z,46475,-0.22500058,-1.1104115,-0.63002944
1734432172101,2024-12-17T10:42:52.101Z,46480,-0.22500058,-1.1104115,-0.63002944
1734432172108,2024-12-17T10:42:52.108Z,46487,-0.085459776,-0.98614824,-0.49983132
1734432172110,2024-12-17T10:42:52.110Z,46489,-0.085459776,-0.98614824,-0.49983132
1734432172117,2024-12-17T10:42:52.117Z,46496,0.227595,-0.7274813,-0.47476768
1734432172120,2024-12-17T10:42:52.120Z,46499,0.227595,-0.7274813,-0.47476768
1734432172126,2024-12-17T10:42:52.126Z,46505,0.17475015,-0.35787618,-0.6165987
1734432172129,2024-12-17T10:42:52.129Z,46508,0.17475015,-0.35787618,-0.6165987
1734432172136,2024-12-17T10:42:52.136Z,46515,-0.057043675,-0.13232052,-0.6771318
1734432172138,2024-12-17T10:42:52.138Z,46517,-0.057043675,-0.13232052,-0.6771318
1734432172145,2024-12-17T10:42:52.145Z,46524,-0.10101441,-0.3302589,-0.6137121
1734432172147,2024-12-17T10:42:52.147Z,46526,-0.10101441,-0.3302589,-0.6137121
1734432172154,2024-12-17T10:42:52.154Z,46533,-0.2761229,-0.70523685,-0.6474792
1734432172157,2024-12-17T10:42:52.157Z,46536,-0.2761229,-0.70523685,-0.6474792
1734432172165,2024-12-17T10:42:52.165Z,46544,-0.3670894,-0.99907994,-0.6683058
1734432172167,2024-12-17T10:42:52.167Z,46546,-0.3670894,-0.99907994,-0.6683058
1734432172174,2024-12-17T10:42:52.174Z,46553,-0.22037841,-1.1508963,-0.58063394
1734432172176,2024-12-17T10:42:52.176Z,46555,-0.22037841,-1.1508963,-0.58063394
1734432172183,2024-12-17T10:42:52.183Z,46562,-0.23789363,-1.0983387,-0.72110385
1734432172185,2024-12-17T10:42:52.185Z,46564,-0.23789363,-1.0983387,-0.72110385
1734432172191,2024-12-17T10:42:52.191Z,46570,-0.21888751,-0.88817865,-0.80323195
1734432172193,2024-12-17T10:42:52.193Z,46572,-0.21888751,-0.88817865,-0.80323195
1734432172201,2024-12-17T10:42:52.201Z,46580,0.1568407,-0.48400626,-0.7408487
1734432172203,2024-12-17T10:42:52.203Z,46582,0.1568407,-0.48400626,-0.7408487
1734432172212,2024-12-17T10:42:52.212Z,46591,0.24862759,-0.13540399,-0.7423226
1734432172215,2024-12-17T10:42:52.215Z,46594,0.24862759,-0.13540399,-0.7423226
1734432172221,2024-12-17T10:42:52.221Z,46600,0.08387972,-0.24341975,-0.69793415
1734432172223,2024-12-17T10:42:52.223Z,46602,0.08387972,-0.24341975,-0.69793415
1734432172230,2024-12-17T10:42:52.230Z,46609,-0.22955817,-0.6291505,-0.82835525
1734432172234,2024-12-17T10:42:52.234Z,46613,-0.22955817,-0.6291505,-0.82835525
1734432172242,2024-12-17T10:42:52.242Z,46621,-0.579154,-0.9493853,-0.9709185
1734432172245,2024-12-17T10:42:52.245Z,46624,-0.579154,-0.9493853,-0.9709185
1734432172252,2024-12-17T10:42:52.252Z,46631,-0.4748338,-1.2796426,-0.73294055
1734432172254,2024-12-17T10:42:52.254Z,46633,-0.4748338,-1.2796426,-0.73294055
1734432172262,2024-12-17T10:42:52.262Z,46641,-0.20386209,-1.3416702,-0.5218323
1734432172266,2024-12-17T10:42:52.266Z,46645,-0.20386209,-1.3416702,-0.5218323
1734432172273,2024-12-17T10:42:52.273Z,46652,-0.13399988,-0.8394153,-0.5701892
1734432172275,2024-12-17T10:42:52.275Z,46654,-0.13399988,-0.8394153,-0.5701892
1734432172282,2024-12-17T10:42:52.282Z,46661,0.08115391,-0.3856736,-0.5935071
1734432172284,2024-12-17T10:42:52.284Z,46663,0.08115391,-0.3856736,-0.5935071
1734432172290,2024-12-17T10:42:52.290Z,46669,0.5116341,-0.1622526,-0.57218987
1734432172292,2024-12-17T10:42:52.292Z,46671,0.5116341,-0.1622526,-0.57218987
1734432172300,2024-12-17T10:42:52.300Z,46679,0.49030882,0.119851306,-0.5219922
1734432172302,2024-12-17T10:42:52.302Z,46681,0.49030882,0.119851306,-0.5219922
1734432172308,2024-12-17T10:42:52.308Z,46687,0.050062582,0.14081736,-0.6311766
1734432172311,2024-12-17T10:42:52.311Z,46690,0.050062582,0.14081736,-0.6311766
1734432172320,2024-12-17T10:42:52.320Z,46699,-0.23344144,-0.2914293,-0.82836646
1734432172322,2024-12-17T10:42:52.322Z,46701,-0.23344144,-0.2914293,-0.82836646
1734432172331,2024-12-17T10:42:52.331Z,46710,-0.46631423,-0.6921397,-1.001576
1734432172334,2024-12-17T10:42:52.334Z,46713,-0.46631423,-0.6921397,-1.001576
1734432172340,2024-12-17T10:42:52.340Z,46719,-0.7132583,-1.0592076,-1.1012948
1734432172342,2024-12-17T10:42:52.342Z,46721,-0.7132583,-1.0592076,-1.1012948
1734432172349,2024-12-17T10:42:52.349Z,46728,-0.43914944,-1.2629611,-0.85164696
1734432172351,2024-12-17T10:42:52.351Z,46730,-0.43914944,-1.2629611,-0.85164696
1734432172358,2024-12-17T10:42:52.358Z,46737,0.04449506,-0.6933123,-0.7241264
1734432172361,2024-12-17T10:42:52.361Z,46740,0.04449506,-0.6933123,-0.7241264
1734432172368,2024-12-17T10:42:52.368Z,46747,0.22482403,-0.11105594,-0.804732
1734432172370,2024-12-17T10:42:52.370Z,46749,0.22482403,-0.11105594,-0.804732
1734432172376,2024-12-17T10:42:52.376Z,46755,0.26073027,-0.1244427,-0.9383354
1734432172378,2024-12-17T10:42:52.378Z,46757,0.26073027,-0.1244427,-0.9383354
1734432172386,2024-12-17T10:42:52.386Z,46765,-0.029539874,-0.28209996,-0.8769856
1734432172388,2024-12-17T10:42:52.388Z,46767,-0.029539874,-0.28209996,-0.8769856
1734432172396,2024-12-17T10:42:52.396Z,46775,-0.13290325,-0.32987782,-0.95185214
1734432172399,2024-12-17T10:42:52.399Z,46778,-0.13290325,-0.32987782,-0.95185214
1734432172406,2024-12-17T10:42:52.406Z,46785,-0.33098942,-0.48972404,-0.9427789
1734432172408,2024-12-17T10:42:52.408Z,46787,-0.33098942,-0.48972404,-0.9427789
1734432172417,2024-12-17T10:42:52.417Z,46796,-0.45640808,-0.8964517,-0.83251745
1734432172419,2024-12-17T10:42:52.419Z,46798,-0.45640808,-0.8964517,-0.83251745
1734432172430,2024-12-17T10:42:52.430Z,46809,-0.2529907,-1.0803759,-0.63550323
1734432172433,2024-12-17T10:42:52.433Z,46812,-0.2529907,-1.0803759,-0.63550323
1734432172441,2024-12-17T10:42:52.441Z,46820,-0.01208441,-0.7042804,-0.42037308
1734432172444,2024-12-17T10:42:52.444Z,46823,-0.01208441,-0.7042804,-0.42037308
1734432172456,2024-12-17T10:42:52.456Z,46835,0.13660182,-0.21925902,-0.5196774
1734432172459,2024-12-17T10:42:52.459Z,46838,0.13660182,-0.21925902,-0.5196774
1734432172467,2024-12-17T10:42:52.467Z,46846,0.23573457,-0.10738275,-0.7284818
1734432172469,2024-12-17T10:42:52.469Z,46848,0.23573457,-0.10738275,-0.7284818
1734432172475,2024-12-17T10:42:52.475Z,46854,0.16467811,-0.3356448,-0.6492592
1734432172477,2024-12-17T10:42:52.477Z,46856,0.16467811,-0.3356448,-0.6492592
1734432172484,2024-12-17T10:42:52.484Z,46863,-0.03380877,-0.6262748,-0.71140635
1734432172486,2024-12-17T10:42:52.486Z,46865,-0.03380877,-0.6262748,-0.71140635
1734432172494,2024-12-17T10:42:52.494Z,46873,-0.34383827,-0.7751279,-0.88741904
1734432172496,2024-12-17T10:42:52.496Z,46875,-0.34383827,-0.7751279,-0.88741904
1734432172505,2024-12-17T10:42:52.505Z,46884,-0.40237418,-0.9551264,-0.8430246
1734432172507,2024-12-17T10:42:52.507Z,46886,-0.40237418,-0.9551264,-0.8430246
1734432172514,2024-12-17T10:42:52.514Z,46893,-0.11688343,-0.91596377,-0.7801765
1734432172516,2024-12-17T10:42:52.516Z,46895,-0.11688343,-0.91596377,-0.7801765
1734432172522,2024-12-17T10:42:52.522Z,46901,0.036233965,-0.4988867,-0.7040896
1734432172524,2024-12-17T10:42:52.524Z,46903,0.036233965,-0.4988867,-0.7040896
1734432172531,2024-12-17T10:42:52.531Z,46910,0.14678366,-0.18089247,-0.70350534
1734432172534,2024-12-17T10:42:52.534Z,46913,0.14678366,-0.18089247,-0.70350534
1734432172541,2024-12-17T10:42:52.541Z,46920,0.3652318,-0.30474833,-0.77967465
1734432172543,2024-12-17T10:42:52.543Z,46922,0.3652318,-0.30474833,-0.77967465
1734432172552,2024-12-17T10:42:52.552Z,46931,0.27958572,-0.41668865,-0.8049903
1734432172554,2024-12-17T10:42:52.554Z,46933,0.27958572,-0.41668865,-0.8049903
1734432172560,2024-12-17T10:42:52.560Z,46939,-0.12905736,-0.4225457,-0.7734508
1734432172563,2024-12-17T10:42:52.563Z,46942,-0.12905736,-0.4225457,-0.7734508
1734432172569,2024-12-17T10:42:52.569Z,46948,-0.27767158,-0.5258303,-0.8721817
1734432172571,2024-12-17T10:42:52.571Z,46950,-0.27767158,-0.5258303,-0.8721817
1734432172577,2024-12-17T10:42:52.577Z,46956,-0.29354832,-0.6171455,-0.8422473
1734432172580,2024-12-17T10:42:52.580Z,46959,-0.29354832,-0.6171455,-0.8422473
1734432172587,2024-12-17T10:42:52.587Z,46966,-0.2231928,-0.6201916,-0.7596293
1734432172589,2024-12-17T10:42:52.589Z,46968,-0.2231928,-0.6201916,-0.7596293
1734432172597,2024-12-17T10:42:52.597Z,46976,-0.16164169,-0.42017636,-0.7016229
1734432172599,2024-12-17T10:42:52.599Z,46978,-0.16164169,-0.42017636,-0.7016229
1734432172606,2024-12-17T10:42:52.606Z,46985,0.01641513,-0.2423703,-0.57628876
1734432172607,2024-12-17T10:42:52.607Z,46986,0.01641513,-0.2423703,-0.57628876
1734432172615,2024-12-17T10:42:52.615Z,46994,0.38982856,-0.046700004,-0.5396938
1734432172617,2024-12-17T10:42:52.617Z,46996,0.38982856,-0.046700004,-0.5396938
1734432172623,2024-12-17T10:42:52.623Z,47002,0.3324832,0.17593165,-0.66776556
1734432172625,2024-12-17T10:42:52.625Z,47004,0.3324832,0.17593165,-0.66776556
1734432172632,2024-12-17T10:42:52.632Z,47011,0.026365029,-0.025424806,-0.7005571
1734432172634,2024-12-17T10:42:52.634Z,47013,0.026365029,-0.025424806,-0.7005571
1734432172640,2024-12-17T10:42:52.640Z,47019,-0.038291793,-0.5322956,-0.6994572
1734432172642,2024-12-17T10:42:52.642Z,47021,-0.038291793,-0.5322956,-0.6994572
1734432172649,2024-12-17T10:42:52.649Z,47028,-0.16925462,-0.82551396,-0.76448166
1734432172651,2024-12-17T10:42:52.651Z,47030,-0.16925462,-0.82551396,-0.76448166
1734432172657,2024-12-17T10:42:52.657Z,47036,-0.35241988,-0.94861627,-0.79639083
1734432172659,2024-12-17T10:42:52.659Z,47038,-0.35241988,-0.94861627,-0.79639083
1734432172665,2024-12-17T10:42:52.665Z,47044,-0.3143437,-0.9834747,-0.80556744
1734432172668,2024-12-17T10:42:52.668Z,47047,-0.3143437,-0.9834747,-0.80556744
1734432172676,2024-12-17T10:42:52.676Z,47055,-0.122936085,-0.7059214,-0.7229904
1734432172680,2024-12-17T10:42:52.680Z,47059,-0.122936085,-0.7059214,-0.7229904
1734432172688,2024-12-17T10:42:52.688Z,47067,-0.003086984,-0.298276,-0.7186176
1734432172690,2024-12-17T10:42:52.690Z,47069,-0.003086984,-0.298276,-0.7186176
1734432172699,2024-12-17T10:42:52.699Z,47078,0.049239315,-0.18770443,-0.7665427
1734432172701,2024-12-17T10:42:52.701Z,47080,0.049239315,-0.18770443,-0.7665427
1734432172709,2024-12-17T10:42:52.709Z,47088,0.07493225,-0.26030967,-0.6741977
1734432172711,2024-12-17T10:42:52.711Z,47090,0.07493225,-0.26030967,-0.6741977
1734432172718,2024-12-17T10:42:52.718Z,47097,0.009454034,-0.42859295,-0.53693205
1734432172720,2024-12-17T10:42:52.720Z,47099,0.009454034,-0.42859295,-0.53693205
1734432172726,2024-12-17T10:42:52.726Z,47105,-0.0071069435,-0.6356179,-0.54490995
1734432172729,2024-12-17T10:42:52.729Z,47108,-0.0071069435,-0.6356179,-0.54490995
1734432172736,2024-12-17T10:42:52.736Z,47115,0.03345394,-0.63779515,-0.64052945
1734432172738,2024-12-17T10:42:52.738Z,47117,0.03345394,-0.63779515,-0.64052945
1734432172745,2024-12-17T10:42:52.745Z,47124,0.028299274,-0.56230503,-0.63750595
1734432172749,2024-12-17T10:42:52.749Z,47128,0.028299274,-0.56230503,-0.63750595
1734432172757,2024-12-17T10:42:52.757Z,47136,0.08244306,-0.5137652,-0.6504641
1734432172759,2024-12-17T10:42:52.759Z,47138,0.08244306,-0.5137652,-0.6504641
1734432172767,2024-12-17T10:42:52.767Z,47146,0.16109526,-0.35551402,-0.71913606
1734432172770,2024-12-17T10:42:52.770Z,47149,0.16109526,-0.35551402,-0.71913606
1734432172777,2024-12-17T10:42:52.777Z,47156,0.0680692,-0.23827098,-0.77934307
1734432172780,2024-12-17T10:42:52.780Z,47159,0.0680692,-0.23827098,-0.77934307
1734432172788,2024-12-17T10:42:52.788Z,47167,-0.039658464,-0.30915493,-0.8412209
1734432172790,2024-12-17T10:42:52.790Z,47169,-0.039658464,-0.30915493,-0.8412209
1734432172796,2024-12-17T10:42:52.796Z,47175,-0.06297817,-0.37625027,-0.907038
1734432172799,2024-12-17T10:42:52.799Z,47178,-0.06297817,-0.37625027,-0.907038
1734432172805,2024-12-17T10:42:52.805Z,47184,-0.10350356,-0.41480187,-0.9353438
1734432172806,2024-12-17T10:42:52.806Z,47185,-0.10350356,-0.41480187,-0.9353438
1734432172813,2024-12-17T10:42:52.813Z,47192,-0.124307156,-0.5047559,-0.97297
1734432172815,2024-12-17T10:42:52.815Z,47194,-0.124307156,-0.5047559,-0.97297
1734432172824,2024-12-17T10:42:52.824Z,47203,-0.08912656,-0.5246535,-0.89366525
1734432172826,2024-12-17T10:42:52.826Z,47205,-0.08912656,-0.5246535,-0.89366525
1734432172835,2024-12-17T10:42:52.835Z,47214,-0.03898741,-0.47500023,-0.8082734
1734432172838,2024-12-17T10:42:52.838Z,47217,-0.03898741,-0.47500023,-0.8082734
1734432172847,2024-12-17T10:42:52.847Z,47226,-0.032335024,-0.42739183,-0.7653897
1734432172854,2024-12-17T10:42:52.854Z,47233,-0.032335024,-0.42739183,-0.7653897
1734432172862,2024-12-17T10:42:52.862Z,47241,-0.013645356,-0.4714248,-0.7120331
1734432172864,2024-12-17T10:42:52.864Z,47243,-0.013645356,-0.4714248,-0.7120331
1734432172872,2024-12-17T10:42:52.872Z,47251,0.080173604,-0.477507,-0.66881067
1734432172875,2024-12-17T10:42:52.875Z,47254,0.080173604,-0.477507,-0.66881067
1734432172883,2024-12-17T10:42:52.883Z,47262,0.04584563,-0.30111152,-0.6754402
1734432172885,2024-12-17T10:42:52.885Z,47264,0.04584563,-0.30111152,-0.6754402
1734432172891,2024-12-17T10:42:52.891Z,47270,0.03475797,-0.24875842,-0.71348006
1734432172893,2024-12-17T10:42:52.893Z,47272,0.03475797,-0.24875842,-0.71348006
1734432172899,2024-12-17T10:42:52.899Z,47278,0.09470355,-0.36116317,-0.7232528
1734432172902,2024-12-17T10:42:52.902Z,47281,0.09470355,-0.36116317,-0.7232528
1734432172908,2024-12-17T10:42:52.908Z,47287,-0.07050116,-0.4841972,-0.7386658
1734432172910,2024-12-17T10:42:52.910Z,47289,-0.07050116,-0.4841972,-0.7386658
1734432172919,2024-12-17T10:42:52.919Z,47298,-0.18665154,-0.5869475,-0.7531666
1734432172921,2024-12-17T10:42:52.921Z,47300,-0.18665154,-0.5869475,-0.7531666
1734432172927,2024-12-17T10:42:52.927Z,47306,-0.034571443,-0.59190696,-0.6888474
1734432172929,2024-12-17T10:42:52.929Z,47308,-0.034571443,-0.59190696,-0.6888474
1734432172936,2024-12-17T10:42:52.936Z,47315,2.1618775E-4,-0.4599282,-0.66433114
1734432172938,2024-12-17T10:42:52.938Z,47317,2.1618775E-4,-0.4599282,-0.66433114
1734432172944,2024-12-17T10:42:52.944Z,47323,-0.14453618,-0.35804424,-0.67196435
1734432172946,2024-12-17T10:42:52.946Z,47325,-0.14453618,-0.35804424,-0.67196435
1734432172954,2024-12-17T10:42:52.954Z,47333,-0.12703404,-0.34385827,-0.63489825
1734432172956,2024-12-17T10:42:52.956Z,47335,-0.12703404,-0.34385827,-0.63489825
1734432172962,2024-12-17T10:42:52.962Z,47341,-0.06566012,-0.31164962,-0.60838133
1734432172964,2024-12-17T10:42:52.964Z,47343,-0.06566012,-0.31164962,-0.60838133
1734432172972,2024-12-17T10:42:52.972Z,47351,-0.070543766,-0.3224744,-0.7797442
1734432172974,2024-12-17T10:42:52.974Z,47353,-0.070543766,-0.3224744,-0.7797442
1734432172982,2024-12-17T10:42:52.982Z,47361,-0.005539541,-0.36442947,-0.8727212
1734432172984,2024-12-17T10:42:52.984Z,47363,-0.005539541,-0.36442947,-0.8727212
1734432172992,2024-12-17T10:42:52.992Z,47371,-0.046903934,-0.37286147,-0.8524435
1734432172995,2024-12-17T10:42:52.995Z,47374,-0.046903934,-0.37286147,-0.8524435
1734432173003,2024-12-17T10:42:53.003Z,47382,-0.13148788,-0.38106737,-0.9369183
1734432173005,2024-12-17T10:42:53.005Z,47384,-0.13148788,-0.38106737,-0.9369183
1734432173011,2024-12-17T10:42:53.011Z,47390,-0.11112902,-0.45991468,-0.9992199
1734432173013,2024-12-17T10:42:53.013Z,47392,-0.11112902,-0.45991468,-0.9992199
1734432173021,2024-12-17T10:42:53.021Z,47400,-0.016913392,-0.5057341,-0.9638106
1734432173023,2024-12-17T10:42:53.023Z,47402,-0.016913392,-0.5057341,-0.9638106
1734432173030,2024-12-17T10:42:53.030Z,47409,-0.040043514,-0.38224614,-0.8479914
1734432173033,2024-12-17T10:42:53.033Z,47412,-0.040043514,-0.38224614,-0.8479914
1734432173039,2024-12-17T10:42:53.039Z,47418,-0.039536178,-0.23371096,-0.7593551
1734432173041,2024-12-17T10:42:53.041Z,47420,-0.039536178,-0.23371096,-0.7593551
1734432173048,2024-12-17T10:42:53.048Z,47427,0.034604557,-0.13541241,-0.6838928
1734432173050,2024-12-17T10:42:53.050Z,47429,0.034604557,-0.13541241,-0.6838928
1734432173057,2024-12-17T10:42:53.057Z,47436,0.034075625,-0.1359527,-0.6066882
1734432173059,2024-12-17T10:42:53.059Z,47438,0.034075625,-0.1359527,-0.6066882
1734432173067,2024-12-17T10:42:53.067Z,47446,-0.007129926,-0.22230008,-0.5910539
1734432173069,2024-12-17T10:42:53.069Z,47448,-0.007129926,-0.22230008,-0.5910539
1734432173076,2024-12-17T10:42:53.076Z,47455,-0.02207059,-0.25616702,-0.660575
1734432173078,2024-12-17T10:42:53.078Z,47457,-0.02207059,-0.25616702,-0.660575
1734432173086,2024-12-17T10:42:53.086Z,47465,-0.08143301,-0.2836922,-0.69721204
1734432173089,2024-12-17T10:42:53.089Z,47468,-0.08143301,-0.2836922,-0.69721204
1734432173098,2024-12-17T10:42:53.098Z,47477,-0.18583341,-0.4247081,-0.7625877
1734432173101,2024-12-17T10:42:53.101Z,47480,-0.18583341,-0.4247081,-0.7625877
1734432173109,2024-12-17T10:42:53.109Z,47488,-0.2412975,-0.5075434,-0.84983563
1734432173111,2024-12-17T10:42:53.111Z,47490,-0.2412975,-0.5075434,-0.84983563
1734432173119,2024-12-17T10:42:53.119Z,47498,-0.26706573,-0.5351819,-0.88592494
1734432173121,2024-12-17T10:42:53.121Z,47500,-0.26706573,-0.5351819,-0.88592494
1734432173128,2024-12-17T10:42:53.128Z,47507,-0.17099275,-0.5079391,-0.83657223
1734432173130,2024-12-17T10:42:53.130Z,47509,-0.17099275,-0.5079391,-0.83657223
1734432173137,2024-12-17T10:42:53.137Z,47516,-0.12002928,-0.38565707,-0.8404267
1734432173139,2024-12-17T10:42:53.139Z,47518,-0.12002928,-0.38565707,-0.8404267
1734432173146,2024-12-17T10:42:53.146Z,47525,-0.043370903,-0.27110285,-0.82592124
1734432173149,2024-12-17T10:42:53.149Z,47528,-0.043370903,-0.27110285,-0.82592124
1734432173156,2024-12-17T10:42:53.156Z,47535,0.0015033403,-0.21996456,-0.7411166
1734432173161,2024-12-17T10:42:53.161Z,47540,0.0015033403,-0.21996456,-0.7411166
1734432173169,2024-12-17T10:42:53.169Z,47548,-0.059764855,-0.35903615,-0.74495095
1734432173171,2024-12-17T10:42:53.171Z,47550,-0.059764855,-0.35903615,-0.74495095
1734432173178,2024-12-17T10:42:53.178Z,47557,0.09976838,-0.49440137,-0.6836968
1734432173180,2024-12-17T10:42:53.180Z,47559,0.09976838,-0.49440137,-0.6836968
1734432173190,2024-12-17T10:42:53.190Z,47569,0.09517369,-0.44322795,-0.63772357
1734432173193,2024-12-17T10:42:53.193Z,47572,0.09517369,-0.44322795,-0.63772357
1734432173201,2024-12-17T10:42:53.201Z,47580,-0.12164127,-0.4807153,-0.580417
1734432173203,2024-12-17T10:42:53.203Z,47582,-0.12164127,-0.4807153,-0.580417
1734432173209,2024-12-17T10:42:53.209Z,47588,-0.025464248,-0.537772,-0.62640977
1734432173211,2024-12-17T10:42:53.211Z,47590,-0.025464248,-0.537772,-0.62640977
1734432173219,2024-12-17T10:42:53.219Z,47598,0.01920751,-0.48328906,-0.6417823
1734432173221,2024-12-17T10:42:53.221Z,47600,0.01920751,-0.48328906,-0.6417823
1734432173227,2024-12-17T10:42:53.227Z,47606,-0.040318426,-0.33513245,-0.6144099
1734432173229,2024-12-17T10:42:53.229Z,47608,-0.040318426,-0.33513245,-0.6144099
1734432173237,2024-12-17T10:42:53.237Z,47616,-0.17731026,-0.3840427,-0.6841169
1734432173239,2024-12-17T10:42:53.239Z,47618,-0.17731026,-0.3840427,-0.6841169
1734432173247,2024-12-17T10:42:53.247Z,47626,-0.27102095,-0.6041782,-0.7801084
1734432173250,2024-12-17T10:42:53.250Z,47629,-0.27102095,-0.6041782,-0.7801084
1734432173257,2024-12-17T10:42:53.257Z,47636,-0.11459717,-0.62301767,-0.69521767
1734432173259,2024-12-17T10:42:53.259Z,47638,-0.11459717,-0.62301767,-0.69521767
1734432173266,2024-12-17T10:42:53.266Z,47645,-0.07449724,-0.53963137,-0.7111791
1734432173268,2024-12-17T10:42:53.268Z,47647,-0.07449724,-0.53963137,-0.7111791
1734432173276,2024-12-17T10:42:53.276Z,47655,-0.10621194,-0.5619706,-0.73113555
1734432173279,2024-12-17T10:42:53.279Z,47658,-0.10621194,-0.5619706,-0.73113555
1734432173286,2024-12-17T10:42:53.286Z,47665,0.003436665,-0.5335609,-0.7395366
1734432173289,2024-12-17T10:42:53.289Z,47668,0.003436665,-0.5335609,-0.7395366
1734432173296,2024-12-17T10:42:53.296Z,47675,-0.006399574,-0.4849511,-0.65785694
1734432173299,2024-12-17T10:42:53.299Z,47678,-0.006399574,-0.4849511,-0.65785694
1734432173308,2024-12-17T10:42:53.308Z,47687,-0.08362453,-0.54797745,-0.6397159
1734432173314,2024-12-17T10:42:53.314Z,47693,-0.08362453,-0.54797745,-0.6397159
1734432173325,2024-12-17T10:42:53.325Z,47704,-0.054798517,-0.7585899,-0.70262426
1734432173327,2024-12-17T10:42:53.327Z,47706,-0.054798517,-0.7585899,-0.70262426
1734432173336,2024-12-17T10:42:53.336Z,47715,0.017351294,-0.76741534,-0.5787532
1734432173339,2024-12-17T10:42:53.339Z,47718,0.017351294,-0.76741534,-0.5787532
1734432173347,2024-12-17T10:42:53.347Z,47726,0.017691124,-0.67215997,-0.48181668
1734432173349,2024-12-17T10:42:53.349Z,47728,0.017691124,-0.67215997,-0.48181668
1734432173356,2024-12-17T10:42:53.356Z,47735,-0.030468326,-0.75509065,-0.4982746
1734432173358,2024-12-17T10:42:53.358Z,47737,-0.030468326,-0.75509065,-0.4982746
1734432173366,2024-12-17T10:42:53.366Z,47745,-0.16175087,-0.9051572,-0.50405663
1734432173368,2024-12-17T10:42:53.368Z,47747,-0.16175087,-0.9051572,-0.50405663
1734432173376,2024-12-17T10:42:53.376Z,47755,-0.07193287,-0.84319407,-0.4847276
1734432173378,2024-12-17T10:42:53.378Z,47757,-0.07193287,-0.84319407,-0.4847276
1734432173387,2024-12-17T10:42:53.387Z,47766,0.021467702,-0.6408131,-0.52193606
1734432173389,2024-12-17T10:42:53.389Z,47768,0.021467702,-0.6408131,-0.52193606
1734432173397,2024-12-17T10:42:53.397Z,47776,-0.00471425,-0.56806064,-0.48238167
1734432173399,2024-12-17T10:42:53.399Z,47778,-0.00471425,-0.56806064,-0.48238167
1734432173408,2024-12-17T10:42:53.408Z,47787,-0.05740267,-0.6116009,-0.5702744
1734432173411,2024-12-17T10:42:53.411Z,47790,-0.05740267,-0.6116009,-0.5702744
