Timestamp (ms),ISO DateTime,Elapsed Time (ms),Acceleration X,Acceleration Y,Acceleration Z
1734277153885,2024-12-15T15:39:13.885Z,70763,0.016288944,0.003748705,-0.15661949
1734277153889,2024-12-15T15:39:13.889Z,70767,0.016288944,0.003748705,-0.15661949
1734277153906,2024-12-15T15:39:13.906Z,70784,0.0022101975,0.0089280205,-0.14442928
1734277153912,2024-12-15T15:39:13.912Z,70790,0.0022101975,0.0089280205,-0.14442928
1734277153926,2024-12-15T15:39:13.926Z,70804,-0.012101992,0.005346193,-0.14349926
1734277153930,2024-12-15T15:39:13.930Z,70808,-0.012101992,0.005346193,-0.14349926
1734277153942,2024-12-15T15:39:13.942Z,70820,-0.0124649685,-0.0020905342,-0.14107217
1734277153946,2024-12-15T15:39:13.946Z,70824,-0.0124649685,-0.0020905342,-0.14107217
1734277153956,2024-12-15T15:39:13.956Z,70834,-0.004991093,-0.011980335,-0.14009227
1734277153961,2024-12-15T15:39:13.961Z,70839,-0.004991093,-0.011980335,-0.14009227
1734277153975,2024-12-15T15:39:13.975Z,70853,0.005757211,-0.012720585,-0.12666674
1734277153979,2024-12-15T15:39:13.979Z,70857,0.005757211,-0.012720585,-0.12666674
1734277153990,2024-12-15T15:39:13.990Z,70868,0.0047123083,-0.009176294,-0.1242398
1734277153993,2024-12-15T15:39:13.993Z,70871,0.0047123083,-0.009176294,-0.1242398
1734277154005,2024-12-15T15:39:14.005Z,70883,-0.0045595807,6.8083126E-4,-0.12535292
1734277154009,2024-12-15T15:39:14.009Z,70887,-0.0045595807,6.8083126E-4,-0.12535292
1734277154019,2024-12-15T15:39:14.019Z,70897,-0.008520237,0.008555271,-0.12890598
1734277154024,2024-12-15T15:39:14.024Z,70902,-0.008520237,0.008555271,-0.12890598
1734277154040,2024-12-15T15:39:14.040Z,70918,-0.0071537364,0.012512474,-0.13142584
1734277154044,2024-12-15T15:39:14.044Z,70922,-0.0071537364,0.012512474,-0.13142584
1734277154057,2024-12-15T15:39:14.057Z,70935,0.002849042,0.01005658,-0.1217909
1734277154061,2024-12-15T15:39:14.061Z,70939,0.002849042,0.01005658,-0.1217909
1734277154075,2024-12-15T15:39:14.075Z,70953,0.0054911408,0.0041265124,-0.11618194
1734277154080,2024-12-15T15:39:14.080Z,70958,0.0054911408,0.0041265124,-0.11618194
1734277154095,2024-12-15T15:39:14.095Z,70973,0.006146639,0.0025004332,-0.103997834
1734277154098,2024-12-15T15:39:14.098Z,70976,0.006146639,0.0025004332,-0.103997834
1734277154110,2024-12-15T15:39:14.110Z,70988,0.008765228,0.0037310058,-0.101823546
1734277154115,2024-12-15T15:39:14.115Z,70993,0.008765228,0.0037310058,-0.101823546
1734277154128,2024-12-15T15:39:14.128Z,71006,0.01036928,0.005392775,-0.09784264
1734277154132,2024-12-15T15:39:14.132Z,71010,0.01036928,0.005392775,-0.09784264
1734277154142,2024-12-15T15:39:14.142Z,71020,0.0022605718,0.007988802,-0.09892165
1734277154147,2024-12-15T15:39:14.147Z,71025,0.0022605718,0.007988802,-0.09892165
1734277154158,2024-12-15T15:39:14.158Z,71036,-0.0042664763,0.01246774,-0.08815028
1734277154162,2024-12-15T15:39:14.162Z,71040,-0.0042664763,0.01246774,-0.08815028
1734277154175,2024-12-15T15:39:14.175Z,71053,0.0028435474,0.0134756155,-0.08778898
1734277154179,2024-12-15T15:39:14.179Z,71057,0.0028435474,0.0134756155,-0.08778898
1734277154193,2024-12-15T15:39:14.193Z,71071,0.0118978685,0.00810161,-0.08216582
1734277154197,2024-12-15T15:39:14.197Z,71075,0.0118978685,0.00810161,-0.08216582
1734277154213,2024-12-15T15:39:14.213Z,71091,0.012178647,0.0075366977,-0.07293535
1734277154217,2024-12-15T15:39:14.217Z,71095,0.012178647,0.0075366977,-0.07293535
1734277154228,2024-12-15T15:39:14.228Z,71106,0.011346085,0.011248157,-0.06844693
1734277154232,2024-12-15T15:39:14.232Z,71110,0.011346085,0.011248157,-0.06844693
1734277154244,2024-12-15T15:39:14.244Z,71122,0.013439294,0.013441385,-0.064656384
1734277154247,2024-12-15T15:39:14.247Z,71125,0.013439294,0.013441385,-0.064656384
1734277154259,2024-12-15T15:39:14.259Z,71137,0.01650673,0.014590853,-0.05577009
1734277154263,2024-12-15T15:39:14.263Z,71141,0.01650673,0.014590853,-0.05577009
1734277154275,2024-12-15T15:39:14.275Z,71153,0.019085424,0.012280539,-0.052913662
1734277154280,2024-12-15T15:39:14.280Z,71158,0.019085424,0.012280539,-0.052913662
1734277154293,2024-12-15T15:39:14.293Z,71171,0.021201873,0.004558195,-0.041954074
1734277154297,2024-12-15T15:39:14.297Z,71175,0.021201873,0.004558195,-0.041954074
1734277154312,2024-12-15T15:39:14.312Z,71190,0.023356494,0.0046306443,-0.0354996
1734277154316,2024-12-15T15:39:14.316Z,71194,0.023356494,0.0046306443,-0.0354996
1734277154330,2024-12-15T15:39:14.330Z,71208,0.021622008,0.012025847,-0.045668487
1734277154334,2024-12-15T15:39:14.334Z,71212,0.021622008,0.012025847,-0.045668487
1734277154348,2024-12-15T15:39:14.348Z,71226,0.006297057,0.020444095,-0.06011129
1734277154352,2024-12-15T15:39:14.352Z,71230,0.006297057,0.020444095,-0.06011129
1734277154364,2024-12-15T15:39:14.364Z,71242,-0.0093755545,0.019621769,-0.058420666
1734277154368,2024-12-15T15:39:14.368Z,71246,-0.0093755545,0.019621769,-0.058420666
1734277154379,2024-12-15T15:39:14.379Z,71257,0.0072382204,0.014467056,-0.052122816
1734277154383,2024-12-15T15:39:14.383Z,71261,0.0072382204,0.014467056,-0.052122816
1734277154394,2024-12-15T15:39:14.394Z,71272,0.004488736,0.009868698,-0.053506628
1734277154398,2024-12-15T15:39:14.398Z,71276,0.004488736,0.009868698,-0.053506628
1734277154412,2024-12-15T15:39:14.412Z,71290,-0.013645532,-7.118533E-5,-0.043768533
1734277154418,2024-12-15T15:39:14.418Z,71296,-0.013645532,-7.118533E-5,-0.043768533
1734277154431,2024-12-15T15:39:14.431Z,71309,-0.005708125,0.0036801454,-0.042437505
1734277154436,2024-12-15T15:39:14.436Z,71314,-0.005708125,0.0036801454,-0.042437505
1734277154449,2024-12-15T15:39:14.449Z,71327,-0.006985206,0.009429041,-0.05854599
1734277154453,2024-12-15T15:39:14.453Z,71331,-0.006985206,0.009429041,-0.05854599
1734277154466,2024-12-15T15:39:14.466Z,71344,-0.014593892,0.005885334,-0.057641882
1734277154470,2024-12-15T15:39:14.470Z,71348,-0.014593892,0.005885334,-0.057641882
1734277154485,2024-12-15T15:39:14.485Z,71363,-0.013492828,0.008650476,-0.057800226
1734277154489,2024-12-15T15:39:14.489Z,71367,-0.013492828,0.008650476,-0.057800226
1734277154502,2024-12-15T15:39:14.502Z,71380,-0.00774138,0.007920632,-0.05366474
1734277154506,2024-12-15T15:39:14.506Z,71384,-0.00774138,0.007920632,-0.05366474
1734277154519,2024-12-15T15:39:14.519Z,71397,-0.0075609367,0.011513741,-0.04525003
1734277154523,2024-12-15T15:39:14.523Z,71401,-0.0075609367,0.011513741,-0.04525003
1734277154536,2024-12-15T15:39:14.536Z,71414,-0.004127193,0.017021073,-0.049047347
1734277154541,2024-12-15T15:39:14.541Z,71419,-0.004127193,0.017021073,-0.049047347
1734277154557,2024-12-15T15:39:14.557Z,71435,-0.0038703862,0.014164129,-0.046526797
1734277154561,2024-12-15T15:39:14.561Z,71439,-0.0038703862,0.014164129,-0.046526797
1734277154575,2024-12-15T15:39:14.575Z,71453,-0.004232634,0.020549512,-0.048910834
1734277154580,2024-12-15T15:39:14.580Z,71458,-0.004232634,0.020549512,-0.048910834
1734277154593,2024-12-15T15:39:14.593Z,71471,-0.003712626,0.026422981,-0.0488609
1734277154598,2024-12-15T15:39:14.598Z,71476,-0.003712626,0.026422981,-0.0488609
1734277154611,2024-12-15T15:39:14.611Z,71489,-0.0037154218,0.03276898,-0.046891462
1734277154616,2024-12-15T15:39:14.616Z,71494,-0.0037154218,0.03276898,-0.046891462
1734277154629,2024-12-15T15:39:14.629Z,71507,-0.006593395,0.039594505,-0.042574696
1734277154635,2024-12-15T15:39:14.635Z,71513,-0.006593395,0.039594505,-0.042574696
1734277154647,2024-12-15T15:39:14.647Z,71525,-0.007911053,0.044018593,-0.04403468
1734277154651,2024-12-15T15:39:14.651Z,71529,-0.007911053,0.044018593,-0.04403468
1734277154662,2024-12-15T15:39:14.662Z,71540,-0.011005961,0.040248785,-0.060812145
1734277154665,2024-12-15T15:39:14.665Z,71543,-0.011005961,0.040248785,-0.060812145
1734277154677,2024-12-15T15:39:14.677Z,71555,-0.0076009543,0.042942744,-0.07330438
1734277154682,2024-12-15T15:39:14.682Z,71560,-0.0076009543,0.042942744,-0.07330438
1734277154696,2024-12-15T15:39:14.696Z,71574,-0.009019726,0.049873102,-0.08268228
1734277154699,2024-12-15T15:39:14.699Z,71577,-0.009019726,0.049873102,-0.08268228
1734277154710,2024-12-15T15:39:14.710Z,71588,-0.01129858,0.040258802,-0.082642235
1734277154714,2024-12-15T15:39:14.714Z,71592,-0.01129858,0.040258802,-0.082642235
1734277154724,2024-12-15T15:39:14.724Z,71602,-0.01102422,0.030678542,-0.08012006
1734277154728,2024-12-15T15:39:14.728Z,71606,-0.01102422,0.030678542,-0.08012006
1734277154738,2024-12-15T15:39:14.738Z,71616,-0.010281757,0.024036719,-0.08632153
1734277154742,2024-12-15T15:39:14.742Z,71620,-0.010281757,0.024036719,-0.08632153
1734277154753,2024-12-15T15:39:14.753Z,71631,-0.006554107,0.020818012,-0.081813686
1734277154756,2024-12-15T15:39:14.756Z,71634,-0.006554107,0.020818012,-0.081813686
1734277154768,2024-12-15T15:39:14.768Z,71646,-0.008156384,0.0155464085,-0.0857653
1734277154772,2024-12-15T15:39:14.772Z,71650,-0.008156384,0.0155464085,-0.0857653
1734277154784,2024-12-15T15:39:14.784Z,71662,-0.014024434,0.006876872,-0.0902178
1734277154788,2024-12-15T15:39:14.788Z,71666,-0.014024434,0.006876872,-0.0902178
1734277154799,2024-12-15T15:39:14.799Z,71677,-0.023711946,0.0035443874,-0.0861111
1734277154804,2024-12-15T15:39:14.804Z,71682,-0.023711946,0.0035443874,-0.0861111
1734277154817,2024-12-15T15:39:14.817Z,71695,-0.01252959,0.008394228,-0.06972374
1734277154821,2024-12-15T15:39:14.821Z,71699,-0.01252959,0.008394228,-0.06972374
1734277154834,2024-12-15T15:39:14.834Z,71712,0.0037825715,0.013651635,-0.06516859
1734277154837,2024-12-15T15:39:14.837Z,71715,0.0037825715,0.013651635,-0.06516859
1734277154849,2024-12-15T15:39:14.849Z,71727,0.0024508855,0.020342957,-0.06165486
1734277154853,2024-12-15T15:39:14.853Z,71731,0.0024508855,0.020342957,-0.06165486
1734277154865,2024-12-15T15:39:14.865Z,71743,-0.010513815,0.026061317,-0.063577674
1734277154869,2024-12-15T15:39:14.869Z,71747,-0.010513815,0.026061317,-0.063577674
1734277154882,2024-12-15T15:39:14.882Z,71760,-0.022013053,0.03223567,-0.05735325
1734277154886,2024-12-15T15:39:14.886Z,71764,-0.022013053,0.03223567,-0.05735325
1734277154897,2024-12-15T15:39:14.897Z,71775,-0.04115714,0.03162622,-0.044694807
1734277154900,2024-12-15T15:39:14.900Z,71778,-0.04115714,0.03162622,-0.044694807
1734277154913,2024-12-15T15:39:14.913Z,71791,-0.057448238,0.026049357,-0.030906357
1734277154917,2024-12-15T15:39:14.917Z,71795,-0.057448238,0.026049357,-0.030906357
1734277154927,2024-12-15T15:39:14.927Z,71805,-0.068743646,0.027410047,-0.023063073
1734277154930,2024-12-15T15:39:14.930Z,71808,-0.068743646,0.027410047,-0.023063073
1734277154942,2024-12-15T15:39:14.942Z,71820,-0.078476064,0.02691068,-0.036317766
1734277154948,2024-12-15T15:39:14.948Z,71826,-0.078476064,0.02691068,-0.036317766
1734277154959,2024-12-15T15:39:14.959Z,71837,-0.058595296,0.02646616,-0.029612707
1734277154963,2024-12-15T15:39:14.963Z,71841,-0.058595296,0.02646616,-0.029612707
1734277154975,2024-12-15T15:39:14.975Z,71853,-0.03945533,0.018255536,0.004917464
1734277154978,2024-12-15T15:39:14.978Z,71856,-0.03945533,0.018255536,0.004917464
1734277154990,2024-12-15T15:39:14.990Z,71868,0.0025431735,0.02090962,0.008416887
1734277154994,2024-12-15T15:39:14.994Z,71872,0.0025431735,0.02090962,0.008416887
1734277155005,2024-12-15T15:39:15.005Z,71883,0.026728583,0.031467125,-0.0049380325
1734277155009,2024-12-15T15:39:15.009Z,71887,0.026728583,0.031467125,-0.0049380325
1734277155022,2024-12-15T15:39:15.022Z,71900,0.03523506,0.033323582,-0.008995997
1734277155025,2024-12-15T15:39:15.025Z,71903,0.03523506,0.033323582,-0.008995997
1734277155039,2024-12-15T15:39:15.039Z,71917,0.046844393,0.03528293,0.0024228052
1734277155044,2024-12-15T15:39:15.044Z,71922,0.046844393,0.03528293,0.0024228052
1734277155055,2024-12-15T15:39:15.055Z,71933,0.03562117,0.033843372,-0.007592506
1734277155058,2024-12-15T15:39:15.058Z,71936,0.03562117,0.033843372,-0.007592506
1734277155069,2024-12-15T15:39:15.069Z,71947,0.0126310075,0.049495585,-0.02819407
1734277155073,2024-12-15T15:39:15.073Z,71951,0.0126310075,0.049495585,-0.02819407
1734277155084,2024-12-15T15:39:15.084Z,71962,-0.010819015,0.066155575,-0.033417426
1734277155088,2024-12-15T15:39:15.088Z,71966,-0.010819015,0.066155575,-0.033417426
1734277155098,2024-12-15T15:39:15.098Z,71976,-0.011388801,0.063322656,-0.015277555
1734277155101,2024-12-15T15:39:15.101Z,71979,-0.011388801,0.063322656,-0.015277555
1734277155112,2024-12-15T15:39:15.112Z,71990,0.0060691936,0.05809705,8.855134E-4
1734277155117,2024-12-15T15:39:15.117Z,71995,0.0060691936,0.05809705,8.855134E-4
1734277155129,2024-12-15T15:39:15.129Z,72007,0.018147323,0.045115158,0.0063239583
1734277155132,2024-12-15T15:39:15.132Z,72010,0.018147323,0.045115158,0.0063239583
1734277155144,2024-12-15T15:39:15.144Z,72022,0.0064452747,0.025351215,0.003801255
1734277155148,2024-12-15T15:39:15.148Z,72026,0.0064452747,0.025351215,0.003801255
1734277155162,2024-12-15T15:39:15.162Z,72040,-0.040134996,0.022748575,-0.020360632
1734277155168,2024-12-15T15:39:15.168Z,72046,-0.040134996,0.022748575,-0.020360632
1734277155180,2024-12-15T15:39:15.180Z,72058,-0.072264634,0.016321667,-0.026986655
1734277155183,2024-12-15T15:39:15.183Z,72061,-0.072264634,0.016321667,-0.026986655
1734277155195,2024-12-15T15:39:15.195Z,72073,-0.032166895,0.017197773,0.0027168703
1734277155198,2024-12-15T15:39:15.198Z,72076,-0.032166895,0.017197773,0.0027168703
1734277155208,2024-12-15T15:39:15.208Z,72086,0.006902047,0.051629297,-0.0037041898
1734277155211,2024-12-15T15:39:15.211Z,72089,0.006902047,0.051629297,-0.0037041898
1734277155224,2024-12-15T15:39:15.224Z,72102,0.013094113,0.08743503,-0.013241541
1734277155227,2024-12-15T15:39:15.227Z,72105,0.013094113,0.08743503,-0.013241541
1734277155239,2024-12-15T15:39:15.239Z,72117,0.0019841816,0.10607994,-0.022481417
1734277155242,2024-12-15T15:39:15.242Z,72120,0.0019841816,0.10607994,-0.022481417
1734277155252,2024-12-15T15:39:15.252Z,72130,-0.007036006,0.07785574,-0.0015254277
1734277155256,2024-12-15T15:39:15.256Z,72134,-0.007036006,0.07785574,-0.0015254277
1734277155267,2024-12-15T15:39:15.267Z,72145,-0.0162839,0.08094997,-0.0027328795
1734277155270,2024-12-15T15:39:15.270Z,72148,-0.0162839,0.08094997,-0.0027328795
1734277155281,2024-12-15T15:39:15.281Z,72159,-0.017343437,0.14073436,-0.062781505
1734277155285,2024-12-15T15:39:15.285Z,72163,-0.017343437,0.14073436,-0.062781505
1734277155296,2024-12-15T15:39:15.296Z,72174,-0.05468188,0.19603714,-0.10988333
1734277155300,2024-12-15T15:39:15.300Z,72178,-0.05468188,0.19603714,-0.10988333
1734277155310,2024-12-15T15:39:15.310Z,72188,-0.11222239,0.23854455,-0.119463265
1734277155312,2024-12-15T15:39:15.312Z,72190,-0.11222239,0.23854455,-0.119463265
1734277155323,2024-12-15T15:39:15.323Z,72201,-0.12333723,0.23021704,-0.11923922
1734277155326,2024-12-15T15:39:15.326Z,72204,-0.12333723,0.23021704,-0.11923922
1734277155338,2024-12-15T15:39:15.338Z,72216,-0.074149735,0.16228855,-0.082197346
1734277155342,2024-12-15T15:39:15.342Z,72220,-0.074149735,0.16228855,-0.082197346
1734277155353,2024-12-15T15:39:15.353Z,72231,-0.014372726,0.12993336,-0.074125856
1734277155356,2024-12-15T15:39:15.356Z,72234,-0.014372726,0.12993336,-0.074125856
1734277155367,2024-12-15T15:39:15.367Z,72245,-0.027217144,0.16819537,-0.11926994
1734277155371,2024-12-15T15:39:15.371Z,72249,-0.027217144,0.16819537,-0.11926994
1734277155385,2024-12-15T15:39:15.385Z,72263,-0.08225615,0.19699746,-0.14178152
1734277155388,2024-12-15T15:39:15.388Z,72266,-0.08225615,0.19699746,-0.14178152
1734277155401,2024-12-15T15:39:15.401Z,72279,-0.1107185,0.2173733,-0.16703582
1734277155404,2024-12-15T15:39:15.404Z,72282,-0.1107185,0.2173733,-0.16703582
1734277155416,2024-12-15T15:39:15.416Z,72294,-0.121857315,0.2240409,-0.1834286
1734277155420,2024-12-15T15:39:15.420Z,72298,-0.121857315,0.2240409,-0.1834286
1734277155431,2024-12-15T15:39:15.431Z,72309,-0.13182342,0.1994379,-0.15368146
1734277155434,2024-12-15T15:39:15.434Z,72312,-0.13182342,0.1994379,-0.15368146
1734277155450,2024-12-15T15:39:15.450Z,72328,-0.091207966,0.19140086,-0.15082955
1734277155453,2024-12-15T15:39:15.453Z,72331,-0.091207966,0.19140086,-0.15082955
1734277155466,2024-12-15T15:39:15.466Z,72344,-0.015310462,0.1774795,-0.15752749
1734277155470,2024-12-15T15:39:15.470Z,72348,-0.015310462,0.1774795,-0.15752749
1734277155483,2024-12-15T15:39:15.483Z,72361,0.01346952,0.16841476,-0.11095309
1734277155487,2024-12-15T15:39:15.487Z,72365,0.01346952,0.16841476,-0.11095309
1734277155497,2024-12-15T15:39:15.497Z,72375,0.014196841,0.18425646,-0.06551176
1734277155501,2024-12-15T15:39:15.501Z,72379,0.014196841,0.18425646,-0.06551176
1734277155511,2024-12-15T15:39:15.511Z,72389,0.009857849,0.17811765,-0.049162798
1734277155514,2024-12-15T15:39:15.514Z,72392,0.009857849,0.17811765,-0.049162798
1734277155524,2024-12-15T15:39:15.524Z,72402,0.018678587,0.11828045,-0.05351832
1734277155526,2024-12-15T15:39:15.526Z,72404,0.018678587,0.11828045,-0.05351832
1734277155535,2024-12-15T15:39:15.535Z,72413,0.021571063,0.06822754,-0.06475103
1734277155538,2024-12-15T15:39:15.538Z,72416,0.021571063,0.06822754,-0.06475103
1734277155548,2024-12-15T15:39:15.548Z,72426,0.023846848,0.06403227,-0.027292011
1734277155552,2024-12-15T15:39:15.552Z,72430,0.023846848,0.06403227,-0.027292011
1734277155562,2024-12-15T15:39:15.562Z,72440,0.028947094,0.07883269,0.029473959
1734277155565,2024-12-15T15:39:15.565Z,72443,0.028947094,0.07883269,0.029473959
1734277155575,2024-12-15T15:39:15.575Z,72453,0.051664233,0.06634638,0.049436472
1734277155578,2024-12-15T15:39:15.578Z,72456,0.051664233,0.06634638,0.049436472
1734277155590,2024-12-15T15:39:15.590Z,72468,0.08461686,0.048544794,0.03218857
1734277155594,2024-12-15T15:39:15.594Z,72472,0.08461686,0.048544794,0.03218857
1734277155606,2024-12-15T15:39:15.606Z,72484,0.075365335,0.1044103,0.040567357
1734277155609,2024-12-15T15:39:15.609Z,72487,0.075365335,0.1044103,0.040567357
1734277155617,2024-12-15T15:39:15.617Z,72495,0.06329817,0.1490189,0.053710606
1734277155620,2024-12-15T15:39:15.620Z,72498,0.06329817,0.1490189,0.053710606
1734277155630,2024-12-15T15:39:15.630Z,72508,0.056083746,0.07508302,0.029955504
1734277155633,2024-12-15T15:39:15.633Z,72511,0.056083746,0.07508302,0.029955504
1734277155643,2024-12-15T15:39:15.643Z,72521,0.036800414,0.054407082,6.761755E-4
1734277155646,2024-12-15T15:39:15.646Z,72524,0.036800414,0.054407082,6.761755E-4
1734277155656,2024-12-15T15:39:15.656Z,72534,0.04388533,0.11421199,0.016562914
1734277155659,2024-12-15T15:39:15.659Z,72537,0.04388533,0.11421199,0.016562914
1734277155671,2024-12-15T15:39:15.671Z,72549,0.0744658,0.123686254,0.0076434272
1734277155674,2024-12-15T15:39:15.674Z,72552,0.0744658,0.123686254,0.0076434272
1734277155686,2024-12-15T15:39:15.686Z,72564,0.09115981,0.07800969,-0.010159585
1734277155690,2024-12-15T15:39:15.690Z,72568,0.09115981,0.07800969,-0.010159585
1734277155702,2024-12-15T15:39:15.702Z,72580,0.05823806,0.13434179,0.009477519
1734277155707,2024-12-15T15:39:15.707Z,72585,0.05823806,0.13434179,0.009477519
1734277155723,2024-12-15T15:39:15.723Z,72601,0.030098617,0.20525107,0.016570367
1734277155727,2024-12-15T15:39:15.727Z,72605,0.030098617,0.20525107,0.016570367
1734277155737,2024-12-15T15:39:15.737Z,72615,0.038149025,0.11015579,-0.010208816
1734277155740,2024-12-15T15:39:15.740Z,72618,0.038149025,0.11015579,-0.010208816
1734277155750,2024-12-15T15:39:15.750Z,72628,0.04958154,0.040898692,-0.025372118
1734277155754,2024-12-15T15:39:15.754Z,72632,0.04958154,0.040898692,-0.025372118
1734277155764,2024-12-15T15:39:15.764Z,72642,0.031068906,0.15457533,-0.018692968
1734277155767,2024-12-15T15:39:15.767Z,72645,0.031068906,0.15457533,-0.018692968
1734277155777,2024-12-15T15:39:15.777Z,72655,-0.0039346362,0.20809247,0.008012677
1734277155781,2024-12-15T15:39:15.781Z,72659,-0.0039346362,0.20809247,0.008012677
1734277155792,2024-12-15T15:39:15.792Z,72670,-0.00404936,0.1204728,0.03400749
1734277155795,2024-12-15T15:39:15.795Z,72673,-0.00404936,0.1204728,0.03400749
1734277155807,2024-12-15T15:39:15.807Z,72685,0.032202914,0.11236224,-0.008058164
1734277155810,2024-12-15T15:39:15.810Z,72688,0.032202914,0.11236224,-0.008058164
1734277155820,2024-12-15T15:39:15.820Z,72698,0.021972938,0.17839937,-0.017765546
1734277155823,2024-12-15T15:39:15.823Z,72701,0.021972938,0.17839937,-0.017765546
1734277155834,2024-12-15T15:39:15.834Z,72712,0.006604238,0.17216375,-1.8683717E-5
1734277155837,2024-12-15T15:39:15.837Z,72715,0.006604238,0.17216375,-1.8683717E-5
1734277155848,2024-12-15T15:39:15.848Z,72726,-0.025601404,0.15474397,-0.04514491
1734277155852,2024-12-15T15:39:15.852Z,72730,-0.025601404,0.15474397,-0.04514491
1734277155862,2024-12-15T15:39:15.862Z,72740,-0.055949833,0.199385,-0.075659625
1734277155866,2024-12-15T15:39:15.866Z,72744,-0.055949833,0.199385,-0.075659625
1734277155878,2024-12-15T15:39:15.878Z,72756,-0.035541203,0.26260364,-0.04953352
1734277155881,2024-12-15T15:39:15.881Z,72759,-0.035541203,0.26260364,-0.04953352
1734277155893,2024-12-15T15:39:15.893Z,72771,0.010302316,0.28779534,-0.029529694
1734277155897,2024-12-15T15:39:15.897Z,72775,0.010302316,0.28779534,-0.029529694
1734277155908,2024-12-15T15:39:15.908Z,72786,0.035674483,0.21051976,-0.014430381
1734277155912,2024-12-15T15:39:15.912Z,72790,0.035674483,0.21051976,-0.014430381
1734277155923,2024-12-15T15:39:15.923Z,72801,0.022942258,0.0981174,-0.0044221575
1734277155927,2024-12-15T15:39:15.927Z,72805,0.022942258,0.0981174,-0.0044221575
1734277155937,2024-12-15T15:39:15.937Z,72815,-9.972327E-4,0.108675584,-0.058050152
1734277155941,2024-12-15T15:39:15.941Z,72819,-9.972327E-4,0.108675584,-0.058050152
1734277155952,2024-12-15T15:39:15.952Z,72830,0.0028280364,0.18359207,-0.09556955
1734277155955,2024-12-15T15:39:15.955Z,72833,0.0028280364,0.18359207,-0.09556955
1734277155966,2024-12-15T15:39:15.966Z,72844,0.025104972,0.17400806,-0.083743036
1734277155969,2024-12-15T15:39:15.969Z,72847,0.025104972,0.17400806,-0.083743036
1734277155980,2024-12-15T15:39:15.980Z,72858,0.05004628,0.16830438,-0.062928975
1734277155984,2024-12-15T15:39:15.984Z,72862,0.05004628,0.16830438,-0.062928975
1734277155994,2024-12-15T15:39:15.994Z,72872,0.016612858,0.2114052,-0.02675428
1734277155997,2024-12-15T15:39:15.997Z,72875,0.016612858,0.2114052,-0.02675428
1734277156008,2024-12-15T15:39:16.008Z,72886,0.022893906,0.20668703,-0.012408614
1734277156012,2024-12-15T15:39:16.012Z,72890,0.022893906,0.20668703,-0.012408614
1734277156023,2024-12-15T15:39:16.023Z,72901,0.05851448,0.11806991,-0.039103027
1734277156027,2024-12-15T15:39:16.027Z,72905,0.05851448,0.11806991,-0.039103027
1734277156035,2024-12-15T15:39:16.035Z,72913,0.032585572,-0.011014957,-0.069960676
1734277156039,2024-12-15T15:39:16.039Z,72917,0.032585572,-0.011014957,-0.069960676
1734277156049,2024-12-15T15:39:16.049Z,72927,0.009492696,-0.047414195,-0.06583341
1734277156053,2024-12-15T15:39:16.053Z,72931,0.009492696,-0.047414195,-0.06583341
1734277156062,2024-12-15T15:39:16.062Z,72940,0.052872118,0.025895024,-0.012157532
1734277156065,2024-12-15T15:39:16.065Z,72943,0.052872118,0.025895024,-0.012157532
1734277156075,2024-12-15T15:39:16.075Z,72953,0.07203408,0.06547806,0.030806022
1734277156078,2024-12-15T15:39:16.078Z,72956,0.07203408,0.06547806,0.030806022
1734277156089,2024-12-15T15:39:16.089Z,72967,0.11478124,0.0011190295,0.04116148
1734277156092,2024-12-15T15:39:16.092Z,72970,0.11478124,0.0011190295,0.04116148
1734277156102,2024-12-15T15:39:16.102Z,72980,0.13826376,-0.011942506,-0.0125645995
1734277156105,2024-12-15T15:39:16.105Z,72983,0.13826376,-0.011942506,-0.0125645995
1734277156115,2024-12-15T15:39:16.115Z,72993,0.119294286,0.097514756,-0.04417217
1734277156120,2024-12-15T15:39:16.120Z,72998,0.119294286,0.097514756,-0.04417217
1734277156130,2024-12-15T15:39:16.130Z,73008,0.12305393,0.18888068,-0.0755811
1734277156133,2024-12-15T15:39:16.133Z,73011,0.12305393,0.18888068,-0.0755811
1734277156144,2024-12-15T15:39:16.144Z,73022,0.06285444,0.08646547,-0.08560474
1734277156147,2024-12-15T15:39:16.147Z,73025,0.06285444,0.08646547,-0.08560474
1734277156158,2024-12-15T15:39:16.158Z,73036,0.065462254,-0.08134363,-0.053220224
1734277156161,2024-12-15T15:39:16.161Z,73039,0.065462254,-0.08134363,-0.053220224
1734277156170,2024-12-15T15:39:16.170Z,73048,0.17460516,-0.052100074,-0.046997912
1734277156173,2024-12-15T15:39:16.173Z,73051,0.17460516,-0.052100074,-0.046997912
1734277156185,2024-12-15T15:39:16.185Z,73063,0.1579343,0.09603834,-0.08000342
1734277156188,2024-12-15T15:39:16.188Z,73066,0.1579343,0.09603834,-0.08000342
1734277156199,2024-12-15T15:39:16.199Z,73077,0.025214091,0.037573308,-0.076946914
1734277156202,2024-12-15T15:39:16.202Z,73080,0.025214091,0.037573308,-0.076946914
1734277156212,2024-12-15T15:39:16.212Z,73090,-0.010657772,-0.1629933,-0.10805517
1734277156215,2024-12-15T15:39:16.215Z,73093,-0.010657772,-0.1629933,-0.10805517
1734277156225,2024-12-15T15:39:16.225Z,73103,0.05299766,-0.20607588,-0.15674973
1734277156228,2024-12-15T15:39:16.228Z,73106,0.05299766,-0.20607588,-0.15674973
1734277156237,2024-12-15T15:39:16.237Z,73115,0.074210286,-0.0757231,-0.11798855
1734277156241,2024-12-15T15:39:16.241Z,73119,0.074210286,-0.0757231,-0.11798855
1734277156258,2024-12-15T15:39:16.258Z,73136,0.078090146,0.03823041,-0.042553447
1734277156262,2024-12-15T15:39:16.262Z,73140,0.078090146,0.03823041,-0.042553447
1734277156276,2024-12-15T15:39:16.276Z,73154,0.060626637,0.025608825,-0.013327775
1734277156279,2024-12-15T15:39:16.279Z,73157,0.060626637,0.025608825,-0.013327775
1734277156289,2024-12-15T15:39:16.289Z,73167,-0.009193465,-0.08232729,0.057146695
1734277156292,2024-12-15T15:39:16.292Z,73170,-0.009193465,-0.08232729,0.057146695
1734277156302,2024-12-15T15:39:16.302Z,73180,-0.040480286,-0.17968412,0.0030638864
1734277156306,2024-12-15T15:39:16.306Z,73184,-0.040480286,-0.17968412,0.0030638864
1734277156315,2024-12-15T15:39:16.315Z,73193,-0.05342026,-0.22071487,0.11339937
1734277156318,2024-12-15T15:39:16.318Z,73196,-0.05342026,-0.22071487,0.11339937
1734277156328,2024-12-15T15:39:16.328Z,73206,-0.03707358,-0.14732757,0.14214411
1734277156332,2024-12-15T15:39:16.332Z,73210,-0.03707358,-0.14732757,0.14214411
1734277156343,2024-12-15T15:39:16.343Z,73221,-0.01814939,-0.12771192,0.13245039
1734277156347,2024-12-15T15:39:16.347Z,73225,-0.01814939,-0.12771192,0.13245039
1734277156359,2024-12-15T15:39:16.359Z,73237,-0.051091805,-0.17787454,0.15831089
1734277156362,2024-12-15T15:39:16.362Z,73240,-0.051091805,-0.17787454,0.15831089
1734277156375,2024-12-15T15:39:16.375Z,73253,-0.051347062,-0.190967,0.13487366
1734277156378,2024-12-15T15:39:16.378Z,73256,-0.051347062,-0.190967,0.13487366
1734277156390,2024-12-15T15:39:16.390Z,73268,-0.0024209758,-0.17381561,0.07778604
1734277156393,2024-12-15T15:39:16.393Z,73271,-0.0024209758,-0.17381561,0.07778604
1734277156403,2024-12-15T15:39:16.403Z,73281,0.018473778,-0.11442234,0.10368821
1734277156407,2024-12-15T15:39:16.407Z,73285,0.018473778,-0.11442234,0.10368821
1734277156419,2024-12-15T15:39:16.419Z,73297,0.09227913,-0.056346882,0.13702412
1734277156421,2024-12-15T15:39:16.421Z,73299,0.09227913,-0.056346882,0.13702412
1734277156431,2024-12-15T15:39:16.431Z,73309,0.085250534,-0.112105414,0.08202154
1734277156434,2024-12-15T15:39:16.434Z,73312,0.085250534,-0.112105414,0.08202154
1734277156445,2024-12-15T15:39:16.445Z,73323,-0.0051902565,-0.23023348,0.03934849
1734277156448,2024-12-15T15:39:16.448Z,73326,-0.0051902565,-0.23023348,0.03934849
1734277156458,2024-12-15T15:39:16.458Z,73336,-0.022130456,-0.22887269,0.0014622166
1734277156461,2024-12-15T15:39:16.461Z,73339,-0.022130456,-0.22887269,0.0014622166
1734277156472,2024-12-15T15:39:16.472Z,73350,-0.019943124,-0.13340159,-0.036903515
1734277156475,2024-12-15T15:39:16.475Z,73353,-0.019943124,-0.13340159,-0.036903515
1734277156486,2024-12-15T15:39:16.486Z,73364,-0.017629236,-0.12339957,0.0061758375
1734277156489,2024-12-15T15:39:16.489Z,73367,-0.017629236,-0.12339957,0.0061758375
1734277156498,2024-12-15T15:39:16.498Z,73376,0.033378042,-0.13270676,0.08243679
1734277156501,2024-12-15T15:39:16.501Z,73379,0.033378042,-0.13270676,0.08243679
1734277156511,2024-12-15T15:39:16.511Z,73389,0.11378407,-0.12169774,0.17466345
1734277156514,2024-12-15T15:39:16.514Z,73392,0.11378407,-0.12169774,0.17466345
1734277156526,2024-12-15T15:39:16.526Z,73404,0.17305349,-0.08870071,0.16334468
1734277156529,2024-12-15T15:39:16.529Z,73407,0.17305349,-0.08870071,0.16334468
1734277156541,2024-12-15T15:39:16.541Z,73419,0.13370152,-0.06098842,0.09466773
1734277156544,2024-12-15T15:39:16.544Z,73422,0.13370152,-0.06098842,0.09466773
1734277156554,2024-12-15T15:39:16.554Z,73432,0.030072313,-0.061443344,0.07581996
1734277156557,2024-12-15T15:39:16.557Z,73435,0.030072313,-0.061443344,0.07581996
1734277156567,2024-12-15T15:39:16.567Z,73445,-0.014155122,-0.08849678,0.057300784
1734277156570,2024-12-15T15:39:16.570Z,73448,-0.014155122,-0.08849678,0.057300784
1734277156580,2024-12-15T15:39:16.580Z,73458,-0.0153996255,-0.12507465,0.07602513
1734277156583,2024-12-15T15:39:16.583Z,73461,-0.0153996255,-0.12507465,0.07602513
1734277156594,2024-12-15T15:39:16.594Z,73472,-0.0283255,-0.14122799,0.16689193
1734277156597,2024-12-15T15:39:16.597Z,73475,-0.0283255,-0.14122799,0.16689193
1734277156611,2024-12-15T15:39:16.611Z,73489,-0.031011032,-0.128105,0.24073343
1734277156614,2024-12-15T15:39:16.614Z,73492,-0.031011032,-0.128105,0.24073343
1734277156623,2024-12-15T15:39:16.623Z,73501,-0.05178335,-0.13552752,0.1809276
1734277156627,2024-12-15T15:39:16.627Z,73505,-0.05178335,-0.13552752,0.1809276
1734277156636,2024-12-15T15:39:16.636Z,73514,-0.011052738,-0.1966485,0.17836186
1734277156640,2024-12-15T15:39:16.640Z,73518,-0.011052738,-0.1966485,0.17836186
1734277156650,2024-12-15T15:39:16.650Z,73528,0.09852173,-0.23396371,0.15513466
1734277156653,2024-12-15T15:39:16.653Z,73531,0.09852173,-0.23396371,0.15513466
1734277156664,2024-12-15T15:39:16.664Z,73542,0.06723629,-0.28195012,0.07588541
1734277156667,2024-12-15T15:39:16.667Z,73545,0.06723629,-0.28195012,0.07588541
1734277156677,2024-12-15T15:39:16.677Z,73555,-0.0071594985,-0.33978936,0.13425207
1734277156679,2024-12-15T15:39:16.679Z,73557,-0.0071594985,-0.33978936,0.13425207
1734277156689,2024-12-15T15:39:16.689Z,73567,0.018051898,-0.25317207,0.18564749
1734277156692,2024-12-15T15:39:16.692Z,73570,0.018051898,-0.25317207,0.18564749
1734277156702,2024-12-15T15:39:16.702Z,73580,0.06951206,-0.14823537,0.12871484
1734277156705,2024-12-15T15:39:16.705Z,73583,0.06951206,-0.14823537,0.12871484
1734277156713,2024-12-15T15:39:16.713Z,73591,0.076724894,-0.129691,0.066624604
1734277156716,2024-12-15T15:39:16.716Z,73594,0.076724894,-0.129691,0.066624604
1734277156725,2024-12-15T15:39:16.725Z,73603,0.09728423,-0.1278927,-0.0028194056
1734277156728,2024-12-15T15:39:16.728Z,73606,0.09728423,-0.1278927,-0.0028194056
1734277156739,2024-12-15T15:39:16.739Z,73617,0.14095108,-0.13553317,-0.115671754
1734277156742,2024-12-15T15:39:16.742Z,73620,0.14095108,-0.13553317,-0.115671754
1734277156754,2024-12-15T15:39:16.754Z,73632,0.100099795,-0.17594571,-0.21370067
1734277156759,2024-12-15T15:39:16.759Z,73637,0.100099795,-0.17594571,-0.21370067
1734277156769,2024-12-15T15:39:16.769Z,73647,0.057293467,-0.18946859,-0.18685795
1734277156772,2024-12-15T15:39:16.772Z,73650,0.057293467,-0.18946859,-0.18685795
1734277156781,2024-12-15T15:39:16.781Z,73659,0.059014704,-0.13053755,-0.18191184
1734277156785,2024-12-15T15:39:16.785Z,73663,0.059014704,-0.13053755,-0.18191184
1734277156795,2024-12-15T15:39:16.795Z,73673,0.08597182,-0.071617596,-0.14466651
1734277156798,2024-12-15T15:39:16.798Z,73676,0.08597182,-0.071617596,-0.14466651
1734277156814,2024-12-15T15:39:16.814Z,73692,0.12321898,-0.02891476,-0.15028715
1734277156819,2024-12-15T15:39:16.819Z,73697,0.12321898,-0.02891476,-0.15028715
1734277156831,2024-12-15T15:39:16.831Z,73709,0.12660165,-0.0068550888,-0.18929586
1734277156835,2024-12-15T15:39:16.835Z,73713,0.12660165,-0.0068550888,-0.18929586
1734277156846,2024-12-15T15:39:16.846Z,73724,0.09198301,-0.034509227,-0.16859014
1734277156849,2024-12-15T15:39:16.849Z,73727,0.09198301,-0.034509227,-0.16859014
1734277156859,2024-12-15T15:39:16.859Z,73737,0.06067518,-0.09099401,-0.16328114
1734277156863,2024-12-15T15:39:16.863Z,73741,0.06067518,-0.09099401,-0.16328114
1734277156872,2024-12-15T15:39:16.872Z,73750,0.015849676,-0.13535959,-0.20458807
1734277156875,2024-12-15T15:39:16.875Z,73753,0.015849676,-0.13535959,-0.20458807
1734277156885,2024-12-15T15:39:16.885Z,73763,-0.036903344,-0.14885883,-0.2186183
1734277156888,2024-12-15T15:39:16.888Z,73766,-0.036903344,-0.14885883,-0.2186183
1734277156897,2024-12-15T15:39:16.897Z,73775,-0.044709418,-0.11072314,-0.18697236
1734277156900,2024-12-15T15:39:16.900Z,73778,-0.044709418,-0.11072314,-0.18697236
1734277156909,2024-12-15T15:39:16.909Z,73787,-0.020904904,-0.04538269,-0.15808427
1734277156912,2024-12-15T15:39:16.912Z,73790,-0.020904904,-0.04538269,-0.15808427
1734277156923,2024-12-15T15:39:16.923Z,73801,-0.044035345,-0.05969979,-0.13447149
1734277156926,2024-12-15T15:39:16.926Z,73804,-0.044035345,-0.05969979,-0.13447149
1734277156936,2024-12-15T15:39:16.936Z,73814,-0.048992377,-0.14258625,-0.12443609
1734277156939,2024-12-15T15:39:16.939Z,73817,-0.048992377,-0.14258625,-0.12443609
1734277156948,2024-12-15T15:39:16.948Z,73826,-0.036317233,-0.17281386,-0.18029352
1734277156951,2024-12-15T15:39:16.951Z,73829,-0.036317233,-0.17281386,-0.18029352
1734277156961,2024-12-15T15:39:16.961Z,73839,-0.04833783,-0.11662325,-0.18325955
1734277156964,2024-12-15T15:39:16.964Z,73842,-0.04833783,-0.11662325,-0.18325955
1734277156974,2024-12-15T15:39:16.974Z,73852,-0.065232135,-0.008583764,-0.106208265
1734277156977,2024-12-15T15:39:16.977Z,73855,-0.065232135,-0.008583764,-0.106208265
1734277156987,2024-12-15T15:39:16.987Z,73865,-0.0383995,0.0067894463,-0.037619356
1734277156990,2024-12-15T15:39:16.990Z,73868,-0.0383995,0.0067894463,-0.037619356
1734277157000,2024-12-15T15:39:17Z,73878,-0.016821034,-0.114194006,-0.05633769
1734277157004,2024-12-15T15:39:17.004Z,73882,-0.016821034,-0.114194006,-0.05633769
1734277157017,2024-12-15T15:39:17.017Z,73895,0.010854328,-0.20390482,-0.030705284
1734277157020,2024-12-15T15:39:17.020Z,73898,0.010854328,-0.20390482,-0.030705284
1734277157031,2024-12-15T15:39:17.031Z,73909,0.06814765,-0.13509089,-0.0036357031
1734277157035,2024-12-15T15:39:17.035Z,73913,0.06814765,-0.13509089,-0.0036357031
1734277157045,2024-12-15T15:39:17.045Z,73923,0.07038308,-0.0596076,-0.026895508
1734277157047,2024-12-15T15:39:17.047Z,73925,0.07038308,-0.0596076,-0.026895508
1734277157057,2024-12-15T15:39:17.057Z,73935,0.042484924,-0.09965333,0.013605393
1734277157061,2024-12-15T15:39:17.061Z,73939,0.042484924,-0.09965333,0.013605393
1734277157071,2024-12-15T15:39:17.071Z,73949,0.026395632,-0.11189828,0.026216477
1734277157075,2024-12-15T15:39:17.075Z,73953,0.026395632,-0.11189828,0.026216477
1734277157085,2024-12-15T15:39:17.085Z,73963,-0.017268106,-0.06495233,0.057752356
1734277157089,2024-12-15T15:39:17.089Z,73967,-0.017268106,-0.06495233,0.057752356
1734277157100,2024-12-15T15:39:17.100Z,73978,0.031192934,-0.032494936,0.14846526
1734277157104,2024-12-15T15:39:17.104Z,73982,0.031192934,-0.032494936,0.14846526
1734277157113,2024-12-15T15:39:17.113Z,73991,0.14217949,-0.020263799,0.16173764
1734277157115,2024-12-15T15:39:17.115Z,73993,0.14217949,-0.020263799,0.16173764
1734277157125,2024-12-15T15:39:17.125Z,74003,0.20360562,-0.085640326,0.18559824
1734277157128,2024-12-15T15:39:17.128Z,74006,0.20360562,-0.085640326,0.18559824
1734277157139,2024-12-15T15:39:17.139Z,74017,0.16396983,-0.1626613,0.17425701
1734277157142,2024-12-15T15:39:17.142Z,74020,0.16396983,-0.1626613,0.17425701
1734277157152,2024-12-15T15:39:17.152Z,74030,0.0418746,-0.1726538,0.091386646
1734277157155,2024-12-15T15:39:17.155Z,74033,0.0418746,-0.1726538,0.091386646
1734277157164,2024-12-15T15:39:17.164Z,74042,-0.03381505,-0.13935967,0.1077263
1734277157167,2024-12-15T15:39:17.167Z,74045,-0.03381505,-0.13935967,0.1077263
1734277157176,2024-12-15T15:39:17.176Z,74054,-0.023411172,-0.08204624,0.122682706
1734277157179,2024-12-15T15:39:17.179Z,74057,-0.023411172,-0.08204624,0.122682706
1734277157188,2024-12-15T15:39:17.188Z,74066,0.012611108,-0.10906254,0.13142401
1734277157191,2024-12-15T15:39:17.191Z,74069,0.012611108,-0.10906254,0.13142401
1734277157200,2024-12-15T15:39:17.200Z,74078,0.03660715,-0.20572083,0.1838095
1734277157202,2024-12-15T15:39:17.202Z,74080,0.03660715,-0.20572083,0.1838095
1734277157213,2024-12-15T15:39:17.213Z,74091,0.07229894,-0.26539427,0.20167683
1734277157216,2024-12-15T15:39:17.216Z,74094,0.07229894,-0.26539427,0.20167683
1734277157227,2024-12-15T15:39:17.227Z,74105,0.13566244,-0.2655947,0.15957417
1734277157230,2024-12-15T15:39:17.230Z,74108,0.13566244,-0.2655947,0.15957417
1734277157242,2024-12-15T15:39:17.242Z,74120,0.12663206,-0.22633997,-0.025845502
1734277157245,2024-12-15T15:39:17.245Z,74123,0.12663206,-0.22633997,-0.025845502
1734277157255,2024-12-15T15:39:17.255Z,74133,-0.12232198,-0.26360336,-0.18358406
1734277157258,2024-12-15T15:39:17.258Z,74136,-0.12232198,-0.26360336,-0.18358406
1734277157269,2024-12-15T15:39:17.269Z,74147,-0.349881,-0.40504256,-0.07709123
1734277157273,2024-12-15T15:39:17.273Z,74151,-0.349881,-0.40504256,-0.07709123
1734277157282,2024-12-15T15:39:17.282Z,74160,-0.27806747,-0.39916122,-0.00625084
1734277157286,2024-12-15T15:39:17.286Z,74164,-0.27806747,-0.39916122,-0.00625084
1734277157297,2024-12-15T15:39:17.297Z,74175,-0.0668054,-0.23937836,-0.08960735
1734277157301,2024-12-15T15:39:17.301Z,74179,-0.0668054,-0.23937836,-0.08960735
1734277157312,2024-12-15T15:39:17.312Z,74190,0.09467544,-0.13343437,-0.05975561
1734277157315,2024-12-15T15:39:17.315Z,74193,0.09467544,-0.13343437,-0.05975561
1734277157326,2024-12-15T15:39:17.326Z,74204,0.22809602,-0.06965698,0.03274282
1734277157329,2024-12-15T15:39:17.329Z,74207,0.22809602,-0.06965698,0.03274282
1734277157341,2024-12-15T15:39:17.341Z,74219,0.23679818,-0.04547177,-0.06266108
1734277157345,2024-12-15T15:39:17.345Z,74223,0.23679818,-0.04547177,-0.06266108
1734277157354,2024-12-15T15:39:17.354Z,74232,0.08937491,-0.17448486,-0.15030277
1734277157357,2024-12-15T15:39:17.357Z,74235,0.08937491,-0.17448486,-0.15030277
1734277157375,2024-12-15T15:39:17.375Z,74253,-0.0052430253,-0.28724253,-0.117399216
1734277157378,2024-12-15T15:39:17.378Z,74256,-0.0052430253,-0.28724253,-0.117399216
1734277157393,2024-12-15T15:39:17.393Z,74271,0.04038096,-0.17318408,-0.10825212
1734277157396,2024-12-15T15:39:17.396Z,74274,0.04038096,-0.17318408,-0.10825212
1734277157407,2024-12-15T15:39:17.407Z,74285,0.15566078,-0.0074584135,-0.12133286
1734277157410,2024-12-15T15:39:17.410Z,74288,0.15566078,-0.0074584135,-0.12133286
1734277157421,2024-12-15T15:39:17.421Z,74299,0.1919218,0.020163147,-0.07696955
1734277157425,2024-12-15T15:39:17.425Z,74303,0.1919218,0.020163147,-0.07696955
1734277157434,2024-12-15T15:39:17.434Z,74312,0.19489425,-0.012902341,0.04199567
1734277157439,2024-12-15T15:39:17.439Z,74317,0.19489425,-0.012902341,0.04199567
1734277157449,2024-12-15T15:39:17.449Z,74327,0.2397693,0.006065729,0.06325115
1734277157452,2024-12-15T15:39:17.452Z,74330,0.2397693,0.006065729,0.06325115
1734277157462,2024-12-15T15:39:17.462Z,74340,0.26215708,0.025506811,0.039354328
1734277157465,2024-12-15T15:39:17.465Z,74343,0.26215708,0.025506811,0.039354328
1734277157476,2024-12-15T15:39:17.476Z,74354,0.17341718,-0.0010471634,0.001314084
1734277157479,2024-12-15T15:39:17.479Z,74357,0.17341718,-0.0010471634,0.001314084
1734277157487,2024-12-15T15:39:17.487Z,74365,0.050379496,-0.06420897,0.0017823561
1734277157490,2024-12-15T15:39:17.490Z,74368,0.050379496,-0.06420897,0.0017823561
1734277157499,2024-12-15T15:39:17.499Z,74377,0.010428864,-0.07867068,-0.0066957725
1734277157503,2024-12-15T15:39:17.503Z,74381,0.010428864,-0.07867068,-0.0066957725
1734277157513,2024-12-15T15:39:17.513Z,74391,0.040348217,-0.03445263,-0.020611556
1734277157516,2024-12-15T15:39:17.516Z,74394,0.040348217,-0.03445263,-0.020611556
1734277157527,2024-12-15T15:39:17.527Z,74405,0.061021555,0.053772636,-0.03796755
1734277157531,2024-12-15T15:39:17.531Z,74409,0.061021555,0.053772636,-0.03796755
1734277157543,2024-12-15T15:39:17.543Z,74421,0.005447027,0.099609956,0.034826983
1734277157547,2024-12-15T15:39:17.547Z,74425,0.005447027,0.099609956,0.034826983
1734277157555,2024-12-15T15:39:17.555Z,74433,-0.08287305,0.029636825,0.036400985
1734277157559,2024-12-15T15:39:17.559Z,74437,-0.08287305,0.029636825,0.036400985
1734277157569,2024-12-15T15:39:17.569Z,74447,-0.04567164,-0.049010027,-0.022847645
1734277157572,2024-12-15T15:39:17.572Z,74450,-0.04567164,-0.049010027,-0.022847645
1734277157581,2024-12-15T15:39:17.581Z,74459,0.047497198,0.015532307,-0.037965726
1734277157584,2024-12-15T15:39:17.584Z,74462,0.047497198,0.015532307,-0.037965726
1734277157595,2024-12-15T15:39:17.595Z,74473,0.056059,0.12445169,-0.027175508
1734277157599,2024-12-15T15:39:17.599Z,74477,0.056059,0.12445169,-0.027175508
1734277157608,2024-12-15T15:39:17.608Z,74486,-0.04673408,0.11125061,-0.041662138
1734277157611,2024-12-15T15:39:17.611Z,74489,-0.04673408,0.11125061,-0.041662138
1734277157619,2024-12-15T15:39:17.619Z,74497,-0.14302868,0.03567698,-0.035035215
1734277157621,2024-12-15T15:39:17.621Z,74499,-0.14302868,0.03567698,-0.035035215
1734277157630,2024-12-15T15:39:17.630Z,74508,-0.10287098,0.019071346,-0.037966844
1734277157633,2024-12-15T15:39:17.633Z,74511,-0.10287098,0.019071346,-0.037966844
1734277157642,2024-12-15T15:39:17.642Z,74520,0.017600877,0.049566187,0.036418222
1734277157645,2024-12-15T15:39:17.645Z,74523,0.017600877,0.049566187,0.036418222
1734277157653,2024-12-15T15:39:17.653Z,74531,0.117555276,0.047819424,0.09181998
1734277157656,2024-12-15T15:39:17.656Z,74534,0.117555276,0.047819424,0.09181998
1734277157666,2024-12-15T15:39:17.666Z,74544,0.1137034,0.038934097,0.047926154
1734277157669,2024-12-15T15:39:17.669Z,74547,0.1137034,0.038934097,0.047926154
1734277157680,2024-12-15T15:39:17.680Z,74558,0.042692304,0.053063508,0.048348647
1734277157683,2024-12-15T15:39:17.683Z,74561,0.042692304,0.053063508,0.048348647
1734277157695,2024-12-15T15:39:17.695Z,74573,0.010034591,0.13684358,0.04525031
1734277157698,2024-12-15T15:39:17.698Z,74576,0.010034591,0.13684358,0.04525031
1734277157707,2024-12-15T15:39:17.707Z,74585,0.0507541,0.16292936,0.023323016
1734277157709,2024-12-15T15:39:17.709Z,74587,0.0507541,0.16292936,0.023323016
1734277157717,2024-12-15T15:39:17.717Z,74595,0.02290243,0.110494316,-0.031899367
1734277157720,2024-12-15T15:39:17.720Z,74598,0.02290243,0.110494316,-0.031899367
1734277157729,2024-12-15T15:39:17.729Z,74607,-0.044782057,0.07415148,0.03836461
1734277157732,2024-12-15T15:39:17.732Z,74610,-0.044782057,0.07415148,0.03836461
1734277157745,2024-12-15T15:39:17.745Z,74623,0.055030476,0.06010891,0.116365865
1734277157748,2024-12-15T15:39:17.748Z,74626,0.055030476,0.06010891,0.116365865
1734277157757,2024-12-15T15:39:17.757Z,74635,0.14744261,0.09874747,0.0740262
1734277157760,2024-12-15T15:39:17.760Z,74638,0.14744261,0.09874747,0.0740262
1734277157768,2024-12-15T15:39:17.768Z,74646,0.11657525,0.10083674,0.06852825
1734277157771,2024-12-15T15:39:17.771Z,74649,0.11657525,0.10083674,0.06852825
1734277157782,2024-12-15T15:39:17.782Z,74660,0.010452823,0.035503585,-0.006447232
1734277157787,2024-12-15T15:39:17.787Z,74665,0.010452823,0.035503585,-0.006447232
1734277157797,2024-12-15T15:39:17.797Z,74675,-0.062724024,-0.020158382,-0.0016372382
1734277157800,2024-12-15T15:39:17.800Z,74678,-0.062724024,-0.020158382,-0.0016372382
1734277157811,2024-12-15T15:39:17.811Z,74689,-0.066300765,0.009983645,0.005506433
1734277157814,2024-12-15T15:39:17.814Z,74692,-0.066300765,0.009983645,0.005506433
1734277157822,2024-12-15T15:39:17.822Z,74700,-0.04234266,0.058175236,0.049040224
1734277157825,2024-12-15T15:39:17.825Z,74703,-0.04234266,0.058175236,0.049040224
1734277157836,2024-12-15T15:39:17.836Z,74714,0.054824725,0.0068698702,0.08375214
1734277157840,2024-12-15T15:39:17.840Z,74718,0.054824725,0.0068698702,0.08375214
1734277157849,2024-12-15T15:39:17.849Z,74727,0.09475856,-0.020928098,0.10121569
1734277157851,2024-12-15T15:39:17.851Z,74729,0.09475856,-0.020928098,0.10121569
1734277157861,2024-12-15T15:39:17.861Z,74739,0.12265806,0.023534724,0.12456861
1734277157865,2024-12-15T15:39:17.865Z,74743,0.12265806,0.023534724,0.12456861
1734277157874,2024-12-15T15:39:17.874Z,74752,0.08463141,0.10069009,0.050675154
1734277157877,2024-12-15T15:39:17.877Z,74755,0.08463141,0.10069009,0.050675154
1734277157887,2024-12-15T15:39:17.887Z,74765,0.013963936,0.07146861,0.010351679
1734277157891,2024-12-15T15:39:17.891Z,74769,0.013963936,0.07146861,0.010351679
1734277157902,2024-12-15T15:39:17.902Z,74780,-0.008114608,-0.004606527,-0.068371505
1734277157908,2024-12-15T15:39:17.908Z,74786,-0.008114608,-0.004606527,-0.068371505
1734277157923,2024-12-15T15:39:17.923Z,74801,-0.020910323,0.015837083,-0.06099987
1734277157926,2024-12-15T15:39:17.926Z,74804,-0.020910323,0.015837083,-0.06099987
1734277157936,2024-12-15T15:39:17.936Z,74814,0.040803865,0.08153988,0.020263033
1734277157938,2024-12-15T15:39:17.938Z,74816,0.040803865,0.08153988,0.020263033
1734277157948,2024-12-15T15:39:17.948Z,74826,0.10047094,0.14862758,0.045467682
1734277157951,2024-12-15T15:39:17.951Z,74829,0.10047094,0.14862758,0.045467682
1734277157962,2024-12-15T15:39:17.962Z,74840,0.11659134,0.09037998,6.979347E-4
1734277157964,2024-12-15T15:39:17.964Z,74842,0.11659134,0.09037998,6.979347E-4
1734277157972,2024-12-15T15:39:17.972Z,74850,0.15146923,0.008788956,-0.051309012
1734277157975,2024-12-15T15:39:17.975Z,74853,0.15146923,0.008788956,-0.051309012
1734277157984,2024-12-15T15:39:17.984Z,74862,0.11400616,0.09692349,-0.10723476
1734277157987,2024-12-15T15:39:17.987Z,74865,0.11400616,0.09692349,-0.10723476
1734277157997,2024-12-15T15:39:17.997Z,74875,0.027843863,0.11564115,-0.10159757
1734277158000,2024-12-15T15:39:18Z,74878,0.027843863,0.11564115,-0.10159757
1734277158010,2024-12-15T15:39:18.010Z,74888,0.006951093,0.021163438,-0.12721248
1734277158014,2024-12-15T15:39:18.014Z,74892,0.006951093,0.021163438,-0.12721248
1734277158025,2024-12-15T15:39:18.025Z,74903,0.033327118,0.0062207417,-0.11405178
1734277158028,2024-12-15T15:39:18.028Z,74906,0.033327118,0.0062207417,-0.11405178
1734277158038,2024-12-15T15:39:18.038Z,74916,0.045589715,0.13857274,-0.08519739
1734277158041,2024-12-15T15:39:18.041Z,74919,0.045589715,0.13857274,-0.08519739
1734277158049,2024-12-15T15:39:18.049Z,74927,0.052682187,0.1981732,-0.020221641
1734277158052,2024-12-15T15:39:18.052Z,74930,0.052682187,0.1981732,-0.020221641
1734277158062,2024-12-15T15:39:18.062Z,74940,0.08463397,0.085101865,-0.03873065
1734277158065,2024-12-15T15:39:18.065Z,74943,0.08463397,0.085101865,-0.03873065
1734277158075,2024-12-15T15:39:18.075Z,74953,0.08178676,-0.030809535,-0.08748704
1734277158078,2024-12-15T15:39:18.078Z,74956,0.08178676,-0.030809535,-0.08748704
1734277158087,2024-12-15T15:39:18.087Z,74965,0.03295031,0.0069703273,-0.09145129
1734277158090,2024-12-15T15:39:18.090Z,74968,0.03295031,0.0069703273,-0.09145129
1734277158101,2024-12-15T15:39:18.101Z,74979,0.030398414,0.11393114,-0.069429606
1734277158104,2024-12-15T15:39:18.104Z,74982,0.030398414,0.11393114,-0.069429606
1734277158112,2024-12-15T15:39:18.112Z,74990,0.026602848,0.14277336,-0.0679346
1734277158114,2024-12-15T15:39:18.114Z,74992,0.026602848,0.14277336,-0.0679346
1734277158125,2024-12-15T15:39:18.125Z,75003,0.032487497,0.05452407,-0.042477876
1734277158128,2024-12-15T15:39:18.128Z,75006,0.032487497,0.05452407,-0.042477876
1734277158136,2024-12-15T15:39:18.136Z,75014,0.04230614,0.056546338,-0.010946276
1734277158139,2024-12-15T15:39:18.139Z,75017,0.04230614,0.056546338,-0.010946276
1734277158148,2024-12-15T15:39:18.148Z,75026,0.051188722,0.15174125,-0.0028242439
1734277158150,2024-12-15T15:39:18.150Z,75028,0.051188722,0.15174125,-0.0028242439
1734277158160,2024-12-15T15:39:18.160Z,75038,0.06048031,0.12640433,-0.030437525
1734277158163,2024-12-15T15:39:18.163Z,75041,0.06048031,0.12640433,-0.030437525
1734277158173,2024-12-15T15:39:18.173Z,75051,0.04966576,-0.017968848,-0.048676323
1734277158175,2024-12-15T15:39:18.175Z,75053,0.04966576,-0.017968848,-0.048676323
1734277158183,2024-12-15T15:39:18.183Z,75061,0.029496878,-0.049650114,-0.049872786
1734277158186,2024-12-15T15:39:18.186Z,75064,0.029496878,-0.049650114,-0.049872786
1734277158195,2024-12-15T15:39:18.195Z,75073,0.022018626,0.003948841,-0.01879554
1734277158197,2024-12-15T15:39:18.197Z,75075,0.022018626,0.003948841,-0.01879554
1734277158208,2024-12-15T15:39:18.208Z,75086,0.047233075,0.056048427,0.0082324445
1734277158211,2024-12-15T15:39:18.211Z,75089,0.047233075,0.056048427,0.0082324445
1734277158220,2024-12-15T15:39:18.220Z,75098,-0.009194463,0.09058819,0.031526055
1734277158224,2024-12-15T15:39:18.224Z,75102,-0.009194463,0.09058819,0.031526055
1734277158237,2024-12-15T15:39:18.237Z,75115,-0.07612349,0.010456366,0.080161095
1734277158240,2024-12-15T15:39:18.240Z,75118,-0.07612349,0.010456366,0.080161095
1734277158248,2024-12-15T15:39:18.248Z,75126,0.012967615,-0.13260047,0.046133343
1734277158250,2024-12-15T15:39:18.250Z,75128,0.012967615,-0.13260047,0.046133343
1734277158259,2024-12-15T15:39:18.259Z,75137,0.046549067,-0.15409747,0.0057203537
1734277158262,2024-12-15T15:39:18.262Z,75140,0.046549067,-0.15409747,0.0057203537
1734277158270,2024-12-15T15:39:18.270Z,75148,0.022280216,0.00696352,0.014463798
1734277158273,2024-12-15T15:39:18.273Z,75151,0.022280216,0.00696352,0.014463798
1734277158286,2024-12-15T15:39:18.286Z,75164,0.04031742,0.17484531,0.062422626
1734277158289,2024-12-15T15:39:18.289Z,75167,0.04031742,0.17484531,0.062422626
1734277158297,2024-12-15T15:39:18.297Z,75175,0.105864726,0.1270133,0.083813086
1734277158300,2024-12-15T15:39:18.300Z,75178,0.105864726,0.1270133,0.083813086
1734277158309,2024-12-15T15:39:18.309Z,75187,0.18080166,-0.011488067,0.022594303
1734277158312,2024-12-15T15:39:18.312Z,75190,0.18080166,-0.011488067,0.022594303
1734277158321,2024-12-15T15:39:18.321Z,75199,0.12070362,0.023318155,-0.009874971
1734277158325,2024-12-15T15:39:18.325Z,75203,0.12070362,0.023318155,-0.009874971
1734277158334,2024-12-15T15:39:18.334Z,75212,-0.03758381,0.13273826,0.023713745
1734277158337,2024-12-15T15:39:18.337Z,75215,-0.03758381,0.13273826,0.023713745
1734277158348,2024-12-15T15:39:18.348Z,75226,-0.06858508,0.18604504,0.027304824
1734277158351,2024-12-15T15:39:18.351Z,75229,-0.06858508,0.18604504,0.027304824
1734277158362,2024-12-15T15:39:18.362Z,75240,0.06564454,0.13492809,-0.007071501
1734277158365,2024-12-15T15:39:18.365Z,75243,0.06564454,0.13492809,-0.007071501
1734277158376,2024-12-15T15:39:18.376Z,75254,0.12212293,0.09060784,-0.05057451
1734277158379,2024-12-15T15:39:18.379Z,75257,0.12212293,0.09060784,-0.05057451
1734277158391,2024-12-15T15:39:18.391Z,75269,0.05801896,0.14821135,-0.004762087
1734277158394,2024-12-15T15:39:18.394Z,75272,0.05801896,0.14821135,-0.004762087
1734277158406,2024-12-15T15:39:18.406Z,75284,0.013841644,0.2671487,0.013137936
1734277158413,2024-12-15T15:39:18.413Z,75291,0.013841644,0.2671487,0.013137936
1734277158425,2024-12-15T15:39:18.425Z,75303,-0.030533914,0.21371591,-0.010195438
1734277158428,2024-12-15T15:39:18.428Z,75306,-0.030533914,0.21371591,-0.010195438
1734277158436,2024-12-15T15:39:18.436Z,75314,-0.0043445355,0.05298775,-0.046153083
1734277158438,2024-12-15T15:39:18.438Z,75316,-0.0043445355,0.05298775,-0.046153083
1734277158448,2024-12-15T15:39:18.448Z,75326,-0.0012434154,0.09616029,-0.08024074
1734277158450,2024-12-15T15:39:18.450Z,75328,-0.0012434154,0.09616029,-0.08024074
1734277158462,2024-12-15T15:39:18.462Z,75340,-0.09920993,0.22360687,-0.07273513
1734277158465,2024-12-15T15:39:18.465Z,75343,-0.09920993,0.22360687,-0.07273513
1734277158474,2024-12-15T15:39:18.474Z,75352,-0.14423095,0.22024822,-0.046849098
1734277158477,2024-12-15T15:39:18.477Z,75355,-0.14423095,0.22024822,-0.046849098
1734277158485,2024-12-15T15:39:18.485Z,75363,-0.0797037,0.14276889,-0.038489103
1734277158488,2024-12-15T15:39:18.488Z,75366,-0.0797037,0.14276889,-0.038489103
1734277158497,2024-12-15T15:39:18.497Z,75375,-0.0010665947,0.12478292,-0.0705305
1734277158501,2024-12-15T15:39:18.501Z,75379,-0.0010665947,0.12478292,-0.0705305
1734277158513,2024-12-15T15:39:18.513Z,75391,-0.04846218,0.17253666,-0.07365968
1734277158516,2024-12-15T15:39:18.516Z,75394,-0.04846218,0.17253666,-0.07365968
1734277158525,2024-12-15T15:39:18.525Z,75403,-0.11699789,0.15919606,-0.07059056
1734277158527,2024-12-15T15:39:18.527Z,75405,-0.11699789,0.15919606,-0.07059056
1734277158536,2024-12-15T15:39:18.536Z,75414,-0.09746297,0.10437305,-0.10431325
1734277158539,2024-12-15T15:39:18.539Z,75417,-0.09746297,0.10437305,-0.10431325
1734277158548,2024-12-15T15:39:18.548Z,75426,-0.07692451,0.11243022,-0.11483285
1734277158550,2024-12-15T15:39:18.550Z,75428,-0.07692451,0.11243022,-0.11483285
1734277158559,2024-12-15T15:39:18.559Z,75437,-0.09722933,0.16476399,-0.08769974
1734277158562,2024-12-15T15:39:18.562Z,75440,-0.09722933,0.16476399,-0.08769974
1734277158573,2024-12-15T15:39:18.573Z,75451,-0.10274294,0.15458603,-0.07048947
1734277158576,2024-12-15T15:39:18.576Z,75454,-0.10274294,0.15458603,-0.07048947
1734277158585,2024-12-15T15:39:18.585Z,75463,-0.06540319,0.049796276,-0.07504023
1734277158588,2024-12-15T15:39:18.588Z,75466,-0.06540319,0.049796276,-0.07504023
1734277158598,2024-12-15T15:39:18.598Z,75476,-0.01701057,-0.012030417,-0.07873326
1734277158600,2024-12-15T15:39:18.600Z,75478,-0.01701057,-0.012030417,-0.07873326
1734277158610,2024-12-15T15:39:18.610Z,75488,-0.0015275793,0.026017362,-0.07385985
1734277158613,2024-12-15T15:39:18.613Z,75491,-0.0015275793,0.026017362,-0.07385985
1734277158620,2024-12-15T15:39:18.620Z,75498,-5.312156E-4,0.034615714,-0.062159512
1734277158624,2024-12-15T15:39:18.624Z,75502,-5.312156E-4,0.034615714,-0.062159512
1734277158632,2024-12-15T15:39:18.632Z,75510,0.024458408,-7.013505E-4,-0.05929175
1734277158636,2024-12-15T15:39:18.636Z,75514,0.024458408,-7.013505E-4,-0.05929175
1734277158646,2024-12-15T15:39:18.646Z,75524,0.0931016,0.012777669,-0.06094485
1734277158649,2024-12-15T15:39:18.649Z,75527,0.0931016,0.012777669,-0.06094485
1734277158658,2024-12-15T15:39:18.658Z,75536,0.14024955,0.11932401,-0.055264454
1734277158661,2024-12-15T15:39:18.661Z,75539,0.14024955,0.11932401,-0.055264454
1734277158670,2024-12-15T15:39:18.670Z,75548,0.06879805,0.18333212,-0.05169805
1734277158673,2024-12-15T15:39:18.673Z,75551,0.06879805,0.18333212,-0.05169805
1734277158681,2024-12-15T15:39:18.681Z,75559,0.007687274,0.11582951,-0.027521163
1734277158684,2024-12-15T15:39:18.684Z,75562,0.007687274,0.11582951,-0.027521163
1734277158694,2024-12-15T15:39:18.694Z,75572,0.027341146,0.035576228,-0.021465063
1734277158697,2024-12-15T15:39:18.697Z,75575,0.027341146,0.035576228,-0.021465063
1734277158704,2024-12-15T15:39:18.704Z,75582,0.063960746,0.008234839,-0.021166233
1734277158707,2024-12-15T15:39:18.707Z,75585,0.063960746,0.008234839,-0.021166233
1734277158714,2024-12-15T15:39:18.714Z,75592,0.087976605,0.0072817146,0.007447169
1734277158717,2024-12-15T15:39:18.717Z,75595,0.087976605,0.0072817146,0.007447169
1734277158724,2024-12-15T15:39:18.724Z,75602,0.09626166,0.04735915,0.017261118
1734277158727,2024-12-15T15:39:18.727Z,75605,0.09626166,0.04735915,0.017261118
1734277158735,2024-12-15T15:39:18.735Z,75613,0.08511024,0.065536596,0.0015321013
1734277158739,2024-12-15T15:39:18.739Z,75617,0.08511024,0.065536596,0.0015321013
1734277158748,2024-12-15T15:39:18.748Z,75626,0.030917833,0.038390093,-0.027328432
1734277158751,2024-12-15T15:39:18.751Z,75629,0.030917833,0.038390093,-0.027328432
1734277158760,2024-12-15T15:39:18.760Z,75638,-2.0176469E-4,0.029771999,-0.027126934
1734277158763,2024-12-15T15:39:18.763Z,75641,-2.0176469E-4,0.029771999,-0.027126934
1734277158773,2024-12-15T15:39:18.773Z,75651,-0.002520065,0.039110795,-0.02406458
1734277158776,2024-12-15T15:39:18.776Z,75654,-0.002520065,0.039110795,-0.02406458
1734277158785,2024-12-15T15:39:18.785Z,75663,0.016382532,-0.014061047,-0.016891394
1734277158789,2024-12-15T15:39:18.789Z,75667,0.016382532,-0.014061047,-0.016891394
1734277158798,2024-12-15T15:39:18.798Z,75676,0.031002985,-0.036985055,-0.0074878917
1734277158800,2024-12-15T15:39:18.800Z,75678,0.031002985,-0.036985055,-0.0074878917
1734277158808,2024-12-15T15:39:18.808Z,75686,0.0062459167,0.034088045,-0.013122813
1734277158810,2024-12-15T15:39:18.810Z,75688,0.0062459167,0.034088045,-0.013122813
1734277158819,2024-12-15T15:39:18.819Z,75697,-0.030536912,0.075181045,-0.008644106
1734277158823,2024-12-15T15:39:18.823Z,75701,-0.030536912,0.075181045,-0.008644106
1734277158831,2024-12-15T15:39:18.831Z,75709,-0.014867473,0.03141714,-0.0037852335
1734277158834,2024-12-15T15:39:18.834Z,75712,-0.014867473,0.03141714,-0.0037852335
1734277158843,2024-12-15T15:39:18.843Z,75721,0.026166746,-0.002969848,-0.018880425
1734277158846,2024-12-15T15:39:18.846Z,75724,0.026166746,-0.002969848,-0.018880425
1734277158853,2024-12-15T15:39:18.853Z,75731,0.050850354,0.00841786,-0.02454773
1734277158855,2024-12-15T15:39:18.855Z,75733,0.050850354,0.00841786,-0.02454773
1734277158864,2024-12-15T15:39:18.864Z,75742,0.03719393,0.062073994,-0.005038769
1734277158867,2024-12-15T15:39:18.867Z,75745,0.03719393,0.062073994,-0.005038769
1734277158875,2024-12-15T15:39:18.875Z,75753,0.006305396,0.108833514,0.0026838423
1734277158879,2024-12-15T15:39:18.879Z,75757,0.006305396,0.108833514,0.0026838423
1734277158888,2024-12-15T15:39:18.888Z,75766,-0.028009385,0.117187485,-0.0043630917
1734277158892,2024-12-15T15:39:18.892Z,75770,-0.028009385,0.117187485,-0.0043630917
1734277158900,2024-12-15T15:39:18.900Z,75778,-0.060203884,0.094538,-0.02994087
1734277158903,2024-12-15T15:39:18.903Z,75781,-0.060203884,0.094538,-0.02994087
1734277158917,2024-12-15T15:39:18.917Z,75795,-0.07536737,0.049191296,-0.053318612
1734277158920,2024-12-15T15:39:18.920Z,75798,-0.07536737,0.049191296,-0.053318612
1734277158928,2024-12-15T15:39:18.928Z,75806,-0.07128531,0.028355489,-0.07302262
1734277158931,2024-12-15T15:39:18.931Z,75809,-0.07128531,0.028355489,-0.07302262
1734277158940,2024-12-15T15:39:18.940Z,75818,-0.098755114,0.041148424,-0.081912115
1734277158943,2024-12-15T15:39:18.943Z,75821,-0.098755114,0.041148424,-0.081912115
1734277158952,2024-12-15T15:39:18.952Z,75830,-0.14643116,0.0915207,-0.11257517
1734277158954,2024-12-15T15:39:18.954Z,75832,-0.14643116,0.0915207,-0.11257517
1734277158964,2024-12-15T15:39:18.964Z,75842,-0.10858054,0.118067384,-0.11245085
1734277158967,2024-12-15T15:39:18.967Z,75845,-0.10858054,0.118067384,-0.11245085
1734277158976,2024-12-15T15:39:18.976Z,75854,0.018109227,0.1226566,-0.0700272
1734277158979,2024-12-15T15:39:18.979Z,75857,0.018109227,0.1226566,-0.0700272
1734277158986,2024-12-15T15:39:18.986Z,75864,0.078785695,0.14604841,-0.07026919
1734277158988,2024-12-15T15:39:18.988Z,75866,0.078785695,0.14604841,-0.07026919
1734277158997,2024-12-15T15:39:18.997Z,75875,-0.011592171,0.13753442,-0.06939144
1734277158999,2024-12-15T15:39:18.999Z,75877,-0.011592171,0.13753442,-0.06939144
1734277159007,2024-12-15T15:39:19.007Z,75885,-0.098196454,0.13254942,-0.058341227
1734277159009,2024-12-15T15:39:19.009Z,75887,-0.098196454,0.13254942,-0.058341227
1734277159017,2024-12-15T15:39:19.017Z,75895,-0.076430544,0.12282406,-0.07422912
1734277159020,2024-12-15T15:39:19.020Z,75898,-0.076430544,0.12282406,-0.07422912
1734277159029,2024-12-15T15:39:19.029Z,75907,-0.04210821,0.098521754,-0.07162225
1734277159032,2024-12-15T15:39:19.032Z,75910,-0.04210821,0.098521754,-0.07162225
1734277159042,2024-12-15T15:39:19.042Z,75920,-0.04916876,0.12702224,-0.044551574
1734277159045,2024-12-15T15:39:19.045Z,75923,-0.04916876,0.12702224,-0.044551574
1734277159054,2024-12-15T15:39:19.054Z,75932,-0.1014637,0.1800398,0.0020097212
1734277159058,2024-12-15T15:39:19.058Z,75936,-0.1014637,0.1800398,0.0020097212
1734277159067,2024-12-15T15:39:19.067Z,75945,-0.11472856,0.19181417,0.05626602
1734277159070,2024-12-15T15:39:19.070Z,75948,-0.11472856,0.19181417,0.05626602
1734277159079,2024-12-15T15:39:19.079Z,75957,-0.07591873,0.12486772,0.09705847
1734277159081,2024-12-15T15:39:19.081Z,75959,-0.07591873,0.12486772,0.09705847
1734277159089,2024-12-15T15:39:19.089Z,75967,-0.016713405,-7.091303E-4,0.13398527
1734277159091,2024-12-15T15:39:19.091Z,75969,-0.016713405,-7.091303E-4,0.13398527
1734277159099,2024-12-15T15:39:19.099Z,75977,0.044384684,-0.050300505,0.07806545
1734277159102,2024-12-15T15:39:19.102Z,75980,0.044384684,-0.050300505,0.07806545
1734277159111,2024-12-15T15:39:19.111Z,75989,0.04342446,0.02216645,0.03836923
1734277159114,2024-12-15T15:39:19.114Z,75992,0.04342446,0.02216645,0.03836923
1734277159122,2024-12-15T15:39:19.122Z,76000,0.041429106,0.18142684,0.05537714
1734277159124,2024-12-15T15:39:19.124Z,76002,0.041429106,0.18142684,0.05537714
1734277159133,2024-12-15T15:39:19.133Z,76011,0.08452518,0.26132673,0.075784646
1734277159136,2024-12-15T15:39:19.136Z,76014,0.08452518,0.26132673,0.075784646
1734277159146,2024-12-15T15:39:19.146Z,76024,0.112454414,0.19730778,0.122174114
1734277159149,2024-12-15T15:39:19.149Z,76027,0.112454414,0.19730778,0.122174114
1734277159157,2024-12-15T15:39:19.157Z,76035,0.07667895,0.14447111,0.10465771
1734277159160,2024-12-15T15:39:19.160Z,76038,0.07667895,0.14447111,0.10465771
1734277159168,2024-12-15T15:39:19.168Z,76046,-0.018891973,0.17166443,0.099658586
1734277159170,2024-12-15T15:39:19.170Z,76048,-0.018891973,0.17166443,0.099658586
1734277159179,2024-12-15T15:39:19.179Z,76057,-0.120451406,0.23610005,0.096363634
1734277159181,2024-12-15T15:39:19.181Z,76059,-0.120451406,0.23610005,0.096363634
1734277159189,2024-12-15T15:39:19.189Z,76067,-0.11859446,0.24560513,0.040545087
1734277159192,2024-12-15T15:39:19.192Z,76070,-0.11859446,0.24560513,0.040545087
1734277159200,2024-12-15T15:39:19.200Z,76078,-0.08487798,0.1700758,-0.014948262
1734277159203,2024-12-15T15:39:19.203Z,76081,-0.08487798,0.1700758,-0.014948262
1734277159212,2024-12-15T15:39:19.212Z,76090,-0.054059505,0.058900025,-3.336569E-4
1734277159215,2024-12-15T15:39:19.215Z,76093,-0.054059505,0.058900025,-3.336569E-4
1734277159224,2024-12-15T15:39:19.224Z,76102,0.024436539,0.04514297,0.023212615
1734277159227,2024-12-15T15:39:19.227Z,76105,0.024436539,0.04514297,0.023212615
1734277159236,2024-12-15T15:39:19.236Z,76114,0.08922632,0.083240345,0.061382696
1734277159239,2024-12-15T15:39:19.239Z,76117,0.08922632,0.083240345,0.061382696
1734277159247,2024-12-15T15:39:19.247Z,76125,0.09557933,0.0997499,0.019358337
1734277159249,2024-12-15T15:39:19.249Z,76127,0.09557933,0.0997499,0.019358337
1734277159260,2024-12-15T15:39:19.260Z,76138,0.0901574,0.072919935,-0.027060391
1734277159263,2024-12-15T15:39:19.263Z,76141,0.0901574,0.072919935,-0.027060391
1734277159270,2024-12-15T15:39:19.270Z,76148,0.060767192,0.073431455,-0.02971652
1734277159273,2024-12-15T15:39:19.273Z,76151,0.060767192,0.073431455,-0.02971652
1734277159281,2024-12-15T15:39:19.281Z,76159,-0.03694155,0.1983387,-0.05831328
1734277159283,2024-12-15T15:39:19.283Z,76161,-0.03694155,0.1983387,-0.05831328
1734277159292,2024-12-15T15:39:19.292Z,76170,-0.08280018,0.36085555,-0.02128744
1734277159295,2024-12-15T15:39:19.295Z,76173,-0.08280018,0.36085555,-0.02128744
1734277159303,2024-12-15T15:39:19.303Z,76181,-0.046149135,0.40097716,-0.02498949
1734277159306,2024-12-15T15:39:19.306Z,76184,-0.046149135,0.40097716,-0.02498949
1734277159314,2024-12-15T15:39:19.314Z,76192,0.016266298,0.2544607,-0.052789986
1734277159317,2024-12-15T15:39:19.317Z,76195,0.016266298,0.2544607,-0.052789986
1734277159324,2024-12-15T15:39:19.324Z,76202,0.0722462,0.07448096,-0.09460533
1734277159326,2024-12-15T15:39:19.326Z,76204,0.0722462,0.07448096,-0.09460533
1734277159335,2024-12-15T15:39:19.335Z,76213,0.056356132,0.0856764,-0.101584725
1734277159337,2024-12-15T15:39:19.337Z,76215,0.056356132,0.0856764,-0.101584725
1734277159346,2024-12-15T15:39:19.346Z,76224,0.025978506,0.16832276,-0.10910731
1734277159348,2024-12-15T15:39:19.348Z,76226,0.025978506,0.16832276,-0.10910731
1734277159356,2024-12-15T15:39:19.356Z,76234,0.014842943,0.12096128,-0.1158967
1734277159359,2024-12-15T15:39:19.359Z,76237,0.014842943,0.12096128,-0.1158967
1734277159370,2024-12-15T15:39:19.370Z,76248,-0.012104034,0.106722556,-0.108851686
1734277159373,2024-12-15T15:39:19.373Z,76251,-0.012104034,0.106722556,-0.108851686
1734277159385,2024-12-15T15:39:19.385Z,76263,-0.034541756,0.20361936,-0.10541391
1734277159389,2024-12-15T15:39:19.389Z,76267,-0.034541756,0.20361936,-0.10541391
1734277159399,2024-12-15T15:39:19.399Z,76277,0.018823134,0.21255904,-0.05922598
1734277159406,2024-12-15T15:39:19.406Z,76284,0.018823134,0.21255904,-0.05922598
1734277159415,2024-12-15T15:39:19.415Z,76293,0.077892736,0.05996391,-0.06734782
1734277159418,2024-12-15T15:39:19.418Z,76296,0.077892736,0.05996391,-0.06734782
1734277159427,2024-12-15T15:39:19.427Z,76305,0.060286604,-0.07355613,-0.06785215
1734277159430,2024-12-15T15:39:19.430Z,76308,0.060286604,-0.07355613,-0.06785215
1734277159439,2024-12-15T15:39:19.439Z,76317,0.04598108,-0.0012047046,-0.036830213
1734277159443,2024-12-15T15:39:19.443Z,76321,0.04598108,-0.0012047046,-0.036830213
1734277159451,2024-12-15T15:39:19.451Z,76329,0.038308993,0.12222501,-0.005833708
1734277159453,2024-12-15T15:39:19.453Z,76331,0.038308993,0.12222501,-0.005833708
1734277159461,2024-12-15T15:39:19.461Z,76339,0.017306607,0.036256865,-0.021039676
1734277159464,2024-12-15T15:39:19.464Z,76342,0.017306607,0.036256865,-0.021039676
1734277159471,2024-12-15T15:39:19.471Z,76349,0.030683624,-0.058920447,-0.011058025
1734277159473,2024-12-15T15:39:19.473Z,76351,0.030683624,-0.058920447,-0.011058025
1734277159481,2024-12-15T15:39:19.481Z,76359,0.039364617,0.21824688,0.031524062
1734277159484,2024-12-15T15:39:19.484Z,76362,0.039364617,0.21824688,0.031524062
1734277159495,2024-12-15T15:39:19.495Z,76373,0.02545783,0.4396553,0.06914889
1734277159497,2024-12-15T15:39:19.497Z,76375,0.02545783,0.4396553,0.06914889
1734277159504,2024-12-15T15:39:19.504Z,76382,0.044540774,0.33751705,0.07280308
1734277159507,2024-12-15T15:39:19.507Z,76385,0.044540774,0.33751705,0.07280308
1734277159514,2024-12-15T15:39:19.514Z,76392,0.08557782,0.11441291,0.052635435
1734277159516,2024-12-15T15:39:19.516Z,76394,0.08557782,0.11441291,0.052635435
1734277159523,2024-12-15T15:39:19.523Z,76401,0.103326775,-0.00522687,-3.9750003E-6
1734277159526,2024-12-15T15:39:19.526Z,76404,0.103326775,-0.00522687,-3.9750003E-6
1734277159534,2024-12-15T15:39:19.534Z,76412,0.08446598,-0.04101364,-0.0077742497
1734277159536,2024-12-15T15:39:19.536Z,76414,0.08446598,-0.04101364,-0.0077742497
1734277159546,2024-12-15T15:39:19.546Z,76424,0.036219534,0.025631094,-0.0018829346
1734277159549,2024-12-15T15:39:19.549Z,76427,0.036219534,0.025631094,-0.0018829346
1734277159559,2024-12-15T15:39:19.559Z,76437,-0.0030947626,0.106853165,0.038806677
1734277159562,2024-12-15T15:39:19.562Z,76440,-0.0030947626,0.106853165,0.038806677
1734277159571,2024-12-15T15:39:19.571Z,76449,0.050759654,0.008367388,0.09263956
1734277159574,2024-12-15T15:39:19.574Z,76452,0.050759654,0.008367388,0.09263956
1734277159583,2024-12-15T15:39:19.583Z,76461,0.11609978,-0.14732319,0.078125425
1734277159585,2024-12-15T15:39:19.585Z,76463,0.11609978,-0.14732319,0.078125425
1734277159592,2024-12-15T15:39:19.592Z,76470,0.11508403,-0.059478648,0.043776665
1734277159595,2024-12-15T15:39:19.595Z,76473,0.11508403,-0.059478648,0.043776665
1734277159602,2024-12-15T15:39:19.602Z,76480,0.0633165,0.30163553,0.06529076
1734277159605,2024-12-15T15:39:19.605Z,76483,0.0633165,0.30163553,0.06529076
1734277159615,2024-12-15T15:39:19.615Z,76493,0.035310786,0.42445597,0.044243783
1734277159618,2024-12-15T15:39:19.618Z,76496,0.035310786,0.42445597,0.044243783
1734277159627,2024-12-15T15:39:19.627Z,76505,0.11371423,0.2421717,-0.010765578
1734277159630,2024-12-15T15:39:19.630Z,76508,0.11371423,0.2421717,-0.010765578
1734277159638,2024-12-15T15:39:19.638Z,76516,0.14334688,0.09935984,-0.02852296
1734277159641,2024-12-15T15:39:19.641Z,76519,0.14334688,0.09935984,-0.02852296
1734277159649,2024-12-15T15:39:19.649Z,76527,0.13151895,0.13456799,0.051498815
1734277159652,2024-12-15T15:39:19.652Z,76530,0.13151895,0.13456799,0.051498815
1734277159661,2024-12-15T15:39:19.661Z,76539,0.12860948,0.21798936,0.056986164
1734277159664,2024-12-15T15:39:19.664Z,76542,0.12860948,0.21798936,0.056986164
1734277159671,2024-12-15T15:39:19.671Z,76549,0.09198404,0.195452,0.04701898
1734277159674,2024-12-15T15:39:19.674Z,76552,0.09198404,0.195452,0.04701898
1734277159682,2024-12-15T15:39:19.682Z,76560,-0.024917755,0.05673665,-0.019602915
1734277159684,2024-12-15T15:39:19.684Z,76562,-0.024917755,0.05673665,-0.019602915
1734277159693,2024-12-15T15:39:19.693Z,76571,-0.08035446,0.010254966,-0.037588503
1734277159695,2024-12-15T15:39:19.695Z,76573,-0.08035446,0.010254966,-0.037588503
1734277159702,2024-12-15T15:39:19.702Z,76580,-0.033658966,0.13256964,0.002776094
1734277159704,2024-12-15T15:39:19.704Z,76582,-0.033658966,0.13256964,0.002776094
1734277159712,2024-12-15T15:39:19.712Z,76590,0.016547857,0.077145346,0.097409934
1734277159715,2024-12-15T15:39:19.715Z,76593,0.016547857,0.077145346,0.097409934
1734277159723,2024-12-15T15:39:19.723Z,76601,0.0719564,-0.2354231,0.10437759
1734277159726,2024-12-15T15:39:19.726Z,76604,0.0719564,-0.2354231,0.10437759
1734277159735,2024-12-15T15:39:19.735Z,76613,0.07745058,-0.33109444,0.01789697
1734277159737,2024-12-15T15:39:19.737Z,76615,0.07745058,-0.33109444,0.01789697
1734277159746,2024-12-15T15:39:19.746Z,76624,0.006290201,0.042782575,0.03314495
1734277159749,2024-12-15T15:39:19.749Z,76627,0.006290201,0.042782575,0.03314495
1734277159755,2024-12-15T15:39:19.755Z,76633,0.0028897827,0.32046083,0.11245828
1734277159758,2024-12-15T15:39:19.758Z,76636,0.0028897827,0.32046083,0.11245828
1734277159765,2024-12-15T15:39:19.765Z,76643,0.093008906,0.06915188,0.09545413
1734277159767,2024-12-15T15:39:19.767Z,76645,0.093008906,0.06915188,0.09545413
1734277159775,2024-12-15T15:39:19.775Z,76653,0.11728419,-0.24291973,0.016826322
1734277159777,2024-12-15T15:39:19.777Z,76655,0.11728419,-0.24291973,0.016826322
1734277159785,2024-12-15T15:39:19.785Z,76663,0.0971616,0.11505805,0.06372967
1734277159787,2024-12-15T15:39:19.787Z,76665,0.0971616,0.11505805,0.06372967
1734277159797,2024-12-15T15:39:19.797Z,76675,0.09346258,0.5333034,0.09018134
1734277159800,2024-12-15T15:39:19.800Z,76678,0.09346258,0.5333034,0.09018134
1734277159809,2024-12-15T15:39:19.809Z,76687,0.09444767,0.36890045,0.043245353
1734277159812,2024-12-15T15:39:19.812Z,76690,0.09444767,0.36890045,0.043245353
1734277159819,2024-12-15T15:39:19.819Z,76697,0.06787032,-0.12215616,-0.06954502
1734277159821,2024-12-15T15:39:19.821Z,76699,0.06787032,-0.12215616,-0.06954502
1734277159829,2024-12-15T15:39:19.829Z,76707,0.08166055,-0.21551688,-0.10521488
1734277159832,2024-12-15T15:39:19.832Z,76710,0.08166055,-0.21551688,-0.10521488
1734277159843,2024-12-15T15:39:19.843Z,76721,0.072445616,0.13809827,-0.068183325
1734277159846,2024-12-15T15:39:19.846Z,76724,0.072445616,0.13809827,-0.068183325
1734277159855,2024-12-15T15:39:19.855Z,76733,-0.023523536,0.29428077,-0.058210976
1734277159859,2024-12-15T15:39:19.859Z,76737,-0.023523536,0.29428077,-0.058210976
1734277159867,2024-12-15T15:39:19.867Z,76745,-0.018173367,0.063066214,-0.033747353
1734277159869,2024-12-15T15:39:19.869Z,76747,-0.018173367,0.063066214,-0.033747353
1734277159877,2024-12-15T15:39:19.877Z,76755,0.04916759,-0.09993603,-0.10297565
1734277159879,2024-12-15T15:39:19.879Z,76757,0.04916759,-0.09993603,-0.10297565
1734277159889,2024-12-15T15:39:19.889Z,76767,0.035738394,-0.14901675,-0.104417056
1734277159892,2024-12-15T15:39:19.892Z,76770,0.035738394,-0.14901675,-0.104417056
1734277159900,2024-12-15T15:39:19.900Z,76778,0.0048364694,-0.13393217,-0.083551325
1734277159902,2024-12-15T15:39:19.902Z,76780,0.0048364694,-0.13393217,-0.083551325
1734277159909,2024-12-15T15:39:19.909Z,76787,-0.005475342,-0.054086357,-0.062118314
1734277159911,2024-12-15T15:39:19.911Z,76789,-0.005475342,-0.054086357,-0.062118314
1734277159920,2024-12-15T15:39:19.920Z,76798,0.028594432,-0.021190861,-4.9183032E-5
1734277159923,2024-12-15T15:39:19.923Z,76801,0.028594432,-0.021190861,-4.9183032E-5
1734277159931,2024-12-15T15:39:19.931Z,76809,0.051191125,-0.07808272,0.005575455
1734277159933,2024-12-15T15:39:19.933Z,76811,0.051191125,-0.07808272,0.005575455
1734277159940,2024-12-15T15:39:19.940Z,76818,0.08021397,-0.06908711,0.04814812
1734277159943,2024-12-15T15:39:19.943Z,76821,0.08021397,-0.06908711,0.04814812
1734277159951,2024-12-15T15:39:19.951Z,76829,0.106076494,0.050994076,0.06337444
1734277159953,2024-12-15T15:39:19.953Z,76831,0.106076494,0.050994076,0.06337444
1734277159962,2024-12-15T15:39:19.962Z,76840,0.098582,0.13725075,0.11036711
1734277159964,2024-12-15T15:39:19.964Z,76842,0.098582,0.13725075,0.11036711
1734277159971,2024-12-15T15:39:19.971Z,76849,0.11358198,0.17381926,0.08606257
1734277159974,2024-12-15T15:39:19.974Z,76852,0.11358198,0.17381926,0.08606257
1734277159983,2024-12-15T15:39:19.983Z,76861,0.13431635,0.14270169,0.08778938
1734277159985,2024-12-15T15:39:19.985Z,76863,0.13431635,0.14270169,0.08778938
1734277159995,2024-12-15T15:39:19.995Z,76873,0.15461178,0.036615126,0.12966421
1734277159997,2024-12-15T15:39:19.997Z,76875,0.15461178,0.036615126,0.12966421
1734277160004,2024-12-15T15:39:20.004Z,76882,0.1898256,-0.115627244,0.10071294
1734277160006,2024-12-15T15:39:20.006Z,76884,0.1898256,-0.115627244,0.10071294
1734277160014,2024-12-15T15:39:20.014Z,76892,0.117467925,-0.31358966,0.075468674
1734277160016,2024-12-15T15:39:20.016Z,76894,0.117467925,-0.31358966,0.075468674
1734277160025,2024-12-15T15:39:20.025Z,76903,0.081184536,-0.30371404,0.17461768
1734277160027,2024-12-15T15:39:20.027Z,76905,0.081184536,-0.30371404,0.17461768
1734277160035,2024-12-15T15:39:20.035Z,76913,0.13809411,-0.011794689,0.1600615
1734277160037,2024-12-15T15:39:20.037Z,76915,0.13809411,-0.011794689,0.1600615
1734277160045,2024-12-15T15:39:20.045Z,76923,0.07946662,0.07766562,0.091270335
1734277160048,2024-12-15T15:39:20.048Z,76926,0.07946662,0.07766562,0.091270335
1734277160056,2024-12-15T15:39:20.056Z,76934,0.022461146,-0.16993007,0.12580465
1734277160060,2024-12-15T15:39:20.060Z,76938,0.022461146,-0.16993007,0.12580465
1734277160069,2024-12-15T15:39:20.069Z,76947,0.04086592,-0.44986364,-2.655835E-4
1734277160072,2024-12-15T15:39:20.072Z,76950,0.04086592,-0.44986364,-2.655835E-4
1734277160082,2024-12-15T15:39:20.082Z,76960,0.035430234,-0.29773816,-0.12764609
1734277160085,2024-12-15T15:39:20.085Z,76963,0.035430234,-0.29773816,-0.12764609
1734277160092,2024-12-15T15:39:20.092Z,76970,0.019956386,0.15092374,-0.0524208
1734277160095,2024-12-15T15:39:20.095Z,76973,0.019956386,0.15092374,-0.0524208
1734277160103,2024-12-15T15:39:20.103Z,76981,0.0072182845,0.33246,0.014878244
1734277160105,2024-12-15T15:39:20.105Z,76983,0.0072182845,0.33246,0.014878244
1734277160114,2024-12-15T15:39:20.114Z,76992,0.038474016,0.15336718,0.06315714
1734277160116,2024-12-15T15:39:20.116Z,76994,0.038474016,0.15336718,0.06315714
1734277160123,2024-12-15T15:39:20.123Z,77001,0.0163232,-0.11183205,-0.06124773
1734277160125,2024-12-15T15:39:20.125Z,77003,0.0163232,-0.11183205,-0.06124773
1734277160133,2024-12-15T15:39:20.133Z,77011,-0.05246332,-0.15617682,-0.10895396
1734277160136,2024-12-15T15:39:20.136Z,77014,-0.05246332,-0.15617682,-0.10895396
1734277160145,2024-12-15T15:39:20.145Z,77023,-0.050025247,0.044692036,-0.08176162
1734277160148,2024-12-15T15:39:20.148Z,77026,-0.050025247,0.044692036,-0.08176162
1734277160154,2024-12-15T15:39:20.154Z,77032,-0.02862794,0.1537111,-0.05690737
1734277160157,2024-12-15T15:39:20.157Z,77035,-0.02862794,0.1537111,-0.05690737
1734277160165,2024-12-15T15:39:20.165Z,77043,-0.048782006,0.09995884,-0.027892541
1734277160167,2024-12-15T15:39:20.167Z,77045,-0.048782006,0.09995884,-0.027892541
1734277160174,2024-12-15T15:39:20.174Z,77052,-0.04059945,0.05233658,0.055523995
1734277160177,2024-12-15T15:39:20.177Z,77055,-0.04059945,0.05233658,0.055523995
1734277160184,2024-12-15T15:39:20.184Z,77062,-0.016437538,0.096999876,0.08808414
1734277160187,2024-12-15T15:39:20.187Z,77065,-0.016437538,0.096999876,0.08808414
1734277160196,2024-12-15T15:39:20.196Z,77074,0.032768007,0.15858641,0.122621976
1734277160199,2024-12-15T15:39:20.199Z,77077,0.032768007,0.15858641,0.122621976
1734277160206,2024-12-15T15:39:20.206Z,77084,0.070601575,0.15014698,0.13075222
1734277160208,2024-12-15T15:39:20.208Z,77086,0.070601575,0.15014698,0.13075222
1734277160216,2024-12-15T15:39:20.216Z,77094,0.1124205,0.04730255,0.15554266
1734277160220,2024-12-15T15:39:20.220Z,77098,0.1124205,0.04730255,0.15554266
1734277160229,2024-12-15T15:39:20.229Z,77107,0.16430101,-0.068356976,0.18609974
1734277160231,2024-12-15T15:39:20.231Z,77109,0.16430101,-0.068356976,0.18609974
1734277160238,2024-12-15T15:39:20.238Z,77116,0.15989088,-0.12378049,0.14054011
1734277160241,2024-12-15T15:39:20.241Z,77119,0.15989088,-0.12378049,0.14054011
1734277160250,2024-12-15T15:39:20.250Z,77128,0.109582156,-0.1737837,0.11119649
1734277160252,2024-12-15T15:39:20.252Z,77130,0.109582156,-0.1737837,0.11119649
1734277160261,2024-12-15T15:39:20.261Z,77139,0.124742635,-0.19593373,0.12882969
1734277160263,2024-12-15T15:39:20.263Z,77141,0.124742635,-0.19593373,0.12882969
1734277160270,2024-12-15T15:39:20.270Z,77148,0.1594417,-0.13604352,0.12485809
1734277160272,2024-12-15T15:39:20.272Z,77150,0.1594417,-0.13604352,0.12485809
1734277160281,2024-12-15T15:39:20.281Z,77159,0.20572312,-0.088022895,0.14892451
1734277160284,2024-12-15T15:39:20.284Z,77162,0.20572312,-0.088022895,0.14892451
1734277160292,2024-12-15T15:39:20.292Z,77170,0.24189574,-0.11121579,0.084037974
1734277160296,2024-12-15T15:39:20.296Z,77174,0.24189574,-0.11121579,0.084037974
1734277160306,2024-12-15T15:39:20.306Z,77184,0.18299888,-0.15171207,-0.018866787
1734277160309,2024-12-15T15:39:20.309Z,77187,0.18299888,-0.15171207,-0.018866787
1734277160319,2024-12-15T15:39:20.319Z,77197,0.17330112,-0.17265709,0.04275778
1734277160325,2024-12-15T15:39:20.325Z,77203,0.17330112,-0.17265709,0.04275778
1734277160333,2024-12-15T15:39:20.333Z,77211,0.200577,-0.16094778,0.067471
1734277160336,2024-12-15T15:39:20.336Z,77214,0.200577,-0.16094778,0.067471
1734277160343,2024-12-15T15:39:20.343Z,77221,0.11458771,-0.24491686,0.016622843
1734277160345,2024-12-15T15:39:20.345Z,77223,0.11458771,-0.24491686,0.016622843
1734277160352,2024-12-15T15:39:20.352Z,77230,-0.071351714,-0.40795055,-0.0012737019
1734277160354,2024-12-15T15:39:20.354Z,77232,-0.071351714,-0.40795055,-0.0012737019
1734277160362,2024-12-15T15:39:20.362Z,77240,-0.18540947,-0.39712384,-0.014441869
1734277160364,2024-12-15T15:39:20.364Z,77242,-0.18540947,-0.39712384,-0.014441869
1734277160370,2024-12-15T15:39:20.370Z,77248,-0.07955549,-0.2161522,0.08515686
1734277160372,2024-12-15T15:39:20.372Z,77250,-0.07955549,-0.2161522,0.08515686
1734277160379,2024-12-15T15:39:20.379Z,77257,0.073010154,-0.059118003,0.114868954
1734277160383,2024-12-15T15:39:20.383Z,77261,0.073010154,-0.059118003,0.114868954
1734277160393,2024-12-15T15:39:20.393Z,77271,0.022682155,-0.032223612,0.050331723
1734277160396,2024-12-15T15:39:20.396Z,77274,0.022682155,-0.032223612,0.050331723
1734277160403,2024-12-15T15:39:20.403Z,77281,-0.06557846,-0.018070571,0.051611647
1734277160405,2024-12-15T15:39:20.405Z,77283,-0.06557846,-0.018070571,0.051611647
1734277160412,2024-12-15T15:39:20.412Z,77290,-0.07018744,0.027543519,0.080678165
1734277160414,2024-12-15T15:39:20.414Z,77292,-0.07018744,0.027543519,0.080678165
1734277160422,2024-12-15T15:39:20.422Z,77300,-0.06459446,0.013735462,0.07469013
1734277160424,2024-12-15T15:39:20.424Z,77302,-0.06459446,0.013735462,0.07469013
1734277160431,2024-12-15T15:39:20.431Z,77309,-0.027427478,-0.04570088,0.044444684
1734277160434,2024-12-15T15:39:20.434Z,77312,-0.027427478,-0.04570088,0.044444684
1734277160441,2024-12-15T15:39:20.441Z,77319,0.039076854,-0.060489293,0.06369993
1734277160443,2024-12-15T15:39:20.443Z,77321,0.039076854,-0.060489293,0.06369993
1734277160450,2024-12-15T15:39:20.450Z,77328,0.13483644,-0.0031973103,0.0588833
1734277160452,2024-12-15T15:39:20.452Z,77330,0.13483644,-0.0031973103,0.0588833
1734277160459,2024-12-15T15:39:20.459Z,77337,0.13993664,0.023830455,0.038242616
1734277160461,2024-12-15T15:39:20.461Z,77339,0.13993664,0.023830455,0.038242616
1734277160469,2024-12-15T15:39:20.469Z,77347,0.08690085,-0.05221429,0.047695044
1734277160472,2024-12-15T15:39:20.472Z,77350,0.08690085,-0.05221429,0.047695044
1734277160482,2024-12-15T15:39:20.482Z,77360,0.066476256,-0.15058862,0.046789862
1734277160485,2024-12-15T15:39:20.485Z,77363,0.066476256,-0.15058862,0.046789862
1734277160493,2024-12-15T15:39:20.493Z,77371,0.07348738,-0.19890016,0.028951472
1734277160496,2024-12-15T15:39:20.496Z,77374,0.07348738,-0.19890016,0.028951472
1734277160503,2024-12-15T15:39:20.503Z,77381,0.09023766,-0.18964544,0.005021872
1734277160506,2024-12-15T15:39:20.506Z,77384,0.09023766,-0.18964544,0.005021872
1734277160515,2024-12-15T15:39:20.515Z,77393,0.15241659,-0.1551352,0.023583641
1734277160517,2024-12-15T15:39:20.517Z,77395,0.15241659,-0.1551352,0.023583641
1734277160524,2024-12-15T15:39:20.524Z,77402,0.22110926,-0.13487212,0.020497143
1734277160526,2024-12-15T15:39:20.526Z,77404,0.22110926,-0.13487212,0.020497143
1734277160534,2024-12-15T15:39:20.534Z,77412,0.21276326,-0.16046412,-0.04408487
1734277160537,2024-12-15T15:39:20.537Z,77415,0.21276326,-0.16046412,-0.04408487
1734277160545,2024-12-15T15:39:20.545Z,77423,0.10735258,-0.22880034,-0.09513467
1734277160548,2024-12-15T15:39:20.548Z,77426,0.10735258,-0.22880034,-0.09513467
1734277160555,2024-12-15T15:39:20.555Z,77433,0.013467885,-0.28895956,-0.11896308
1734277160557,2024-12-15T15:39:20.557Z,77435,0.013467885,-0.28895956,-0.11896308
1734277160565,2024-12-15T15:39:20.565Z,77443,0.002301902,-0.25148904,-0.14435913
1734277160569,2024-12-15T15:39:20.569Z,77447,0.002301902,-0.25148904,-0.14435913
1734277160580,2024-12-15T15:39:20.580Z,77458,0.040548697,-0.11413658,-0.103766225
1734277160582,2024-12-15T15:39:20.582Z,77460,0.040548697,-0.11413658,-0.103766225
1734277160590,2024-12-15T15:39:20.590Z,77468,0.10919591,-0.01497785,-0.040544275
1734277160592,2024-12-15T15:39:20.592Z,77470,0.10919591,-0.01497785,-0.040544275
1734277160601,2024-12-15T15:39:20.601Z,77479,0.15681525,-0.049225334,0.0125001725
1734277160604,2024-12-15T15:39:20.604Z,77482,0.15681525,-0.049225334,0.0125001725
1734277160614,2024-12-15T15:39:20.614Z,77492,0.14368394,-0.09969651,0.03658882
1734277160617,2024-12-15T15:39:20.617Z,77495,0.14368394,-0.09969651,0.03658882
1734277160624,2024-12-15T15:39:20.624Z,77502,0.11868894,-0.075478815,0.055756345
1734277160626,2024-12-15T15:39:20.626Z,77504,0.11868894,-0.075478815,0.055756345
1734277160635,2024-12-15T15:39:20.635Z,77513,0.12872125,0.003157779,0.114626415
1734277160639,2024-12-15T15:39:20.639Z,77517,0.12872125,0.003157779,0.114626415
1734277160648,2024-12-15T15:39:20.648Z,77526,0.14283264,0.03604992,0.16347283
1734277160651,2024-12-15T15:39:20.651Z,77529,0.14283264,0.03604992,0.16347283
1734277160662,2024-12-15T15:39:20.662Z,77540,0.16454303,-0.0038079286,0.17874864
1734277160665,2024-12-15T15:39:20.665Z,77543,0.16454303,-0.0038079286,0.17874864
1734277160672,2024-12-15T15:39:20.672Z,77550,0.11815831,-0.045536097,0.17221199
1734277160675,2024-12-15T15:39:20.675Z,77553,0.11815831,-0.045536097,0.17221199
1734277160683,2024-12-15T15:39:20.683Z,77561,0.10946193,-0.0480711,0.24123429
1734277160685,2024-12-15T15:39:20.685Z,77563,0.10946193,-0.0480711,0.24123429
1734277160692,2024-12-15T15:39:20.692Z,77570,0.16349243,-0.004051437,0.30422872
1734277160694,2024-12-15T15:39:20.694Z,77572,0.16349243,-0.004051437,0.30422872
1734277160702,2024-12-15T15:39:20.702Z,77580,0.17578799,-0.015086767,0.26625875
1734277160704,2024-12-15T15:39:20.704Z,77582,0.17578799,-0.015086767,0.26625875
1734277160713,2024-12-15T15:39:20.713Z,77591,0.17995402,-0.087848045,0.25625756
1734277160715,2024-12-15T15:39:20.715Z,77593,0.17995402,-0.087848045,0.25625756
1734277160722,2024-12-15T15:39:20.722Z,77600,0.17620459,-0.09044081,0.26351693
1734277160724,2024-12-15T15:39:20.724Z,77602,0.17620459,-0.09044081,0.26351693
1734277160731,2024-12-15T15:39:20.731Z,77609,0.1590499,-0.04127898,0.28219965
1734277160733,2024-12-15T15:39:20.733Z,77611,0.1590499,-0.04127898,0.28219965
1734277160741,2024-12-15T15:39:20.741Z,77619,0.18443856,-0.057653163,0.27862403
1734277160744,2024-12-15T15:39:20.744Z,77622,0.18443856,-0.057653163,0.27862403
1734277160757,2024-12-15T15:39:20.757Z,77635,0.16988122,-0.11697164,0.23657422
1734277160760,2024-12-15T15:39:20.760Z,77638,0.16988122,-0.11697164,0.23657422
1734277160767,2024-12-15T15:39:20.767Z,77645,0.0747886,-0.18747391,0.11329908
1734277160769,2024-12-15T15:39:20.769Z,77647,0.0747886,-0.18747391,0.11329908
1734277160776,2024-12-15T15:39:20.776Z,77654,-0.031801924,-0.27172187,0.07548674
1734277160778,2024-12-15T15:39:20.778Z,77656,-0.031801924,-0.27172187,0.07548674
1734277160787,2024-12-15T15:39:20.787Z,77665,-0.0067202304,-0.2848621,0.21678582
1734277160789,2024-12-15T15:39:20.789Z,77667,-0.0067202304,-0.2848621,0.21678582
1734277160797,2024-12-15T15:39:20.797Z,77675,0.07260296,-0.17008168,0.21545455
1734277160799,2024-12-15T15:39:20.799Z,77677,0.07260296,-0.17008168,0.21545455
1734277160807,2024-12-15T15:39:20.807Z,77685,0.08899846,-0.12155653,0.03308688
1734277160809,2024-12-15T15:39:20.809Z,77687,0.08899846,-0.12155653,0.03308688
1734277160816,2024-12-15T15:39:20.816Z,77694,0.02258989,-0.21194868,-0.024165912
1734277160818,2024-12-15T15:39:20.818Z,77696,0.02258989,-0.21194868,-0.024165912
1734277160825,2024-12-15T15:39:20.825Z,77703,-0.018617734,-0.22286473,0.013826243
1734277160827,2024-12-15T15:39:20.827Z,77705,-0.018617734,-0.22286473,0.013826243
1734277160834,2024-12-15T15:39:20.834Z,77712,0.008928046,-0.12592247,0.07384428
1734277160836,2024-12-15T15:39:20.836Z,77714,0.008928046,-0.12592247,0.07384428
1734277160846,2024-12-15T15:39:20.846Z,77724,0.07429455,-0.06665475,0.045595516
1734277160848,2024-12-15T15:39:20.848Z,77726,0.07429455,-0.06665475,0.045595516
1734277160854,2024-12-15T15:39:20.854Z,77732,0.042897668,-0.094748445,-0.03204344
1734277160856,2024-12-15T15:39:20.856Z,77734,0.042897668,-0.094748445,-0.03204344
1734277160864,2024-12-15T15:39:20.864Z,77742,-0.09138978,-0.15541391,-0.078098595
1734277160867,2024-12-15T15:39:20.867Z,77745,-0.09138978,-0.15541391,-0.078098595
1734277160873,2024-12-15T15:39:20.873Z,77751,-0.16030331,-0.21301538,-0.048885744
1734277160875,2024-12-15T15:39:20.875Z,77753,-0.16030331,-0.21301538,-0.048885744
1734277160882,2024-12-15T15:39:20.882Z,77760,-0.047435272,-0.20281555,-0.053585753
1734277160885,2024-12-15T15:39:20.885Z,77763,-0.047435272,-0.20281555,-0.053585753
1734277160895,2024-12-15T15:39:20.895Z,77773,0.20987666,-0.14334634,-0.05762841
1734277160899,2024-12-15T15:39:20.899Z,77777,0.20987666,-0.14334634,-0.05762841
1734277160906,2024-12-15T15:39:20.906Z,77784,0.36749014,-0.07609109,-0.11765121
1734277160909,2024-12-15T15:39:20.909Z,77787,0.36749014,-0.07609109,-0.11765121
1734277160916,2024-12-15T15:39:20.916Z,77794,0.23400825,-0.04453605,-0.12914671
1734277160918,2024-12-15T15:39:20.918Z,77796,0.23400825,-0.04453605,-0.12914671
1734277160926,2024-12-15T15:39:20.926Z,77804,0.03559434,-0.007756964,-0.07365204
1734277160928,2024-12-15T15:39:20.928Z,77806,0.03559434,-0.007756964,-0.07365204
1734277160939,2024-12-15T15:39:20.939Z,77817,0.003406308,0.056647476,-0.044543758
1734277160942,2024-12-15T15:39:20.942Z,77820,0.003406308,0.056647476,-0.044543758
1734277160952,2024-12-15T15:39:20.952Z,77830,0.13910255,0.0894821,-0.12742466
1734277160955,2024-12-15T15:39:20.955Z,77833,0.13910255,0.0894821,-0.12742466
1734277160964,2024-12-15T15:39:20.964Z,77842,0.30560973,0.08110459,-0.17141113
1734277160966,2024-12-15T15:39:20.966Z,77844,0.30560973,0.08110459,-0.17141113
1734277160972,2024-12-15T15:39:20.972Z,77850,0.30564505,0.09428069,-0.17078091
1734277160974,2024-12-15T15:39:20.974Z,77852,0.30564505,0.09428069,-0.17078091
1734277160983,2024-12-15T15:39:20.983Z,77861,0.15027894,0.082230136,-0.16589224
1734277160985,2024-12-15T15:39:20.985Z,77863,0.15027894,0.082230136,-0.16589224
1734277160992,2024-12-15T15:39:20.992Z,77870,0.026292738,0.03933077,-0.11217785
1734277160995,2024-12-15T15:39:20.995Z,77873,0.026292738,0.03933077,-0.11217785
1734277161002,2024-12-15T15:39:21.002Z,77880,-0.03939114,0.023616608,-0.07971633
1734277161004,2024-12-15T15:39:21.004Z,77882,-0.03939114,0.023616608,-0.07971633
1734277161011,2024-12-15T15:39:21.011Z,77889,0.0060957996,0.046211142,-0.082239136
1734277161013,2024-12-15T15:39:21.013Z,77891,0.0060957996,0.046211142,-0.082239136
1734277161021,2024-12-15T15:39:21.021Z,77899,0.08407026,0.03842092,-0.046085183
1734277161024,2024-12-15T15:39:21.024Z,77902,0.08407026,0.03842092,-0.046085183
1734277161033,2024-12-15T15:39:21.033Z,77911,0.049799155,0.0041763033,-0.007560864
1734277161035,2024-12-15T15:39:21.035Z,77913,0.049799155,0.0041763033,-0.007560864
1734277161041,2024-12-15T15:39:21.041Z,77919,-0.011823685,-0.015063184,0.043633275
1734277161043,2024-12-15T15:39:21.043Z,77921,-0.011823685,-0.015063184,0.043633275
1734277161051,2024-12-15T15:39:21.051Z,77929,-0.009627565,-0.011007663,0.07415768
1734277161053,2024-12-15T15:39:21.053Z,77931,-0.009627565,-0.011007663,0.07415768
1734277161060,2024-12-15T15:39:21.060Z,77938,0.037809025,-0.025226543,0.074069284
1734277161062,2024-12-15T15:39:21.062Z,77940,0.037809025,-0.025226543,0.074069284
1734277161069,2024-12-15T15:39:21.069Z,77947,0.069744155,-0.05286444,0.13792437
1734277161071,2024-12-15T15:39:21.071Z,77949,0.069744155,-0.05286444,0.13792437
1734277161080,2024-12-15T15:39:21.080Z,77958,0.06662601,-0.06685741,0.16973309
1734277161082,2024-12-15T15:39:21.082Z,77960,0.06662601,-0.06685741,0.16973309
1734277161089,2024-12-15T15:39:21.089Z,77967,0.114255525,-0.0073186685,0.2523031
1734277161091,2024-12-15T15:39:21.091Z,77969,0.114255525,-0.0073186685,0.2523031
1734277161100,2024-12-15T15:39:21.100Z,77978,0.21792321,0.073529676,0.2621476
1734277161102,2024-12-15T15:39:21.102Z,77980,0.21792321,0.073529676,0.2621476
1734277161110,2024-12-15T15:39:21.110Z,77988,0.190547,0.15471703,0.15577109
1734277161113,2024-12-15T15:39:21.113Z,77991,0.190547,0.15471703,0.15577109
1734277161119,2024-12-15T15:39:21.119Z,77997,0.095681965,0.116769224,0.15158014
1734277161121,2024-12-15T15:39:21.121Z,77999,0.095681965,0.116769224,0.15158014
1734277161128,2024-12-15T15:39:21.128Z,78006,0.033540305,0.07916557,0.10994778
1734277161130,2024-12-15T15:39:21.130Z,78008,0.033540305,0.07916557,0.10994778
1734277161137,2024-12-15T15:39:21.137Z,78015,-0.016751125,0.09943919,0.102249674
1734277161139,2024-12-15T15:39:21.139Z,78017,-0.016751125,0.09943919,0.102249674
1734277161146,2024-12-15T15:39:21.146Z,78024,0.116289124,0.10893407,0.16639432
1734277161148,2024-12-15T15:39:21.148Z,78026,0.116289124,0.10893407,0.16639432
1734277161154,2024-12-15T15:39:21.154Z,78032,0.3148738,0.16711262,0.17676997
1734277161156,2024-12-15T15:39:21.156Z,78034,0.3148738,0.16711262,0.17676997
1734277161164,2024-12-15T15:39:21.164Z,78042,0.34055513,0.16812171,0.15893322
1734277161167,2024-12-15T15:39:21.167Z,78045,0.34055513,0.16812171,0.15893322
1734277161176,2024-12-15T15:39:21.176Z,78054,0.20059144,0.1125619,0.12039442
1734277161179,2024-12-15T15:39:21.179Z,78057,0.20059144,0.1125619,0.12039442
1734277161188,2024-12-15T15:39:21.188Z,78066,0.05547902,0.044840142,0.04880718
1734277161191,2024-12-15T15:39:21.191Z,78069,0.05547902,0.044840142,0.04880718
1734277161202,2024-12-15T15:39:21.202Z,78080,-0.023048256,0.012287638,-0.049548235
1734277161204,2024-12-15T15:39:21.204Z,78082,-0.023048256,0.012287638,-0.049548235
1734277161218,2024-12-15T15:39:21.218Z,78096,-0.09913871,0.06698909,-0.026028922
1734277161220,2024-12-15T15:39:21.220Z,78098,-0.09913871,0.06698909,-0.026028922
1734277161227,2024-12-15T15:39:21.227Z,78105,-0.0036437565,0.1308677,0.07255935
1734277161229,2024-12-15T15:39:21.229Z,78107,-0.0036437565,0.1308677,0.07255935
1734277161237,2024-12-15T15:39:21.237Z,78115,0.1718897,0.18543753,0.043285165
1734277161239,2024-12-15T15:39:21.239Z,78117,0.1718897,0.18543753,0.043285165
1734277161247,2024-12-15T15:39:21.247Z,78125,0.20777993,0.1288222,0.06946643
1734277161250,2024-12-15T15:39:21.250Z,78128,0.20777993,0.1288222,0.06946643
1734277161258,2024-12-15T15:39:21.258Z,78136,0.05846977,0.02639828,0.017830843
1734277161261,2024-12-15T15:39:21.261Z,78139,0.05846977,0.02639828,0.017830843
1734277161270,2024-12-15T15:39:21.270Z,78148,-0.095732845,0.014224228,-2.9952297E-4
1734277161273,2024-12-15T15:39:21.273Z,78151,-0.095732845,0.014224228,-2.9952297E-4
1734277161280,2024-12-15T15:39:21.280Z,78158,-0.059542887,0.11274851,-0.05705792
1734277161282,2024-12-15T15:39:21.282Z,78160,-0.059542887,0.11274851,-0.05705792
1734277161290,2024-12-15T15:39:21.290Z,78168,-0.031535994,0.1921594,-0.10842038
1734277161293,2024-12-15T15:39:21.293Z,78171,-0.031535994,0.1921594,-0.10842038
1734277161301,2024-12-15T15:39:21.301Z,78179,-0.012727216,0.1632441,-0.09772568
1734277161303,2024-12-15T15:39:21.303Z,78181,-0.012727216,0.1632441,-0.09772568
1734277161310,2024-12-15T15:39:21.310Z,78188,0.07559601,0.14401755,-0.034374893
1734277161313,2024-12-15T15:39:21.313Z,78191,0.07559601,0.14401755,-0.034374893
1734277161321,2024-12-15T15:39:21.321Z,78199,0.1411577,0.13156117,0.011171465
1734277161323,2024-12-15T15:39:21.323Z,78201,0.1411577,0.13156117,0.011171465
1734277161330,2024-12-15T15:39:21.330Z,78208,0.12844342,0.13228607,0.02569518
1734277161333,2024-12-15T15:39:21.333Z,78211,0.12844342,0.13228607,0.02569518
1734277161341,2024-12-15T15:39:21.341Z,78219,0.13953258,0.12038528,-0.008982869
1734277161343,2024-12-15T15:39:21.343Z,78221,0.13953258,0.12038528,-0.008982869
1734277161352,2024-12-15T15:39:21.352Z,78230,0.118531615,0.14849366,-0.0569367
1734277161354,2024-12-15T15:39:21.354Z,78232,0.118531615,0.14849366,-0.0569367
1734277161361,2024-12-15T15:39:21.361Z,78239,0.055258468,0.16100983,-0.103793874
1734277161364,2024-12-15T15:39:21.364Z,78242,0.055258468,0.16100983,-0.103793874
1734277161371,2024-12-15T15:39:21.371Z,78249,0.020199876,0.15889995,-0.060185194
1734277161374,2024-12-15T15:39:21.374Z,78252,0.020199876,0.15889995,-0.060185194
1734277161382,2024-12-15T15:39:21.382Z,78260,0.06444317,0.11823912,-0.035538618
1734277161384,2024-12-15T15:39:21.384Z,78262,0.06444317,0.11823912,-0.035538618
1734277161391,2024-12-15T15:39:21.391Z,78269,0.021368818,0.07660484,0.025986182
1734277161394,2024-12-15T15:39:21.394Z,78272,0.021368818,0.07660484,0.025986182
1734277161403,2024-12-15T15:39:21.403Z,78281,-0.017724229,0.004313131,0.10585093
1734277161405,2024-12-15T15:39:21.405Z,78283,-0.017724229,0.004313131,0.10585093
1734277161411,2024-12-15T15:39:21.411Z,78289,0.026556296,-0.044016846,0.14171846
1734277161414,2024-12-15T15:39:21.414Z,78292,0.026556296,-0.044016846,0.14171846
1734277161420,2024-12-15T15:39:21.420Z,78298,0.08496315,-0.03173679,0.0773533
1734277161422,2024-12-15T15:39:21.422Z,78300,0.08496315,-0.03173679,0.0773533
1734277161431,2024-12-15T15:39:21.431Z,78309,0.05601631,0.046963353,0.09730913
1734277161434,2024-12-15T15:39:21.434Z,78312,0.05601631,0.046963353,0.09730913
1734277161442,2024-12-15T15:39:21.442Z,78320,-0.0204194,0.086074345,0.07020311
1734277161445,2024-12-15T15:39:21.445Z,78323,-0.0204194,0.086074345,0.07020311
1734277161453,2024-12-15T15:39:21.453Z,78331,-0.110712826,0.044567168,0.086515605
1734277161455,2024-12-15T15:39:21.455Z,78333,-0.110712826,0.044567168,0.086515605
1734277161463,2024-12-15T15:39:21.463Z,78341,-0.027548758,0.040597517,0.13838571
1734277161465,2024-12-15T15:39:21.465Z,78343,-0.027548758,0.040597517,0.13838571
1734277161472,2024-12-15T15:39:21.472Z,78350,0.1305234,0.11216785,0.11952272
1734277161474,2024-12-15T15:39:21.474Z,78352,0.1305234,0.11216785,0.11952272
1734277161481,2024-12-15T15:39:21.481Z,78359,0.1815858,0.15488595,0.105900235
1734277161484,2024-12-15T15:39:21.484Z,78362,0.1815858,0.15488595,0.105900235
1734277161492,2024-12-15T15:39:21.492Z,78370,0.18590072,0.18436304,0.13465193
1734277161495,2024-12-15T15:39:21.495Z,78373,0.18590072,0.18436304,0.13465193
1734277161503,2024-12-15T15:39:21.503Z,78381,0.16623488,0.26836684,0.12782434
1734277161505,2024-12-15T15:39:21.505Z,78383,0.16623488,0.26836684,0.12782434
1734277161511,2024-12-15T15:39:21.511Z,78389,0.15674713,0.30932188,0.07710894
1734277161513,2024-12-15T15:39:21.513Z,78391,0.15674713,0.30932188,0.07710894
1734277161520,2024-12-15T15:39:21.520Z,78398,0.1318692,0.22578065,0.0475659
1734277161522,2024-12-15T15:39:21.522Z,78400,0.1318692,0.22578065,0.0475659
1734277161529,2024-12-15T15:39:21.529Z,78407,0.07875881,0.118829414,0.06853824
1734277161531,2024-12-15T15:39:21.531Z,78409,0.07875881,0.118829414,0.06853824
1734277161537,2024-12-15T15:39:21.537Z,78415,0.10195498,0.108517945,0.058466103
1734277161539,2024-12-15T15:39:21.539Z,78417,0.10195498,0.108517945,0.058466103
1734277161546,2024-12-15T15:39:21.546Z,78424,0.08677286,0.14797328,0.010576126
1734277161548,2024-12-15T15:39:21.548Z,78426,0.08677286,0.14797328,0.010576126
1734277161555,2024-12-15T15:39:21.555Z,78433,0.017666025,0.08694024,0.017125456
1734277161557,2024-12-15T15:39:21.557Z,78435,0.017666025,0.08694024,0.017125456
1734277161564,2024-12-15T15:39:21.564Z,78442,0.02660069,0.06499434,0.003818383
1734277161567,2024-12-15T15:39:21.567Z,78445,0.02660069,0.06499434,0.003818383
1734277161576,2024-12-15T15:39:21.576Z,78454,0.05974714,0.13231175,-0.028091546
1734277161579,2024-12-15T15:39:21.579Z,78457,0.05974714,0.13231175,-0.028091546
1734277161586,2024-12-15T15:39:21.586Z,78464,0.05277146,0.12440258,-0.038537882
1734277161588,2024-12-15T15:39:21.588Z,78466,0.05277146,0.12440258,-0.038537882
1734277161596,2024-12-15T15:39:21.596Z,78474,0.028939944,0.058433235,-0.07010588
1734277161598,2024-12-15T15:39:21.598Z,78476,0.028939944,0.058433235,-0.07010588
1734277161604,2024-12-15T15:39:21.604Z,78482,-0.015826061,0.059331123,-0.082265496
1734277161607,2024-12-15T15:39:21.607Z,78485,-0.015826061,0.059331123,-0.082265496
1734277161617,2024-12-15T15:39:21.617Z,78495,-0.01985088,0.11480987,-0.07051239
1734277161620,2024-12-15T15:39:21.620Z,78498,-0.01985088,0.11480987,-0.07051239
1734277161632,2024-12-15T15:39:21.632Z,78510,-0.028699083,0.11309618,-0.09254243
1734277161635,2024-12-15T15:39:21.635Z,78513,-0.028699083,0.11309618,-0.09254243
1734277161644,2024-12-15T15:39:21.644Z,78522,-0.01872991,0.03960131,-0.08848277
1734277161646,2024-12-15T15:39:21.646Z,78524,-0.01872991,0.03960131,-0.08848277
1734277161654,2024-12-15T15:39:21.654Z,78532,0.022167878,0.049974628,-0.10983208
1734277161656,2024-12-15T15:39:21.656Z,78534,0.022167878,0.049974628,-0.10983208
1734277161664,2024-12-15T15:39:21.664Z,78542,0.028779227,0.13098383,-0.09360819
1734277161667,2024-12-15T15:39:21.667Z,78545,0.028779227,0.13098383,-0.09360819
1734277161673,2024-12-15T15:39:21.673Z,78551,0.055143654,0.14453647,-0.08625
1734277161676,2024-12-15T15:39:21.676Z,78554,0.055143654,0.14453647,-0.08625
1734277161684,2024-12-15T15:39:21.684Z,78562,0.06028609,0.054598562,-0.11633095
1734277161686,2024-12-15T15:39:21.686Z,78564,0.06028609,0.054598562,-0.11633095
1734277161693,2024-12-15T15:39:21.693Z,78571,0.052808985,0.0061240774,-0.08467829
1734277161695,2024-12-15T15:39:21.695Z,78573,0.052808985,0.0061240774,-0.08467829
1734277161703,2024-12-15T15:39:21.703Z,78581,0.07071508,0.11075066,-0.051536504
1734277161705,2024-12-15T15:39:21.705Z,78583,0.07071508,0.11075066,-0.051536504
1734277161711,2024-12-15T15:39:21.711Z,78589,0.08895341,0.17328463,-0.036467068
1734277161714,2024-12-15T15:39:21.714Z,78592,0.08895341,0.17328463,-0.036467068
1734277161722,2024-12-15T15:39:21.722Z,78600,0.08896738,0.09681632,-0.01860192
1734277161724,2024-12-15T15:39:21.724Z,78602,0.08896738,0.09681632,-0.01860192
1734277161731,2024-12-15T15:39:21.731Z,78609,0.06182285,0.054652926,-0.025814272
1734277161734,2024-12-15T15:39:21.734Z,78612,0.06182285,0.054652926,-0.025814272
1734277161741,2024-12-15T15:39:21.741Z,78619,0.012354891,0.09552205,-0.03232136
1734277161744,2024-12-15T15:39:21.744Z,78622,0.012354891,0.09552205,-0.03232136
1734277161751,2024-12-15T15:39:21.751Z,78629,-0.011051838,0.11785363,-0.0032246977
1734277161754,2024-12-15T15:39:21.754Z,78632,-0.011051838,0.11785363,-0.0032246977
1734277161761,2024-12-15T15:39:21.761Z,78639,0.017381389,0.093865536,0.027842155
1734277161764,2024-12-15T15:39:21.764Z,78642,0.017381389,0.093865536,0.027842155
1734277161771,2024-12-15T15:39:21.771Z,78649,0.07419542,0.10947759,0.03392432
1734277161773,2024-12-15T15:39:21.773Z,78651,0.07419542,0.10947759,0.03392432
1734277161780,2024-12-15T15:39:21.780Z,78658,0.10151998,0.12070182,0.025196481
1734277161782,2024-12-15T15:39:21.782Z,78660,0.10151998,0.12070182,0.025196481
1734277161788,2024-12-15T15:39:21.788Z,78666,0.07159585,0.042138115,0.02546847
1734277161790,2024-12-15T15:39:21.790Z,78668,0.07159585,0.042138115,0.02546847
1734277161797,2024-12-15T15:39:21.797Z,78675,0.014590682,-0.02318405,0.030023154
1734277161800,2024-12-15T15:39:21.800Z,78678,0.014590682,-0.02318405,0.030023154
1734277161808,2024-12-15T15:39:21.808Z,78686,-0.029223705,0.054400176,0.04384243
1734277161811,2024-12-15T15:39:21.811Z,78689,-0.029223705,0.054400176,0.04384243
1734277161818,2024-12-15T15:39:21.818Z,78696,-0.038435124,0.11618467,0.08396535
1734277161820,2024-12-15T15:39:21.820Z,78698,-0.038435124,0.11618467,0.08396535
1734277161827,2024-12-15T15:39:21.827Z,78705,-0.0031946967,0.01596078,0.08684292
1734277161829,2024-12-15T15:39:21.829Z,78707,-0.0031946967,0.01596078,0.08684292
1734277161836,2024-12-15T15:39:21.836Z,78714,0.08945161,-0.09785026,0.06282918
1734277161839,2024-12-15T15:39:21.839Z,78717,0.08945161,-0.09785026,0.06282918
1734277161849,2024-12-15T15:39:21.849Z,78727,0.16691655,-0.06398715,0.039164063
1734277161852,2024-12-15T15:39:21.852Z,78730,0.16691655,-0.06398715,0.039164063
1734277161860,2024-12-15T15:39:21.860Z,78738,0.1457586,0.08029725,0.07946222
1734277161862,2024-12-15T15:39:21.862Z,78740,0.1457586,0.08029725,0.07946222
1734277161869,2024-12-15T15:39:21.869Z,78747,0.06045003,0.2058899,0.07495129
1734277161872,2024-12-15T15:39:21.872Z,78750,0.06045003,0.2058899,0.07495129
1734277161880,2024-12-15T15:39:21.880Z,78758,0.007664518,0.1994378,0.027099874
1734277161882,2024-12-15T15:39:21.882Z,78760,0.007664518,0.1994378,0.027099874
1734277161889,2024-12-15T15:39:21.889Z,78767,0.01787379,0.133267,0.022841932
1734277161891,2024-12-15T15:39:21.891Z,78769,0.01787379,0.133267,0.022841932
1734277161898,2024-12-15T15:39:21.898Z,78776,0.027751446,0.12626682,0.02828739
1734277161900,2024-12-15T15:39:21.900Z,78778,0.027751446,0.12626682,0.02828739
1734277161907,2024-12-15T15:39:21.907Z,78785,0.0037795445,0.16226389,0.026312472
1734277161909,2024-12-15T15:39:21.909Z,78787,0.0037795445,0.16226389,0.026312472
1734277161917,2024-12-15T15:39:21.917Z,78795,-0.04580275,0.1525447,0.008041498
1734277161920,2024-12-15T15:39:21.920Z,78798,-0.04580275,0.1525447,0.008041498
1734277161927,2024-12-15T15:39:21.927Z,78805,-0.034148898,0.10347682,0.0063002785
1734277161930,2024-12-15T15:39:21.930Z,78808,-0.034148898,0.10347682,0.0063002785
1734277161939,2024-12-15T15:39:21.939Z,78817,0.009873597,0.06464289,-0.011330063
1734277161941,2024-12-15T15:39:21.941Z,78819,0.009873597,0.06464289,-0.011330063
1734277161948,2024-12-15T15:39:21.948Z,78826,0.008641456,0.04675894,-0.012255752
1734277161950,2024-12-15T15:39:21.950Z,78828,0.008641456,0.04675894,-0.012255752
1734277161956,2024-12-15T15:39:21.956Z,78834,-0.021361712,0.05516756,0.006372922
1734277161958,2024-12-15T15:39:21.958Z,78836,-0.021361712,0.05516756,0.006372922
1734277161965,2024-12-15T15:39:21.965Z,78843,-0.046925303,0.102043584,-0.0020142798
1734277161967,2024-12-15T15:39:21.967Z,78845,-0.046925303,0.102043584,-0.0020142798
1734277161973,2024-12-15T15:39:21.973Z,78851,-0.06928434,0.14050233,-0.03082784
1734277161975,2024-12-15T15:39:21.975Z,78853,-0.06928434,0.14050233,-0.03082784
1734277161986,2024-12-15T15:39:21.986Z,78864,-0.08346816,0.10825567,-0.06825333
1734277161988,2024-12-15T15:39:21.988Z,78866,-0.08346816,0.10825567,-0.06825333
1734277161996,2024-12-15T15:39:21.996Z,78874,-0.08249872,0.054207724,-0.08522638
1734277161998,2024-12-15T15:39:21.998Z,78876,-0.08249872,0.054207724,-0.08522638
1734277162004,2024-12-15T15:39:22.004Z,78882,-0.05747656,0.043118663,-0.06474346
1734277162006,2024-12-15T15:39:22.006Z,78884,-0.05747656,0.043118663,-0.06474346
1734277162013,2024-12-15T15:39:22.013Z,78891,-0.011319075,0.07435483,-0.031015517
1734277162016,2024-12-15T15:39:22.016Z,78894,-0.011319075,0.07435483,-0.031015517
1734277162023,2024-12-15T15:39:22.023Z,78901,0.019480553,0.07140248,-0.018557223
1734277162025,2024-12-15T15:39:22.025Z,78903,0.019480553,0.07140248,-0.018557223
1734277162033,2024-12-15T15:39:22.033Z,78911,0.017339827,0.06799269,-0.01058838
1734277162035,2024-12-15T15:39:22.035Z,78913,0.017339827,0.06799269,-0.01058838
1734277162041,2024-12-15T15:39:22.041Z,78919,0.0038176656,0.1006261,-0.017568273
1734277162044,2024-12-15T15:39:22.044Z,78922,0.0038176656,0.1006261,-0.017568273
1734277162053,2024-12-15T15:39:22.053Z,78931,-7.1037025E-4,0.11364115,-0.017351897
1734277162056,2024-12-15T15:39:22.056Z,78934,-7.1037025E-4,0.11364115,-0.017351897
1734277162064,2024-12-15T15:39:22.064Z,78942,-0.02022045,0.09156446,-0.025227249
1734277162068,2024-12-15T15:39:22.068Z,78946,-0.02022045,0.09156446,-0.025227249
1734277162077,2024-12-15T15:39:22.077Z,78955,-0.05478884,0.102283105,-0.028340062
1734277162081,2024-12-15T15:39:22.081Z,78959,-0.05478884,0.102283105,-0.028340062
1734277162092,2024-12-15T15:39:22.092Z,78970,-0.037928786,0.0979761,0.0060892873
1734277162095,2024-12-15T15:39:22.095Z,78973,-0.037928786,0.0979761,0.0060892873
1734277162107,2024-12-15T15:39:22.107Z,78985,0.036400914,0.060585033,0.024181677
1734277162109,2024-12-15T15:39:22.109Z,78987,0.036400914,0.060585033,0.024181677
1734277162116,2024-12-15T15:39:22.116Z,78994,0.0863981,0.033002082,0.028745404
1734277162118,2024-12-15T15:39:22.118Z,78996,0.0863981,0.033002082,0.028745404
1734277162124,2024-12-15T15:39:22.124Z,79002,0.055765998,0.080060735,0.032554682
1734277162126,2024-12-15T15:39:22.126Z,79004,0.055765998,0.080060735,0.032554682
1734277162133,2024-12-15T15:39:22.133Z,79011,-0.007321136,0.13785836,0.03703685
1734277162136,2024-12-15T15:39:22.136Z,79014,-0.007321136,0.13785836,0.03703685
1734277162146,2024-12-15T15:39:22.146Z,79024,-0.012395644,0.099222235,0.046206
1734277162150,2024-12-15T15:39:22.150Z,79028,-0.012395644,0.099222235,0.046206
1734277162159,2024-12-15T15:39:22.159Z,79037,0.03456541,0.037446108,0.048748516
1734277162162,2024-12-15T15:39:22.162Z,79040,0.03456541,0.037446108,0.048748516
1734277162170,2024-12-15T15:39:22.170Z,79048,0.084403865,0.044578742,0.07023681
1734277162172,2024-12-15T15:39:22.172Z,79050,0.084403865,0.044578742,0.07023681
1734277162180,2024-12-15T15:39:22.180Z,79058,0.07553619,0.10197911,0.04924363
1734277162182,2024-12-15T15:39:22.182Z,79060,0.07553619,0.10197911,0.04924363
1734277162190,2024-12-15T15:39:22.190Z,79068,0.036762673,0.11160614,0.033138838
1734277162193,2024-12-15T15:39:22.193Z,79071,0.036762673,0.11160614,0.033138838
1734277162201,2024-12-15T15:39:22.201Z,79079,0.023361186,0.09692057,0.05757873
1734277162203,2024-12-15T15:39:22.203Z,79081,0.023361186,0.09692057,0.05757873
1734277162210,2024-12-15T15:39:22.210Z,79088,0.07490559,0.096909486,0.06605776
1734277162212,2024-12-15T15:39:22.212Z,79090,0.07490559,0.096909486,0.06605776
1734277162220,2024-12-15T15:39:22.220Z,79098,0.118398555,0.08422858,0.05592946
1734277162222,2024-12-15T15:39:22.222Z,79100,0.118398555,0.08422858,0.05592946
1734277162231,2024-12-15T15:39:22.231Z,79109,0.05967624,0.08777666,0.043650597
1734277162233,2024-12-15T15:39:22.233Z,79111,0.05967624,0.08777666,0.043650597
1734277162240,2024-12-15T15:39:22.240Z,79118,-0.04040459,0.124684505,0.02700868
1734277162242,2024-12-15T15:39:22.242Z,79120,-0.04040459,0.124684505,0.02700868
1734277162249,2024-12-15T15:39:22.249Z,79127,-0.07671582,0.15833615,0.008099446
1734277162251,2024-12-15T15:39:22.251Z,79129,-0.07671582,0.15833615,0.008099446
1734277162257,2024-12-15T15:39:22.257Z,79135,-0.018420395,0.12811473,0.025991324
1734277162259,2024-12-15T15:39:22.259Z,79137,-0.018420395,0.12811473,0.025991324
1734277162266,2024-12-15T15:39:22.266Z,79144,0.09183075,0.04871712,0.045959223
1734277162268,2024-12-15T15:39:22.268Z,79146,0.09183075,0.04871712,0.045959223
1734277162275,2024-12-15T15:39:22.275Z,79153,0.14086342,0.007896515,0.02129573
1734277162278,2024-12-15T15:39:22.278Z,79156,0.14086342,0.007896515,0.02129573
1734277162285,2024-12-15T15:39:22.285Z,79163,0.10489827,0.024940344,0.053537454
1734277162287,2024-12-15T15:39:22.287Z,79165,0.10489827,0.024940344,0.053537454
1734277162293,2024-12-15T15:39:22.293Z,79171,0.069650955,0.10219558,0.07882812
1734277162295,2024-12-15T15:39:22.295Z,79173,0.069650955,0.10219558,0.07882812
1734277162302,2024-12-15T15:39:22.302Z,79180,0.031307943,0.109957404,0.049742095
1734277162305,2024-12-15T15:39:22.305Z,79183,0.031307943,0.109957404,0.049742095
1734277162313,2024-12-15T15:39:22.313Z,79191,0.0064475723,0.019707153,0.013350932
1734277162316,2024-12-15T15:39:22.316Z,79194,0.0064475723,0.019707153,0.013350932
1734277162325,2024-12-15T15:39:22.325Z,79203,0.021199735,-0.01922276,0.026561853
1734277162327,2024-12-15T15:39:22.327Z,79205,0.021199735,-0.01922276,0.026561853
1734277162335,2024-12-15T15:39:22.335Z,79213,0.02577829,0.065709114,0.052490853
1734277162337,2024-12-15T15:39:22.337Z,79215,0.02577829,0.065709114,0.052490853
1734277162343,2024-12-15T15:39:22.343Z,79221,-0.039452545,0.2116068,0.04141673
1734277162345,2024-12-15T15:39:22.345Z,79223,-0.039452545,0.2116068,0.04141673
1734277162352,2024-12-15T15:39:22.352Z,79230,-0.079767466,0.24296437,0.008606119
1734277162354,2024-12-15T15:39:22.354Z,79232,-0.079767466,0.24296437,0.008606119
1734277162361,2024-12-15T15:39:22.361Z,79239,-0.040080816,0.22367927,-0.0076464056
1734277162364,2024-12-15T15:39:22.364Z,79242,-0.040080816,0.22367927,-0.0076464056
1734277162373,2024-12-15T15:39:22.373Z,79251,0.02169143,0.20345044,-0.016895708
1734277162376,2024-12-15T15:39:22.376Z,79254,0.02169143,0.20345044,-0.016895708
1734277162386,2024-12-15T15:39:22.386Z,79264,0.042794622,0.15605554,0.013765754
1734277162388,2024-12-15T15:39:22.388Z,79266,0.042794622,0.15605554,0.013765754
1734277162395,2024-12-15T15:39:22.395Z,79273,0.04122754,0.11420869,-0.020015987
1734277162398,2024-12-15T15:39:22.398Z,79276,0.04122754,0.11420869,-0.020015987
1734277162405,2024-12-15T15:39:22.405Z,79283,0.0337011,0.10063077,-0.08360503
1734277162408,2024-12-15T15:39:22.408Z,79286,0.0337011,0.10063077,-0.08360503
1734277162416,2024-12-15T15:39:22.416Z,79294,0.036882766,0.15228194,-0.04870453
1734277162419,2024-12-15T15:39:22.419Z,79297,0.036882766,0.15228194,-0.04870453
1734277162426,2024-12-15T15:39:22.426Z,79304,0.025161363,0.24134189,-0.04010857
1734277162428,2024-12-15T15:39:22.428Z,79306,0.025161363,0.24134189,-0.04010857
1734277162436,2024-12-15T15:39:22.436Z,79314,-0.021177476,0.288956,-0.05010646
1734277162438,2024-12-15T15:39:22.438Z,79316,-0.021177476,0.288956,-0.05010646
1734277162445,2024-12-15T15:39:22.445Z,79323,-0.041061305,0.28985134,-0.03600892
1734277162447,2024-12-15T15:39:22.447Z,79325,-0.041061305,0.28985134,-0.03600892
1734277162454,2024-12-15T15:39:22.454Z,79332,-0.025097411,0.2922128,-0.052200623
1734277162457,2024-12-15T15:39:22.457Z,79335,-0.025097411,0.2922128,-0.052200623
1734277162466,2024-12-15T15:39:22.466Z,79344,-0.0178376,0.2413348,-0.09135856
1734277162468,2024-12-15T15:39:22.468Z,79346,-0.0178376,0.2413348,-0.09135856
1734277162475,2024-12-15T15:39:22.475Z,79353,-0.056521185,0.20900026,-0.07172556
1734277162476,2024-12-15T15:39:22.476Z,79354,-0.056521185,0.20900026,-0.07172556
1734277162483,2024-12-15T15:39:22.483Z,79361,-0.058097944,0.2663757,-0.030904327
1734277162487,2024-12-15T15:39:22.487Z,79365,-0.058097944,0.2663757,-0.030904327
1734277162498,2024-12-15T15:39:22.498Z,79376,-0.012133336,0.2699015,0.034146298
1734277162504,2024-12-15T15:39:22.504Z,79382,-0.012133336,0.2699015,0.034146298
1734277162512,2024-12-15T15:39:22.512Z,79390,0.035380833,0.16454965,0.07296199
1734277162515,2024-12-15T15:39:22.515Z,79393,0.035380833,0.16454965,0.07296199
1734277162524,2024-12-15T15:39:22.524Z,79402,0.066033036,0.07290943,0.044766124
1734277162526,2024-12-15T15:39:22.526Z,79404,0.066033036,0.07290943,0.044766124
1734277162534,2024-12-15T15:39:22.534Z,79412,0.028580204,0.1295607,0.0010415352
1734277162536,2024-12-15T15:39:22.536Z,79414,0.028580204,0.1295607,0.0010415352
1734277162542,2024-12-15T15:39:22.542Z,79420,-0.042242862,0.27192232,0.019884167
1734277162545,2024-12-15T15:39:22.545Z,79423,-0.042242862,0.27192232,0.019884167
1734277162552,2024-12-15T15:39:22.552Z,79430,-0.03581924,0.32340384,0.05812445
1734277162554,2024-12-15T15:39:22.554Z,79432,-0.03581924,0.32340384,0.05812445
1734277162561,2024-12-15T15:39:22.561Z,79439,0.07233541,0.17874204,0.07718559
1734277162563,2024-12-15T15:39:22.563Z,79441,0.07233541,0.17874204,0.07718559
1734277162570,2024-12-15T15:39:22.570Z,79448,0.18519363,-0.101887695,0.108417355
1734277162573,2024-12-15T15:39:22.573Z,79451,0.18519363,-0.101887695,0.108417355
1734277162579,2024-12-15T15:39:22.579Z,79457,0.23331083,-0.18914165,0.1302824
1734277162582,2024-12-15T15:39:22.582Z,79460,0.23331083,-0.18914165,0.1302824
1734277162588,2024-12-15T15:39:22.588Z,79466,0.20127423,0.0314503,0.13564114
1734277162590,2024-12-15T15:39:22.590Z,79468,0.20127423,0.0314503,0.13564114
1734277162596,2024-12-15T15:39:22.596Z,79474,0.15209244,0.20357637,0.1336813
1734277162598,2024-12-15T15:39:22.598Z,79476,0.15209244,0.20357637,0.1336813
1734277162606,2024-12-15T15:39:22.606Z,79484,0.11650998,0.115616255,0.0994182
1734277162609,2024-12-15T15:39:22.609Z,79487,0.11650998,0.115616255,0.0994182
1734277162618,2024-12-15T15:39:22.618Z,79496,0.08877516,0.11373694,0.08176514
1734277162620,2024-12-15T15:39:22.620Z,79498,0.08877516,0.11373694,0.08176514
1734277162628,2024-12-15T15:39:22.628Z,79506,0.057666775,0.2607224,0.12607507
1734277162630,2024-12-15T15:39:22.630Z,79508,0.057666775,0.2607224,0.12607507
1734277162637,2024-12-15T15:39:22.637Z,79515,0.08891999,0.2675697,0.118884884
1734277162639,2024-12-15T15:39:22.639Z,79517,0.08891999,0.2675697,0.118884884
1734277162646,2024-12-15T15:39:22.646Z,79524,0.10976952,0.08067933,0.084459655
1734277162648,2024-12-15T15:39:22.648Z,79526,0.10976952,0.08067933,0.084459655
1734277162656,2024-12-15T15:39:22.656Z,79534,0.12196945,-0.06419361,0.020711806
1734277162658,2024-12-15T15:39:22.658Z,79536,0.12196945,-0.06419361,0.020711806
1734277162664,2024-12-15T15:39:22.664Z,79542,0.12063183,0.017766478,0.03539773
1734277162667,2024-12-15T15:39:22.667Z,79545,0.12063183,0.017766478,0.03539773
1734277162673,2024-12-15T15:39:22.673Z,79551,0.11824859,0.124430105,0.09219449
1734277162675,2024-12-15T15:39:22.675Z,79553,0.11824859,0.124430105,0.09219449
1734277162682,2024-12-15T15:39:22.682Z,79560,0.09466142,0.08167242,0.08129093
1734277162685,2024-12-15T15:39:22.685Z,79563,0.09466142,0.08167242,0.08129093
1734277162693,2024-12-15T15:39:22.693Z,79571,0.10979165,-0.06893025,0.09379559
1734277162696,2024-12-15T15:39:22.696Z,79574,0.10979165,-0.06893025,0.09379559
1734277162703,2024-12-15T15:39:22.703Z,79581,0.14026858,-0.14199206,0.0559059
1734277162705,2024-12-15T15:39:22.705Z,79583,0.14026858,-0.14199206,0.0559059
1734277162711,2024-12-15T15:39:22.711Z,79589,0.09665608,-0.009139437,0.046997037
1734277162713,2024-12-15T15:39:22.713Z,79591,0.09665608,-0.009139437,0.046997037
1734277162720,2024-12-15T15:39:22.720Z,79598,0.030434504,0.28818855,0.09332203
1734277162722,2024-12-15T15:39:22.722Z,79600,0.030434504,0.28818855,0.09332203
1734277162728,2024-12-15T15:39:22.728Z,79606,0.029515237,0.43319544,0.113563016
1734277162733,2024-12-15T15:39:22.733Z,79611,0.029515237,0.43319544,0.113563016
1734277162741,2024-12-15T15:39:22.741Z,79619,0.08432578,0.31950983,0.093236975
1734277162744,2024-12-15T15:39:22.744Z,79622,0.08432578,0.31950983,0.093236975
1734277162753,2024-12-15T15:39:22.753Z,79631,0.12912671,0.11116921,0.057622846
1734277162755,2024-12-15T15:39:22.755Z,79633,0.12912671,0.11116921,0.057622846
1734277162761,2024-12-15T15:39:22.761Z,79639,0.0834465,0.110770784,0.010381072
1734277162764,2024-12-15T15:39:22.764Z,79642,0.0834465,0.110770784,0.010381072
1734277162772,2024-12-15T15:39:22.772Z,79650,-0.0053322017,0.28459972,0.013639271
1734277162774,2024-12-15T15:39:22.774Z,79652,-0.0053322017,0.28459972,0.013639271
1734277162781,2024-12-15T15:39:22.781Z,79659,0.006280853,0.32950312,0.017715324
1734277162783,2024-12-15T15:39:22.783Z,79661,0.006280853,0.32950312,0.017715324
1734277162791,2024-12-15T15:39:22.791Z,79669,0.0880235,0.19275853,-0.007041543
1734277162793,2024-12-15T15:39:22.793Z,79671,0.0880235,0.19275853,-0.007041543
1734277162801,2024-12-15T15:39:22.801Z,79679,0.110125594,0.094520696,-0.0045614224
1734277162803,2024-12-15T15:39:22.803Z,79681,0.110125594,0.094520696,-0.0045614224
1734277162810,2024-12-15T15:39:22.810Z,79688,0.071581535,0.15730256,0.00655514
1734277162812,2024-12-15T15:39:22.812Z,79690,0.071581535,0.15730256,0.00655514
1734277162819,2024-12-15T15:39:22.819Z,79697,0.042122822,0.2302416,-8.890386E-4
1734277162821,2024-12-15T15:39:22.821Z,79699,0.042122822,0.2302416,-8.890386E-4
1734277162829,2024-12-15T15:39:22.829Z,79707,0.019486068,0.14932464,-0.02235663
1734277162831,2024-12-15T15:39:22.831Z,79709,0.019486068,0.14932464,-0.02235663
1734277162839,2024-12-15T15:39:22.839Z,79717,0.03381146,0.055647478,-0.017368764
1734277162842,2024-12-15T15:39:22.842Z,79720,0.03381146,0.055647478,-0.017368764
1734277162850,2024-12-15T15:39:22.850Z,79728,0.10149041,0.08245955,-0.021736475
1734277162852,2024-12-15T15:39:22.852Z,79730,0.10149041,0.08245955,-0.021736475
1734277162857,2024-12-15T15:39:22.857Z,79735,0.08481066,0.087259404,-0.03543863
1734277162859,2024-12-15T15:39:22.859Z,79737,0.08481066,0.087259404,-0.03543863
1734277162866,2024-12-15T15:39:22.866Z,79744,0.06846646,0.024185993,-0.009041777
1734277162868,2024-12-15T15:39:22.868Z,79746,0.06846646,0.024185993,-0.009041777
1734277162874,2024-12-15T15:39:22.874Z,79752,0.05457002,-0.011102091,-0.033567365
1734277162876,2024-12-15T15:39:22.876Z,79754,0.05457002,-0.011102091,-0.033567365
1734277162885,2024-12-15T15:39:22.885Z,79763,0.044392094,0.024854084,0.0212791
1734277162887,2024-12-15T15:39:22.887Z,79765,0.044392094,0.024854084,0.0212791
1734277162895,2024-12-15T15:39:22.895Z,79773,0.13499068,0.080276236,0.085583486
1734277162897,2024-12-15T15:39:22.897Z,79775,0.13499068,0.080276236,0.085583486
1734277162904,2024-12-15T15:39:22.904Z,79782,0.22407079,9.238533E-4,0.048980113
1734277162906,2024-12-15T15:39:22.906Z,79784,0.22407079,9.238533E-4,0.048980113
1734277162914,2024-12-15T15:39:22.914Z,79792,0.17246015,-0.09059461,0.008519374
1734277162917,2024-12-15T15:39:22.917Z,79795,0.17246015,-0.09059461,0.008519374
1734277162925,2024-12-15T15:39:22.925Z,79803,-0.0071990187,-0.048437726,0.039837856
1734277162927,2024-12-15T15:39:22.927Z,79805,-0.0071990187,-0.048437726,0.039837856
1734277162937,2024-12-15T15:39:22.937Z,79815,-0.042297464,-0.004907314,0.04306778
1734277162941,2024-12-15T15:39:22.941Z,79819,-0.042297464,-0.004907314,0.04306778
1734277162960,2024-12-15T15:39:22.960Z,79838,0.03353476,-0.05222854,0.008382583
1734277162965,2024-12-15T15:39:22.965Z,79843,0.03353476,-0.05222854,0.008382583
1734277162977,2024-12-15T15:39:22.977Z,79855,0.10445358,-0.096253164,0.12334747
1734277162984,2024-12-15T15:39:22.984Z,79862,0.10445358,-0.096253164,0.12334747
1734277163000,2024-12-15T15:39:23Z,79878,0.19364819,-0.085282646,0.18066469
1734277163005,2024-12-15T15:39:23.005Z,79883,0.19364819,-0.085282646,0.18066469
1734277163019,2024-12-15T15:39:23.019Z,79897,0.17068735,-0.16663717,0.1644927
1734277163022,2024-12-15T15:39:23.022Z,79900,0.17068735,-0.16663717,0.1644927
1734277163031,2024-12-15T15:39:23.031Z,79909,0.11357545,-0.21129449,0.1953527
