Timestamp (ms),ISO DateTime,Elapsed Time (ms),Acceleration X,Acceleration Y,Acceleration Z
1732437741120,2024-11-24T08:42:21.120Z,36591,0.15841872,-0.34034148,-0.55783343
1732437741127,2024-11-24T08:42:21.127Z,36598,0.15841872,-0.34034148,-0.55783343
1732437741156,2024-11-24T08:42:21.156Z,36627,0.16001992,-0.34454855,-0.56896675
1732437741163,2024-11-24T08:42:21.163Z,36634,0.16001992,-0.34454855,-0.56896675
1732437741182,2024-11-24T08:42:21.182Z,36653,0.13777202,-0.3294118,-0.5773221
1732437741190,2024-11-24T08:42:21.190Z,36661,0.13777202,-0.3294118,-0.5773221
1732437741212,2024-11-24T08:42:21.212Z,36683,0.13054244,-0.3158055,-0.56078476
1732437741217,2024-11-24T08:42:21.217Z,36688,0.13054244,-0.3158055,-0.56078476
1732437741229,2024-11-24T08:42:21.229Z,36700,0.1348091,-0.31317264,-0.52144724
1732437741232,2024-11-24T08:42:21.232Z,36703,0.1348091,-0.31317264,-0.52144724
1732437741246,2024-11-24T08:42:21.246Z,36717,0.12507145,-0.2947655,-0.48724508
1732437741250,2024-11-24T08:42:21.250Z,36721,0.12507145,-0.2947655,-0.48724508
1732437741266,2024-11-24T08:42:21.266Z,36737,0.123111255,-0.27940893,-0.5034088
1732437741271,2024-11-24T08:42:21.271Z,36742,0.123111255,-0.27940893,-0.5034088
1732437741283,2024-11-24T08:42:21.283Z,36754,0.12323515,-0.2776365,-0.5044166
1732437741287,2024-11-24T08:42:21.287Z,36758,0.12323515,-0.2776365,-0.5044166
1732437741300,2024-11-24T08:42:21.300Z,36771,0.120030716,-0.2540049,-0.4875214
1732437741306,2024-11-24T08:42:21.306Z,36777,0.120030716,-0.2540049,-0.4875214
1732437741317,2024-11-24T08:42:21.317Z,36788,0.11311959,-0.24348256,-0.45946428
1732437741320,2024-11-24T08:42:21.320Z,36791,0.11311959,-0.24348256,-0.45946428
1732437741335,2024-11-24T08:42:21.335Z,36806,0.11165353,-0.24313422,-0.4343816
1732437741339,2024-11-24T08:42:21.339Z,36810,0.11165353,-0.24313422,-0.4343816
1732437741350,2024-11-24T08:42:21.350Z,36821,0.10868064,-0.21872504,-0.4517518
1732437741354,2024-11-24T08:42:21.354Z,36825,0.10868064,-0.21872504,-0.4517518
1732437741366,2024-11-24T08:42:21.366Z,36837,0.08956935,-0.1959222,-0.48776376
1732437741369,2024-11-24T08:42:21.369Z,36840,0.08956935,-0.1959222,-0.48776376
1732437741382,2024-11-24T08:42:21.382Z,36853,0.09315852,-0.19221866,-0.49157357
1732437741388,2024-11-24T08:42:21.388Z,36859,0.09315852,-0.19221866,-0.49157357
1732437741400,2024-11-24T08:42:21.400Z,36871,0.08849739,-0.21403916,-0.44719818
1732437741404,2024-11-24T08:42:21.404Z,36875,0.08849739,-0.21403916,-0.44719818
1732437741418,2024-11-24T08:42:21.418Z,36889,0.12678389,-0.2229275,-0.41148514
1732437741424,2024-11-24T08:42:21.424Z,36895,0.12678389,-0.2229275,-0.41148514
1732437741438,2024-11-24T08:42:21.438Z,36909,0.11970985,-0.22884503,-0.42835698
1732437741443,2024-11-24T08:42:21.443Z,36914,0.11970985,-0.22884503,-0.42835698
1732437741455,2024-11-24T08:42:21.455Z,36926,0.108546175,-0.22577997,-0.46272844
1732437741459,2024-11-24T08:42:21.459Z,36930,0.108546175,-0.22577997,-0.46272844
1732437741474,2024-11-24T08:42:21.474Z,36945,0.10002992,-0.20501088,-0.45828968
1732437741479,2024-11-24T08:42:21.479Z,36950,0.10002992,-0.20501088,-0.45828968
1732437741492,2024-11-24T08:42:21.492Z,36963,0.13031094,-0.27060416,-0.44380862
1732437741499,2024-11-24T08:42:21.499Z,36970,0.13031094,-0.27060416,-0.44380862
1732437741515,2024-11-24T08:42:21.515Z,36986,0.11067835,-0.24025986,-0.4695777
1732437741519,2024-11-24T08:42:21.519Z,36990,0.11067835,-0.24025986,-0.4695777
1732437741534,2024-11-24T08:42:21.534Z,37005,0.10363954,-0.23868182,-0.44790205
1732437741540,2024-11-24T08:42:21.540Z,37011,0.10363954,-0.23868182,-0.44790205
1732437741553,2024-11-24T08:42:21.553Z,37024,0.10412556,-0.19529009,-0.40014133
1732437741556,2024-11-24T08:42:21.556Z,37027,0.10412556,-0.19529009,-0.40014133
1732437741566,2024-11-24T08:42:21.566Z,37037,0.11799899,-0.16723855,-0.40366197
1732437741569,2024-11-24T08:42:21.569Z,37040,0.11799899,-0.16723855,-0.40366197
1732437741581,2024-11-24T08:42:21.581Z,37052,0.11243985,-0.17114916,-0.397437
1732437741585,2024-11-24T08:42:21.585Z,37056,0.11243985,-0.17114916,-0.397437
1732437741598,2024-11-24T08:42:21.598Z,37069,0.07967522,-0.15291075,-0.38061476
1732437741605,2024-11-24T08:42:21.605Z,37076,0.07967522,-0.15291075,-0.38061476
1732437741618,2024-11-24T08:42:21.618Z,37089,0.081106395,-0.15747148,-0.36802197
1732437741621,2024-11-24T08:42:21.621Z,37092,0.081106395,-0.15747148,-0.36802197
1732437741636,2024-11-24T08:42:21.636Z,37107,0.077277556,-0.15320829,-0.36618042
1732437741644,2024-11-24T08:42:21.644Z,37115,0.077277556,-0.15320829,-0.36618042
1732437741667,2024-11-24T08:42:21.667Z,37138,0.08867484,-0.15060359,-0.3489025
1732437741671,2024-11-24T08:42:21.671Z,37142,0.08867484,-0.15060359,-0.3489025
1732437741682,2024-11-24T08:42:21.682Z,37153,0.091316186,-0.18037136,-0.37623993
1732437741685,2024-11-24T08:42:21.685Z,37156,0.091316186,-0.18037136,-0.37623993
1732437741696,2024-11-24T08:42:21.696Z,37167,0.094490595,-0.19646776,-0.3845552
1732437741700,2024-11-24T08:42:21.700Z,37171,0.094490595,-0.19646776,-0.3845552
1732437741711,2024-11-24T08:42:21.711Z,37182,0.05583047,-0.1670035,-0.35850707
1732437741715,2024-11-24T08:42:21.715Z,37186,0.05583047,-0.1670035,-0.35850707
1732437741727,2024-11-24T08:42:21.727Z,37198,0.044591118,-0.18018596,-0.3628157
1732437741731,2024-11-24T08:42:21.731Z,37202,0.044591118,-0.18018596,-0.3628157
1732437741743,2024-11-24T08:42:21.743Z,37214,0.050951045,-0.14896424,-0.38320586
1732437741746,2024-11-24T08:42:21.746Z,37217,0.050951045,-0.14896424,-0.38320586
1732437741760,2024-11-24T08:42:21.760Z,37231,0.05001088,-0.14816633,-0.37015516
1732437741768,2024-11-24T08:42:21.768Z,37239,0.05001088,-0.14816633,-0.37015516
1732437741788,2024-11-24T08:42:21.788Z,37259,0.07683647,-0.1624843,-0.3397448
1732437741793,2024-11-24T08:42:21.793Z,37264,0.07683647,-0.1624843,-0.3397448
1732437741816,2024-11-24T08:42:21.816Z,37287,0.069651365,-0.16455305,-0.38610947
1732437741821,2024-11-24T08:42:21.821Z,37292,0.069651365,-0.16455305,-0.38610947
1732437741837,2024-11-24T08:42:21.837Z,37308,0.059782572,-0.16011019,-0.41322663
1732437741844,2024-11-24T08:42:21.844Z,37315,0.059782572,-0.16011019,-0.41322663
1732437741871,2024-11-24T08:42:21.871Z,37342,0.04358611,-0.14432709,-0.4367982
1732437741879,2024-11-24T08:42:21.879Z,37350,0.04358611,-0.14432709,-0.4367982
1732437741892,2024-11-24T08:42:21.892Z,37363,0.057522558,-0.1476073,-0.42736694
1732437741896,2024-11-24T08:42:21.896Z,37367,0.057522558,-0.1476073,-0.42736694
1732437741910,2024-11-24T08:42:21.910Z,37381,0.07597616,-0.16336639,-0.41063794
1732437741917,2024-11-24T08:42:21.917Z,37388,0.07597616,-0.16336639,-0.41063794
1732437741943,2024-11-24T08:42:21.943Z,37414,0.09053069,-0.18853079,-0.3716089
1732437741946,2024-11-24T08:42:21.946Z,37417,0.09053069,-0.18853079,-0.3716089
1732437741957,2024-11-24T08:42:21.957Z,37428,0.09673026,-0.1827743,-0.37642357
1732437741962,2024-11-24T08:42:21.962Z,37433,0.09673026,-0.1827743,-0.37642357
1732437741973,2024-11-24T08:42:21.973Z,37444,0.06634859,-0.18062308,-0.4039531
1732437741977,2024-11-24T08:42:21.977Z,37448,0.06634859,-0.18062308,-0.4039531
1732437741987,2024-11-24T08:42:21.987Z,37458,0.05258281,-0.16955547,-0.41192538
1732437741991,2024-11-24T08:42:21.991Z,37462,0.05258281,-0.16955547,-0.41192538
1732437742002,2024-11-24T08:42:22.002Z,37473,0.058395796,-0.1736092,-0.4159951
1732437742006,2024-11-24T08:42:22.006Z,37477,0.058395796,-0.1736092,-0.4159951
1732437742020,2024-11-24T08:42:22.020Z,37491,0.034596264,-0.15918055,-0.41463178
1732437742027,2024-11-24T08:42:22.027Z,37498,0.034596264,-0.15918055,-0.41463178
1732437742049,2024-11-24T08:42:22.049Z,37520,0.059178248,-0.17517833,-0.3801507
1732437742053,2024-11-24T08:42:22.053Z,37524,0.059178248,-0.17517833,-0.3801507
1732437742063,2024-11-24T08:42:22.063Z,37534,0.064546175,-0.17503738,-0.33139428
1732437742067,2024-11-24T08:42:22.067Z,37538,0.064546175,-0.17503738,-0.33139428
1732437742078,2024-11-24T08:42:22.078Z,37549,0.05871253,-0.15994069,-0.32257774
1732437742081,2024-11-24T08:42:22.081Z,37552,0.05871253,-0.15994069,-0.32257774
1732437742092,2024-11-24T08:42:22.092Z,37563,0.059955284,-0.15523298,-0.32184654
1732437742096,2024-11-24T08:42:22.096Z,37567,0.059955284,-0.15523298,-0.32184654
1732437742107,2024-11-24T08:42:22.107Z,37578,0.09567804,-0.1525204,-0.2815216
1732437742111,2024-11-24T08:42:22.111Z,37582,0.09567804,-0.1525204,-0.2815216
1732437742122,2024-11-24T08:42:22.122Z,37593,0.1384035,-0.14945714,-0.31957468
1732437742125,2024-11-24T08:42:22.125Z,37596,0.1384035,-0.14945714,-0.31957468
1732437742136,2024-11-24T08:42:22.136Z,37607,0.122226395,-0.12233252,-0.3322695
1732437742140,2024-11-24T08:42:22.140Z,37611,0.122226395,-0.12233252,-0.3322695
1732437742154,2024-11-24T08:42:22.154Z,37625,0.0732842,-0.1056293,-0.35991675
1732437742157,2024-11-24T08:42:22.157Z,37628,0.0732842,-0.1056293,-0.35991675
1732437742167,2024-11-24T08:42:22.167Z,37638,0.08291821,-0.12856215,-0.21760452
1732437742170,2024-11-24T08:42:22.170Z,37641,0.08291821,-0.12856215,-0.21760452
1732437742181,2024-11-24T08:42:22.181Z,37652,0.097366504,-0.14648487,-0.29361033
1732437742184,2024-11-24T08:42:22.184Z,37655,0.097366504,-0.14648487,-0.29361033
1732437742197,2024-11-24T08:42:22.197Z,37668,0.075913124,-0.15289748,-0.3538819
1732437742201,2024-11-24T08:42:22.201Z,37672,0.075913124,-0.15289748,-0.3538819
1732437742213,2024-11-24T08:42:22.213Z,37684,0.026678622,-0.12038134,-0.3072816
1732437742216,2024-11-24T08:42:22.216Z,37687,0.026678622,-0.12038134,-0.3072816
1732437742227,2024-11-24T08:42:22.227Z,37698,0.0539974,-0.14432135,-0.23732926
1732437742234,2024-11-24T08:42:22.234Z,37705,0.0539974,-0.14432135,-0.23732926
1732437742244,2024-11-24T08:42:22.244Z,37715,0.06607044,-0.13742435,-0.28942803
1732437742247,2024-11-24T08:42:22.247Z,37718,0.06607044,-0.13742435,-0.28942803
1732437742256,2024-11-24T08:42:22.256Z,37727,0.030389084,-0.1057902,-0.41159537
1732437742259,2024-11-24T08:42:22.259Z,37730,0.030389084,-0.1057902,-0.41159537
1732437742269,2024-11-24T08:42:22.269Z,37740,0.06421979,-0.13642177,-0.31590804
1732437742272,2024-11-24T08:42:22.272Z,37743,0.06421979,-0.13642177,-0.31590804
1732437742284,2024-11-24T08:42:22.284Z,37755,0.0684612,-0.14342672,-0.3112722
1732437742289,2024-11-24T08:42:22.289Z,37760,0.0684612,-0.14342672,-0.3112722
1732437742300,2024-11-24T08:42:22.300Z,37771,0.052435018,-0.13245387,-0.41803437
1732437742303,2024-11-24T08:42:22.303Z,37774,0.052435018,-0.13245387,-0.41803437
1732437742315,2024-11-24T08:42:22.315Z,37786,0.0071508917,-0.08332967,-0.41067594
1732437742318,2024-11-24T08:42:22.318Z,37789,0.0071508917,-0.08332967,-0.41067594
1732437742330,2024-11-24T08:42:22.330Z,37801,0.004351082,-0.100902915,-0.36764726
1732437742333,2024-11-24T08:42:22.333Z,37804,0.004351082,-0.100902915,-0.36764726
1732437742348,2024-11-24T08:42:22.348Z,37819,0.04169566,-0.12459557,-0.30625138
1732437742355,2024-11-24T08:42:22.355Z,37826,0.04169566,-0.12459557,-0.30625138
1732437742379,2024-11-24T08:42:22.379Z,37850,0.04426631,-0.1274459,-0.35398436
1732437742387,2024-11-24T08:42:22.387Z,37858,0.04426631,-0.1274459,-0.35398436
1732437742409,2024-11-24T08:42:22.409Z,37880,0.037538614,-0.11918092,-0.37274545
1732437742413,2024-11-24T08:42:22.413Z,37884,0.037538614,-0.11918092,-0.37274545
1732437742426,2024-11-24T08:42:22.426Z,37897,0.061789643,-0.16336171,-0.27507028
1732437742430,2024-11-24T08:42:22.430Z,37901,0.061789643,-0.16336171,-0.27507028
1732437742443,2024-11-24T08:42:22.443Z,37914,0.050996847,-0.1703637,-0.2995813
1732437742446,2024-11-24T08:42:22.446Z,37917,0.050996847,-0.1703637,-0.2995813
1732437742460,2024-11-24T08:42:22.460Z,37931,0.029563135,-0.13533823,-0.40087965
1732437742464,2024-11-24T08:42:22.464Z,37935,0.029563135,-0.13533823,-0.40087965
1732437742475,2024-11-24T08:42:22.475Z,37946,0.0019804253,-0.060872596,-0.43386835
1732437742479,2024-11-24T08:42:22.479Z,37950,0.0019804253,-0.060872596,-0.43386835
1732437742490,2024-11-24T08:42:22.490Z,37961,-0.015018548,-0.104062006,-0.39890355
1732437742493,2024-11-24T08:42:22.493Z,37964,-0.015018548,-0.104062006,-0.39890355
1732437742507,2024-11-24T08:42:22.507Z,37978,-0.039654773,-0.14911129,-0.27531454
1732437742510,2024-11-24T08:42:22.510Z,37981,-0.039654773,-0.14911129,-0.27531454
1732437742522,2024-11-24T08:42:22.522Z,37993,0.040817954,-0.08365968,-0.37777635
1732437742527,2024-11-24T08:42:22.527Z,37998,0.040817954,-0.08365968,-0.37777635
1732437742538,2024-11-24T08:42:22.538Z,38009,0.0014233419,-0.09162889,-0.374328
1732437742543,2024-11-24T08:42:22.543Z,38014,0.0014233419,-0.09162889,-0.374328
1732437742555,2024-11-24T08:42:22.555Z,38026,0.0068996283,-0.08811795,-0.26528504
1732437742559,2024-11-24T08:42:22.559Z,38030,0.0068996283,-0.08811795,-0.26528504
1732437742570,2024-11-24T08:42:22.570Z,38041,0.10306894,-0.11998506,-0.25793618
1732437742573,2024-11-24T08:42:22.573Z,38044,0.10306894,-0.11998506,-0.25793618
1732437742583,2024-11-24T08:42:22.583Z,38054,0.114623815,-0.13051538,-0.30078754
1732437742586,2024-11-24T08:42:22.586Z,38057,0.114623815,-0.13051538,-0.30078754
1732437742596,2024-11-24T08:42:22.596Z,38067,0.08064427,-0.076840766,-0.31163692
1732437742600,2024-11-24T08:42:22.600Z,38071,0.08064427,-0.076840766,-0.31163692
1732437742611,2024-11-24T08:42:22.611Z,38082,0.039587647,-0.15425014,-0.33271137
1732437742615,2024-11-24T08:42:22.615Z,38086,0.039587647,-0.15425014,-0.33271137
1732437742627,2024-11-24T08:42:22.627Z,38098,0.082057185,-0.1379754,-0.37182456
1732437742631,2024-11-24T08:42:22.631Z,38102,0.082057185,-0.1379754,-0.37182456
1732437742641,2024-11-24T08:42:22.641Z,38112,0.079561636,-0.06752468,-0.42356348
1732437742645,2024-11-24T08:42:22.645Z,38116,0.079561636,-0.06752468,-0.42356348
1732437742654,2024-11-24T08:42:22.654Z,38125,-0.022663046,-0.07659429,-0.42931676
1732437742657,2024-11-24T08:42:22.657Z,38128,-0.022663046,-0.07659429,-0.42931676
1732437742668,2024-11-24T08:42:22.668Z,38139,-0.09453777,-0.032978013,-0.48218033
1732437742672,2024-11-24T08:42:22.672Z,38143,-0.09453777,-0.032978013,-0.48218033
1732437742683,2024-11-24T08:42:22.683Z,38154,-0.13223876,-0.023817133,-0.54792273
1732437742687,2024-11-24T08:42:22.687Z,38158,-0.13223876,-0.023817133,-0.54792273
1732437742699,2024-11-24T08:42:22.699Z,38170,-0.083144076,-0.13417053,-0.5479578
1732437742702,2024-11-24T08:42:22.702Z,38173,-0.083144076,-0.13417053,-0.5479578
1732437742713,2024-11-24T08:42:22.713Z,38184,0.03300962,-0.25096685,-0.40111935
1732437742720,2024-11-24T08:42:22.720Z,38191,0.03300962,-0.25096685,-0.40111935
1732437742733,2024-11-24T08:42:22.733Z,38204,0.01991728,-0.26213354,-0.34920788
1732437742737,2024-11-24T08:42:22.737Z,38208,0.01991728,-0.26213354,-0.34920788
1732437742746,2024-11-24T08:42:22.746Z,38217,0.01837729,-0.2373027,-0.40294543
1732437742749,2024-11-24T08:42:22.749Z,38220,0.01837729,-0.2373027,-0.40294543
1732437742761,2024-11-24T08:42:22.761Z,38232,-3.6251516E-4,-0.06653314,-0.47021195
1732437742765,2024-11-24T08:42:22.765Z,38236,-3.6251516E-4,-0.06653314,-0.47021195
1732437742777,2024-11-24T08:42:22.777Z,38248,0.060757115,-0.007588288,-0.44844684
1732437742781,2024-11-24T08:42:22.781Z,38252,0.060757115,-0.007588288,-0.44844684
1732437742792,2024-11-24T08:42:22.792Z,38263,0.0040837964,0.047667377,-0.41267276
1732437742795,2024-11-24T08:42:22.795Z,38266,0.0040837964,0.047667377,-0.41267276
1732437742805,2024-11-24T08:42:22.805Z,38276,0.04051724,0.032754928,-0.2519555
1732437742809,2024-11-24T08:42:22.809Z,38280,0.04051724,0.032754928,-0.2519555
1732437742821,2024-11-24T08:42:22.821Z,38292,0.066563144,-0.0161191,-0.21458142
1732437742824,2024-11-24T08:42:22.824Z,38295,0.066563144,-0.0161191,-0.21458142
1732437742835,2024-11-24T08:42:22.835Z,38306,0.066531025,-0.12729035,-0.27060074
1732437742838,2024-11-24T08:42:22.838Z,38309,0.066531025,-0.12729035,-0.27060074
1732437742849,2024-11-24T08:42:22.849Z,38320,-0.072924264,-0.067430496,-0.40833926
1732437742853,2024-11-24T08:42:22.853Z,38324,-0.072924264,-0.067430496,-0.40833926
1732437742864,2024-11-24T08:42:22.864Z,38335,-0.10147337,-0.08902795,-0.3307524
1732437742868,2024-11-24T08:42:22.868Z,38339,-0.10147337,-0.08902795,-0.3307524
1732437742880,2024-11-24T08:42:22.880Z,38351,-0.04380893,-0.05942978,-0.33469784
1732437742884,2024-11-24T08:42:22.884Z,38355,-0.04380893,-0.05942978,-0.33469784
1732437742896,2024-11-24T08:42:22.896Z,38367,0.028671592,-0.17946196,-0.5152228
1732437742900,2024-11-24T08:42:22.900Z,38371,0.028671592,-0.17946196,-0.5152228
1732437742911,2024-11-24T08:42:22.911Z,38382,-0.044472545,-0.09509859,-0.54581946
1732437742915,2024-11-24T08:42:22.915Z,38386,-0.044472545,-0.09509859,-0.54581946
1732437742926,2024-11-24T08:42:22.926Z,38397,-0.14841448,-0.028899103,-0.4622486
1732437742930,2024-11-24T08:42:22.930Z,38401,-0.14841448,-0.028899103,-0.4622486
1732437742938,2024-11-24T08:42:22.938Z,38409,-0.042350795,-0.15683815,-0.45096022
1732437742942,2024-11-24T08:42:22.942Z,38413,-0.042350795,-0.15683815,-0.45096022
1732437742953,2024-11-24T08:42:22.953Z,38424,-0.16262826,-0.14722073,-0.5130733
1732437742957,2024-11-24T08:42:22.957Z,38428,-0.16262826,-0.14722073,-0.5130733
1732437742968,2024-11-24T08:42:22.968Z,38439,-0.088515684,-0.115186274,-0.48670328
1732437742970,2024-11-24T08:42:22.970Z,38441,-0.088515684,-0.115186274,-0.48670328
1732437742983,2024-11-24T08:42:22.983Z,38454,-0.012610379,-0.1006597,-0.341536
1732437742990,2024-11-24T08:42:22.990Z,38461,-0.012610379,-0.1006597,-0.341536
1732437743013,2024-11-24T08:42:23.013Z,38484,0.03910481,-0.032994594,-0.27125484
1732437743019,2024-11-24T08:42:23.019Z,38490,0.03910481,-0.032994594,-0.27125484
1732437743034,2024-11-24T08:42:23.034Z,38505,-0.06462994,-0.06286564,-0.305325
1732437743037,2024-11-24T08:42:23.037Z,38508,-0.06462994,-0.06286564,-0.305325
1732437743049,2024-11-24T08:42:23.049Z,38520,-0.096191704,-0.14089127,-0.37184367
1732437743052,2024-11-24T08:42:23.052Z,38523,-0.096191704,-0.14089127,-0.37184367
1732437743066,2024-11-24T08:42:23.066Z,38537,-0.07336591,-0.104275756,-0.38153276
1732437743073,2024-11-24T08:42:23.073Z,38544,-0.07336591,-0.104275756,-0.38153276
1732437743091,2024-11-24T08:42:23.091Z,38562,-0.108108036,-0.06686734,-0.32965207
1732437743094,2024-11-24T08:42:23.094Z,38565,-0.108108036,-0.06686734,-0.32965207
1732437743103,2024-11-24T08:42:23.103Z,38574,-0.044592768,-0.038354255,-0.38815784
1732437743107,2024-11-24T08:42:23.107Z,38578,-0.044592768,-0.038354255,-0.38815784
1732437743122,2024-11-24T08:42:23.122Z,38593,-0.023830041,-0.12497742,-0.32925066
1732437743125,2024-11-24T08:42:23.125Z,38596,-0.023830041,-0.12497742,-0.32925066
1732437743135,2024-11-24T08:42:23.135Z,38606,-0.10910097,-0.11084159,-0.26728332
1732437743138,2024-11-24T08:42:23.138Z,38609,-0.10910097,-0.11084159,-0.26728332
1732437743148,2024-11-24T08:42:23.148Z,38619,-0.031708542,-0.19837688,-0.37762016
1732437743151,2024-11-24T08:42:23.151Z,38622,-0.031708542,-0.19837688,-0.37762016
1732437743160,2024-11-24T08:42:23.160Z,38631,-0.022758834,-0.15182206,-0.42596376
1732437743163,2024-11-24T08:42:23.163Z,38634,-0.022758834,-0.15182206,-0.42596376
1732437743173,2024-11-24T08:42:23.173Z,38644,-0.022656262,-0.10925042,-0.42240012
1732437743177,2024-11-24T08:42:23.177Z,38648,-0.022656262,-0.10925042,-0.42240012
1732437743188,2024-11-24T08:42:23.188Z,38659,-0.06927266,-0.035894956,-0.3662933
1732437743191,2024-11-24T08:42:23.191Z,38662,-0.06927266,-0.035894956,-0.3662933
1732437743202,2024-11-24T08:42:23.202Z,38673,-0.038207605,-0.06337565,-0.38645172
1732437743205,2024-11-24T08:42:23.205Z,38676,-0.038207605,-0.06337565,-0.38645172
1732437743216,2024-11-24T08:42:23.216Z,38687,-0.049058955,-0.14267474,-0.34483024
1732437743219,2024-11-24T08:42:23.219Z,38690,-0.049058955,-0.14267474,-0.34483024
1732437743229,2024-11-24T08:42:23.229Z,38700,0.0018180703,-0.09017678,-0.30724785
1732437743233,2024-11-24T08:42:23.233Z,38704,0.0018180703,-0.09017678,-0.30724785
1732437743245,2024-11-24T08:42:23.245Z,38716,-0.20093428,-0.20475915,-0.33991393
1732437743250,2024-11-24T08:42:23.250Z,38721,-0.20093428,-0.20475915,-0.33991393
1732437743265,2024-11-24T08:42:23.265Z,38736,-0.19346541,-0.20189433,-0.40807816
1732437743268,2024-11-24T08:42:23.268Z,38739,-0.19346541,-0.20189433,-0.40807816
1732437743282,2024-11-24T08:42:23.282Z,38753,-0.110174246,-0.13807693,-0.34798652
1732437743285,2024-11-24T08:42:23.285Z,38756,-0.110174246,-0.13807693,-0.34798652
1732437743294,2024-11-24T08:42:23.294Z,38765,-0.087258674,-0.11208251,-0.35209715
1732437743297,2024-11-24T08:42:23.297Z,38768,-0.087258674,-0.11208251,-0.35209715
1732437743306,2024-11-24T08:42:23.306Z,38777,-0.057846695,-0.16238272,-0.34004393
1732437743309,2024-11-24T08:42:23.309Z,38780,-0.057846695,-0.16238272,-0.34004393
1732437743318,2024-11-24T08:42:23.318Z,38789,-0.049131308,-0.09047145,-0.3084387
1732437743321,2024-11-24T08:42:23.321Z,38792,-0.049131308,-0.09047145,-0.3084387
1732437743333,2024-11-24T08:42:23.333Z,38804,0.015457379,-0.2557252,-0.47292382
1732437743340,2024-11-24T08:42:23.340Z,38811,0.015457379,-0.2557252,-0.47292382
1732437743361,2024-11-24T08:42:23.361Z,38832,0.007025029,-0.1715173,-0.3561054
1732437743370,2024-11-24T08:42:23.370Z,38841,0.007025029,-0.1715173,-0.3561054
1732437743384,2024-11-24T08:42:23.384Z,38855,0.07967568,-0.0801061,-0.22836241
1732437743387,2024-11-24T08:42:23.387Z,38858,0.07967568,-0.0801061,-0.22836241
1732437743397,2024-11-24T08:42:23.397Z,38868,0.06683952,-0.12002371,-0.23618783
1732437743400,2024-11-24T08:42:23.400Z,38871,0.06683952,-0.12002371,-0.23618783
1732437743411,2024-11-24T08:42:23.411Z,38882,0.080442876,-0.017271971,-0.2450561
1732437743413,2024-11-24T08:42:23.413Z,38884,0.080442876,-0.017271971,-0.2450561
1732437743422,2024-11-24T08:42:23.422Z,38893,0.082256496,-0.034814343,-0.22781208
1732437743425,2024-11-24T08:42:23.425Z,38896,0.082256496,-0.034814343,-0.22781208
1732437743438,2024-11-24T08:42:23.438Z,38909,-0.03702529,-0.4015536,-0.2499038
1732437743444,2024-11-24T08:42:23.444Z,38915,-0.03702529,-0.4015536,-0.2499038
1732437743465,2024-11-24T08:42:23.465Z,38936,-0.059320766,-0.31908792,-0.14896667
1732437743471,2024-11-24T08:42:23.471Z,38942,-0.059320766,-0.31908792,-0.14896667
1732437743489,2024-11-24T08:42:23.489Z,38960,-0.07869272,-0.2653202,-0.15779662
1732437743497,2024-11-24T08:42:23.497Z,38968,-0.07869272,-0.2653202,-0.15779662
1732437743516,2024-11-24T08:42:23.516Z,38987,-0.019264553,-0.09792942,-0.21631806
1732437743524,2024-11-24T08:42:23.524Z,38995,-0.019264553,-0.09792942,-0.21631806
1732437743546,2024-11-24T08:42:23.546Z,39017,-0.09964413,-0.1037585,-0.25777888
1732437743550,2024-11-24T08:42:23.550Z,39021,-0.09964413,-0.1037585,-0.25777888
1732437743563,2024-11-24T08:42:23.563Z,39034,-0.037711885,-0.18060938,-0.307026
1732437743567,2024-11-24T08:42:23.567Z,39038,-0.037711885,-0.18060938,-0.307026
1732437743580,2024-11-24T08:42:23.580Z,39051,0.11328739,-0.37462416,-0.117770046
1732437743584,2024-11-24T08:42:23.584Z,39055,0.11328739,-0.37462416,-0.117770046
1732437743595,2024-11-24T08:42:23.595Z,39066,-0.052308377,-0.33882907,-0.2268655
1732437743599,2024-11-24T08:42:23.599Z,39070,-0.052308377,-0.33882907,-0.2268655
1732437743609,2024-11-24T08:42:23.609Z,39080,-0.21326764,-0.36321467,-0.34695077
1732437743613,2024-11-24T08:42:23.613Z,39084,-0.21326764,-0.36321467,-0.34695077
1732437743624,2024-11-24T08:42:23.624Z,39095,-0.023824718,-0.48654383,-0.3137585
1732437743627,2024-11-24T08:42:23.627Z,39098,-0.023824718,-0.48654383,-0.3137585
1732437743637,2024-11-24T08:42:23.637Z,39108,0.0179776,-0.48519784,-0.23259276
1732437743641,2024-11-24T08:42:23.641Z,39112,0.0179776,-0.48519784,-0.23259276
1732437743651,2024-11-24T08:42:23.651Z,39122,0.13252729,-0.48764175,-0.098787874
1732437743654,2024-11-24T08:42:23.654Z,39125,0.13252729,-0.48764175,-0.098787874
1732437743663,2024-11-24T08:42:23.663Z,39134,-0.044671685,-0.4820542,-0.5211781
1732437743667,2024-11-24T08:42:23.667Z,39138,-0.044671685,-0.4820542,-0.5211781
1732437743677,2024-11-24T08:42:23.677Z,39148,0.23348214,-0.46740305,-0.5689349
1732437743682,2024-11-24T08:42:23.682Z,39153,0.23348214,-0.46740305,-0.5689349
1732437743692,2024-11-24T08:42:23.692Z,39163,0.24494746,-0.29092047,-0.3602241
1732437743696,2024-11-24T08:42:23.696Z,39167,0.24494746,-0.29092047,-0.3602241
1732437743707,2024-11-24T08:42:23.707Z,39178,0.23197545,-0.25710297,-0.2217511
1732437743710,2024-11-24T08:42:23.710Z,39181,0.23197545,-0.25710297,-0.2217511
1732437743719,2024-11-24T08:42:23.719Z,39190,0.10752371,-0.28722593,-0.33114743
1732437743723,2024-11-24T08:42:23.723Z,39194,0.10752371,-0.28722593,-0.33114743
1732437743734,2024-11-24T08:42:23.734Z,39205,0.030845735,-0.3728421,-0.55039185
1732437743737,2024-11-24T08:42:23.737Z,39208,0.030845735,-0.3728421,-0.55039185
1732437743746,2024-11-24T08:42:23.746Z,39217,0.07214642,-0.3771455,-0.51411617
1732437743749,2024-11-24T08:42:23.749Z,39220,0.07214642,-0.3771455,-0.51411617
1732437743757,2024-11-24T08:42:23.757Z,39228,0.08675571,-0.42694455,-0.4135597
1732437743760,2024-11-24T08:42:23.760Z,39231,0.08675571,-0.42694455,-0.4135597
1732437743771,2024-11-24T08:42:23.771Z,39242,0.16246402,-0.5732559,-0.24996008
1732437743775,2024-11-24T08:42:23.775Z,39246,0.16246402,-0.5732559,-0.24996008
1732437743785,2024-11-24T08:42:23.785Z,39256,0.033871744,-0.43735301,-0.2210057
1732437743788,2024-11-24T08:42:23.788Z,39259,0.033871744,-0.43735301,-0.2210057
1732437743798,2024-11-24T08:42:23.798Z,39269,0.02449546,-0.3815272,-0.21160339
1732437743802,2024-11-24T08:42:23.802Z,39273,0.02449546,-0.3815272,-0.21160339
1732437743815,2024-11-24T08:42:23.815Z,39286,0.03769528,-0.42321452,-0.15373945
1732437743822,2024-11-24T08:42:23.822Z,39293,0.03769528,-0.42321452,-0.15373945
1732437743838,2024-11-24T08:42:23.838Z,39309,0.014415831,-0.43561083,-0.12725009
1732437743843,2024-11-24T08:42:23.843Z,39314,0.014415831,-0.43561083,-0.12725009
1732437743853,2024-11-24T08:42:23.853Z,39324,0.060538672,-0.45987394,-0.11165618
1732437743856,2024-11-24T08:42:23.856Z,39327,0.060538672,-0.45987394,-0.11165618
1732437743870,2024-11-24T08:42:23.870Z,39341,-0.034530938,-0.48019308,-0.2177759
1732437743877,2024-11-24T08:42:23.877Z,39348,-0.034530938,-0.48019308,-0.2177759
1732437743900,2024-11-24T08:42:23.900Z,39371,-0.01698864,-0.46069738,-0.42503163
1732437743907,2024-11-24T08:42:23.907Z,39378,-0.01698864,-0.46069738,-0.42503163
1732437743920,2024-11-24T08:42:23.920Z,39391,0.16718428,-0.42521656,-0.33531517
1732437743924,2024-11-24T08:42:23.924Z,39395,0.16718428,-0.42521656,-0.33531517
1732437743935,2024-11-24T08:42:23.935Z,39406,0.3037373,-0.4725996,-0.10886527
1732437743938,2024-11-24T08:42:23.938Z,39409,0.3037373,-0.4725996,-0.10886527
1732437743950,2024-11-24T08:42:23.950Z,39421,0.23118845,-0.4264719,-0.021979345
1732437743953,2024-11-24T08:42:23.953Z,39424,0.23118845,-0.4264719,-0.021979345
1732437743962,2024-11-24T08:42:23.962Z,39433,0.010456001,-0.42036262,-0.24208355
1732437743965,2024-11-24T08:42:23.965Z,39436,0.010456001,-0.42036262,-0.24208355
1732437743975,2024-11-24T08:42:23.975Z,39446,0.084711075,-0.33435377,-0.42827204
1732437743979,2024-11-24T08:42:23.979Z,39450,0.084711075,-0.33435377,-0.42827204
1732437743989,2024-11-24T08:42:23.989Z,39460,-0.13243347,-0.3089624,-0.59404147
1732437743992,2024-11-24T08:42:23.992Z,39463,-0.13243347,-0.3089624,-0.59404147
1732437744001,2024-11-24T08:42:24.001Z,39472,-0.27264288,-0.19903073,-0.75382346
1732437744004,2024-11-24T08:42:24.004Z,39475,-0.27264288,-0.19903073,-0.75382346
1732437744015,2024-11-24T08:42:24.015Z,39486,-0.15759362,-0.12065864,-0.5914274
1732437744018,2024-11-24T08:42:24.018Z,39489,-0.15759362,-0.12065864,-0.5914274
1732437744027,2024-11-24T08:42:24.027Z,39498,0.21301752,-0.20598772,-0.05934401
1732437744029,2024-11-24T08:42:24.029Z,39500,0.21301752,-0.20598772,-0.05934401
1732437744040,2024-11-24T08:42:24.040Z,39511,0.10144836,-0.15014322,-0.18843646
1732437744044,2024-11-24T08:42:24.044Z,39515,0.10144836,-0.15014322,-0.18843646
1732437744054,2024-11-24T08:42:24.054Z,39525,0.036653295,-0.17031157,-0.40461347
1732437744057,2024-11-24T08:42:24.057Z,39528,0.036653295,-0.17031157,-0.40461347
1732437744068,2024-11-24T08:42:24.068Z,39539,-0.0070561483,-0.2839271,-0.26441523
1732437744070,2024-11-24T08:42:24.070Z,39541,-0.0070561483,-0.2839271,-0.26441523
1732437744079,2024-11-24T08:42:24.079Z,39550,-0.0756524,-0.26242957,-0.24001986
1732437744082,2024-11-24T08:42:24.082Z,39553,-0.0756524,-0.26242957,-0.24001986
1732437744093,2024-11-24T08:42:24.093Z,39564,-0.052668463,-0.1742999,-0.32044706
1732437744096,2024-11-24T08:42:24.096Z,39567,-0.052668463,-0.1742999,-0.32044706
1732437744105,2024-11-24T08:42:24.105Z,39576,-0.046840332,-0.14862354,-0.35924006
1732437744108,2024-11-24T08:42:24.108Z,39579,-0.046840332,-0.14862354,-0.35924006
1732437744118,2024-11-24T08:42:24.118Z,39589,0.030825531,-0.23944542,-0.25164622
1732437744121,2024-11-24T08:42:24.121Z,39592,0.030825531,-0.23944542,-0.25164622
1732437744130,2024-11-24T08:42:24.130Z,39601,0.1544524,-0.30902386,-0.15820695
1732437744133,2024-11-24T08:42:24.133Z,39604,0.1544524,-0.30902386,-0.15820695
1732437744146,2024-11-24T08:42:24.146Z,39617,-0.060108863,-0.111018576,-0.38278127
1732437744149,2024-11-24T08:42:24.149Z,39620,-0.060108863,-0.111018576,-0.38278127
1732437744158,2024-11-24T08:42:24.158Z,39629,0.027965646,-0.15500994,-0.3449072
1732437744161,2024-11-24T08:42:24.161Z,39632,0.027965646,-0.15500994,-0.3449072
1732437744172,2024-11-24T08:42:24.172Z,39643,0.050080508,-0.17560959,-0.20513958
1732437744175,2024-11-24T08:42:24.175Z,39646,0.050080508,-0.17560959,-0.20513958
1732437744189,2024-11-24T08:42:24.189Z,39660,0.11128462,-0.27228343,-0.3062048
1732437744196,2024-11-24T08:42:24.196Z,39667,0.11128462,-0.27228343,-0.3062048
1732437744217,2024-11-24T08:42:24.217Z,39688,-0.045606114,-0.28319985,-0.49958318
1732437744224,2024-11-24T08:42:24.224Z,39695,-0.045606114,-0.28319985,-0.49958318
1732437744244,2024-11-24T08:42:24.244Z,39715,-0.14823146,-0.20478438,-0.5574252
1732437744249,2024-11-24T08:42:24.249Z,39720,-0.14823146,-0.20478438,-0.5574252
1732437744263,2024-11-24T08:42:24.263Z,39734,0.045698743,-0.2330839,-0.29811686
1732437744268,2024-11-24T08:42:24.268Z,39739,0.045698743,-0.2330839,-0.29811686
1732437744281,2024-11-24T08:42:24.281Z,39752,0.05490431,-0.2599917,-0.34668493
1732437744286,2024-11-24T08:42:24.286Z,39757,0.05490431,-0.2599917,-0.34668493
1732437744298,2024-11-24T08:42:24.298Z,39769,-0.00923192,-0.2627126,-0.5208725
1732437744302,2024-11-24T08:42:24.302Z,39773,-0.00923192,-0.2627126,-0.5208725
1732437744314,2024-11-24T08:42:24.314Z,39785,-0.053028256,-0.17143294,-0.37782875
1732437744317,2024-11-24T08:42:24.317Z,39788,-0.053028256,-0.17143294,-0.37782875
1732437744327,2024-11-24T08:42:24.327Z,39798,0.04186339,-0.23112766,-0.0935965
1732437744330,2024-11-24T08:42:24.330Z,39801,0.04186339,-0.23112766,-0.0935965
1732437744341,2024-11-24T08:42:24.341Z,39812,0.1370557,-0.29432982,0.008329413
1732437744344,2024-11-24T08:42:24.344Z,39815,0.1370557,-0.29432982,0.008329413
1732437744354,2024-11-24T08:42:24.354Z,39825,-0.11218518,-0.32698616,-0.47045353
1732437744359,2024-11-24T08:42:24.359Z,39830,-0.11218518,-0.32698616,-0.47045353
1732437744373,2024-11-24T08:42:24.373Z,39844,-0.11949174,-0.14510672,-0.47516167
1732437744376,2024-11-24T08:42:24.376Z,39847,-0.11949174,-0.14510672,-0.47516167
1732437744388,2024-11-24T08:42:24.388Z,39859,-0.028695028,-0.116245106,-0.31184644
1732437744396,2024-11-24T08:42:24.396Z,39867,-0.028695028,-0.116245106,-0.31184644
1732437744413,2024-11-24T08:42:24.413Z,39884,-0.01769957,-0.46725994,-0.16321288
1732437744416,2024-11-24T08:42:24.416Z,39887,-0.01769957,-0.46725994,-0.16321288
1732437744425,2024-11-24T08:42:24.425Z,39896,-0.028723644,-0.32189053,-0.23491508
1732437744428,2024-11-24T08:42:24.428Z,39899,-0.028723644,-0.32189053,-0.23491508
1732437744438,2024-11-24T08:42:24.438Z,39909,0.043461826,-0.18639927,-0.28777528
1732437744441,2024-11-24T08:42:24.441Z,39912,0.043461826,-0.18639927,-0.28777528
1732437744451,2024-11-24T08:42:24.451Z,39922,0.08172817,-0.0835123,-0.27258754
1732437744454,2024-11-24T08:42:24.454Z,39925,0.08172817,-0.0835123,-0.27258754
1732437744462,2024-11-24T08:42:24.462Z,39933,0.07444882,-0.2360765,-0.31987956
1732437744465,2024-11-24T08:42:24.465Z,39936,0.07444882,-0.2360765,-0.31987956
1732437744473,2024-11-24T08:42:24.473Z,39944,0.007999768,-0.36056048,-0.3263897
1732437744476,2024-11-24T08:42:24.476Z,39947,0.007999768,-0.36056048,-0.3263897
1732437744486,2024-11-24T08:42:24.486Z,39957,0.20372497,-0.39137295,-0.25935745
1732437744488,2024-11-24T08:42:24.488Z,39959,0.20372497,-0.39137295,-0.25935745
1732437744497,2024-11-24T08:42:24.497Z,39968,0.2929641,-0.13147856,-0.3240515
1732437744500,2024-11-24T08:42:24.500Z,39971,0.2929641,-0.13147856,-0.3240515
1732437744510,2024-11-24T08:42:24.510Z,39981,0.26800448,0.010176925,-0.31255034
1732437744515,2024-11-24T08:42:24.515Z,39986,0.26800448,0.010176925,-0.31255034
1732437744523,2024-11-24T08:42:24.523Z,39994,-0.2409726,-0.06365748,-0.22898297
1732437744527,2024-11-24T08:42:24.527Z,39998,-0.2409726,-0.06365748,-0.22898297
1732437744537,2024-11-24T08:42:24.537Z,40008,-0.10916073,-0.2242082,-0.29067692
1732437744540,2024-11-24T08:42:24.540Z,40011,-0.10916073,-0.2242082,-0.29067692
1732437744550,2024-11-24T08:42:24.550Z,40021,0.018634826,-0.38775396,-0.21004188
1732437744552,2024-11-24T08:42:24.552Z,40023,0.018634826,-0.38775396,-0.21004188
1732437744561,2024-11-24T08:42:24.561Z,40032,-0.0226523,-0.71744853,-0.1203139
1732437744565,2024-11-24T08:42:24.565Z,40036,-0.0226523,-0.71744853,-0.1203139
1732437744573,2024-11-24T08:42:24.573Z,40044,-0.11362032,-0.6681154,-0.19153117
1732437744576,2024-11-24T08:42:24.576Z,40047,-0.11362032,-0.6681154,-0.19153117
1732437744585,2024-11-24T08:42:24.585Z,40056,-0.15937923,-0.38138697,-0.23550595
1732437744588,2024-11-24T08:42:24.588Z,40059,-0.15937923,-0.38138697,-0.23550595
1732437744597,2024-11-24T08:42:24.597Z,40068,0.027089152,-0.31370357,-0.34070262
1732437744600,2024-11-24T08:42:24.600Z,40071,0.027089152,-0.31370357,-0.34070262
1732437744607,2024-11-24T08:42:24.607Z,40078,0.036716554,-0.39584064,-0.31814745
1732437744610,2024-11-24T08:42:24.610Z,40081,0.036716554,-0.39584064,-0.31814745
1732437744620,2024-11-24T08:42:24.620Z,40091,0.035731267,-0.35126224,-0.31414378
1732437744623,2024-11-24T08:42:24.623Z,40094,0.035731267,-0.35126224,-0.31414378
1732437744633,2024-11-24T08:42:24.633Z,40104,0.10947557,-0.2809287,-0.32619002
1732437744637,2024-11-24T08:42:24.637Z,40108,0.10947557,-0.2809287,-0.32619002
1732437744648,2024-11-24T08:42:24.648Z,40119,0.034140464,-0.40437686,-0.39834738
1732437744651,2024-11-24T08:42:24.651Z,40122,0.034140464,-0.40437686,-0.39834738
1732437744659,2024-11-24T08:42:24.659Z,40130,-0.07026741,-0.3877951,-0.47491452
1732437744664,2024-11-24T08:42:24.664Z,40135,-0.07026741,-0.3877951,-0.47491452
1732437744673,2024-11-24T08:42:24.673Z,40144,-0.03886826,-0.21001562,-0.3972861
1732437744677,2024-11-24T08:42:24.677Z,40148,-0.03886826,-0.21001562,-0.3972861
1732437744687,2024-11-24T08:42:24.687Z,40158,0.069932215,-0.17556787,-0.32705912
1732437744690,2024-11-24T08:42:24.690Z,40161,0.069932215,-0.17556787,-0.32705912
1732437744700,2024-11-24T08:42:24.700Z,40171,0.10100191,-0.18042558,-0.26822722
1732437744703,2024-11-24T08:42:24.703Z,40174,0.10100191,-0.18042558,-0.26822722
1732437744713,2024-11-24T08:42:24.713Z,40184,0.08326532,-0.22805557,-0.20665713
1732437744716,2024-11-24T08:42:24.716Z,40187,0.08326532,-0.22805557,-0.20665713
1732437744724,2024-11-24T08:42:24.724Z,40195,0.0362273,-0.2141011,-0.2623179
1732437744726,2024-11-24T08:42:24.726Z,40197,0.0362273,-0.2141011,-0.2623179
1732437744735,2024-11-24T08:42:24.735Z,40206,2.3777066E-4,-0.26439518,-0.2896052
1732437744738,2024-11-24T08:42:24.738Z,40209,2.3777066E-4,-0.26439518,-0.2896052
1732437744747,2024-11-24T08:42:24.747Z,40218,-0.013901123,-0.23543584,-0.40154567
1732437744752,2024-11-24T08:42:24.752Z,40223,-0.013901123,-0.23543584,-0.40154567
1732437744762,2024-11-24T08:42:24.762Z,40233,-0.021819009,-0.112968296,-0.42186624
1732437744764,2024-11-24T08:42:24.764Z,40235,-0.021819009,-0.112968296,-0.42186624
1732437744774,2024-11-24T08:42:24.774Z,40245,-0.031291787,-0.10632793,-0.33116138
1732437744777,2024-11-24T08:42:24.777Z,40248,-0.031291787,-0.10632793,-0.33116138
1732437744786,2024-11-24T08:42:24.786Z,40257,0.021287184,-0.32044718,-0.24746351
1732437744789,2024-11-24T08:42:24.789Z,40260,0.021287184,-0.32044718,-0.24746351
1732437744802,2024-11-24T08:42:24.802Z,40273,-0.0033217631,-0.28369415,-0.33311486
1732437744809,2024-11-24T08:42:24.809Z,40280,-0.0033217631,-0.28369415,-0.33311486
1732437744834,2024-11-24T08:42:24.834Z,40305,-0.009510024,-0.15366024,-0.4098814
1732437744841,2024-11-24T08:42:24.841Z,40312,-0.009510024,-0.15366024,-0.4098814
1732437744852,2024-11-24T08:42:24.852Z,40323,-0.033136282,-0.14302571,-0.2925476
1732437744857,2024-11-24T08:42:24.857Z,40328,-0.033136282,-0.14302571,-0.2925476
1732437744866,2024-11-24T08:42:24.866Z,40337,-0.0061467118,-0.24913284,-0.21967311
1732437744869,2024-11-24T08:42:24.869Z,40340,-0.0061467118,-0.24913284,-0.21967311
1732437744879,2024-11-24T08:42:24.879Z,40350,0.026147917,-0.32873473,-0.19200419
1732437744882,2024-11-24T08:42:24.882Z,40353,0.026147917,-0.32873473,-0.19200419
1732437744892,2024-11-24T08:42:24.892Z,40363,-0.24050009,-0.33054575,-0.5062928
1732437744895,2024-11-24T08:42:24.895Z,40366,-0.24050009,-0.33054575,-0.5062928
1732437744905,2024-11-24T08:42:24.905Z,40376,-0.23701116,-0.21088634,-0.40427634
1732437744908,2024-11-24T08:42:24.908Z,40379,-0.23701116,-0.21088634,-0.40427634
1732437744918,2024-11-24T08:42:24.918Z,40389,-0.18813162,-0.08701176,-0.34976733
1732437744920,2024-11-24T08:42:24.920Z,40391,-0.18813162,-0.08701176,-0.34976733
1732437744928,2024-11-24T08:42:24.928Z,40399,0.033413973,-0.036273737,-0.3466115
1732437744930,2024-11-24T08:42:24.930Z,40401,0.033413973,-0.036273737,-0.3466115
1732437744939,2024-11-24T08:42:24.939Z,40410,-0.0458196,-0.051567547,-0.426116
1732437744941,2024-11-24T08:42:24.941Z,40412,-0.0458196,-0.051567547,-0.426116
1732437744950,2024-11-24T08:42:24.950Z,40421,-0.12596276,-0.031925987,-0.44380715
1732437744953,2024-11-24T08:42:24.953Z,40424,-0.12596276,-0.031925987,-0.44380715
1732437744962,2024-11-24T08:42:24.962Z,40433,-0.22985056,-0.21577989,-0.38167036
1732437744965,2024-11-24T08:42:24.965Z,40436,-0.22985056,-0.21577989,-0.38167036
1732437744973,2024-11-24T08:42:24.973Z,40444,-0.18860589,-0.18339348,-0.43494737
1732437744976,2024-11-24T08:42:24.976Z,40447,-0.18860589,-0.18339348,-0.43494737
1732437744984,2024-11-24T08:42:24.984Z,40455,-0.09376705,-0.069993846,-0.45416418
1732437744987,2024-11-24T08:42:24.987Z,40458,-0.09376705,-0.069993846,-0.45416418
1732437744994,2024-11-24T08:42:24.994Z,40465,-0.03185422,-0.0889677,-0.31460658
1732437744997,2024-11-24T08:42:24.997Z,40468,-0.03185422,-0.0889677,-0.31460658
1732437745006,2024-11-24T08:42:25.006Z,40477,0.0012681102,-0.21720462,-0.32425824
1732437745009,2024-11-24T08:42:25.009Z,40480,0.0012681102,-0.21720462,-0.32425824
1732437745020,2024-11-24T08:42:25.020Z,40491,0.040927064,-0.27056375,-0.37148213
1732437745022,2024-11-24T08:42:25.022Z,40493,0.040927064,-0.27056375,-0.37148213
1732437745031,2024-11-24T08:42:25.031Z,40502,-0.066950895,-0.0882771,-0.19172864
1732437745034,2024-11-24T08:42:25.034Z,40505,-0.066950895,-0.0882771,-0.19172864
1732437745044,2024-11-24T08:42:25.044Z,40515,0.041753817,-0.13789935,-0.18300085
1732437745047,2024-11-24T08:42:25.047Z,40518,0.041753817,-0.13789935,-0.18300085
1732437745055,2024-11-24T08:42:25.055Z,40526,0.04464944,-0.22890255,-0.2349752
1732437745058,2024-11-24T08:42:25.058Z,40529,0.04464944,-0.22890255,-0.2349752
1732437745066,2024-11-24T08:42:25.066Z,40537,-0.002540791,-0.28319323,-0.35981712
1732437745069,2024-11-24T08:42:25.069Z,40540,-0.002540791,-0.28319323,-0.35981712
1732437745078,2024-11-24T08:42:25.078Z,40549,-0.08523193,-0.26077083,-0.35618326
1732437745081,2024-11-24T08:42:25.081Z,40552,-0.08523193,-0.26077083,-0.35618326
1732437745089,2024-11-24T08:42:25.089Z,40560,-0.13876224,-0.24145241,-0.25196177
1732437745092,2024-11-24T08:42:25.092Z,40563,-0.13876224,-0.24145241,-0.25196177
1732437745100,2024-11-24T08:42:25.100Z,40571,0.01523913,-0.28685176,-0.27204114
1732437745103,2024-11-24T08:42:25.103Z,40574,0.01523913,-0.28685176,-0.27204114
1732437745114,2024-11-24T08:42:25.114Z,40585,0.039247815,-0.29329917,-0.2997396
1732437745117,2024-11-24T08:42:25.117Z,40588,0.039247815,-0.29329917,-0.2997396
1732437745126,2024-11-24T08:42:25.126Z,40597,-0.0062627043,-0.27109906,-0.3701128
1732437745130,2024-11-24T08:42:25.130Z,40601,-0.0062627043,-0.27109906,-0.3701128
1732437745140,2024-11-24T08:42:25.140Z,40611,-0.04512194,-0.25600684,-0.4421793
1732437745142,2024-11-24T08:42:25.142Z,40613,-0.04512194,-0.25600684,-0.4421793
1732437745151,2024-11-24T08:42:25.151Z,40622,-0.13043109,-0.32273477,-0.36654624
1732437745154,2024-11-24T08:42:25.154Z,40625,-0.13043109,-0.32273477,-0.36654624
1732437745167,2024-11-24T08:42:25.167Z,40638,-0.095768526,-0.32008326,-0.32992327
1732437745174,2024-11-24T08:42:25.174Z,40645,-0.095768526,-0.32008326,-0.32992327
1732437745194,2024-11-24T08:42:25.194Z,40665,-0.0058816876,-0.22134547,-0.35107824
1732437745200,2024-11-24T08:42:25.200Z,40671,-0.0058816876,-0.22134547,-0.35107824
1732437745217,2024-11-24T08:42:25.217Z,40688,0.043153845,-0.113642365,-0.34074336
1732437745219,2024-11-24T08:42:25.219Z,40690,0.043153845,-0.113642365,-0.34074336
1732437745231,2024-11-24T08:42:25.231Z,40702,0.004128822,-0.047889538,-0.3779138
1732437745235,2024-11-24T08:42:25.235Z,40706,0.004128822,-0.047889538,-0.3779138
1732437745246,2024-11-24T08:42:25.246Z,40717,-0.018028924,-0.11009866,-0.36760196
1732437745250,2024-11-24T08:42:25.250Z,40721,-0.018028924,-0.11009866,-0.36760196
1732437745261,2024-11-24T08:42:25.261Z,40732,-0.010674954,-0.11163401,-0.3693095
1732437745265,2024-11-24T08:42:25.265Z,40736,-0.010674954,-0.11163401,-0.3693095
1732437745274,2024-11-24T08:42:25.274Z,40745,-0.045846853,-0.15433869,-0.35551825
1732437745276,2024-11-24T08:42:25.276Z,40747,-0.045846853,-0.15433869,-0.35551825
1732437745285,2024-11-24T08:42:25.285Z,40756,-0.21106046,-0.3165704,-0.4129296
1732437745288,2024-11-24T08:42:25.288Z,40759,-0.21106046,-0.3165704,-0.4129296
1732437745297,2024-11-24T08:42:25.297Z,40768,-0.17511882,-0.29746082,-0.39778608
1732437745300,2024-11-24T08:42:25.300Z,40771,-0.17511882,-0.29746082,-0.39778608
1732437745308,2024-11-24T08:42:25.308Z,40779,-0.1083783,-0.26450023,-0.37075573
1732437745310,2024-11-24T08:42:25.310Z,40781,-0.1083783,-0.26450023,-0.37075573
1732437745318,2024-11-24T08:42:25.318Z,40789,-0.05822403,-0.2782265,-0.35354057
1732437745321,2024-11-24T08:42:25.321Z,40792,-0.05822403,-0.2782265,-0.35354057
1732437745329,2024-11-24T08:42:25.329Z,40800,-0.10265559,-0.3053307,-0.42240226
1732437745331,2024-11-24T08:42:25.331Z,40802,-0.10265559,-0.3053307,-0.42240226
1732437745343,2024-11-24T08:42:25.343Z,40814,-0.16689235,-0.23343483,-0.4391954
1732437745349,2024-11-24T08:42:25.349Z,40820,-0.16689235,-0.23343483,-0.4391954
1732437745364,2024-11-24T08:42:25.364Z,40835,-0.14029782,-0.08404133,-0.33422014
1732437745367,2024-11-24T08:42:25.367Z,40838,-0.14029782,-0.08404133,-0.33422014
1732437745376,2024-11-24T08:42:25.376Z,40847,-0.12002067,-0.108647384,-0.32596183
1732437745378,2024-11-24T08:42:25.378Z,40849,-0.12002067,-0.108647384,-0.32596183
1732437745390,2024-11-24T08:42:25.390Z,40861,-0.09219047,-0.15727708,-0.3733444
1732437745393,2024-11-24T08:42:25.393Z,40864,-0.09219047,-0.15727708,-0.3733444
1732437745403,2024-11-24T08:42:25.403Z,40874,0.007845532,-0.0863427,-0.3804434
1732437745406,2024-11-24T08:42:25.406Z,40877,0.007845532,-0.0863427,-0.3804434
1732437745416,2024-11-24T08:42:25.416Z,40887,0.035728812,-0.056834772,-0.26806626
1732437745418,2024-11-24T08:42:25.418Z,40889,0.035728812,-0.056834772,-0.26806626
1732437745426,2024-11-24T08:42:25.426Z,40897,-0.0527281,-0.033592474,-0.19485436
1732437745428,2024-11-24T08:42:25.428Z,40899,-0.0527281,-0.033592474,-0.19485436
1732437745437,2024-11-24T08:42:25.437Z,40908,-0.13457292,-0.08553525,-0.27325997
1732437745440,2024-11-24T08:42:25.440Z,40911,-0.13457292,-0.08553525,-0.27325997
1732437745450,2024-11-24T08:42:25.450Z,40921,-0.18017218,-0.26038897,-0.34696746
1732437745453,2024-11-24T08:42:25.453Z,40924,-0.18017218,-0.26038897,-0.34696746
1732437745462,2024-11-24T08:42:25.462Z,40933,-0.16542868,-0.16836983,-0.32044783
1732437745466,2024-11-24T08:42:25.466Z,40937,-0.16542868,-0.16836983,-0.32044783
1732437745487,2024-11-24T08:42:25.487Z,40958,-0.09373289,-0.15815693,-0.2604988
1732437745493,2024-11-24T08:42:25.493Z,40964,-0.09373289,-0.15815693,-0.2604988
1732437745514,2024-11-24T08:42:25.514Z,40985,-0.014400709,-0.17574213,-0.19267033
1732437745520,2024-11-24T08:42:25.520Z,40991,-0.014400709,-0.17574213,-0.19267033
1732437745538,2024-11-24T08:42:25.538Z,41009,-0.007457198,-0.23698919,-0.26323047
1732437745542,2024-11-24T08:42:25.542Z,41013,-0.007457198,-0.23698919,-0.26323047
1732437745556,2024-11-24T08:42:25.556Z,41027,-0.047237787,-0.2120467,-0.2678039
1732437745560,2024-11-24T08:42:25.560Z,41031,-0.047237787,-0.2120467,-0.2678039
1732437745578,2024-11-24T08:42:25.578Z,41049,-0.05754089,-0.15918027,-0.30402103
1732437745586,2024-11-24T08:42:25.586Z,41057,-0.05754089,-0.15918027,-0.30402103
1732437745609,2024-11-24T08:42:25.609Z,41080,-0.02333014,-0.09846108,-0.38110003
1732437745615,2024-11-24T08:42:25.615Z,41086,-0.02333014,-0.09846108,-0.38110003
1732437745631,2024-11-24T08:42:25.631Z,41102,-0.018005585,-0.09642928,-0.39693156
1732437745634,2024-11-24T08:42:25.634Z,41105,-0.018005585,-0.09642928,-0.39693156
1732437745648,2024-11-24T08:42:25.648Z,41119,-0.062478714,-0.18137802,-0.36846927
1732437745654,2024-11-24T08:42:25.654Z,41125,-0.062478714,-0.18137802,-0.36846927
1732437745675,2024-11-24T08:42:25.675Z,41146,-0.022096237,-0.18054476,-0.35330087
1732437745681,2024-11-24T08:42:25.681Z,41152,-0.022096237,-0.18054476,-0.35330087
1732437745696,2024-11-24T08:42:25.696Z,41167,-0.07668483,-0.1517553,-0.37640715
1732437745700,2024-11-24T08:42:25.700Z,41171,-0.07668483,-0.1517553,-0.37640715
1732437745713,2024-11-24T08:42:25.713Z,41184,-0.028791158,-0.099196315,-0.39915416
1732437745717,2024-11-24T08:42:25.717Z,41188,-0.028791158,-0.099196315,-0.39915416
1732437745728,2024-11-24T08:42:25.728Z,41199,-6.342982E-4,-0.103805274,-0.35307717
1732437745732,2024-11-24T08:42:25.732Z,41203,-6.342982E-4,-0.103805274,-0.35307717
1732437745744,2024-11-24T08:42:25.744Z,41215,-0.04041,-0.10636483,-0.25974822
1732437745748,2024-11-24T08:42:25.748Z,41219,-0.04041,-0.10636483,-0.25974822
1732437745761,2024-11-24T08:42:25.761Z,41232,-0.04625038,-0.24778946,-0.2996051
1732437745767,2024-11-24T08:42:25.767Z,41238,-0.04625038,-0.24778946,-0.2996051
1732437745789,2024-11-24T08:42:25.789Z,41260,-0.09232158,-0.20322336,-0.25837457
1732437745796,2024-11-24T08:42:25.796Z,41267,-0.09232158,-0.20322336,-0.25837457
1732437745819,2024-11-24T08:42:25.819Z,41290,-0.08600622,-0.22902001,-0.2514405
1732437745827,2024-11-24T08:42:25.827Z,41298,-0.08600622,-0.22902001,-0.2514405
1732437745850,2024-11-24T08:42:25.850Z,41321,0.052004334,-0.14251502,-0.28585264
1732437745856,2024-11-24T08:42:25.856Z,41327,0.052004334,-0.14251502,-0.28585264
1732437745873,2024-11-24T08:42:25.873Z,41344,0.04345344,-0.1127789,-0.31283796
1732437745879,2024-11-24T08:42:25.879Z,41350,0.04345344,-0.1127789,-0.31283796
1732437745894,2024-11-24T08:42:25.894Z,41365,-0.07344444,-0.124693885,-0.31514886
1732437745898,2024-11-24T08:42:25.898Z,41369,-0.07344444,-0.124693885,-0.31514886
1732437745915,2024-11-24T08:42:25.915Z,41386,-0.10309851,-0.16582514,-0.41534245
1732437745924,2024-11-24T08:42:25.924Z,41395,-0.10309851,-0.16582514,-0.41534245
1732437745946,2024-11-24T08:42:25.946Z,41417,-0.10940949,-0.17621525,-0.45247582
1732437745952,2024-11-24T08:42:25.952Z,41423,-0.10940949,-0.17621525,-0.45247582
1732437745974,2024-11-24T08:42:25.974Z,41445,-0.13406186,-0.11669697,-0.47930944
1732437745981,2024-11-24T08:42:25.981Z,41452,-0.13406186,-0.11669697,-0.47930944
1732437745997,2024-11-24T08:42:25.997Z,41468,-0.07028797,-0.023895223,-0.515095
1732437746002,2024-11-24T08:42:26.002Z,41473,-0.07028797,-0.023895223,-0.515095
1732437746017,2024-11-24T08:42:26.017Z,41488,-0.056185573,-0.0435626,-0.47818676
1732437746020,2024-11-24T08:42:26.020Z,41491,-0.056185573,-0.0435626,-0.47818676
1732437746032,2024-11-24T08:42:26.032Z,41503,-0.038046442,-0.13735875,-0.36211306
1732437746036,2024-11-24T08:42:26.036Z,41507,-0.038046442,-0.13735875,-0.36211306
1732437746048,2024-11-24T08:42:26.048Z,41519,-0.028099023,-0.13687411,-0.42739967
1732437746052,2024-11-24T08:42:26.052Z,41523,-0.028099023,-0.13687411,-0.42739967
1732437746064,2024-11-24T08:42:26.064Z,41535,-0.072180636,-0.10028559,-0.41441405
1732437746067,2024-11-24T08:42:26.067Z,41538,-0.072180636,-0.10028559,-0.41441405
1732437746078,2024-11-24T08:42:26.078Z,41549,-0.033926226,-0.10397186,-0.36141437
1732437746081,2024-11-24T08:42:26.081Z,41552,-0.033926226,-0.10397186,-0.36141437
1732437746096,2024-11-24T08:42:26.096Z,41567,-0.08817355,-0.10524546,-0.31127313
1732437746103,2024-11-24T08:42:26.103Z,41574,-0.08817355,-0.10524546,-0.31127313
1732437746125,2024-11-24T08:42:26.125Z,41596,-0.08633701,-0.14312841,-0.36755845
1732437746131,2024-11-24T08:42:26.131Z,41602,-0.08633701,-0.14312841,-0.36755845
1732437746153,2024-11-24T08:42:26.153Z,41624,-0.104279354,-0.17348963,-0.36606455
1732437746158,2024-11-24T08:42:26.158Z,41629,-0.104279354,-0.17348963,-0.36606455
1732437746167,2024-11-24T08:42:26.167Z,41638,-0.033869628,-0.2528602,-0.31359872
1732437746169,2024-11-24T08:42:26.169Z,41640,-0.033869628,-0.2528602,-0.31359872
1732437746176,2024-11-24T08:42:26.176Z,41647,-0.097977936,-0.21327338,-0.35276464
1732437746179,2024-11-24T08:42:26.179Z,41650,-0.097977936,-0.21327338,-0.35276464
1732437746188,2024-11-24T08:42:26.188Z,41659,-0.034841083,-0.12952477,-0.3726925
1732437746190,2024-11-24T08:42:26.190Z,41661,-0.034841083,-0.12952477,-0.3726925
1732437746199,2024-11-24T08:42:26.199Z,41670,-0.0524375,-0.035775732,-0.3455385
1732437746203,2024-11-24T08:42:26.203Z,41674,-0.0524375,-0.035775732,-0.3455385
1732437746213,2024-11-24T08:42:26.213Z,41684,0.040888067,-0.060065147,-0.34538993
1732437746219,2024-11-24T08:42:26.219Z,41690,0.040888067,-0.060065147,-0.34538993
1732437746242,2024-11-24T08:42:26.242Z,41713,0.06171921,-0.036090523,-0.3357239
1732437746249,2024-11-24T08:42:26.249Z,41720,0.06171921,-0.036090523,-0.3357239
1732437746270,2024-11-24T08:42:26.270Z,41741,-0.013348927,-0.11647626,-0.4239054
1732437746276,2024-11-24T08:42:26.276Z,41747,-0.013348927,-0.11647626,-0.4239054
1732437746296,2024-11-24T08:42:26.296Z,41767,0.031490535,-0.105195284,-0.36226454
1732437746302,2024-11-24T08:42:26.302Z,41773,0.031490535,-0.105195284,-0.36226454
1732437746319,2024-11-24T08:42:26.319Z,41790,-0.02428256,-0.12425268,-0.338302
1732437746322,2024-11-24T08:42:26.322Z,41793,-0.02428256,-0.12425268,-0.338302
1732437746335,2024-11-24T08:42:26.335Z,41806,-0.06008924,-0.12590234,-0.45296487
1732437746339,2024-11-24T08:42:26.339Z,41810,-0.06008924,-0.12590234,-0.45296487
1732437746350,2024-11-24T08:42:26.350Z,41821,-0.13406293,-0.10369655,-0.4112075
1732437746353,2024-11-24T08:42:26.353Z,41824,-0.13406293,-0.10369655,-0.4112075
1732437746364,2024-11-24T08:42:26.364Z,41835,-0.08674876,-0.15760753,-0.3453226
1732437746368,2024-11-24T08:42:26.368Z,41839,-0.08674876,-0.15760753,-0.3453226
1732437746378,2024-11-24T08:42:26.378Z,41849,-0.0173408,-0.3250603,-0.3014095
1732437746381,2024-11-24T08:42:26.381Z,41852,-0.0173408,-0.3250603,-0.3014095
1732437746391,2024-11-24T08:42:26.391Z,41862,-0.008635986,-0.33425707,-0.33591613
1732437746393,2024-11-24T08:42:26.393Z,41864,-0.008635986,-0.33425707,-0.33591613
1732437746402,2024-11-24T08:42:26.402Z,41873,0.026059082,-0.28716546,-0.34755564
1732437746405,2024-11-24T08:42:26.405Z,41876,0.026059082,-0.28716546,-0.34755564
1732437746412,2024-11-24T08:42:26.412Z,41883,-0.02532367,-0.057359815,-0.3201281
1732437746416,2024-11-24T08:42:26.416Z,41887,-0.02532367,-0.057359815,-0.3201281
1732437746424,2024-11-24T08:42:26.424Z,41895,0.007604674,-0.052443746,-0.31016222
1732437746426,2024-11-24T08:42:26.426Z,41897,0.007604674,-0.052443746,-0.31016222
1732437746433,2024-11-24T08:42:26.433Z,41904,0.06001718,-0.08020267,-0.3479528
1732437746436,2024-11-24T08:42:26.436Z,41907,0.06001718,-0.08020267,-0.3479528
1732437746443,2024-11-24T08:42:26.443Z,41914,0.067115635,-0.113143586,-0.36612996
1732437746445,2024-11-24T08:42:26.445Z,41916,0.067115635,-0.113143586,-0.36612996
1732437746454,2024-11-24T08:42:26.454Z,41925,0.008696766,-0.12847814,-0.37278077
1732437746456,2024-11-24T08:42:26.456Z,41927,0.008696766,-0.12847814,-0.37278077
1732437746464,2024-11-24T08:42:26.464Z,41935,-0.041680735,-0.13881971,-0.39109454
1732437746468,2024-11-24T08:42:26.468Z,41939,-0.041680735,-0.13881971,-0.39109454
1732437746477,2024-11-24T08:42:26.477Z,41948,-0.08104869,0.030963866,-0.38239694
1732437746479,2024-11-24T08:42:26.479Z,41950,-0.08104869,0.030963866,-0.38239694
1732437746487,2024-11-24T08:42:26.487Z,41958,-0.07606759,0.012206485,-0.34497067
1732437746490,2024-11-24T08:42:26.490Z,41961,-0.07606759,0.012206485,-0.34497067
1732437746499,2024-11-24T08:42:26.499Z,41970,-0.04845039,-0.09182732,-0.2942758
1732437746502,2024-11-24T08:42:26.502Z,41973,-0.04845039,-0.09182732,-0.2942758
1732437746511,2024-11-24T08:42:26.511Z,41982,-0.043112393,-0.14182816,-0.27158004
1732437746515,2024-11-24T08:42:26.515Z,41986,-0.043112393,-0.14182816,-0.27158004
1732437746524,2024-11-24T08:42:26.524Z,41995,-0.023958895,-0.18082502,-0.22523633
1732437746527,2024-11-24T08:42:26.527Z,41998,-0.023958895,-0.18082502,-0.22523633
1732437746537,2024-11-24T08:42:26.537Z,42008,-0.072812125,-0.14694451,-0.31555873
1732437746539,2024-11-24T08:42:26.539Z,42010,-0.072812125,-0.14694451,-0.31555873
1732437746548,2024-11-24T08:42:26.548Z,42019,-0.0724808,-0.12547182,-0.42205718
1732437746551,2024-11-24T08:42:26.551Z,42022,-0.0724808,-0.12547182,-0.42205718
1732437746560,2024-11-24T08:42:26.560Z,42031,-0.124138035,-0.159739,-0.40472105
1732437746563,2024-11-24T08:42:26.563Z,42034,-0.124138035,-0.159739,-0.40472105
1732437746573,2024-11-24T08:42:26.573Z,42044,0.037508857,-0.20913087,-0.3592957
1732437746576,2024-11-24T08:42:26.576Z,42047,0.037508857,-0.20913087,-0.3592957
1732437746583,2024-11-24T08:42:26.583Z,42054,0.029402092,-0.108544104,-0.43084264
1732437746586,2024-11-24T08:42:26.586Z,42057,0.029402092,-0.108544104,-0.43084264
1732437746595,2024-11-24T08:42:26.595Z,42066,0.013867621,-0.063966386,-0.45451862
1732437746599,2024-11-24T08:42:26.599Z,42070,0.013867621,-0.063966386,-0.45451862
1732437746609,2024-11-24T08:42:26.609Z,42080,0.0120332865,-0.090791926,-0.4163495
1732437746611,2024-11-24T08:42:26.611Z,42082,0.0120332865,-0.090791926,-0.4163495
1732437746620,2024-11-24T08:42:26.620Z,42091,-0.005104727,-0.16754347,-0.37201884
1732437746622,2024-11-24T08:42:26.622Z,42093,-0.005104727,-0.16754347,-0.37201884
1732437746629,2024-11-24T08:42:26.629Z,42100,0.026151806,-0.20326382,-0.38525787
1732437746632,2024-11-24T08:42:26.632Z,42103,0.026151806,-0.20326382,-0.38525787
1732437746641,2024-11-24T08:42:26.641Z,42112,0.05120435,-0.22721992,-0.32008317
1732437746644,2024-11-24T08:42:26.644Z,42115,0.05120435,-0.22721992,-0.32008317
1732437746655,2024-11-24T08:42:26.655Z,42126,0.0785623,-0.20939018,-0.37068212
1732437746658,2024-11-24T08:42:26.658Z,42129,0.0785623,-0.20939018,-0.37068212
1732437746666,2024-11-24T08:42:26.666Z,42137,0.061958928,-0.100486115,-0.29487583
1732437746670,2024-11-24T08:42:26.670Z,42141,0.061958928,-0.100486115,-0.29487583
1732437746683,2024-11-24T08:42:26.683Z,42154,0.0169256,-0.15173055,-0.26670712
1732437746687,2024-11-24T08:42:26.687Z,42158,0.0169256,-0.15173055,-0.26670712
1732437746698,2024-11-24T08:42:26.698Z,42169,0.023510583,-0.1689364,-0.29626623
1732437746701,2024-11-24T08:42:26.701Z,42172,0.023510583,-0.1689364,-0.29626623
1732437746710,2024-11-24T08:42:26.710Z,42181,0.09438562,-0.14003369,-0.3055382
1732437746712,2024-11-24T08:42:26.712Z,42183,0.09438562,-0.14003369,-0.3055382
1732437746721,2024-11-24T08:42:26.721Z,42192,0.026094869,-0.09874197,-0.3602546
1732437746723,2024-11-24T08:42:26.723Z,42194,0.026094869,-0.09874197,-0.3602546
1732437746730,2024-11-24T08:42:26.730Z,42201,-0.00328442,-0.037476204,-0.33328664
1732437746733,2024-11-24T08:42:26.733Z,42204,-0.00328442,-0.037476204,-0.33328664
1732437746742,2024-11-24T08:42:26.742Z,42213,0.03054964,-0.14809072,-0.2705673
1732437746745,2024-11-24T08:42:26.745Z,42216,0.03054964,-0.14809072,-0.2705673
1732437746754,2024-11-24T08:42:26.754Z,42225,0.03820955,-0.16511582,-0.30220458
1732437746757,2024-11-24T08:42:26.757Z,42228,0.03820955,-0.16511582,-0.30220458
1732437746766,2024-11-24T08:42:26.766Z,42237,0.009176537,-0.12425462,-0.38816294
1732437746769,2024-11-24T08:42:26.769Z,42240,0.009176537,-0.12425462,-0.38816294
1732437746776,2024-11-24T08:42:26.776Z,42247,-2.6101287E-4,-0.121198416,-0.3648928
1732437746779,2024-11-24T08:42:26.779Z,42250,-2.6101287E-4,-0.121198416,-0.3648928
1732437746787,2024-11-24T08:42:26.787Z,42258,0.01677066,-0.087919764,-0.3534522
1732437746790,2024-11-24T08:42:26.790Z,42261,0.01677066,-0.087919764,-0.3534522
1732437746799,2024-11-24T08:42:26.799Z,42270,-0.026053004,-0.11333195,-0.41546956
1732437746802,2024-11-24T08:42:26.802Z,42273,-0.026053004,-0.11333195,-0.41546956
1732437746810,2024-11-24T08:42:26.810Z,42281,0.03303884,-0.11349163,-0.41714212
1732437746812,2024-11-24T08:42:26.812Z,42283,0.03303884,-0.11349163,-0.41714212
1732437746821,2024-11-24T08:42:26.821Z,42292,0.05056305,-0.14216085,-0.41694015
1732437746824,2024-11-24T08:42:26.824Z,42295,0.05056305,-0.14216085,-0.41694015
1732437746831,2024-11-24T08:42:26.831Z,42302,0.082288995,-0.1563681,-0.43266043
1732437746834,2024-11-24T08:42:26.834Z,42305,0.082288995,-0.1563681,-0.43266043
1732437746842,2024-11-24T08:42:26.842Z,42313,0.07580574,-0.15472996,-0.4449826
1732437746844,2024-11-24T08:42:26.844Z,42315,0.07580574,-0.15472996,-0.4449826
1732437746852,2024-11-24T08:42:26.852Z,42323,0.08085583,-0.12969437,-0.43334356
1732437746855,2024-11-24T08:42:26.855Z,42326,0.08085583,-0.12969437,-0.43334356
1732437746865,2024-11-24T08:42:26.865Z,42336,0.029033013,-0.13501021,-0.47014827
1732437746867,2024-11-24T08:42:26.867Z,42338,0.029033013,-0.13501021,-0.47014827
1732437746876,2024-11-24T08:42:26.876Z,42347,0.024718618,-0.123087354,-0.47859943
1732437746878,2024-11-24T08:42:26.878Z,42349,0.024718618,-0.123087354,-0.47859943
1732437746888,2024-11-24T08:42:26.888Z,42359,0.027666124,-0.12455745,-0.4466161
1732437746890,2024-11-24T08:42:26.890Z,42361,0.027666124,-0.12455745,-0.4466161
1732437746898,2024-11-24T08:42:26.898Z,42369,0.103637375,-0.15157057,-0.31824946
1732437746902,2024-11-24T08:42:26.902Z,42373,0.103637375,-0.15157057,-0.31824946
1732437746909,2024-11-24T08:42:26.909Z,42380,0.065388344,-0.14839491,-0.33860877
1732437746912,2024-11-24T08:42:26.912Z,42383,0.065388344,-0.14839491,-0.33860877
1732437746921,2024-11-24T08:42:26.921Z,42392,0.051987268,-0.12658997,-0.34702247
1732437746924,2024-11-24T08:42:26.924Z,42395,0.051987268,-0.12658997,-0.34702247
1732437746932,2024-11-24T08:42:26.932Z,42403,-0.038879298,-0.1104365,-0.326246
1732437746935,2024-11-24T08:42:26.935Z,42406,-0.038879298,-0.1104365,-0.326246
1732437746944,2024-11-24T08:42:26.944Z,42415,-0.005104192,-0.11216581,-0.32688093
1732437746946,2024-11-24T08:42:26.946Z,42417,-0.005104192,-0.11216581,-0.32688093
1732437746956,2024-11-24T08:42:26.956Z,42427,-0.021024665,-0.12730683,-0.33627018
1732437746959,2024-11-24T08:42:26.959Z,42430,-0.021024665,-0.12730683,-0.33627018
1732437746967,2024-11-24T08:42:26.967Z,42438,0.06346661,-0.13355213,-0.2568624
1732437746970,2024-11-24T08:42:26.970Z,42441,0.06346661,-0.13355213,-0.2568624
1732437746977,2024-11-24T08:42:26.977Z,42448,0.04179607,-0.115312405,-0.263961
1732437746979,2024-11-24T08:42:26.979Z,42450,0.04179607,-0.115312405,-0.263961
1732437746987,2024-11-24T08:42:26.987Z,42458,0.013403142,-0.0987128,-0.2830618
1732437746989,2024-11-24T08:42:26.989Z,42460,0.013403142,-0.0987128,-0.2830618
1732437747005,2024-11-24T08:42:27.005Z,42476,-0.014725638,-0.07429195,-0.34085354
1732437747007,2024-11-24T08:42:27.007Z,42478,-0.014725638,-0.07429195,-0.34085354
1732437747014,2024-11-24T08:42:27.014Z,42485,0.008257522,-0.08420558,-0.37728482
1732437747017,2024-11-24T08:42:27.017Z,42488,0.008257522,-0.08420558,-0.37728482
1732437747027,2024-11-24T08:42:27.027Z,42498,0.039610818,-0.09886091,-0.39110193
1732437747034,2024-11-24T08:42:27.034Z,42505,0.039610818,-0.09886091,-0.39110193
1732437747056,2024-11-24T08:42:27.056Z,42527,0.10390605,-0.17752536,-0.32623374
1732437747062,2024-11-24T08:42:27.062Z,42533,0.10390605,-0.17752536,-0.32623374
1732437747083,2024-11-24T08:42:27.083Z,42554,0.10752687,-0.16914563,-0.34795508
1732437747089,2024-11-24T08:42:27.089Z,42560,0.10752687,-0.16914563,-0.34795508
1732437747111,2024-11-24T08:42:27.111Z,42582,0.080912605,-0.16164277,-0.3936531
1732437747117,2024-11-24T08:42:27.117Z,42588,0.080912605,-0.16164277,-0.3936531
1732437747137,2024-11-24T08:42:27.137Z,42608,0.058737062,-0.15509863,-0.45415938
1732437747143,2024-11-24T08:42:27.143Z,42614,0.058737062,-0.15509863,-0.45415938
1732437747163,2024-11-24T08:42:27.163Z,42634,0.06118296,-0.1677646,-0.43019676
1732437747168,2024-11-24T08:42:27.168Z,42639,0.06118296,-0.1677646,-0.43019676
1732437747181,2024-11-24T08:42:27.181Z,42652,0.08990201,-0.17443891,-0.38989687
1732437747185,2024-11-24T08:42:27.185Z,42656,0.08990201,-0.17443891,-0.38989687
1732437747198,2024-11-24T08:42:27.198Z,42669,0.088348456,-0.14658123,-0.35325858
1732437747202,2024-11-24T08:42:27.202Z,42673,0.088348456,-0.14658123,-0.35325858
1732437747213,2024-11-24T08:42:27.213Z,42684,0.048781715,-0.14378619,-0.3489452
1732437747216,2024-11-24T08:42:27.216Z,42687,0.048781715,-0.14378619,-0.3489452
1732437747229,2024-11-24T08:42:27.229Z,42700,0.036176562,-0.14043848,-0.32848537
1732437747234,2024-11-24T08:42:27.234Z,42705,0.036176562,-0.14043848,-0.32848537
1732437747250,2024-11-24T08:42:27.250Z,42721,0.10079845,-0.14892617,-0.3425549
1732437747255,2024-11-24T08:42:27.255Z,42726,0.10079845,-0.14892617,-0.3425549
1732437747264,2024-11-24T08:42:27.264Z,42735,0.055254377,-0.14092575,-0.36012673
1732437747267,2024-11-24T08:42:27.267Z,42738,0.055254377,-0.14092575,-0.36012673
1732437747281,2024-11-24T08:42:27.281Z,42752,0.028215865,-0.1295799,-0.32210204
1732437747284,2024-11-24T08:42:27.284Z,42755,0.028215865,-0.1295799,-0.32210204
1732437747293,2024-11-24T08:42:27.293Z,42764,0.04387941,-0.11131047,-0.30545792
1732437747295,2024-11-24T08:42:27.295Z,42766,0.04387941,-0.11131047,-0.30545792
1732437747303,2024-11-24T08:42:27.303Z,42774,0.07182325,-0.15374728,-0.27909082
1732437747305,2024-11-24T08:42:27.305Z,42776,0.07182325,-0.15374728,-0.27909082
1732437747312,2024-11-24T08:42:27.312Z,42783,0.087448254,-0.1405637,-0.27811426
1732437747315,2024-11-24T08:42:27.315Z,42786,0.087448254,-0.1405637,-0.27811426
1732437747323,2024-11-24T08:42:27.323Z,42794,0.020140804,-0.09492184,-0.30817273
1732437747325,2024-11-24T08:42:27.325Z,42796,0.020140804,-0.09492184,-0.30817273
1732437747332,2024-11-24T08:42:27.332Z,42803,0.057657756,-0.11546129,-0.31452042
1732437747334,2024-11-24T08:42:27.334Z,42805,0.057657756,-0.11546129,-0.31452042
1732437747341,2024-11-24T08:42:27.341Z,42812,0.079115316,-0.13104042,-0.30761108
1732437747343,2024-11-24T08:42:27.343Z,42814,0.079115316,-0.13104042,-0.30761108
1732437747353,2024-11-24T08:42:27.353Z,42824,0.07979953,-0.1473723,-0.2687849
1732437747360,2024-11-24T08:42:27.360Z,42831,0.07979953,-0.1473723,-0.2687849
1732437747384,2024-11-24T08:42:27.384Z,42855,0.06423586,-0.13658938,-0.28634143
1732437747391,2024-11-24T08:42:27.391Z,42862,0.06423586,-0.13658938,-0.28634143
1732437747414,2024-11-24T08:42:27.414Z,42885,0.057446778,-0.12782405,-0.3088569
1732437747420,2024-11-24T08:42:27.420Z,42891,0.057446778,-0.12782405,-0.3088569
1732437747439,2024-11-24T08:42:27.439Z,42910,0.05758319,-0.13047512,-0.32809424
1732437747444,2024-11-24T08:42:27.444Z,42915,0.05758319,-0.13047512,-0.32809424
1732437747456,2024-11-24T08:42:27.456Z,42927,0.072856456,-0.15431209,-0.31959653
1732437747460,2024-11-24T08:42:27.460Z,42931,0.072856456,-0.15431209,-0.31959653
1732437747473,2024-11-24T08:42:27.473Z,42944,0.076930456,-0.16888428,-0.3233377
1732437747476,2024-11-24T08:42:27.476Z,42947,0.076930456,-0.16888428,-0.3233377
1732437747488,2024-11-24T08:42:27.488Z,42959,0.09168731,-0.1754431,-0.33752525
1732437747491,2024-11-24T08:42:27.491Z,42962,0.09168731,-0.1754431,-0.33752525
1732437747502,2024-11-24T08:42:27.502Z,42973,0.057173267,-0.1767186,-0.34858564
1732437747505,2024-11-24T08:42:27.505Z,42976,0.057173267,-0.1767186,-0.34858564
1732437747514,2024-11-24T08:42:27.514Z,42985,0.06433014,-0.15220386,-0.38377327
1732437747517,2024-11-24T08:42:27.517Z,42988,0.06433014,-0.15220386,-0.38377327
1732437747526,2024-11-24T08:42:27.526Z,42997,0.07251184,-0.19264407,-0.30460754
1732437747528,2024-11-24T08:42:27.528Z,42999,0.07251184,-0.19264407,-0.30460754
1732437747540,2024-11-24T08:42:27.540Z,43011,0.07349866,-0.22236575,-0.32650697
1732437747545,2024-11-24T08:42:27.545Z,43016,0.07349866,-0.22236575,-0.32650697
1732437747562,2024-11-24T08:42:27.562Z,43033,0.07831225,-0.18804008,-0.32545957
1732437747567,2024-11-24T08:42:27.567Z,43038,0.07831225,-0.18804008,-0.32545957
1732437747579,2024-11-24T08:42:27.579Z,43050,0.04628848,-0.19043387,-0.4639813
1732437747582,2024-11-24T08:42:27.582Z,43053,0.04628848,-0.19043387,-0.4639813
1732437747594,2024-11-24T08:42:27.594Z,43065,0.04057751,-0.12580898,-0.43628854
1732437747596,2024-11-24T08:42:27.596Z,43067,0.04057751,-0.12580898,-0.43628854
1732437747605,2024-11-24T08:42:27.605Z,43076,0.004689431,-0.07646102,-0.3749817
1732437747608,2024-11-24T08:42:27.608Z,43079,0.004689431,-0.07646102,-0.3749817
1732437747616,2024-11-24T08:42:27.616Z,43087,0.06600465,-0.13818079,-0.34907323
1732437747619,2024-11-24T08:42:27.619Z,43090,0.06600465,-0.13818079,-0.34907323
1732437747627,2024-11-24T08:42:27.627Z,43098,0.0454636,-0.15331174,-0.29751104
1732437747630,2024-11-24T08:42:27.630Z,43101,0.0454636,-0.15331174,-0.29751104
1732437747639,2024-11-24T08:42:27.639Z,43110,-0.009759586,-0.12144621,-0.2849852
1732437747642,2024-11-24T08:42:27.642Z,43113,-0.009759586,-0.12144621,-0.2849852
1732437747649,2024-11-24T08:42:27.649Z,43120,0.020948958,-0.12953687,-0.32445395
1732437747652,2024-11-24T08:42:27.652Z,43123,0.020948958,-0.12953687,-0.32445395
1732437747661,2024-11-24T08:42:27.661Z,43132,0.03137537,-0.10860352,-0.3251161
1732437747663,2024-11-24T08:42:27.663Z,43134,0.03137537,-0.10860352,-0.3251161
1732437747670,2024-11-24T08:42:27.670Z,43141,0.115248024,-0.16498795,-0.3732931
1732437747673,2024-11-24T08:42:27.673Z,43144,0.115248024,-0.16498795,-0.3732931
1732437747680,2024-11-24T08:42:27.680Z,43151,0.04565525,-0.13593076,-0.4292795
1732437747683,2024-11-24T08:42:27.683Z,43154,0.04565525,-0.13593076,-0.4292795
1732437747690,2024-11-24T08:42:27.690Z,43161,0.020288717,-0.116986424,-0.36427495
1732437747692,2024-11-24T08:42:27.692Z,43163,0.020288717,-0.116986424,-0.36427495
1732437747699,2024-11-24T08:42:27.699Z,43170,0.0563232,-0.1372688,-0.36031863
1732437747701,2024-11-24T08:42:27.701Z,43172,0.0563232,-0.1372688,-0.36031863
1732437747709,2024-11-24T08:42:27.709Z,43180,-0.0023004676,-0.10043307,-0.41716245
1732437747711,2024-11-24T08:42:27.711Z,43182,-0.0023004676,-0.10043307,-0.41716245
1732437747720,2024-11-24T08:42:27.720Z,43191,-0.07585084,-0.085890785,-0.3822604
1732437747722,2024-11-24T08:42:27.722Z,43193,-0.07585084,-0.085890785,-0.3822604
1732437747729,2024-11-24T08:42:27.729Z,43200,-0.08177761,-0.07682842,-0.35958305
1732437747732,2024-11-24T08:42:27.732Z,43203,-0.08177761,-0.07682842,-0.35958305
1732437747739,2024-11-24T08:42:27.739Z,43210,0.016709516,-0.06708532,-0.3746289
1732437747741,2024-11-24T08:42:27.741Z,43212,0.016709516,-0.06708532,-0.3746289
1732437747747,2024-11-24T08:42:27.747Z,43218,-0.050933357,-0.0737338,-0.40321398
1732437747750,2024-11-24T08:42:27.750Z,43221,-0.050933357,-0.0737338,-0.40321398
1732437747757,2024-11-24T08:42:27.757Z,43228,-0.0028727946,-0.053478513,-0.32802263
1732437747759,2024-11-24T08:42:27.759Z,43230,-0.0028727946,-0.053478513,-0.32802263
1732437747770,2024-11-24T08:42:27.770Z,43241,0.0075861486,-0.075102754,-0.43492123
1732437747772,2024-11-24T08:42:27.772Z,43243,0.0075861486,-0.075102754,-0.43492123
1732437747779,2024-11-24T08:42:27.779Z,43250,0.06276834,-0.106750764,-0.4005264
1732437747781,2024-11-24T08:42:27.781Z,43252,0.06276834,-0.106750764,-0.4005264
1732437747791,2024-11-24T08:42:27.791Z,43262,0.0360312,-0.12112976,-0.26830047
1732437747797,2024-11-24T08:42:27.797Z,43268,0.0360312,-0.12112976,-0.26830047
1732437747816,2024-11-24T08:42:27.816Z,43287,0.06392641,-0.16861504,-0.2937351
1732437747819,2024-11-24T08:42:27.819Z,43290,0.06392641,-0.16861504,-0.2937351
1732437747827,2024-11-24T08:42:27.827Z,43298,0.09712399,-0.07962939,-0.42707816
1732437747829,2024-11-24T08:42:27.829Z,43300,0.09712399,-0.07962939,-0.42707816
1732437747837,2024-11-24T08:42:27.837Z,43308,-0.039398015,-0.09984189,-0.46759355
1732437747839,2024-11-24T08:42:27.839Z,43310,-0.039398015,-0.09984189,-0.46759355
1732437747858,2024-11-24T08:42:27.858Z,43329,0.052598856,-0.035792947,-0.31825113
1732437747861,2024-11-24T08:42:27.861Z,43332,0.052598856,-0.035792947,-0.31825113
1732437747869,2024-11-24T08:42:27.869Z,43340,0.09349648,-0.14351827,-0.33927688
1732437747871,2024-11-24T08:42:27.871Z,43342,0.09349648,-0.14351827,-0.33927688
1732437747879,2024-11-24T08:42:27.879Z,43350,0.034018368,-0.21770753,-0.42305407
1732437747881,2024-11-24T08:42:27.881Z,43352,0.034018368,-0.21770753,-0.42305407
1732437747904,2024-11-24T08:42:27.904Z,43375,0.05741449,-0.18789804,-0.48021218
1732437747907,2024-11-24T08:42:27.907Z,43378,0.05741449,-0.18789804,-0.48021218
1732437747915,2024-11-24T08:42:27.915Z,43386,-0.07038542,-0.061880033,-0.43172336
1732437747918,2024-11-24T08:42:27.918Z,43389,-0.07038542,-0.061880033,-0.43172336
1732437747928,2024-11-24T08:42:27.928Z,43399,-0.039334025,-0.038224477,-0.45448375
1732437747930,2024-11-24T08:42:27.930Z,43401,-0.039334025,-0.038224477,-0.45448375
1732437747948,2024-11-24T08:42:27.948Z,43419,-0.021563223,-0.07359508,-0.41804662
1732437747951,2024-11-24T08:42:27.951Z,43422,-0.021563223,-0.07359508,-0.41804662
1732437747999,2024-11-24T08:42:27.999Z,43470,0.026922107,-0.021807168,-0.37680736
1732437748003,2024-11-24T08:42:28.003Z,43474,0.026922107,-0.021807168,-0.37680736
1732437748019,2024-11-24T08:42:28.019Z,43490,0.024525607,-0.005438481,-0.31423488
1732437748026,2024-11-24T08:42:28.026Z,43497,0.024525607,-0.005438481,-0.31423488
1732437748050,2024-11-24T08:42:28.050Z,43521,-0.043169245,-0.08978522,-0.340112
1732437748056,2024-11-24T08:42:28.056Z,43527,-0.043169245,-0.08978522,-0.340112
1732437748082,2024-11-24T08:42:28.082Z,43553,-0.07900486,-0.074990384,-0.28656715
1732437748088,2024-11-24T08:42:28.088Z,43559,-0.07900486,-0.074990384,-0.28656715
1732437748109,2024-11-24T08:42:28.109Z,43580,-0.04237468,-0.08181674,-0.26385447
1732437748116,2024-11-24T08:42:28.116Z,43587,-0.04237468,-0.08181674,-0.26385447
1732437748137,2024-11-24T08:42:28.137Z,43608,0.033371016,-0.10213655,-0.23652394
1732437748143,2024-11-24T08:42:28.143Z,43614,0.033371016,-0.10213655,-0.23652394
1732437748161,2024-11-24T08:42:28.161Z,43632,0.101093,-0.17115656,-0.4266281
1732437748168,2024-11-24T08:42:28.168Z,43639,0.101093,-0.17115656,-0.4266281
1732437748189,2024-11-24T08:42:28.189Z,43660,0.08949346,-0.15778689,-0.39713594
1732437748192,2024-11-24T08:42:28.192Z,43663,0.08949346,-0.15778689,-0.39713594
1732437748205,2024-11-24T08:42:28.205Z,43676,-0.020328881,-0.019252859,-0.43802544
1732437748209,2024-11-24T08:42:28.209Z,43680,-0.020328881,-0.019252859,-0.43802544
1732437748222,2024-11-24T08:42:28.222Z,43693,-0.085065186,-0.074753106,-0.5216877
1732437748226,2024-11-24T08:42:28.226Z,43697,-0.085065186,-0.074753106,-0.5216877
1732437748238,2024-11-24T08:42:28.238Z,43709,-0.10528583,-0.13754581,-0.4704068
1732437748242,2024-11-24T08:42:28.242Z,43713,-0.10528583,-0.13754581,-0.4704068
1732437748252,2024-11-24T08:42:28.252Z,43723,-0.11556294,-0.117413536,-0.3929326
1732437748255,2024-11-24T08:42:28.255Z,43726,-0.11556294,-0.117413536,-0.3929326
1732437748265,2024-11-24T08:42:28.265Z,43736,-0.024964109,-0.1137472,-0.33263367
1732437748268,2024-11-24T08:42:28.268Z,43739,-0.024964109,-0.1137472,-0.33263367
1732437748277,2024-11-24T08:42:28.277Z,43748,-0.14866373,-0.022193484,-0.35911754
1732437748280,2024-11-24T08:42:28.280Z,43751,-0.14866373,-0.022193484,-0.35911754
1732437748288,2024-11-24T08:42:28.288Z,43759,-0.1381146,0.024104012,-0.42037368
1732437748290,2024-11-24T08:42:28.290Z,43761,-0.1381146,0.024104012,-0.42037368
1732437748298,2024-11-24T08:42:28.298Z,43769,-0.07340373,0.0058254786,-0.22768345
1732437748301,2024-11-24T08:42:28.301Z,43772,-0.07340373,0.0058254786,-0.22768345
1732437748309,2024-11-24T08:42:28.309Z,43780,-4.4354683E-4,-0.050119042,-0.22711693
1732437748311,2024-11-24T08:42:28.311Z,43782,-4.4354683E-4,-0.050119042,-0.22711693
1732437748318,2024-11-24T08:42:28.318Z,43789,-0.009302291,-0.11824116,-0.2864567
1732437748320,2024-11-24T08:42:28.320Z,43791,-0.009302291,-0.11824116,-0.2864567
1732437748328,2024-11-24T08:42:28.328Z,43799,-0.068023235,0.004798494,-0.39237797
1732437748330,2024-11-24T08:42:28.330Z,43801,-0.068023235,0.004798494,-0.39237797
1732437748339,2024-11-24T08:42:28.339Z,43810,-0.0707125,-0.0834963,-0.32331908
1732437748342,2024-11-24T08:42:28.342Z,43813,-0.0707125,-0.0834963,-0.32331908
1732437748349,2024-11-24T08:42:28.349Z,43820,-0.07655193,-0.08637644,-0.26394707
1732437748351,2024-11-24T08:42:28.351Z,43822,-0.07655193,-0.08637644,-0.26394707
1732437748359,2024-11-24T08:42:28.359Z,43830,0.04602406,-0.13840246,-0.40022385
1732437748361,2024-11-24T08:42:28.361Z,43832,0.04602406,-0.13840246,-0.40022385
1732437748369,2024-11-24T08:42:28.369Z,43840,-0.04595927,-0.05807974,-0.4387501
1732437748371,2024-11-24T08:42:28.371Z,43842,-0.04595927,-0.05807974,-0.4387501
1732437748379,2024-11-24T08:42:28.379Z,43850,-0.063950695,-5.953019E-4,-0.39343134
1732437748382,2024-11-24T08:42:28.382Z,43853,-0.063950695,-5.953019E-4,-0.39343134
1732437748391,2024-11-24T08:42:28.391Z,43862,-0.049457196,-0.098080985,-0.39048523
1732437748395,2024-11-24T08:42:28.395Z,43866,-0.049457196,-0.098080985,-0.39048523
1732437748402,2024-11-24T08:42:28.402Z,43873,-0.097639844,-0.24398324,-0.3700017
1732437748404,2024-11-24T08:42:28.404Z,43875,-0.097639844,-0.24398324,-0.3700017
1732437748413,2024-11-24T08:42:28.413Z,43884,-0.023689227,-0.04279546,-0.25856975
1732437748415,2024-11-24T08:42:28.415Z,43886,-0.023689227,-0.04279546,-0.25856975
1732437748422,2024-11-24T08:42:28.422Z,43893,0.04470339,0.053488918,-0.27733457
1732437748425,2024-11-24T08:42:28.425Z,43896,0.04470339,0.053488918,-0.27733457
1732437748447,2024-11-24T08:42:28.447Z,43918,-0.016723739,-0.11774987,-0.42910358
1732437748453,2024-11-24T08:42:28.453Z,43924,-0.016723739,-0.11774987,-0.42910358
1732437748468,2024-11-24T08:42:28.468Z,43939,-0.052328315,-0.024047706,-0.38115555
1732437748471,2024-11-24T08:42:28.471Z,43942,-0.052328315,-0.024047706,-0.38115555
1732437748482,2024-11-24T08:42:28.482Z,43953,5.347895E-4,-0.10291488,-0.33700863
1732437748486,2024-11-24T08:42:28.486Z,43957,5.347895E-4,-0.10291488,-0.33700863
1732437748498,2024-11-24T08:42:28.498Z,43969,-0.04496762,-0.068289146,-0.25821602
1732437748502,2024-11-24T08:42:28.502Z,43973,-0.04496762,-0.068289146,-0.25821602
1732437748513,2024-11-24T08:42:28.513Z,43984,-0.008543188,-0.16737649,-0.34498146
1732437748516,2024-11-24T08:42:28.516Z,43987,-0.008543188,-0.16737649,-0.34498146
1732437748526,2024-11-24T08:42:28.526Z,43997,0.012671474,-0.16086324,-0.3705397
1732437748529,2024-11-24T08:42:28.529Z,44000,0.012671474,-0.16086324,-0.3705397
1732437748542,2024-11-24T08:42:28.542Z,44013,-0.026790991,-0.20195453,-0.3616251
1732437748545,2024-11-24T08:42:28.545Z,44016,-0.026790991,-0.20195453,-0.3616251
1732437748552,2024-11-24T08:42:28.552Z,44023,-0.114978954,-0.169934,-0.42258367
1732437748554,2024-11-24T08:42:28.554Z,44025,-0.114978954,-0.169934,-0.42258367
1732437748561,2024-11-24T08:42:28.561Z,44032,-0.04834877,-0.2546148,-0.4066747
1732437748563,2024-11-24T08:42:28.563Z,44034,-0.04834877,-0.2546148,-0.4066747
1732437748570,2024-11-24T08:42:28.570Z,44041,-0.07500464,-0.25094444,-0.2999397
1732437748572,2024-11-24T08:42:28.572Z,44043,-0.07500464,-0.25094444,-0.2999397
1732437748580,2024-11-24T08:42:28.580Z,44051,0.004409965,-0.15191995,-0.17218393
1732437748583,2024-11-24T08:42:28.583Z,44054,0.004409965,-0.15191995,-0.17218393
1732437748594,2024-11-24T08:42:28.594Z,44065,0.05779777,-0.21576156,-0.17594922
1732437748596,2024-11-24T08:42:28.596Z,44067,0.05779777,-0.21576156,-0.17594922
1732437748623,2024-11-24T08:42:28.623Z,44094,-0.0473891,-0.1554652,-0.14915645
1732437748625,2024-11-24T08:42:28.625Z,44096,-0.0473891,-0.1554652,-0.14915645
1732437748632,2024-11-24T08:42:28.632Z,44103,-0.059244063,-0.15291095,-0.1983337
1732437748634,2024-11-24T08:42:28.634Z,44105,-0.059244063,-0.15291095,-0.1983337
1732437748641,2024-11-24T08:42:28.641Z,44112,-0.02343592,-0.15399943,-0.1912896
1732437748643,2024-11-24T08:42:28.643Z,44114,-0.02343592,-0.15399943,-0.1912896
1732437748667,2024-11-24T08:42:28.667Z,44138,-0.07569102,-0.12321951,-0.24172291
1732437748670,2024-11-24T08:42:28.670Z,44141,-0.07569102,-0.12321951,-0.24172291
1732437748677,2024-11-24T08:42:28.677Z,44148,-0.035332136,-0.04260865,-0.26331967
1732437748679,2024-11-24T08:42:28.679Z,44150,-0.035332136,-0.04260865,-0.26331967
1732437748687,2024-11-24T08:42:28.687Z,44158,0.009182737,-0.18892309,-0.15153465
1732437748690,2024-11-24T08:42:28.690Z,44161,0.009182737,-0.18892309,-0.15153465
1732437748714,2024-11-24T08:42:28.714Z,44185,-0.23500004,-0.26579627,-0.6320968
1732437748717,2024-11-24T08:42:28.717Z,44188,-0.23500004,-0.26579627,-0.6320968
1732437748726,2024-11-24T08:42:28.726Z,44197,-0.22781292,-0.16773257,-0.5732199
1732437748729,2024-11-24T08:42:28.729Z,44200,-0.22781292,-0.16773257,-0.5732199
1732437748738,2024-11-24T08:42:28.738Z,44209,-0.13084936,-0.12740399,-0.6714942
1732437748740,2024-11-24T08:42:28.740Z,44211,-0.13084936,-0.12740399,-0.6714942
1732437748759,2024-11-24T08:42:28.759Z,44230,-0.036220204,-0.3493804,-0.59722614
1732437748761,2024-11-24T08:42:28.761Z,44232,-0.036220204,-0.3493804,-0.59722614
1732437748770,2024-11-24T08:42:28.770Z,44241,0.026602259,-0.41479754,-0.6249961
1732437748773,2024-11-24T08:42:28.773Z,44244,0.026602259,-0.41479754,-0.6249961
1732437748780,2024-11-24T08:42:28.780Z,44251,-0.038266756,-0.45365664,-0.5442524
1732437748783,2024-11-24T08:42:28.783Z,44254,-0.038266756,-0.45365664,-0.5442524
1732437748806,2024-11-24T08:42:28.806Z,44277,0.07307811,-0.3123716,-0.5062256
1732437748808,2024-11-24T08:42:28.808Z,44279,0.07307811,-0.3123716,-0.5062256
1732437748818,2024-11-24T08:42:28.818Z,44289,-0.021049365,-0.35110494,-0.46524796
1732437748821,2024-11-24T08:42:28.821Z,44292,-0.021049365,-0.35110494,-0.46524796
1732437748831,2024-11-24T08:42:28.831Z,44302,0.14732458,-0.37524194,-0.39162657
1732437748834,2024-11-24T08:42:28.834Z,44305,0.14732458,-0.37524194,-0.39162657
1732437748849,2024-11-24T08:42:28.849Z,44320,0.05984882,-0.39425147,-0.26594904
1732437748852,2024-11-24T08:42:28.852Z,44323,0.05984882,-0.39425147,-0.26594904
1732437748861,2024-11-24T08:42:28.861Z,44332,0.058166217,-0.38819873,-0.25950706
1732437748864,2024-11-24T08:42:28.864Z,44335,0.058166217,-0.38819873,-0.25950706
1732437748872,2024-11-24T08:42:28.872Z,44343,0.05055087,-0.41580692,-0.23813714
1732437748875,2024-11-24T08:42:28.875Z,44346,0.05055087,-0.41580692,-0.23813714
1732437748893,2024-11-24T08:42:28.893Z,44364,0.1523866,-0.39753884,-0.25819048
1732437748895,2024-11-24T08:42:28.895Z,44366,0.1523866,-0.39753884,-0.25819048
1732437748904,2024-11-24T08:42:28.904Z,44375,-0.037952233,-0.32735068,-0.22593449
1732437748906,2024-11-24T08:42:28.906Z,44377,-0.037952233,-0.32735068,-0.22593449
1732437748915,2024-11-24T08:42:28.915Z,44386,0.17057891,-0.2913516,-0.24192761
1732437748917,2024-11-24T08:42:28.917Z,44388,0.17057891,-0.2913516,-0.24192761
1732437748925,2024-11-24T08:42:28.925Z,44396,0.105435416,-0.41522163,-0.27477673
1732437748927,2024-11-24T08:42:28.927Z,44398,0.105435416,-0.41522163,-0.27477673
1732437748939,2024-11-24T08:42:28.939Z,44410,0.07581242,-0.36112735,-0.2846831
1732437748941,2024-11-24T08:42:28.941Z,44412,0.07581242,-0.36112735,-0.2846831
1732437748948,2024-11-24T08:42:28.948Z,44419,0.15280324,-0.35846597,-0.11818014
1732437748951,2024-11-24T08:42:28.951Z,44422,0.15280324,-0.35846597,-0.11818014
1732437748958,2024-11-24T08:42:28.958Z,44429,0.26384303,-0.34281355,0.0539101
1732437748960,2024-11-24T08:42:28.960Z,44431,0.26384303,-0.34281355,0.0539101
1732437748990,2024-11-24T08:42:28.990Z,44461,-0.07362172,-0.39787722,-0.08400063
1732437748996,2024-11-24T08:42:28.996Z,44467,-0.07362172,-0.39787722,-0.08400063
1732437749015,2024-11-24T08:42:29.015Z,44486,0.1884799,-0.45577878,-0.20538864
1732437749021,2024-11-24T08:42:29.021Z,44492,0.1884799,-0.45577878,-0.20538864
1732437749037,2024-11-24T08:42:29.037Z,44508,0.24043839,-0.39127967,-0.17485178
1732437749040,2024-11-24T08:42:29.040Z,44511,0.24043839,-0.39127967,-0.17485178
1732437749054,2024-11-24T08:42:29.054Z,44525,0.15190794,-0.41638565,0.04321883
1732437749062,2024-11-24T08:42:29.062Z,44533,0.15190794,-0.41638565,0.04321883
1732437749081,2024-11-24T08:42:29.081Z,44552,0.20591262,-0.5580683,-0.10451664
1732437749088,2024-11-24T08:42:29.088Z,44559,0.20591262,-0.5580683,-0.10451664
1732437749122,2024-11-24T08:42:29.122Z,44593,0.10471104,-0.58122617,-0.12526254
1732437749127,2024-11-24T08:42:29.127Z,44598,0.10471104,-0.58122617,-0.12526254
1732437749147,2024-11-24T08:42:29.147Z,44618,0.08433511,-0.44991985,-0.0668261
1732437749154,2024-11-24T08:42:29.154Z,44625,0.08433511,-0.44991985,-0.0668261
1732437749176,2024-11-24T08:42:29.176Z,44647,0.28614813,-0.5554952,0.04928067
1732437749183,2024-11-24T08:42:29.183Z,44654,0.28614813,-0.5554952,0.04928067
1732437749203,2024-11-24T08:42:29.203Z,44674,0.5518838,-0.5284781,0.061271507
1732437749214,2024-11-24T08:42:29.214Z,44685,0.5518838,-0.5284781,0.061271507
1732437749234,2024-11-24T08:42:29.234Z,44705,0.0019204721,-0.23983921,-0.19936492
1732437749239,2024-11-24T08:42:29.239Z,44710,0.0019204721,-0.23983921,-0.19936492
1732437749250,2024-11-24T08:42:29.250Z,44721,0.013356439,-0.47703552,-0.095417365
1732437749253,2024-11-24T08:42:29.253Z,44724,0.013356439,-0.47703552,-0.095417365
1732437749264,2024-11-24T08:42:29.264Z,44735,-0.0223484,-0.6516067,-0.19826928
1732437749267,2024-11-24T08:42:29.267Z,44738,-0.0223484,-0.6516067,-0.19826928
1732437749277,2024-11-24T08:42:29.277Z,44748,-0.052759096,-0.32054305,-0.5169065
1732437749279,2024-11-24T08:42:29.279Z,44750,-0.052759096,-0.32054305,-0.5169065
1732437749288,2024-11-24T08:42:29.288Z,44759,0.047654834,-0.34312853,-0.51459026
1732437749291,2024-11-24T08:42:29.291Z,44762,0.047654834,-0.34312853,-0.51459026
1732437749299,2024-11-24T08:42:29.299Z,44770,-0.020302381,-0.2963219,-0.42230082
1732437749302,2024-11-24T08:42:29.302Z,44773,-0.020302381,-0.2963219,-0.42230082
1732437749310,2024-11-24T08:42:29.310Z,44781,-0.04266979,-0.15939324,-0.41226667
1732437749312,2024-11-24T08:42:29.312Z,44783,-0.04266979,-0.15939324,-0.41226667
1732437749319,2024-11-24T08:42:29.319Z,44790,-0.13058522,-0.20391533,-0.4012272
1732437749322,2024-11-24T08:42:29.322Z,44793,-0.13058522,-0.20391533,-0.4012272
1732437749343,2024-11-24T08:42:29.343Z,44814,0.114576794,-0.33122665,-0.34347036
1732437749345,2024-11-24T08:42:29.345Z,44816,0.114576794,-0.33122665,-0.34347036
1732437749352,2024-11-24T08:42:29.352Z,44823,-0.09278844,-0.26200986,-0.36542678
1732437749355,2024-11-24T08:42:29.355Z,44826,-0.09278844,-0.26200986,-0.36542678
1732437749369,2024-11-24T08:42:29.369Z,44840,-0.07605737,-0.27845284,-0.41403311
1732437749376,2024-11-24T08:42:29.376Z,44847,-0.07605737,-0.27845284,-0.41403311
1732437749391,2024-11-24T08:42:29.391Z,44862,-0.043440286,-0.2764842,-0.44795167
1732437749394,2024-11-24T08:42:29.394Z,44865,-0.043440286,-0.2764842,-0.44795167
1732437749407,2024-11-24T08:42:29.407Z,44878,-0.008294671,-0.14194627,-0.41375566
1732437749412,2024-11-24T08:42:29.412Z,44883,-0.008294671,-0.14194627,-0.41375566
1732437749432,2024-11-24T08:42:29.432Z,44903,-0.02467092,-0.20189953,-0.41004348
1732437749438,2024-11-24T08:42:29.438Z,44909,-0.02467092,-0.20189953,-0.41004348
1732437749457,2024-11-24T08:42:29.457Z,44928,0.081542864,-0.28204632,-0.37461814
1732437749463,2024-11-24T08:42:29.463Z,44934,0.081542864,-0.28204632,-0.37461814
1732437749481,2024-11-24T08:42:29.481Z,44952,-0.13820626,-0.27814913,-0.48235995
1732437749487,2024-11-24T08:42:29.487Z,44958,-0.13820626,-0.27814913,-0.48235995
1732437749500,2024-11-24T08:42:29.500Z,44971,0.03264506,-0.11485052,-0.30515453
1732437749504,2024-11-24T08:42:29.504Z,44975,0.03264506,-0.11485052,-0.30515453
1732437749515,2024-11-24T08:42:29.515Z,44986,0.0077575715,-0.10076429,-0.22690304
1732437749519,2024-11-24T08:42:29.519Z,44990,0.0077575715,-0.10076429,-0.22690304
1732437749530,2024-11-24T08:42:29.530Z,45001,0.0044159214,-0.30572027,-0.21928708
1732437749533,2024-11-24T08:42:29.533Z,45004,0.0044159214,-0.30572027,-0.21928708
1732437749542,2024-11-24T08:42:29.542Z,45013,0.04067065,-0.24242207,-0.22701468
1732437749545,2024-11-24T08:42:29.545Z,45016,0.04067065,-0.24242207,-0.22701468
1732437749552,2024-11-24T08:42:29.552Z,45023,0.091713734,-0.11988844,-0.21734528
1732437749555,2024-11-24T08:42:29.555Z,45026,0.091713734,-0.11988844,-0.21734528
1732437749563,2024-11-24T08:42:29.563Z,45034,0.029126931,-0.07129814,-0.13096374
1732437749565,2024-11-24T08:42:29.565Z,45036,0.029126931,-0.07129814,-0.13096374
1732437749573,2024-11-24T08:42:29.573Z,45044,0.0715592,-0.17945252,-0.136516
1732437749575,2024-11-24T08:42:29.575Z,45046,0.0715592,-0.17945252,-0.136516
1732437749582,2024-11-24T08:42:29.582Z,45053,0.029913811,-0.27596727,-0.25072595
1732437749584,2024-11-24T08:42:29.584Z,45055,0.029913811,-0.27596727,-0.25072595
1732437749595,2024-11-24T08:42:29.595Z,45066,-0.077973776,-0.12413038,-0.4094253
1732437749600,2024-11-24T08:42:29.600Z,45071,-0.077973776,-0.12413038,-0.4094253
1732437749620,2024-11-24T08:42:29.620Z,45091,0.004190647,-0.096055456,-0.4059824
1732437749625,2024-11-24T08:42:29.625Z,45096,0.004190647,-0.096055456,-0.4059824
1732437749644,2024-11-24T08:42:29.644Z,45115,0.010763256,-0.20552847,-0.3668662
1732437749650,2024-11-24T08:42:29.650Z,45121,0.010763256,-0.20552847,-0.3668662
1732437749666,2024-11-24T08:42:29.666Z,45137,0.032766476,-0.22376053,-0.40413618
1732437749669,2024-11-24T08:42:29.669Z,45140,0.032766476,-0.22376053,-0.40413618
1732437749682,2024-11-24T08:42:29.682Z,45153,-0.014874792,-0.09611444,-0.40469015
1732437749685,2024-11-24T08:42:29.685Z,45156,-0.014874792,-0.09611444,-0.40469015
1732437749696,2024-11-24T08:42:29.696Z,45167,0.046835106,-0.11679373,-0.3451314
1732437749699,2024-11-24T08:42:29.699Z,45170,0.046835106,-0.11679373,-0.3451314
1732437749711,2024-11-24T08:42:29.711Z,45182,0.007428826,-0.24919148,-0.3232349
1732437749714,2024-11-24T08:42:29.714Z,45185,0.007428826,-0.24919148,-0.3232349
1732437749723,2024-11-24T08:42:29.723Z,45194,0.01616347,-0.19355509,-0.2934477
1732437749726,2024-11-24T08:42:29.726Z,45197,0.01616347,-0.19355509,-0.2934477
1732437749734,2024-11-24T08:42:29.734Z,45205,0.014924534,-0.27529144,-0.30037597
1732437749737,2024-11-24T08:42:29.737Z,45208,0.014924534,-0.27529144,-0.30037597
1732437749746,2024-11-24T08:42:29.746Z,45217,-0.13410878,-0.3338557,-0.3919715
1732437749748,2024-11-24T08:42:29.748Z,45219,-0.13410878,-0.3338557,-0.3919715
1732437749756,2024-11-24T08:42:29.756Z,45227,0.027936399,-0.3409164,-0.30999583
1732437749759,2024-11-24T08:42:29.759Z,45230,0.027936399,-0.3409164,-0.30999583
1732437749766,2024-11-24T08:42:29.766Z,45237,0.034349207,-0.3201121,-0.22286609
1732437749768,2024-11-24T08:42:29.768Z,45239,0.034349207,-0.3201121,-0.22286609
1732437749775,2024-11-24T08:42:29.775Z,45246,0.22639275,-0.35009158,-0.081635855
1732437749777,2024-11-24T08:42:29.777Z,45248,0.22639275,-0.35009158,-0.081635855
1732437749784,2024-11-24T08:42:29.784Z,45255,0.13412125,-0.24773534,-0.1291651
1732437749786,2024-11-24T08:42:29.786Z,45257,0.13412125,-0.24773534,-0.1291651
1732437749796,2024-11-24T08:42:29.796Z,45267,0.070317686,-0.22226097,-0.22810915
1732437749798,2024-11-24T08:42:29.798Z,45269,0.070317686,-0.22226097,-0.22810915
1732437749806,2024-11-24T08:42:29.806Z,45277,0.15417512,-0.2313935,-0.23115252
1732437749808,2024-11-24T08:42:29.808Z,45279,0.15417512,-0.2313935,-0.23115252
1732437749815,2024-11-24T08:42:29.815Z,45286,0.018988151,-0.30074167,-0.14403553
1732437749817,2024-11-24T08:42:29.817Z,45288,0.018988151,-0.30074167,-0.14403553
1732437749824,2024-11-24T08:42:29.824Z,45295,0.05728768,-0.4172586,-0.060051046
1732437749826,2024-11-24T08:42:29.826Z,45297,0.05728768,-0.4172586,-0.060051046
1732437749837,2024-11-24T08:42:29.837Z,45308,0.045801606,-0.4722421,-0.11234571
1732437749843,2024-11-24T08:42:29.843Z,45314,0.045801606,-0.4722421,-0.11234571
1732437749850,2024-11-24T08:42:29.850Z,45321,-0.0062051094,-0.28976104,-0.22725843
1732437749853,2024-11-24T08:42:29.853Z,45324,-0.0062051094,-0.28976104,-0.22725843
1732437749862,2024-11-24T08:42:29.862Z,45333,-0.031411156,-0.20271452,-0.333989
1732437749864,2024-11-24T08:42:29.864Z,45335,-0.031411156,-0.20271452,-0.333989
1732437749874,2024-11-24T08:42:29.874Z,45345,0.052749105,-0.19053404,-0.35625505
1732437749878,2024-11-24T08:42:29.878Z,45349,0.052749105,-0.19053404,-0.35625505
1732437749888,2024-11-24T08:42:29.888Z,45359,0.009609898,-0.3746052,-0.28816468
1732437749891,2024-11-24T08:42:29.891Z,45362,0.009609898,-0.3746052,-0.28816468
1732437749903,2024-11-24T08:42:29.903Z,45374,-0.051262602,-0.3983237,-0.33358178
1732437749906,2024-11-24T08:42:29.906Z,45377,-0.051262602,-0.3983237,-0.33358178
1732437749914,2024-11-24T08:42:29.914Z,45385,-0.054580886,-0.41614085,-0.35959247
1732437749917,2024-11-24T08:42:29.917Z,45388,-0.054580886,-0.41614085,-0.35959247
1732437749929,2024-11-24T08:42:29.929Z,45400,0.050964974,-0.23087054,-0.21679267
1732437749932,2024-11-24T08:42:29.932Z,45403,0.050964974,-0.23087054,-0.21679267
1732437749940,2024-11-24T08:42:29.940Z,45411,0.04647563,-0.21411146,-0.25505006
1732437749942,2024-11-24T08:42:29.942Z,45413,0.04647563,-0.21411146,-0.25505006
1732437749951,2024-11-24T08:42:29.951Z,45422,0.061109565,-0.23695402,-0.34583253
1732437749956,2024-11-24T08:42:29.956Z,45427,0.061109565,-0.23695402,-0.34583253
1732437749977,2024-11-24T08:42:29.977Z,45448,-0.006872909,-0.28130797,-0.3901169
1732437749983,2024-11-24T08:42:29.983Z,45454,-0.006872909,-0.28130797,-0.3901169
1732437750002,2024-11-24T08:42:30.002Z,45473,0.04108699,-0.27648085,-0.31232426
1732437750008,2024-11-24T08:42:30.008Z,45479,0.04108699,-0.27648085,-0.31232426
1732437750026,2024-11-24T08:42:30.026Z,45497,0.08110238,-0.29205036,-0.35766193
1732437750031,2024-11-24T08:42:30.031Z,45502,0.08110238,-0.29205036,-0.35766193
1732437750049,2024-11-24T08:42:30.049Z,45520,-0.0134026315,-0.25992662,-0.48339885
1732437750052,2024-11-24T08:42:30.052Z,45523,-0.0134026315,-0.25992662,-0.48339885
1732437750066,2024-11-24T08:42:30.066Z,45537,-0.058922682,-0.26477194,-0.42521602
1732437750072,2024-11-24T08:42:30.072Z,45543,-0.058922682,-0.26477194,-0.42521602
1732437750087,2024-11-24T08:42:30.087Z,45558,-0.04651227,-0.31262735,-0.35939988
1732437750092,2024-11-24T08:42:30.092Z,45563,-0.04651227,-0.31262735,-0.35939988
1732437750110,2024-11-24T08:42:30.110Z,45581,-0.11313573,-0.38221395,-0.3973055
1732437750115,2024-11-24T08:42:30.115Z,45586,-0.11313573,-0.38221395,-0.3973055
1732437750126,2024-11-24T08:42:30.126Z,45597,-0.07689593,-0.3306062,-0.44579375
1732437750130,2024-11-24T08:42:30.130Z,45601,-0.07689593,-0.3306062,-0.44579375
1732437750140,2024-11-24T08:42:30.140Z,45611,-0.03023485,-0.2187123,-0.39624622
1732437750144,2024-11-24T08:42:30.144Z,45615,-0.03023485,-0.2187123,-0.39624622
1732437750154,2024-11-24T08:42:30.154Z,45625,-0.06544363,-0.0801717,-0.36067688
1732437750157,2024-11-24T08:42:30.157Z,45628,-0.06544363,-0.0801717,-0.36067688
1732437750166,2024-11-24T08:42:30.166Z,45637,0.06396872,-0.15711813,-0.19597593
1732437750169,2024-11-24T08:42:30.169Z,45640,0.06396872,-0.15711813,-0.19597593
1732437750178,2024-11-24T08:42:30.178Z,45649,0.105054736,-0.265171,-0.1657102
1732437750180,2024-11-24T08:42:30.180Z,45651,0.105054736,-0.265171,-0.1657102
1732437750187,2024-11-24T08:42:30.187Z,45658,0.017405638,-0.32389936,-0.25196308
1732437750190,2024-11-24T08:42:30.190Z,45661,0.017405638,-0.32389936,-0.25196308
1732437750198,2024-11-24T08:42:30.198Z,45669,-0.1170347,-0.22254643,-0.3652922
1732437750200,2024-11-24T08:42:30.200Z,45671,-0.1170347,-0.22254643,-0.3652922
1732437750208,2024-11-24T08:42:30.208Z,45679,-0.071870975,-0.18246005,-0.38371167
1732437750210,2024-11-24T08:42:30.210Z,45681,-0.071870975,-0.18246005,-0.38371167
1732437750217,2024-11-24T08:42:30.217Z,45688,0.022206418,-0.15341328,-0.34114718
1732437750219,2024-11-24T08:42:30.219Z,45690,0.022206418,-0.15341328,-0.34114718
1732437750226,2024-11-24T08:42:30.226Z,45697,-0.035354067,-0.12626745,-0.3508568
1732437750229,2024-11-24T08:42:30.229Z,45700,-0.035354067,-0.12626745,-0.3508568
1732437750236,2024-11-24T08:42:30.236Z,45707,-0.072958544,-0.16951258,-0.3674663
1732437750238,2024-11-24T08:42:30.238Z,45709,-0.072958544,-0.16951258,-0.3674663
1732437750246,2024-11-24T08:42:30.246Z,45717,-0.07436394,-0.27442542,-0.37240258
1732437750248,2024-11-24T08:42:30.248Z,45719,-0.07436394,-0.27442542,-0.37240258
1732437750256,2024-11-24T08:42:30.256Z,45727,-0.09704782,-0.3574483,-0.4484062
1732437750259,2024-11-24T08:42:30.259Z,45730,-0.09704782,-0.3574483,-0.4484062
1732437750266,2024-11-24T08:42:30.266Z,45737,-0.009105814,-0.32253638,-0.38829562
1732437750268,2024-11-24T08:42:30.268Z,45739,-0.009105814,-0.32253638,-0.38829562
1732437750276,2024-11-24T08:42:30.276Z,45747,0.04485575,-0.25996172,-0.31731376
1732437750278,2024-11-24T08:42:30.278Z,45749,0.04485575,-0.25996172,-0.31731376
1732437750291,2024-11-24T08:42:30.291Z,45762,-0.17423542,-0.17925258,-0.3550062
1732437750293,2024-11-24T08:42:30.293Z,45764,-0.17423542,-0.17925258,-0.3550062
1732437750299,2024-11-24T08:42:30.299Z,45770,-0.12918803,-0.26774368,-0.46546087
1732437750301,2024-11-24T08:42:30.301Z,45772,-0.12918803,-0.26774368,-0.46546087
1732437750308,2024-11-24T08:42:30.308Z,45779,-0.15874991,-0.29727706,-0.4518216
1732437750311,2024-11-24T08:42:30.311Z,45782,-0.15874991,-0.29727706,-0.4518216
1732437750336,2024-11-24T08:42:30.336Z,45807,-0.06507613,-0.12740481,-0.3645418
1732437750338,2024-11-24T08:42:30.338Z,45809,-0.06507613,-0.12740481,-0.3645418
1732437750347,2024-11-24T08:42:30.347Z,45818,-0.009574548,-0.14298832,-0.3043624
1732437750349,2024-11-24T08:42:30.349Z,45820,-0.009574548,-0.14298832,-0.3043624
1732437750379,2024-11-24T08:42:30.379Z,45850,-0.048485354,-0.12965095,-0.2736122
1732437750381,2024-11-24T08:42:30.381Z,45852,-0.048485354,-0.12965095,-0.2736122
1732437750389,2024-11-24T08:42:30.389Z,45860,-0.05096957,-0.14900143,-0.37928537
1732437750392,2024-11-24T08:42:30.392Z,45863,-0.05096957,-0.14900143,-0.37928537
1732437750400,2024-11-24T08:42:30.400Z,45871,-0.038712516,-0.12479391,-0.34333694
1732437750402,2024-11-24T08:42:30.402Z,45873,-0.038712516,-0.12479391,-0.34333694
1732437750425,2024-11-24T08:42:30.425Z,45896,0.0062629473,-0.108482696,-0.3287179
1732437750428,2024-11-24T08:42:30.428Z,45899,0.0062629473,-0.108482696,-0.3287179
1732437750436,2024-11-24T08:42:30.436Z,45907,0.0035931328,-0.19133386,-0.27517608
1732437750438,2024-11-24T08:42:30.438Z,45909,0.0035931328,-0.19133386,-0.27517608
1732437750450,2024-11-24T08:42:30.450Z,45921,0.014403359,-0.20868304,-0.2758985
1732437750457,2024-11-24T08:42:30.457Z,45928,0.014403359,-0.20868304,-0.2758985
1732437750483,2024-11-24T08:42:30.483Z,45954,-0.047761854,-0.19235855,-0.25249583
1732437750490,2024-11-24T08:42:30.490Z,45961,-0.047761854,-0.19235855,-0.25249583
1732437750516,2024-11-24T08:42:30.516Z,45987,0.06389168,-0.0867753,-0.25596392
1732437750522,2024-11-24T08:42:30.522Z,45993,0.06389168,-0.0867753,-0.25596392
1732437750540,2024-11-24T08:42:30.540Z,46011,-0.015560631,-0.10133494,-0.28791684
1732437750545,2024-11-24T08:42:30.545Z,46016,-0.015560631,-0.10133494,-0.28791684
1732437750563,2024-11-24T08:42:30.563Z,46034,-0.10677483,-0.15604907,-0.30667838
1732437750566,2024-11-24T08:42:30.566Z,46037,-0.10677483,-0.15604907,-0.30667838
1732437750579,2024-11-24T08:42:30.579Z,46050,-0.09569858,-0.36594805,-0.347939
1732437750584,2024-11-24T08:42:30.584Z,46055,-0.09569858,-0.36594805,-0.347939
1732437750602,2024-11-24T08:42:30.602Z,46073,-0.09753899,-0.3284064,-0.32688263
1732437750607,2024-11-24T08:42:30.607Z,46078,-0.09753899,-0.3284064,-0.32688263
1732437750619,2024-11-24T08:42:30.619Z,46090,-0.08153487,-0.32143345,-0.32253712
1732437750623,2024-11-24T08:42:30.623Z,46094,-0.08153487,-0.32143345,-0.32253712
1732437750633,2024-11-24T08:42:30.633Z,46104,-0.10241359,-0.29765037,-0.17025916
1732437750636,2024-11-24T08:42:30.636Z,46107,-0.10241359,-0.29765037,-0.17025916
1732437750647,2024-11-24T08:42:30.647Z,46118,-0.09117608,-0.32584247,-0.19126916
1732437750649,2024-11-24T08:42:30.649Z,46120,-0.09117608,-0.32584247,-0.19126916
1732437750658,2024-11-24T08:42:30.658Z,46129,0.005483361,-0.23753561,-0.29959524
1732437750661,2024-11-24T08:42:30.661Z,46132,0.005483361,-0.23753561,-0.29959524
1732437750669,2024-11-24T08:42:30.669Z,46140,0.024921793,-0.3299928,-0.27577326
1732437750671,2024-11-24T08:42:30.671Z,46142,0.024921793,-0.3299928,-0.27577326
1732437750680,2024-11-24T08:42:30.680Z,46151,-0.050226744,-0.2709215,-0.37851635
1732437750683,2024-11-24T08:42:30.683Z,46154,-0.050226744,-0.2709215,-0.37851635
1732437750690,2024-11-24T08:42:30.690Z,46161,-0.013670087,-0.14587118,-0.37752756
1732437750693,2024-11-24T08:42:30.693Z,46164,-0.013670087,-0.14587118,-0.37752756
1732437750700,2024-11-24T08:42:30.700Z,46171,-0.16983703,-0.057974227,-0.41224268
1732437750702,2024-11-24T08:42:30.702Z,46173,-0.16983703,-0.057974227,-0.41224268
1732437750710,2024-11-24T08:42:30.710Z,46181,-0.18941008,-0.10672144,-0.44990677
1732437750712,2024-11-24T08:42:30.712Z,46183,-0.18941008,-0.10672144,-0.44990677
1732437750744,2024-11-24T08:42:30.744Z,46215,-0.15412737,-0.24414559,-0.4246088
1732437750750,2024-11-24T08:42:30.750Z,46221,-0.15412737,-0.24414559,-0.4246088
1732437750768,2024-11-24T08:42:30.768Z,46239,-0.023631511,-0.32578442,-0.28582868
1732437750772,2024-11-24T08:42:30.772Z,46243,-0.023631511,-0.32578442,-0.28582868
1732437750784,2024-11-24T08:42:30.784Z,46255,-0.025574034,-0.17301491,-0.33057684
1732437750787,2024-11-24T08:42:30.787Z,46258,-0.025574034,-0.17301491,-0.33057684
1732437750798,2024-11-24T08:42:30.798Z,46269,-0.16077262,-0.027459303,-0.37784442
1732437750801,2024-11-24T08:42:30.801Z,46272,-0.16077262,-0.027459303,-0.37784442
1732437750811,2024-11-24T08:42:30.811Z,46282,-0.28694192,-0.016342478,-0.48165816
1732437750814,2024-11-24T08:42:30.814Z,46285,-0.28694192,-0.016342478,-0.48165816
1732437750823,2024-11-24T08:42:30.823Z,46294,-0.214967,-0.14711197,-0.4760653
1732437750826,2024-11-24T08:42:30.826Z,46297,-0.214967,-0.14711197,-0.4760653
1732437750834,2024-11-24T08:42:30.834Z,46305,-0.12709974,-0.28985563,-0.3206079
1732437750837,2024-11-24T08:42:30.837Z,46308,-0.12709974,-0.28985563,-0.3206079
1732437750845,2024-11-24T08:42:30.845Z,46316,0.075852126,-0.16729665,-0.21920641
1732437750848,2024-11-24T08:42:30.848Z,46319,0.075852126,-0.16729665,-0.21920641
1732437750856,2024-11-24T08:42:30.856Z,46327,-0.11570089,-0.06413433,-0.39192808
1732437750858,2024-11-24T08:42:30.858Z,46329,-0.11570089,-0.06413433,-0.39192808
1732437750866,2024-11-24T08:42:30.866Z,46337,-0.15529732,-0.058060143,-0.46624902
1732437750868,2024-11-24T08:42:30.868Z,46339,-0.15529732,-0.058060143,-0.46624902
1732437750876,2024-11-24T08:42:30.876Z,46347,-0.08968099,-0.055657297,-0.3769605
1732437750878,2024-11-24T08:42:30.878Z,46349,-0.08968099,-0.055657297,-0.3769605
1732437750885,2024-11-24T08:42:30.885Z,46356,0.051915232,-0.069495745,-0.26115635
1732437750887,2024-11-24T08:42:30.887Z,46358,0.051915232,-0.069495745,-0.26115635
1732437750895,2024-11-24T08:42:30.895Z,46366,0.13956484,-0.19883253,-0.17418079
1732437750898,2024-11-24T08:42:30.898Z,46369,0.13956484,-0.19883253,-0.17418079
1732437750921,2024-11-24T08:42:30.921Z,46392,-0.05429046,-0.15763602,-0.41796178
1732437750924,2024-11-24T08:42:30.924Z,46395,-0.05429046,-0.15763602,-0.41796178
1732437750933,2024-11-24T08:42:30.933Z,46404,-0.13965926,-0.024052422,-0.41958994
1732437750935,2024-11-24T08:42:30.935Z,46406,-0.13965926,-0.024052422,-0.41958994
1732437750964,2024-11-24T08:42:30.964Z,46435,-0.13684185,-0.01677353,-0.36421758
1732437750967,2024-11-24T08:42:30.967Z,46438,-0.13684185,-0.01677353,-0.36421758
1732437750975,2024-11-24T08:42:30.975Z,46446,0.008986734,-0.15189825,-0.19657138
1732437750979,2024-11-24T08:42:30.979Z,46450,0.008986734,-0.15189825,-0.19657138
1732437750986,2024-11-24T08:42:30.986Z,46457,-0.0019087052,-0.27423826,-0.23511869
1732437750989,2024-11-24T08:42:30.989Z,46460,-0.0019087052,-0.27423826,-0.23511869
1732437750998,2024-11-24T08:42:30.998Z,46469,-0.019198887,-0.25667012,-0.30963984
1732437751000,2024-11-24T08:42:31Z,46471,-0.019198887,-0.25667012,-0.30963984
1732437751015,2024-11-24T08:42:31.015Z,46486,0.0031306227,-0.10616149,-0.3109483
1732437751022,2024-11-24T08:42:31.022Z,46493,0.0031306227,-0.10616149,-0.3109483
1732437751038,2024-11-24T08:42:31.038Z,46509,-0.09075522,-0.15791726,-0.34434897
1732437751043,2024-11-24T08:42:31.043Z,46514,-0.09075522,-0.15791726,-0.34434897
1732437751062,2024-11-24T08:42:31.062Z,46533,-0.06385781,-0.22077234,-0.3610402
1732437751067,2024-11-24T08:42:31.067Z,46538,-0.06385781,-0.22077234,-0.3610402
1732437751083,2024-11-24T08:42:31.083Z,46554,-0.08300611,-0.21817447,-0.42994308
1732437751089,2024-11-24T08:42:31.089Z,46560,-0.08300611,-0.21817447,-0.42994308
1732437751108,2024-11-24T08:42:31.108Z,46579,-0.05177663,-0.16974224,-0.4227522
1732437751114,2024-11-24T08:42:31.114Z,46585,-0.05177663,-0.16974224,-0.4227522
1732437751128,2024-11-24T08:42:31.128Z,46599,-0.054757636,-0.09314308,-0.41041666
1732437751132,2024-11-24T08:42:31.132Z,46603,-0.054757636,-0.09314308,-0.41041666
1732437751143,2024-11-24T08:42:31.143Z,46614,-0.08264154,-0.047678903,-0.46731508
1732437751147,2024-11-24T08:42:31.147Z,46618,-0.08264154,-0.047678903,-0.46731508
1732437751157,2024-11-24T08:42:31.157Z,46628,-0.052957434,-0.09872826,-0.4295911
1732437751160,2024-11-24T08:42:31.160Z,46631,-0.052957434,-0.09872826,-0.4295911
1732437751170,2024-11-24T08:42:31.170Z,46641,-0.06006335,-0.15873827,-0.36489788
1732437751175,2024-11-24T08:42:31.175Z,46646,-0.06006335,-0.15873827,-0.36489788
1732437751184,2024-11-24T08:42:31.184Z,46655,-0.10910823,-0.34125814,-0.35788023
1732437751187,2024-11-24T08:42:31.187Z,46658,-0.10910823,-0.34125814,-0.35788023
1732437751197,2024-11-24T08:42:31.197Z,46668,-0.12798664,-0.33006045,-0.33920002
1732437751200,2024-11-24T08:42:31.200Z,46671,-0.12798664,-0.33006045,-0.33920002
1732437751209,2024-11-24T08:42:31.209Z,46680,-0.121050864,-0.22729962,-0.3147977
1732437751212,2024-11-24T08:42:31.212Z,46683,-0.121050864,-0.22729962,-0.3147977
1732437751224,2024-11-24T08:42:31.224Z,46695,-0.12454627,-0.09330889,-0.35040116
1732437751227,2024-11-24T08:42:31.227Z,46698,-0.12454627,-0.09330889,-0.35040116
1732437751235,2024-11-24T08:42:31.235Z,46706,-0.031555522,-0.022272548,-0.36206365
1732437751237,2024-11-24T08:42:31.237Z,46708,-0.031555522,-0.022272548,-0.36206365
1732437751246,2024-11-24T08:42:31.246Z,46717,0.011215263,0.028929736,-0.3121826
1732437751248,2024-11-24T08:42:31.248Z,46719,0.011215263,0.028929736,-0.3121826
1732437751256,2024-11-24T08:42:31.256Z,46727,-0.05427716,-0.1424713,-0.36646998
1732437751258,2024-11-24T08:42:31.258Z,46729,-0.05427716,-0.1424713,-0.36646998
1732437751266,2024-11-24T08:42:31.266Z,46737,-0.06231692,-0.15038815,-0.39429057
1732437751268,2024-11-24T08:42:31.268Z,46739,-0.06231692,-0.15038815,-0.39429057
1732437751279,2024-11-24T08:42:31.279Z,46750,-0.071807906,-0.083637506,-0.42607054
1732437751281,2024-11-24T08:42:31.281Z,46752,-0.071807906,-0.083637506,-0.42607054
1732437751289,2024-11-24T08:42:31.289Z,46760,-0.12374835,-0.081806675,-0.36629447
1732437751292,2024-11-24T08:42:31.292Z,46763,-0.12374835,-0.081806675,-0.36629447
1732437751298,2024-11-24T08:42:31.298Z,46769,-0.096868545,-0.14135063,-0.31673276
1732437751300,2024-11-24T08:42:31.300Z,46771,-0.096868545,-0.14135063,-0.31673276
1732437751323,2024-11-24T08:42:31.323Z,46794,-0.07314973,-0.20707545,-0.27412367
1732437751326,2024-11-24T08:42:31.326Z,46797,-0.07314973,-0.20707545,-0.27412367
1732437751333,2024-11-24T08:42:31.333Z,46804,-0.05019115,-0.16124211,-0.41214672
1732437751335,2024-11-24T08:42:31.335Z,46806,-0.05019115,-0.16124211,-0.41214672
1732437751342,2024-11-24T08:42:31.342Z,46813,-0.019144526,-0.05946479,-0.41213027
1732437751345,2024-11-24T08:42:31.345Z,46816,-0.019144526,-0.05946479,-0.41213027
1732437751372,2024-11-24T08:42:31.372Z,46843,-0.07716008,-0.010010777,-0.34401885
1732437751378,2024-11-24T08:42:31.378Z,46849,-0.07716008,-0.010010777,-0.34401885
1732437751398,2024-11-24T08:42:31.398Z,46869,-0.05840812,-0.049629495,-0.27114046
1732437751403,2024-11-24T08:42:31.403Z,46874,-0.05840812,-0.049629495,-0.27114046
1732437751423,2024-11-24T08:42:31.423Z,46894,-0.048628476,-0.17084377,-0.3303921
1732437751428,2024-11-24T08:42:31.428Z,46899,-0.048628476,-0.17084377,-0.3303921
1732437751443,2024-11-24T08:42:31.443Z,46914,-0.043323785,-0.27489698,-0.3660577
1732437751446,2024-11-24T08:42:31.446Z,46917,-0.043323785,-0.27489698,-0.3660577
1732437751458,2024-11-24T08:42:31.458Z,46929,-0.0777301,-0.141945,-0.36649004
1732437751462,2024-11-24T08:42:31.462Z,46933,-0.0777301,-0.141945,-0.36649004
1732437751472,2024-11-24T08:42:31.472Z,46943,-0.081343606,-0.09763053,-0.32197446
1732437751476,2024-11-24T08:42:31.476Z,46947,-0.081343606,-0.09763053,-0.32197446
1732437751485,2024-11-24T08:42:31.485Z,46956,-0.06804722,-0.12186203,-0.28474113
1732437751488,2024-11-24T08:42:31.488Z,46959,-0.06804722,-0.12186203,-0.28474113
1732437751497,2024-11-24T08:42:31.497Z,46968,-0.03264764,-0.31134522,-0.27740744
1732437751500,2024-11-24T08:42:31.500Z,46971,-0.03264764,-0.31134522,-0.27740744
1732437751508,2024-11-24T08:42:31.508Z,46979,-0.029702418,-0.30380866,-0.31156957
1732437751511,2024-11-24T08:42:31.511Z,46982,-0.029702418,-0.30380866,-0.31156957
1732437751519,2024-11-24T08:42:31.519Z,46990,-0.042911015,-0.2114407,-0.38681754
1732437751521,2024-11-24T08:42:31.521Z,46992,-0.042911015,-0.2114407,-0.38681754
1732437751529,2024-11-24T08:42:31.529Z,47000,0.06869919,0.07017035,-0.38647485
1732437751532,2024-11-24T08:42:31.532Z,47003,0.06869919,0.07017035,-0.38647485
1732437751544,2024-11-24T08:42:31.544Z,47015,-0.042516578,0.04732988,-0.30346727
1732437751552,2024-11-24T08:42:31.552Z,47023,-0.042516578,0.04732988,-0.30346727
1732437751570,2024-11-24T08:42:31.570Z,47041,0.0022795107,-0.037252925,-0.31096274
1732437751575,2024-11-24T08:42:31.575Z,47046,0.0022795107,-0.037252925,-0.31096274
1732437751592,2024-11-24T08:42:31.592Z,47063,0.05279678,-0.07128544,-0.47221673
1732437751597,2024-11-24T08:42:31.597Z,47068,0.05279678,-0.07128544,-0.47221673
1732437751613,2024-11-24T08:42:31.613Z,47084,-0.009664114,-0.015216642,-0.46243533
1732437751618,2024-11-24T08:42:31.618Z,47089,-0.009664114,-0.015216642,-0.46243533
1732437751633,2024-11-24T08:42:31.633Z,47104,0.0063932105,-0.057141103,-0.46144414
1732437751639,2024-11-24T08:42:31.639Z,47110,0.0063932105,-0.057141103,-0.46144414
1732437751656,2024-11-24T08:42:31.656Z,47127,-0.00878052,-0.17284128,-0.43645328
1732437751661,2024-11-24T08:42:31.661Z,47132,-0.00878052,-0.17284128,-0.43645328
1732437751677,2024-11-24T08:42:31.677Z,47148,-0.030585865,-0.22875161,-0.43842936
1732437751683,2024-11-24T08:42:31.683Z,47154,-0.030585865,-0.22875161,-0.43842936
1732437751696,2024-11-24T08:42:31.696Z,47167,-0.1005006,-0.29374796,-0.43774876
1732437751700,2024-11-24T08:42:31.700Z,47171,-0.1005006,-0.29374796,-0.43774876
1732437751712,2024-11-24T08:42:31.712Z,47183,-0.023573576,-0.22840002,-0.32309273
1732437751716,2024-11-24T08:42:31.716Z,47187,-0.023573576,-0.22840002,-0.32309273
1732437751727,2024-11-24T08:42:31.727Z,47198,-0.033110585,-0.19555718,-0.34147868
1732437751731,2024-11-24T08:42:31.731Z,47202,-0.033110585,-0.19555718,-0.34147868
1732437751741,2024-11-24T08:42:31.741Z,47212,-0.04329687,-0.12965241,-0.3311583
1732437751744,2024-11-24T08:42:31.744Z,47215,-0.04329687,-0.12965241,-0.3311583
1732437751756,2024-11-24T08:42:31.756Z,47227,-0.08913519,0.014000461,-0.37670493
1732437751759,2024-11-24T08:42:31.759Z,47230,-0.08913519,0.014000461,-0.37670493
1732437751768,2024-11-24T08:42:31.768Z,47239,-0.10778377,-0.060460754,-0.33068296
1732437751771,2024-11-24T08:42:31.771Z,47242,-0.10778377,-0.060460754,-0.33068296
1732437751782,2024-11-24T08:42:31.782Z,47253,-0.071204536,-0.15740184,-0.3069828
1732437751788,2024-11-24T08:42:31.788Z,47259,-0.071204536,-0.15740184,-0.3069828
1732437751803,2024-11-24T08:42:31.803Z,47274,-0.004069209,-0.14189415,-0.36444455
1732437751808,2024-11-24T08:42:31.808Z,47279,-0.004069209,-0.14189415,-0.36444455
1732437751822,2024-11-24T08:42:31.822Z,47293,-0.056956552,-0.09981335,-0.3585924
1732437751824,2024-11-24T08:42:31.824Z,47295,-0.056956552,-0.09981335,-0.3585924
1732437751833,2024-11-24T08:42:31.833Z,47304,-0.070687294,-0.05237295,-0.35055846
1732437751836,2024-11-24T08:42:31.836Z,47307,-0.070687294,-0.05237295,-0.35055846
1732437751847,2024-11-24T08:42:31.847Z,47318,0.032249555,-0.20523824,-0.2376524
1732437751850,2024-11-24T08:42:31.850Z,47321,0.032249555,-0.20523824,-0.2376524
1732437751866,2024-11-24T08:42:31.866Z,47337,0.019921292,-0.22172041,-0.32107395
1732437751869,2024-11-24T08:42:31.869Z,47340,0.019921292,-0.22172041,-0.32107395
1732437751877,2024-11-24T08:42:31.877Z,47348,0.041809272,-0.16290009,-0.34351143
1732437751880,2024-11-24T08:42:31.880Z,47351,0.041809272,-0.16290009,-0.34351143
1732437751887,2024-11-24T08:42:31.887Z,47358,-0.084426746,-0.05311952,-0.32169876
1732437751889,2024-11-24T08:42:31.889Z,47360,-0.084426746,-0.05311952,-0.32169876
1732437751897,2024-11-24T08:42:31.897Z,47368,-0.025070753,-0.042891104,-0.34522897
1732437751900,2024-11-24T08:42:31.900Z,47371,-0.025070753,-0.042891104,-0.34522897
1732437751907,2024-11-24T08:42:31.907Z,47378,-0.009287838,-0.07374309,-0.3544474
1732437751909,2024-11-24T08:42:31.909Z,47380,-0.009287838,-0.07374309,-0.3544474
1732437751917,2024-11-24T08:42:31.917Z,47388,0.08616872,-0.18845649,-0.26424766
1732437751919,2024-11-24T08:42:31.919Z,47390,0.08616872,-0.18845649,-0.26424766
1732437751925,2024-11-24T08:42:31.925Z,47396,0.07418741,-0.1870696,-0.31525934
1732437751927,2024-11-24T08:42:31.927Z,47398,0.07418741,-0.1870696,-0.31525934
1732437751934,2024-11-24T08:42:31.934Z,47405,0.01739837,-0.13107441,-0.36808124
1732437751937,2024-11-24T08:42:31.937Z,47408,0.01739837,-0.13107441,-0.36808124
1732437751944,2024-11-24T08:42:31.944Z,47415,-0.008806024,-0.117230564,-0.38260722
1732437751947,2024-11-24T08:42:31.947Z,47418,-0.008806024,-0.117230564,-0.38260722
1732437751954,2024-11-24T08:42:31.954Z,47425,-0.003228454,-0.12130986,-0.33791503
1732437751956,2024-11-24T08:42:31.956Z,47427,-0.003228454,-0.12130986,-0.33791503
1732437751963,2024-11-24T08:42:31.963Z,47434,0.02331001,-0.11524248,-0.3187245
1732437751966,2024-11-24T08:42:31.966Z,47437,0.02331001,-0.11524248,-0.3187245
1732437751974,2024-11-24T08:42:31.974Z,47445,0.0666635,-0.17053373,-0.3503002
1732437751979,2024-11-24T08:42:31.979Z,47450,0.0666635,-0.17053373,-0.3503002
1732437751984,2024-11-24T08:42:31.984Z,47455,0.043156322,-0.16301674,-0.3138598
1732437751986,2024-11-24T08:42:31.986Z,47457,0.043156322,-0.16301674,-0.3138598
1732437751997,2024-11-24T08:42:31.997Z,47468,0.005112458,-0.12391581,-0.28401145
1732437752000,2024-11-24T08:42:32Z,47471,0.005112458,-0.12391581,-0.28401145
1732437752006,2024-11-24T08:42:32.006Z,47477,0.047182817,-0.101539545,-0.328094
1732437752008,2024-11-24T08:42:32.008Z,47479,0.047182817,-0.101539545,-0.328094
1732437752016,2024-11-24T08:42:32.016Z,47487,0.041282237,-0.15388756,-0.3278588
1732437752018,2024-11-24T08:42:32.018Z,47489,0.041282237,-0.15388756,-0.3278588
1732437752043,2024-11-24T08:42:32.043Z,47514,0.014366016,-0.17021136,-0.31798217
1732437752046,2024-11-24T08:42:32.046Z,47517,0.014366016,-0.17021136,-0.31798217
1732437752054,2024-11-24T08:42:32.054Z,47525,0.042706575,-0.1607531,-0.35100207
1732437752056,2024-11-24T08:42:32.056Z,47527,0.042706575,-0.1607531,-0.35100207
1732437752065,2024-11-24T08:42:32.065Z,47536,0.045406953,-0.15653585,-0.3527009
1732437752067,2024-11-24T08:42:32.067Z,47538,0.045406953,-0.15653585,-0.3527009
1732437752075,2024-11-24T08:42:32.075Z,47546,0.029307421,-0.13701084,-0.37652057
1732437752077,2024-11-24T08:42:32.077Z,47548,0.029307421,-0.13701084,-0.37652057
1732437752094,2024-11-24T08:42:32.094Z,47565,-0.040293425,-0.134744,-0.4653238
1732437752096,2024-11-24T08:42:32.096Z,47567,-0.040293425,-0.134744,-0.4653238
1732437752104,2024-11-24T08:42:32.104Z,47575,-0.0039722286,-0.1406823,-0.45948097
1732437752107,2024-11-24T08:42:32.107Z,47578,-0.0039722286,-0.1406823,-0.45948097
1732437752115,2024-11-24T08:42:32.115Z,47586,0.07377326,-0.17833637,-0.38943124
1732437752117,2024-11-24T08:42:32.117Z,47588,0.07377326,-0.17833637,-0.38943124
1732437752136,2024-11-24T08:42:32.136Z,47607,0.051150985,-0.22246626,-0.38717297
1732437752138,2024-11-24T08:42:32.138Z,47609,0.051150985,-0.22246626,-0.38717297
1732437752146,2024-11-24T08:42:32.146Z,47617,8.6533447E-4,-0.22677578,-0.43084326
1732437752149,2024-11-24T08:42:32.149Z,47620,8.6533447E-4,-0.22677578,-0.43084326
1732437752157,2024-11-24T08:42:32.157Z,47628,0.038633525,-0.16046116,-0.41759944
1732437752159,2024-11-24T08:42:32.159Z,47630,0.038633525,-0.16046116,-0.41759944
1732437752180,2024-11-24T08:42:32.180Z,47651,0.031695656,-0.049445797,-0.3876183
1732437752183,2024-11-24T08:42:32.183Z,47654,0.031695656,-0.049445797,-0.3876183
1732437752191,2024-11-24T08:42:32.191Z,47662,0.05464918,-0.07839138,-0.39185762
1732437752193,2024-11-24T08:42:32.193Z,47664,0.05464918,-0.07839138,-0.39185762
1732437752201,2024-11-24T08:42:32.201Z,47672,0.04467701,-0.11737279,-0.39839557
1732437752204,2024-11-24T08:42:32.204Z,47675,0.04467701,-0.11737279,-0.39839557
1732437752227,2024-11-24T08:42:32.227Z,47698,0.05007343,-0.18805608,-0.31711438
1732437752231,2024-11-24T08:42:32.231Z,47702,0.05007343,-0.18805608,-0.31711438
1732437752240,2024-11-24T08:42:32.240Z,47711,0.07990329,-0.18660533,-0.29142478
1732437752243,2024-11-24T08:42:32.243Z,47714,0.07990329,-0.18660533,-0.29142478
1732437752253,2024-11-24T08:42:32.253Z,47724,0.089149535,-0.14069225,-0.34148672
1732437752256,2024-11-24T08:42:32.256Z,47727,0.089149535,-0.14069225,-0.34148672
1732437752272,2024-11-24T08:42:32.272Z,47743,0.013518769,-0.08920338,-0.36381724
1732437752274,2024-11-24T08:42:32.274Z,47745,0.013518769,-0.08920338,-0.36381724
1732437752284,2024-11-24T08:42:32.284Z,47755,0.011165253,-0.101093665,-0.30671415
1732437752286,2024-11-24T08:42:32.286Z,47757,0.011165253,-0.101093665,-0.30671415
1732437752313,2024-11-24T08:42:32.313Z,47784,0.022425396,-0.09175575,-0.28541625
1732437752316,2024-11-24T08:42:32.316Z,47787,0.022425396,-0.09175575,-0.28541625
1732437752325,2024-11-24T08:42:32.325Z,47796,0.09474264,-0.1495363,-0.37546697
1732437752328,2024-11-24T08:42:32.328Z,47799,0.09474264,-0.1495363,-0.37546697
1732437752337,2024-11-24T08:42:32.337Z,47808,0.119054034,-0.16933092,-0.3712192
1732437752339,2024-11-24T08:42:32.339Z,47810,0.119054034,-0.16933092,-0.3712192
1732437752363,2024-11-24T08:42:32.363Z,47834,0.11618715,-0.14254536,-0.3215363
1732437752370,2024-11-24T08:42:32.370Z,47841,0.11618715,-0.14254536,-0.3215363
1732437752391,2024-11-24T08:42:32.391Z,47862,0.10740135,-0.16764957,-0.3151073
1732437752396,2024-11-24T08:42:32.396Z,47867,0.10740135,-0.16764957,-0.3151073
1732437752415,2024-11-24T08:42:32.415Z,47886,0.09072198,-0.1441377,-0.35235962
1732437752419,2024-11-24T08:42:32.419Z,47890,0.09072198,-0.1441377,-0.35235962
1732437752432,2024-11-24T08:42:32.432Z,47903,0.074814074,-0.12243088,-0.36039343
1732437752436,2024-11-24T08:42:32.436Z,47907,0.074814074,-0.12243088,-0.36039343
1732437752447,2024-11-24T08:42:32.447Z,47918,0.11883313,-0.19590683,-0.35842097
1732437752451,2024-11-24T08:42:32.451Z,47922,0.11883313,-0.19590683,-0.35842097
1732437752461,2024-11-24T08:42:32.461Z,47932,0.13512239,-0.21219155,-0.33601195
1732437752464,2024-11-24T08:42:32.464Z,47935,0.13512239,-0.21219155,-0.33601195
1732437752473,2024-11-24T08:42:32.473Z,47944,0.11569461,-0.18811248,-0.28691548
1732437752476,2024-11-24T08:42:32.476Z,47947,0.11569461,-0.18811248,-0.28691548
1732437752487,2024-11-24T08:42:32.487Z,47958,0.060346317,-0.13061808,-0.29282176
1732437752489,2024-11-24T08:42:32.489Z,47960,0.060346317,-0.13061808,-0.29282176
1732437752499,2024-11-24T08:42:32.499Z,47970,0.03389902,-0.112429544,-0.3230062
1732437752502,2024-11-24T08:42:32.502Z,47973,0.03389902,-0.112429544,-0.3230062
1732437752515,2024-11-24T08:42:32.515Z,47986,-0.0067432537,-0.10808413,-0.37035632
1732437752517,2024-11-24T08:42:32.517Z,47988,-0.0067432537,-0.10808413,-0.37035632
1732437752523,2024-11-24T08:42:32.523Z,47994,0.08529597,-0.15926778,-0.30443457
1732437752525,2024-11-24T08:42:32.525Z,47996,0.08529597,-0.15926778,-0.30443457
1732437752534,2024-11-24T08:42:32.534Z,48005,0.10823887,-0.15728524,-0.27253345
1732437752537,2024-11-24T08:42:32.537Z,48008,0.10823887,-0.15728524,-0.27253345
1732437752547,2024-11-24T08:42:32.547Z,48018,0.095432706,-0.13567923,-0.2781873
1732437752550,2024-11-24T08:42:32.550Z,48021,0.095432706,-0.13567923,-0.2781873
1732437752556,2024-11-24T08:42:32.556Z,48027,0.046632055,-0.1436869,-0.3607304
1732437752558,2024-11-24T08:42:32.558Z,48029,0.046632055,-0.1436869,-0.3607304
1732437752565,2024-11-24T08:42:32.565Z,48036,0.04849041,-0.11647879,-0.35329595
1732437752567,2024-11-24T08:42:32.567Z,48038,0.04849041,-0.11647879,-0.35329595
1732437752586,2024-11-24T08:42:32.586Z,48057,0.027440777,-0.10273098,-0.36514652
1732437752591,2024-11-24T08:42:32.591Z,48062,0.027440777,-0.10273098,-0.36514652
1732437752606,2024-11-24T08:42:32.606Z,48077,0.043260086,-0.12912862,-0.37214407
1732437752608,2024-11-24T08:42:32.608Z,48079,0.043260086,-0.12912862,-0.37214407
1732437752616,2024-11-24T08:42:32.616Z,48087,0.03535786,-0.113127925,-0.3577164
1732437752619,2024-11-24T08:42:32.619Z,48090,0.03535786,-0.113127925,-0.3577164
1732437752628,2024-11-24T08:42:32.628Z,48099,0.067290775,-0.09378983,-0.37087193
1732437752631,2024-11-24T08:42:32.631Z,48102,0.067290775,-0.09378983,-0.37087193
1732437752639,2024-11-24T08:42:32.639Z,48110,0.08923348,-0.119345024,-0.3968491
1732437752641,2024-11-24T08:42:32.641Z,48112,0.08923348,-0.119345024,-0.3968491
1732437752648,2024-11-24T08:42:32.648Z,48119,0.10464131,-0.14325333,-0.33578143
1732437752651,2024-11-24T08:42:32.651Z,48122,0.10464131,-0.14325333,-0.33578143
1732437752674,2024-11-24T08:42:32.674Z,48145,0.09408515,-0.15244804,-0.2726325
1732437752677,2024-11-24T08:42:32.677Z,48148,0.09408515,-0.15244804,-0.2726325
1732437752685,2024-11-24T08:42:32.685Z,48156,0.069652386,-0.14262,-0.3532981
1732437752687,2024-11-24T08:42:32.687Z,48158,0.069652386,-0.14262,-0.3532981
1732437752695,2024-11-24T08:42:32.695Z,48166,0.078608856,-0.15081754,-0.39630574
1732437752698,2024-11-24T08:42:32.698Z,48169,0.078608856,-0.15081754,-0.39630574
1732437752710,2024-11-24T08:42:32.710Z,48181,0.08058536,-0.13354431,-0.36979687
