Timestamp (ms),ISO DateTime,Elapsed Time (ms),Acceleration X,Acceleration Y,Acceleration Z
1734432257570,2024-12-17T10:44:17.570Z,73502,0.055589516,-0.6579291,-0.69370556
1734432257576,2024-12-17T10:44:17.576Z,73508,0.055589516,-0.6579291,-0.69370556
1734432257596,2024-12-17T10:44:17.596Z,73528,0.045611575,-0.65858436,-0.6954697
1734432257603,2024-12-17T10:44:17.603Z,73535,0.045611575,-0.65858436,-0.6954697
1734432257621,2024-12-17T10:44:17.621Z,73553,0.03578857,-0.6717319,-0.6946368
1734432257627,2024-12-17T10:44:17.627Z,73559,0.03578857,-0.6717319,-0.6946368
1734432257643,2024-12-17T10:44:17.643Z,73575,0.07270977,-0.6770824,-0.7083567
1734432257647,2024-12-17T10:44:17.647Z,73579,0.07270977,-0.6770824,-0.7083567
1734432257659,2024-12-17T10:44:17.659Z,73591,0.06690096,-0.6942101,-0.74591047
1734432257664,2024-12-17T10:44:17.664Z,73596,0.06690096,-0.6942101,-0.74591047
1734432257676,2024-12-17T10:44:17.676Z,73608,-0.041857906,-0.71198267,-0.74139535
1734432257680,2024-12-17T10:44:17.680Z,73612,-0.041857906,-0.71198267,-0.74139535
1734432257691,2024-12-17T10:44:17.691Z,73623,-0.05134901,-0.72936416,-0.7260486
1734432257695,2024-12-17T10:44:17.695Z,73627,-0.05134901,-0.72936416,-0.7260486
1734432257707,2024-12-17T10:44:17.707Z,73639,-0.026735375,-0.73479545,-0.7091586
1734432257711,2024-12-17T10:44:17.711Z,73643,-0.026735375,-0.73479545,-0.7091586
1734432257723,2024-12-17T10:44:17.723Z,73655,-0.02034703,-0.73907334,-0.71173257
1734432257726,2024-12-17T10:44:17.726Z,73658,-0.02034703,-0.73907334,-0.71173257
1734432257737,2024-12-17T10:44:17.737Z,73669,-0.004467952,-0.7416606,-0.73572487
1734432257741,2024-12-17T10:44:17.741Z,73673,-0.004467952,-0.7416606,-0.73572487
1734432257753,2024-12-17T10:44:17.753Z,73685,0.00822757,-0.7495501,-0.76750076
1734432257758,2024-12-17T10:44:17.758Z,73690,0.00822757,-0.7495501,-0.76750076
1734432257772,2024-12-17T10:44:17.772Z,73704,-0.0029670035,-0.7373379,-0.794843
1734432257777,2024-12-17T10:44:17.777Z,73709,-0.0029670035,-0.7373379,-0.794843
1734432257790,2024-12-17T10:44:17.790Z,73722,-0.002577879,-0.7310162,-0.80253255
1734432257793,2024-12-17T10:44:17.793Z,73725,-0.002577879,-0.7310162,-0.80253255
1734432257805,2024-12-17T10:44:17.805Z,73737,-0.0016504365,-0.73148316,-0.82780075
1734432257809,2024-12-17T10:44:17.809Z,73741,-0.0016504365,-0.73148316,-0.82780075
1734432257821,2024-12-17T10:44:17.821Z,73753,-0.028560402,-0.7213165,-0.8408992
1734432257826,2024-12-17T10:44:17.826Z,73758,-0.028560402,-0.7213165,-0.8408992
1734432257844,2024-12-17T10:44:17.844Z,73776,-0.035568208,-0.7135433,-0.8354373
1734432257848,2024-12-17T10:44:17.848Z,73780,-0.035568208,-0.7135433,-0.8354373
1734432257860,2024-12-17T10:44:17.860Z,73792,-0.015102637,-0.701518,-0.82756764
1734432257865,2024-12-17T10:44:17.865Z,73797,-0.015102637,-0.701518,-0.82756764
1734432257877,2024-12-17T10:44:17.877Z,73809,-0.014487946,-0.6776832,-0.81197166
1734432257882,2024-12-17T10:44:17.882Z,73814,-0.014487946,-0.6776832,-0.81197166
1734432257895,2024-12-17T10:44:17.895Z,73827,-0.004834184,-0.63135976,-0.78717476
1734432257899,2024-12-17T10:44:17.899Z,73831,-0.004834184,-0.63135976,-0.78717476
1734432257913,2024-12-17T10:44:17.913Z,73845,0.0017400899,-0.57998,-0.7960768
1734432257916,2024-12-17T10:44:17.916Z,73848,0.0017400899,-0.57998,-0.7960768
1734432257931,2024-12-17T10:44:17.931Z,73863,-0.06904911,-0.58957905,-0.834166
1734432257935,2024-12-17T10:44:17.935Z,73867,-0.06904911,-0.58957905,-0.834166
1734432257948,2024-12-17T10:44:17.948Z,73880,-0.16881691,-0.65210795,-0.7921033
1734432257954,2024-12-17T10:44:17.954Z,73886,-0.16881691,-0.65210795,-0.7921033
1734432257965,2024-12-17T10:44:17.965Z,73897,-0.18287723,-0.6575202,-0.6884465
1734432257970,2024-12-17T10:44:17.970Z,73902,-0.18287723,-0.6575202,-0.6884465
1734432257981,2024-12-17T10:44:17.981Z,73913,-0.0668033,-0.60229087,-0.61918366
1734432257985,2024-12-17T10:44:17.985Z,73917,-0.0668033,-0.60229087,-0.61918366
1734432258000,2024-12-17T10:44:18Z,73932,0.06336304,-0.5768803,-0.62463105
1734432258004,2024-12-17T10:44:18.004Z,73936,0.06336304,-0.5768803,-0.62463105
1734432258018,2024-12-17T10:44:18.018Z,73950,0.07765762,-0.56891906,-0.6388181
1734432258022,2024-12-17T10:44:18.022Z,73954,0.07765762,-0.56891906,-0.6388181
1734432258038,2024-12-17T10:44:18.038Z,73970,0.055676214,-0.58960366,-0.61352164
1734432258043,2024-12-17T10:44:18.043Z,73975,0.055676214,-0.58960366,-0.61352164
1734432258056,2024-12-17T10:44:18.056Z,73988,0.008745864,-0.64698386,-0.6406944
1734432258061,2024-12-17T10:44:18.061Z,73993,0.008745864,-0.64698386,-0.6406944
1734432258073,2024-12-17T10:44:18.073Z,74005,-0.014724896,-0.71002704,-0.72916657
1734432258077,2024-12-17T10:44:18.077Z,74009,-0.014724896,-0.71002704,-0.72916657
1734432258091,2024-12-17T10:44:18.091Z,74023,0.043404635,-0.7402628,-0.7583157
1734432258096,2024-12-17T10:44:18.096Z,74028,0.043404635,-0.7402628,-0.7583157
1734432258109,2024-12-17T10:44:18.109Z,74041,0.03500825,-0.7574579,-0.7286781
1734432258113,2024-12-17T10:44:18.113Z,74045,0.03500825,-0.7574579,-0.7286781
1734432258125,2024-12-17T10:44:18.125Z,74057,-0.06101011,-0.792529,-0.7553453
1734432258128,2024-12-17T10:44:18.128Z,74060,-0.06101011,-0.792529,-0.7553453
1734432258142,2024-12-17T10:44:18.142Z,74074,-0.14097875,-0.8209837,-0.83061624
1734432258147,2024-12-17T10:44:18.147Z,74079,-0.14097875,-0.8209837,-0.83061624
1734432258160,2024-12-17T10:44:18.160Z,74092,-0.17399883,-0.78184956,-0.8905184
1734432258164,2024-12-17T10:44:18.164Z,74096,-0.17399883,-0.78184956,-0.8905184
1734432258177,2024-12-17T10:44:18.177Z,74109,-0.20000567,-0.70229405,-0.8701885
1734432258181,2024-12-17T10:44:18.181Z,74113,-0.20000567,-0.70229405,-0.8701885
1734432258194,2024-12-17T10:44:18.194Z,74126,-0.20916528,-0.6391218,-0.8121374
1734432258198,2024-12-17T10:44:18.198Z,74130,-0.20916528,-0.6391218,-0.8121374
1734432258211,2024-12-17T10:44:18.211Z,74143,-0.24686651,-0.5887948,-0.79663587
1734432258215,2024-12-17T10:44:18.215Z,74147,-0.24686651,-0.5887948,-0.79663587
1734432258227,2024-12-17T10:44:18.227Z,74159,-0.30291015,-0.60449934,-0.7789692
1734432258230,2024-12-17T10:44:18.230Z,74162,-0.30291015,-0.60449934,-0.7789692
1734432258242,2024-12-17T10:44:18.242Z,74174,-0.23127067,-0.6758117,-0.76025164
1734432258246,2024-12-17T10:44:18.246Z,74178,-0.23127067,-0.6758117,-0.76025164
1734432258257,2024-12-17T10:44:18.257Z,74189,-0.083813615,-0.68032163,-0.66255814
1734432258261,2024-12-17T10:44:18.261Z,74193,-0.083813615,-0.68032163,-0.66255814
1734432258273,2024-12-17T10:44:18.273Z,74205,-0.04564105,-0.5678028,-0.62866205
1734432258277,2024-12-17T10:44:18.277Z,74209,-0.04564105,-0.5678028,-0.62866205
1734432258289,2024-12-17T10:44:18.289Z,74221,-0.07208983,-0.4493384,-0.6944631
1734432258293,2024-12-17T10:44:18.293Z,74225,-0.07208983,-0.4493384,-0.6944631
1734432258305,2024-12-17T10:44:18.305Z,74237,-0.035506953,-0.39051148,-0.76390284
1734432258310,2024-12-17T10:44:18.310Z,74242,-0.035506953,-0.39051148,-0.76390284
1734432258323,2024-12-17T10:44:18.323Z,74255,-0.040279068,-0.2992268,-0.7864967
1734432258328,2024-12-17T10:44:18.328Z,74260,-0.040279068,-0.2992268,-0.7864967
1734432258342,2024-12-17T10:44:18.342Z,74274,-0.14917313,-0.22251825,-0.8679287
1734432258346,2024-12-17T10:44:18.346Z,74278,-0.14917313,-0.22251825,-0.8679287
1734432258357,2024-12-17T10:44:18.357Z,74289,-0.28715256,-0.27049938,-0.95181733
1734432258360,2024-12-17T10:44:18.360Z,74292,-0.28715256,-0.27049938,-0.95181733
1734432258372,2024-12-17T10:44:18.372Z,74304,-0.33393776,-0.33169582,-1.047878
1734432258375,2024-12-17T10:44:18.375Z,74307,-0.33393776,-0.33169582,-1.047878
1734432258388,2024-12-17T10:44:18.388Z,74320,-0.41950184,-0.28650865,-1.0715212
1734432258393,2024-12-17T10:44:18.393Z,74325,-0.41950184,-0.28650865,-1.0715212
1734432258406,2024-12-17T10:44:18.406Z,74338,-0.47908378,-0.29425314,-1.0832356
1734432258410,2024-12-17T10:44:18.410Z,74342,-0.47908378,-0.29425314,-1.0832356
1734432258424,2024-12-17T10:44:18.424Z,74356,-0.404758,-0.30811706,-1.0588306
1734432258429,2024-12-17T10:44:18.429Z,74361,-0.404758,-0.30811706,-1.0588306
1734432258440,2024-12-17T10:44:18.440Z,74372,-0.31066293,-0.2496868,-0.99108917
1734432258442,2024-12-17T10:44:18.442Z,74374,-0.31066293,-0.2496868,-0.99108917
1734432258453,2024-12-17T10:44:18.453Z,74385,-0.27633852,-0.17255284,-0.9059638
1734432258458,2024-12-17T10:44:18.458Z,74390,-0.27633852,-0.17255284,-0.9059638
1734432258472,2024-12-17T10:44:18.472Z,74404,-0.20777091,-0.16289751,-0.89637595
1734432258478,2024-12-17T10:44:18.478Z,74410,-0.20777091,-0.16289751,-0.89637595
1734432258493,2024-12-17T10:44:18.493Z,74425,-0.14073792,-0.21794489,-0.83911127
1734432258496,2024-12-17T10:44:18.496Z,74428,-0.14073792,-0.21794489,-0.83911127
1734432258508,2024-12-17T10:44:18.508Z,74440,-0.17041843,-0.23989412,-0.78362703
1734432258510,2024-12-17T10:44:18.510Z,74442,-0.17041843,-0.23989412,-0.78362703
1734432258522,2024-12-17T10:44:18.522Z,74454,-0.28046694,-0.3232288,-0.85487074
1734432258526,2024-12-17T10:44:18.526Z,74458,-0.28046694,-0.3232288,-0.85487074
1734432258536,2024-12-17T10:44:18.536Z,74468,-0.33463863,-0.4717491,-0.89399123
1734432258540,2024-12-17T10:44:18.540Z,74472,-0.33463863,-0.4717491,-0.89399123
1734432258552,2024-12-17T10:44:18.552Z,74484,-0.30160633,-0.5289894,-0.86116636
1734432258556,2024-12-17T10:44:18.556Z,74488,-0.30160633,-0.5289894,-0.86116636
1734432258568,2024-12-17T10:44:18.568Z,74500,-0.28626165,-0.38742638,-0.89410746
1734432258571,2024-12-17T10:44:18.571Z,74503,-0.28626165,-0.38742638,-0.89410746
1734432258582,2024-12-17T10:44:18.582Z,74514,-0.25758025,-0.3181857,-0.9425506
1734432258586,2024-12-17T10:44:18.586Z,74518,-0.25758025,-0.3181857,-0.9425506
1734432258599,2024-12-17T10:44:18.599Z,74531,-0.1742875,-0.33507773,-0.8798348
1734432258603,2024-12-17T10:44:18.603Z,74535,-0.1742875,-0.33507773,-0.8798348
1734432258615,2024-12-17T10:44:18.615Z,74547,-0.21105732,-0.31344458,-0.8814352
1734432258618,2024-12-17T10:44:18.618Z,74550,-0.21105732,-0.31344458,-0.8814352
1734432258630,2024-12-17T10:44:18.630Z,74562,-0.20315254,-0.34097534,-0.9083591
1734432258633,2024-12-17T10:44:18.633Z,74565,-0.20315254,-0.34097534,-0.9083591
1734432258644,2024-12-17T10:44:18.644Z,74576,-0.21508102,-0.393502,-0.83927965
1734432258648,2024-12-17T10:44:18.648Z,74580,-0.21508102,-0.393502,-0.83927965
1734432258658,2024-12-17T10:44:18.658Z,74590,-0.31804264,-0.42127818,-0.78838676
1734432258662,2024-12-17T10:44:18.662Z,74594,-0.31804264,-0.42127818,-0.78838676
1734432258674,2024-12-17T10:44:18.674Z,74606,-0.34539762,-0.3973952,-0.80977696
1734432258678,2024-12-17T10:44:18.678Z,74610,-0.34539762,-0.3973952,-0.80977696
1734432258689,2024-12-17T10:44:18.689Z,74621,-0.3333953,-0.34497672,-0.70981944
1734432258693,2024-12-17T10:44:18.693Z,74625,-0.3333953,-0.34497672,-0.70981944
1734432258705,2024-12-17T10:44:18.705Z,74637,-0.31605133,-0.38205525,-0.6106691
1734432258709,2024-12-17T10:44:18.709Z,74641,-0.31605133,-0.38205525,-0.6106691
1734432258721,2024-12-17T10:44:18.721Z,74653,-0.29829672,-0.48206967,-0.64205116
1734432258725,2024-12-17T10:44:18.725Z,74657,-0.29829672,-0.48206967,-0.64205116
1734432258737,2024-12-17T10:44:18.737Z,74669,-0.19816177,-0.4630534,-0.6226
1734432258741,2024-12-17T10:44:18.741Z,74673,-0.19816177,-0.4630534,-0.6226
1734432258752,2024-12-17T10:44:18.752Z,74684,-0.16398467,-0.35340607,-0.63771397
1734432258755,2024-12-17T10:44:18.755Z,74687,-0.16398467,-0.35340607,-0.63771397
1734432258767,2024-12-17T10:44:18.767Z,74699,-0.17410688,-0.31563452,-0.6383316
1734432258770,2024-12-17T10:44:18.770Z,74702,-0.17410688,-0.31563452,-0.6383316
1734432258780,2024-12-17T10:44:18.780Z,74712,-0.25981542,-0.3551451,-0.6424235
1734432258784,2024-12-17T10:44:18.784Z,74716,-0.25981542,-0.3551451,-0.6424235
1734432258795,2024-12-17T10:44:18.795Z,74727,-0.2680335,-0.4332059,-0.7469448
1734432258798,2024-12-17T10:44:18.798Z,74730,-0.2680335,-0.4332059,-0.7469448
1734432258810,2024-12-17T10:44:18.810Z,74742,-0.20173998,-0.5605324,-0.73136187
1734432258813,2024-12-17T10:44:18.813Z,74745,-0.20173998,-0.5605324,-0.73136187
1734432258826,2024-12-17T10:44:18.826Z,74758,-0.30002528,-0.56663567,-0.7071274
1734432258829,2024-12-17T10:44:18.829Z,74761,-0.30002528,-0.56663567,-0.7071274
1734432258841,2024-12-17T10:44:18.841Z,74773,-0.2266055,-0.55027753,-0.82173705
1734432258845,2024-12-17T10:44:18.845Z,74777,-0.2266055,-0.55027753,-0.82173705
1734432258855,2024-12-17T10:44:18.855Z,74787,-0.07156435,-0.47542182,-0.80059785
1734432258859,2024-12-17T10:44:18.859Z,74791,-0.07156435,-0.47542182,-0.80059785
1734432258870,2024-12-17T10:44:18.870Z,74802,-0.20475264,-0.41815063,-0.79401535
1734432258874,2024-12-17T10:44:18.874Z,74806,-0.20475264,-0.41815063,-0.79401535
1734432258885,2024-12-17T10:44:18.885Z,74817,-0.2792825,-0.5493322,-0.81545573
1734432258889,2024-12-17T10:44:18.889Z,74821,-0.2792825,-0.5493322,-0.81545573
1734432258901,2024-12-17T10:44:18.901Z,74833,-0.11799956,-0.55267423,-0.8398157
1734432258905,2024-12-17T10:44:18.905Z,74837,-0.11799956,-0.55267423,-0.8398157
1734432258918,2024-12-17T10:44:18.918Z,74850,-0.16979387,-0.3866587,-0.8075294
1734432258922,2024-12-17T10:44:18.922Z,74854,-0.16979387,-0.3866587,-0.8075294
1734432258937,2024-12-17T10:44:18.937Z,74869,-0.22869898,-0.38547483,-0.7646169
1734432258940,2024-12-17T10:44:18.940Z,74872,-0.22869898,-0.38547483,-0.7646169
1734432258951,2024-12-17T10:44:18.951Z,74883,-0.2804007,-0.4873547,-0.7357489
1734432258954,2024-12-17T10:44:18.954Z,74886,-0.2804007,-0.4873547,-0.7357489
1734432258964,2024-12-17T10:44:18.964Z,74896,-0.3594477,-0.5406837,-0.7015878
1734432258968,2024-12-17T10:44:18.968Z,74900,-0.3594477,-0.5406837,-0.7015878
1734432258979,2024-12-17T10:44:18.979Z,74911,-0.31071645,-0.54297036,-0.71147233
1734432258982,2024-12-17T10:44:18.982Z,74914,-0.31071645,-0.54297036,-0.71147233
1734432258992,2024-12-17T10:44:18.992Z,74924,-0.34860116,-0.55883145,-0.60747635
1734432258996,2024-12-17T10:44:18.996Z,74928,-0.34860116,-0.55883145,-0.60747635
1734432259006,2024-12-17T10:44:19.006Z,74938,-0.2777949,-0.5970248,-0.59753275
1734432259009,2024-12-17T10:44:19.009Z,74941,-0.2777949,-0.5970248,-0.59753275
1734432259020,2024-12-17T10:44:19.020Z,74952,-0.2579891,-0.54497725,-0.6360892
1734432259023,2024-12-17T10:44:19.023Z,74955,-0.2579891,-0.54497725,-0.6360892
1734432259039,2024-12-17T10:44:19.039Z,74971,-0.24621594,-0.5626213,-0.67464554
1734432259042,2024-12-17T10:44:19.042Z,74974,-0.24621594,-0.5626213,-0.67464554
1734432259052,2024-12-17T10:44:19.052Z,74984,-0.117332295,-0.63608944,-0.64911383
1734432259055,2024-12-17T10:44:19.055Z,74987,-0.117332295,-0.63608944,-0.64911383
1734432259069,2024-12-17T10:44:19.069Z,75001,-0.08419226,-0.642728,-0.6887397
1734432259074,2024-12-17T10:44:19.074Z,75006,-0.08419226,-0.642728,-0.6887397
1734432259083,2024-12-17T10:44:19.083Z,75015,-0.18106547,-0.58325773,-0.7067295
1734432259086,2024-12-17T10:44:19.086Z,75018,-0.18106547,-0.58325773,-0.7067295
1734432259095,2024-12-17T10:44:19.095Z,75027,-0.27312452,-0.7058932,-0.6559093
1734432259097,2024-12-17T10:44:19.097Z,75029,-0.27312452,-0.7058932,-0.6559093
1734432259107,2024-12-17T10:44:19.107Z,75039,-0.2304129,-0.82459897,-0.7231135
1734432259110,2024-12-17T10:44:19.110Z,75042,-0.2304129,-0.82459897,-0.7231135
1734432259123,2024-12-17T10:44:19.123Z,75055,-0.30972424,-0.7540629,-0.6431265
1734432259126,2024-12-17T10:44:19.126Z,75058,-0.30972424,-0.7540629,-0.6431265
1734432259135,2024-12-17T10:44:19.135Z,75067,-0.34262797,-0.77359533,-0.58351403
1734432259138,2024-12-17T10:44:19.138Z,75070,-0.34262797,-0.77359533,-0.58351403
1734432259148,2024-12-17T10:44:19.148Z,75080,-0.22604118,-0.8448766,-0.5851633
1734432259153,2024-12-17T10:44:19.153Z,75085,-0.22604118,-0.8448766,-0.5851633
1734432259164,2024-12-17T10:44:19.164Z,75096,-0.16752851,-0.8367056,-0.5517577
1734432259168,2024-12-17T10:44:19.168Z,75100,-0.16752851,-0.8367056,-0.5517577
1734432259179,2024-12-17T10:44:19.179Z,75111,-0.19843881,-0.79682404,-0.52772784
1734432259182,2024-12-17T10:44:19.182Z,75114,-0.19843881,-0.79682404,-0.52772784
1734432259191,2024-12-17T10:44:19.191Z,75123,-0.27846065,-0.8118284,-0.4954259
1734432259194,2024-12-17T10:44:19.194Z,75126,-0.27846065,-0.8118284,-0.4954259
1734432259202,2024-12-17T10:44:19.202Z,75134,-0.29165533,-0.8766505,-0.5206809
1734432259205,2024-12-17T10:44:19.205Z,75137,-0.29165533,-0.8766505,-0.5206809
1734432259216,2024-12-17T10:44:19.216Z,75148,-0.29304326,-0.9173385,-0.5057398
1734432259221,2024-12-17T10:44:19.221Z,75153,-0.29304326,-0.9173385,-0.5057398
1734432259232,2024-12-17T10:44:19.232Z,75164,-0.2611163,-0.9404629,-0.60252255
1734432259234,2024-12-17T10:44:19.234Z,75166,-0.2611163,-0.9404629,-0.60252255
1734432259244,2024-12-17T10:44:19.244Z,75176,-0.20261148,-0.9114494,-0.68356264
1734432259247,2024-12-17T10:44:19.247Z,75179,-0.20261148,-0.9114494,-0.68356264
1734432259262,2024-12-17T10:44:19.262Z,75194,-0.17214465,-0.8771114,-0.70269006
1734432259265,2024-12-17T10:44:19.265Z,75197,-0.17214465,-0.8771114,-0.70269006
1734432259275,2024-12-17T10:44:19.275Z,75207,-0.1282862,-0.7962177,-0.6690949
1734432259278,2024-12-17T10:44:19.278Z,75210,-0.1282862,-0.7962177,-0.6690949
1734432259287,2024-12-17T10:44:19.287Z,75219,-0.13248421,-0.8035615,-0.71585613
1734432259290,2024-12-17T10:44:19.290Z,75222,-0.13248421,-0.8035615,-0.71585613
1734432259301,2024-12-17T10:44:19.301Z,75233,-0.29624984,-0.9155486,-0.6974542
1734432259305,2024-12-17T10:44:19.305Z,75237,-0.29624984,-0.9155486,-0.6974542
1734432259314,2024-12-17T10:44:19.314Z,75246,-0.3136331,-1.0190067,-0.7058721
1734432259317,2024-12-17T10:44:19.317Z,75249,-0.3136331,-1.0190067,-0.7058721
1734432259327,2024-12-17T10:44:19.327Z,75259,-0.23478219,-1.105446,-0.68931097
1734432259331,2024-12-17T10:44:19.331Z,75263,-0.23478219,-1.105446,-0.68931097
1734432259342,2024-12-17T10:44:19.342Z,75274,-0.15037106,-1.1547713,-0.72087014
1734432259346,2024-12-17T10:44:19.346Z,75278,-0.15037106,-1.1547713,-0.72087014
1734432259357,2024-12-17T10:44:19.357Z,75289,-0.22930425,-1.1011628,-0.6321699
1734432259360,2024-12-17T10:44:19.360Z,75292,-0.22930425,-1.1011628,-0.6321699
1734432259370,2024-12-17T10:44:19.370Z,75302,-0.20657678,-1.0534089,-0.5634373
1734432259373,2024-12-17T10:44:19.373Z,75305,-0.20657678,-1.0534089,-0.5634373
1734432259384,2024-12-17T10:44:19.384Z,75316,-0.10858071,-1.0208964,-0.53062665
1734432259387,2024-12-17T10:44:19.387Z,75319,-0.10858071,-1.0208964,-0.53062665
1734432259396,2024-12-17T10:44:19.396Z,75328,-0.037156098,-1.0576528,-0.53091043
1734432259399,2024-12-17T10:44:19.399Z,75331,-0.037156098,-1.0576528,-0.53091043
1734432259408,2024-12-17T10:44:19.408Z,75340,-0.017335748,-1.0973821,-0.4876548
1734432259411,2024-12-17T10:44:19.411Z,75343,-0.017335748,-1.0973821,-0.4876548
1734432259421,2024-12-17T10:44:19.421Z,75353,-0.0077343783,-1.1573368,-0.56778353
1734432259425,2024-12-17T10:44:19.425Z,75357,-0.0077343783,-1.1573368,-0.56778353
1734432259436,2024-12-17T10:44:19.436Z,75368,-0.12986366,-1.1220632,-0.5892532
1734432259440,2024-12-17T10:44:19.440Z,75372,-0.12986366,-1.1220632,-0.5892532
1734432259450,2024-12-17T10:44:19.450Z,75382,-0.24659468,-1.0704132,-0.6691807
1734432259454,2024-12-17T10:44:19.454Z,75386,-0.24659468,-1.0704132,-0.6691807
1734432259465,2024-12-17T10:44:19.465Z,75397,-0.15556826,-1.0872823,-0.72385854
1734432259469,2024-12-17T10:44:19.469Z,75401,-0.15556826,-1.0872823,-0.72385854
1734432259480,2024-12-17T10:44:19.480Z,75412,-0.020259859,-1.229172,-0.62681144
1734432259484,2024-12-17T10:44:19.484Z,75416,-0.020259859,-1.229172,-0.62681144
1734432259495,2024-12-17T10:44:19.495Z,75427,0.04275023,-1.2397891,-0.595186
1734432259498,2024-12-17T10:44:19.498Z,75430,0.04275023,-1.2397891,-0.595186
1734432259508,2024-12-17T10:44:19.508Z,75440,-0.13777009,-1.2394491,-0.7471956
1734432259511,2024-12-17T10:44:19.511Z,75443,-0.13777009,-1.2394491,-0.7471956
1734432259522,2024-12-17T10:44:19.522Z,75454,-0.15152532,-1.299416,-0.78780085
1734432259526,2024-12-17T10:44:19.526Z,75458,-0.15152532,-1.299416,-0.78780085
1734432259538,2024-12-17T10:44:19.538Z,75470,-0.02369559,-1.2026111,-0.59297025
1734432259545,2024-12-17T10:44:19.545Z,75477,-0.02369559,-1.2026111,-0.59297025
1734432259556,2024-12-17T10:44:19.556Z,75488,-0.0141081335,-1.1350882,-0.470351
1734432259559,2024-12-17T10:44:19.559Z,75491,-0.0141081335,-1.1350882,-0.470351
1734432259570,2024-12-17T10:44:19.570Z,75502,-0.12688094,-1.1844524,-0.573847
1734432259573,2024-12-17T10:44:19.573Z,75505,-0.12688094,-1.1844524,-0.573847
1734432259583,2024-12-17T10:44:19.583Z,75515,-0.25064588,-1.261635,-0.6652534
1734432259586,2024-12-17T10:44:19.586Z,75518,-0.25064588,-1.261635,-0.6652534
1734432259596,2024-12-17T10:44:19.596Z,75528,-0.19683631,-1.2747576,-0.7121962
1734432259598,2024-12-17T10:44:19.598Z,75530,-0.19683631,-1.2747576,-0.7121962
1734432259609,2024-12-17T10:44:19.609Z,75541,-0.045519758,-1.2110277,-0.6921629
1734432259612,2024-12-17T10:44:19.612Z,75544,-0.045519758,-1.2110277,-0.6921629
1734432259623,2024-12-17T10:44:19.623Z,75555,-0.011942585,-1.1287737,-0.5373426
1734432259626,2024-12-17T10:44:19.626Z,75558,-0.011942585,-1.1287737,-0.5373426
1734432259635,2024-12-17T10:44:19.635Z,75567,-0.025158744,-1.1732396,-0.46364337
1734432259639,2024-12-17T10:44:19.639Z,75571,-0.025158744,-1.1732396,-0.46364337
1734432259649,2024-12-17T10:44:19.649Z,75581,-0.054366626,-1.2790179,-0.54085934
1734432259655,2024-12-17T10:44:19.655Z,75587,-0.054366626,-1.2790179,-0.54085934
1734432259665,2024-12-17T10:44:19.665Z,75597,-0.06706431,-1.2792379,-0.553625
1734432259669,2024-12-17T10:44:19.669Z,75601,-0.06706431,-1.2792379,-0.553625
1734432259680,2024-12-17T10:44:19.680Z,75612,-0.03641408,-1.2355485,-0.5502908
1734432259683,2024-12-17T10:44:19.683Z,75615,-0.03641408,-1.2355485,-0.5502908
1734432259695,2024-12-17T10:44:19.695Z,75627,-0.06547396,-1.194454,-0.56406826
1734432259698,2024-12-17T10:44:19.698Z,75630,-0.06547396,-1.194454,-0.56406826
1734432259707,2024-12-17T10:44:19.707Z,75639,-0.053535353,-1.1519939,-0.6340174
1734432259710,2024-12-17T10:44:19.710Z,75642,-0.053535353,-1.1519939,-0.6340174
1734432259719,2024-12-17T10:44:19.719Z,75651,4.948328E-4,-1.0590836,-0.65660137
1734432259722,2024-12-17T10:44:19.722Z,75654,4.948328E-4,-1.0590836,-0.65660137
1734432259731,2024-12-17T10:44:19.731Z,75663,0.12932077,-1.0042377,-0.6127742
1734432259734,2024-12-17T10:44:19.734Z,75666,0.12932077,-1.0042377,-0.6127742
1734432259745,2024-12-17T10:44:19.745Z,75677,0.15666837,-1.0108714,-0.5630951
1734432259748,2024-12-17T10:44:19.748Z,75680,0.15666837,-1.0108714,-0.5630951
1734432259758,2024-12-17T10:44:19.758Z,75690,0.043184828,-1.0283877,-0.5296104
1734432259761,2024-12-17T10:44:19.761Z,75693,0.043184828,-1.0283877,-0.5296104
1734432259773,2024-12-17T10:44:19.773Z,75705,0.011415575,-1.0721053,-0.5699267
1734432259776,2024-12-17T10:44:19.776Z,75708,0.011415575,-1.0721053,-0.5699267
1734432259787,2024-12-17T10:44:19.787Z,75719,0.014893628,-1.0822518,-0.6381241
1734432259791,2024-12-17T10:44:19.791Z,75723,0.014893628,-1.0822518,-0.6381241
1734432259800,2024-12-17T10:44:19.800Z,75732,-0.04080938,-1.0425934,-0.6477476
1734432259803,2024-12-17T10:44:19.803Z,75735,-0.04080938,-1.0425934,-0.6477476
1734432259813,2024-12-17T10:44:19.813Z,75745,-0.08015287,-1.0066984,-0.6094391
1734432259817,2024-12-17T10:44:19.817Z,75749,-0.08015287,-1.0066984,-0.6094391
1734432259828,2024-12-17T10:44:19.828Z,75760,-0.05196905,-1.0084326,-0.56954193
1734432259831,2024-12-17T10:44:19.831Z,75763,-0.05196905,-1.0084326,-0.56954193
1734432259844,2024-12-17T10:44:19.844Z,75776,-0.079190865,-1.0379082,-0.5544768
1734432259847,2024-12-17T10:44:19.847Z,75779,-0.079190865,-1.0379082,-0.5544768
1734432259857,2024-12-17T10:44:19.857Z,75789,-0.14660937,-1.0399102,-0.5423133
1734432259860,2024-12-17T10:44:19.860Z,75792,-0.14660937,-1.0399102,-0.5423133
1734432259873,2024-12-17T10:44:19.873Z,75805,-0.13363007,-1.0476439,-0.51303005
1734432259877,2024-12-17T10:44:19.877Z,75809,-0.13363007,-1.0476439,-0.51303005
1734432259890,2024-12-17T10:44:19.890Z,75822,-0.0922503,-1.1125797,-0.5437881
1734432259893,2024-12-17T10:44:19.893Z,75825,-0.0922503,-1.1125797,-0.5437881
1734432259904,2024-12-17T10:44:19.904Z,75836,-0.04041941,-1.1446632,-0.6487888
1734432259908,2024-12-17T10:44:19.908Z,75840,-0.04041941,-1.1446632,-0.6487888
1734432259917,2024-12-17T10:44:19.917Z,75849,-0.034904692,-1.071381,-0.62970173
1734432259921,2024-12-17T10:44:19.921Z,75853,-0.034904692,-1.071381,-0.62970173
1734432259934,2024-12-17T10:44:19.934Z,75866,-0.072581075,-0.9774995,-0.6358746
1734432259937,2024-12-17T10:44:19.937Z,75869,-0.072581075,-0.9774995,-0.6358746
1734432259948,2024-12-17T10:44:19.948Z,75880,-0.09616488,-0.90749896,-0.6263434
1734432259951,2024-12-17T10:44:19.951Z,75883,-0.09616488,-0.90749896,-0.6263434
1734432259962,2024-12-17T10:44:19.962Z,75894,-0.072705604,-0.89928687,-0.5361779
1734432259965,2024-12-17T10:44:19.965Z,75897,-0.072705604,-0.89928687,-0.5361779
1734432259977,2024-12-17T10:44:19.977Z,75909,0.007765601,-1.0310986,-0.50211364
1734432259980,2024-12-17T10:44:19.980Z,75912,0.007765601,-1.0310986,-0.50211364
1734432259990,2024-12-17T10:44:19.990Z,75922,8.6768664E-4,-1.172474,-0.5135061
1734432259993,2024-12-17T10:44:19.993Z,75925,8.6768664E-4,-1.172474,-0.5135061
1734432260001,2024-12-17T10:44:20.001Z,75933,-0.115511835,-1.202436,-0.59668785
1734432260005,2024-12-17T10:44:20.005Z,75937,-0.115511835,-1.202436,-0.59668785
1734432260015,2024-12-17T10:44:20.015Z,75947,-0.17734769,-1.0729992,-0.652951
1734432260017,2024-12-17T10:44:20.017Z,75949,-0.17734769,-1.0729992,-0.652951
1734432260027,2024-12-17T10:44:20.027Z,75959,-0.16066173,-0.9055789,-0.61048627
1734432260030,2024-12-17T10:44:20.030Z,75962,-0.16066173,-0.9055789,-0.61048627
1734432260042,2024-12-17T10:44:20.042Z,75974,-0.10937058,-0.854552,-0.5781635
1734432260046,2024-12-17T10:44:20.046Z,75978,-0.10937058,-0.854552,-0.5781635
1734432260060,2024-12-17T10:44:20.060Z,75992,-0.048575822,-0.87791854,-0.613086
1734432260063,2024-12-17T10:44:20.063Z,75995,-0.048575822,-0.87791854,-0.613086
1734432260075,2024-12-17T10:44:20.075Z,76007,-0.058537558,-0.8559289,-0.58502316
1734432260078,2024-12-17T10:44:20.078Z,76010,-0.058537558,-0.8559289,-0.58502316
1734432260089,2024-12-17T10:44:20.089Z,76021,-0.14322177,-0.8083813,-0.6097255
1734432260093,2024-12-17T10:44:20.093Z,76025,-0.14322177,-0.8083813,-0.6097255
1734432260104,2024-12-17T10:44:20.104Z,76036,-0.24275465,-0.866483,-0.5640635
1734432260108,2024-12-17T10:44:20.108Z,76040,-0.24275465,-0.866483,-0.5640635
1734432260120,2024-12-17T10:44:20.120Z,76052,-0.29668993,-1.0034931,-0.5411867
1734432260123,2024-12-17T10:44:20.123Z,76055,-0.29668993,-1.0034931,-0.5411867
1734432260133,2024-12-17T10:44:20.133Z,76065,-0.2726409,-1.1260446,-0.50690395
1734432260137,2024-12-17T10:44:20.137Z,76069,-0.2726409,-1.1260446,-0.50690395
1734432260148,2024-12-17T10:44:20.148Z,76080,-0.16494901,-1.1367277,-0.46415684
1734432260151,2024-12-17T10:44:20.151Z,76083,-0.16494901,-1.1367277,-0.46415684
1734432260163,2024-12-17T10:44:20.163Z,76095,-0.1307411,-1.0225159,-0.47993508
1734432260166,2024-12-17T10:44:20.166Z,76098,-0.1307411,-1.0225159,-0.47993508
1734432260175,2024-12-17T10:44:20.175Z,76107,-0.12407323,-0.8241609,-0.60555744
1734432260177,2024-12-17T10:44:20.177Z,76109,-0.12407323,-0.8241609,-0.60555744
1734432260188,2024-12-17T10:44:20.188Z,76120,-0.15590459,-0.5757322,-0.67737293
1734432260191,2024-12-17T10:44:20.191Z,76123,-0.15590459,-0.5757322,-0.67737293
1734432260201,2024-12-17T10:44:20.201Z,76133,-0.20782197,-0.4406658,-0.6090449
1734432260204,2024-12-17T10:44:20.204Z,76136,-0.20782197,-0.4406658,-0.6090449
1734432260212,2024-12-17T10:44:20.212Z,76144,-0.19072509,-0.53026617,-0.50845206
1734432260215,2024-12-17T10:44:20.215Z,76147,-0.19072509,-0.53026617,-0.50845206
1734432260224,2024-12-17T10:44:20.224Z,76156,-0.18862109,-0.8275579,-0.41853398
1734432260227,2024-12-17T10:44:20.227Z,76159,-0.18862109,-0.8275579,-0.41853398
1734432260235,2024-12-17T10:44:20.235Z,76167,-0.21582088,-1.0869308,-0.38663003
1734432260238,2024-12-17T10:44:20.238Z,76170,-0.21582088,-1.0869308,-0.38663003
1734432260247,2024-12-17T10:44:20.247Z,76179,-0.21402544,-1.1311228,-0.45672914
1734432260250,2024-12-17T10:44:20.250Z,76182,-0.21402544,-1.1311228,-0.45672914
1734432260261,2024-12-17T10:44:20.261Z,76193,-0.25083888,-1.0297754,-0.5833757
1734432260264,2024-12-17T10:44:20.264Z,76196,-0.25083888,-1.0297754,-0.5833757
1734432260275,2024-12-17T10:44:20.275Z,76207,-0.33273947,-0.78837204,-0.7207934
1734432260278,2024-12-17T10:44:20.278Z,76210,-0.33273947,-0.78837204,-0.7207934
1734432260287,2024-12-17T10:44:20.287Z,76219,-0.32721514,-0.4909406,-0.73328596
1734432260291,2024-12-17T10:44:20.291Z,76223,-0.32721514,-0.4909406,-0.73328596
1734432260299,2024-12-17T10:44:20.299Z,76231,-0.12070389,-0.3893223,-0.6882083
1734432260302,2024-12-17T10:44:20.302Z,76234,-0.12070389,-0.3893223,-0.6882083
1734432260311,2024-12-17T10:44:20.311Z,76243,-0.030501606,-0.4665607,-0.6475645
1734432260314,2024-12-17T10:44:20.314Z,76246,-0.030501606,-0.4665607,-0.6475645
1734432260325,2024-12-17T10:44:20.325Z,76257,-0.17606154,-0.6708155,-0.6012176
1734432260328,2024-12-17T10:44:20.328Z,76260,-0.17606154,-0.6708155,-0.6012176
1734432260340,2024-12-17T10:44:20.340Z,76272,-0.23444912,-0.93300194,-0.54602736
1734432260343,2024-12-17T10:44:20.343Z,76275,-0.23444912,-0.93300194,-0.54602736
1734432260352,2024-12-17T10:44:20.352Z,76284,-0.17903666,-1.1378646,-0.5493396
1734432260355,2024-12-17T10:44:20.355Z,76287,-0.17903666,-1.1378646,-0.5493396
1734432260365,2024-12-17T10:44:20.365Z,76297,-0.17443413,-1.1776344,-0.64365005
1734432260369,2024-12-17T10:44:20.369Z,76301,-0.17443413,-1.1776344,-0.64365005
1734432260381,2024-12-17T10:44:20.381Z,76313,-0.4075352,-0.98010224,-0.73338175
1734432260384,2024-12-17T10:44:20.384Z,76316,-0.4075352,-0.98010224,-0.73338175
1734432260393,2024-12-17T10:44:20.393Z,76325,-0.3356701,-0.7545502,-0.64141196
1734432260396,2024-12-17T10:44:20.396Z,76328,-0.3356701,-0.7545502,-0.64141196
1734432260404,2024-12-17T10:44:20.404Z,76336,-0.030244859,-0.5339469,-0.601005
1734432260407,2024-12-17T10:44:20.407Z,76339,-0.030244859,-0.5339469,-0.601005
1734432260416,2024-12-17T10:44:20.416Z,76348,0.0519989,-0.38210148,-0.6306834
1734432260419,2024-12-17T10:44:20.419Z,76351,0.0519989,-0.38210148,-0.6306834
1734432260430,2024-12-17T10:44:20.430Z,76362,-0.10665147,-0.4519711,-0.7189564
1734432260433,2024-12-17T10:44:20.433Z,76365,-0.10665147,-0.4519711,-0.7189564
1734432260441,2024-12-17T10:44:20.441Z,76373,-0.3945453,-0.71997446,-0.7570915
1734432260444,2024-12-17T10:44:20.444Z,76376,-0.3945453,-0.71997446,-0.7570915
1734432260452,2024-12-17T10:44:20.452Z,76384,-0.46908242,-1.0726686,-0.7343908
1734432260455,2024-12-17T10:44:20.455Z,76387,-0.46908242,-1.0726686,-0.7343908
1734432260464,2024-12-17T10:44:20.464Z,76396,-0.35828456,-1.1831743,-0.7281854
1734432260466,2024-12-17T10:44:20.466Z,76398,-0.35828456,-1.1831743,-0.7281854
1734432260478,2024-12-17T10:44:20.478Z,76410,-0.30436167,-0.98575145,-0.6671243
1734432260482,2024-12-17T10:44:20.482Z,76414,-0.30436167,-0.98575145,-0.6671243
1734432260491,2024-12-17T10:44:20.491Z,76423,-0.21899869,-0.7484039,-0.66396236
1734432260494,2024-12-17T10:44:20.494Z,76426,-0.21899869,-0.7484039,-0.66396236
1734432260504,2024-12-17T10:44:20.504Z,76436,-0.17803052,-0.5961148,-0.6808741
1734432260508,2024-12-17T10:44:20.508Z,76440,-0.17803052,-0.5961148,-0.6808741
1734432260519,2024-12-17T10:44:20.519Z,76451,-0.023269039,-0.48476562,-0.7150586
1734432260523,2024-12-17T10:44:20.523Z,76455,-0.023269039,-0.48476562,-0.7150586
1734432260536,2024-12-17T10:44:20.536Z,76468,0.023615975,-0.40254807,-0.7147024
1734432260539,2024-12-17T10:44:20.539Z,76471,0.023615975,-0.40254807,-0.7147024
1734432260549,2024-12-17T10:44:20.549Z,76481,-0.2469437,-0.47469804,-0.7894141
1734432260552,2024-12-17T10:44:20.552Z,76484,-0.2469437,-0.47469804,-0.7894141
1734432260563,2024-12-17T10:44:20.563Z,76495,-0.39953327,-0.6955051,-0.75946194
1734432260567,2024-12-17T10:44:20.567Z,76499,-0.39953327,-0.6955051,-0.75946194
1734432260577,2024-12-17T10:44:20.577Z,76509,-0.28397325,-0.8820444,-0.72716844
1734432260580,2024-12-17T10:44:20.580Z,76512,-0.28397325,-0.8820444,-0.72716844
1734432260588,2024-12-17T10:44:20.588Z,76520,-0.23160866,-0.80957323,-0.69616526
1734432260592,2024-12-17T10:44:20.592Z,76524,-0.23160866,-0.80957323,-0.69616526
1734432260600,2024-12-17T10:44:20.600Z,76532,-0.22304223,-0.7586131,-0.7824102
1734432260602,2024-12-17T10:44:20.602Z,76534,-0.22304223,-0.7586131,-0.7824102
1734432260611,2024-12-17T10:44:20.611Z,76543,-0.12879778,-0.7451867,-0.8582603
1734432260615,2024-12-17T10:44:20.615Z,76547,-0.12879778,-0.7451867,-0.8582603
1734432260627,2024-12-17T10:44:20.627Z,76559,0.003643021,-0.5553356,-0.88482547
1734432260631,2024-12-17T10:44:20.631Z,76563,0.003643021,-0.5553356,-0.88482547
1734432260645,2024-12-17T10:44:20.645Z,76577,-0.03045277,-0.34073693,-0.81590307
1734432260649,2024-12-17T10:44:20.649Z,76581,-0.03045277,-0.34073693,-0.81590307
1734432260659,2024-12-17T10:44:20.659Z,76591,-0.13777493,-0.3984541,-0.8060293
1734432260662,2024-12-17T10:44:20.662Z,76594,-0.13777493,-0.3984541,-0.8060293
1734432260671,2024-12-17T10:44:20.671Z,76603,-0.27094287,-0.58680767,-0.8789738
1734432260674,2024-12-17T10:44:20.674Z,76606,-0.27094287,-0.58680767,-0.8789738
1734432260683,2024-12-17T10:44:20.683Z,76615,-0.45586145,-0.67995954,-0.89924175
1734432260686,2024-12-17T10:44:20.686Z,76618,-0.45586145,-0.67995954,-0.89924175
1734432260698,2024-12-17T10:44:20.698Z,76630,-0.5000458,-0.7775416,-0.798998
1734432260701,2024-12-17T10:44:20.701Z,76633,-0.5000458,-0.7775416,-0.798998
1734432260713,2024-12-17T10:44:20.713Z,76645,-0.40607578,-0.78157854,-0.731784
1734432260716,2024-12-17T10:44:20.716Z,76648,-0.40607578,-0.78157854,-0.731784
1734432260726,2024-12-17T10:44:20.726Z,76658,-0.39287028,-0.5786811,-0.78351974
1734432260729,2024-12-17T10:44:20.729Z,76661,-0.39287028,-0.5786811,-0.78351974
1734432260741,2024-12-17T10:44:20.741Z,76673,-0.24210641,-0.45104477,-0.8395265
1734432260744,2024-12-17T10:44:20.744Z,76676,-0.24210641,-0.45104477,-0.8395265
1734432260756,2024-12-17T10:44:20.756Z,76688,0.04080856,-0.46761057,-0.8077995
1734432260759,2024-12-17T10:44:20.759Z,76691,0.04080856,-0.46761057,-0.8077995
1734432260769,2024-12-17T10:44:20.769Z,76701,0.016972546,-0.4351685,-0.8183626
1734432260773,2024-12-17T10:44:20.773Z,76705,0.016972546,-0.4351685,-0.8183626
1734432260783,2024-12-17T10:44:20.783Z,76715,-0.22032627,-0.48509318,-0.89375687
1734432260785,2024-12-17T10:44:20.785Z,76717,-0.22032627,-0.48509318,-0.89375687
1734432260795,2024-12-17T10:44:20.795Z,76727,-0.46885312,-0.67155695,-0.9788993
1734432260798,2024-12-17T10:44:20.798Z,76730,-0.46885312,-0.67155695,-0.9788993
1734432260809,2024-12-17T10:44:20.809Z,76741,-0.55836135,-0.79114175,-0.9747173
1734432260812,2024-12-17T10:44:20.812Z,76744,-0.55836135,-0.79114175,-0.9747173
1734432260820,2024-12-17T10:44:20.820Z,76752,-0.4891439,-0.7945258,-0.86214244
1734432260823,2024-12-17T10:44:20.823Z,76755,-0.4891439,-0.7945258,-0.86214244
1734432260833,2024-12-17T10:44:20.833Z,76765,-0.1814398,-0.6341315,-0.70678717
1734432260836,2024-12-17T10:44:20.836Z,76768,-0.1814398,-0.6341315,-0.70678717
1734432260846,2024-12-17T10:44:20.846Z,76778,0.12788561,-0.38754383,-0.68537205
1734432260849,2024-12-17T10:44:20.849Z,76781,0.12788561,-0.38754383,-0.68537205
1734432260857,2024-12-17T10:44:20.857Z,76789,0.17625652,-0.25463554,-0.74452627
1734432260860,2024-12-17T10:44:20.860Z,76792,0.17625652,-0.25463554,-0.74452627
1734432260870,2024-12-17T10:44:20.870Z,76802,-0.00451464,-0.26443562,-0.8034259
1734432260873,2024-12-17T10:44:20.873Z,76805,-0.00451464,-0.26443562,-0.8034259
1734432260883,2024-12-17T10:44:20.883Z,76815,-0.28652728,-0.42848107,-0.85656226
1734432260886,2024-12-17T10:44:20.886Z,76818,-0.28652728,-0.42848107,-0.85656226
1734432260896,2024-12-17T10:44:20.896Z,76828,-0.49902228,-0.67837733,-0.9031526
1734432260899,2024-12-17T10:44:20.899Z,76831,-0.49902228,-0.67837733,-0.9031526
1734432260911,2024-12-17T10:44:20.911Z,76843,-0.49618852,-0.6722257,-0.8902781
1734432260914,2024-12-17T10:44:20.914Z,76846,-0.49618852,-0.6722257,-0.8902781
1734432260922,2024-12-17T10:44:20.922Z,76854,-0.42764732,-0.62071127,-0.7791856
1734432260925,2024-12-17T10:44:20.925Z,76857,-0.42764732,-0.62071127,-0.7791856
1734432260934,2024-12-17T10:44:20.934Z,76866,-0.30197898,-0.67151153,-0.7002899
1734432260937,2024-12-17T10:44:20.937Z,76869,-0.30197898,-0.67151153,-0.7002899
1734432260947,2024-12-17T10:44:20.947Z,76879,-0.19264247,-0.53607285,-0.8046256
1734432260950,2024-12-17T10:44:20.950Z,76882,-0.19264247,-0.53607285,-0.8046256
1734432260961,2024-12-17T10:44:20.961Z,76893,-0.036977798,-0.38247073,-0.7644426
1734432260965,2024-12-17T10:44:20.965Z,76897,-0.036977798,-0.38247073,-0.7644426
1734432260976,2024-12-17T10:44:20.976Z,76908,-0.011141185,-0.28524315,-0.7040287
1734432260979,2024-12-17T10:44:20.979Z,76911,-0.011141185,-0.28524315,-0.7040287
1734432260990,2024-12-17T10:44:20.990Z,76922,-0.08966637,-0.31240463,-0.81115484
1734432260994,2024-12-17T10:44:20.994Z,76926,-0.08966637,-0.31240463,-0.81115484
1734432261006,2024-12-17T10:44:21.006Z,76938,-0.15545759,-0.40272892,-0.8171622
1734432261009,2024-12-17T10:44:21.009Z,76941,-0.15545759,-0.40272892,-0.8171622
1734432261025,2024-12-17T10:44:21.025Z,76957,-0.3241863,-0.39246145,-0.933824
1734432261028,2024-12-17T10:44:21.028Z,76960,-0.3241863,-0.39246145,-0.933824
1734432261038,2024-12-17T10:44:21.038Z,76970,-0.33700418,-0.5521586,-0.86490726
1734432261041,2024-12-17T10:44:21.041Z,76973,-0.33700418,-0.5521586,-0.86490726
1734432261050,2024-12-17T10:44:21.050Z,76982,-0.37112442,-0.6983007,-0.9142011
1734432261053,2024-12-17T10:44:21.053Z,76985,-0.37112442,-0.6983007,-0.9142011
1734432261063,2024-12-17T10:44:21.063Z,76995,-0.39186645,-0.6000469,-0.9148164
1734432261066,2024-12-17T10:44:21.066Z,76998,-0.39186645,-0.6000469,-0.9148164
1734432261074,2024-12-17T10:44:21.074Z,77006,-0.14412479,-0.35077333,-0.80985594
1734432261077,2024-12-17T10:44:21.077Z,77009,-0.14412479,-0.35077333,-0.80985594
1734432261087,2024-12-17T10:44:21.087Z,77019,-0.057004575,-0.17082524,-0.6413916
1734432261091,2024-12-17T10:44:21.091Z,77023,-0.057004575,-0.17082524,-0.6413916
1734432261100,2024-12-17T10:44:21.100Z,77032,-0.2021523,-0.25934613,-0.6029607
1734432261104,2024-12-17T10:44:21.104Z,77036,-0.2021523,-0.25934613,-0.6029607
1734432261114,2024-12-17T10:44:21.114Z,77046,-0.048216183,-0.4380424,-0.64107704
1734432261117,2024-12-17T10:44:21.117Z,77049,-0.048216183,-0.4380424,-0.64107704
1734432261128,2024-12-17T10:44:21.128Z,77060,0.04824216,-0.51719,-0.55431646
1734432261131,2024-12-17T10:44:21.131Z,77063,0.04824216,-0.51719,-0.55431646
1734432261139,2024-12-17T10:44:21.139Z,77071,-0.14614521,-0.6110442,-0.5397301
1734432261141,2024-12-17T10:44:21.141Z,77073,-0.14614521,-0.6110442,-0.5397301
1734432261150,2024-12-17T10:44:21.150Z,77082,-0.28189838,-0.6953825,-0.61327446
1734432261152,2024-12-17T10:44:21.152Z,77084,-0.28189838,-0.6953825,-0.61327446
1734432261162,2024-12-17T10:44:21.162Z,77094,-0.2372358,-0.54447097,-0.6433986
1734432261165,2024-12-17T10:44:21.165Z,77097,-0.2372358,-0.54447097,-0.6433986
1734432261173,2024-12-17T10:44:21.173Z,77105,-0.14216661,-0.32927975,-0.6945281
1734432261176,2024-12-17T10:44:21.176Z,77108,-0.14216661,-0.32927975,-0.6945281
1734432261185,2024-12-17T10:44:21.185Z,77117,-0.101637825,-0.28921047,-0.74088335
1734432261188,2024-12-17T10:44:21.188Z,77120,-0.101637825,-0.28921047,-0.74088335
1734432261198,2024-12-17T10:44:21.198Z,77130,-0.047194704,-0.2733049,-0.8172172
1734432261201,2024-12-17T10:44:21.201Z,77133,-0.047194704,-0.2733049,-0.8172172
1734432261212,2024-12-17T10:44:21.212Z,77144,-0.12424348,-0.24307123,-0.9101336
1734432261214,2024-12-17T10:44:21.214Z,77146,-0.12424348,-0.24307123,-0.9101336
1734432261222,2024-12-17T10:44:21.222Z,77154,-0.19388376,-0.30451566,-0.9752459
1734432261225,2024-12-17T10:44:21.225Z,77157,-0.19388376,-0.30451566,-0.9752459
1734432261233,2024-12-17T10:44:21.233Z,77165,-0.2309692,-0.35578635,-0.99414676
1734432261236,2024-12-17T10:44:21.236Z,77168,-0.2309692,-0.35578635,-0.99414676
1734432261244,2024-12-17T10:44:21.244Z,77176,-0.3204695,-0.39672238,-0.9836238
1734432261248,2024-12-17T10:44:21.248Z,77180,-0.3204695,-0.39672238,-0.9836238
1734432261257,2024-12-17T10:44:21.257Z,77189,-0.37615347,-0.4666901,-0.9548184
1734432261259,2024-12-17T10:44:21.259Z,77191,-0.37615347,-0.4666901,-0.9548184
1734432261269,2024-12-17T10:44:21.269Z,77201,-0.32137775,-0.4590412,-0.8599148
1734432261271,2024-12-17T10:44:21.271Z,77203,-0.32137775,-0.4590412,-0.8599148
1734432261281,2024-12-17T10:44:21.281Z,77213,-0.2536718,-0.32731557,-0.7481543
1734432261283,2024-12-17T10:44:21.283Z,77215,-0.2536718,-0.32731557,-0.7481543
1734432261291,2024-12-17T10:44:21.291Z,77223,-0.1705386,-0.21053141,-0.6713866
1734432261294,2024-12-17T10:44:21.294Z,77226,-0.1705386,-0.21053141,-0.6713866
1734432261301,2024-12-17T10:44:21.301Z,77233,-0.08157792,-0.16558923,-0.6523928
1734432261304,2024-12-17T10:44:21.304Z,77236,-0.08157792,-0.16558923,-0.6523928
1734432261312,2024-12-17T10:44:21.312Z,77244,-0.07425366,-0.2363612,-0.61785424
1734432261315,2024-12-17T10:44:21.315Z,77247,-0.07425366,-0.2363612,-0.61785424
1734432261328,2024-12-17T10:44:21.328Z,77260,-0.1739736,-0.40288353,-0.6106876
1734432261331,2024-12-17T10:44:21.331Z,77263,-0.1739736,-0.40288353,-0.6106876
1734432261339,2024-12-17T10:44:21.339Z,77271,-0.20202218,-0.53522915,-0.6891297
1734432261342,2024-12-17T10:44:21.342Z,77274,-0.20202218,-0.53522915,-0.6891297
1734432261352,2024-12-17T10:44:21.352Z,77284,-0.17214827,-0.5834013,-0.7401693
1734432261355,2024-12-17T10:44:21.355Z,77287,-0.17214827,-0.5834013,-0.7401693
1734432261365,2024-12-17T10:44:21.365Z,77297,-0.183462,-0.5193388,-0.7971705
1734432261368,2024-12-17T10:44:21.368Z,77300,-0.183462,-0.5193388,-0.7971705
1734432261376,2024-12-17T10:44:21.376Z,77308,-0.22057131,-0.37443912,-0.76396185
1734432261378,2024-12-17T10:44:21.378Z,77310,-0.22057131,-0.37443912,-0.76396185
1734432261388,2024-12-17T10:44:21.388Z,77320,-0.099544495,-0.2724403,-0.7747579
1734432261392,2024-12-17T10:44:21.392Z,77324,-0.099544495,-0.2724403,-0.7747579
1734432261401,2024-12-17T10:44:21.401Z,77333,0.044332083,-0.15746763,-0.7754189
1734432261403,2024-12-17T10:44:21.403Z,77335,0.044332083,-0.15746763,-0.7754189
1734432261412,2024-12-17T10:44:21.412Z,77344,-0.08578978,-0.1320232,-0.7580957
1734432261416,2024-12-17T10:44:21.416Z,77348,-0.08578978,-0.1320232,-0.7580957
1734432261425,2024-12-17T10:44:21.425Z,77357,-0.17964847,-0.36289036,-0.83276516
1734432261428,2024-12-17T10:44:21.428Z,77360,-0.17964847,-0.36289036,-0.83276516
1734432261441,2024-12-17T10:44:21.441Z,77373,-0.1587916,-0.52202064,-0.79903865
1734432261444,2024-12-17T10:44:21.444Z,77376,-0.1587916,-0.52202064,-0.79903865
1734432261460,2024-12-17T10:44:21.460Z,77392,-0.28611857,-0.4662896,-0.77840656
1734432261464,2024-12-17T10:44:21.464Z,77396,-0.28611857,-0.4662896,-0.77840656
1734432261473,2024-12-17T10:44:21.473Z,77405,-0.42274958,-0.42858264,-0.81506646
1734432261477,2024-12-17T10:44:21.477Z,77409,-0.42274958,-0.42858264,-0.81506646
1734432261485,2024-12-17T10:44:21.485Z,77417,-0.39483413,-0.4119464,-0.7744438
1734432261488,2024-12-17T10:44:21.488Z,77420,-0.39483413,-0.4119464,-0.7744438
1734432261497,2024-12-17T10:44:21.497Z,77429,-0.31597728,-0.3412006,-0.7436412
1734432261500,2024-12-17T10:44:21.500Z,77432,-0.31597728,-0.3412006,-0.7436412
1734432261508,2024-12-17T10:44:21.508Z,77440,-0.28753972,-0.29236695,-0.7275189
1734432261510,2024-12-17T10:44:21.510Z,77442,-0.28753972,-0.29236695,-0.7275189
1734432261519,2024-12-17T10:44:21.519Z,77451,-0.25297824,-0.26450878,-0.792401
1734432261521,2024-12-17T10:44:21.521Z,77453,-0.25297824,-0.26450878,-0.792401
1734432261530,2024-12-17T10:44:21.530Z,77462,-0.21672638,-0.25860298,-0.8118146
1734432261533,2024-12-17T10:44:21.533Z,77465,-0.21672638,-0.25860298,-0.8118146
1734432261541,2024-12-17T10:44:21.541Z,77473,-0.21911862,-0.2947233,-0.7788901
1734432261543,2024-12-17T10:44:21.543Z,77475,-0.21911862,-0.2947233,-0.7788901
1734432261551,2024-12-17T10:44:21.551Z,77483,-0.27149957,-0.3431106,-0.845467
1734432261554,2024-12-17T10:44:21.554Z,77486,-0.27149957,-0.3431106,-0.845467
1734432261562,2024-12-17T10:44:21.562Z,77494,-0.24181093,-0.3809155,-0.84218425
1734432261565,2024-12-17T10:44:21.565Z,77497,-0.24181093,-0.3809155,-0.84218425
1734432261576,2024-12-17T10:44:21.576Z,77508,-0.19383949,-0.34501415,-0.77555466
1734432261579,2024-12-17T10:44:21.579Z,77511,-0.19383949,-0.34501415,-0.77555466
1734432261590,2024-12-17T10:44:21.590Z,77522,-0.18293697,-0.37387022,-0.6887128
1734432261593,2024-12-17T10:44:21.593Z,77525,-0.18293697,-0.37387022,-0.6887128
1734432261601,2024-12-17T10:44:21.601Z,77533,-0.10995473,-0.35842222,-0.6758446
1734432261604,2024-12-17T10:44:21.604Z,77536,-0.10995473,-0.35842222,-0.6758446
1734432261612,2024-12-17T10:44:21.612Z,77544,-0.16143063,-0.31889403,-0.66858214
1734432261615,2024-12-17T10:44:21.615Z,77547,-0.16143063,-0.31889403,-0.66858214
1734432261624,2024-12-17T10:44:21.624Z,77556,-0.2088136,-0.3344084,-0.6822073
1734432261627,2024-12-17T10:44:21.627Z,77559,-0.2088136,-0.3344084,-0.6822073
1734432261636,2024-12-17T10:44:21.636Z,77568,-0.2352854,-0.33101204,-0.728
1734432261641,2024-12-17T10:44:21.641Z,77573,-0.2352854,-0.33101204,-0.728
1734432261651,2024-12-17T10:44:21.651Z,77583,-0.3468385,-0.3723516,-0.71910477
1734432261653,2024-12-17T10:44:21.653Z,77585,-0.3468385,-0.3723516,-0.71910477
1734432261663,2024-12-17T10:44:21.663Z,77595,-0.34326357,-0.48850706,-0.75017357
1734432261666,2024-12-17T10:44:21.666Z,77598,-0.34326357,-0.48850706,-0.75017357
1734432261678,2024-12-17T10:44:21.678Z,77610,-0.24138264,-0.49779418,-0.8027829
1734432261681,2024-12-17T10:44:21.681Z,77613,-0.24138264,-0.49779418,-0.8027829
1734432261689,2024-12-17T10:44:21.689Z,77621,-0.3477866,-0.5174975,-0.7669154
1734432261692,2024-12-17T10:44:21.692Z,77624,-0.3477866,-0.5174975,-0.7669154
1734432261700,2024-12-17T10:44:21.700Z,77632,-0.33365238,-0.55039716,-0.756523
1734432261703,2024-12-17T10:44:21.703Z,77635,-0.33365238,-0.55039716,-0.756523
1734432261713,2024-12-17T10:44:21.713Z,77645,-0.19342998,-0.5888071,-0.69521934
1734432261716,2024-12-17T10:44:21.716Z,77648,-0.19342998,-0.5888071,-0.69521934
1734432261727,2024-12-17T10:44:21.727Z,77659,-0.21628624,-0.47447985,-0.5625496
1734432261730,2024-12-17T10:44:21.730Z,77662,-0.21628624,-0.47447985,-0.5625496
1734432261737,2024-12-17T10:44:21.737Z,77669,-0.2590294,-0.39369422,-0.6251314
1734432261740,2024-12-17T10:44:21.740Z,77672,-0.2590294,-0.39369422,-0.6251314
1734432261748,2024-12-17T10:44:21.748Z,77680,-0.24787322,-0.42565355,-0.60372794
1734432261751,2024-12-17T10:44:21.751Z,77683,-0.24787322,-0.42565355,-0.60372794
1734432261761,2024-12-17T10:44:21.761Z,77693,-0.2826921,-0.4014517,-0.5616898
1734432261764,2024-12-17T10:44:21.764Z,77696,-0.2826921,-0.4014517,-0.5616898
1734432261773,2024-12-17T10:44:21.773Z,77705,-0.20852914,-0.45252392,-0.6578662
1734432261777,2024-12-17T10:44:21.777Z,77709,-0.20852914,-0.45252392,-0.6578662
1734432261786,2024-12-17T10:44:21.786Z,77718,-0.20960402,-0.45404282,-0.64912945
1734432261788,2024-12-17T10:44:21.788Z,77720,-0.20960402,-0.45404282,-0.64912945
1734432261796,2024-12-17T10:44:21.796Z,77728,-0.34175888,-0.5137339,-0.6127003
1734432261798,2024-12-17T10:44:21.798Z,77730,-0.34175888,-0.5137339,-0.6127003
1734432261806,2024-12-17T10:44:21.806Z,77738,-0.41436008,-0.63557345,-0.6920163
1734432261809,2024-12-17T10:44:21.809Z,77741,-0.41436008,-0.63557345,-0.6920163
1734432261817,2024-12-17T10:44:21.817Z,77749,-0.3022276,-0.7116629,-0.6958764
1734432261819,2024-12-17T10:44:21.819Z,77751,-0.3022276,-0.7116629,-0.6958764
1734432261827,2024-12-17T10:44:21.827Z,77759,-0.21329458,-0.55643076,-0.5990512
1734432261830,2024-12-17T10:44:21.830Z,77762,-0.21329458,-0.55643076,-0.5990512
1734432261838,2024-12-17T10:44:21.838Z,77770,-0.27702853,-0.51989895,-0.6569199
1734432261842,2024-12-17T10:44:21.842Z,77774,-0.27702853,-0.51989895,-0.6569199
1734432261852,2024-12-17T10:44:21.852Z,77784,-0.26717094,-0.67014945,-0.6893822
1734432261856,2024-12-17T10:44:21.856Z,77788,-0.26717094,-0.67014945,-0.6893822
1734432261865,2024-12-17T10:44:21.865Z,77797,-0.116415225,-0.60356855,-0.58516794
1734432261869,2024-12-17T10:44:21.869Z,77801,-0.116415225,-0.60356855,-0.58516794
1734432261878,2024-12-17T10:44:21.878Z,77810,-0.13734637,-0.43715245,-0.5900277
1734432261881,2024-12-17T10:44:21.881Z,77813,-0.13734637,-0.43715245,-0.5900277
1734432261889,2024-12-17T10:44:21.889Z,77821,-0.25063372,-0.50921035,-0.6992538
1734432261892,2024-12-17T10:44:21.892Z,77824,-0.25063372,-0.50921035,-0.6992538
1734432261901,2024-12-17T10:44:21.901Z,77833,-0.17976953,-0.7195661,-0.7759367
1734432261906,2024-12-17T10:44:21.906Z,77838,-0.17976953,-0.7195661,-0.7759367
1734432261921,2024-12-17T10:44:21.921Z,77853,-0.22075902,-0.7535665,-0.74198973
1734432261925,2024-12-17T10:44:21.925Z,77857,-0.22075902,-0.7535665,-0.74198973
1734432261934,2024-12-17T10:44:21.934Z,77866,-0.28960827,-0.7275767,-0.7120519
1734432261936,2024-12-17T10:44:21.936Z,77868,-0.28960827,-0.7275767,-0.7120519
1734432261946,2024-12-17T10:44:21.946Z,77878,-0.23607233,-0.6957347,-0.7289364
1734432261948,2024-12-17T10:44:21.948Z,77880,-0.23607233,-0.6957347,-0.7289364
1734432261956,2024-12-17T10:44:21.956Z,77888,-0.29374066,-0.68159163,-0.72635555
1734432261959,2024-12-17T10:44:21.959Z,77891,-0.29374066,-0.68159163,-0.72635555
1734432261967,2024-12-17T10:44:21.967Z,77899,-0.3118564,-0.7119382,-0.6974309
1734432261970,2024-12-17T10:44:21.970Z,77902,-0.3118564,-0.7119382,-0.6974309
1734432261979,2024-12-17T10:44:21.979Z,77911,-0.16291635,-0.7732071,-0.65285563
1734432261982,2024-12-17T10:44:21.982Z,77914,-0.16291635,-0.7732071,-0.65285563
1734432261989,2024-12-17T10:44:21.989Z,77921,-0.079660445,-0.748437,-0.5179401
1734432261992,2024-12-17T10:44:21.992Z,77924,-0.079660445,-0.748437,-0.5179401
1734432262001,2024-12-17T10:44:22.001Z,77933,-0.13840297,-0.8463816,-0.5353824
1734432262004,2024-12-17T10:44:22.004Z,77936,-0.13840297,-0.8463816,-0.5353824
1734432262015,2024-12-17T10:44:22.015Z,77947,-0.23207282,-0.86057943,-0.5103961
1734432262020,2024-12-17T10:44:22.020Z,77952,-0.23207282,-0.86057943,-0.5103961
1734432262029,2024-12-17T10:44:22.029Z,77961,-0.20756465,-0.8152694,-0.44920287
1734432262032,2024-12-17T10:44:22.032Z,77964,-0.20756465,-0.8152694,-0.44920287
1734432262040,2024-12-17T10:44:22.040Z,77972,-0.15248379,-0.8521533,-0.45661867
1734432262043,2024-12-17T10:44:22.043Z,77975,-0.15248379,-0.8521533,-0.45661867
1734432262052,2024-12-17T10:44:22.052Z,77984,-0.18189082,-0.946541,-0.50497603
1734432262054,2024-12-17T10:44:22.054Z,77986,-0.18189082,-0.946541,-0.50497603
1734432262063,2024-12-17T10:44:22.063Z,77995,-0.21799624,-0.93357134,-0.40145117
1734432262066,2024-12-17T10:44:22.066Z,77998,-0.21799624,-0.93357134,-0.40145117
1734432262076,2024-12-17T10:44:22.076Z,78008,-0.17114346,-0.9286859,-0.40674978
1734432262080,2024-12-17T10:44:22.080Z,78012,-0.17114346,-0.9286859,-0.40674978
1734432262087,2024-12-17T10:44:22.087Z,78019,-0.15459242,-0.9478915,-0.55800396
1734432262089,2024-12-17T10:44:22.089Z,78021,-0.15459242,-0.9478915,-0.55800396
1734432262097,2024-12-17T10:44:22.097Z,78029,-0.29745787,-0.9809653,-0.5526221
1734432262100,2024-12-17T10:44:22.100Z,78032,-0.29745787,-0.9809653,-0.5526221
1734432262107,2024-12-17T10:44:22.107Z,78039,-0.2660214,-1.0482968,-0.5179118
1734432262110,2024-12-17T10:44:22.110Z,78042,-0.2660214,-1.0482968,-0.5179118
1734432262117,2024-12-17T10:44:22.117Z,78049,-0.09925618,-0.99987096,-0.4805559
1734432262120,2024-12-17T10:44:22.120Z,78052,-0.09925618,-0.99987096,-0.4805559
1734432262130,2024-12-17T10:44:22.130Z,78062,-0.16527249,-0.9991164,-0.5104962
1734432262132,2024-12-17T10:44:22.132Z,78064,-0.16527249,-0.9991164,-0.5104962
1734432262141,2024-12-17T10:44:22.141Z,78073,-0.19353622,-1.0530051,-0.51291806
1734432262144,2024-12-17T10:44:22.144Z,78076,-0.19353622,-1.0530051,-0.51291806
1734432262153,2024-12-17T10:44:22.153Z,78085,-0.088405795,-1.056624,-0.46918347
1734432262155,2024-12-17T10:44:22.155Z,78087,-0.088405795,-1.056624,-0.46918347
1734432262166,2024-12-17T10:44:22.166Z,78098,-0.048511602,-1.0601784,-0.38569388
1734432262168,2024-12-17T10:44:22.168Z,78100,-0.048511602,-1.0601784,-0.38569388
1734432262179,2024-12-17T10:44:22.179Z,78111,-0.081783235,-1.1189395,-0.41389197
1734432262182,2024-12-17T10:44:22.182Z,78114,-0.081783235,-1.1189395,-0.41389197
1734432262196,2024-12-17T10:44:22.196Z,78128,-0.14525755,-1.1135283,-0.5620788
1734432262199,2024-12-17T10:44:22.199Z,78131,-0.14525755,-1.1135283,-0.5620788
1734432262213,2024-12-17T10:44:22.213Z,78145,-0.26004866,-1.1100053,-0.6618549
1734432262215,2024-12-17T10:44:22.215Z,78147,-0.26004866,-1.1100053,-0.6618549
1734432262226,2024-12-17T10:44:22.226Z,78158,-0.23452298,-1.1113752,-0.6551075
1734432262230,2024-12-17T10:44:22.230Z,78162,-0.23452298,-1.1113752,-0.6551075
1734432262238,2024-12-17T10:44:22.238Z,78170,-0.1882968,-1.0918143,-0.52427685
1734432262240,2024-12-17T10:44:22.240Z,78172,-0.1882968,-1.0918143,-0.52427685
1734432262248,2024-12-17T10:44:22.248Z,78180,-0.09292605,-1.0929663,-0.58757675
1734432262251,2024-12-17T10:44:22.251Z,78183,-0.09292605,-1.0929663,-0.58757675
1734432262259,2024-12-17T10:44:22.259Z,78191,-0.06370958,-1.1713684,-0.5920565
1734432262261,2024-12-17T10:44:22.261Z,78193,-0.06370958,-1.1713684,-0.5920565
1734432262271,2024-12-17T10:44:22.271Z,78203,-0.11687503,-1.1488241,-0.44891766
1734432262274,2024-12-17T10:44:22.274Z,78206,-0.11687503,-1.1488241,-0.44891766
1734432262284,2024-12-17T10:44:22.284Z,78216,0.040293142,-1.1998854,-0.5200359
1734432262286,2024-12-17T10:44:22.286Z,78218,0.040293142,-1.1998854,-0.5200359
1734432262294,2024-12-17T10:44:22.294Z,78226,0.025174977,-1.291755,-0.5051677
1734432262297,2024-12-17T10:44:22.297Z,78229,0.025174977,-1.291755,-0.5051677
1734432262305,2024-12-17T10:44:22.305Z,78237,-0.089794956,-1.2520107,-0.58201844
1734432262309,2024-12-17T10:44:22.309Z,78241,-0.089794956,-1.2520107,-0.58201844
1734432262318,2024-12-17T10:44:22.318Z,78250,-0.10956645,-1.2075535,-0.6250756
1734432262321,2024-12-17T10:44:22.321Z,78253,-0.10956645,-1.2075535,-0.6250756
1734432262328,2024-12-17T10:44:22.328Z,78260,-0.030426415,-1.1882874,-0.47278553
1734432262331,2024-12-17T10:44:22.331Z,78263,-0.030426415,-1.1882874,-0.47278553
1734432262338,2024-12-17T10:44:22.338Z,78270,0.020876726,-1.2193604,-0.45634988
1734432262341,2024-12-17T10:44:22.341Z,78273,0.020876726,-1.2193604,-0.45634988
1734432262350,2024-12-17T10:44:22.350Z,78282,0.033902377,-1.2402819,-0.49859565
1734432262353,2024-12-17T10:44:22.353Z,78285,0.033902377,-1.2402819,-0.49859565
1734432262363,2024-12-17T10:44:22.363Z,78295,0.03836362,-1.220079,-0.43003926
1734432262366,2024-12-17T10:44:22.366Z,78298,0.03836362,-1.220079,-0.43003926
1734432262375,2024-12-17T10:44:22.375Z,78307,-0.0025342512,-1.2575543,-0.42309606
1734432262377,2024-12-17T10:44:22.377Z,78309,-0.0025342512,-1.2575543,-0.42309606
1734432262385,2024-12-17T10:44:22.385Z,78317,-0.087623216,-1.2521024,-0.48692223
1734432262387,2024-12-17T10:44:22.387Z,78319,-0.087623216,-1.2521024,-0.48692223
1734432262395,2024-12-17T10:44:22.395Z,78327,-0.23903216,-1.2164258,-0.5541266
1734432262398,2024-12-17T10:44:22.398Z,78330,-0.23903216,-1.2164258,-0.5541266
1734432262411,2024-12-17T10:44:22.411Z,78343,-0.29371133,-1.1963376,-0.6501787
1734432262414,2024-12-17T10:44:22.414Z,78346,-0.29371133,-1.1963376,-0.6501787
1734432262424,2024-12-17T10:44:22.424Z,78356,-0.18324503,-1.161185,-0.5879909
1734432262427,2024-12-17T10:44:22.427Z,78359,-0.18324503,-1.161185,-0.5879909
1734432262436,2024-12-17T10:44:22.436Z,78368,0.09821272,-1.158553,-0.41592124
1734432262438,2024-12-17T10:44:22.438Z,78370,0.09821272,-1.158553,-0.41592124
1734432262448,2024-12-17T10:44:22.448Z,78380,0.12759173,-1.1459047,-0.26883712
1734432262450,2024-12-17T10:44:22.450Z,78382,0.12759173,-1.1459047,-0.26883712
1734432262460,2024-12-17T10:44:22.460Z,78392,0.0033261757,-1.0761472,-0.19267918
1734432262462,2024-12-17T10:44:22.462Z,78394,0.0033261757,-1.0761472,-0.19267918
1734432262470,2024-12-17T10:44:22.470Z,78402,-0.039632868,-1.0640407,-0.29344472
1734432262473,2024-12-17T10:44:22.473Z,78405,-0.039632868,-1.0640407,-0.29344472
1734432262483,2024-12-17T10:44:22.483Z,78415,-0.123117626,-1.0508976,-0.39093512
1734432262485,2024-12-17T10:44:22.485Z,78417,-0.123117626,-1.0508976,-0.39093512
1734432262492,2024-12-17T10:44:22.492Z,78424,-0.16173846,-1.0287713,-0.46606064
1734432262495,2024-12-17T10:44:22.495Z,78427,-0.16173846,-1.0287713,-0.46606064
1734432262504,2024-12-17T10:44:22.504Z,78436,-0.009702028,-1.007753,-0.43136504
1734432262507,2024-12-17T10:44:22.507Z,78439,-0.009702028,-1.007753,-0.43136504
1734432262516,2024-12-17T10:44:22.516Z,78448,0.08406464,-1.0103486,-0.36695153
1734432262519,2024-12-17T10:44:22.519Z,78451,0.08406464,-1.0103486,-0.36695153
1734432262529,2024-12-17T10:44:22.529Z,78461,-0.004807532,-1.0906465,-0.40471908
1734432262532,2024-12-17T10:44:22.532Z,78464,-0.004807532,-1.0906465,-0.40471908
1734432262539,2024-12-17T10:44:22.539Z,78471,-0.11209535,-1.1226757,-0.49762744
1734432262542,2024-12-17T10:44:22.542Z,78474,-0.11209535,-1.1226757,-0.49762744
1734432262551,2024-12-17T10:44:22.551Z,78483,-0.16298313,-1.0745429,-0.62848705
1734432262554,2024-12-17T10:44:22.554Z,78486,-0.16298313,-1.0745429,-0.62848705
1734432262565,2024-12-17T10:44:22.565Z,78497,-0.23679005,-1.0903038,-0.7343422
1734432262567,2024-12-17T10:44:22.567Z,78499,-0.23679005,-1.0903038,-0.7343422
1734432262574,2024-12-17T10:44:22.574Z,78506,-0.1159203,-1.1598971,-0.6789531
1734432262577,2024-12-17T10:44:22.577Z,78509,-0.1159203,-1.1598971,-0.6789531
1734432262586,2024-12-17T10:44:22.586Z,78518,0.1339334,-1.2097634,-0.59750116
1734432262590,2024-12-17T10:44:22.590Z,78522,0.1339334,-1.2097634,-0.59750116
1734432262600,2024-12-17T10:44:22.600Z,78532,0.12686372,-1.1433592,-0.5784288
1734432262603,2024-12-17T10:44:22.603Z,78535,0.12686372,-1.1433592,-0.5784288
1734432262611,2024-12-17T10:44:22.611Z,78543,-0.02233604,-0.9550537,-0.63748646
1734432262613,2024-12-17T10:44:22.613Z,78545,-0.02233604,-0.9550537,-0.63748646
1734432262621,2024-12-17T10:44:22.621Z,78553,-0.09776656,-0.83858436,-0.58423764
1734432262624,2024-12-17T10:44:22.624Z,78556,-0.09776656,-0.83858436,-0.58423764
1734432262632,2024-12-17T10:44:22.632Z,78564,-0.05314088,-0.93912333,-0.45140132
1734432262634,2024-12-17T10:44:22.634Z,78566,-0.05314088,-0.93912333,-0.45140132
1734432262641,2024-12-17T10:44:22.641Z,78573,-0.01897399,-1.1352605,-0.40453538
1734432262644,2024-12-17T10:44:22.644Z,78576,-0.01897399,-1.1352605,-0.40453538
1734432262651,2024-12-17T10:44:22.651Z,78583,-0.036843684,-1.1706002,-0.37330014
1734432262653,2024-12-17T10:44:22.653Z,78585,-0.036843684,-1.1706002,-0.37330014
1734432262661,2024-12-17T10:44:22.661Z,78593,0.007651122,-1.0931293,-0.35910857
1734432262663,2024-12-17T10:44:22.663Z,78595,0.007651122,-1.0931293,-0.35910857
1734432262672,2024-12-17T10:44:22.672Z,78604,0.0083063645,-1.0438372,-0.42543808
1734432262676,2024-12-17T10:44:22.676Z,78608,0.0083063645,-1.0438372,-0.42543808
1734432262685,2024-12-17T10:44:22.685Z,78617,-0.025436692,-0.9297218,-0.5371492
1734432262688,2024-12-17T10:44:22.688Z,78620,-0.025436692,-0.9297218,-0.5371492
1734432262697,2024-12-17T10:44:22.697Z,78629,-0.10328671,-0.7838347,-0.56434804
1734432262699,2024-12-17T10:44:22.699Z,78631,-0.10328671,-0.7838347,-0.56434804
1734432262708,2024-12-17T10:44:22.708Z,78640,-0.15800358,-0.81931764,-0.58370084
1734432262710,2024-12-17T10:44:22.710Z,78642,-0.15800358,-0.81931764,-0.58370084
1734432262719,2024-12-17T10:44:22.719Z,78651,-0.16292933,-1.0011325,-0.5927197
1734432262722,2024-12-17T10:44:22.722Z,78654,-0.16292933,-1.0011325,-0.5927197
1734432262732,2024-12-17T10:44:22.732Z,78664,-0.1481952,-1.1296167,-0.5342613
1734432262734,2024-12-17T10:44:22.734Z,78666,-0.1481952,-1.1296167,-0.5342613
1734432262745,2024-12-17T10:44:22.745Z,78677,-0.084867336,-1.1548789,-0.48499343
1734432262748,2024-12-17T10:44:22.748Z,78680,-0.084867336,-1.1548789,-0.48499343
1734432262756,2024-12-17T10:44:22.756Z,78688,-0.077904694,-1.1049387,-0.56846285
1734432262759,2024-12-17T10:44:22.759Z,78691,-0.077904694,-1.1049387,-0.56846285
1734432262768,2024-12-17T10:44:22.768Z,78700,-0.14500086,-0.9773818,-0.7378544
1734432262770,2024-12-17T10:44:22.770Z,78702,-0.14500086,-0.9773818,-0.7378544
1734432262778,2024-12-17T10:44:22.778Z,78710,-0.30400413,-0.84839547,-0.7192371
1734432262781,2024-12-17T10:44:22.781Z,78713,-0.30400413,-0.84839547,-0.7192371
1734432262788,2024-12-17T10:44:22.788Z,78720,-0.33553928,-0.8761321,-0.55795175
1734432262790,2024-12-17T10:44:22.790Z,78722,-0.33553928,-0.8761321,-0.55795175
1734432262798,2024-12-17T10:44:22.798Z,78730,-0.0723177,-0.9703931,-0.48297796
1734432262801,2024-12-17T10:44:22.801Z,78733,-0.0723177,-0.9703931,-0.48297796
1734432262808,2024-12-17T10:44:22.808Z,78740,0.16555285,-0.95579946,-0.44702092
1734432262812,2024-12-17T10:44:22.812Z,78744,0.16555285,-0.95579946,-0.44702092
1734432262820,2024-12-17T10:44:22.820Z,78752,0.04749987,-0.8638605,-0.39889246
1734432262822,2024-12-17T10:44:22.822Z,78754,0.04749987,-0.8638605,-0.39889246
1734432262829,2024-12-17T10:44:22.829Z,78761,-0.21004128,-0.84407926,-0.4347366
1734432262832,2024-12-17T10:44:22.832Z,78764,-0.21004128,-0.84407926,-0.4347366
1734432262838,2024-12-17T10:44:22.838Z,78770,-0.26775375,-0.84885633,-0.52310133
1734432262841,2024-12-17T10:44:22.841Z,78773,-0.26775375,-0.84885633,-0.52310133
1734432262850,2024-12-17T10:44:22.850Z,78782,-0.18141055,-0.78364086,-0.59323
1734432262852,2024-12-17T10:44:22.852Z,78784,-0.18141055,-0.78364086,-0.59323
1734432262861,2024-12-17T10:44:22.861Z,78793,-0.29766908,-0.75203544,-0.50990295
1734432262864,2024-12-17T10:44:22.864Z,78796,-0.29766908,-0.75203544,-0.50990295
1734432262879,2024-12-17T10:44:22.879Z,78811,-0.3333748,-0.8556589,-0.522067
1734432262882,2024-12-17T10:44:22.882Z,78814,-0.3333748,-0.8556589,-0.522067
1734432262889,2024-12-17T10:44:22.889Z,78821,-0.21364297,-0.9625449,-0.5857421
1734432262891,2024-12-17T10:44:22.891Z,78823,-0.21364297,-0.9625449,-0.5857421
1734432262899,2024-12-17T10:44:22.899Z,78831,-0.11825013,-0.92740244,-0.6236161
1734432262902,2024-12-17T10:44:22.902Z,78834,-0.11825013,-0.92740244,-0.6236161
1734432262911,2024-12-17T10:44:22.911Z,78843,-0.08328607,-0.8830392,-0.61326414
1734432262913,2024-12-17T10:44:22.913Z,78845,-0.08328607,-0.8830392,-0.61326414
1734432262921,2024-12-17T10:44:22.921Z,78853,-0.05000459,-0.8037195,-0.5747044
1734432262924,2024-12-17T10:44:22.924Z,78856,-0.05000459,-0.8037195,-0.5747044
1734432262933,2024-12-17T10:44:22.933Z,78865,-0.1527059,-0.65402114,-0.6705968
1734432262935,2024-12-17T10:44:22.935Z,78867,-0.1527059,-0.65402114,-0.6705968
1734432262943,2024-12-17T10:44:22.943Z,78875,-0.3634131,-0.5737847,-0.6811848
1734432262946,2024-12-17T10:44:22.946Z,78878,-0.3634131,-0.5737847,-0.6811848
1734432262954,2024-12-17T10:44:22.954Z,78886,-0.41618493,-0.5934034,-0.66670036
1734432262956,2024-12-17T10:44:22.956Z,78888,-0.41618493,-0.5934034,-0.66670036
1734432262963,2024-12-17T10:44:22.963Z,78895,-0.23798786,-0.7633207,-0.5619964
1734432262966,2024-12-17T10:44:22.966Z,78898,-0.23798786,-0.7633207,-0.5619964
1734432262975,2024-12-17T10:44:22.975Z,78907,-0.051855423,-1.0058861,-0.45594573
1734432262978,2024-12-17T10:44:22.978Z,78910,-0.051855423,-1.0058861,-0.45594573
1734432262986,2024-12-17T10:44:22.986Z,78918,-0.059812948,-1.1217164,-0.47488233
1734432262988,2024-12-17T10:44:22.988Z,78920,-0.059812948,-1.1217164,-0.47488233
1734432262996,2024-12-17T10:44:22.996Z,78928,-0.062182486,-1.0890517,-0.5540816
1734432262998,2024-12-17T10:44:22.998Z,78930,-0.062182486,-1.0890517,-0.5540816
1734432263005,2024-12-17T10:44:23.005Z,78937,-0.051984537,-0.808835,-0.65766597
1734432263008,2024-12-17T10:44:23.008Z,78940,-0.051984537,-0.808835,-0.65766597
1734432263019,2024-12-17T10:44:23.019Z,78951,-0.3254566,-0.48572662,-0.76950794
1734432263021,2024-12-17T10:44:23.021Z,78953,-0.3254566,-0.48572662,-0.76950794
1734432263029,2024-12-17T10:44:23.029Z,78961,-0.4913616,-0.47941032,-0.70293796
1734432263031,2024-12-17T10:44:23.031Z,78963,-0.4913616,-0.47941032,-0.70293796
1734432263038,2024-12-17T10:44:23.038Z,78970,-0.26517755,-0.7025766,-0.65274477
1734432263040,2024-12-17T10:44:23.040Z,78972,-0.26517755,-0.7025766,-0.65274477
1734432263047,2024-12-17T10:44:23.047Z,78979,-0.017431002,-0.76437426,-0.56528085
1734432263050,2024-12-17T10:44:23.050Z,78982,-0.017431002,-0.76437426,-0.56528085
1734432263056,2024-12-17T10:44:23.056Z,78988,0.009715527,-0.76649606,-0.44813603
1734432263059,2024-12-17T10:44:23.059Z,78991,0.009715527,-0.76649606,-0.44813603
1734432263067,2024-12-17T10:44:23.067Z,78999,-0.10037544,-0.8946988,-0.48386207
1734432263070,2024-12-17T10:44:23.070Z,79002,-0.10037544,-0.8946988,-0.48386207
1734432263081,2024-12-17T10:44:23.081Z,79013,-0.16379152,-0.9440148,-0.58340365
1734432263084,2024-12-17T10:44:23.084Z,79016,-0.16379152,-0.9440148,-0.58340365
1734432263093,2024-12-17T10:44:23.093Z,79025,-0.1430917,-0.8595591,-0.6676943
1734432263096,2024-12-17T10:44:23.096Z,79028,-0.1430917,-0.8595591,-0.6676943
1734432263104,2024-12-17T10:44:23.104Z,79036,-0.28890827,-0.67261285,-0.7860069
1734432263106,2024-12-17T10:44:23.106Z,79038,-0.28890827,-0.67261285,-0.7860069
1734432263114,2024-12-17T10:44:23.114Z,79046,-0.39813465,-0.46395227,-0.77850187
1734432263116,2024-12-17T10:44:23.116Z,79048,-0.39813465,-0.46395227,-0.77850187
1734432263123,2024-12-17T10:44:23.123Z,79055,-0.22191457,-0.3974066,-0.6793261
1734432263126,2024-12-17T10:44:23.126Z,79058,-0.22191457,-0.3974066,-0.6793261
1734432263134,2024-12-17T10:44:23.134Z,79066,0.016433641,-0.51824,-0.66755265
1734432263136,2024-12-17T10:44:23.136Z,79068,0.016433641,-0.51824,-0.66755265
1734432263145,2024-12-17T10:44:23.145Z,79077,-0.099765606,-0.6748719,-0.64890796
1734432263147,2024-12-17T10:44:23.147Z,79079,-0.099765606,-0.6748719,-0.64890796
1734432263155,2024-12-17T10:44:23.155Z,79087,-0.22836384,-0.881138,-0.61908597
1734432263158,2024-12-17T10:44:23.158Z,79090,-0.22836384,-0.881138,-0.61908597
1734432263168,2024-12-17T10:44:23.168Z,79100,-0.15786414,-0.9975968,-0.63415927
1734432263170,2024-12-17T10:44:23.170Z,79102,-0.15786414,-0.9975968,-0.63415927
1734432263180,2024-12-17T10:44:23.180Z,79112,-0.15447792,-0.8359824,-0.58865625
1734432263183,2024-12-17T10:44:23.183Z,79115,-0.15447792,-0.8359824,-0.58865625
1734432263191,2024-12-17T10:44:23.191Z,79123,-0.17542265,-0.5376695,-0.6801986
1734432263194,2024-12-17T10:44:23.194Z,79126,-0.17542265,-0.5376695,-0.6801986
1734432263203,2024-12-17T10:44:23.203Z,79135,-0.32176605,-0.39891142,-0.8292716
1734432263206,2024-12-17T10:44:23.206Z,79138,-0.32176605,-0.39891142,-0.8292716
1734432263216,2024-12-17T10:44:23.216Z,79148,-0.35705382,-0.5168555,-0.8437059
1734432263218,2024-12-17T10:44:23.218Z,79150,-0.35705382,-0.5168555,-0.8437059
1734432263226,2024-12-17T10:44:23.226Z,79158,-0.22495088,-0.47900286,-0.7776028
1734432263228,2024-12-17T10:44:23.228Z,79160,-0.22495088,-0.47900286,-0.7776028
1734432263237,2024-12-17T10:44:23.237Z,79169,-0.17641833,-0.41410148,-0.6949286
1734432263239,2024-12-17T10:44:23.239Z,79171,-0.17641833,-0.41410148,-0.6949286
1734432263246,2024-12-17T10:44:23.246Z,79178,-0.18060753,-0.5812512,-0.7052035
1734432263249,2024-12-17T10:44:23.249Z,79181,-0.18060753,-0.5812512,-0.7052035
1734432263258,2024-12-17T10:44:23.258Z,79190,-0.20697686,-0.74060476,-0.6999769
1734432263260,2024-12-17T10:44:23.260Z,79192,-0.20697686,-0.74060476,-0.6999769
1734432263270,2024-12-17T10:44:23.270Z,79202,-0.20720011,-0.6943889,-0.7455101
1734432263273,2024-12-17T10:44:23.273Z,79205,-0.20720011,-0.6943889,-0.7455101
1734432263283,2024-12-17T10:44:23.283Z,79215,-0.295765,-0.5980027,-0.7981452
1734432263286,2024-12-17T10:44:23.286Z,79218,-0.295765,-0.5980027,-0.7981452
1734432263295,2024-12-17T10:44:23.295Z,79227,-0.3749709,-0.67158073,-0.74807835
1734432263299,2024-12-17T10:44:23.299Z,79231,-0.3749709,-0.67158073,-0.74807835
1734432263310,2024-12-17T10:44:23.310Z,79242,-0.2534249,-0.73241055,-0.8416228
1734432263316,2024-12-17T10:44:23.316Z,79248,-0.2534249,-0.73241055,-0.8416228
1734432263326,2024-12-17T10:44:23.326Z,79258,-0.23168619,-0.5644366,-0.9449332
1734432263329,2024-12-17T10:44:23.329Z,79261,-0.23168619,-0.5644366,-0.9449332
1734432263336,2024-12-17T10:44:23.336Z,79268,0.048936363,-0.4414284,-0.8204216
1734432263338,2024-12-17T10:44:23.338Z,79270,0.048936363,-0.4414284,-0.8204216
1734432263345,2024-12-17T10:44:23.345Z,79277,0.25660565,-0.20582446,-0.82674134
1734432263348,2024-12-17T10:44:23.348Z,79280,0.25660565,-0.20582446,-0.82674134
1734432263355,2024-12-17T10:44:23.355Z,79287,0.03622978,-0.20848475,-0.6803543
1734432263357,2024-12-17T10:44:23.357Z,79289,0.03622978,-0.20848475,-0.6803543
1734432263364,2024-12-17T10:44:23.364Z,79296,-0.06561509,-0.7258542,-0.594997
1734432263367,2024-12-17T10:44:23.367Z,79299,-0.06561509,-0.7258542,-0.594997
1734432263376,2024-12-17T10:44:23.376Z,79308,-0.3262446,-0.98674756,-0.6939979
1734432263379,2024-12-17T10:44:23.379Z,79311,-0.3262446,-0.98674756,-0.6939979
1734432263387,2024-12-17T10:44:23.387Z,79319,-0.72293174,-0.8463558,-0.7481669
1734432263390,2024-12-17T10:44:23.390Z,79322,-0.72293174,-0.8463558,-0.7481669
1734432263401,2024-12-17T10:44:23.401Z,79333,-0.6828392,-0.61246437,-0.8052988
1734432263403,2024-12-17T10:44:23.403Z,79335,-0.6828392,-0.61246437,-0.8052988
1734432263412,2024-12-17T10:44:23.412Z,79344,-0.32494846,-0.3304585,-0.6244508
1734432263414,2024-12-17T10:44:23.414Z,79346,-0.32494846,-0.3304585,-0.6244508
1734432263421,2024-12-17T10:44:23.421Z,79353,-0.3125677,-0.13112262,-0.6545586
1734432263423,2024-12-17T10:44:23.423Z,79355,-0.3125677,-0.13112262,-0.6545586
1734432263430,2024-12-17T10:44:23.430Z,79362,-0.21967082,-0.4305983,-0.7626491
1734432263433,2024-12-17T10:44:23.433Z,79365,-0.21967082,-0.4305983,-0.7626491
1734432263440,2024-12-17T10:44:23.440Z,79372,-0.050008863,-0.6417567,-0.798549
1734432263443,2024-12-17T10:44:23.443Z,79375,-0.050008863,-0.6417567,-0.798549
1734432263450,2024-12-17T10:44:23.450Z,79382,-0.1800672,-0.6407334,-0.7777541
1734432263453,2024-12-17T10:44:23.453Z,79385,-0.1800672,-0.6407334,-0.7777541
1734432263464,2024-12-17T10:44:23.464Z,79396,-0.15988213,-0.76805407,-0.83695227
1734432263467,2024-12-17T10:44:23.467Z,79399,-0.15988213,-0.76805407,-0.83695227
1734432263476,2024-12-17T10:44:23.476Z,79408,-0.25976786,-0.65621716,-0.74326485
1734432263480,2024-12-17T10:44:23.480Z,79412,-0.25976786,-0.65621716,-0.74326485
1734432263488,2024-12-17T10:44:23.488Z,79420,-0.48155552,-0.3408032,-0.8562782
1734432263490,2024-12-17T10:44:23.490Z,79422,-0.48155552,-0.3408032,-0.8562782
1734432263498,2024-12-17T10:44:23.498Z,79430,-0.10239744,-0.19225322,-0.9014948
1734432263500,2024-12-17T10:44:23.500Z,79432,-0.10239744,-0.19225322,-0.9014948
1734432263507,2024-12-17T10:44:23.507Z,79439,0.14683287,-0.28663763,-0.6588809
1734432263509,2024-12-17T10:44:23.509Z,79441,0.14683287,-0.28663763,-0.6588809
1734432263519,2024-12-17T10:44:23.519Z,79451,0.20206988,-0.35003364,-0.5679232
1734432263521,2024-12-17T10:44:23.521Z,79453,0.20206988,-0.35003364,-0.5679232
1734432263530,2024-12-17T10:44:23.530Z,79462,0.17666093,-0.39581814,-0.68020695
1734432263533,2024-12-17T10:44:23.533Z,79465,0.17666093,-0.39581814,-0.68020695
1734432263542,2024-12-17T10:44:23.542Z,79474,0.12368028,-0.51827294,-0.71503067
1734432263545,2024-12-17T10:44:23.545Z,79477,0.12368028,-0.51827294,-0.71503067
1734432263553,2024-12-17T10:44:23.553Z,79485,0.047455158,-0.45093188,-0.69873863
1734432263555,2024-12-17T10:44:23.555Z,79487,0.047455158,-0.45093188,-0.69873863
1734432263562,2024-12-17T10:44:23.562Z,79494,-0.20760952,-0.46864402,-0.7246909
1734432263565,2024-12-17T10:44:23.565Z,79497,-0.20760952,-0.46864402,-0.7246909
1734432263574,2024-12-17T10:44:23.574Z,79506,-0.31135768,-0.62824047,-0.8215101
1734432263577,2024-12-17T10:44:23.577Z,79509,-0.31135768,-0.62824047,-0.8215101
1734432263584,2024-12-17T10:44:23.584Z,79516,-0.34232908,-0.5854932,-0.93068445
1734432263587,2024-12-17T10:44:23.587Z,79519,-0.34232908,-0.5854932,-0.93068445
1734432263596,2024-12-17T10:44:23.596Z,79528,-0.2811638,-0.43375134,-0.8019996
1734432263600,2024-12-17T10:44:23.600Z,79532,-0.2811638,-0.43375134,-0.8019996
1734432263607,2024-12-17T10:44:23.607Z,79539,-0.24279234,-0.27675962,-0.78341013
1734432263609,2024-12-17T10:44:23.609Z,79541,-0.24279234,-0.27675962,-0.78341013
1734432263617,2024-12-17T10:44:23.617Z,79549,-0.38414472,-0.4096809,-0.8505363
1734432263619,2024-12-17T10:44:23.619Z,79551,-0.38414472,-0.4096809,-0.8505363
1734432263626,2024-12-17T10:44:23.626Z,79558,-0.23832965,-0.54247093,-0.8482819
1734432263628,2024-12-17T10:44:23.628Z,79560,-0.23832965,-0.54247093,-0.8482819
1734432263635,2024-12-17T10:44:23.635Z,79567,-0.043430153,-0.36930937,-0.75758374
1734432263638,2024-12-17T10:44:23.638Z,79570,-0.043430153,-0.36930937,-0.75758374
1734432263648,2024-12-17T10:44:23.648Z,79580,-0.06159709,-0.3033835,-0.6209093
1734432263651,2024-12-17T10:44:23.651Z,79583,-0.06159709,-0.3033835,-0.6209093
1734432263658,2024-12-17T10:44:23.658Z,79590,-0.027445858,-0.3133251,-0.69881296
1734432263662,2024-12-17T10:44:23.662Z,79594,-0.027445858,-0.3133251,-0.69881296
1734432263670,2024-12-17T10:44:23.670Z,79602,0.021233024,-0.21195531,-0.76450384
1734432263672,2024-12-17T10:44:23.672Z,79604,0.021233024,-0.21195531,-0.76450384
1734432263679,2024-12-17T10:44:23.679Z,79611,-0.050493956,-0.17004028,-0.70797855
1734432263681,2024-12-17T10:44:23.681Z,79613,-0.050493956,-0.17004028,-0.70797855
1734432263689,2024-12-17T10:44:23.689Z,79621,-0.12316486,-0.26133156,-0.79855245
1734432263691,2024-12-17T10:44:23.691Z,79623,-0.12316486,-0.26133156,-0.79855245
1734432263700,2024-12-17T10:44:23.700Z,79632,-0.13668951,-0.38168302,-0.8741916
1734432263703,2024-12-17T10:44:23.703Z,79635,-0.13668951,-0.38168302,-0.8741916
1734432263714,2024-12-17T10:44:23.714Z,79646,-0.1429838,-0.5005039,-0.8617375
1734432263717,2024-12-17T10:44:23.717Z,79649,-0.1429838,-0.5005039,-0.8617375
1734432263725,2024-12-17T10:44:23.725Z,79657,-0.1464242,-0.56217813,-0.8507292
1734432263729,2024-12-17T10:44:23.729Z,79661,-0.1464242,-0.56217813,-0.8507292
1734432263738,2024-12-17T10:44:23.738Z,79670,-0.08729989,-0.48521227,-0.9064383
1734432263741,2024-12-17T10:44:23.741Z,79673,-0.08729989,-0.48521227,-0.9064383
1734432263754,2024-12-17T10:44:23.754Z,79686,-0.018723583,-0.34374216,-0.8330895
1734432263757,2024-12-17T10:44:23.757Z,79689,-0.018723583,-0.34374216,-0.8330895
1734432263765,2024-12-17T10:44:23.765Z,79697,-0.0945372,-0.18483068,-0.7795428
1734432263767,2024-12-17T10:44:23.767Z,79699,-0.0945372,-0.18483068,-0.7795428
1734432263774,2024-12-17T10:44:23.774Z,79706,-0.21206456,-0.12828885,-0.7860571
1734432263776,2024-12-17T10:44:23.776Z,79708,-0.21206456,-0.12828885,-0.7860571
1734432263784,2024-12-17T10:44:23.784Z,79716,-0.21703112,-0.25106928,-0.74573284
1734432263786,2024-12-17T10:44:23.786Z,79718,-0.21703112,-0.25106928,-0.74573284
1734432263792,2024-12-17T10:44:23.792Z,79724,-0.17597674,-0.40058827,-0.68500733
1734432263795,2024-12-17T10:44:23.795Z,79727,-0.17597674,-0.40058827,-0.68500733
1734432263803,2024-12-17T10:44:23.803Z,79735,-0.24753827,-0.48873958,-0.6984574
1734432263805,2024-12-17T10:44:23.805Z,79737,-0.24753827,-0.48873958,-0.6984574
1734432263813,2024-12-17T10:44:23.813Z,79745,-0.2721353,-0.5019992,-0.74820507
1734432263815,2024-12-17T10:44:23.815Z,79747,-0.2721353,-0.5019992,-0.74820507
1734432263823,2024-12-17T10:44:23.823Z,79755,-0.17033209,-0.39631727,-0.75468314
1734432263825,2024-12-17T10:44:23.825Z,79757,-0.17033209,-0.39631727,-0.75468314
1734432263832,2024-12-17T10:44:23.832Z,79764,-0.086974405,-0.3371203,-0.76359755
1734432263835,2024-12-17T10:44:23.835Z,79767,-0.086974405,-0.3371203,-0.76359755
1734432263843,2024-12-17T10:44:23.843Z,79775,-0.14520963,-0.3442302,-0.8032237
1734432263846,2024-12-17T10:44:23.846Z,79778,-0.14520963,-0.3442302,-0.8032237
1734432263855,2024-12-17T10:44:23.855Z,79787,-0.14815976,-0.35373664,-0.84518427
1734432263859,2024-12-17T10:44:23.859Z,79791,-0.14815976,-0.35373664,-0.84518427
1734432263868,2024-12-17T10:44:23.868Z,79800,0.031817947,-0.3086678,-0.7777129
1734432263870,2024-12-17T10:44:23.870Z,79802,0.031817947,-0.3086678,-0.7777129
1734432263878,2024-12-17T10:44:23.878Z,79810,0.038808033,-0.28507167,-0.8000976
1734432263880,2024-12-17T10:44:23.880Z,79812,0.038808033,-0.28507167,-0.8000976
1734432263887,2024-12-17T10:44:23.887Z,79819,-0.020484887,-0.40983206,-0.8110692
1734432263889,2024-12-17T10:44:23.889Z,79821,-0.020484887,-0.40983206,-0.8110692
1734432263897,2024-12-17T10:44:23.897Z,79829,-0.013345814,-0.47755113,-0.7673541
1734432263899,2024-12-17T10:44:23.899Z,79831,-0.013345814,-0.47755113,-0.7673541
1734432263906,2024-12-17T10:44:23.906Z,79838,-0.08610609,-0.41366786,-0.7703021
1734432263909,2024-12-17T10:44:23.909Z,79841,-0.08610609,-0.41366786,-0.7703021
1734432263919,2024-12-17T10:44:23.919Z,79851,-0.16386048,-0.3729814,-0.7523388
1734432263921,2024-12-17T10:44:23.921Z,79853,-0.16386048,-0.3729814,-0.7523388
1734432263930,2024-12-17T10:44:23.930Z,79862,-0.12906177,-0.3065403,-0.73631126
1734432263933,2024-12-17T10:44:23.933Z,79865,-0.12906177,-0.3065403,-0.73631126
1734432263940,2024-12-17T10:44:23.940Z,79872,-0.17654017,-0.25284383,-0.7129895
1734432263943,2024-12-17T10:44:23.943Z,79875,-0.17654017,-0.25284383,-0.7129895
1734432263952,2024-12-17T10:44:23.952Z,79884,-0.32653117,-0.26571718,-0.69003206
1734432263955,2024-12-17T10:44:23.955Z,79887,-0.32653117,-0.26571718,-0.69003206
1734432263964,2024-12-17T10:44:23.964Z,79896,-0.24244457,-0.28757572,-0.70598096
1734432263966,2024-12-17T10:44:23.966Z,79898,-0.24244457,-0.28757572,-0.70598096
1734432263974,2024-12-17T10:44:23.974Z,79906,-0.17921577,-0.2526062,-0.6974204
1734432263976,2024-12-17T10:44:23.976Z,79908,-0.17921577,-0.2526062,-0.6974204
1734432263985,2024-12-17T10:44:23.985Z,79917,-0.20182289,-0.3866697,-0.7490871
1734432263988,2024-12-17T10:44:23.988Z,79920,-0.20182289,-0.3866697,-0.7490871
1734432263995,2024-12-17T10:44:23.995Z,79927,-0.19113739,-0.40404516,-0.7523311
1734432263997,2024-12-17T10:44:23.997Z,79929,-0.19113739,-0.40404516,-0.7523311
1734432264004,2024-12-17T10:44:24.004Z,79936,-0.1517598,-0.33285022,-0.77246803
1734432264006,2024-12-17T10:44:24.006Z,79938,-0.1517598,-0.33285022,-0.77246803
1734432264014,2024-12-17T10:44:24.014Z,79946,-0.03220456,-0.26774967,-0.7977725
1734432264016,2024-12-17T10:44:24.016Z,79948,-0.03220456,-0.26774967,-0.7977725
1734432264023,2024-12-17T10:44:24.023Z,79955,0.05694687,-0.2673769,-0.8388283
1734432264025,2024-12-17T10:44:24.025Z,79957,0.05694687,-0.2673769,-0.8388283
1734432264032,2024-12-17T10:44:24.032Z,79964,-0.028096985,-0.3102155,-0.7970409
1734432264035,2024-12-17T10:44:24.035Z,79967,-0.028096985,-0.3102155,-0.7970409
1734432264041,2024-12-17T10:44:24.041Z,79973,-0.14302996,-0.40128627,-0.8184496
1734432264044,2024-12-17T10:44:24.044Z,79976,-0.14302996,-0.40128627,-0.8184496
1734432264052,2024-12-17T10:44:24.052Z,79984,-0.06633229,-0.40482774,-0.75596976
1734432264055,2024-12-17T10:44:24.055Z,79987,-0.06633229,-0.40482774,-0.75596976
1734432264062,2024-12-17T10:44:24.062Z,79994,-0.09810766,-0.37310472,-0.7014494
1734432264064,2024-12-17T10:44:24.064Z,79996,-0.09810766,-0.37310472,-0.7014494
1734432264072,2024-12-17T10:44:24.072Z,80004,-0.16343582,-0.36421904,-0.7843264
1734432264075,2024-12-17T10:44:24.075Z,80007,-0.16343582,-0.36421904,-0.7843264
1734432264082,2024-12-17T10:44:24.082Z,80014,-0.14986935,-0.2831144,-0.6891783
1734432264085,2024-12-17T10:44:24.085Z,80017,-0.14986935,-0.2831144,-0.6891783
1734432264092,2024-12-17T10:44:24.092Z,80024,-0.14618076,-0.24985926,-0.6560315
1734432264094,2024-12-17T10:44:24.094Z,80026,-0.14618076,-0.24985926,-0.6560315
1734432264102,2024-12-17T10:44:24.102Z,80034,-0.22128661,-0.30301622,-0.64855164
1734432264104,2024-12-17T10:44:24.104Z,80036,-0.22128661,-0.30301622,-0.64855164
1734432264114,2024-12-17T10:44:24.114Z,80046,-0.24567479,-0.45168108,-0.67839575
1734432264116,2024-12-17T10:44:24.116Z,80048,-0.24567479,-0.45168108,-0.67839575
1734432264125,2024-12-17T10:44:24.125Z,80057,-0.2309587,-0.57533,-0.6715765
1734432264128,2024-12-17T10:44:24.128Z,80060,-0.2309587,-0.57533,-0.6715765
1734432264137,2024-12-17T10:44:24.137Z,80069,-0.24429938,-0.54909766,-0.6298185
1734432264139,2024-12-17T10:44:24.139Z,80071,-0.24429938,-0.54909766,-0.6298185
1734432264146,2024-12-17T10:44:24.146Z,80078,-0.13753816,-0.53802776,-0.71726334
1734432264148,2024-12-17T10:44:24.148Z,80080,-0.13753816,-0.53802776,-0.71726334
1734432264155,2024-12-17T10:44:24.155Z,80087,-0.054958932,-0.3858174,-0.71329176
1734432264157,2024-12-17T10:44:24.157Z,80089,-0.054958932,-0.3858174,-0.71329176
1734432264166,2024-12-17T10:44:24.166Z,80098,-0.18583295,-0.27348128,-0.6874898
1734432264168,2024-12-17T10:44:24.168Z,80100,-0.18583295,-0.27348128,-0.6874898
1734432264178,2024-12-17T10:44:24.178Z,80110,-0.23576842,-0.43714288,-0.8159112
1734432264180,2024-12-17T10:44:24.180Z,80112,-0.23576842,-0.43714288,-0.8159112
1734432264189,2024-12-17T10:44:24.189Z,80121,-0.09097202,-0.61173695,-0.8149615
1734432264191,2024-12-17T10:44:24.191Z,80123,-0.09097202,-0.61173695,-0.8149615
1734432264200,2024-12-17T10:44:24.200Z,80132,-0.1096743,-0.6462221,-0.6632395
1734432264203,2024-12-17T10:44:24.203Z,80135,-0.1096743,-0.6462221,-0.6632395
1734432264216,2024-12-17T10:44:24.216Z,80148,-0.18078583,-0.65397155,-0.6987616
1734432264220,2024-12-17T10:44:24.220Z,80152,-0.18078583,-0.65397155,-0.6987616
1734432264231,2024-12-17T10:44:24.231Z,80163,-0.1583936,-0.6539338,-0.7547147
1734432264234,2024-12-17T10:44:24.234Z,80166,-0.1583936,-0.6539338,-0.7547147
1734432264241,2024-12-17T10:44:24.241Z,80173,-0.2001402,-0.4643663,-0.7191557
1734432264243,2024-12-17T10:44:24.243Z,80175,-0.2001402,-0.4643663,-0.7191557
1734432264252,2024-12-17T10:44:24.252Z,80184,-0.22986768,-0.44354877,-0.70644826
1734432264254,2024-12-17T10:44:24.254Z,80186,-0.22986768,-0.44354877,-0.70644826
1734432264261,2024-12-17T10:44:24.261Z,80193,-0.17932133,-0.5005436,-0.55586475
1734432264263,2024-12-17T10:44:24.263Z,80195,-0.17932133,-0.5005436,-0.55586475
1734432264271,2024-12-17T10:44:24.271Z,80203,-0.047227345,-0.5168312,-0.66444635
1734432264274,2024-12-17T10:44:24.274Z,80206,-0.047227345,-0.5168312,-0.66444635
1734432264281,2024-12-17T10:44:24.281Z,80213,-0.13041814,-0.5113341,-0.65493613
1734432264283,2024-12-17T10:44:24.283Z,80215,-0.13041814,-0.5113341,-0.65493613
1734432264291,2024-12-17T10:44:24.291Z,80223,-0.2032207,-0.570942,-0.7024003
1734432264295,2024-12-17T10:44:24.295Z,80227,-0.2032207,-0.570942,-0.7024003
1734432264303,2024-12-17T10:44:24.303Z,80235,-0.14297175,-0.56624097,-0.65804803
1734432264305,2024-12-17T10:44:24.305Z,80237,-0.14297175,-0.56624097,-0.65804803
1734432264312,2024-12-17T10:44:24.312Z,80244,-0.20065507,-0.5538234,-0.6099583
1734432264314,2024-12-17T10:44:24.314Z,80246,-0.20065507,-0.5538234,-0.6099583
1734432264324,2024-12-17T10:44:24.324Z,80256,-0.26943728,-0.60120875,-0.63025796
1734432264327,2024-12-17T10:44:24.327Z,80259,-0.26943728,-0.60120875,-0.63025796
1734432264336,2024-12-17T10:44:24.336Z,80268,-0.14452186,-0.67445356,-0.61206156
1734432264339,2024-12-17T10:44:24.339Z,80271,-0.14452186,-0.67445356,-0.61206156
1734432264347,2024-12-17T10:44:24.347Z,80279,-0.11823823,-0.60451347,-0.5569459
1734432264350,2024-12-17T10:44:24.350Z,80282,-0.11823823,-0.60451347,-0.5569459
1734432264357,2024-12-17T10:44:24.357Z,80289,-0.2379952,-0.57590187,-0.5570737
1734432264359,2024-12-17T10:44:24.359Z,80291,-0.2379952,-0.57590187,-0.5570737
1734432264366,2024-12-17T10:44:24.366Z,80298,-0.17069975,-0.70912737,-0.5531771
1734432264368,2024-12-17T10:44:24.368Z,80300,-0.17069975,-0.70912737,-0.5531771
1734432264376,2024-12-17T10:44:24.376Z,80308,-0.13287145,-0.69412297,-0.50155103
1734432264379,2024-12-17T10:44:24.379Z,80311,-0.13287145,-0.69412297,-0.50155103
1734432264387,2024-12-17T10:44:24.387Z,80319,-0.28414887,-0.7212089,-0.45236856
1734432264389,2024-12-17T10:44:24.389Z,80321,-0.28414887,-0.7212089,-0.45236856
1734432264396,2024-12-17T10:44:24.396Z,80328,-0.3278524,-0.8522657,-0.5061704
1734432264398,2024-12-17T10:44:24.398Z,80330,-0.3278524,-0.8522657,-0.5061704
1734432264407,2024-12-17T10:44:24.407Z,80339,-0.17333296,-0.89918876,-0.54740477
1734432264409,2024-12-17T10:44:24.409Z,80341,-0.17333296,-0.89918876,-0.54740477
1734432264419,2024-12-17T10:44:24.419Z,80351,-0.11959603,-0.88456666,-0.43495402
1734432264421,2024-12-17T10:44:24.421Z,80353,-0.11959603,-0.88456666,-0.43495402
1734432264428,2024-12-17T10:44:24.428Z,80360,-0.11485947,-0.9151101,-0.42009392
1734432264430,2024-12-17T10:44:24.430Z,80362,-0.11485947,-0.9151101,-0.42009392
1734432264437,2024-12-17T10:44:24.437Z,80369,-0.035824966,-0.8576805,-0.50981283
1734432264439,2024-12-17T10:44:24.439Z,80371,-0.035824966,-0.8576805,-0.50981283
1734432264446,2024-12-17T10:44:24.446Z,80378,-0.008723994,-0.7453277,-0.45414266
1734432264448,2024-12-17T10:44:24.448Z,80380,-0.008723994,-0.7453277,-0.45414266
1734432264455,2024-12-17T10:44:24.455Z,80387,-0.014905856,-0.7815184,-0.4906421
1734432264457,2024-12-17T10:44:24.457Z,80389,-0.014905856,-0.7815184,-0.4906421
1734432264464,2024-12-17T10:44:24.464Z,80396,-0.18682191,-0.9227614,-0.4073998
1734432264466,2024-12-17T10:44:24.466Z,80398,-0.18682191,-0.9227614,-0.4073998
1734432264473,2024-12-17T10:44:24.473Z,80405,-0.31348872,-1.0727392,-0.39188102
1734432264476,2024-12-17T10:44:24.476Z,80408,-0.31348872,-1.0727392,-0.39188102
1734432264483,2024-12-17T10:44:24.483Z,80415,-0.18808919,-1.1544049,-0.52074504
1734432264486,2024-12-17T10:44:24.486Z,80418,-0.18808919,-1.1544049,-0.52074504
1734432264494,2024-12-17T10:44:24.494Z,80426,-0.07817403,-1.1030202,-0.5811296
1734432264498,2024-12-17T10:44:24.498Z,80430,-0.07817403,-1.1030202,-0.5811296
1734432264507,2024-12-17T10:44:24.507Z,80439,-0.19273627,-1.016941,-0.59744745
1734432264510,2024-12-17T10:44:24.510Z,80442,-0.19273627,-1.016941,-0.59744745
1734432264517,2024-12-17T10:44:24.517Z,80449,-0.11894881,-0.95255107,-0.6463799
1734432264520,2024-12-17T10:44:24.520Z,80452,-0.11894881,-0.95255107,-0.6463799
1734432264527,2024-12-17T10:44:24.527Z,80459,-0.10755204,-0.89723474,-0.55901206
1734432264530,2024-12-17T10:44:24.530Z,80462,-0.10755204,-0.89723474,-0.55901206
1734432264538,2024-12-17T10:44:24.538Z,80470,-0.19901106,-0.851035,-0.5066663
1734432264540,2024-12-17T10:44:24.540Z,80472,-0.19901106,-0.851035,-0.5066663
1734432264549,2024-12-17T10:44:24.549Z,80481,-0.10843361,-1.021347,-0.68883103
1734432264551,2024-12-17T10:44:24.551Z,80483,-0.10843361,-1.021347,-0.68883103
1734432264558,2024-12-17T10:44:24.558Z,80490,-0.034487605,-1.1566795,-0.61831915
1734432264560,2024-12-17T10:44:24.560Z,80492,-0.034487605,-1.1566795,-0.61831915
1734432264568,2024-12-17T10:44:24.568Z,80500,-0.12376007,-1.1007394,-0.43930018
1734432264570,2024-12-17T10:44:24.570Z,80502,-0.12376007,-1.1007394,-0.43930018
1734432264578,2024-12-17T10:44:24.578Z,80510,-0.1621197,-1.2774479,-0.4022205
1734432264581,2024-12-17T10:44:24.581Z,80513,-0.1621197,-1.2774479,-0.4022205
1734432264588,2024-12-17T10:44:24.588Z,80520,-0.10248696,-1.3726155,-0.49544394
1734432264591,2024-12-17T10:44:24.591Z,80523,-0.10248696,-1.3726155,-0.49544394
1734432264600,2024-12-17T10:44:24.600Z,80532,-0.16472371,-1.22926,-0.56174743
1734432264603,2024-12-17T10:44:24.603Z,80535,-0.16472371,-1.22926,-0.56174743
1734432264610,2024-12-17T10:44:24.610Z,80542,-0.24185699,-1.2396277,-0.5014002
1734432264612,2024-12-17T10:44:24.612Z,80544,-0.24185699,-1.2396277,-0.5014002
1734432264620,2024-12-17T10:44:24.620Z,80552,-0.08242043,-1.1965587,-0.4598682
1734432264623,2024-12-17T10:44:24.623Z,80555,-0.08242043,-1.1965587,-0.4598682
1734432264636,2024-12-17T10:44:24.636Z,80568,0.16666389,-1.1205192,-0.4763051
1734432264640,2024-12-17T10:44:24.640Z,80572,0.16666389,-1.1205192,-0.4763051
1734432264650,2024-12-17T10:44:24.650Z,80582,0.13295782,-1.1156199,-0.49030313
1734432264652,2024-12-17T10:44:24.652Z,80584,0.13295782,-1.1156199,-0.49030313
1734432264659,2024-12-17T10:44:24.659Z,80591,0.062242903,-1.1352463,-0.44283482
1734432264662,2024-12-17T10:44:24.662Z,80594,0.062242903,-1.1352463,-0.44283482
1734432264669,2024-12-17T10:44:24.669Z,80601,0.09388119,-1.1288868,-0.40607548
1734432264671,2024-12-17T10:44:24.671Z,80603,0.09388119,-1.1288868,-0.40607548
1734432264679,2024-12-17T10:44:24.679Z,80611,0.020309485,-1.053174,-0.47519347
1734432264681,2024-12-17T10:44:24.681Z,80613,0.020309485,-1.053174,-0.47519347
1734432264688,2024-12-17T10:44:24.688Z,80620,-0.13401474,-1.0321572,-0.5534824
1734432264690,2024-12-17T10:44:24.690Z,80622,-0.13401474,-1.0321572,-0.5534824
1734432264697,2024-12-17T10:44:24.697Z,80629,-0.14016338,-1.0430099,-0.54028296
1734432264699,2024-12-17T10:44:24.699Z,80631,-0.14016338,-1.0430099,-0.54028296
1734432264708,2024-12-17T10:44:24.708Z,80640,-0.031229986,-1.0815613,-0.51085794
1734432264710,2024-12-17T10:44:24.710Z,80642,-0.031229986,-1.0815613,-0.51085794
1734432264718,2024-12-17T10:44:24.718Z,80650,-0.037138306,-1.0748988,-0.42583078
1734432264721,2024-12-17T10:44:24.721Z,80653,-0.037138306,-1.0748988,-0.42583078
1734432264727,2024-12-17T10:44:24.727Z,80659,-0.21466915,-1.0797476,-0.3047918
1734432264729,2024-12-17T10:44:24.729Z,80661,-0.21466915,-1.0797476,-0.3047918
1734432264740,2024-12-17T10:44:24.740Z,80672,-0.17764215,-1.1513096,-0.216483
1734432264743,2024-12-17T10:44:24.743Z,80675,-0.17764215,-1.1513096,-0.216483
1734432264752,2024-12-17T10:44:24.752Z,80684,0.032376558,-1.1915913,-0.27268755
1734432264755,2024-12-17T10:44:24.755Z,80687,0.032376558,-1.1915913,-0.27268755
1734432264762,2024-12-17T10:44:24.762Z,80694,-0.03244534,-1.186628,-0.34461284
1734432264765,2024-12-17T10:44:24.765Z,80697,-0.03244534,-1.186628,-0.34461284
1734432264772,2024-12-17T10:44:24.772Z,80704,-0.12142038,-1.1490045,-0.33749261
1734432264774,2024-12-17T10:44:24.774Z,80706,-0.12142038,-1.1490045,-0.33749261
1734432264782,2024-12-17T10:44:24.782Z,80714,0.0042857677,-1.145341,-0.37487283
1734432264784,2024-12-17T10:44:24.784Z,80716,0.0042857677,-1.145341,-0.37487283
1734432264791,2024-12-17T10:44:24.791Z,80723,0.09842739,-1.1330696,-0.3586666
1734432264793,2024-12-17T10:44:24.793Z,80725,0.09842739,-1.1330696,-0.3586666
1734432264801,2024-12-17T10:44:24.801Z,80733,0.053274784,-1.1312594,-0.25909856
1734432264804,2024-12-17T10:44:24.804Z,80736,0.053274784,-1.1312594,-0.25909856
1734432264811,2024-12-17T10:44:24.811Z,80743,0.05164919,-1.2003022,-0.26516098
1734432264813,2024-12-17T10:44:24.813Z,80745,0.05164919,-1.2003022,-0.26516098
1734432264821,2024-12-17T10:44:24.821Z,80753,0.012824175,-1.2348702,-0.3421781
1734432264823,2024-12-17T10:44:24.823Z,80755,0.012824175,-1.2348702,-0.3421781
1734432264830,2024-12-17T10:44:24.830Z,80762,-0.02800446,-1.173891,-0.34507293
1734432264833,2024-12-17T10:44:24.833Z,80765,-0.02800446,-1.173891,-0.34507293
1734432264842,2024-12-17T10:44:24.842Z,80774,0.07709096,-1.152388,-0.3489842
1734432264845,2024-12-17T10:44:24.845Z,80777,0.07709096,-1.152388,-0.3489842
1734432264852,2024-12-17T10:44:24.852Z,80784,0.12184653,-1.1451969,-0.47983578
1734432264854,2024-12-17T10:44:24.854Z,80786,0.12184653,-1.1451969,-0.47983578
1734432264861,2024-12-17T10:44:24.861Z,80793,0.005907118,-1.0558342,-0.55102444
1734432264863,2024-12-17T10:44:24.863Z,80795,0.005907118,-1.0558342,-0.55102444
1734432264870,2024-12-17T10:44:24.870Z,80802,-0.07478439,-0.9860311,-0.5635158
1734432264872,2024-12-17T10:44:24.872Z,80804,-0.07478439,-0.9860311,-0.5635158
1734432264879,2024-12-17T10:44:24.879Z,80811,-0.03594992,-1.0346836,-0.5144313
1734432264882,2024-12-17T10:44:24.882Z,80814,-0.03594992,-1.0346836,-0.5144313
1734432264889,2024-12-17T10:44:24.889Z,80821,0.0021002102,-1.1124117,-0.4467862
1734432264892,2024-12-17T10:44:24.892Z,80824,0.0021002102,-1.1124117,-0.4467862
1734432264902,2024-12-17T10:44:24.902Z,80834,2.915851E-4,-1.1247673,-0.41967228
1734432264904,2024-12-17T10:44:24.904Z,80836,2.915851E-4,-1.1247673,-0.41967228
1734432264912,2024-12-17T10:44:24.912Z,80844,-0.027700044,-1.0721018,-0.44287345
1734432264915,2024-12-17T10:44:24.915Z,80847,-0.027700044,-1.0721018,-0.44287345
1734432264922,2024-12-17T10:44:24.922Z,80854,-0.11102271,-1.0414019,-0.42704365
1734432264925,2024-12-17T10:44:24.925Z,80857,-0.11102271,-1.0414019,-0.42704365
1734432264934,2024-12-17T10:44:24.934Z,80866,-0.111676015,-1.0772426,-0.4161129
1734432264937,2024-12-17T10:44:24.937Z,80869,-0.111676015,-1.0772426,-0.4161129
1734432264944,2024-12-17T10:44:24.944Z,80876,-0.011830759,-1.1175874,-0.47498798
1734432264946,2024-12-17T10:44:24.946Z,80878,-0.011830759,-1.1175874,-0.47498798
1734432264953,2024-12-17T10:44:24.953Z,80885,0.013086181,-1.0794733,-0.4761919
1734432264956,2024-12-17T10:44:24.956Z,80888,0.013086181,-1.0794733,-0.4761919
1734432264963,2024-12-17T10:44:24.963Z,80895,0.03168444,-1.004589,-0.44021234
1734432264966,2024-12-17T10:44:24.966Z,80898,0.03168444,-1.004589,-0.44021234
1734432264973,2024-12-17T10:44:24.973Z,80905,0.091469,-0.96910286,-0.4359107
1734432264975,2024-12-17T10:44:24.975Z,80907,0.091469,-0.96910286,-0.4359107
1734432264982,2024-12-17T10:44:24.982Z,80914,0.070960484,-0.98436284,-0.47017074
1734432264984,2024-12-17T10:44:24.984Z,80916,0.070960484,-0.98436284,-0.47017074
1734432264990,2024-12-17T10:44:24.990Z,80922,-0.0568159,-1.0120202,-0.516156
1734432264992,2024-12-17T10:44:24.992Z,80924,-0.0568159,-1.0120202,-0.516156
1734432265002,2024-12-17T10:44:25.002Z,80934,-0.11504995,-1.0638049,-0.51280105
1734432265004,2024-12-17T10:44:25.004Z,80936,-0.11504995,-1.0638049,-0.51280105
1734432265011,2024-12-17T10:44:25.011Z,80943,-0.069061145,-1.1073843,-0.49717048
1734432265013,2024-12-17T10:44:25.013Z,80945,-0.069061145,-1.1073843,-0.49717048
1734432265021,2024-12-17T10:44:25.021Z,80953,-0.060607962,-1.0949706,-0.4599707
1734432265023,2024-12-17T10:44:25.023Z,80955,-0.060607962,-1.0949706,-0.4599707
1734432265030,2024-12-17T10:44:25.030Z,80962,-0.07219239,-1.0675217,-0.4510082
1734432265033,2024-12-17T10:44:25.033Z,80965,-0.07219239,-1.0675217,-0.4510082
1734432265041,2024-12-17T10:44:25.041Z,80973,0.004138899,-1.0044291,-0.49372694
1734432265043,2024-12-17T10:44:25.043Z,80975,0.004138899,-1.0044291,-0.49372694
1734432265052,2024-12-17T10:44:25.052Z,80984,0.045170173,-0.95223457,-0.52173364
1734432265055,2024-12-17T10:44:25.055Z,80987,0.045170173,-0.95223457,-0.52173364
1734432265063,2024-12-17T10:44:25.063Z,80995,-0.0031974898,-0.9558272,-0.5970637
1734432265065,2024-12-17T10:44:25.065Z,80997,-0.0031974898,-0.9558272,-0.5970637
1734432265074,2024-12-17T10:44:25.074Z,81006,-0.1149558,-0.9046908,-0.6147395
1734432265076,2024-12-17T10:44:25.076Z,81008,-0.1149558,-0.9046908,-0.6147395
1734432265086,2024-12-17T10:44:25.086Z,81018,-0.17062905,-0.8632923,-0.5103199
1734432265089,2024-12-17T10:44:25.089Z,81021,-0.17062905,-0.8632923,-0.5103199
1734432265102,2024-12-17T10:44:25.102Z,81034,-0.11292894,-0.9043442,-0.45367956
1734432265105,2024-12-17T10:44:25.105Z,81037,-0.11292894,-0.9043442,-0.45367956
1734432265111,2024-12-17T10:44:25.111Z,81043,-0.0688078,-0.9012668,-0.42380705
1734432265113,2024-12-17T10:44:25.113Z,81045,-0.0688078,-0.9012668,-0.42380705
1734432265121,2024-12-17T10:44:25.121Z,81053,-0.17731804,-0.8472568,-0.438755
1734432265123,2024-12-17T10:44:25.123Z,81055,-0.17731804,-0.8472568,-0.438755
1734432265131,2024-12-17T10:44:25.131Z,81063,-0.25096962,-0.8447759,-0.37692863
1734432265133,2024-12-17T10:44:25.133Z,81065,-0.25096962,-0.8447759,-0.37692863
1734432265140,2024-12-17T10:44:25.140Z,81072,-0.11729814,-0.9285427,-0.32468557
1734432265142,2024-12-17T10:44:25.142Z,81074,-0.11729814,-0.9285427,-0.32468557
1734432265149,2024-12-17T10:44:25.149Z,81081,-0.028078964,-0.99066633,-0.32790583
1734432265152,2024-12-17T10:44:25.152Z,81084,-0.028078964,-0.99066633,-0.32790583
1734432265162,2024-12-17T10:44:25.162Z,81094,-0.026298676,-0.90782523,-0.37694225
1734432265164,2024-12-17T10:44:25.164Z,81096,-0.026298676,-0.90782523,-0.37694225
1734432265173,2024-12-17T10:44:25.173Z,81105,-0.18653375,-0.70164984,-0.48991454
1734432265175,2024-12-17T10:44:25.175Z,81107,-0.18653375,-0.70164984,-0.48991454
1734432265182,2024-12-17T10:44:25.182Z,81114,-0.37777925,-0.65767515,-0.5184065
1734432265184,2024-12-17T10:44:25.184Z,81116,-0.37777925,-0.65767515,-0.5184065
1734432265191,2024-12-17T10:44:25.191Z,81123,-0.30670285,-0.86886644,-0.50756633
1734432265193,2024-12-17T10:44:25.193Z,81125,-0.30670285,-0.86886644,-0.50756633
1734432265200,2024-12-17T10:44:25.200Z,81132,-0.11305431,-1.024424,-0.5150217
1734432265202,2024-12-17T10:44:25.202Z,81134,-0.11305431,-1.024424,-0.5150217
1734432265210,2024-12-17T10:44:25.210Z,81142,-4.5975074E-4,-0.98368007,-0.4038948
1734432265213,2024-12-17T10:44:25.213Z,81145,-4.5975074E-4,-0.98368007,-0.4038948
1734432265221,2024-12-17T10:44:25.221Z,81153,-0.04025093,-0.90625477,-0.42860174
1734432265222,2024-12-17T10:44:25.222Z,81154,-0.04025093,-0.90625477,-0.42860174
1734432265229,2024-12-17T10:44:25.229Z,81161,-0.17336297,-0.8486871,-0.50123113
1734432265232,2024-12-17T10:44:25.232Z,81164,-0.17336297,-0.8486871,-0.50123113
1734432265239,2024-12-17T10:44:25.239Z,81171,-0.19947128,-0.8747216,-0.523555
1734432265241,2024-12-17T10:44:25.241Z,81173,-0.19947128,-0.8747216,-0.523555
1734432265249,2024-12-17T10:44:25.249Z,81181,-0.04891709,-0.8426492,-0.50593567
1734432265251,2024-12-17T10:44:25.251Z,81183,-0.04891709,-0.8426492,-0.50593567
1734432265258,2024-12-17T10:44:25.258Z,81190,-0.12140487,-0.7270547,-0.5490789
1734432265261,2024-12-17T10:44:25.261Z,81193,-0.12140487,-0.7270547,-0.5490789
1734432265269,2024-12-17T10:44:25.269Z,81201,-0.36513385,-0.62228835,-0.58745325
1734432265271,2024-12-17T10:44:25.271Z,81203,-0.36513385,-0.62228835,-0.58745325
1734432265279,2024-12-17T10:44:25.279Z,81211,-0.4713897,-0.5465531,-0.55001915
1734432265282,2024-12-17T10:44:25.282Z,81214,-0.4713897,-0.5465531,-0.55001915
1734432265290,2024-12-17T10:44:25.290Z,81222,-0.32360506,-0.73864913,-0.5413721
1734432265292,2024-12-17T10:44:25.292Z,81224,-0.32360506,-0.73864913,-0.5413721
1734432265299,2024-12-17T10:44:25.299Z,81231,0.02647879,-0.9138271,-0.3200674
1734432265302,2024-12-17T10:44:25.302Z,81234,0.02647879,-0.9138271,-0.3200674
1734432265310,2024-12-17T10:44:25.310Z,81242,0.16263552,-0.8481014,-0.27563265
1734432265313,2024-12-17T10:44:25.313Z,81245,0.16263552,-0.8481014,-0.27563265
1734432265322,2024-12-17T10:44:25.322Z,81254,0.12805606,-0.8576064,-0.5269114
1734432265324,2024-12-17T10:44:25.324Z,81256,0.12805606,-0.8576064,-0.5269114
1734432265333,2024-12-17T10:44:25.333Z,81265,-0.029477067,-0.8125427,-0.7343435
1734432265335,2024-12-17T10:44:25.335Z,81267,-0.029477067,-0.8125427,-0.7343435
1734432265342,2024-12-17T10:44:25.342Z,81274,-0.13152073,-0.57637686,-0.80359185
1734432265344,2024-12-17T10:44:25.344Z,81276,-0.13152073,-0.57637686,-0.80359185
1734432265352,2024-12-17T10:44:25.352Z,81284,-0.34665358,-0.49073672,-0.73358893
1734432265354,2024-12-17T10:44:25.354Z,81286,-0.34665358,-0.49073672,-0.73358893
1734432265360,2024-12-17T10:44:25.360Z,81292,-0.38073975,-0.60494965,-0.76039875
1734432265362,2024-12-17T10:44:25.362Z,81294,-0.38073975,-0.60494965,-0.76039875
1734432265369,2024-12-17T10:44:25.369Z,81301,-0.1806034,-0.6074169,-0.829815
1734432265372,2024-12-17T10:44:25.372Z,81304,-0.1806034,-0.6074169,-0.829815
1734432265382,2024-12-17T10:44:25.382Z,81314,-0.07375105,-0.48423856,-0.7135837
1734432265385,2024-12-17T10:44:25.385Z,81317,-0.07375105,-0.48423856,-0.7135837
1734432265393,2024-12-17T10:44:25.393Z,81325,-0.04697341,-0.5468527,-0.70428985
1734432265395,2024-12-17T10:44:25.395Z,81327,-0.04697341,-0.5468527,-0.70428985
1734432265402,2024-12-17T10:44:25.402Z,81334,0.03325083,-0.68081784,-0.7570431
1734432265404,2024-12-17T10:44:25.404Z,81336,0.03325083,-0.68081784,-0.7570431
1734432265410,2024-12-17T10:44:25.410Z,81342,0.10018401,-0.7403413,-0.6981645
1734432265413,2024-12-17T10:44:25.413Z,81345,0.10018401,-0.7403413,-0.6981645
1734432265420,2024-12-17T10:44:25.420Z,81352,-0.2138952,-0.76675236,-0.6843577
1734432265422,2024-12-17T10:44:25.422Z,81354,-0.2138952,-0.76675236,-0.6843577
1734432265429,2024-12-17T10:44:25.429Z,81361,-0.50743824,-0.8254281,-0.6618175
1734432265432,2024-12-17T10:44:25.432Z,81364,-0.50743824,-0.8254281,-0.6618175
1734432265439,2024-12-17T10:44:25.439Z,81371,-0.47714162,-0.76281637,-0.63829684
1734432265441,2024-12-17T10:44:25.441Z,81373,-0.47714162,-0.76281637,-0.63829684
1734432265450,2024-12-17T10:44:25.450Z,81382,-0.41050413,-0.6101286,-0.58757776
1734432265453,2024-12-17T10:44:25.453Z,81385,-0.41050413,-0.6101286,-0.58757776
1734432265461,2024-12-17T10:44:25.461Z,81393,-0.2528437,-0.3999317,-0.577982
1734432265464,2024-12-17T10:44:25.464Z,81396,-0.2528437,-0.3999317,-0.577982
1734432265471,2024-12-17T10:44:25.471Z,81403,0.0034444046,-0.13462101,-0.5792546
1734432265474,2024-12-17T10:44:25.474Z,81406,0.0034444046,-0.13462101,-0.5792546
1734432265480,2024-12-17T10:44:25.480Z,81412,0.14275576,-0.09616788,-0.54941136
1734432265482,2024-12-17T10:44:25.482Z,81414,0.14275576,-0.09616788,-0.54941136
1734432265489,2024-12-17T10:44:25.489Z,81421,0.024416117,-0.5093237,-0.5772412
1734432265491,2024-12-17T10:44:25.491Z,81423,0.024416117,-0.5093237,-0.5772412
1734432265503,2024-12-17T10:44:25.503Z,81435,-0.29721853,-0.936204,-0.72669685
1734432265506,2024-12-17T10:44:25.506Z,81438,-0.29721853,-0.936204,-0.72669685
1734432265512,2024-12-17T10:44:25.512Z,81444,-0.53038436,-0.9747154,-0.9053604
1734432265515,2024-12-17T10:44:25.515Z,81447,-0.53038436,-0.9747154,-0.9053604
1734432265522,2024-12-17T10:44:25.522Z,81454,-0.5312822,-0.7994746,-0.96800035
1734432265524,2024-12-17T10:44:25.524Z,81456,-0.5312822,-0.7994746,-0.96800035
1734432265531,2024-12-17T10:44:25.531Z,81463,-0.35123774,-0.63786525,-1.071332
1734432265533,2024-12-17T10:44:25.533Z,81465,-0.35123774,-0.63786525,-1.071332
1734432265541,2024-12-17T10:44:25.541Z,81473,-0.3187256,-0.43455774,-1.0511515
1734432265543,2024-12-17T10:44:25.543Z,81475,-0.3187256,-0.43455774,-1.0511515
1734432265552,2024-12-17T10:44:25.552Z,81484,-0.2746176,-0.43403912,-1.0183458
1734432265554,2024-12-17T10:44:25.554Z,81486,-0.2746176,-0.43403912,-1.0183458
1734432265561,2024-12-17T10:44:25.561Z,81493,-0.06470157,-0.56686103,-1.0424759
1734432265564,2024-12-17T10:44:25.564Z,81496,-0.06470157,-0.56686103,-1.0424759
1734432265573,2024-12-17T10:44:25.573Z,81505,0.10513246,-0.525769,-0.8445768
1734432265575,2024-12-17T10:44:25.575Z,81507,0.10513246,-0.525769,-0.8445768
1734432265583,2024-12-17T10:44:25.583Z,81515,0.095592834,-0.51998657,-0.7834466
1734432265586,2024-12-17T10:44:25.586Z,81518,0.095592834,-0.51998657,-0.7834466
1734432265593,2024-12-17T10:44:25.593Z,81525,-0.039016664,-0.672437,-0.6165924
1734432265594,2024-12-17T10:44:25.594Z,81526,-0.039016664,-0.672437,-0.6165924
1734432265601,2024-12-17T10:44:25.601Z,81533,-0.39838776,-0.6208874,-0.42856592
1734432265603,2024-12-17T10:44:25.603Z,81535,-0.39838776,-0.6208874,-0.42856592
1734432265609,2024-12-17T10:44:25.609Z,81541,-0.13328943,-0.5548346,-0.51364404
1734432265611,2024-12-17T10:44:25.611Z,81543,-0.13328943,-0.5548346,-0.51364404
1734432265618,2024-12-17T10:44:25.618Z,81550,0.049196564,-0.6644777,-0.39254355
1734432265620,2024-12-17T10:44:25.620Z,81552,0.049196564,-0.6644777,-0.39254355
1734432265626,2024-12-17T10:44:25.626Z,81558,-0.14931224,-0.8566594,-0.4089877
1734432265628,2024-12-17T10:44:25.628Z,81560,-0.14931224,-0.8566594,-0.4089877
1734432265635,2024-12-17T10:44:25.635Z,81567,0.0057442007,-0.8526842,-0.4316121
1734432265637,2024-12-17T10:44:25.637Z,81569,0.0057442007,-0.8526842,-0.4316121
1734432265645,2024-12-17T10:44:25.645Z,81577,0.55877566,-0.44699776,-0.411578
1734432265647,2024-12-17T10:44:25.647Z,81579,0.55877566,-0.44699776,-0.411578
1734432265655,2024-12-17T10:44:25.655Z,81587,0.50546503,-0.10249522,-0.53849685
1734432265657,2024-12-17T10:44:25.657Z,81589,0.50546503,-0.10249522,-0.53849685
1734432265668,2024-12-17T10:44:25.668Z,81600,0.11772889,-0.42135212,-0.6829588
1734432265670,2024-12-17T10:44:25.670Z,81602,0.11772889,-0.42135212,-0.6829588
1734432265678,2024-12-17T10:44:25.678Z,81610,-0.08585632,-0.7839183,-0.82145166
1734432265680,2024-12-17T10:44:25.680Z,81612,-0.08585632,-0.7839183,-0.82145166
1734432265687,2024-12-17T10:44:25.687Z,81619,-0.3305783,-0.6985197,-0.9351084
1734432265689,2024-12-17T10:44:25.689Z,81621,-0.3305783,-0.6985197,-0.9351084
1734432265696,2024-12-17T10:44:25.696Z,81628,-0.44145975,-0.6211988,-0.9793209
1734432265698,2024-12-17T10:44:25.698Z,81630,-0.44145975,-0.6211988,-0.9793209
1734432265705,2024-12-17T10:44:25.705Z,81637,-0.30440044,-0.6164654,-1.064733
1734432265708,2024-12-17T10:44:25.708Z,81640,-0.30440044,-0.6164654,-1.064733
1734432265715,2024-12-17T10:44:25.715Z,81647,-0.27860692,-0.5686191,-1.0448353
1734432265718,2024-12-17T10:44:25.718Z,81650,-0.27860692,-0.5686191,-1.0448353
1734432265725,2024-12-17T10:44:25.725Z,81657,-0.21824743,-0.5091232,-0.91631824
1734432265727,2024-12-17T10:44:25.727Z,81659,-0.21824743,-0.5091232,-0.91631824
1734432265733,2024-12-17T10:44:25.733Z,81665,-0.06368485,-0.3645211,-0.9256242
1734432265735,2024-12-17T10:44:25.735Z,81667,-0.06368485,-0.3645211,-0.9256242
1734432265743,2024-12-17T10:44:25.743Z,81675,-0.016920386,-0.3486772,-0.81396466
1734432265745,2024-12-17T10:44:25.745Z,81677,-0.016920386,-0.3486772,-0.81396466
1734432265754,2024-12-17T10:44:25.754Z,81686,0.011036036,-0.3627071,-0.73294455
1734432265756,2024-12-17T10:44:25.756Z,81688,0.011036036,-0.3627071,-0.73294455
1734432265763,2024-12-17T10:44:25.763Z,81695,-0.14601001,-0.29520112,-0.7254883
1734432265765,2024-12-17T10:44:25.765Z,81697,-0.14601001,-0.29520112,-0.7254883
1734432265772,2024-12-17T10:44:25.772Z,81704,-0.24988778,-0.35251522,-0.6080734
1734432265775,2024-12-17T10:44:25.775Z,81707,-0.24988778,-0.35251522,-0.6080734
1734432265782,2024-12-17T10:44:25.782Z,81714,-0.10377939,-0.38831055,-0.56152445
1734432265784,2024-12-17T10:44:25.784Z,81716,-0.10377939,-0.38831055,-0.56152445
1734432265792,2024-12-17T10:44:25.792Z,81724,-0.073388435,-0.20402464,-0.5410277
1734432265794,2024-12-17T10:44:25.794Z,81726,-0.073388435,-0.20402464,-0.5410277
1734432265804,2024-12-17T10:44:25.804Z,81736,-0.22153759,-0.15255018,-0.6438701
1734432265807,2024-12-17T10:44:25.807Z,81739,-0.22153759,-0.15255018,-0.6438701
1734432265814,2024-12-17T10:44:25.814Z,81746,-0.33363253,-0.5408656,-0.7018343
1734432265816,2024-12-17T10:44:25.816Z,81748,-0.33363253,-0.5408656,-0.7018343
1734432265823,2024-12-17T10:44:25.823Z,81755,-0.26077735,-0.7989621,-0.75230753
1734432265825,2024-12-17T10:44:25.825Z,81757,-0.26077735,-0.7989621,-0.75230753
1734432265832,2024-12-17T10:44:25.832Z,81764,-0.069213785,-0.48079515,-0.77053446
1734432265834,2024-12-17T10:44:25.834Z,81766,-0.069213785,-0.48079515,-0.77053446
1734432265842,2024-12-17T10:44:25.842Z,81774,-0.16693044,-0.2948133,-0.7786268
1734432265844,2024-12-17T10:44:25.844Z,81776,-0.16693044,-0.2948133,-0.7786268
1734432265853,2024-12-17T10:44:25.853Z,81785,-0.29012033,-0.5145263,-0.9045291
1734432265855,2024-12-17T10:44:25.855Z,81787,-0.29012033,-0.5145263,-0.9045291
1734432265861,2024-12-17T10:44:25.861Z,81793,-0.12778486,-0.5344539,-0.88681823
1734432265863,2024-12-17T10:44:25.863Z,81795,-0.12778486,-0.5344539,-0.88681823
1734432265870,2024-12-17T10:44:25.870Z,81802,0.05625223,-0.36290702,-0.78085774
1734432265872,2024-12-17T10:44:25.872Z,81804,0.05625223,-0.36290702,-0.78085774
1734432265878,2024-12-17T10:44:25.878Z,81810,-0.04446701,-0.35953683,-0.8668596
1734432265880,2024-12-17T10:44:25.880Z,81812,-0.04446701,-0.35953683,-0.8668596
1734432265888,2024-12-17T10:44:25.888Z,81820,-0.25969088,-0.47095007,-1.0007501
1734432265890,2024-12-17T10:44:25.890Z,81822,-0.25969088,-0.47095007,-1.0007501
1734432265897,2024-12-17T10:44:25.897Z,81829,-0.10696637,-0.45069385,-0.82553285
1734432265903,2024-12-17T10:44:25.903Z,81835,-0.10696637,-0.45069385,-0.82553285
1734432265912,2024-12-17T10:44:25.912Z,81844,0.09577817,-0.34204137,-0.62814826
1734432265915,2024-12-17T10:44:25.915Z,81847,0.09577817,-0.34204137,-0.62814826
1734432265924,2024-12-17T10:44:25.924Z,81856,0.03048088,-0.33236098,-0.637595
1734432265926,2024-12-17T10:44:25.926Z,81858,0.03048088,-0.33236098,-0.637595
1734432265935,2024-12-17T10:44:25.935Z,81867,-0.017487826,-0.42457807,-0.69366825
1734432265939,2024-12-17T10:44:25.939Z,81871,-0.017487826,-0.42457807,-0.69366825
1734432265949,2024-12-17T10:44:25.949Z,81881,0.017126229,-0.41893828,-0.67794305
1734432265952,2024-12-17T10:44:25.952Z,81884,0.017126229,-0.41893828,-0.67794305
1734432265965,2024-12-17T10:44:25.965Z,81897,-0.11087385,-0.35911864,-0.6555203
1734432265968,2024-12-17T10:44:25.968Z,81900,-0.11087385,-0.35911864,-0.6555203
1734432265976,2024-12-17T10:44:25.976Z,81908,-0.19073734,-0.35343045,-0.69049746
1734432265978,2024-12-17T10:44:25.978Z,81910,-0.19073734,-0.35343045,-0.69049746
1734432265985,2024-12-17T10:44:25.985Z,81917,-0.075713605,-0.29314366,-0.73013234
1734432265988,2024-12-17T10:44:25.988Z,81920,-0.075713605,-0.29314366,-0.73013234
1734432265995,2024-12-17T10:44:25.995Z,81927,-0.07677225,-0.2211352,-0.73883855
1734432265997,2024-12-17T10:44:25.997Z,81929,-0.07677225,-0.2211352,-0.73883855
1734432266005,2024-12-17T10:44:26.005Z,81937,-0.1584483,-0.23088649,-0.7589816
1734432266007,2024-12-17T10:44:26.007Z,81939,-0.1584483,-0.23088649,-0.7589816
1734432266014,2024-12-17T10:44:26.014Z,81946,-0.2065495,-0.23654427,-0.80047995
1734432266017,2024-12-17T10:44:26.017Z,81949,-0.2065495,-0.23654427,-0.80047995
1734432266024,2024-12-17T10:44:26.024Z,81956,-0.23580368,-0.25374207,-0.8449961
1734432266026,2024-12-17T10:44:26.026Z,81958,-0.23580368,-0.25374207,-0.8449961
1734432266033,2024-12-17T10:44:26.033Z,81965,-0.26189145,-0.3521714,-0.88422084
1734432266035,2024-12-17T10:44:26.035Z,81967,-0.26189145,-0.3521714,-0.88422084
1734432266041,2024-12-17T10:44:26.041Z,81973,-0.23561013,-0.43287408,-0.8444758
1734432266043,2024-12-17T10:44:26.043Z,81975,-0.23561013,-0.43287408,-0.8444758
1734432266050,2024-12-17T10:44:26.050Z,81982,-0.18514697,-0.45393613,-0.78781605
1734432266052,2024-12-17T10:44:26.052Z,81984,-0.18514697,-0.45393613,-0.78781605
1734432266059,2024-12-17T10:44:26.059Z,81991,-0.0738475,-0.41580167,-0.7420193
1734432266061,2024-12-17T10:44:26.061Z,81993,-0.0738475,-0.41580167,-0.7420193
1734432266069,2024-12-17T10:44:26.069Z,82001,-0.036895722,-0.30966723,-0.69288296
1734432266071,2024-12-17T10:44:26.071Z,82003,-0.036895722,-0.30966723,-0.69288296
1734432266077,2024-12-17T10:44:26.077Z,82009,-0.05576676,-0.22160912,-0.64812994
1734432266079,2024-12-17T10:44:26.079Z,82011,-0.05576676,-0.22160912,-0.64812994
1734432266087,2024-12-17T10:44:26.087Z,82019,-0.06428501,-0.24622418,-0.6812794
1734432266089,2024-12-17T10:44:26.089Z,82021,-0.06428501,-0.24622418,-0.6812794
1734432266095,2024-12-17T10:44:26.095Z,82027,-0.09269917,-0.32493967,-0.6922415
1734432266099,2024-12-17T10:44:26.099Z,82031,-0.09269917,-0.32493967,-0.6922415
1734432266107,2024-12-17T10:44:26.107Z,82039,-0.19398254,-0.3786122,-0.65483975
1734432266109,2024-12-17T10:44:26.109Z,82041,-0.19398254,-0.3786122,-0.65483975
1734432266115,2024-12-17T10:44:26.115Z,82047,-0.22200644,-0.40885025,-0.68530697
1734432266117,2024-12-17T10:44:26.117Z,82049,-0.22200644,-0.40885025,-0.68530697
1734432266124,2024-12-17T10:44:26.124Z,82056,-0.1459654,-0.45326915,-0.71578276
1734432266126,2024-12-17T10:44:26.126Z,82058,-0.1459654,-0.45326915,-0.71578276
1734432266132,2024-12-17T10:44:26.132Z,82064,-0.1514087,-0.4816768,-0.6636882
1734432266134,2024-12-17T10:44:26.134Z,82066,-0.1514087,-0.4816768,-0.6636882
1734432266141,2024-12-17T10:44:26.141Z,82073,-0.16623913,-0.4747326,-0.68821156
1734432266143,2024-12-17T10:44:26.143Z,82075,-0.16623913,-0.4747326,-0.68821156
1734432266149,2024-12-17T10:44:26.149Z,82081,-0.14797272,-0.36399022,-0.77045596
1734432266151,2024-12-17T10:44:26.151Z,82083,-0.14797272,-0.36399022,-0.77045596
1734432266158,2024-12-17T10:44:26.158Z,82090,-0.1634217,-0.30420104,-0.7559618
1734432266160,2024-12-17T10:44:26.160Z,82092,-0.1634217,-0.30420104,-0.7559618
1734432266168,2024-12-17T10:44:26.168Z,82100,-0.15816367,-0.35536483,-0.68407077
1734432266170,2024-12-17T10:44:26.170Z,82102,-0.15816367,-0.35536483,-0.68407077
1734432266177,2024-12-17T10:44:26.177Z,82109,-0.16363789,-0.41856593,-0.7009982
1734432266178,2024-12-17T10:44:26.178Z,82110,-0.16363789,-0.41856593,-0.7009982
1734432266185,2024-12-17T10:44:26.185Z,82117,-0.18571427,-0.43050826,-0.687255
1734432266187,2024-12-17T10:44:26.187Z,82119,-0.18571427,-0.43050826,-0.687255
1734432266195,2024-12-17T10:44:26.195Z,82127,-0.08577342,-0.39993492,-0.6427678
1734432266197,2024-12-17T10:44:26.197Z,82129,-0.08577342,-0.39993492,-0.6427678
1734432266204,2024-12-17T10:44:26.204Z,82136,-0.1082988,-0.43958074,-0.59084356
1734432266207,2024-12-17T10:44:26.207Z,82139,-0.1082988,-0.43958074,-0.59084356
1734432266214,2024-12-17T10:44:26.214Z,82146,-0.060629416,-0.41752478,-0.6316551
1734432266216,2024-12-17T10:44:26.216Z,82148,-0.060629416,-0.41752478,-0.6316551
1734432266223,2024-12-17T10:44:26.223Z,82155,-0.08915865,-0.21140659,-0.6209002
1734432266226,2024-12-17T10:44:26.226Z,82158,-0.08915865,-0.21140659,-0.6209002
1734432266233,2024-12-17T10:44:26.233Z,82165,-0.16314675,-0.2099778,-0.5944802
1734432266236,2024-12-17T10:44:26.236Z,82168,-0.16314675,-0.2099778,-0.5944802
1734432266243,2024-12-17T10:44:26.243Z,82175,-0.0095350165,-0.33505765,-0.63986856
1734432266245,2024-12-17T10:44:26.245Z,82177,-0.0095350165,-0.33505765,-0.63986856
1734432266252,2024-12-17T10:44:26.252Z,82184,0.0044981446,-0.3020198,-0.7263025
1734432266254,2024-12-17T10:44:26.254Z,82186,0.0044981446,-0.3020198,-0.7263025
1734432266261,2024-12-17T10:44:26.261Z,82193,-0.07524612,-0.25789803,-0.7591403
1734432266262,2024-12-17T10:44:26.262Z,82194,-0.07524612,-0.25789803,-0.7591403
1734432266269,2024-12-17T10:44:26.269Z,82201,-0.08295974,-0.31213522,-0.6887864
1734432266271,2024-12-17T10:44:26.271Z,82203,-0.08295974,-0.31213522,-0.6887864
1734432266278,2024-12-17T10:44:26.278Z,82210,-0.1487616,-0.36285245,-0.7734455
1734432266280,2024-12-17T10:44:26.280Z,82212,-0.1487616,-0.36285245,-0.7734455
1734432266286,2024-12-17T10:44:26.286Z,82218,-0.21836288,-0.3543697,-0.83707285
1734432266289,2024-12-17T10:44:26.289Z,82221,-0.21836288,-0.3543697,-0.83707285
1734432266296,2024-12-17T10:44:26.296Z,82228,-0.22652169,-0.3310729,-0.7693497
1734432266298,2024-12-17T10:44:26.298Z,82230,-0.22652169,-0.3310729,-0.7693497
1734432266307,2024-12-17T10:44:26.307Z,82239,-0.2791427,-0.31547454,-0.6929414
1734432266310,2024-12-17T10:44:26.310Z,82242,-0.2791427,-0.31547454,-0.6929414
1734432266316,2024-12-17T10:44:26.316Z,82248,-0.27997568,-0.34218746,-0.66445154
1734432266319,2024-12-17T10:44:26.319Z,82251,-0.27997568,-0.34218746,-0.66445154
1734432266326,2024-12-17T10:44:26.326Z,82258,-0.18208295,-0.38728103,-0.6245222
1734432266327,2024-12-17T10:44:26.327Z,82259,-0.18208295,-0.38728103,-0.6245222
1734432266335,2024-12-17T10:44:26.335Z,82267,-0.18731153,-0.36246753,-0.6296104
1734432266337,2024-12-17T10:44:26.337Z,82269,-0.18731153,-0.36246753,-0.6296104
1734432266350,2024-12-17T10:44:26.350Z,82282,-0.112716846,-0.33903855,-0.6400679
1734432266352,2024-12-17T10:44:26.352Z,82284,-0.112716846,-0.33903855,-0.6400679
1734432266360,2024-12-17T10:44:26.360Z,82292,-0.07881705,-0.3359123,-0.6284373
1734432266363,2024-12-17T10:44:26.363Z,82295,-0.07881705,-0.3359123,-0.6284373
1734432266371,2024-12-17T10:44:26.371Z,82303,-0.15211275,-0.35901615,-0.6773959
1734432266374,2024-12-17T10:44:26.374Z,82306,-0.15211275,-0.35901615,-0.6773959
1734432266381,2024-12-17T10:44:26.381Z,82313,-0.15178369,-0.47780496,-0.7439746
1734432266385,2024-12-17T10:44:26.385Z,82317,-0.15178369,-0.47780496,-0.7439746
1734432266393,2024-12-17T10:44:26.393Z,82325,-0.10833409,-0.6113712,-0.71059394
1734432266395,2024-12-17T10:44:26.395Z,82327,-0.10833409,-0.6113712,-0.71059394
1734432266402,2024-12-17T10:44:26.402Z,82334,-0.17987664,-0.61447763,-0.7440924
1734432266404,2024-12-17T10:44:26.404Z,82336,-0.17987664,-0.61447763,-0.7440924
1734432266411,2024-12-17T10:44:26.411Z,82343,-0.14554489,-0.53725123,-0.7254766
1734432266413,2024-12-17T10:44:26.413Z,82345,-0.14554489,-0.53725123,-0.7254766
1734432266420,2024-12-17T10:44:26.420Z,82352,-0.1493778,-0.4526501,-0.67499083
1734432266422,2024-12-17T10:44:26.422Z,82354,-0.1493778,-0.4526501,-0.67499083
1734432266428,2024-12-17T10:44:26.428Z,82360,-0.12992623,-0.4250266,-0.73006386
1734432266430,2024-12-17T10:44:26.430Z,82362,-0.12992623,-0.4250266,-0.73006386
1734432266437,2024-12-17T10:44:26.437Z,82369,-0.10109887,-0.39053202,-0.72357553
1734432266439,2024-12-17T10:44:26.439Z,82371,-0.10109887,-0.39053202,-0.72357553
1734432266445,2024-12-17T10:44:26.445Z,82377,-0.16064583,-0.4482676,-0.7525774
1734432266448,2024-12-17T10:44:26.448Z,82380,-0.16064583,-0.4482676,-0.7525774
1734432266456,2024-12-17T10:44:26.456Z,82388,-0.2321978,-0.5250636,-0.7686696
1734432266458,2024-12-17T10:44:26.458Z,82390,-0.2321978,-0.5250636,-0.7686696
1734432266464,2024-12-17T10:44:26.464Z,82396,-0.18562804,-0.5651494,-0.75338423
1734432266467,2024-12-17T10:44:26.467Z,82399,-0.18562804,-0.5651494,-0.75338423
1734432266474,2024-12-17T10:44:26.474Z,82406,-0.18266152,-0.5430666,-0.76788247
1734432266477,2024-12-17T10:44:26.477Z,82409,-0.18266152,-0.5430666,-0.76788247
1734432266484,2024-12-17T10:44:26.484Z,82416,-0.1684504,-0.536281,-0.79384845
1734432266486,2024-12-17T10:44:26.486Z,82418,-0.1684504,-0.536281,-0.79384845
1734432266494,2024-12-17T10:44:26.494Z,82426,-0.18663597,-0.45926934,-0.7567562
1734432266496,2024-12-17T10:44:26.496Z,82428,-0.18663597,-0.45926934,-0.7567562
1734432266505,2024-12-17T10:44:26.505Z,82437,-0.23177427,-0.4432471,-0.7161092
1734432266507,2024-12-17T10:44:26.507Z,82439,-0.23177427,-0.4432471,-0.7161092
1734432266513,2024-12-17T10:44:26.513Z,82445,-0.24890152,-0.48585007,-0.74443096
1734432266516,2024-12-17T10:44:26.516Z,82448,-0.24890152,-0.48585007,-0.74443096
1734432266524,2024-12-17T10:44:26.524Z,82456,-0.19901681,-0.5183817,-0.7287922
1734432266528,2024-12-17T10:44:26.528Z,82460,-0.19901681,-0.5183817,-0.7287922
1734432266536,2024-12-17T10:44:26.536Z,82468,-0.21021752,-0.51801914,-0.6343826
1734432266538,2024-12-17T10:44:26.538Z,82470,-0.21021752,-0.51801914,-0.6343826
1734432266545,2024-12-17T10:44:26.545Z,82477,-0.13349713,-0.6334257,-0.62521344
1734432266547,2024-12-17T10:44:26.547Z,82479,-0.13349713,-0.6334257,-0.62521344
1734432266553,2024-12-17T10:44:26.553Z,82485,-0.13352485,-0.6090547,-0.6749758
1734432266556,2024-12-17T10:44:26.556Z,82488,-0.13352485,-0.6090547,-0.6749758
1734432266563,2024-12-17T10:44:26.563Z,82495,-0.11656894,-0.52039486,-0.63459325
1734432266565,2024-12-17T10:44:26.565Z,82497,-0.11656894,-0.52039486,-0.63459325
1734432266572,2024-12-17T10:44:26.572Z,82504,-0.07959707,-0.50743175,-0.6316664
1734432266574,2024-12-17T10:44:26.574Z,82506,-0.07959707,-0.50743175,-0.6316664
1734432266580,2024-12-17T10:44:26.580Z,82512,-0.13090461,-0.60453117,-0.5657602
1734432266583,2024-12-17T10:44:26.583Z,82515,-0.13090461,-0.60453117,-0.5657602
1734432266590,2024-12-17T10:44:26.590Z,82522,-0.11592714,-0.6715408,-0.5366766
1734432266592,2024-12-17T10:44:26.592Z,82524,-0.11592714,-0.6715408,-0.5366766
1734432266598,2024-12-17T10:44:26.598Z,82530,0.032348175,-0.7017428,-0.47559622
1734432266600,2024-12-17T10:44:26.600Z,82532,0.032348175,-0.7017428,-0.47559622
1734432266607,2024-12-17T10:44:26.607Z,82539,0.028547054,-0.78997827,-0.4705974
1734432266610,2024-12-17T10:44:26.610Z,82542,0.028547054,-0.78997827,-0.4705974
