Timestamp (ms),ISO DateTime,Elapsed Time (ms),Acceleration X,Acceleration Y,Acceleration Z
1734432106328,2024-12-17T10:41:46.328Z,21368,-0.13971834,-0.9293046,-0.8346299
1734432106334,2024-12-17T10:41:46.334Z,21374,-0.13971834,-0.9293046,-0.8346299
1734432106353,2024-12-17T10:41:46.353Z,21393,-0.10485575,-0.90723616,-0.81715107
1734432106358,2024-12-17T10:41:46.358Z,21398,-0.10485575,-0.90723616,-0.81715107
1734432106378,2024-12-17T10:41:46.378Z,21418,-0.07840523,-0.8890919,-0.79225117
1734432106384,2024-12-17T10:41:46.384Z,21424,-0.07840523,-0.8890919,-0.79225117
1734432106402,2024-12-17T10:41:46.402Z,21442,-0.10215345,-0.9367257,-0.75123346
1734432106406,2024-12-17T10:41:46.406Z,21446,-0.10215345,-0.9367257,-0.75123346
1734432106420,2024-12-17T10:41:46.420Z,21460,-0.14567089,-0.9770634,-0.7375877
1734432106424,2024-12-17T10:41:46.424Z,21464,-0.14567089,-0.9770634,-0.7375877
1734432106437,2024-12-17T10:41:46.437Z,21477,-0.10217381,-0.9362225,-0.7609907
1734432106440,2024-12-17T10:41:46.440Z,21480,-0.10217381,-0.9362225,-0.7609907
1734432106451,2024-12-17T10:41:46.451Z,21491,-0.006787757,-0.8303986,-0.74868906
1734432106454,2024-12-17T10:41:46.454Z,21494,-0.006787757,-0.8303986,-0.74868906
1734432106467,2024-12-17T10:41:46.467Z,21507,0.016915426,-0.71890867,-0.77593803
1734432106471,2024-12-17T10:41:46.471Z,21511,0.016915426,-0.71890867,-0.77593803
1734432106483,2024-12-17T10:41:46.483Z,21523,-0.04572286,-0.67028874,-0.8451726
1734432106487,2024-12-17T10:41:46.487Z,21527,-0.04572286,-0.67028874,-0.8451726
1734432106501,2024-12-17T10:41:46.501Z,21541,-0.08548237,-0.63433456,-0.82404506
1734432106505,2024-12-17T10:41:46.505Z,21545,-0.08548237,-0.63433456,-0.82404506
1734432106517,2024-12-17T10:41:46.517Z,21557,-0.18540749,-0.626134,-0.69137526
1734432106520,2024-12-17T10:41:46.520Z,21560,-0.18540749,-0.626134,-0.69137526
1734432106534,2024-12-17T10:41:46.534Z,21574,-0.29742542,-0.80786216,-0.5207192
1734432106538,2024-12-17T10:41:46.538Z,21578,-0.29742542,-0.80786216,-0.5207192
1734432106550,2024-12-17T10:41:46.550Z,21590,-0.20124882,-1.1108564,-0.34727654
1734432106554,2024-12-17T10:41:46.554Z,21594,-0.20124882,-1.1108564,-0.34727654
1734432106567,2024-12-17T10:41:46.567Z,21607,0.027483335,-1.2332128,-0.3151929
1734432106571,2024-12-17T10:41:46.571Z,21611,0.027483335,-1.2332128,-0.3151929
1734432106584,2024-12-17T10:41:46.584Z,21624,0.120915204,-1.1557603,-0.3812745
1734432106588,2024-12-17T10:41:46.588Z,21628,0.120915204,-1.1557603,-0.3812745
1734432106600,2024-12-17T10:41:46.600Z,21640,0.02727013,-1.090553,-0.46719864
1734432106603,2024-12-17T10:41:46.603Z,21643,0.02727013,-1.090553,-0.46719864
1734432106616,2024-12-17T10:41:46.616Z,21656,-0.15365817,-1.0670285,-0.48453707
1734432106620,2024-12-17T10:41:46.620Z,21660,-0.15365817,-1.0670285,-0.48453707
1734432106632,2024-12-17T10:41:46.632Z,21672,-0.23766111,-1.0112818,-0.56291264
1734432106635,2024-12-17T10:41:46.635Z,21675,-0.23766111,-1.0112818,-0.56291264
1734432106648,2024-12-17T10:41:46.648Z,21688,-0.19466585,-0.9391631,-0.67239356
1734432106652,2024-12-17T10:41:46.652Z,21692,-0.19466585,-0.9391631,-0.67239356
1734432106664,2024-12-17T10:41:46.664Z,21704,-0.18346334,-0.8989069,-0.81148225
1734432106669,2024-12-17T10:41:46.669Z,21709,-0.18346334,-0.8989069,-0.81148225
1734432106680,2024-12-17T10:41:46.680Z,21720,-0.24144545,-0.9532332,-0.9335413
1734432106685,2024-12-17T10:41:46.685Z,21725,-0.24144545,-0.9532332,-0.9335413
1734432106698,2024-12-17T10:41:46.698Z,21738,-0.28181803,-0.99175584,-1.0094259
1734432106701,2024-12-17T10:41:46.701Z,21741,-0.28181803,-0.99175584,-1.0094259
1734432106713,2024-12-17T10:41:46.713Z,21753,-0.28218603,-0.984474,-1.0640925
1734432106716,2024-12-17T10:41:46.716Z,21756,-0.28218603,-0.984474,-1.0640925
1734432106728,2024-12-17T10:41:46.728Z,21768,-0.20700519,-0.98984766,-1.1127907
1734432106732,2024-12-17T10:41:46.732Z,21772,-0.20700519,-0.98984766,-1.1127907
1734432106747,2024-12-17T10:41:46.747Z,21787,-0.1788318,-0.95318097,-1.0978327
1734432106750,2024-12-17T10:41:46.750Z,21790,-0.1788318,-0.95318097,-1.0978327
1734432106766,2024-12-17T10:41:46.766Z,21806,-0.20402299,-0.9118495,-1.0391045
1734432106771,2024-12-17T10:41:46.771Z,21811,-0.20402299,-0.9118495,-1.0391045
1734432106785,2024-12-17T10:41:46.785Z,21825,-0.12852877,-0.84397364,-0.9838799
1734432106788,2024-12-17T10:41:46.788Z,21828,-0.12852877,-0.84397364,-0.9838799
1734432106802,2024-12-17T10:41:46.802Z,21842,-0.11776647,-0.72721857,-0.9453438
1734432106807,2024-12-17T10:41:46.807Z,21847,-0.11776647,-0.72721857,-0.9453438
1734432106819,2024-12-17T10:41:46.819Z,21859,-0.15711515,-0.6650486,-0.8895944
1734432106822,2024-12-17T10:41:46.822Z,21862,-0.15711515,-0.6650486,-0.8895944
1734432106834,2024-12-17T10:41:46.834Z,21874,-0.12512921,-0.6992192,-0.7891973
1734432106837,2024-12-17T10:41:46.837Z,21877,-0.12512921,-0.6992192,-0.7891973
1734432106851,2024-12-17T10:41:46.851Z,21891,-0.10479527,-0.6216657,-0.71173245
1734432106855,2024-12-17T10:41:46.855Z,21895,-0.10479527,-0.6216657,-0.71173245
1734432106870,2024-12-17T10:41:46.870Z,21910,-0.2625446,-0.51910764,-0.82272774
1734432106875,2024-12-17T10:41:46.875Z,21915,-0.2625446,-0.51910764,-0.82272774
1734432106888,2024-12-17T10:41:46.888Z,21928,-0.3149372,-0.53378415,-0.841155
1734432106892,2024-12-17T10:41:46.892Z,21932,-0.3149372,-0.53378415,-0.841155
1734432106906,2024-12-17T10:41:46.906Z,21946,-0.30915055,-0.5039201,-0.8410812
1734432106911,2024-12-17T10:41:46.911Z,21951,-0.30915055,-0.5039201,-0.8410812
1734432106925,2024-12-17T10:41:46.925Z,21965,-0.44464436,-0.47547436,-0.90240705
1734432106929,2024-12-17T10:41:46.929Z,21969,-0.44464436,-0.47547436,-0.90240705
1734432106944,2024-12-17T10:41:46.944Z,21984,-0.44552422,-0.5808013,-0.9595185
1734432106947,2024-12-17T10:41:46.947Z,21987,-0.44552422,-0.5808013,-0.9595185
1734432106961,2024-12-17T10:41:46.961Z,22001,-0.31448603,-0.6291882,-0.99389374
1734432106965,2024-12-17T10:41:46.965Z,22005,-0.31448603,-0.6291882,-0.99389374
1734432106990,2024-12-17T10:41:46.990Z,22030,-0.30273458,-0.55190915,-0.97322285
1734432106995,2024-12-17T10:41:46.995Z,22035,-0.30273458,-0.55190915,-0.97322285
1734432107007,2024-12-17T10:41:47.007Z,22047,-0.2652201,-0.46517694,-0.93116546
1734432107012,2024-12-17T10:41:47.012Z,22052,-0.2652201,-0.46517694,-0.93116546
1734432107025,2024-12-17T10:41:47.025Z,22065,-0.21915185,-0.41201645,-0.9311193
1734432107029,2024-12-17T10:41:47.029Z,22069,-0.21915185,-0.41201645,-0.9311193
1734432107041,2024-12-17T10:41:47.041Z,22081,-0.22680333,-0.4566929,-0.85929364
1734432107046,2024-12-17T10:41:47.046Z,22086,-0.22680333,-0.4566929,-0.85929364
1734432107059,2024-12-17T10:41:47.059Z,22099,-0.24490719,-0.49546388,-0.84881616
1734432107062,2024-12-17T10:41:47.062Z,22102,-0.24490719,-0.49546388,-0.84881616
1734432107075,2024-12-17T10:41:47.075Z,22115,-0.32535234,-0.51153994,-0.8405967
1734432107079,2024-12-17T10:41:47.079Z,22119,-0.32535234,-0.51153994,-0.8405967
1734432107092,2024-12-17T10:41:47.092Z,22132,-0.27243358,-0.5478737,-0.79553145
1734432107096,2024-12-17T10:41:47.096Z,22136,-0.27243358,-0.5478737,-0.79553145
1734432107107,2024-12-17T10:41:47.107Z,22147,-0.26551837,-0.59327155,-0.7929645
1734432107112,2024-12-17T10:41:47.112Z,22152,-0.26551837,-0.59327155,-0.7929645
1734432107124,2024-12-17T10:41:47.124Z,22164,-0.37030315,-0.56834465,-0.81110597
1734432107128,2024-12-17T10:41:47.128Z,22168,-0.37030315,-0.56834465,-0.81110597
1734432107140,2024-12-17T10:41:47.140Z,22180,-0.42831793,-0.55424637,-0.8605089
1734432107146,2024-12-17T10:41:47.146Z,22186,-0.42831793,-0.55424637,-0.8605089
1734432107159,2024-12-17T10:41:47.159Z,22199,-0.27567446,-0.5966797,-0.8302534
1734432107164,2024-12-17T10:41:47.164Z,22204,-0.27567446,-0.5966797,-0.8302534
1734432107177,2024-12-17T10:41:47.177Z,22217,-0.28690457,-0.5320289,-0.8359665
1734432107181,2024-12-17T10:41:47.181Z,22221,-0.28690457,-0.5320289,-0.8359665
1734432107192,2024-12-17T10:41:47.192Z,22232,-0.3737668,-0.52964616,-0.8234737
1734432107195,2024-12-17T10:41:47.195Z,22235,-0.3737668,-0.52964616,-0.8234737
1734432107209,2024-12-17T10:41:47.209Z,22249,-0.28616333,-0.5869093,-0.7836762
1734432107212,2024-12-17T10:41:47.212Z,22252,-0.28616333,-0.5869093,-0.7836762
1734432107224,2024-12-17T10:41:47.224Z,22264,-0.19194502,-0.5884366,-0.7529734
1734432107228,2024-12-17T10:41:47.228Z,22268,-0.19194502,-0.5884366,-0.7529734
1734432107241,2024-12-17T10:41:47.241Z,22281,-0.3183442,-0.48860937,-0.73885304
1734432107245,2024-12-17T10:41:47.245Z,22285,-0.3183442,-0.48860937,-0.73885304
1734432107256,2024-12-17T10:41:47.256Z,22296,-0.464066,-0.57452,-0.7296109
1734432107260,2024-12-17T10:41:47.260Z,22300,-0.464066,-0.57452,-0.7296109
1734432107270,2024-12-17T10:41:47.270Z,22310,-0.32812348,-0.68606806,-0.76000357
1734432107274,2024-12-17T10:41:47.274Z,22314,-0.32812348,-0.68606806,-0.76000357
1734432107286,2024-12-17T10:41:47.286Z,22326,-0.35330155,-0.59316766,-0.7984899
1734432107292,2024-12-17T10:41:47.292Z,22332,-0.35330155,-0.59316766,-0.7984899
1734432107302,2024-12-17T10:41:47.302Z,22342,-0.45578632,-0.56838876,-0.7331231
1734432107306,2024-12-17T10:41:47.306Z,22346,-0.45578632,-0.56838876,-0.7331231
1734432107318,2024-12-17T10:41:47.318Z,22358,-0.29718664,-0.69793296,-0.71995175
1734432107322,2024-12-17T10:41:47.322Z,22362,-0.29718664,-0.69793296,-0.71995175
1734432107334,2024-12-17T10:41:47.334Z,22374,-0.22330505,-0.6463075,-0.76190805
1734432107337,2024-12-17T10:41:47.337Z,22377,-0.22330505,-0.6463075,-0.76190805
1734432107346,2024-12-17T10:41:47.346Z,22386,-0.308442,-0.59079456,-0.82923955
1734432107350,2024-12-17T10:41:47.350Z,22390,-0.308442,-0.59079456,-0.82923955
1734432107362,2024-12-17T10:41:47.362Z,22402,-0.37806174,-0.562617,-0.82745534
1734432107366,2024-12-17T10:41:47.366Z,22406,-0.37806174,-0.562617,-0.82745534
1734432107377,2024-12-17T10:41:47.377Z,22417,-0.33103088,-0.6416796,-0.77873117
1734432107381,2024-12-17T10:41:47.381Z,22421,-0.33103088,-0.6416796,-0.77873117
1734432107391,2024-12-17T10:41:47.391Z,22431,-0.24907455,-0.6614136,-0.85562116
1734432107395,2024-12-17T10:41:47.395Z,22435,-0.24907455,-0.6614136,-0.85562116
1734432107406,2024-12-17T10:41:47.406Z,22446,-0.35996464,-0.6628556,-0.84858364
1734432107409,2024-12-17T10:41:47.409Z,22449,-0.35996464,-0.6628556,-0.84858364
1734432107420,2024-12-17T10:41:47.420Z,22460,-0.25814328,-0.7250839,-0.7802028
1734432107424,2024-12-17T10:41:47.424Z,22464,-0.25814328,-0.7250839,-0.7802028
1734432107435,2024-12-17T10:41:47.435Z,22475,-0.21052742,-0.6530808,-0.7896831
1734432107438,2024-12-17T10:41:47.438Z,22478,-0.21052742,-0.6530808,-0.7896831
1734432107448,2024-12-17T10:41:47.448Z,22488,-0.3456474,-0.66967005,-0.7623553
1734432107452,2024-12-17T10:41:47.452Z,22492,-0.3456474,-0.66967005,-0.7623553
1734432107462,2024-12-17T10:41:47.462Z,22502,-0.25403747,-0.82044065,-0.7389531
1734432107465,2024-12-17T10:41:47.465Z,22505,-0.25403747,-0.82044065,-0.7389531
1734432107475,2024-12-17T10:41:47.475Z,22515,-0.30688515,-0.6270594,-0.779725
1734432107480,2024-12-17T10:41:47.480Z,22520,-0.30688515,-0.6270594,-0.779725
1734432107492,2024-12-17T10:41:47.492Z,22532,-0.41264024,-0.5768654,-0.6962313
1734432107497,2024-12-17T10:41:47.497Z,22537,-0.41264024,-0.5768654,-0.6962313
1734432107510,2024-12-17T10:41:47.510Z,22550,-0.26257548,-0.6852905,-0.6493122
1734432107514,2024-12-17T10:41:47.514Z,22554,-0.26257548,-0.6852905,-0.6493122
1734432107525,2024-12-17T10:41:47.525Z,22565,-0.34096292,-0.6039457,-0.66663307
1734432107532,2024-12-17T10:41:47.532Z,22572,-0.34096292,-0.6039457,-0.66663307
1734432107543,2024-12-17T10:41:47.543Z,22583,-0.34176543,-0.60044193,-0.72448194
1734432107547,2024-12-17T10:41:47.547Z,22587,-0.34176543,-0.60044193,-0.72448194
1734432107558,2024-12-17T10:41:47.558Z,22598,-0.3156915,-0.65014607,-0.6651175
1734432107562,2024-12-17T10:41:47.562Z,22602,-0.3156915,-0.65014607,-0.6651175
1734432107575,2024-12-17T10:41:47.575Z,22615,-0.47521487,-0.72797793,-0.6636115
1734432107580,2024-12-17T10:41:47.580Z,22620,-0.47521487,-0.72797793,-0.6636115
1734432107595,2024-12-17T10:41:47.595Z,22635,-0.4167574,-0.89137816,-0.754673
1734432107600,2024-12-17T10:41:47.600Z,22640,-0.4167574,-0.89137816,-0.754673
1734432107615,2024-12-17T10:41:47.615Z,22655,-0.27422297,-0.96342385,-0.770269
1734432107619,2024-12-17T10:41:47.619Z,22659,-0.27422297,-0.96342385,-0.770269
1734432107632,2024-12-17T10:41:47.632Z,22672,-0.2330168,-0.8907277,-0.73073614
1734432107636,2024-12-17T10:41:47.636Z,22676,-0.2330168,-0.8907277,-0.73073614
1734432107647,2024-12-17T10:41:47.647Z,22687,-0.19043657,-0.7508778,-0.8181003
1734432107651,2024-12-17T10:41:47.651Z,22691,-0.19043657,-0.7508778,-0.8181003
1734432107663,2024-12-17T10:41:47.663Z,22703,-0.2640802,-0.73916346,-0.80231994
1734432107667,2024-12-17T10:41:47.667Z,22707,-0.2640802,-0.73916346,-0.80231994
1734432107679,2024-12-17T10:41:47.679Z,22719,-0.33848625,-0.8253393,-0.7327487
1734432107684,2024-12-17T10:41:47.684Z,22724,-0.33848625,-0.8253393,-0.7327487
1734432107696,2024-12-17T10:41:47.696Z,22736,-0.23691317,-0.9042519,-0.73406184
1734432107699,2024-12-17T10:41:47.699Z,22739,-0.23691317,-0.9042519,-0.73406184
1734432107709,2024-12-17T10:41:47.709Z,22749,-0.27184772,-0.94788516,-0.7979336
1734432107713,2024-12-17T10:41:47.713Z,22753,-0.27184772,-0.94788516,-0.7979336
1734432107723,2024-12-17T10:41:47.723Z,22763,-0.2868687,-0.99017984,-0.9402335
1734432107727,2024-12-17T10:41:47.727Z,22767,-0.2868687,-0.99017984,-0.9402335
1734432107740,2024-12-17T10:41:47.740Z,22780,-0.31814608,-0.9854213,-0.80282056
1734432107743,2024-12-17T10:41:47.743Z,22783,-0.31814608,-0.9854213,-0.80282056
1734432107754,2024-12-17T10:41:47.754Z,22794,-0.3444848,-0.97963387,-0.63465446
1734432107757,2024-12-17T10:41:47.757Z,22797,-0.3444848,-0.97963387,-0.63465446
1734432107771,2024-12-17T10:41:47.771Z,22811,-0.2945748,-0.9871003,-0.65229946
1734432107775,2024-12-17T10:41:47.775Z,22815,-0.2945748,-0.9871003,-0.65229946
1734432107787,2024-12-17T10:41:47.787Z,22827,-0.26572323,-1.0585665,-0.6196178
1734432107792,2024-12-17T10:41:47.792Z,22832,-0.26572323,-1.0585665,-0.6196178
1734432107804,2024-12-17T10:41:47.804Z,22844,-0.1688242,-1.050863,-0.52766055
1734432107808,2024-12-17T10:41:47.808Z,22848,-0.1688242,-1.050863,-0.52766055
1734432107818,2024-12-17T10:41:47.818Z,22858,-0.1902557,-1.0363008,-0.5619435
1734432107821,2024-12-17T10:41:47.821Z,22861,-0.1902557,-1.0363008,-0.5619435
1734432107834,2024-12-17T10:41:47.834Z,22874,-0.24050602,-1.1207738,-0.5356794
1734432107838,2024-12-17T10:41:47.838Z,22878,-0.24050602,-1.1207738,-0.5356794
1734432107847,2024-12-17T10:41:47.847Z,22887,-0.17496908,-1.1123843,-0.6141744
1734432107850,2024-12-17T10:41:47.850Z,22890,-0.17496908,-1.1123843,-0.6141744
1734432107860,2024-12-17T10:41:47.860Z,22900,-0.20454443,-1.0656205,-0.6731886
1734432107863,2024-12-17T10:41:47.863Z,22903,-0.20454443,-1.0656205,-0.6731886
1734432107873,2024-12-17T10:41:47.873Z,22913,-0.29811984,-1.1506194,-0.58730483
1734432107876,2024-12-17T10:41:47.876Z,22916,-0.29811984,-1.1506194,-0.58730483
1734432107885,2024-12-17T10:41:47.885Z,22925,-0.34245414,-1.190137,-0.5285276
1734432107888,2024-12-17T10:41:47.888Z,22928,-0.34245414,-1.190137,-0.5285276
1734432107897,2024-12-17T10:41:47.897Z,22937,-0.25780424,-1.1917088,-0.6719251
1734432107899,2024-12-17T10:41:47.899Z,22939,-0.25780424,-1.1917088,-0.6719251
1734432107910,2024-12-17T10:41:47.910Z,22950,-0.2970804,-1.2282495,-0.6670352
1734432107914,2024-12-17T10:41:47.914Z,22954,-0.2970804,-1.2282495,-0.6670352
1734432107925,2024-12-17T10:41:47.925Z,22965,-0.33530104,-1.3138205,-0.68535054
1734432107929,2024-12-17T10:41:47.929Z,22969,-0.33530104,-1.3138205,-0.68535054
1734432107939,2024-12-17T10:41:47.939Z,22979,-0.26403478,-1.2727466,-0.76202834
1734432107943,2024-12-17T10:41:47.943Z,22983,-0.26403478,-1.2727466,-0.76202834
1734432107954,2024-12-17T10:41:47.954Z,22994,-0.289658,-1.1748581,-0.7675784
1734432107957,2024-12-17T10:41:47.957Z,22997,-0.289658,-1.1748581,-0.7675784
1734432107967,2024-12-17T10:41:47.967Z,23007,-0.30832914,-1.2024933,-0.73066217
1734432107970,2024-12-17T10:41:47.970Z,23010,-0.30832914,-1.2024933,-0.73066217
1734432107981,2024-12-17T10:41:47.981Z,23021,-0.18689503,-1.217245,-0.63575244
1734432107985,2024-12-17T10:41:47.985Z,23025,-0.18689503,-1.217245,-0.63575244
1734432107995,2024-12-17T10:41:47.995Z,23035,-0.13154295,-1.2647526,-0.5909892
1734432107998,2024-12-17T10:41:47.998Z,23038,-0.13154295,-1.2647526,-0.5909892
1734432108009,2024-12-17T10:41:48.009Z,23049,-0.24799882,-1.3705584,-0.6587138
1734432108012,2024-12-17T10:41:48.012Z,23052,-0.24799882,-1.3705584,-0.6587138
1734432108023,2024-12-17T10:41:48.023Z,23063,-0.16963945,-1.435828,-0.781325
1734432108025,2024-12-17T10:41:48.025Z,23065,-0.16963945,-1.435828,-0.781325
1734432108036,2024-12-17T10:41:48.036Z,23076,-0.08263752,-1.4129102,-0.7712909
1734432108040,2024-12-17T10:41:48.040Z,23080,-0.08263752,-1.4129102,-0.7712909
1734432108051,2024-12-17T10:41:48.051Z,23091,-0.019432828,-1.358023,-0.66898346
1734432108055,2024-12-17T10:41:48.055Z,23095,-0.019432828,-1.358023,-0.66898346
1734432108068,2024-12-17T10:41:48.068Z,23108,-0.019802758,-1.3527433,-0.63050514
1734432108071,2024-12-17T10:41:48.071Z,23111,-0.019802758,-1.3527433,-0.63050514
1734432108081,2024-12-17T10:41:48.081Z,23121,-0.11876747,-1.3355323,-0.67370445
1734432108084,2024-12-17T10:41:48.084Z,23124,-0.11876747,-1.3355323,-0.67370445
1734432108094,2024-12-17T10:41:48.094Z,23134,-0.20563708,-1.3712623,-0.7235902
1734432108097,2024-12-17T10:41:48.097Z,23137,-0.20563708,-1.3712623,-0.7235902
1734432108107,2024-12-17T10:41:48.107Z,23147,-0.20643164,-1.393511,-0.75179964
1734432108111,2024-12-17T10:41:48.111Z,23151,-0.20643164,-1.393511,-0.75179964
1734432108121,2024-12-17T10:41:48.121Z,23161,-0.09778675,-1.3502469,-0.6801707
1734432108124,2024-12-17T10:41:48.124Z,23164,-0.09778675,-1.3502469,-0.6801707
1734432108139,2024-12-17T10:41:48.139Z,23179,-0.017411657,-1.3510351,-0.60856694
1734432108144,2024-12-17T10:41:48.144Z,23184,-0.017411657,-1.3510351,-0.60856694
1734432108154,2024-12-17T10:41:48.154Z,23194,-0.099202015,-1.3473562,-0.62206554
1734432108157,2024-12-17T10:41:48.157Z,23197,-0.099202015,-1.3473562,-0.62206554
1734432108169,2024-12-17T10:41:48.169Z,23209,-0.21247855,-1.354769,-0.62553763
1734432108172,2024-12-17T10:41:48.172Z,23212,-0.21247855,-1.354769,-0.62553763
1734432108184,2024-12-17T10:41:48.184Z,23224,-0.14699079,-1.3669674,-0.62232625
1734432108187,2024-12-17T10:41:48.187Z,23227,-0.14699079,-1.3669674,-0.62232625
1734432108196,2024-12-17T10:41:48.196Z,23236,-0.091706745,-1.3562756,-0.5787263
1734432108200,2024-12-17T10:41:48.200Z,23240,-0.091706745,-1.3562756,-0.5787263
1734432108210,2024-12-17T10:41:48.210Z,23250,-0.069925934,-1.3481873,-0.5660477
1734432108213,2024-12-17T10:41:48.213Z,23253,-0.069925934,-1.3481873,-0.5660477
1734432108227,2024-12-17T10:41:48.227Z,23267,-0.07702639,-1.3200026,-0.5896752
1734432108230,2024-12-17T10:41:48.230Z,23270,-0.07702639,-1.3200026,-0.5896752
1734432108240,2024-12-17T10:41:48.240Z,23280,-0.10380202,-1.3026794,-0.59721226
1734432108244,2024-12-17T10:41:48.244Z,23284,-0.10380202,-1.3026794,-0.59721226
1734432108255,2024-12-17T10:41:48.255Z,23295,-0.07669042,-1.3133739,-0.6193766
1734432108258,2024-12-17T10:41:48.258Z,23298,-0.07669042,-1.3133739,-0.6193766
1734432108269,2024-12-17T10:41:48.269Z,23309,-0.09048564,-1.354361,-0.6670265
1734432108272,2024-12-17T10:41:48.272Z,23312,-0.09048564,-1.354361,-0.6670265
1734432108282,2024-12-17T10:41:48.282Z,23322,-0.04876506,-1.3768626,-0.64527184
1734432108286,2024-12-17T10:41:48.286Z,23326,-0.04876506,-1.3768626,-0.64527184
1734432108297,2024-12-17T10:41:48.297Z,23337,-0.07211143,-1.2902838,-0.6702937
1734432108300,2024-12-17T10:41:48.300Z,23340,-0.07211143,-1.2902838,-0.6702937
1734432108310,2024-12-17T10:41:48.310Z,23350,-0.12909143,-1.1607381,-0.62784195
1734432108314,2024-12-17T10:41:48.314Z,23354,-0.12909143,-1.1607381,-0.62784195
1734432108325,2024-12-17T10:41:48.325Z,23365,-0.03924474,-1.1745561,-0.58741695
1734432108328,2024-12-17T10:41:48.328Z,23368,-0.03924474,-1.1745561,-0.58741695
1734432108338,2024-12-17T10:41:48.338Z,23378,2.2731654E-5,-1.186526,-0.59358025
1734432108341,2024-12-17T10:41:48.341Z,23381,2.2731654E-5,-1.186526,-0.59358025
1734432108352,2024-12-17T10:41:48.352Z,23392,-0.08210169,-1.1454308,-0.63372445
1734432108355,2024-12-17T10:41:48.355Z,23395,-0.08210169,-1.1454308,-0.63372445
1734432108366,2024-12-17T10:41:48.366Z,23406,-0.11645314,-1.1269877,-0.672425
1734432108370,2024-12-17T10:41:48.370Z,23410,-0.11645314,-1.1269877,-0.672425
1734432108379,2024-12-17T10:41:48.379Z,23419,-0.09505144,-1.2098019,-0.63002545
1734432108383,2024-12-17T10:41:48.383Z,23423,-0.09505144,-1.2098019,-0.63002545
1734432108393,2024-12-17T10:41:48.393Z,23433,-0.07385543,-1.3040489,-0.60031146
1734432108396,2024-12-17T10:41:48.396Z,23436,-0.07385543,-1.3040489,-0.60031146
1734432108406,2024-12-17T10:41:48.406Z,23446,-0.06720932,-1.2520915,-0.6222274
1734432108409,2024-12-17T10:41:48.409Z,23449,-0.06720932,-1.2520915,-0.6222274
1734432108420,2024-12-17T10:41:48.420Z,23460,-0.10514796,-1.0743471,-0.6082684
1734432108423,2024-12-17T10:41:48.423Z,23463,-0.10514796,-1.0743471,-0.6082684
1734432108433,2024-12-17T10:41:48.433Z,23473,-0.1760436,-0.98983,-0.55802745
1734432108436,2024-12-17T10:41:48.436Z,23476,-0.1760436,-0.98983,-0.55802745
1734432108445,2024-12-17T10:41:48.445Z,23485,-0.18537031,-1.1218737,-0.5132208
1734432108448,2024-12-17T10:41:48.448Z,23488,-0.18537031,-1.1218737,-0.5132208
1734432108457,2024-12-17T10:41:48.457Z,23497,-0.12897274,-1.2636315,-0.48763674
1734432108459,2024-12-17T10:41:48.459Z,23499,-0.12897274,-1.2636315,-0.48763674
1734432108469,2024-12-17T10:41:48.469Z,23509,-0.12300862,-1.2629634,-0.49838147
1734432108473,2024-12-17T10:41:48.473Z,23513,-0.12300862,-1.2629634,-0.49838147
1734432108484,2024-12-17T10:41:48.484Z,23524,-0.12176779,-1.1266955,-0.5228943
1734432108488,2024-12-17T10:41:48.488Z,23528,-0.12176779,-1.1266955,-0.5228943
1734432108499,2024-12-17T10:41:48.499Z,23539,-0.16983187,-1.0195407,-0.56508887
1734432108502,2024-12-17T10:41:48.502Z,23542,-0.16983187,-1.0195407,-0.56508887
1734432108514,2024-12-17T10:41:48.514Z,23554,-0.2398556,-1.117781,-0.58990914
1734432108518,2024-12-17T10:41:48.518Z,23558,-0.2398556,-1.117781,-0.58990914
1734432108529,2024-12-17T10:41:48.529Z,23569,-0.1646599,-1.2848998,-0.62351793
1734432108533,2024-12-17T10:41:48.533Z,23573,-0.1646599,-1.2848998,-0.62351793
1734432108545,2024-12-17T10:41:48.545Z,23585,-0.112730354,-1.3034091,-0.63881886
1734432108548,2024-12-17T10:41:48.548Z,23588,-0.112730354,-1.3034091,-0.63881886
1734432108557,2024-12-17T10:41:48.557Z,23597,-0.10212483,-1.2395653,-0.66128176
1734432108560,2024-12-17T10:41:48.560Z,23600,-0.10212483,-1.2395653,-0.66128176
1734432108570,2024-12-17T10:41:48.570Z,23610,-0.0047885138,-1.1236507,-0.67967236
1734432108573,2024-12-17T10:41:48.573Z,23613,-0.0047885138,-1.1236507,-0.67967236
1734432108582,2024-12-17T10:41:48.582Z,23622,-0.04346877,-1.0159553,-0.6667653
1734432108585,2024-12-17T10:41:48.585Z,23625,-0.04346877,-1.0159553,-0.6667653
1734432108594,2024-12-17T10:41:48.594Z,23634,-0.15844956,-1.0089133,-0.6914467
1734432108597,2024-12-17T10:41:48.597Z,23637,-0.15844956,-1.0089133,-0.6914467
1734432108607,2024-12-17T10:41:48.607Z,23647,-0.15311845,-1.0191276,-0.7315978
1734432108609,2024-12-17T10:41:48.609Z,23649,-0.15311845,-1.0191276,-0.7315978
1734432108618,2024-12-17T10:41:48.618Z,23658,-0.18170159,-1.1029383,-0.5798277
1734432108621,2024-12-17T10:41:48.621Z,23661,-0.18170159,-1.1029383,-0.5798277
1734432108630,2024-12-17T10:41:48.630Z,23670,-0.1622819,-1.2907157,-0.525318
1734432108633,2024-12-17T10:41:48.633Z,23673,-0.1622819,-1.2907157,-0.525318
1734432108643,2024-12-17T10:41:48.643Z,23683,-0.18047304,-1.3406163,-0.57819134
1734432108646,2024-12-17T10:41:48.646Z,23686,-0.18047304,-1.3406163,-0.57819134
1734432108656,2024-12-17T10:41:48.656Z,23696,-0.23005423,-1.2397131,-0.58945835
1734432108659,2024-12-17T10:41:48.659Z,23699,-0.23005423,-1.2397131,-0.58945835
1734432108669,2024-12-17T10:41:48.669Z,23709,-0.34008697,-1.0338777,-0.64722896
1734432108672,2024-12-17T10:41:48.672Z,23712,-0.34008697,-1.0338777,-0.64722896
1734432108686,2024-12-17T10:41:48.686Z,23726,-0.35003307,-0.9100914,-0.58060455
1734432108689,2024-12-17T10:41:48.689Z,23729,-0.35003307,-0.9100914,-0.58060455
1734432108701,2024-12-17T10:41:48.701Z,23741,-0.22799712,-0.93193215,-0.46251187
1734432108705,2024-12-17T10:41:48.705Z,23745,-0.22799712,-0.93193215,-0.46251187
1734432108715,2024-12-17T10:41:48.715Z,23755,-0.122376576,-1.0142984,-0.450607
1734432108719,2024-12-17T10:41:48.719Z,23759,-0.122376576,-1.0142984,-0.450607
1734432108730,2024-12-17T10:41:48.730Z,23770,-0.056237563,-1.1200335,-0.44802478
1734432108734,2024-12-17T10:41:48.734Z,23774,-0.056237563,-1.1200335,-0.44802478
1734432108745,2024-12-17T10:41:48.745Z,23785,-0.10320257,-1.1737558,-0.4839563
1734432108749,2024-12-17T10:41:48.749Z,23789,-0.10320257,-1.1737558,-0.4839563
1734432108758,2024-12-17T10:41:48.758Z,23798,-0.260787,-1.1236252,-0.6305559
1734432108760,2024-12-17T10:41:48.760Z,23800,-0.260787,-1.1236252,-0.6305559
1734432108770,2024-12-17T10:41:48.770Z,23810,-0.40137377,-1.0505762,-0.77952087
1734432108773,2024-12-17T10:41:48.773Z,23813,-0.40137377,-1.0505762,-0.77952087
1734432108784,2024-12-17T10:41:48.784Z,23824,-0.40700582,-1.0075152,-0.80245286
1734432108788,2024-12-17T10:41:48.788Z,23828,-0.40700582,-1.0075152,-0.80245286
1734432108797,2024-12-17T10:41:48.797Z,23837,-0.17686419,-0.9637255,-0.6425606
1734432108800,2024-12-17T10:41:48.800Z,23840,-0.17686419,-0.9637255,-0.6425606
1734432108810,2024-12-17T10:41:48.810Z,23850,-0.11524552,-0.92094725,-0.5726348
1734432108814,2024-12-17T10:41:48.814Z,23854,-0.11524552,-0.92094725,-0.5726348
1734432108824,2024-12-17T10:41:48.824Z,23864,-0.20017937,-0.9512166,-0.6385152
1734432108826,2024-12-17T10:41:48.826Z,23866,-0.20017937,-0.9512166,-0.6385152
1734432108838,2024-12-17T10:41:48.838Z,23878,-0.13127044,-1.0869628,-0.7167724
1734432108841,2024-12-17T10:41:48.841Z,23881,-0.13127044,-1.0869628,-0.7167724
1734432108849,2024-12-17T10:41:48.849Z,23889,-0.08980064,-1.1143526,-0.73379636
1734432108852,2024-12-17T10:41:48.852Z,23892,-0.08980064,-1.1143526,-0.73379636
1734432108864,2024-12-17T10:41:48.864Z,23904,-0.12208892,-1.0706846,-0.5987983
1734432108868,2024-12-17T10:41:48.868Z,23908,-0.12208892,-1.0706846,-0.5987983
1734432108878,2024-12-17T10:41:48.878Z,23918,-0.12768854,-0.978278,-0.6452624
1734432108885,2024-12-17T10:41:48.885Z,23925,-0.12768854,-0.978278,-0.6452624
1734432108895,2024-12-17T10:41:48.895Z,23935,-0.19510803,-0.8343469,-0.7686999
1734432108898,2024-12-17T10:41:48.898Z,23938,-0.19510803,-0.8343469,-0.7686999
1734432108907,2024-12-17T10:41:48.907Z,23947,-0.35141444,-0.88277656,-0.8101381
1734432108911,2024-12-17T10:41:48.911Z,23951,-0.35141444,-0.88277656,-0.8101381
1734432108922,2024-12-17T10:41:48.922Z,23962,-0.39324963,-0.97064054,-0.74344254
1734432108926,2024-12-17T10:41:48.926Z,23966,-0.39324963,-0.97064054,-0.74344254
1734432108937,2024-12-17T10:41:48.937Z,23977,-0.288869,-0.8849482,-0.62986577
1734432108941,2024-12-17T10:41:48.941Z,23981,-0.288869,-0.8849482,-0.62986577
1734432108952,2024-12-17T10:41:48.952Z,23992,-0.18951263,-0.84432364,-0.60973
1734432108955,2024-12-17T10:41:48.955Z,23995,-0.18951263,-0.84432364,-0.60973
1734432108964,2024-12-17T10:41:48.964Z,24004,-0.17426471,-0.97485924,-0.65900934
1734432108968,2024-12-17T10:41:48.968Z,24008,-0.17426471,-0.97485924,-0.65900934
1734432108978,2024-12-17T10:41:48.978Z,24018,-0.1796039,-1.0594562,-0.66217136
1734432108981,2024-12-17T10:41:48.981Z,24021,-0.1796039,-1.0594562,-0.66217136
1734432108991,2024-12-17T10:41:48.991Z,24031,-0.25874487,-1.0828377,-0.57641494
1734432108994,2024-12-17T10:41:48.994Z,24034,-0.25874487,-1.0828377,-0.57641494
1734432109003,2024-12-17T10:41:49.003Z,24043,-0.32680327,-1.1724629,-0.6193701
1734432109006,2024-12-17T10:41:49.006Z,24046,-0.32680327,-1.1724629,-0.6193701
1734432109016,2024-12-17T10:41:49.016Z,24056,-0.399533,-1.0012223,-0.81173974
1734432109020,2024-12-17T10:41:49.020Z,24060,-0.399533,-1.0012223,-0.81173974
1734432109031,2024-12-17T10:41:49.031Z,24071,-0.4638428,-0.6636915,-0.71886075
1734432109036,2024-12-17T10:41:49.036Z,24076,-0.4638428,-0.6636915,-0.71886075
1734432109049,2024-12-17T10:41:49.049Z,24089,-0.33414003,-0.63752234,-0.67598295
1734432109052,2024-12-17T10:41:49.052Z,24092,-0.33414003,-0.63752234,-0.67598295
1734432109062,2024-12-17T10:41:49.062Z,24102,-0.27510262,-0.69489336,-0.73366874
1734432109065,2024-12-17T10:41:49.065Z,24105,-0.27510262,-0.69489336,-0.73366874
1734432109075,2024-12-17T10:41:49.075Z,24115,-0.27995506,-0.7908816,-0.710472
1734432109077,2024-12-17T10:41:49.077Z,24117,-0.27995506,-0.7908816,-0.710472
1734432109087,2024-12-17T10:41:49.087Z,24127,-0.1774808,-0.9543737,-0.6110999
1734432109091,2024-12-17T10:41:49.091Z,24131,-0.1774808,-0.9543737,-0.6110999
1734432109103,2024-12-17T10:41:49.103Z,24143,-0.17830463,-0.9434882,-0.61539465
1734432109106,2024-12-17T10:41:49.106Z,24146,-0.17830463,-0.9434882,-0.61539465
1734432109115,2024-12-17T10:41:49.115Z,24155,-0.3913454,-1.0358121,-0.6551181
1734432109118,2024-12-17T10:41:49.118Z,24158,-0.3913454,-1.0358121,-0.6551181
1734432109127,2024-12-17T10:41:49.127Z,24167,-0.30307892,-1.222237,-0.6659521
1734432109130,2024-12-17T10:41:49.130Z,24170,-0.30307892,-1.222237,-0.6659521
1734432109139,2024-12-17T10:41:49.139Z,24179,-0.2830889,-0.93285793,-0.7439039
1734432109142,2024-12-17T10:41:49.142Z,24182,-0.2830889,-0.93285793,-0.7439039
1734432109153,2024-12-17T10:41:49.153Z,24193,-0.40751082,-0.5837678,-0.7362546
1734432109156,2024-12-17T10:41:49.156Z,24196,-0.40751082,-0.5837678,-0.7362546
1734432109166,2024-12-17T10:41:49.166Z,24206,-0.28289014,-0.51657856,-0.71909386
1734432109170,2024-12-17T10:41:49.170Z,24210,-0.28289014,-0.51657856,-0.71909386
1734432109180,2024-12-17T10:41:49.180Z,24220,-0.21995187,-0.44285813,-0.72934276
1734432109184,2024-12-17T10:41:49.184Z,24224,-0.21995187,-0.44285813,-0.72934276
1734432109194,2024-12-17T10:41:49.194Z,24234,-0.21574661,-0.74238825,-0.7310917
1734432109197,2024-12-17T10:41:49.197Z,24237,-0.21574661,-0.74238825,-0.7310917
1734432109208,2024-12-17T10:41:49.208Z,24248,-0.21024562,-1.1698049,-0.81843257
1734432109210,2024-12-17T10:41:49.210Z,24250,-0.21024562,-1.1698049,-0.81843257
1734432109224,2024-12-17T10:41:49.224Z,24264,-0.29897445,-1.3021787,-0.78356564
1734432109227,2024-12-17T10:41:49.227Z,24267,-0.29897445,-1.3021787,-0.78356564
1734432109242,2024-12-17T10:41:49.242Z,24282,-0.38033253,-1.236792,-0.7820434
1734432109245,2024-12-17T10:41:49.245Z,24285,-0.38033253,-1.236792,-0.7820434
1734432109256,2024-12-17T10:41:49.256Z,24296,-0.39312515,-0.9901361,-0.85432935
1734432109258,2024-12-17T10:41:49.258Z,24298,-0.39312515,-0.9901361,-0.85432935
1734432109267,2024-12-17T10:41:49.267Z,24307,-0.3598721,-0.6792543,-0.8039346
1734432109270,2024-12-17T10:41:49.270Z,24310,-0.3598721,-0.6792543,-0.8039346
1734432109280,2024-12-17T10:41:49.280Z,24320,-0.3521185,-0.4706149,-0.86249405
1734432109284,2024-12-17T10:41:49.284Z,24324,-0.3521185,-0.4706149,-0.86249405
1734432109293,2024-12-17T10:41:49.293Z,24333,-0.34292647,-0.4691578,-0.85046715
1734432109296,2024-12-17T10:41:49.296Z,24336,-0.34292647,-0.4691578,-0.85046715
1734432109305,2024-12-17T10:41:49.305Z,24345,-0.14836201,-0.6921497,-0.7049959
1734432109308,2024-12-17T10:41:49.308Z,24348,-0.14836201,-0.6921497,-0.7049959
1734432109319,2024-12-17T10:41:49.319Z,24359,-0.113362014,-0.80794704,-0.6434899
1734432109322,2024-12-17T10:41:49.322Z,24362,-0.113362014,-0.80794704,-0.6434899
1734432109332,2024-12-17T10:41:49.332Z,24372,-0.33774084,-0.8562775,-0.69909984
1734432109335,2024-12-17T10:41:49.335Z,24375,-0.33774084,-0.8562775,-0.69909984
1734432109345,2024-12-17T10:41:49.345Z,24385,-0.30661723,-0.9964806,-0.812854
1734432109349,2024-12-17T10:41:49.349Z,24389,-0.30661723,-0.9964806,-0.812854
1734432109359,2024-12-17T10:41:49.359Z,24399,-0.20175533,-0.8685948,-0.7585279
1734432109363,2024-12-17T10:41:49.363Z,24403,-0.20175533,-0.8685948,-0.7585279
1734432109374,2024-12-17T10:41:49.374Z,24414,-0.37548953,-0.47380885,-0.7509981
1734432109377,2024-12-17T10:41:49.377Z,24417,-0.37548953,-0.47380885,-0.7509981
1734432109388,2024-12-17T10:41:49.388Z,24428,-0.39171165,-0.33025548,-0.75049204
1734432109391,2024-12-17T10:41:49.391Z,24431,-0.39171165,-0.33025548,-0.75049204
1734432109399,2024-12-17T10:41:49.399Z,24439,-0.28559873,-0.39736333,-0.84565234
1734432109402,2024-12-17T10:41:49.402Z,24442,-0.28559873,-0.39736333,-0.84565234
1734432109414,2024-12-17T10:41:49.414Z,24454,-0.29874173,-0.56072724,-0.942375
1734432109417,2024-12-17T10:41:49.417Z,24457,-0.29874173,-0.56072724,-0.942375
1734432109428,2024-12-17T10:41:49.428Z,24468,-0.3825023,-0.8589367,-0.9120226
1734432109432,2024-12-17T10:41:49.432Z,24472,-0.3825023,-0.8589367,-0.9120226
1734432109443,2024-12-17T10:41:49.443Z,24483,-0.4132247,-1.0375528,-0.98443425
1734432109447,2024-12-17T10:41:49.447Z,24487,-0.4132247,-1.0375528,-0.98443425
1734432109458,2024-12-17T10:41:49.458Z,24498,-0.45876533,-1.0324224,-0.96667546
1734432109461,2024-12-17T10:41:49.461Z,24501,-0.45876533,-1.0324224,-0.96667546
1734432109470,2024-12-17T10:41:49.470Z,24510,-0.3432263,-0.82559067,-1.0519769
1734432109473,2024-12-17T10:41:49.473Z,24513,-0.3432263,-0.82559067,-1.0519769
1734432109486,2024-12-17T10:41:49.486Z,24526,-0.3447397,-0.6215484,-1.0939951
1734432109490,2024-12-17T10:41:49.490Z,24530,-0.3447397,-0.6215484,-1.0939951
1734432109500,2024-12-17T10:41:49.500Z,24540,-0.24457169,-0.63180715,-0.8585212
1734432109504,2024-12-17T10:41:49.504Z,24544,-0.24457169,-0.63180715,-0.8585212
1734432109514,2024-12-17T10:41:49.514Z,24554,-0.1341213,-0.5449033,-0.8661468
1734432109518,2024-12-17T10:41:49.518Z,24558,-0.1341213,-0.5449033,-0.8661468
1734432109531,2024-12-17T10:41:49.531Z,24571,-0.12109686,-0.35243627,-0.9495479
1734432109535,2024-12-17T10:41:49.535Z,24575,-0.12109686,-0.35243627,-0.9495479
1734432109544,2024-12-17T10:41:49.544Z,24584,-0.15541539,-0.28924313,-0.94922066
1734432109547,2024-12-17T10:41:49.547Z,24587,-0.15541539,-0.28924313,-0.94922066
1734432109556,2024-12-17T10:41:49.556Z,24596,-0.32724544,-0.70977336,-0.8907588
1734432109559,2024-12-17T10:41:49.559Z,24599,-0.32724544,-0.70977336,-0.8907588
1734432109569,2024-12-17T10:41:49.569Z,24609,-0.17634909,-1.2827717,-0.8357459
1734432109572,2024-12-17T10:41:49.572Z,24612,-0.17634909,-1.2827717,-0.8357459
1734432109582,2024-12-17T10:41:49.582Z,24622,-0.046308767,-1.1729176,-0.7827005
1734432109587,2024-12-17T10:41:49.587Z,24627,-0.046308767,-1.1729176,-0.7827005
1734432109597,2024-12-17T10:41:49.597Z,24637,-0.26831275,-0.75995034,-0.7392361
1734432109601,2024-12-17T10:41:49.601Z,24641,-0.26831275,-0.75995034,-0.7392361
1734432109611,2024-12-17T10:41:49.611Z,24651,-0.22118859,-0.6838148,-0.9194436
1734432109614,2024-12-17T10:41:49.614Z,24654,-0.22118859,-0.6838148,-0.9194436
1734432109624,2024-12-17T10:41:49.624Z,24664,-0.14060931,-0.605036,-0.7085495
1734432109627,2024-12-17T10:41:49.627Z,24667,-0.14060931,-0.605036,-0.7085495
1734432109636,2024-12-17T10:41:49.636Z,24676,-0.3679796,-0.489404,-0.6864296
1734432109639,2024-12-17T10:41:49.639Z,24679,-0.3679796,-0.489404,-0.6864296
1734432109649,2024-12-17T10:41:49.649Z,24689,-0.13916752,-0.5772995,-0.7350775
1734432109652,2024-12-17T10:41:49.652Z,24692,-0.13916752,-0.5772995,-0.7350775
1734432109661,2024-12-17T10:41:49.661Z,24701,-0.11059286,-0.74784815,-0.7687291
1734432109666,2024-12-17T10:41:49.666Z,24706,-0.11059286,-0.74784815,-0.7687291
1734432109676,2024-12-17T10:41:49.676Z,24716,-0.26369998,-0.85956943,-0.7539433
1734432109679,2024-12-17T10:41:49.679Z,24719,-0.26369998,-0.85956943,-0.7539433
1734432109690,2024-12-17T10:41:49.690Z,24730,-0.0786044,-0.67187893,-0.6541411
1734432109693,2024-12-17T10:41:49.693Z,24733,-0.0786044,-0.67187893,-0.6541411
1734432109703,2024-12-17T10:41:49.703Z,24743,-0.11624261,-0.32470837,-0.74413174
1734432109706,2024-12-17T10:41:49.706Z,24746,-0.11624261,-0.32470837,-0.74413174
1734432109717,2024-12-17T10:41:49.717Z,24757,-0.26743394,-0.3350597,-0.72353137
1734432109722,2024-12-17T10:41:49.722Z,24762,-0.26743394,-0.3350597,-0.72353137
1734432109733,2024-12-17T10:41:49.733Z,24773,-0.32956493,-0.64832306,-0.76273066
1734432109738,2024-12-17T10:41:49.738Z,24778,-0.32956493,-0.64832306,-0.76273066
1734432109752,2024-12-17T10:41:49.752Z,24792,-0.3229973,-0.89299816,-0.7968657
1734432109756,2024-12-17T10:41:49.756Z,24796,-0.3229973,-0.89299816,-0.7968657
1734432109771,2024-12-17T10:41:49.771Z,24811,-0.2732345,-0.8311909,-0.78071153
1734432109776,2024-12-17T10:41:49.776Z,24816,-0.2732345,-0.8311909,-0.78071153
1734432109786,2024-12-17T10:41:49.786Z,24826,-0.281523,-0.64331603,-0.826138
1734432109789,2024-12-17T10:41:49.789Z,24829,-0.281523,-0.64331603,-0.826138
1734432109799,2024-12-17T10:41:49.799Z,24839,-0.26553187,-0.56065077,-0.8563047
1734432109802,2024-12-17T10:41:49.802Z,24842,-0.26553187,-0.56065077,-0.8563047
1734432109813,2024-12-17T10:41:49.813Z,24853,-0.20576082,-0.43577304,-0.8567347
1734432109816,2024-12-17T10:41:49.816Z,24856,-0.20576082,-0.43577304,-0.8567347
1734432109827,2024-12-17T10:41:49.827Z,24867,-0.35041508,-0.48141038,-0.86216354
1734432109830,2024-12-17T10:41:49.830Z,24870,-0.35041508,-0.48141038,-0.86216354
1734432109841,2024-12-17T10:41:49.841Z,24881,-0.3978017,-0.79794437,-0.86645555
1734432109844,2024-12-17T10:41:49.844Z,24884,-0.3978017,-0.79794437,-0.86645555
1734432109853,2024-12-17T10:41:49.853Z,24893,-0.29719195,-0.8947208,-0.90590435
1734432109857,2024-12-17T10:41:49.857Z,24897,-0.29719195,-0.8947208,-0.90590435
1734432109868,2024-12-17T10:41:49.868Z,24908,-0.24659039,-0.7105619,-0.8825915
1734432109872,2024-12-17T10:41:49.872Z,24912,-0.24659039,-0.7105619,-0.8825915
1734432109882,2024-12-17T10:41:49.882Z,24922,-0.1512604,-0.56039345,-0.7846196
1734432109885,2024-12-17T10:41:49.885Z,24925,-0.1512604,-0.56039345,-0.7846196
1734432109895,2024-12-17T10:41:49.895Z,24935,-0.07025987,-0.4209837,-0.747701
1734432109898,2024-12-17T10:41:49.898Z,24938,-0.07025987,-0.4209837,-0.747701
1734432109909,2024-12-17T10:41:49.909Z,24949,-0.10987906,-0.31193918,-0.8465888
1734432109912,2024-12-17T10:41:49.912Z,24952,-0.10987906,-0.31193918,-0.8465888
1734432109923,2024-12-17T10:41:49.923Z,24963,-0.20978014,-0.33623242,-0.83886844
1734432109926,2024-12-17T10:41:49.926Z,24966,-0.20978014,-0.33623242,-0.83886844
1734432109936,2024-12-17T10:41:49.936Z,24976,-0.2622231,-0.492308,-0.7951099
1734432109939,2024-12-17T10:41:49.939Z,24979,-0.2622231,-0.492308,-0.7951099
1734432109949,2024-12-17T10:41:49.949Z,24989,-0.24936308,-0.67348266,-0.8013286
1734432109953,2024-12-17T10:41:49.953Z,24993,-0.24936308,-0.67348266,-0.8013286
1734432109962,2024-12-17T10:41:49.962Z,25002,-0.25935403,-0.70642084,-0.8392613
1734432109966,2024-12-17T10:41:49.966Z,25006,-0.25935403,-0.70642084,-0.8392613
1734432109975,2024-12-17T10:41:49.975Z,25015,-0.32667267,-0.66018593,-0.87383384
1734432109978,2024-12-17T10:41:49.978Z,25018,-0.32667267,-0.66018593,-0.87383384
1734432109988,2024-12-17T10:41:49.988Z,25028,-0.34378463,-0.7148015,-0.8829551
1734432109992,2024-12-17T10:41:49.992Z,25032,-0.34378463,-0.7148015,-0.8829551
1734432110002,2024-12-17T10:41:50.002Z,25042,-0.29734987,-0.7274674,-0.89057237
1734432110005,2024-12-17T10:41:50.005Z,25045,-0.29734987,-0.7274674,-0.89057237
1734432110015,2024-12-17T10:41:50.015Z,25055,-0.3091,-0.6424841,-0.869611
1734432110018,2024-12-17T10:41:50.018Z,25058,-0.3091,-0.6424841,-0.869611
1734432110027,2024-12-17T10:41:50.027Z,25067,-0.29352856,-0.62185675,-0.815912
1734432110030,2024-12-17T10:41:50.030Z,25070,-0.29352856,-0.62185675,-0.815912
1734432110040,2024-12-17T10:41:50.040Z,25080,-0.2479339,-0.7231744,-0.7439922
1734432110044,2024-12-17T10:41:50.044Z,25084,-0.2479339,-0.7231744,-0.7439922
1734432110057,2024-12-17T10:41:50.057Z,25097,-0.16935575,-0.69131035,-0.7433886
1734432110060,2024-12-17T10:41:50.060Z,25100,-0.16935575,-0.69131035,-0.7433886
1734432110074,2024-12-17T10:41:50.074Z,25114,-0.20171574,-0.6325546,-0.7418953
1734432110077,2024-12-17T10:41:50.077Z,25117,-0.20171574,-0.6325546,-0.7418953
1734432110091,2024-12-17T10:41:50.091Z,25131,-0.25117874,-0.6294851,-0.7173756
1734432110096,2024-12-17T10:41:50.096Z,25136,-0.25117874,-0.6294851,-0.7173756
1734432110106,2024-12-17T10:41:50.106Z,25146,-0.21464925,-0.5689702,-0.6727462
1734432110109,2024-12-17T10:41:50.109Z,25149,-0.21464925,-0.5689702,-0.6727462
1734432110118,2024-12-17T10:41:50.118Z,25158,-0.18690744,-0.49473637,-0.61491966
1734432110121,2024-12-17T10:41:50.121Z,25161,-0.18690744,-0.49473637,-0.61491966
1734432110130,2024-12-17T10:41:50.130Z,25170,-0.2672723,-0.51496977,-0.6820436
1734432110133,2024-12-17T10:41:50.133Z,25173,-0.2672723,-0.51496977,-0.6820436
1734432110141,2024-12-17T10:41:50.141Z,25181,-0.23086141,-0.51442397,-0.71189827
1734432110144,2024-12-17T10:41:50.144Z,25184,-0.23086141,-0.51442397,-0.71189827
1734432110152,2024-12-17T10:41:50.152Z,25192,-0.17031823,-0.53978586,-0.710701
1734432110156,2024-12-17T10:41:50.156Z,25196,-0.17031823,-0.53978586,-0.710701
1734432110165,2024-12-17T10:41:50.165Z,25205,-0.24696775,-0.5045583,-0.7362882
1734432110168,2024-12-17T10:41:50.168Z,25208,-0.24696775,-0.5045583,-0.7362882
1734432110178,2024-12-17T10:41:50.178Z,25218,-0.2606322,-0.48076937,-0.8029057
1734432110181,2024-12-17T10:41:50.181Z,25221,-0.2606322,-0.48076937,-0.8029057
1734432110191,2024-12-17T10:41:50.191Z,25231,-0.24977568,-0.47824657,-0.8023304
1734432110194,2024-12-17T10:41:50.194Z,25234,-0.24977568,-0.47824657,-0.8023304
1734432110204,2024-12-17T10:41:50.204Z,25244,-0.3758119,-0.49593845,-0.7766051
1734432110207,2024-12-17T10:41:50.207Z,25247,-0.3758119,-0.49593845,-0.7766051
1734432110216,2024-12-17T10:41:50.216Z,25256,-0.39626378,-0.5480809,-0.7607169
1734432110220,2024-12-17T10:41:50.220Z,25260,-0.39626378,-0.5480809,-0.7607169
1734432110230,2024-12-17T10:41:50.230Z,25270,-0.33104572,-0.47578856,-0.7195469
1734432110234,2024-12-17T10:41:50.234Z,25274,-0.33104572,-0.47578856,-0.7195469
1734432110242,2024-12-17T10:41:50.242Z,25282,-0.4127994,-0.3861579,-0.69355255
1734432110245,2024-12-17T10:41:50.245Z,25285,-0.4127994,-0.3861579,-0.69355255
1734432110254,2024-12-17T10:41:50.254Z,25294,-0.37873262,-0.44583973,-0.7717401
1734432110258,2024-12-17T10:41:50.258Z,25298,-0.37873262,-0.44583973,-0.7717401
1734432110270,2024-12-17T10:41:50.270Z,25310,-0.3072171,-0.51075125,-0.698881
1734432110275,2024-12-17T10:41:50.275Z,25315,-0.3072171,-0.51075125,-0.698881
1734432110289,2024-12-17T10:41:50.289Z,25329,-0.23219968,-0.453278,-0.76859564
1734432110292,2024-12-17T10:41:50.292Z,25332,-0.23219968,-0.453278,-0.76859564
1734432110301,2024-12-17T10:41:50.301Z,25341,-0.29496238,-0.35885388,-0.81851834
1734432110304,2024-12-17T10:41:50.304Z,25344,-0.29496238,-0.35885388,-0.81851834
1734432110312,2024-12-17T10:41:50.312Z,25352,-0.25922653,-0.4658595,-0.80624527
1734432110315,2024-12-17T10:41:50.315Z,25355,-0.25922653,-0.4658595,-0.80624527
1734432110324,2024-12-17T10:41:50.324Z,25364,-0.24489321,-0.62921965,-0.83152795
1734432110327,2024-12-17T10:41:50.327Z,25367,-0.24489321,-0.62921965,-0.83152795
1734432110336,2024-12-17T10:41:50.336Z,25376,-0.31032464,-0.730103,-0.81758714
1734432110339,2024-12-17T10:41:50.339Z,25379,-0.31032464,-0.730103,-0.81758714
1734432110349,2024-12-17T10:41:50.349Z,25389,-0.23322272,-0.69297415,-0.7691853
1734432110352,2024-12-17T10:41:50.352Z,25392,-0.23322272,-0.69297415,-0.7691853
1734432110361,2024-12-17T10:41:50.361Z,25401,-0.35901123,-0.5552523,-0.696286
1734432110363,2024-12-17T10:41:50.363Z,25403,-0.35901123,-0.5552523,-0.696286
1734432110373,2024-12-17T10:41:50.373Z,25413,-0.32970682,-0.59722894,-0.6775838
1734432110375,2024-12-17T10:41:50.375Z,25415,-0.32970682,-0.59722894,-0.6775838
1734432110384,2024-12-17T10:41:50.384Z,25424,-0.23869915,-0.6356644,-0.6061771
1734432110389,2024-12-17T10:41:50.389Z,25429,-0.23869915,-0.6356644,-0.6061771
1734432110399,2024-12-17T10:41:50.399Z,25439,-0.3095828,-0.632565,-0.6716955
1734432110402,2024-12-17T10:41:50.402Z,25442,-0.3095828,-0.632565,-0.6716955
1734432110413,2024-12-17T10:41:50.413Z,25453,-0.18442611,-0.61083853,-0.66173357
1734432110416,2024-12-17T10:41:50.416Z,25456,-0.18442611,-0.61083853,-0.66173357
1734432110424,2024-12-17T10:41:50.424Z,25464,-0.328855,-0.5219805,-0.6949175
1734432110426,2024-12-17T10:41:50.426Z,25466,-0.328855,-0.5219805,-0.6949175
1734432110434,2024-12-17T10:41:50.434Z,25474,-0.390997,-0.6381054,-0.7777197
1734432110437,2024-12-17T10:41:50.437Z,25477,-0.390997,-0.6381054,-0.7777197
1734432110444,2024-12-17T10:41:50.444Z,25484,-0.39286,-0.7296072,-0.8071294
1734432110447,2024-12-17T10:41:50.447Z,25487,-0.39286,-0.7296072,-0.8071294
1734432110455,2024-12-17T10:41:50.455Z,25495,-0.39544523,-0.797706,-0.81411165
1734432110458,2024-12-17T10:41:50.458Z,25498,-0.39544523,-0.797706,-0.81411165
1734432110466,2024-12-17T10:41:50.466Z,25506,-0.27208146,-0.834073,-0.74642795
1734432110470,2024-12-17T10:41:50.470Z,25510,-0.27208146,-0.834073,-0.74642795
1734432110479,2024-12-17T10:41:50.479Z,25519,-0.2953221,-0.75737804,-0.7306391
1734432110483,2024-12-17T10:41:50.483Z,25523,-0.2953221,-0.75737804,-0.7306391
1734432110494,2024-12-17T10:41:50.494Z,25534,-0.26150906,-0.7003616,-0.7309921
1734432110497,2024-12-17T10:41:50.497Z,25537,-0.26150906,-0.7003616,-0.7309921
1734432110506,2024-12-17T10:41:50.506Z,25546,-0.20924813,-0.71455795,-0.666132
1734432110509,2024-12-17T10:41:50.509Z,25549,-0.20924813,-0.71455795,-0.666132
1734432110520,2024-12-17T10:41:50.520Z,25560,-0.22715592,-0.6675089,-0.59157294
1734432110522,2024-12-17T10:41:50.522Z,25562,-0.22715592,-0.6675089,-0.59157294
1734432110531,2024-12-17T10:41:50.531Z,25571,-0.24117747,-0.7453874,-0.61955553
1734432110534,2024-12-17T10:41:50.534Z,25574,-0.24117747,-0.7453874,-0.61955553
1734432110542,2024-12-17T10:41:50.542Z,25582,-0.24747299,-0.72861487,-0.6102577
1734432110544,2024-12-17T10:41:50.544Z,25584,-0.24747299,-0.72861487,-0.6102577
1734432110552,2024-12-17T10:41:50.552Z,25592,-0.43758613,-0.75311005,-0.6175692
1734432110555,2024-12-17T10:41:50.555Z,25595,-0.43758613,-0.75311005,-0.6175692
1734432110577,2024-12-17T10:41:50.577Z,25617,-0.33513227,-0.8248809,-0.701884
1734432110580,2024-12-17T10:41:50.580Z,25620,-0.33513227,-0.8248809,-0.701884
1734432110588,2024-12-17T10:41:50.588Z,25628,-0.35923335,-0.7615802,-0.8059264
1734432110591,2024-12-17T10:41:50.591Z,25631,-0.35923335,-0.7615802,-0.8059264
1734432110601,2024-12-17T10:41:50.601Z,25641,-0.4547315,-0.83862936,-0.75773025
1734432110604,2024-12-17T10:41:50.604Z,25644,-0.4547315,-0.83862936,-0.75773025
1734432110612,2024-12-17T10:41:50.612Z,25652,-0.2887187,-0.91510713,-0.7757522
1734432110615,2024-12-17T10:41:50.615Z,25655,-0.2887187,-0.91510713,-0.7757522
1734432110624,2024-12-17T10:41:50.624Z,25664,-0.21959963,-0.7642936,-0.7882155
1734432110627,2024-12-17T10:41:50.627Z,25667,-0.21959963,-0.7642936,-0.7882155
1734432110635,2024-12-17T10:41:50.635Z,25675,-0.23321894,-0.73252803,-0.7543163
1734432110638,2024-12-17T10:41:50.638Z,25678,-0.23321894,-0.73252803,-0.7543163
1734432110646,2024-12-17T10:41:50.646Z,25686,-0.27500516,-0.83118886,-0.7824798
1734432110648,2024-12-17T10:41:50.648Z,25688,-0.27500516,-0.83118886,-0.7824798
1734432110656,2024-12-17T10:41:50.656Z,25696,-0.31767803,-0.90651613,-0.71057355
1734432110659,2024-12-17T10:41:50.659Z,25699,-0.31767803,-0.90651613,-0.71057355
1734432110668,2024-12-17T10:41:50.668Z,25708,-0.3503642,-0.9897776,-0.610392
1734432110670,2024-12-17T10:41:50.670Z,25710,-0.3503642,-0.9897776,-0.610392
1734432110679,2024-12-17T10:41:50.679Z,25719,-0.31289652,-1.0660834,-0.6199865
1734432110681,2024-12-17T10:41:50.681Z,25721,-0.31289652,-1.0660834,-0.6199865
1734432110690,2024-12-17T10:41:50.690Z,25730,-0.24131955,-1.0539327,-0.6279345
1734432110694,2024-12-17T10:41:50.694Z,25734,-0.24131955,-1.0539327,-0.6279345
1734432110704,2024-12-17T10:41:50.704Z,25744,-0.20461561,-0.98149455,-0.65626776
1734432110706,2024-12-17T10:41:50.706Z,25746,-0.20461561,-0.98149455,-0.65626776
1734432110716,2024-12-17T10:41:50.716Z,25756,-0.15545295,-0.8871518,-0.5008575
1734432110720,2024-12-17T10:41:50.720Z,25760,-0.15545295,-0.8871518,-0.5008575
1734432110728,2024-12-17T10:41:50.728Z,25768,-0.42562175,-1.239692,-0.6402683
1734432110731,2024-12-17T10:41:50.731Z,25771,-0.42562175,-1.239692,-0.6402683
1734432110740,2024-12-17T10:41:50.740Z,25780,-0.25985017,-1.3145621,-0.65493166
1734432110743,2024-12-17T10:41:50.743Z,25783,-0.25985017,-1.3145621,-0.65493166
1734432110753,2024-12-17T10:41:50.753Z,25793,-0.21933877,-1.2323914,-0.64792264
1734432110756,2024-12-17T10:41:50.756Z,25796,-0.21933877,-1.2323914,-0.64792264
1734432110764,2024-12-17T10:41:50.764Z,25804,-0.3417278,-1.206009,-0.66041946
1734432110767,2024-12-17T10:41:50.767Z,25807,-0.3417278,-1.206009,-0.66041946
1734432110778,2024-12-17T10:41:50.778Z,25818,-0.31610548,-1.2088755,-0.5488242
1734432110781,2024-12-17T10:41:50.781Z,25821,-0.31610548,-1.2088755,-0.5488242
1734432110796,2024-12-17T10:41:50.796Z,25836,-0.23573026,-1.175924,-0.5192798
1734432110798,2024-12-17T10:41:50.798Z,25838,-0.23573026,-1.175924,-0.5192798
1734432110807,2024-12-17T10:41:50.807Z,25847,-0.25921217,-1.1691732,-0.5098035
1734432110810,2024-12-17T10:41:50.810Z,25850,-0.25921217,-1.1691732,-0.5098035
1734432110820,2024-12-17T10:41:50.820Z,25860,-0.13214858,-1.2413081,-0.46750954
1734432110823,2024-12-17T10:41:50.823Z,25863,-0.13214858,-1.2413081,-0.46750954
1734432110831,2024-12-17T10:41:50.831Z,25871,-0.06426925,-1.3228047,-0.35674682
1734432110834,2024-12-17T10:41:50.834Z,25874,-0.06426925,-1.3228047,-0.35674682
1734432110843,2024-12-17T10:41:50.843Z,25883,-0.1365664,-1.3866737,-0.35140112
1734432110845,2024-12-17T10:41:50.845Z,25885,-0.1365664,-1.3866737,-0.35140112
1734432110855,2024-12-17T10:41:50.855Z,25895,-0.124333754,-1.3907043,-0.46712005
1734432110858,2024-12-17T10:41:50.858Z,25898,-0.124333754,-1.3907043,-0.46712005
1734432110866,2024-12-17T10:41:50.866Z,25906,-0.10830257,-1.3786807,-0.5952984
1734432110869,2024-12-17T10:41:50.869Z,25909,-0.10830257,-1.3786807,-0.5952984
1734432110878,2024-12-17T10:41:50.878Z,25918,-0.08833369,-1.3827821,-0.58265394
1734432110881,2024-12-17T10:41:50.881Z,25921,-0.08833369,-1.3827821,-0.58265394
1734432110890,2024-12-17T10:41:50.890Z,25930,-0.025840517,-1.3655869,-0.5264172
1734432110893,2024-12-17T10:41:50.893Z,25933,-0.025840517,-1.3655869,-0.5264172
1734432110905,2024-12-17T10:41:50.905Z,25945,-0.0032246006,-1.3769089,-0.574976
1734432110907,2024-12-17T10:41:50.907Z,25947,-0.0032246006,-1.3769089,-0.574976
1734432110918,2024-12-17T10:41:50.918Z,25958,-0.039023403,-1.4376997,-0.6321672
1734432110922,2024-12-17T10:41:50.922Z,25962,-0.039023403,-1.4376997,-0.6321672
1734432110932,2024-12-17T10:41:50.932Z,25972,-0.039858386,-1.456533,-0.618786
1734432110936,2024-12-17T10:41:50.936Z,25976,-0.039858386,-1.456533,-0.618786
1734432110946,2024-12-17T10:41:50.946Z,25986,-0.02564274,-1.404467,-0.68624717
1734432110950,2024-12-17T10:41:50.950Z,25990,-0.02564274,-1.404467,-0.68624717
1734432110960,2024-12-17T10:41:50.960Z,26000,-0.11387815,-1.3321226,-0.7498073
1734432110963,2024-12-17T10:41:50.963Z,26003,-0.11387815,-1.3321226,-0.7498073
1734432110975,2024-12-17T10:41:50.975Z,26015,-0.15517609,-1.3548403,-0.66849935
1734432110978,2024-12-17T10:41:50.978Z,26018,-0.15517609,-1.3548403,-0.66849935
1734432110993,2024-12-17T10:41:50.993Z,26033,-0.045391332,-1.3638221,-0.59746045
1734432110995,2024-12-17T10:41:50.995Z,26035,-0.045391332,-1.3638221,-0.59746045
1734432111005,2024-12-17T10:41:51.005Z,26045,-0.014926442,-1.29465,-0.5777206
1734432111007,2024-12-17T10:41:51.007Z,26047,-0.014926442,-1.29465,-0.5777206
1734432111015,2024-12-17T10:41:51.015Z,26055,0.0055772173,-1.3016794,-0.48869705
1734432111018,2024-12-17T10:41:51.018Z,26058,0.0055772173,-1.3016794,-0.48869705
1734432111027,2024-12-17T10:41:51.027Z,26067,0.037791118,-1.3282378,-0.43771207
1734432111030,2024-12-17T10:41:51.030Z,26070,0.037791118,-1.3282378,-0.43771207
1734432111039,2024-12-17T10:41:51.039Z,26079,-0.0060370653,-1.3384353,-0.458197
1734432111042,2024-12-17T10:41:51.042Z,26082,-0.0060370653,-1.3384353,-0.458197
1734432111050,2024-12-17T10:41:51.050Z,26090,0.0043519447,-1.3540779,-0.4976669
1734432111054,2024-12-17T10:41:51.054Z,26094,0.0043519447,-1.3540779,-0.4976669
1734432111066,2024-12-17T10:41:51.066Z,26106,-0.05524333,-1.3253978,-0.47429797
1734432111069,2024-12-17T10:41:51.069Z,26109,-0.05524333,-1.3253978,-0.47429797
1734432111080,2024-12-17T10:41:51.080Z,26120,-0.08900452,-1.297295,-0.48032138
1734432111083,2024-12-17T10:41:51.083Z,26123,-0.08900452,-1.297295,-0.48032138
1734432111091,2024-12-17T10:41:51.091Z,26131,-0.04846858,-1.2665433,-0.49870005
1734432111093,2024-12-17T10:41:51.093Z,26133,-0.04846858,-1.2665433,-0.49870005
1734432111101,2024-12-17T10:41:51.101Z,26141,0.0045414562,-1.2373624,-0.46933907
1734432111104,2024-12-17T10:41:51.104Z,26144,0.0045414562,-1.2373624,-0.46933907
1734432111112,2024-12-17T10:41:51.112Z,26152,0.022067683,-1.1833098,-0.4570054
1734432111114,2024-12-17T10:41:51.114Z,26154,0.022067683,-1.1833098,-0.4570054
1734432111122,2024-12-17T10:41:51.122Z,26162,-0.005298554,-1.1150609,-0.4894299
1734432111124,2024-12-17T10:41:51.124Z,26164,-0.005298554,-1.1150609,-0.4894299
1734432111131,2024-12-17T10:41:51.131Z,26171,-0.12765549,-1.1939863,-0.522504
1734432111133,2024-12-17T10:41:51.133Z,26173,-0.12765549,-1.1939863,-0.522504
1734432111142,2024-12-17T10:41:51.142Z,26182,-0.13517024,-1.3390547,-0.5479155
1734432111144,2024-12-17T10:41:51.144Z,26184,-0.13517024,-1.3390547,-0.5479155
1734432111153,2024-12-17T10:41:51.153Z,26193,-0.058201328,-1.3516538,-0.57229334
1734432111156,2024-12-17T10:41:51.156Z,26196,-0.058201328,-1.3516538,-0.57229334
1734432111166,2024-12-17T10:41:51.166Z,26206,-0.14178053,-1.1876311,-0.5473353
1734432111170,2024-12-17T10:41:51.170Z,26210,-0.14178053,-1.1876311,-0.5473353
1734432111179,2024-12-17T10:41:51.179Z,26219,-0.13378696,-1.0795085,-0.48380294
1734432111182,2024-12-17T10:41:51.182Z,26222,-0.13378696,-1.0795085,-0.48380294
1734432111190,2024-12-17T10:41:51.190Z,26230,-0.0157773,-1.1592987,-0.46978173
1734432111193,2024-12-17T10:41:51.193Z,26233,-0.0157773,-1.1592987,-0.46978173
1734432111200,2024-12-17T10:41:51.200Z,26240,-0.060561955,-1.2603124,-0.47788528
1734432111202,2024-12-17T10:41:51.202Z,26242,-0.060561955,-1.2603124,-0.47788528
1734432111211,2024-12-17T10:41:51.211Z,26251,-0.054247115,-1.283715,-0.5075731
1734432111214,2024-12-17T10:41:51.214Z,26254,-0.054247115,-1.283715,-0.5075731
1734432111222,2024-12-17T10:41:51.222Z,26262,0.03946135,-1.2372994,-0.52892697
1734432111225,2024-12-17T10:41:51.225Z,26265,0.03946135,-1.2372994,-0.52892697
1734432111236,2024-12-17T10:41:51.236Z,26276,0.013883412,-1.1583971,-0.5448993
1734432111239,2024-12-17T10:41:51.239Z,26279,0.013883412,-1.1583971,-0.5448993
1734432111248,2024-12-17T10:41:51.248Z,26288,-0.07568777,-1.121884,-0.5969849
1734432111250,2024-12-17T10:41:51.250Z,26290,-0.07568777,-1.121884,-0.5969849
1734432111259,2024-12-17T10:41:51.259Z,26299,-0.10274813,-1.2181659,-0.6628527
1734432111262,2024-12-17T10:41:51.262Z,26302,-0.10274813,-1.2181659,-0.6628527
1734432111270,2024-12-17T10:41:51.270Z,26310,-0.14445166,-1.2759972,-0.7551587
1734432111273,2024-12-17T10:41:51.273Z,26313,-0.14445166,-1.2759972,-0.7551587
1734432111282,2024-12-17T10:41:51.282Z,26322,-0.08211204,-1.2406029,-0.751634
1734432111288,2024-12-17T10:41:51.288Z,26328,-0.08211204,-1.2406029,-0.751634
1734432111297,2024-12-17T10:41:51.297Z,26337,0.04250345,-1.2105272,-0.6332257
1734432111301,2024-12-17T10:41:51.301Z,26341,0.04250345,-1.2105272,-0.6332257
1734432111310,2024-12-17T10:41:51.310Z,26350,0.034559406,-1.2027471,-0.53571874
1734432111312,2024-12-17T10:41:51.312Z,26352,0.034559406,-1.2027471,-0.53571874
1734432111319,2024-12-17T10:41:51.319Z,26359,-0.09733726,-1.1779069,-0.53920835
1734432111322,2024-12-17T10:41:51.322Z,26362,-0.09733726,-1.1779069,-0.53920835
1734432111329,2024-12-17T10:41:51.329Z,26369,-0.18176526,-1.1355764,-0.6217013
1734432111331,2024-12-17T10:41:51.331Z,26371,-0.18176526,-1.1355764,-0.6217013
1734432111339,2024-12-17T10:41:51.339Z,26379,-0.2135174,-1.0650387,-0.67297345
1734432111341,2024-12-17T10:41:51.341Z,26381,-0.2135174,-1.0650387,-0.67297345
1734432111350,2024-12-17T10:41:51.350Z,26390,-0.2552932,-1.0667963,-0.6032021
1734432111354,2024-12-17T10:41:51.354Z,26394,-0.2552932,-1.0667963,-0.6032021
1734432111364,2024-12-17T10:41:51.364Z,26404,-0.22801553,-1.162392,-0.54743326
1734432111366,2024-12-17T10:41:51.366Z,26406,-0.22801553,-1.162392,-0.54743326
1734432111374,2024-12-17T10:41:51.374Z,26414,-0.055250414,-1.2128434,-0.49782512
1734432111376,2024-12-17T10:41:51.376Z,26416,-0.055250414,-1.2128434,-0.49782512
1734432111384,2024-12-17T10:41:51.384Z,26424,-0.07825446,-1.1646669,-0.5332126
1734432111389,2024-12-17T10:41:51.389Z,26429,-0.07825446,-1.1646669,-0.5332126
1734432111397,2024-12-17T10:41:51.397Z,26437,-0.1879688,-1.0978221,-0.614571
1734432111400,2024-12-17T10:41:51.400Z,26440,-0.1879688,-1.0978221,-0.614571
1734432111409,2024-12-17T10:41:51.409Z,26449,-0.17842364,-1.0642383,-0.60597426
1734432111412,2024-12-17T10:41:51.412Z,26452,-0.17842364,-1.0642383,-0.60597426
1734432111420,2024-12-17T10:41:51.420Z,26460,-0.10196826,-1.0438066,-0.43023804
1734432111422,2024-12-17T10:41:51.422Z,26462,-0.10196826,-1.0438066,-0.43023804
1734432111430,2024-12-17T10:41:51.430Z,26470,-0.12571009,-1.0188056,-0.4028667
1734432111433,2024-12-17T10:41:51.433Z,26473,-0.12571009,-1.0188056,-0.4028667
1734432111442,2024-12-17T10:41:51.442Z,26482,-0.25592574,-1.0167403,-0.49068624
1734432111444,2024-12-17T10:41:51.444Z,26484,-0.25592574,-1.0167403,-0.49068624
1734432111452,2024-12-17T10:41:51.452Z,26492,-0.25368655,-1.0448816,-0.58574533
1734432111456,2024-12-17T10:41:51.456Z,26496,-0.25368655,-1.0448816,-0.58574533
1734432111464,2024-12-17T10:41:51.464Z,26504,-0.24056053,-1.0415788,-0.5738633
1734432111467,2024-12-17T10:41:51.467Z,26507,-0.24056053,-1.0415788,-0.5738633
1734432111477,2024-12-17T10:41:51.477Z,26517,-0.22985299,-1.035672,-0.5879878
1734432111479,2024-12-17T10:41:51.479Z,26519,-0.22985299,-1.035672,-0.5879878
1734432111487,2024-12-17T10:41:51.487Z,26527,-0.19082779,-1.0576872,-0.5450926
1734432111490,2024-12-17T10:41:51.490Z,26530,-0.19082779,-1.0576872,-0.5450926
1734432111498,2024-12-17T10:41:51.498Z,26538,-0.18641216,-1.1439718,-0.5627703
1734432111501,2024-12-17T10:41:51.501Z,26541,-0.18641216,-1.1439718,-0.5627703
1734432111510,2024-12-17T10:41:51.510Z,26550,-0.09401835,-1.100294,-0.6172593
1734432111512,2024-12-17T10:41:51.512Z,26552,-0.09401835,-1.100294,-0.6172593
1734432111523,2024-12-17T10:41:51.523Z,26563,-0.13686346,-0.87871623,-0.6801795
1734432111526,2024-12-17T10:41:51.526Z,26566,-0.13686346,-0.87871623,-0.6801795
1734432111533,2024-12-17T10:41:51.533Z,26573,-0.36406514,-0.7807615,-0.6853236
1734432111536,2024-12-17T10:41:51.536Z,26576,-0.36406514,-0.7807615,-0.6853236
1734432111544,2024-12-17T10:41:51.544Z,26584,-0.4519393,-0.926695,-0.7210964
1734432111546,2024-12-17T10:41:51.546Z,26586,-0.4519393,-0.926695,-0.7210964
1734432111557,2024-12-17T10:41:51.557Z,26597,-0.3227123,-1.1805431,-0.71472687
1734432111559,2024-12-17T10:41:51.559Z,26599,-0.3227123,-1.1805431,-0.71472687
1734432111567,2024-12-17T10:41:51.567Z,26607,-0.08170495,-1.308552,-0.57309544
1734432111569,2024-12-17T10:41:51.569Z,26609,-0.08170495,-1.308552,-0.57309544
1734432111577,2024-12-17T10:41:51.577Z,26617,0.007090501,-1.2160242,-0.52394193
1734432111579,2024-12-17T10:41:51.579Z,26619,0.007090501,-1.2160242,-0.52394193
1734432111588,2024-12-17T10:41:51.588Z,26628,-0.07736429,-0.9762667,-0.5835318
1734432111591,2024-12-17T10:41:51.591Z,26631,-0.07736429,-0.9762667,-0.5835318
1734432111598,2024-12-17T10:41:51.598Z,26638,-0.24709392,-0.76584023,-0.6799043
1734432111600,2024-12-17T10:41:51.600Z,26640,-0.24709392,-0.76584023,-0.6799043
1734432111608,2024-12-17T10:41:51.608Z,26648,-0.45252064,-0.6889933,-0.7805614
1734432111611,2024-12-17T10:41:51.611Z,26651,-0.45252064,-0.6889933,-0.7805614
1734432111619,2024-12-17T10:41:51.619Z,26659,-0.39749166,-0.7434215,-0.8041497
1734432111621,2024-12-17T10:41:51.621Z,26661,-0.39749166,-0.7434215,-0.8041497
1734432111630,2024-12-17T10:41:51.630Z,26670,-0.30187455,-0.93196726,-0.80458796
1734432111632,2024-12-17T10:41:51.632Z,26672,-0.30187455,-0.93196726,-0.80458796
1734432111641,2024-12-17T10:41:51.641Z,26681,-0.23025815,-1.1361275,-0.6297343
1734432111644,2024-12-17T10:41:51.644Z,26684,-0.23025815,-1.1361275,-0.6297343
1734432111654,2024-12-17T10:41:51.654Z,26694,0.054666102,-1.1997491,-0.46257636
1734432111657,2024-12-17T10:41:51.657Z,26697,0.054666102,-1.1997491,-0.46257636
1734432111664,2024-12-17T10:41:51.664Z,26704,0.013949042,-1.0614641,-0.52362674
1734432111666,2024-12-17T10:41:51.666Z,26706,0.013949042,-1.0614641,-0.52362674
1734432111674,2024-12-17T10:41:51.674Z,26714,-0.14313401,-0.9905352,-0.68655086
1734432111676,2024-12-17T10:41:51.676Z,26716,-0.14313401,-0.9905352,-0.68655086
1734432111684,2024-12-17T10:41:51.684Z,26724,-0.14345437,-0.91047746,-0.74053204
1734432111688,2024-12-17T10:41:51.688Z,26728,-0.14345437,-0.91047746,-0.74053204
1734432111696,2024-12-17T10:41:51.696Z,26736,-0.16580108,-0.64750284,-0.7033933
1734432111699,2024-12-17T10:41:51.699Z,26739,-0.16580108,-0.64750284,-0.7033933
1734432111707,2024-12-17T10:41:51.707Z,26747,-0.23504834,-0.5353027,-0.60925037
1734432111709,2024-12-17T10:41:51.709Z,26749,-0.23504834,-0.5353027,-0.60925037
1734432111717,2024-12-17T10:41:51.717Z,26757,-0.35778037,-0.656389,-0.7317131
1734432111720,2024-12-17T10:41:51.720Z,26760,-0.35778037,-0.656389,-0.7317131
1734432111733,2024-12-17T10:41:51.733Z,26773,-0.47047988,-0.9612611,-0.84327507
1734432111735,2024-12-17T10:41:51.735Z,26775,-0.47047988,-0.9612611,-0.84327507
1734432111743,2024-12-17T10:41:51.743Z,26783,-0.291635,-1.3184197,-0.7841256
1734432111746,2024-12-17T10:41:51.746Z,26786,-0.291635,-1.3184197,-0.7841256
1734432111754,2024-12-17T10:41:51.754Z,26794,-0.23075981,-1.4080553,-0.7401863
1734432111757,2024-12-17T10:41:51.757Z,26797,-0.23075981,-1.4080553,-0.7401863
1734432111764,2024-12-17T10:41:51.764Z,26804,-0.29814136,-1.1328446,-0.6208845
1734432111767,2024-12-17T10:41:51.767Z,26807,-0.29814136,-1.1328446,-0.6208845
1734432111774,2024-12-17T10:41:51.774Z,26814,-0.17104733,-0.77207196,-0.64268196
1734432111777,2024-12-17T10:41:51.777Z,26817,-0.17104733,-0.77207196,-0.64268196
1734432111786,2024-12-17T10:41:51.786Z,26826,-0.08196187,-0.48948145,-0.72071767
1734432111790,2024-12-17T10:41:51.790Z,26830,-0.08196187,-0.48948145,-0.72071767
1734432111798,2024-12-17T10:41:51.798Z,26838,-0.11562311,-0.29969567,-0.7486398
1734432111800,2024-12-17T10:41:51.800Z,26840,-0.11562311,-0.29969567,-0.7486398
1734432111807,2024-12-17T10:41:51.807Z,26847,-0.12981825,-0.4508138,-0.74389774
1734432111810,2024-12-17T10:41:51.810Z,26850,-0.12981825,-0.4508138,-0.74389774
1734432111818,2024-12-17T10:41:51.818Z,26858,-0.32204118,-0.7908469,-0.8470593
1734432111822,2024-12-17T10:41:51.822Z,26862,-0.32204118,-0.7908469,-0.8470593
1734432111830,2024-12-17T10:41:51.830Z,26870,-0.50428826,-1.1232399,-0.8822189
1734432111832,2024-12-17T10:41:51.832Z,26872,-0.50428826,-1.1232399,-0.8822189
1734432111840,2024-12-17T10:41:51.840Z,26880,-0.42079213,-1.3631682,-0.7819571
1734432111843,2024-12-17T10:41:51.843Z,26883,-0.42079213,-1.3631682,-0.7819571
1734432111853,2024-12-17T10:41:51.853Z,26893,-0.34428772,-1.0557172,-0.6967996
1734432111856,2024-12-17T10:41:51.856Z,26896,-0.34428772,-1.0557172,-0.6967996
1734432111865,2024-12-17T10:41:51.865Z,26905,-0.21967559,-0.52148783,-0.5778333
1734432111867,2024-12-17T10:41:51.867Z,26907,-0.21967559,-0.52148783,-0.5778333
1734432111876,2024-12-17T10:41:51.876Z,26916,-0.07862649,-0.38421136,-0.57920057
1734432111878,2024-12-17T10:41:51.878Z,26918,-0.07862649,-0.38421136,-0.57920057
1734432111886,2024-12-17T10:41:51.886Z,26926,-0.103434,-0.5231638,-0.7421608
1734432111889,2024-12-17T10:41:51.889Z,26929,-0.103434,-0.5231638,-0.7421608
1734432111897,2024-12-17T10:41:51.897Z,26937,-0.10851148,-0.59809256,-0.8774994
1734432111900,2024-12-17T10:41:51.900Z,26940,-0.10851148,-0.59809256,-0.8774994
1734432111909,2024-12-17T10:41:51.909Z,26949,-0.22446378,-0.64040273,-0.8972494
1734432111912,2024-12-17T10:41:51.912Z,26952,-0.22446378,-0.64040273,-0.8972494
1734432111919,2024-12-17T10:41:51.919Z,26959,-0.5040389,-0.8981302,-0.8832362
1734432111921,2024-12-17T10:41:51.921Z,26961,-0.5040389,-0.8981302,-0.8832362
1734432111930,2024-12-17T10:41:51.930Z,26970,-0.43532667,-1.0843233,-0.86716115
1734432111932,2024-12-17T10:41:51.932Z,26972,-0.43532667,-1.0843233,-0.86716115
1734432111941,2024-12-17T10:41:51.941Z,26981,-0.32894972,-0.9637696,-0.81900334
1734432111943,2024-12-17T10:41:51.943Z,26983,-0.32894972,-0.9637696,-0.81900334
1734432111950,2024-12-17T10:41:51.950Z,26990,-0.32573053,-0.70666635,-0.6514355
1734432111952,2024-12-17T10:41:51.952Z,26992,-0.32573053,-0.70666635,-0.6514355
1734432111960,2024-12-17T10:41:51.960Z,27000,-0.3142849,-0.52264774,-0.8436554
1734432111964,2024-12-17T10:41:51.964Z,27004,-0.3142849,-0.52264774,-0.8436554
1734432111975,2024-12-17T10:41:51.975Z,27015,-0.33874017,-0.58233446,-1.0147485
1734432111978,2024-12-17T10:41:51.978Z,27018,-0.33874017,-0.58233446,-1.0147485
1734432111988,2024-12-17T10:41:51.988Z,27028,-0.24194667,-0.79201,-0.8851058
1734432111990,2024-12-17T10:41:51.990Z,27030,-0.24194667,-0.79201,-0.8851058
1734432111998,2024-12-17T10:41:51.998Z,27038,-0.40162164,-0.8118659,-0.7923116
1734432112000,2024-12-17T10:41:52Z,27040,-0.40162164,-0.8118659,-0.7923116
1734432112008,2024-12-17T10:41:52.008Z,27048,-0.27347824,-0.6713816,-0.69208515
1734432112011,2024-12-17T10:41:52.011Z,27051,-0.27347824,-0.6713816,-0.69208515
1734432112017,2024-12-17T10:41:52.017Z,27057,-0.1309831,-0.5502234,-0.7159006
1734432112020,2024-12-17T10:41:52.020Z,27060,-0.1309831,-0.5502234,-0.7159006
1734432112028,2024-12-17T10:41:52.028Z,27068,-0.23374225,-0.61323744,-0.6839704
1734432112031,2024-12-17T10:41:52.031Z,27071,-0.23374225,-0.61323744,-0.6839704
1734432112040,2024-12-17T10:41:52.040Z,27080,-0.1773722,-0.6491201,-0.50287616
1734432112043,2024-12-17T10:41:52.043Z,27083,-0.1773722,-0.6491201,-0.50287616
1734432112051,2024-12-17T10:41:52.051Z,27091,-0.120179504,-0.35681194,-0.5228437
1734432112054,2024-12-17T10:41:52.054Z,27094,-0.120179504,-0.35681194,-0.5228437
1734432112062,2024-12-17T10:41:52.062Z,27102,-0.28741467,-0.2629913,-0.66752464
1734432112065,2024-12-17T10:41:52.065Z,27105,-0.28741467,-0.2629913,-0.66752464
1734432112074,2024-12-17T10:41:52.074Z,27114,-0.33907843,-0.6331327,-0.7555338
1734432112076,2024-12-17T10:41:52.076Z,27116,-0.33907843,-0.6331327,-0.7555338
1734432112083,2024-12-17T10:41:52.083Z,27123,-0.323195,-1.0640081,-0.7798482
1734432112085,2024-12-17T10:41:52.085Z,27125,-0.323195,-1.0640081,-0.7798482
1734432112093,2024-12-17T10:41:52.093Z,27133,-0.2806009,-1.2096434,-0.6341807
1734432112096,2024-12-17T10:41:52.096Z,27136,-0.2806009,-1.2096434,-0.6341807
1734432112104,2024-12-17T10:41:52.104Z,27144,-0.119318336,-0.9798564,-0.6400834
1734432112106,2024-12-17T10:41:52.106Z,27146,-0.119318336,-0.9798564,-0.6400834
1734432112113,2024-12-17T10:41:52.113Z,27153,-0.19136259,-0.63419104,-0.84034115
1734432112115,2024-12-17T10:41:52.115Z,27155,-0.19136259,-0.63419104,-0.84034115
1734432112123,2024-12-17T10:41:52.123Z,27163,-0.3933146,-0.48346448,-0.8814092
1734432112126,2024-12-17T10:41:52.126Z,27166,-0.3933146,-0.48346448,-0.8814092
1734432112135,2024-12-17T10:41:52.135Z,27175,-0.29457164,-0.4739232,-0.8819138
1734432112137,2024-12-17T10:41:52.137Z,27177,-0.29457164,-0.4739232,-0.8819138
1734432112146,2024-12-17T10:41:52.146Z,27186,-0.096294545,-0.47863245,-0.8995881
1734432112150,2024-12-17T10:41:52.150Z,27190,-0.096294545,-0.47863245,-0.8995881
1734432112165,2024-12-17T10:41:52.165Z,27205,-0.25539082,-0.68698525,-0.8770788
1734432112168,2024-12-17T10:41:52.168Z,27208,-0.25539082,-0.68698525,-0.8770788
1734432112177,2024-12-17T10:41:52.177Z,27217,-0.24719027,-0.97166514,-0.9310729
1734432112179,2024-12-17T10:41:52.179Z,27219,-0.24719027,-0.97166514,-0.9310729
1734432112188,2024-12-17T10:41:52.188Z,27228,-0.08281709,-1.0090792,-0.9663341
1734432112191,2024-12-17T10:41:52.191Z,27231,-0.08281709,-1.0090792,-0.9663341
1734432112198,2024-12-17T10:41:52.198Z,27238,-0.043174412,-0.7903203,-0.85693693
1734432112200,2024-12-17T10:41:52.200Z,27240,-0.043174412,-0.7903203,-0.85693693
1734432112208,2024-12-17T10:41:52.208Z,27248,-0.25247407,-0.5523418,-0.8535887
1734432112211,2024-12-17T10:41:52.211Z,27251,-0.25247407,-0.5523418,-0.8535887
1734432112219,2024-12-17T10:41:52.219Z,27259,-0.33330277,-0.65415996,-0.7831059
1734432112222,2024-12-17T10:41:52.222Z,27262,-0.33330277,-0.65415996,-0.7831059
1734432112231,2024-12-17T10:41:52.231Z,27271,-0.15965214,-0.7003971,-0.64441353
1734432112233,2024-12-17T10:41:52.233Z,27273,-0.15965214,-0.7003971,-0.64441353
1734432112241,2024-12-17T10:41:52.241Z,27281,-0.14185444,-0.61431634,-0.6759446
1734432112243,2024-12-17T10:41:52.243Z,27283,-0.14185444,-0.61431634,-0.6759446
1734432112250,2024-12-17T10:41:52.250Z,27290,-0.16381246,-0.81431466,-0.6474367
1734432112253,2024-12-17T10:41:52.253Z,27293,-0.16381246,-0.81431466,-0.6474367
1734432112262,2024-12-17T10:41:52.262Z,27302,-0.11481291,-0.94466245,-0.60012895
1734432112265,2024-12-17T10:41:52.265Z,27305,-0.11481291,-0.94466245,-0.60012895
1734432112274,2024-12-17T10:41:52.274Z,27314,-0.05721647,-0.6815017,-0.53875303
1734432112277,2024-12-17T10:41:52.277Z,27317,-0.05721647,-0.6815017,-0.53875303
1734432112286,2024-12-17T10:41:52.286Z,27326,-0.09908427,-0.488955,-0.63603806
1734432112289,2024-12-17T10:41:52.289Z,27329,-0.09908427,-0.488955,-0.63603806
1734432112297,2024-12-17T10:41:52.297Z,27337,-0.15210909,-0.595455,-0.7704142
1734432112299,2024-12-17T10:41:52.299Z,27339,-0.15210909,-0.595455,-0.7704142
1734432112307,2024-12-17T10:41:52.307Z,27347,-0.19614968,-0.6585994,-0.8097392
1734432112309,2024-12-17T10:41:52.309Z,27349,-0.19614968,-0.6585994,-0.8097392
1734432112316,2024-12-17T10:41:52.316Z,27356,-0.30235904,-0.7063485,-0.78032833
1734432112319,2024-12-17T10:41:52.319Z,27359,-0.30235904,-0.7063485,-0.78032833
1734432112327,2024-12-17T10:41:52.327Z,27367,-0.26928386,-0.7720046,-0.69516635
1734432112329,2024-12-17T10:41:52.329Z,27369,-0.26928386,-0.7720046,-0.69516635
1734432112336,2024-12-17T10:41:52.336Z,27376,-0.11951118,-0.7173749,-0.80369073
1734432112339,2024-12-17T10:41:52.339Z,27379,-0.11951118,-0.7173749,-0.80369073
1734432112346,2024-12-17T10:41:52.346Z,27386,-0.056096226,-0.67352355,-0.8369508
1734432112349,2024-12-17T10:41:52.349Z,27389,-0.056096226,-0.67352355,-0.8369508
1734432112360,2024-12-17T10:41:52.360Z,27400,-0.07586951,-0.687298,-0.81365156
1734432112363,2024-12-17T10:41:52.363Z,27403,-0.07586951,-0.687298,-0.81365156
1734432112370,2024-12-17T10:41:52.370Z,27410,-0.10667464,-0.63470733,-0.8339878
1734432112374,2024-12-17T10:41:52.374Z,27414,-0.10667464,-0.63470733,-0.8339878
1734432112381,2024-12-17T10:41:52.381Z,27421,-0.116137855,-0.51867443,-0.87046975
1734432112384,2024-12-17T10:41:52.384Z,27424,-0.116137855,-0.51867443,-0.87046975
1734432112391,2024-12-17T10:41:52.391Z,27431,-0.142477,-0.54455334,-0.8917175
1734432112394,2024-12-17T10:41:52.394Z,27434,-0.142477,-0.54455334,-0.8917175
1734432112402,2024-12-17T10:41:52.402Z,27442,-0.1625389,-0.5822666,-0.8606628
1734432112404,2024-12-17T10:41:52.404Z,27444,-0.1625389,-0.5822666,-0.8606628
1734432112412,2024-12-17T10:41:52.412Z,27452,-0.1596028,-0.50909275,-0.8500914
1734432112414,2024-12-17T10:41:52.414Z,27454,-0.1596028,-0.50909275,-0.8500914
1734432112421,2024-12-17T10:41:52.421Z,27461,-0.17778337,-0.520646,-0.8408815
1734432112424,2024-12-17T10:41:52.424Z,27464,-0.17778337,-0.520646,-0.8408815
1734432112432,2024-12-17T10:41:52.432Z,27472,-0.21805109,-0.56972146,-0.8477002
1734432112434,2024-12-17T10:41:52.434Z,27474,-0.21805109,-0.56972146,-0.8477002
1734432112453,2024-12-17T10:41:52.453Z,27493,-0.24989288,-0.56943005,-0.84224445
1734432112456,2024-12-17T10:41:52.456Z,27496,-0.24989288,-0.56943005,-0.84224445
1734432112465,2024-12-17T10:41:52.465Z,27505,-0.28185967,-0.58980554,-0.8200462
1734432112468,2024-12-17T10:41:52.468Z,27508,-0.28185967,-0.58980554,-0.8200462
1734432112476,2024-12-17T10:41:52.476Z,27516,-0.25522727,-0.6608967,-0.7918402
1734432112478,2024-12-17T10:41:52.478Z,27518,-0.25522727,-0.6608967,-0.7918402
1734432112488,2024-12-17T10:41:52.488Z,27528,-0.1342167,-0.68793386,-0.78852004
1734432112492,2024-12-17T10:41:52.492Z,27532,-0.1342167,-0.68793386,-0.78852004
1734432112500,2024-12-17T10:41:52.500Z,27540,-0.08772621,-0.59974754,-0.7936497
1734432112503,2024-12-17T10:41:52.503Z,27543,-0.08772621,-0.59974754,-0.7936497
1734432112511,2024-12-17T10:41:52.511Z,27551,-0.15151574,-0.55111367,-0.79691887
1734432112513,2024-12-17T10:41:52.513Z,27553,-0.15151574,-0.55111367,-0.79691887
1734432112520,2024-12-17T10:41:52.520Z,27560,-0.2317594,-0.5907579,-0.75668055
1734432112523,2024-12-17T10:41:52.523Z,27563,-0.2317594,-0.5907579,-0.75668055
1734432112531,2024-12-17T10:41:52.531Z,27571,-0.20733157,-0.6976735,-0.7235547
1734432112533,2024-12-17T10:41:52.533Z,27573,-0.20733157,-0.6976735,-0.7235547
1734432112540,2024-12-17T10:41:52.540Z,27580,-0.23731494,-0.7947756,-0.64675856
1734432112542,2024-12-17T10:41:52.542Z,27582,-0.23731494,-0.7947756,-0.64675856
1734432112549,2024-12-17T10:41:52.549Z,27589,-0.19444314,-0.8438299,-0.5599897
1734432112552,2024-12-17T10:41:52.552Z,27592,-0.19444314,-0.8438299,-0.5599897
1734432112563,2024-12-17T10:41:52.563Z,27603,-0.054474935,-0.72469884,-0.47260803
1734432112565,2024-12-17T10:41:52.565Z,27605,-0.054474935,-0.72469884,-0.47260803
1734432112572,2024-12-17T10:41:52.572Z,27612,0.02010881,-0.45755088,-0.41990566
1734432112575,2024-12-17T10:41:52.575Z,27615,0.02010881,-0.45755088,-0.41990566
1734432112583,2024-12-17T10:41:52.583Z,27623,-0.049729697,-0.28562927,-0.47500247
1734432112589,2024-12-17T10:41:52.589Z,27629,-0.049729697,-0.28562927,-0.47500247
1734432112603,2024-12-17T10:41:52.603Z,27643,-0.18442646,-0.36717203,-0.5554406
1734432112606,2024-12-17T10:41:52.606Z,27646,-0.18442646,-0.36717203,-0.5554406
1734432112614,2024-12-17T10:41:52.614Z,27654,-0.26129183,-0.5026831,-0.70344734
1734432112616,2024-12-17T10:41:52.616Z,27656,-0.26129183,-0.5026831,-0.70344734
1734432112625,2024-12-17T10:41:52.625Z,27665,-0.34741685,-0.6048673,-0.874615
1734432112627,2024-12-17T10:41:52.627Z,27667,-0.34741685,-0.6048673,-0.874615
1734432112633,2024-12-17T10:41:52.633Z,27673,-0.54013133,-0.7208055,-1.0208397
1734432112636,2024-12-17T10:41:52.636Z,27676,-0.54013133,-0.7208055,-1.0208397
1734432112643,2024-12-17T10:41:52.643Z,27683,-0.5061482,-0.808542,-1.1408787
1734432112646,2024-12-17T10:41:52.646Z,27686,-0.5061482,-0.808542,-1.1408787
1734432112657,2024-12-17T10:41:52.657Z,27697,-0.43723613,-0.837284,-1.1974839
1734432112661,2024-12-17T10:41:52.661Z,27701,-0.43723613,-0.837284,-1.1974839
1734432112669,2024-12-17T10:41:52.669Z,27709,-0.31494918,-0.70419407,-1.1513668
1734432112672,2024-12-17T10:41:52.672Z,27712,-0.31494918,-0.70419407,-1.1513668
1734432112680,2024-12-17T10:41:52.680Z,27720,-0.28916624,-0.53482145,-1.0267266
1734432112682,2024-12-17T10:41:52.682Z,27722,-0.28916624,-0.53482145,-1.0267266
1734432112690,2024-12-17T10:41:52.690Z,27730,-0.19907376,-0.4527533,-0.9119947
1734432112692,2024-12-17T10:41:52.692Z,27732,-0.19907376,-0.4527533,-0.9119947
1734432112699,2024-12-17T10:41:52.699Z,27739,-0.12907201,-0.4045766,-0.7587303
1734432112701,2024-12-17T10:41:52.701Z,27741,-0.12907201,-0.4045766,-0.7587303
1734432112709,2024-12-17T10:41:52.709Z,27749,-0.16712192,-0.46151525,-0.6814806
1734432112712,2024-12-17T10:41:52.712Z,27752,-0.16712192,-0.46151525,-0.6814806
1734432112718,2024-12-17T10:41:52.718Z,27758,-0.20933127,-0.5809355,-0.6535796
1734432112721,2024-12-17T10:41:52.721Z,27761,-0.20933127,-0.5809355,-0.6535796
1734432112729,2024-12-17T10:41:52.729Z,27769,-0.11350936,-0.5744534,-0.6296987
1734432112731,2024-12-17T10:41:52.731Z,27771,-0.11350936,-0.5744534,-0.6296987
1734432112739,2024-12-17T10:41:52.739Z,27779,-0.210831,-0.537573,-0.6648165
1734432112742,2024-12-17T10:41:52.742Z,27782,-0.210831,-0.537573,-0.6648165
1734432112750,2024-12-17T10:41:52.750Z,27790,-0.23598704,-0.59544164,-0.70763886
1734432112752,2024-12-17T10:41:52.752Z,27792,-0.23598704,-0.59544164,-0.70763886
1734432112760,2024-12-17T10:41:52.760Z,27800,-0.19278324,-0.5849402,-0.7699588
1734432112762,2024-12-17T10:41:52.762Z,27802,-0.19278324,-0.5849402,-0.7699588
1734432112770,2024-12-17T10:41:52.770Z,27810,-0.24304429,-0.46141547,-0.86372405
1734432112773,2024-12-17T10:41:52.773Z,27813,-0.24304429,-0.46141547,-0.86372405
1734432112781,2024-12-17T10:41:52.781Z,27821,-0.26735017,-0.42916206,-0.8677675
1734432112783,2024-12-17T10:41:52.783Z,27823,-0.26735017,-0.42916206,-0.8677675
1734432112790,2024-12-17T10:41:52.790Z,27830,-0.28163067,-0.49867073,-0.89879054
1734432112792,2024-12-17T10:41:52.792Z,27832,-0.28163067,-0.49867073,-0.89879054
1734432112800,2024-12-17T10:41:52.800Z,27840,-0.38707295,-0.5666969,-0.88026464
1734432112803,2024-12-17T10:41:52.803Z,27843,-0.38707295,-0.5666969,-0.88026464
1734432112812,2024-12-17T10:41:52.812Z,27852,-0.35725462,-0.60092837,-0.839943
1734432112814,2024-12-17T10:41:52.814Z,27854,-0.35725462,-0.60092837,-0.839943
1734432112821,2024-12-17T10:41:52.821Z,27861,-0.2708951,-0.5201027,-0.81706196
1734432112824,2024-12-17T10:41:52.824Z,27864,-0.2708951,-0.5201027,-0.81706196
1734432112830,2024-12-17T10:41:52.830Z,27870,-0.31659058,-0.48349637,-0.7646633
1734432112832,2024-12-17T10:41:52.832Z,27872,-0.31659058,-0.48349637,-0.7646633
1734432112839,2024-12-17T10:41:52.839Z,27879,-0.23411009,-0.51364547,-0.75269306
1734432112842,2024-12-17T10:41:52.842Z,27882,-0.23411009,-0.51364547,-0.75269306
1734432112848,2024-12-17T10:41:52.848Z,27888,-0.2820442,-0.49856186,-0.7850474
1734432112850,2024-12-17T10:41:52.850Z,27890,-0.2820442,-0.49856186,-0.7850474
1734432112858,2024-12-17T10:41:52.858Z,27898,-0.28274515,-0.49729845,-0.7630619
1734432112860,2024-12-17T10:41:52.860Z,27900,-0.28274515,-0.49729845,-0.7630619
1734432112866,2024-12-17T10:41:52.866Z,27906,-0.22306019,-0.4311815,-0.80693793
1734432112868,2024-12-17T10:41:52.868Z,27908,-0.22306019,-0.4311815,-0.80693793
1734432112875,2024-12-17T10:41:52.875Z,27915,-0.34241822,-0.46246725,-0.7931046
1734432112878,2024-12-17T10:41:52.878Z,27918,-0.34241822,-0.46246725,-0.7931046
1734432112887,2024-12-17T10:41:52.887Z,27927,-0.25065503,-0.6049597,-0.7696672
1734432112890,2024-12-17T10:41:52.890Z,27930,-0.25065503,-0.6049597,-0.7696672
1734432112898,2024-12-17T10:41:52.898Z,27938,-0.2955078,-0.635165,-0.7431974
1734432112900,2024-12-17T10:41:52.900Z,27940,-0.2955078,-0.635165,-0.7431974
1734432112910,2024-12-17T10:41:52.910Z,27950,-0.28784654,-0.6113934,-0.7542023
1734432112912,2024-12-17T10:41:52.912Z,27952,-0.28784654,-0.6113934,-0.7542023
1734432112920,2024-12-17T10:41:52.920Z,27960,-0.21509996,-0.53154796,-0.74095124
1734432112922,2024-12-17T10:41:52.922Z,27962,-0.21509996,-0.53154796,-0.74095124
1734432112929,2024-12-17T10:41:52.929Z,27969,-0.31076488,-0.45834967,-0.6594103
1734432112931,2024-12-17T10:41:52.931Z,27971,-0.31076488,-0.45834967,-0.6594103
1734432112938,2024-12-17T10:41:52.938Z,27978,-0.2989117,-0.6437273,-0.67919296
1734432112940,2024-12-17T10:41:52.940Z,27980,-0.2989117,-0.6437273,-0.67919296
1734432112947,2024-12-17T10:41:52.947Z,27987,-0.17606442,-0.7342242,-0.7219963
1734432112949,2024-12-17T10:41:52.949Z,27989,-0.17606442,-0.7342242,-0.7219963
1734432112956,2024-12-17T10:41:52.956Z,27996,-0.25752074,-0.71586984,-0.7220171
1734432112958,2024-12-17T10:41:52.958Z,27998,-0.25752074,-0.71586984,-0.7220171
1734432112965,2024-12-17T10:41:52.965Z,28005,-0.2587079,-0.82970333,-0.7422072
1734432112967,2024-12-17T10:41:52.967Z,28007,-0.2587079,-0.82970333,-0.7422072
1734432112975,2024-12-17T10:41:52.975Z,28015,-0.19364877,-0.78891593,-0.6841036
1734432112979,2024-12-17T10:41:52.979Z,28019,-0.19364877,-0.78891593,-0.6841036
1734432112985,2024-12-17T10:41:52.985Z,28025,-0.24742962,-0.7336108,-0.6684422
1734432112988,2024-12-17T10:41:52.988Z,28028,-0.24742962,-0.7336108,-0.6684422
1734432112997,2024-12-17T10:41:52.997Z,28037,-0.24117598,-0.77001566,-0.70364285
1734432113001,2024-12-17T10:41:53.001Z,28041,-0.24117598,-0.77001566,-0.70364285
1734432113016,2024-12-17T10:41:53.016Z,28056,-0.18865731,-0.74838036,-0.69339025
1734432113019,2024-12-17T10:41:53.019Z,28059,-0.18865731,-0.74838036,-0.69339025
1734432113029,2024-12-17T10:41:53.029Z,28069,-0.27605572,-0.68279105,-0.61907965
1734432113032,2024-12-17T10:41:53.032Z,28072,-0.27605572,-0.68279105,-0.61907965
1734432113040,2024-12-17T10:41:53.040Z,28080,-0.34045586,-0.7744637,-0.63381547
1734432113043,2024-12-17T10:41:53.043Z,28083,-0.34045586,-0.7744637,-0.63381547
1734432113053,2024-12-17T10:41:53.053Z,28093,-0.22456375,-0.7925564,-0.6205234
1734432113055,2024-12-17T10:41:53.055Z,28095,-0.22456375,-0.7925564,-0.6205234
1734432113063,2024-12-17T10:41:53.063Z,28103,-0.2534685,-0.74873257,-0.6015233
1734432113065,2024-12-17T10:41:53.065Z,28105,-0.2534685,-0.74873257,-0.6015233
1734432113072,2024-12-17T10:41:53.072Z,28112,-0.31946078,-0.89712644,-0.63435996
1734432113075,2024-12-17T10:41:53.075Z,28115,-0.31946078,-0.89712644,-0.63435996
1734432113084,2024-12-17T10:41:53.084Z,28124,-0.18708362,-0.97371143,-0.6561775
1734432113086,2024-12-17T10:41:53.086Z,28126,-0.18708362,-0.97371143,-0.6561775
1734432113094,2024-12-17T10:41:53.094Z,28134,-0.26636773,-0.93168795,-0.6495128
1734432113097,2024-12-17T10:41:53.097Z,28137,-0.26636773,-0.93168795,-0.6495128
1734432113106,2024-12-17T10:41:53.106Z,28146,-0.34013298,-1.0334561,-0.6828115
1734432113108,2024-12-17T10:41:53.108Z,28148,-0.34013298,-1.0334561,-0.6828115
1734432113115,2024-12-17T10:41:53.115Z,28155,-0.2719375,-0.9408899,-0.6505197
1734432113117,2024-12-17T10:41:53.117Z,28157,-0.2719375,-0.9408899,-0.6505197
1734432113124,2024-12-17T10:41:53.124Z,28164,-0.26212206,-0.794429,-0.67146677
1734432113127,2024-12-17T10:41:53.127Z,28167,-0.26212206,-0.794429,-0.67146677
1734432113134,2024-12-17T10:41:53.134Z,28174,-0.20588359,-0.85657996,-0.63871247
1734432113136,2024-12-17T10:41:53.136Z,28176,-0.20588359,-0.85657996,-0.63871247
1734432113145,2024-12-17T10:41:53.145Z,28185,-0.21302421,-0.913294,-0.5819947
1734432113147,2024-12-17T10:41:53.147Z,28187,-0.21302421,-0.913294,-0.5819947
1734432113154,2024-12-17T10:41:53.154Z,28194,-0.26829073,-0.96611404,-0.5411766
1734432113157,2024-12-17T10:41:53.157Z,28197,-0.26829073,-0.96611404,-0.5411766
1734432113165,2024-12-17T10:41:53.165Z,28205,-0.21328841,-1.0068101,-0.6081089
1734432113167,2024-12-17T10:41:53.167Z,28207,-0.21328841,-1.0068101,-0.6081089
1734432113175,2024-12-17T10:41:53.175Z,28215,-0.18319191,-1.06562,-0.60392207
1734432113178,2024-12-17T10:41:53.178Z,28218,-0.18319191,-1.06562,-0.60392207
1734432113185,2024-12-17T10:41:53.185Z,28225,-0.09301337,-1.0640413,-0.57290804
1734432113188,2024-12-17T10:41:53.188Z,28228,-0.09301337,-1.0640413,-0.57290804
1734432113196,2024-12-17T10:41:53.196Z,28236,-0.16311137,-1.0016736,-0.6208842
1734432113198,2024-12-17T10:41:53.198Z,28238,-0.16311137,-1.0016736,-0.6208842
1734432113206,2024-12-17T10:41:53.206Z,28246,-0.33621246,-1.018497,-0.630335
1734432113209,2024-12-17T10:41:53.209Z,28249,-0.33621246,-1.018497,-0.630335
1734432113216,2024-12-17T10:41:53.216Z,28256,-0.2076065,-1.0451131,-0.6234919
1734432113218,2024-12-17T10:41:53.218Z,28258,-0.2076065,-1.0451131,-0.6234919
1734432113227,2024-12-17T10:41:53.227Z,28267,-0.11557514,-0.969603,-0.63643867
1734432113229,2024-12-17T10:41:53.229Z,28269,-0.11557514,-0.969603,-0.63643867
1734432113238,2024-12-17T10:41:53.238Z,28278,-0.14146273,-1.0143754,-0.5873281
1734432113242,2024-12-17T10:41:53.242Z,28282,-0.14146273,-1.0143754,-0.5873281
1734432113249,2024-12-17T10:41:53.249Z,28289,-0.17810032,-1.068769,-0.5562048
1734432113252,2024-12-17T10:41:53.252Z,28292,-0.17810032,-1.068769,-0.5562048
1734432113259,2024-12-17T10:41:53.259Z,28299,-0.26250172,-1.1495883,-0.5340263
1734432113261,2024-12-17T10:41:53.261Z,28301,-0.26250172,-1.1495883,-0.5340263
1734432113268,2024-12-17T10:41:53.268Z,28308,-0.15832764,-1.2484916,-0.6080898
1734432113270,2024-12-17T10:41:53.270Z,28310,-0.15832764,-1.2484916,-0.6080898
1734432113280,2024-12-17T10:41:53.280Z,28320,-0.09076423,-1.2323992,-0.6362105
1734432113282,2024-12-17T10:41:53.282Z,28322,-0.09076423,-1.2323992,-0.6362105
1734432113289,2024-12-17T10:41:53.289Z,28329,-0.22397853,-1.163693,-0.6887545
1734432113292,2024-12-17T10:41:53.292Z,28332,-0.22397853,-1.163693,-0.6887545
1734432113298,2024-12-17T10:41:53.298Z,28338,-0.30028933,-1.120671,-0.72358346
1734432113300,2024-12-17T10:41:53.300Z,28340,-0.30028933,-1.120671,-0.72358346
1734432113308,2024-12-17T10:41:53.308Z,28348,-0.22682223,-1.1401563,-0.79100126
1734432113310,2024-12-17T10:41:53.310Z,28350,-0.22682223,-1.1401563,-0.79100126
1734432113322,2024-12-17T10:41:53.322Z,28362,-0.19140413,-1.1806905,-0.6820551
1734432113324,2024-12-17T10:41:53.324Z,28364,-0.19140413,-1.1806905,-0.6820551
1734432113331,2024-12-17T10:41:53.331Z,28371,-0.111936666,-1.1849709,-0.619811
1734432113333,2024-12-17T10:41:53.333Z,28373,-0.111936666,-1.1849709,-0.619811
1734432113341,2024-12-17T10:41:53.341Z,28381,-0.16175134,-1.2003651,-0.6166771
1734432113344,2024-12-17T10:41:53.344Z,28384,-0.16175134,-1.2003651,-0.6166771
1734432113351,2024-12-17T10:41:53.351Z,28391,-0.12452723,-1.24131,-0.6261983
1734432113354,2024-12-17T10:41:53.354Z,28394,-0.12452723,-1.24131,-0.6261983
1734432113363,2024-12-17T10:41:53.363Z,28403,-0.02222847,-1.2541233,-0.6093128
1734432113365,2024-12-17T10:41:53.365Z,28405,-0.02222847,-1.2541233,-0.6093128
1734432113372,2024-12-17T10:41:53.372Z,28412,-0.08991269,-1.231958,-0.6726113
1734432113375,2024-12-17T10:41:53.375Z,28415,-0.08991269,-1.231958,-0.6726113
1734432113382,2024-12-17T10:41:53.382Z,28422,-0.16882454,-1.2336196,-0.69924897
1734432113384,2024-12-17T10:41:53.384Z,28424,-0.16882454,-1.2336196,-0.69924897
1734432113397,2024-12-17T10:41:53.397Z,28437,-0.15356475,-1.2752675,-0.6094686
1734432113399,2024-12-17T10:41:53.399Z,28439,-0.15356475,-1.2752675,-0.6094686
1734432113406,2024-12-17T10:41:53.406Z,28446,0.0070319823,-1.2387819,-0.65261424
1734432113410,2024-12-17T10:41:53.410Z,28450,0.0070319823,-1.2387819,-0.65261424
1734432113418,2024-12-17T10:41:53.418Z,28458,-0.06926066,-1.2064123,-0.68923396
1734432113421,2024-12-17T10:41:53.421Z,28461,-0.06926066,-1.2064123,-0.68923396
1734432113431,2024-12-17T10:41:53.431Z,28471,-0.03988745,-1.1950321,-0.6803935
1734432113434,2024-12-17T10:41:53.434Z,28474,-0.03988745,-1.1950321,-0.6803935
1734432113447,2024-12-17T10:41:53.447Z,28487,0.17302336,-1.2048846,-0.68410414
1734432113450,2024-12-17T10:41:53.450Z,28490,0.17302336,-1.2048846,-0.68410414
1734432113460,2024-12-17T10:41:53.460Z,28500,-0.033616394,-1.2713047,-0.714194
1734432113463,2024-12-17T10:41:53.463Z,28503,-0.033616394,-1.2713047,-0.714194
1734432113471,2024-12-17T10:41:53.471Z,28511,-0.11322977,-1.3815383,-0.7079863
1734432113473,2024-12-17T10:41:53.473Z,28513,-0.11322977,-1.3815383,-0.7079863
1734432113482,2024-12-17T10:41:53.482Z,28522,-0.0838076,-1.451981,-0.65302247
1734432113484,2024-12-17T10:41:53.484Z,28524,-0.0838076,-1.451981,-0.65302247
1734432113491,2024-12-17T10:41:53.491Z,28531,-0.08399193,-1.4292111,-0.62818
1734432113493,2024-12-17T10:41:53.493Z,28533,-0.08399193,-1.4292111,-0.62818
1734432113501,2024-12-17T10:41:53.501Z,28541,-0.070277125,-1.3634346,-0.66345716
1734432113504,2024-12-17T10:41:53.504Z,28544,-0.070277125,-1.3634346,-0.66345716
1734432113512,2024-12-17T10:41:53.512Z,28552,-0.03936325,-1.2401816,-0.65531045
1734432113514,2024-12-17T10:41:53.514Z,28554,-0.03936325,-1.2401816,-0.65531045
1734432113521,2024-12-17T10:41:53.521Z,28561,-0.005094966,-1.1264534,-0.58914137
1734432113524,2024-12-17T10:41:53.524Z,28564,-0.005094966,-1.1264534,-0.58914137
1734432113531,2024-12-17T10:41:53.531Z,28571,-0.06055315,-1.1656793,-0.49636513
1734432113534,2024-12-17T10:41:53.534Z,28574,-0.06055315,-1.1656793,-0.49636513
1734432113542,2024-12-17T10:41:53.542Z,28582,-0.044767864,-1.2452655,-0.3967928
1734432113545,2024-12-17T10:41:53.545Z,28585,-0.044767864,-1.2452655,-0.3967928
1734432113552,2024-12-17T10:41:53.552Z,28592,-0.089836724,-1.2962909,-0.49469334
1734432113555,2024-12-17T10:41:53.555Z,28595,-0.089836724,-1.2962909,-0.49469334
1734432113562,2024-12-17T10:41:53.562Z,28602,-0.06379867,-1.2019746,-0.60536367
1734432113564,2024-12-17T10:41:53.564Z,28604,-0.06379867,-1.2019746,-0.60536367
1734432113571,2024-12-17T10:41:53.571Z,28611,0.004887318,-1.0798535,-0.55085415
1734432113574,2024-12-17T10:41:53.574Z,28614,0.004887318,-1.0798535,-0.55085415
1734432113582,2024-12-17T10:41:53.582Z,28622,-0.046157133,-1.0322837,-0.5083819
1734432113585,2024-12-17T10:41:53.585Z,28625,-0.046157133,-1.0322837,-0.5083819
1734432113594,2024-12-17T10:41:53.594Z,28634,-0.039328422,-1.0792925,-0.5406241
1734432113596,2024-12-17T10:41:53.596Z,28636,-0.039328422,-1.0792925,-0.5406241
1734432113603,2024-12-17T10:41:53.603Z,28643,-0.09104045,-1.1198663,-0.54858273
1734432113605,2024-12-17T10:41:53.605Z,28645,-0.09104045,-1.1198663,-0.54858273
1734432113612,2024-12-17T10:41:53.612Z,28652,-0.101446845,-1.0659841,-0.53357047
1734432113614,2024-12-17T10:41:53.614Z,28654,-0.101446845,-1.0659841,-0.53357047
1734432113621,2024-12-17T10:41:53.621Z,28661,-0.0046174307,-0.98789185,-0.59227145
1734432113623,2024-12-17T10:41:53.623Z,28663,-0.0046174307,-0.98789185,-0.59227145
1734432113630,2024-12-17T10:41:53.630Z,28670,0.010089949,-1.017695,-0.57744944
1734432113633,2024-12-17T10:41:53.633Z,28673,0.010089949,-1.017695,-0.57744944
1734432113640,2024-12-17T10:41:53.640Z,28680,0.014017674,-1.1043346,-0.53246367
1734432113642,2024-12-17T10:41:53.642Z,28682,0.014017674,-1.1043346,-0.53246367
1734432113651,2024-12-17T10:41:53.651Z,28691,-0.012976978,-1.1565353,-0.5577593
1734432113654,2024-12-17T10:41:53.654Z,28694,-0.012976978,-1.1565353,-0.5577593
1734432113663,2024-12-17T10:41:53.663Z,28703,-0.073221706,-1.1792741,-0.6631125
1734432113665,2024-12-17T10:41:53.665Z,28705,-0.073221706,-1.1792741,-0.6631125
1734432113672,2024-12-17T10:41:53.672Z,28712,-0.06435086,-1.0940359,-0.683427
1734432113674,2024-12-17T10:41:53.674Z,28714,-0.06435086,-1.0940359,-0.683427
1734432113681,2024-12-17T10:41:53.681Z,28721,-0.122485615,-1.0009177,-0.69782794
1734432113683,2024-12-17T10:41:53.683Z,28723,-0.122485615,-1.0009177,-0.69782794
1734432113690,2024-12-17T10:41:53.690Z,28730,-0.089847825,-1.013284,-0.72148347
1734432113692,2024-12-17T10:41:53.692Z,28732,-0.089847825,-1.013284,-0.72148347
1734432113699,2024-12-17T10:41:53.699Z,28739,-0.016756644,-1.0097252,-0.6615126
1734432113701,2024-12-17T10:41:53.701Z,28741,-0.016756644,-1.0097252,-0.6615126
1734432113707,2024-12-17T10:41:53.707Z,28747,-0.037888195,-1.0581385,-0.59469205
1734432113710,2024-12-17T10:41:53.710Z,28750,-0.037888195,-1.0581385,-0.59469205
1734432113718,2024-12-17T10:41:53.718Z,28758,-0.07884422,-1.1903619,-0.63728946
1734432113721,2024-12-17T10:41:53.721Z,28761,-0.07884422,-1.1903619,-0.63728946
1734432113732,2024-12-17T10:41:53.732Z,28772,-0.09777401,-1.2066085,-0.72033644
1734432113734,2024-12-17T10:41:53.734Z,28774,-0.09777401,-1.2066085,-0.72033644
1734432113741,2024-12-17T10:41:53.741Z,28781,-0.1618731,-1.0848892,-0.67246383
1734432113743,2024-12-17T10:41:53.743Z,28783,-0.1618731,-1.0848892,-0.67246383
1734432113752,2024-12-17T10:41:53.752Z,28792,-0.15153871,-1.019122,-0.5377037
1734432113755,2024-12-17T10:41:53.755Z,28795,-0.15153871,-1.019122,-0.5377037
1734432113762,2024-12-17T10:41:53.762Z,28802,-0.07544128,-1.0368074,-0.47720972
1734432113764,2024-12-17T10:41:53.764Z,28804,-0.07544128,-1.0368074,-0.47720972
1734432113771,2024-12-17T10:41:53.771Z,28811,-0.023924604,-1.0330814,-0.46264783
1734432113773,2024-12-17T10:41:53.773Z,28813,-0.023924604,-1.0330814,-0.46264783
1734432113780,2024-12-17T10:41:53.780Z,28820,-0.0410994,-1.0510488,-0.44174784
1734432113783,2024-12-17T10:41:53.783Z,28823,-0.0410994,-1.0510488,-0.44174784
1734432113790,2024-12-17T10:41:53.790Z,28830,-0.12936355,-1.083403,-0.5898046
1734432113793,2024-12-17T10:41:53.793Z,28833,-0.12936355,-1.083403,-0.5898046
1734432113800,2024-12-17T10:41:53.800Z,28840,-0.21051687,-1.0211141,-0.6324097
1734432113803,2024-12-17T10:41:53.803Z,28843,-0.21051687,-1.0211141,-0.6324097
1734432113810,2024-12-17T10:41:53.810Z,28850,-0.23534612,-0.9851534,-0.60705847
1734432113812,2024-12-17T10:41:53.812Z,28852,-0.23534612,-0.9851534,-0.60705847
1734432113819,2024-12-17T10:41:53.819Z,28859,-0.17917177,-0.99881774,-0.5902837
1734432113821,2024-12-17T10:41:53.821Z,28861,-0.17917177,-0.99881774,-0.5902837
1734432113827,2024-12-17T10:41:53.827Z,28867,-0.043431073,-0.96643114,-0.56061643
1734432113831,2024-12-17T10:41:53.831Z,28871,-0.043431073,-0.96643114,-0.56061643
1734432113839,2024-12-17T10:41:53.839Z,28879,-0.010118527,-0.9194723,-0.5320033
1734432113842,2024-12-17T10:41:53.842Z,28882,-0.010118527,-0.9194723,-0.5320033
1734432113850,2024-12-17T10:41:53.850Z,28890,-0.09648263,-0.89480984,-0.5968675
1734432113852,2024-12-17T10:41:53.852Z,28892,-0.09648263,-0.89480984,-0.5968675
1734432113860,2024-12-17T10:41:53.860Z,28900,-0.21556585,-0.9297864,-0.6126305
1734432113863,2024-12-17T10:41:53.863Z,28903,-0.21556585,-0.9297864,-0.6126305
1734432113881,2024-12-17T10:41:53.881Z,28921,-0.289994,-1.0722334,-0.54300827
1734432113884,2024-12-17T10:41:53.884Z,28924,-0.289994,-1.0722334,-0.54300827
1734432113893,2024-12-17T10:41:53.893Z,28933,-0.26790762,-1.1901655,-0.58058363
1734432113895,2024-12-17T10:41:53.895Z,28935,-0.26790762,-1.1901655,-0.58058363
1734432113902,2024-12-17T10:41:53.902Z,28942,-0.26330057,-1.2150086,-0.59252816
1734432113904,2024-12-17T10:41:53.904Z,28944,-0.26330057,-1.2150086,-0.59252816
1734432113911,2024-12-17T10:41:53.911Z,28951,-0.27876475,-1.1223136,-0.605675
1734432113913,2024-12-17T10:41:53.913Z,28953,-0.27876475,-1.1223136,-0.605675
1734432113920,2024-12-17T10:41:53.920Z,28960,-0.28298238,-0.92726743,-0.6079066
1734432113922,2024-12-17T10:41:53.922Z,28962,-0.28298238,-0.92726743,-0.6079066
1734432113929,2024-12-17T10:41:53.929Z,28969,-0.1457801,-0.81143486,-0.5974775
1734432113931,2024-12-17T10:41:53.931Z,28971,-0.1457801,-0.81143486,-0.5974775
1734432113938,2024-12-17T10:41:53.938Z,28978,0.056411903,-0.7912991,-0.5418498
1734432113941,2024-12-17T10:41:53.941Z,28981,0.056411903,-0.7912991,-0.5418498
1734432113950,2024-12-17T10:41:53.950Z,28990,-0.022294732,-0.8115834,-0.55587155
1734432113953,2024-12-17T10:41:53.953Z,28993,-0.022294732,-0.8115834,-0.55587155
1734432113962,2024-12-17T10:41:53.962Z,29002,-0.22968191,-0.86719704,-0.62472755
1734432113964,2024-12-17T10:41:53.964Z,29004,-0.22968191,-0.86719704,-0.62472755
1734432113971,2024-12-17T10:41:53.971Z,29011,-0.3493383,-1.0370277,-0.6909241
1734432113973,2024-12-17T10:41:53.973Z,29013,-0.3493383,-1.0370277,-0.6909241
1734432113981,2024-12-17T10:41:53.981Z,29021,-0.4012872,-1.233291,-0.7146948
1734432113984,2024-12-17T10:41:53.984Z,29024,-0.4012872,-1.233291,-0.7146948
1734432113991,2024-12-17T10:41:53.991Z,29031,-0.31497607,-1.2876521,-0.73269266
1734432113993,2024-12-17T10:41:53.993Z,29033,-0.31497607,-1.2876521,-0.73269266
1734432114000,2024-12-17T10:41:54Z,29040,-0.1713549,-1.0952164,-0.6288363
1734432114003,2024-12-17T10:41:54.003Z,29043,-0.1713549,-1.0952164,-0.6288363
1734432114010,2024-12-17T10:41:54.010Z,29050,-0.033657275,-0.81169724,-0.62458885
1734432114013,2024-12-17T10:41:54.013Z,29053,-0.033657275,-0.81169724,-0.62458885
1734432114020,2024-12-17T10:41:54.020Z,29060,0.11589087,-0.5883642,-0.7077057
1734432114022,2024-12-17T10:41:54.022Z,29062,0.11589087,-0.5883642,-0.7077057
1734432114029,2024-12-17T10:41:54.029Z,29069,0.010246396,-0.37915468,-0.6537548
1734432114031,2024-12-17T10:41:54.031Z,29071,0.010246396,-0.37915468,-0.6537548
1734432114039,2024-12-17T10:41:54.039Z,29079,-0.30106783,-0.4683663,-0.627902
1734432114042,2024-12-17T10:41:54.042Z,29082,-0.30106783,-0.4683663,-0.627902
1734432114050,2024-12-17T10:41:54.050Z,29090,-0.36765158,-0.94109064,-0.7067158
1734432114053,2024-12-17T10:41:54.053Z,29093,-0.36765158,-0.94109064,-0.7067158
1734432114060,2024-12-17T10:41:54.060Z,29100,-0.32922697,-1.292161,-0.7489493
1734432114063,2024-12-17T10:41:54.063Z,29103,-0.32922697,-1.292161,-0.7489493
1734432114070,2024-12-17T10:41:54.070Z,29110,-0.3958204,-1.3059331,-0.73182327
1734432114073,2024-12-17T10:41:54.073Z,29113,-0.3958204,-1.3059331,-0.73182327
1734432114081,2024-12-17T10:41:54.081Z,29121,-0.27200386,-1.0839064,-0.54208094
1734432114083,2024-12-17T10:41:54.083Z,29123,-0.27200386,-1.0839064,-0.54208094
1734432114090,2024-12-17T10:41:54.090Z,29130,0.032877725,-0.8341448,-0.5503188
1734432114092,2024-12-17T10:41:54.092Z,29132,0.032877725,-0.8341448,-0.5503188
1734432114099,2024-12-17T10:41:54.099Z,29139,0.05692564,-0.5635582,-0.6950883
1734432114101,2024-12-17T10:41:54.101Z,29141,0.05692564,-0.5635582,-0.6950883
1734432114108,2024-12-17T10:41:54.108Z,29148,-0.035322096,-0.30896032,-0.72531724
1734432114110,2024-12-17T10:41:54.110Z,29150,-0.035322096,-0.30896032,-0.72531724
1734432114119,2024-12-17T10:41:54.119Z,29159,-0.112222075,-0.39288914,-0.6948214
1734432114122,2024-12-17T10:41:54.122Z,29162,-0.112222075,-0.39288914,-0.6948214
1734432114130,2024-12-17T10:41:54.130Z,29170,-0.3197049,-0.77139705,-0.70854145
1734432114132,2024-12-17T10:41:54.132Z,29172,-0.3197049,-0.77139705,-0.70854145
1734432114139,2024-12-17T10:41:54.139Z,29179,-0.47170338,-1.1490368,-0.6994693
1734432114141,2024-12-17T10:41:54.141Z,29181,-0.47170338,-1.1490368,-0.6994693
1734432114148,2024-12-17T10:41:54.148Z,29188,-0.35175753,-1.4740515,-0.6501922
1734432114150,2024-12-17T10:41:54.150Z,29190,-0.35175753,-1.4740515,-0.6501922
1734432114156,2024-12-17T10:41:54.156Z,29196,-0.2587974,-1.4908978,-0.6963253
1734432114158,2024-12-17T10:41:54.158Z,29198,-0.2587974,-1.4908978,-0.6963253
1734432114165,2024-12-17T10:41:54.165Z,29205,-0.16656782,-1.0399092,-0.73706365
1734432114167,2024-12-17T10:41:54.167Z,29207,-0.16656782,-1.0399092,-0.73706365
1734432114173,2024-12-17T10:41:54.173Z,29213,0.056659095,-0.41654736,-0.7081217
1734432114176,2024-12-17T10:41:54.176Z,29216,0.056659095,-0.41654736,-0.7081217
1734432114183,2024-12-17T10:41:54.183Z,29223,-0.02908103,-0.045833953,-0.75877696
1734432114185,2024-12-17T10:41:54.185Z,29225,-0.02908103,-0.045833953,-0.75877696
1734432114193,2024-12-17T10:41:54.193Z,29233,-0.08954983,-0.20280819,-0.79658633
1734432114196,2024-12-17T10:41:54.196Z,29236,-0.08954983,-0.20280819,-0.79658633
1734432114203,2024-12-17T10:41:54.203Z,29243,-0.10374541,-0.58440065,-0.8565637
1734432114205,2024-12-17T10:41:54.205Z,29245,-0.10374541,-0.58440065,-0.8565637
1734432114212,2024-12-17T10:41:54.212Z,29252,-0.33288336,-0.84522,-0.8804915
1734432114215,2024-12-17T10:41:54.215Z,29255,-0.33288336,-0.84522,-0.8804915
1734432114226,2024-12-17T10:41:54.226Z,29266,-0.48881125,-1.1207296,-0.8074063
1734432114229,2024-12-17T10:41:54.229Z,29269,-0.48881125,-1.1207296,-0.8074063
1734432114235,2024-12-17T10:41:54.235Z,29275,-0.60864544,-1.3684812,-0.917073
1734432114237,2024-12-17T10:41:54.237Z,29277,-0.60864544,-1.3684812,-0.917073
1734432114245,2024-12-17T10:41:54.245Z,29285,-0.37832186,-1.1417283,-0.734777
1734432114248,2024-12-17T10:41:54.248Z,29288,-0.37832186,-1.1417283,-0.734777
1734432114256,2024-12-17T10:41:54.256Z,29296,0.066283256,-0.54386234,-0.6034766
1734432114259,2024-12-17T10:41:54.259Z,29299,0.066283256,-0.54386234,-0.6034766
1734432114266,2024-12-17T10:41:54.266Z,29306,0.035465803,-0.24158657,-0.69757193
1734432114269,2024-12-17T10:41:54.269Z,29309,0.035465803,-0.24158657,-0.69757193
1734432114278,2024-12-17T10:41:54.278Z,29318,-0.046459973,-0.37378976,-0.72599417
1734432114280,2024-12-17T10:41:54.280Z,29320,-0.046459973,-0.37378976,-0.72599417
1734432114291,2024-12-17T10:41:54.291Z,29331,-0.03918034,-0.36500067,-0.7608242
1734432114294,2024-12-17T10:41:54.294Z,29334,-0.03918034,-0.36500067,-0.7608242
1734432114302,2024-12-17T10:41:54.302Z,29342,-0.23261498,-0.426909,-0.7316882
1734432114305,2024-12-17T10:41:54.305Z,29345,-0.23261498,-0.426909,-0.7316882
1734432114312,2024-12-17T10:41:54.312Z,29352,-0.33827817,-0.9086521,-0.70130837
1734432114315,2024-12-17T10:41:54.315Z,29355,-0.33827817,-0.9086521,-0.70130837
1734432114321,2024-12-17T10:41:54.321Z,29361,-0.4738187,-1.2745955,-0.7730439
1734432114324,2024-12-17T10:41:54.324Z,29364,-0.4738187,-1.2745955,-0.7730439
1734432114331,2024-12-17T10:41:54.331Z,29371,-0.37547222,-1.227043,-0.7433913
1734432114334,2024-12-17T10:41:54.334Z,29374,-0.37547222,-1.227043,-0.7433913
1734432114342,2024-12-17T10:41:54.342Z,29382,-0.20077632,-0.8536834,-0.75817156
1734432114345,2024-12-17T10:41:54.345Z,29385,-0.20077632,-0.8536834,-0.75817156
1734432114353,2024-12-17T10:41:54.353Z,29393,-0.14238128,-0.50459945,-0.62968934
1734432114355,2024-12-17T10:41:54.355Z,29395,-0.14238128,-0.50459945,-0.62968934
1734432114364,2024-12-17T10:41:54.364Z,29404,0.19873585,-0.2831953,-0.65049005
1734432114366,2024-12-17T10:41:54.366Z,29406,0.19873585,-0.2831953,-0.65049005
1734432114373,2024-12-17T10:41:54.373Z,29413,0.24302347,-0.21135607,-0.8291269
1734432114375,2024-12-17T10:41:54.375Z,29415,0.24302347,-0.21135607,-0.8291269
1734432114382,2024-12-17T10:41:54.382Z,29422,-0.10212766,-0.5073806,-0.90410674
1734432114384,2024-12-17T10:41:54.384Z,29424,-0.10212766,-0.5073806,-0.90410674
1734432114392,2024-12-17T10:41:54.392Z,29432,-0.3736328,-0.91416633,-0.99643177
1734432114395,2024-12-17T10:41:54.395Z,29435,-0.3736328,-0.91416633,-0.99643177
1734432114401,2024-12-17T10:41:54.401Z,29441,-0.3775691,-1.0095375,-0.80838716
1734432114403,2024-12-17T10:41:54.403Z,29443,-0.3775691,-1.0095375,-0.80838716
1734432114410,2024-12-17T10:41:54.410Z,29450,-0.3908261,-0.696306,-0.77058893
1734432114412,2024-12-17T10:41:54.412Z,29452,-0.3908261,-0.696306,-0.77058893
1734432114419,2024-12-17T10:41:54.419Z,29459,-0.35144106,-0.4702709,-0.80887055
1734432114421,2024-12-17T10:41:54.421Z,29461,-0.35144106,-0.4702709,-0.80887055
1734432114428,2024-12-17T10:41:54.428Z,29468,-0.47821108,-0.49237078,-0.63770187
1734432114431,2024-12-17T10:41:54.431Z,29471,-0.47821108,-0.49237078,-0.63770187
1734432114439,2024-12-17T10:41:54.439Z,29479,-0.22972551,-0.39233404,-0.74334896
1734432114442,2024-12-17T10:41:54.442Z,29482,-0.22972551,-0.39233404,-0.74334896
1734432114449,2024-12-17T10:41:54.449Z,29489,-0.030007277,-0.49966145,-0.74930125
1734432114452,2024-12-17T10:41:54.452Z,29492,-0.030007277,-0.49966145,-0.74930125
1734432114458,2024-12-17T10:41:54.458Z,29498,-0.13805161,-0.9296257,-0.8259155
1734432114460,2024-12-17T10:41:54.460Z,29500,-0.13805161,-0.9296257,-0.8259155
1734432114466,2024-12-17T10:41:54.466Z,29506,-0.21517657,-0.96816975,-0.85812247
1734432114468,2024-12-17T10:41:54.468Z,29508,-0.21517657,-0.96816975,-0.85812247
1734432114475,2024-12-17T10:41:54.475Z,29515,-0.1990727,-0.54174906,-0.656085
1734432114477,2024-12-17T10:41:54.477Z,29517,-0.1990727,-0.54174906,-0.656085
1734432114483,2024-12-17T10:41:54.483Z,29523,-0.35146323,-0.3206853,-0.756069
1734432114485,2024-12-17T10:41:54.485Z,29525,-0.35146323,-0.3206853,-0.756069
1734432114493,2024-12-17T10:41:54.493Z,29533,-0.45857903,-0.57982844,-0.87935674
1734432114496,2024-12-17T10:41:54.496Z,29536,-0.45857903,-0.57982844,-0.87935674
1734432114503,2024-12-17T10:41:54.503Z,29543,-0.19899172,-0.80793226,-0.7483252
1734432114505,2024-12-17T10:41:54.505Z,29545,-0.19899172,-0.80793226,-0.7483252
1734432114511,2024-12-17T10:41:54.511Z,29551,-0.014451777,-0.690284,-0.74450165
1734432114514,2024-12-17T10:41:54.514Z,29554,-0.014451777,-0.690284,-0.74450165
1734432114520,2024-12-17T10:41:54.520Z,29560,-0.0031106018,-0.61195374,-0.7251462
1734432114522,2024-12-17T10:41:54.522Z,29562,-0.0031106018,-0.61195374,-0.7251462
1734432114528,2024-12-17T10:41:54.528Z,29568,-0.11218377,-0.5992401,-0.7946662
1734432114531,2024-12-17T10:41:54.531Z,29571,-0.11218377,-0.5992401,-0.7946662
1734432114538,2024-12-17T10:41:54.538Z,29578,-0.21147907,-0.64554405,-0.93200886
1734432114540,2024-12-17T10:41:54.540Z,29580,-0.21147907,-0.64554405,-0.93200886
1734432114547,2024-12-17T10:41:54.547Z,29587,-0.14648087,-0.6862841,-0.86533874
1734432114549,2024-12-17T10:41:54.549Z,29589,-0.14648087,-0.6862841,-0.86533874
1734432114555,2024-12-17T10:41:54.555Z,29595,-0.20650822,-0.49271896,-0.83873355
1734432114557,2024-12-17T10:41:54.557Z,29597,-0.20650822,-0.49271896,-0.83873355
1734432114566,2024-12-17T10:41:54.566Z,29606,-0.43627366,-0.54699594,-0.72605026
1734432114569,2024-12-17T10:41:54.569Z,29609,-0.43627366,-0.54699594,-0.72605026
1734432114577,2024-12-17T10:41:54.577Z,29617,-0.24708971,-0.91453266,-0.69668007
1734432114579,2024-12-17T10:41:54.579Z,29619,-0.24708971,-0.91453266,-0.69668007
1734432114586,2024-12-17T10:41:54.586Z,29626,0.0061069983,-0.95750225,-0.8328876
1734432114589,2024-12-17T10:41:54.589Z,29629,0.0061069983,-0.95750225,-0.8328876
1734432114596,2024-12-17T10:41:54.596Z,29636,0.0899015,-0.6413195,-0.7225248
1734432114598,2024-12-17T10:41:54.598Z,29638,0.0899015,-0.6413195,-0.7225248
1734432114605,2024-12-17T10:41:54.605Z,29645,0.12111285,-0.46046957,-0.6082202
1734432114607,2024-12-17T10:41:54.607Z,29647,0.12111285,-0.46046957,-0.6082202
1734432114614,2024-12-17T10:41:54.614Z,29654,0.023331879,-0.6450659,-0.7132045
1734432114616,2024-12-17T10:41:54.616Z,29656,0.023331879,-0.6450659,-0.7132045
1734432114622,2024-12-17T10:41:54.622Z,29662,0.035497338,-0.7746987,-0.7727944
1734432114624,2024-12-17T10:41:54.624Z,29664,0.035497338,-0.7746987,-0.7727944
1734432114632,2024-12-17T10:41:54.632Z,29672,0.0064291195,-0.6155664,-0.7136323
1734432114634,2024-12-17T10:41:54.634Z,29674,0.0064291195,-0.6155664,-0.7136323
1734432114641,2024-12-17T10:41:54.641Z,29681,-0.23670658,-0.5812896,-0.7028652
1734432114643,2024-12-17T10:41:54.643Z,29683,-0.23670658,-0.5812896,-0.7028652
1734432114651,2024-12-17T10:41:54.651Z,29691,-0.2320119,-0.8010094,-0.77382535
1734432114653,2024-12-17T10:41:54.653Z,29693,-0.2320119,-0.8010094,-0.77382535
1734432114659,2024-12-17T10:41:54.659Z,29699,-0.116068274,-0.66575915,-0.80298233
1734432114662,2024-12-17T10:41:54.662Z,29702,-0.116068274,-0.66575915,-0.80298233
1734432114668,2024-12-17T10:41:54.668Z,29708,-0.26281473,-0.37776574,-0.7804973
1734432114672,2024-12-17T10:41:54.672Z,29712,-0.26281473,-0.37776574,-0.7804973
1734432114685,2024-12-17T10:41:54.685Z,29725,-0.30472133,-0.49711514,-0.78089255
1734432114689,2024-12-17T10:41:54.689Z,29729,-0.30472133,-0.49711514,-0.78089255
1734432114696,2024-12-17T10:41:54.696Z,29736,-0.082219034,-0.6842192,-0.8084075
1734432114698,2024-12-17T10:41:54.698Z,29738,-0.082219034,-0.6842192,-0.8084075
1734432114704,2024-12-17T10:41:54.704Z,29744,0.0103881955,-0.5435618,-0.7812047
1734432114706,2024-12-17T10:41:54.706Z,29746,0.0103881955,-0.5435618,-0.7812047
1734432114712,2024-12-17T10:41:54.712Z,29752,-0.07607347,-0.374852,-0.78305495
1734432114716,2024-12-17T10:41:54.716Z,29756,-0.07607347,-0.374852,-0.78305495
1734432114722,2024-12-17T10:41:54.722Z,29762,-0.12979995,-0.46953356,-0.83494174
1734432114724,2024-12-17T10:41:54.724Z,29764,-0.12979995,-0.46953356,-0.83494174
1734432114733,2024-12-17T10:41:54.733Z,29773,-0.08923529,-0.57190055,-0.796333
1734432114737,2024-12-17T10:41:54.737Z,29777,-0.08923529,-0.57190055,-0.796333
1734432114744,2024-12-17T10:41:54.744Z,29784,-0.10678349,-0.56456286,-0.7362561
1734432114746,2024-12-17T10:41:54.746Z,29786,-0.10678349,-0.56456286,-0.7362561
1734432114753,2024-12-17T10:41:54.753Z,29793,-0.12938954,-0.6057145,-0.7463755
1734432114755,2024-12-17T10:41:54.755Z,29795,-0.12938954,-0.6057145,-0.7463755
1734432114762,2024-12-17T10:41:54.762Z,29802,-0.112112135,-0.59026706,-0.75545204
1734432114764,2024-12-17T10:41:54.764Z,29804,-0.112112135,-0.59026706,-0.75545204
1734432114771,2024-12-17T10:41:54.771Z,29811,-0.1298902,-0.4325431,-0.76847553
1734432114773,2024-12-17T10:41:54.773Z,29813,-0.1298902,-0.4325431,-0.76847553
1734432114783,2024-12-17T10:41:54.783Z,29823,-0.14386085,-0.3707193,-0.77012694
1734432114786,2024-12-17T10:41:54.786Z,29826,-0.14386085,-0.3707193,-0.77012694
1734432114793,2024-12-17T10:41:54.793Z,29833,-0.10490647,-0.48489112,-0.7495327
1734432114795,2024-12-17T10:41:54.795Z,29835,-0.10490647,-0.48489112,-0.7495327
1734432114805,2024-12-17T10:41:54.805Z,29845,-0.04507669,-0.6223091,-0.77910006
1734432114809,2024-12-17T10:41:54.809Z,29849,-0.04507669,-0.6223091,-0.77910006
1734432114815,2024-12-17T10:41:54.815Z,29855,-0.06628749,-0.66675854,-0.84773004
1734432114817,2024-12-17T10:41:54.817Z,29857,-0.06628749,-0.66675854,-0.84773004
1734432114824,2024-12-17T10:41:54.824Z,29864,-0.10172912,-0.66165423,-0.87533337
1734432114826,2024-12-17T10:41:54.826Z,29866,-0.10172912,-0.66165423,-0.87533337
1734432114833,2024-12-17T10:41:54.833Z,29873,-0.11165428,-0.6333509,-0.8745803
1734432114835,2024-12-17T10:41:54.835Z,29875,-0.11165428,-0.6333509,-0.8745803
1734432114843,2024-12-17T10:41:54.843Z,29883,-0.11042866,-0.63440955,-0.85376656
1734432114846,2024-12-17T10:41:54.846Z,29886,-0.11042866,-0.63440955,-0.85376656
1734432114852,2024-12-17T10:41:54.852Z,29892,-0.06533035,-0.71973336,-0.83929825
1734432114854,2024-12-17T10:41:54.854Z,29894,-0.06533035,-0.71973336,-0.83929825
1734432114861,2024-12-17T10:41:54.861Z,29901,-0.03769338,-0.73900014,-0.8040341
1734432114863,2024-12-17T10:41:54.863Z,29903,-0.03769338,-0.73900014,-0.8040341
1734432114870,2024-12-17T10:41:54.870Z,29910,-0.051938053,-0.6335175,-0.73827946
1734432114872,2024-12-17T10:41:54.872Z,29912,-0.051938053,-0.6335175,-0.73827946
1734432114879,2024-12-17T10:41:54.879Z,29919,-0.1349357,-0.5495937,-0.6930525
1734432114882,2024-12-17T10:41:54.882Z,29922,-0.1349357,-0.5495937,-0.6930525
1734432114889,2024-12-17T10:41:54.889Z,29929,-0.114730895,-0.5344358,-0.66376776
1734432114892,2024-12-17T10:41:54.892Z,29932,-0.114730895,-0.5344358,-0.66376776
1734432114900,2024-12-17T10:41:54.900Z,29940,-0.041709814,-0.5359552,-0.617156
1734432114902,2024-12-17T10:41:54.902Z,29942,-0.041709814,-0.5359552,-0.617156
1734432114911,2024-12-17T10:41:54.911Z,29951,-0.059702195,-0.5603115,-0.5586114
1734432114914,2024-12-17T10:41:54.914Z,29954,-0.059702195,-0.5603115,-0.5586114
1734432114920,2024-12-17T10:41:54.920Z,29960,-0.12842363,-0.52376056,-0.6303282
1734432114922,2024-12-17T10:41:54.922Z,29962,-0.12842363,-0.52376056,-0.6303282
1734432114929,2024-12-17T10:41:54.929Z,29969,-0.10424072,-0.4667966,-0.65749764
1734432114931,2024-12-17T10:41:54.931Z,29971,-0.10424072,-0.4667966,-0.65749764
1734432114938,2024-12-17T10:41:54.938Z,29978,-0.1291057,-0.48362213,-0.69573826
1734432114940,2024-12-17T10:41:54.940Z,29980,-0.1291057,-0.48362213,-0.69573826
1734432114947,2024-12-17T10:41:54.947Z,29987,-0.17314824,-0.48078248,-0.7925633
1734432114950,2024-12-17T10:41:54.950Z,29990,-0.17314824,-0.48078248,-0.7925633
1734432114957,2024-12-17T10:41:54.957Z,29997,-0.1253285,-0.41593742,-0.80744433
1734432114959,2024-12-17T10:41:54.959Z,29999,-0.1253285,-0.41593742,-0.80744433
1734432114966,2024-12-17T10:41:54.966Z,30006,-0.12773775,-0.39876664,-0.8857594
1734432114968,2024-12-17T10:41:54.968Z,30008,-0.12773775,-0.39876664,-0.8857594
1734432114975,2024-12-17T10:41:54.975Z,30015,-0.17381269,-0.47992456,-0.95415986
1734432114979,2024-12-17T10:41:54.979Z,30019,-0.17381269,-0.47992456,-0.95415986
1734432114986,2024-12-17T10:41:54.986Z,30026,-0.19147153,-0.5416371,-0.93169916
1734432114988,2024-12-17T10:41:54.988Z,30028,-0.19147153,-0.5416371,-0.93169916
1734432114995,2024-12-17T10:41:54.995Z,30035,-0.26149842,-0.50858533,-0.9224926
1734432114997,2024-12-17T10:41:54.997Z,30037,-0.26149842,-0.50858533,-0.9224926
1734432115004,2024-12-17T10:41:55.004Z,30044,-0.23657534,-0.5079573,-0.9210469
1734432115006,2024-12-17T10:41:55.006Z,30046,-0.23657534,-0.5079573,-0.9210469
1734432115013,2024-12-17T10:41:55.013Z,30053,-0.09516212,-0.57253367,-0.88581836
1734432115015,2024-12-17T10:41:55.015Z,30055,-0.09516212,-0.57253367,-0.88581836
1734432115022,2024-12-17T10:41:55.022Z,30062,-0.021294884,-0.5689672,-0.8497845
1734432115025,2024-12-17T10:41:55.025Z,30065,-0.021294884,-0.5689672,-0.8497845
1734432115033,2024-12-17T10:41:55.033Z,30073,-0.08270881,-0.4819696,-0.7940022
1734432115035,2024-12-17T10:41:55.035Z,30075,-0.08270881,-0.4819696,-0.7940022
1734432115041,2024-12-17T10:41:55.041Z,30081,-0.17837322,-0.4573624,-0.79048055
1734432115043,2024-12-17T10:41:55.043Z,30083,-0.17837322,-0.4573624,-0.79048055
1734432115050,2024-12-17T10:41:55.050Z,30090,-0.18099447,-0.5567726,-0.82923853
1734432115052,2024-12-17T10:41:55.052Z,30092,-0.18099447,-0.5567726,-0.82923853
1734432115058,2024-12-17T10:41:55.058Z,30098,-0.1024788,-0.58834994,-0.78591555
1734432115062,2024-12-17T10:41:55.062Z,30102,-0.1024788,-0.58834994,-0.78591555
1734432115068,2024-12-17T10:41:55.068Z,30108,-0.18373324,-0.5133941,-0.78270143
1734432115070,2024-12-17T10:41:55.070Z,30110,-0.18373324,-0.5133941,-0.78270143
1734432115077,2024-12-17T10:41:55.077Z,30117,-0.24512458,-0.52481765,-0.8403655
1734432115079,2024-12-17T10:41:55.079Z,30119,-0.24512458,-0.52481765,-0.8403655
1734432115085,2024-12-17T10:41:55.085Z,30125,-0.15034916,-0.5303267,-0.80759805
1734432115087,2024-12-17T10:41:55.087Z,30127,-0.15034916,-0.5303267,-0.80759805
1734432115094,2024-12-17T10:41:55.094Z,30134,-0.10001767,-0.449072,-0.7804014
1734432115097,2024-12-17T10:41:55.097Z,30137,-0.10001767,-0.449072,-0.7804014
1734432115109,2024-12-17T10:41:55.109Z,30149,-0.22709909,-0.47356573,-0.7816326
1734432115112,2024-12-17T10:41:55.112Z,30152,-0.22709909,-0.47356573,-0.7816326
1734432115119,2024-12-17T10:41:55.119Z,30159,-0.23043741,-0.56533235,-0.8087348
1734432115122,2024-12-17T10:41:55.122Z,30162,-0.23043741,-0.56533235,-0.8087348
1734432115129,2024-12-17T10:41:55.129Z,30169,-0.11107007,-0.5735751,-0.8188748
1734432115132,2024-12-17T10:41:55.132Z,30172,-0.11107007,-0.5735751,-0.8188748
1734432115138,2024-12-17T10:41:55.138Z,30178,-0.19881885,-0.5357308,-0.8145553
1734432115141,2024-12-17T10:41:55.141Z,30181,-0.19881885,-0.5357308,-0.8145553
1734432115150,2024-12-17T10:41:55.150Z,30190,-0.21928866,-0.51087815,-0.767814
1734432115152,2024-12-17T10:41:55.152Z,30192,-0.21928866,-0.51087815,-0.767814
1734432115158,2024-12-17T10:41:55.158Z,30198,-0.16326457,-0.52818304,-0.7679011
1734432115161,2024-12-17T10:41:55.161Z,30201,-0.16326457,-0.52818304,-0.7679011
1734432115167,2024-12-17T10:41:55.167Z,30207,-0.10453685,-0.554076,-0.78072524
1734432115169,2024-12-17T10:41:55.169Z,30209,-0.10453685,-0.554076,-0.78072524
1734432115175,2024-12-17T10:41:55.175Z,30215,-0.1138122,-0.47539634,-0.7835726
1734432115177,2024-12-17T10:41:55.177Z,30217,-0.1138122,-0.47539634,-0.7835726
1734432115184,2024-12-17T10:41:55.184Z,30224,-0.14889784,-0.3876923,-0.7772823
1734432115186,2024-12-17T10:41:55.186Z,30226,-0.14889784,-0.3876923,-0.7772823
1734432115193,2024-12-17T10:41:55.193Z,30233,-0.14530589,-0.3942681,-0.7260347
1734432115196,2024-12-17T10:41:55.196Z,30236,-0.14530589,-0.3942681,-0.7260347
1734432115204,2024-12-17T10:41:55.204Z,30244,-0.18629378,-0.47711995,-0.7372972
1734432115206,2024-12-17T10:41:55.206Z,30246,-0.18629378,-0.47711995,-0.7372972
1734432115217,2024-12-17T10:41:55.217Z,30257,-0.33216757,-0.57447875,-0.7959592
1734432115219,2024-12-17T10:41:55.219Z,30259,-0.33216757,-0.57447875,-0.7959592
1734432115226,2024-12-17T10:41:55.226Z,30266,-0.2802989,-0.6326441,-0.7506413
1734432115229,2024-12-17T10:41:55.229Z,30269,-0.2802989,-0.6326441,-0.7506413
1734432115235,2024-12-17T10:41:55.235Z,30275,-0.20860943,-0.552852,-0.7060954
1734432115237,2024-12-17T10:41:55.237Z,30277,-0.20860943,-0.552852,-0.7060954
1734432115243,2024-12-17T10:41:55.243Z,30283,-0.24209341,-0.47524327,-0.66274476
1734432115245,2024-12-17T10:41:55.245Z,30285,-0.24209341,-0.47524327,-0.66274476
1734432115253,2024-12-17T10:41:55.253Z,30293,-0.1985082,-0.49611112,-0.6541316
1734432115255,2024-12-17T10:41:55.255Z,30295,-0.1985082,-0.49611112,-0.6541316
1734432115263,2024-12-17T10:41:55.263Z,30303,-0.15412077,-0.5936784,-0.6831576
1734432115265,2024-12-17T10:41:55.265Z,30305,-0.15412077,-0.5936784,-0.6831576
1734432115272,2024-12-17T10:41:55.272Z,30312,-0.15730329,-0.68210495,-0.57704705
1734432115274,2024-12-17T10:41:55.274Z,30314,-0.15730329,-0.68210495,-0.57704705
1734432115280,2024-12-17T10:41:55.280Z,30320,-0.28908604,-0.7714456,-0.5989299
1734432115282,2024-12-17T10:41:55.282Z,30322,-0.28908604,-0.7714456,-0.5989299
1734432115289,2024-12-17T10:41:55.289Z,30329,-0.24299525,-0.8168026,-0.6881301
1734432115291,2024-12-17T10:41:55.291Z,30331,-0.24299525,-0.8168026,-0.6881301
1734432115298,2024-12-17T10:41:55.298Z,30338,-0.1594425,-0.7512086,-0.6723595
1734432115300,2024-12-17T10:41:55.300Z,30340,-0.1594425,-0.7512086,-0.6723595
1734432115306,2024-12-17T10:41:55.306Z,30346,-0.19562256,-0.7704674,-0.5456997
1734432115308,2024-12-17T10:41:55.308Z,30348,-0.19562256,-0.7704674,-0.5456997
1734432115315,2024-12-17T10:41:55.315Z,30355,-0.12630083,-0.82588506,-0.56698734
1734432115317,2024-12-17T10:41:55.317Z,30357,-0.12630083,-0.82588506,-0.56698734
1734432115324,2024-12-17T10:41:55.324Z,30364,-0.18866944,-0.79054993,-0.68503946
1734432115327,2024-12-17T10:41:55.327Z,30367,-0.18866944,-0.79054993,-0.68503946
1734432115335,2024-12-17T10:41:55.335Z,30375,-0.17890613,-0.7507405,-0.62098265
1734432115337,2024-12-17T10:41:55.337Z,30377,-0.17890613,-0.7507405,-0.62098265
1734432115345,2024-12-17T10:41:55.345Z,30385,-0.16202588,-0.7221805,-0.71368265
1734432115348,2024-12-17T10:41:55.348Z,30388,-0.16202588,-0.7221805,-0.71368265
1734432115356,2024-12-17T10:41:55.356Z,30396,-0.18361825,-0.70891416,-0.7512842
1734432115358,2024-12-17T10:41:55.358Z,30398,-0.18361825,-0.70891416,-0.7512842
1734432115365,2024-12-17T10:41:55.365Z,30405,-0.11629086,-0.72203034,-0.7782414
1734432115367,2024-12-17T10:41:55.367Z,30407,-0.11629086,-0.72203034,-0.7782414
1734432115373,2024-12-17T10:41:55.373Z,30413,-0.17856246,-0.85578746,-0.82429606
1734432115377,2024-12-17T10:41:55.377Z,30417,-0.17856246,-0.85578746,-0.82429606
1734432115385,2024-12-17T10:41:55.385Z,30425,-0.18284641,-0.89717287,-0.73866624
1734432115387,2024-12-17T10:41:55.387Z,30427,-0.18284641,-0.89717287,-0.73866624
1734432115393,2024-12-17T10:41:55.393Z,30433,-0.17475781,-0.86396134,-0.6976321
1734432115395,2024-12-17T10:41:55.395Z,30435,-0.17475781,-0.86396134,-0.6976321
1734432115402,2024-12-17T10:41:55.402Z,30442,-0.21064244,-0.8467102,-0.7055029
1734432115404,2024-12-17T10:41:55.404Z,30444,-0.21064244,-0.8467102,-0.7055029
1734432115411,2024-12-17T10:41:55.411Z,30451,-0.20557116,-0.91363287,-0.7621805
1734432115414,2024-12-17T10:41:55.414Z,30454,-0.20557116,-0.91363287,-0.7621805
1734432115421,2024-12-17T10:41:55.421Z,30461,-0.09671545,-0.89016277,-0.7588062
1734432115423,2024-12-17T10:41:55.423Z,30463,-0.09671545,-0.89016277,-0.7588062
1734432115430,2024-12-17T10:41:55.430Z,30470,-0.055774942,-0.84954697,-0.6372799
1734432115432,2024-12-17T10:41:55.432Z,30472,-0.055774942,-0.84954697,-0.6372799
1734432115439,2024-12-17T10:41:55.439Z,30479,-0.109735064,-0.91121936,-0.68855435
1734432115441,2024-12-17T10:41:55.441Z,30481,-0.109735064,-0.91121936,-0.68855435
1734432115450,2024-12-17T10:41:55.450Z,30490,-0.110752225,-0.9544184,-0.6518656
1734432115452,2024-12-17T10:41:55.452Z,30492,-0.110752225,-0.9544184,-0.6518656
1734432115458,2024-12-17T10:41:55.458Z,30498,-0.113298975,-0.9427976,-0.48762074
1734432115460,2024-12-17T10:41:55.460Z,30500,-0.113298975,-0.9427976,-0.48762074
1734432115466,2024-12-17T10:41:55.466Z,30506,-0.20916681,-0.9404404,-0.5282836
1734432115468,2024-12-17T10:41:55.468Z,30508,-0.20916681,-0.9404404,-0.5282836
