Timestamp (ms),ISO DateTime,Elapsed Time (ms),Acceleration X,Acceleration Y,Acceleration Z
1732203671939,2024-11-21T15:41:11.939Z,75510,0.17004424,-0.04134992,0.13643949
1732203671946,2024-11-21T15:41:11.946Z,75517,0.17004424,-0.04134992,0.13643949
1732203671967,2024-11-21T15:41:11.967Z,75538,0.08420509,-0.0061939014,0.035661563
1732203671974,2024-11-21T15:41:11.974Z,75545,0.08420509,-0.0061939014,0.035661563
1732203671991,2024-11-21T15:41:11.991Z,75562,-0.20193745,-0.016250677,-0.061928306
1732203671996,2024-11-21T15:41:11.996Z,75567,-0.20193745,-0.016250677,-0.061928306
1732203672015,2024-11-21T15:41:12.015Z,75586,-0.31508633,0.008854307,-0.09538964
1732203672020,2024-11-21T15:41:12.020Z,75591,-0.31508633,0.008854307,-0.09538964
1732203672064,2024-11-21T15:41:12.064Z,75635,-0.16877316,0.029728334,-0.0880524
1732203672068,2024-11-21T15:41:12.068Z,75639,-0.16877316,0.029728334,-0.0880524
1732203672111,2024-11-21T15:41:12.111Z,75682,0.069223985,-0.04012713,0.0029055672
1732203672115,2024-11-21T15:41:12.115Z,75686,0.069223985,-0.04012713,0.0029055672
1732203672201,2024-11-21T15:41:12.201Z,75772,0.23641121,-0.09310759,0.022823188
1732203672207,2024-11-21T15:41:12.207Z,75778,0.23641121,-0.09310759,0.022823188
1732203672230,2024-11-21T15:41:12.230Z,75801,0.21900795,-0.083509825,-0.014361251
1732203672237,2024-11-21T15:41:12.237Z,75808,0.21900795,-0.083509825,-0.014361251
1732203672254,2024-11-21T15:41:12.254Z,75825,0.11262007,-0.036007814,-0.06427455
1732203672259,2024-11-21T15:41:12.259Z,75830,0.11262007,-0.036007814,-0.06427455
1732203672277,2024-11-21T15:41:12.277Z,75848,0.023636738,-0.024509342,-0.11108644
1732203672283,2024-11-21T15:41:12.283Z,75854,0.023636738,-0.024509342,-0.11108644
1732203672301,2024-11-21T15:41:12.301Z,75872,-0.017256096,-0.03248278,-0.14519823
1732203672307,2024-11-21T15:41:12.307Z,75878,-0.017256096,-0.03248278,-0.14519823
1732203672320,2024-11-21T15:41:12.320Z,75891,-0.15837008,0.0039051764,-0.033576865
1732203672323,2024-11-21T15:41:12.323Z,75894,-0.15837008,0.0039051764,-0.033576865
1732203672334,2024-11-21T15:41:12.334Z,75905,-0.11626255,0.013357363,-0.08666212
1732203672339,2024-11-21T15:41:12.339Z,75910,-0.11626255,0.013357363,-0.08666212
1732203672351,2024-11-21T15:41:12.351Z,75922,-0.08737097,7.913046E-4,-0.08124102
1732203672356,2024-11-21T15:41:12.356Z,75927,-0.08737097,7.913046E-4,-0.08124102
1732203672380,2024-11-21T15:41:12.380Z,75951,-0.03422067,-0.020630324,-0.116900906
1732203672384,2024-11-21T15:41:12.384Z,75955,-0.03422067,-0.020630324,-0.116900906
1732203672396,2024-11-21T15:41:12.396Z,75967,-0.019958489,0.044674724,-0.18255588
1732203672400,2024-11-21T15:41:12.400Z,75971,-0.019958489,0.044674724,-0.18255588
1732203672431,2024-11-21T15:41:12.431Z,76002,-0.015205239,0.08088112,-0.20406482
1732203672440,2024-11-21T15:41:12.440Z,76011,-0.015205239,0.08088112,-0.20406482
1732203672460,2024-11-21T15:41:12.460Z,76031,0.0017207983,0.08644398,-0.23300418
1732203672463,2024-11-21T15:41:12.463Z,76034,0.0017207983,0.08644398,-0.23300418
1732203672479,2024-11-21T15:41:12.479Z,76050,0.05667925,-0.08891135,-0.3485685
1732203672483,2024-11-21T15:41:12.483Z,76054,0.05667925,-0.08891135,-0.3485685
1732203672498,2024-11-21T15:41:12.498Z,76069,0.07113279,-0.1279212,-0.36338058
1732203672502,2024-11-21T15:41:12.502Z,76073,0.07113279,-0.1279212,-0.36338058
1732203672516,2024-11-21T15:41:12.516Z,76087,0.11385605,-0.14029646,-0.36598223
1732203672522,2024-11-21T15:41:12.522Z,76093,0.11385605,-0.14029646,-0.36598223
1732203672543,2024-11-21T15:41:12.543Z,76114,0.07431099,-0.10674191,-0.08008897
1732203672547,2024-11-21T15:41:12.547Z,76118,0.07431099,-0.10674191,-0.08008897
1732203672563,2024-11-21T15:41:12.563Z,76134,-0.01564086,0.02938787,0.033038527
1732203672571,2024-11-21T15:41:12.571Z,76142,-0.01564086,0.02938787,0.033038527
1732203672594,2024-11-21T15:41:12.594Z,76165,-0.031295627,0.039017048,-0.0011922569
1732203672598,2024-11-21T15:41:12.598Z,76169,-0.031295627,0.039017048,-0.0011922569
1732203672613,2024-11-21T15:41:12.613Z,76184,-0.25219914,0.09249046,-0.1608363
1732203672617,2024-11-21T15:41:12.617Z,76188,-0.25219914,0.09249046,-0.1608363
1732203672630,2024-11-21T15:41:12.630Z,76201,-0.25297028,0.031823438,-0.12042239
1732203672635,2024-11-21T15:41:12.635Z,76206,-0.25297028,0.031823438,-0.12042239
1732203672649,2024-11-21T15:41:12.649Z,76220,-0.14976998,-0.082293645,-0.034847356
1732203672654,2024-11-21T15:41:12.654Z,76225,-0.14976998,-0.082293645,-0.034847356
1732203672665,2024-11-21T15:41:12.665Z,76236,-0.045879915,0.0822211,-0.13940257
1732203672669,2024-11-21T15:41:12.669Z,76240,-0.045879915,0.0822211,-0.13940257
1732203672681,2024-11-21T15:41:12.681Z,76252,-0.24746594,0.22072469,-0.27605334
1732203672685,2024-11-21T15:41:12.685Z,76256,-0.24746594,0.22072469,-0.27605334
1732203672701,2024-11-21T15:41:12.701Z,76272,-0.40058616,0.2631329,-0.3040581
1732203672709,2024-11-21T15:41:12.709Z,76280,-0.40058616,0.2631329,-0.3040581
1732203672740,2024-11-21T15:41:12.740Z,76311,-0.29897848,0.07823326,-0.15968372
1732203672747,2024-11-21T15:41:12.747Z,76318,-0.29897848,0.07823326,-0.15968372
1732203672764,2024-11-21T15:41:12.764Z,76335,-0.14587972,0.01237341,-0.044366498
1732203672768,2024-11-21T15:41:12.768Z,76339,-0.14587972,0.01237341,-0.044366498
1732203672781,2024-11-21T15:41:12.781Z,76352,-0.14199366,0.015760938,0.08692149
1732203672784,2024-11-21T15:41:12.784Z,76355,-0.14199366,0.015760938,0.08692149
1732203672795,2024-11-21T15:41:12.795Z,76366,-0.09894014,0.073724754,0.06198477
1732203672798,2024-11-21T15:41:12.798Z,76369,-0.09894014,0.073724754,0.06198477
1732203672810,2024-11-21T15:41:12.810Z,76381,-0.09464538,0.07149049,0.09295043
1732203672815,2024-11-21T15:41:12.815Z,76386,-0.09464538,0.07149049,0.09295043
1732203672826,2024-11-21T15:41:12.826Z,76397,-0.16374342,-0.02208865,0.03213828
1732203672830,2024-11-21T15:41:12.830Z,76401,-0.16374342,-0.02208865,0.03213828
1732203672842,2024-11-21T15:41:12.842Z,76413,-0.113222964,-0.053905576,-0.03672222
1732203672846,2024-11-21T15:41:12.846Z,76417,-0.113222964,-0.053905576,-0.03672222
1732203672857,2024-11-21T15:41:12.857Z,76428,-0.077982605,-0.10492017,-0.05808392
1732203672861,2024-11-21T15:41:12.861Z,76432,-0.077982605,-0.10492017,-0.05808392
1732203672873,2024-11-21T15:41:12.873Z,76444,0.042591825,0.05627239,-0.20544285
1732203672877,2024-11-21T15:41:12.877Z,76448,0.042591825,0.05627239,-0.20544285
1732203672889,2024-11-21T15:41:12.889Z,76460,0.016817946,-0.07179682,-0.11607207
1732203672892,2024-11-21T15:41:12.892Z,76463,0.016817946,-0.07179682,-0.11607207
1732203672903,2024-11-21T15:41:12.903Z,76474,0.1286613,-0.252669,0.027488671
1732203672906,2024-11-21T15:41:12.906Z,76477,0.1286613,-0.252669,0.027488671
1732203672919,2024-11-21T15:41:12.919Z,76490,0.124078654,-0.18387054,0.050976668
1732203672923,2024-11-21T15:41:12.923Z,76494,0.124078654,-0.18387054,0.050976668
1732203672934,2024-11-21T15:41:12.934Z,76505,0.09766702,-0.08738816,0.09094961
1732203672938,2024-11-21T15:41:12.938Z,76509,0.09766702,-0.08738816,0.09094961
1732203672966,2024-11-21T15:41:12.966Z,76537,0.0063423743,-0.0710131,0.12588152
1732203672969,2024-11-21T15:41:12.969Z,76540,0.0063423743,-0.0710131,0.12588152
1732203672979,2024-11-21T15:41:12.979Z,76550,-0.005489439,-0.03919744,0.1599589
1732203672983,2024-11-21T15:41:12.983Z,76554,-0.005489439,-0.03919744,0.1599589
1732203672993,2024-11-21T15:41:12.993Z,76564,0.030022338,-0.023638196,0.19367439
1732203672996,2024-11-21T15:41:12.996Z,76567,0.030022338,-0.023638196,0.19367439
1732203673011,2024-11-21T15:41:13.011Z,76582,0.06521925,-0.10363387,0.054608483
1732203673014,2024-11-21T15:41:13.014Z,76585,0.06521925,-0.10363387,0.054608483
1732203673027,2024-11-21T15:41:13.027Z,76598,0.061170004,-0.0767159,-0.0038975913
1732203673031,2024-11-21T15:41:13.031Z,76602,0.061170004,-0.0767159,-0.0038975913
1732203673152,2024-11-21T15:41:13.152Z,76723,0.0628175,-0.006751617,-0.06300208
1732203673155,2024-11-21T15:41:13.155Z,76726,0.0628175,-0.006751617,-0.06300208
1732203673170,2024-11-21T15:41:13.170Z,76741,0.0988966,0.07492927,-0.1597989
1732203673176,2024-11-21T15:41:13.176Z,76747,0.0988966,0.07492927,-0.1597989
1732203673191,2024-11-21T15:41:13.191Z,76762,-0.11308359,0.05174483,-0.15025815
1732203673196,2024-11-21T15:41:13.196Z,76767,-0.11308359,0.05174483,-0.15025815
1732203673210,2024-11-21T15:41:13.210Z,76781,-0.08624901,0.07284087,-0.123577
1732203673214,2024-11-21T15:41:13.214Z,76785,-0.08624901,0.07284087,-0.123577
1732203673226,2024-11-21T15:41:13.226Z,76797,-0.12183753,0.06383602,-0.076817416
1732203673230,2024-11-21T15:41:13.230Z,76801,-0.12183753,0.06383602,-0.076817416
1732203673242,2024-11-21T15:41:13.242Z,76813,-0.23884408,0.17554967,-0.07852448
1732203673245,2024-11-21T15:41:13.245Z,76816,-0.23884408,0.17554967,-0.07852448
1732203673256,2024-11-21T15:41:13.256Z,76827,-0.3260343,0.18133767,-0.05604032
1732203673259,2024-11-21T15:41:13.259Z,76830,-0.3260343,0.18133767,-0.05604032
1732203673269,2024-11-21T15:41:13.269Z,76840,-0.0024543134,0.029979235,-0.18777932
1732203673272,2024-11-21T15:41:13.272Z,76843,-0.0024543134,0.029979235,-0.18777932
1732203673370,2024-11-21T15:41:13.370Z,76941,-0.12265943,0.084411696,-0.23641329
1732203673374,2024-11-21T15:41:13.374Z,76945,-0.12265943,0.084411696,-0.23641329
1732203673389,2024-11-21T15:41:13.389Z,76960,-0.08691326,-0.1473652,-0.33477765
1732203673394,2024-11-21T15:41:13.394Z,76965,-0.08691326,-0.1473652,-0.33477765
1732203673414,2024-11-21T15:41:13.414Z,76985,0.00776224,0.04992902,-0.29974625
1732203673417,2024-11-21T15:41:13.417Z,76988,0.00776224,0.04992902,-0.29974625
1732203673428,2024-11-21T15:41:13.428Z,76999,-0.009473252,0.29154763,-0.25385743
1732203673432,2024-11-21T15:41:13.432Z,77003,-0.009473252,0.29154763,-0.25385743
1732203673444,2024-11-21T15:41:13.444Z,77015,-0.04823341,0.13790718,-0.16899304
1732203673448,2024-11-21T15:41:13.448Z,77019,-0.04823341,0.13790718,-0.16899304
1732203673509,2024-11-21T15:41:13.509Z,77080,-0.16399634,0.050602555,-0.25314665
1732203673512,2024-11-21T15:41:13.512Z,77083,-0.16399634,0.050602555,-0.25314665
1732203673525,2024-11-21T15:41:13.525Z,77096,-0.1636133,0.14702201,-0.2951067
1732203673529,2024-11-21T15:41:13.529Z,77100,-0.1636133,0.14702201,-0.2951067
1732203673551,2024-11-21T15:41:13.551Z,77122,0.07284327,0.14898933,-0.11389001
1732203673556,2024-11-21T15:41:13.556Z,77127,0.07284327,0.14898933,-0.11389001
1732203673568,2024-11-21T15:41:13.568Z,77139,-0.06651433,-0.27724448,-0.14109549
1732203673573,2024-11-21T15:41:13.573Z,77144,-0.06651433,-0.27724448,-0.14109549
1732203673584,2024-11-21T15:41:13.584Z,77155,-0.02139259,-0.19066007,-0.14967044
1732203673588,2024-11-21T15:41:13.588Z,77159,-0.02139259,-0.19066007,-0.14967044
1732203673641,2024-11-21T15:41:13.641Z,77212,0.018074643,0.066551276,-0.19093022
1732203673645,2024-11-21T15:41:13.645Z,77216,0.018074643,0.066551276,-0.19093022
1732203673658,2024-11-21T15:41:13.658Z,77229,-0.33197516,0.16424799,-0.17959544
1732203673661,2024-11-21T15:41:13.661Z,77232,-0.33197516,0.16424799,-0.17959544
1732203673672,2024-11-21T15:41:13.672Z,77243,-0.27658933,0.09501316,-0.17040302
1732203673676,2024-11-21T15:41:13.676Z,77247,-0.27658933,0.09501316,-0.17040302
1732203673776,2024-11-21T15:41:13.776Z,77347,-0.1554906,0.037484717,-0.21167491
1732203673780,2024-11-21T15:41:13.780Z,77351,-0.1554906,0.037484717,-0.21167491
1732203673794,2024-11-21T15:41:13.794Z,77365,-0.08180025,0.13587694,-0.19352217
1732203673798,2024-11-21T15:41:13.798Z,77369,-0.08180025,0.13587694,-0.19352217
1732203673811,2024-11-21T15:41:13.811Z,77382,-0.06100353,0.08728916,-0.22327438
1732203673815,2024-11-21T15:41:13.815Z,77386,-0.06100353,0.08728916,-0.22327438
1732203673828,2024-11-21T15:41:13.828Z,77399,-0.012471582,0.0755075,-0.16625163
1732203673832,2024-11-21T15:41:13.832Z,77403,-0.012471582,0.0755075,-0.16625163
1732203673869,2024-11-21T15:41:13.869Z,77440,-0.013797518,0.27283013,0.014283149
1732203673874,2024-11-21T15:41:13.874Z,77445,-0.013797518,0.27283013,0.014283149
1732203673887,2024-11-21T15:41:13.887Z,77458,-0.11313926,0.24871415,-0.009952124
1732203673891,2024-11-21T15:41:13.891Z,77462,-0.11313926,0.24871415,-0.009952124
1732203673901,2024-11-21T15:41:13.901Z,77472,-0.20704451,0.02579875,-0.0306217
1732203673904,2024-11-21T15:41:13.904Z,77475,-0.20704451,0.02579875,-0.0306217
1732203673963,2024-11-21T15:41:13.963Z,77534,-0.24187605,0.026518479,-0.06358972
1732203673970,2024-11-21T15:41:13.970Z,77541,-0.24187605,0.026518479,-0.06358972
1732203673987,2024-11-21T15:41:13.987Z,77558,-0.24389832,0.27317417,-0.060081206
1732203673992,2024-11-21T15:41:13.992Z,77563,-0.24389832,0.27317417,-0.060081206
1732203674006,2024-11-21T15:41:14.006Z,77577,-0.12169088,0.45176932,0.037637137
1732203674011,2024-11-21T15:41:14.011Z,77582,-0.12169088,0.45176932,0.037637137
1732203674024,2024-11-21T15:41:14.024Z,77595,0.31503484,-0.19683589,0.20252205
1732203674029,2024-11-21T15:41:14.029Z,77600,0.31503484,-0.19683589,0.20252205
1732203674041,2024-11-21T15:41:14.041Z,77612,0.5006425,0.03840458,-0.040605213
1732203674045,2024-11-21T15:41:14.045Z,77616,0.5006425,0.03840458,-0.040605213
1732203674055,2024-11-21T15:41:14.055Z,77626,0.47136027,0.15274349,-0.08094084
1732203674058,2024-11-21T15:41:14.058Z,77629,0.47136027,0.15274349,-0.08094084
1732203674068,2024-11-21T15:41:14.068Z,77639,-0.42313215,-0.16211797,-0.4710809
1732203674071,2024-11-21T15:41:14.071Z,77642,-0.42313215,-0.16211797,-0.4710809
1732203674084,2024-11-21T15:41:14.084Z,77655,-0.39082187,0.13598226,-0.26862803
1732203674088,2024-11-21T15:41:14.088Z,77659,-0.39082187,0.13598226,-0.26862803
1732203674097,2024-11-21T15:41:14.097Z,77668,-0.2522525,0.29527748,-0.21100366
1732203674100,2024-11-21T15:41:14.100Z,77671,-0.2522525,0.29527748,-0.21100366
1732203674109,2024-11-21T15:41:14.109Z,77680,0.4038572,0.05057173,-0.17747976
1732203674112,2024-11-21T15:41:14.112Z,77683,0.4038572,0.05057173,-0.17747976
1732203674122,2024-11-21T15:41:14.122Z,77693,0.3132123,0.1437877,-0.022702066
1732203674126,2024-11-21T15:41:14.126Z,77697,0.3132123,0.1437877,-0.022702066
1732203674182,2024-11-21T15:41:14.182Z,77753,0.122413725,0.23045471,-0.14108704
1732203674185,2024-11-21T15:41:14.185Z,77756,0.122413725,0.23045471,-0.14108704
1732203674195,2024-11-21T15:41:14.195Z,77766,-0.15025325,0.064714655,-0.39296567
1732203674198,2024-11-21T15:41:14.198Z,77769,-0.15025325,0.064714655,-0.39296567
1732203674208,2024-11-21T15:41:14.208Z,77779,-0.117602974,-0.03718918,-0.40004584
1732203674212,2024-11-21T15:41:14.212Z,77783,-0.117602974,-0.03718918,-0.40004584
1732203674222,2024-11-21T15:41:14.222Z,77793,-0.028792277,-0.12792762,-0.26067775
1732203674225,2024-11-21T15:41:14.225Z,77796,-0.028792277,-0.12792762,-0.26067775
1732203674367,2024-11-21T15:41:14.367Z,77938,-0.54726106,-0.29572815,-0.29307166
1732203674375,2024-11-21T15:41:14.375Z,77946,-0.54726106,-0.29572815,-0.29307166
1732203674396,2024-11-21T15:41:14.396Z,77967,-0.39769378,-0.23852375,0.012289972
1732203674401,2024-11-21T15:41:14.401Z,77972,-0.39769378,-0.23852375,0.012289972
1732203674592,2024-11-21T15:41:14.592Z,78163,-0.117590964,-0.13269529,0.08691116
1732203674600,2024-11-21T15:41:14.600Z,78171,-0.117590964,-0.13269529,0.08691116
1732203674626,2024-11-21T15:41:14.626Z,78197,-0.08909366,-0.43119842,0.25505653
1732203674631,2024-11-21T15:41:14.631Z,78202,-0.08909366,-0.43119842,0.25505653
1732203674646,2024-11-21T15:41:14.646Z,78217,0.36667794,-0.23601013,0.2886992
1732203674650,2024-11-21T15:41:14.650Z,78221,0.36667794,-0.23601013,0.2886992
1732203674663,2024-11-21T15:41:14.663Z,78234,0.7055521,-0.11686778,0.3678838
1732203674667,2024-11-21T15:41:14.667Z,78238,0.7055521,-0.11686778,0.3678838
1732203674683,2024-11-21T15:41:14.683Z,78254,0.17356004,-0.19268191,0.03321131
1732203674687,2024-11-21T15:41:14.687Z,78258,0.17356004,-0.19268191,0.03321131
1732203674700,2024-11-21T15:41:14.700Z,78271,0.024352433,-0.20705949,-0.14470093
1732203674703,2024-11-21T15:41:14.703Z,78274,0.024352433,-0.20705949,-0.14470093
1732203674715,2024-11-21T15:41:14.715Z,78286,0.015456162,0.17017056,0.2587806
1732203674718,2024-11-21T15:41:14.718Z,78289,0.015456162,0.17017056,0.2587806
1732203674729,2024-11-21T15:41:14.729Z,78300,0.08529471,0.10023181,0.06769764
1732203674732,2024-11-21T15:41:14.732Z,78303,0.08529471,0.10023181,0.06769764
1732203674744,2024-11-21T15:41:14.744Z,78315,0.18014176,-0.09131278,-0.037824936
1732203674748,2024-11-21T15:41:14.748Z,78319,0.18014176,-0.09131278,-0.037824936
1732203674767,2024-11-21T15:41:14.767Z,78338,-0.021101393,-0.33968082,3.0774038E-4
1732203674770,2024-11-21T15:41:14.770Z,78341,-0.021101393,-0.33968082,3.0774038E-4
1732203674780,2024-11-21T15:41:14.780Z,78351,-0.062057123,-0.16561048,0.11046387
1732203674783,2024-11-21T15:41:14.783Z,78354,-0.062057123,-0.16561048,0.11046387
1732203674794,2024-11-21T15:41:14.794Z,78365,-0.020985425,0.13298912,0.11824068
1732203674797,2024-11-21T15:41:14.797Z,78368,-0.020985425,0.13298912,0.11824068
1732203674906,2024-11-21T15:41:14.906Z,78477,0.0420185,-0.031793486,-0.12900276
1732203674916,2024-11-21T15:41:14.916Z,78487,0.0420185,-0.031793486,-0.12900276
1732203674942,2024-11-21T15:41:14.942Z,78513,-0.054000586,-0.23838128,-0.17501742
1732203674949,2024-11-21T15:41:14.949Z,78520,-0.054000586,-0.23838128,-0.17501742
1732203674964,2024-11-21T15:41:14.964Z,78535,-0.06442199,-0.2150167,-0.083052345
1732203674969,2024-11-21T15:41:14.969Z,78540,-0.06442199,-0.2150167,-0.083052345
1732203674992,2024-11-21T15:41:14.992Z,78563,0.0049855984,0.06593599,0.13357331
1732203674996,2024-11-21T15:41:14.996Z,78567,0.0049855984,0.06593599,0.13357331
1732203675010,2024-11-21T15:41:15.010Z,78581,-0.1056498,-0.43457627,-0.19503544
1732203675014,2024-11-21T15:41:15.014Z,78585,-0.1056498,-0.43457627,-0.19503544
1732203675026,2024-11-21T15:41:15.026Z,78597,-0.06973001,-0.2908789,-0.02945711
1732203675029,2024-11-21T15:41:15.029Z,78600,-0.06973001,-0.2908789,-0.02945711
1732203675045,2024-11-21T15:41:15.045Z,78616,0.019685466,0.020724364,0.13839854
1732203675053,2024-11-21T15:41:15.053Z,78624,0.019685466,0.020724364,0.13839854
1732203675077,2024-11-21T15:41:15.077Z,78648,-0.0055364585,-0.56203556,-0.108485356
1732203675084,2024-11-21T15:41:15.084Z,78655,-0.0055364585,-0.56203556,-0.108485356
1732203675098,2024-11-21T15:41:15.098Z,78669,-0.058828983,-0.26914725,-0.26993936
1732203675101,2024-11-21T15:41:15.101Z,78672,-0.058828983,-0.26914725,-0.26993936
1732203675220,2024-11-21T15:41:15.220Z,78791,-0.105611846,0.25564274,-0.20518269
1732203675228,2024-11-21T15:41:15.228Z,78799,-0.105611846,0.25564274,-0.20518269
1732203675254,2024-11-21T15:41:15.254Z,78825,0.014253355,0.23272647,-0.1855976
1732203675264,2024-11-21T15:41:15.264Z,78835,0.014253355,0.23272647,-0.1855976
1732203675287,2024-11-21T15:41:15.287Z,78858,0.13040185,0.5119456,-0.058385946
1732203675300,2024-11-21T15:41:15.300Z,78871,0.13040185,0.5119456,-0.058385946
1732203675328,2024-11-21T15:41:15.328Z,78899,0.08490124,0.23124334,-0.028186083
1732203675337,2024-11-21T15:41:15.337Z,78908,0.08490124,0.23124334,-0.028186083
1732203675368,2024-11-21T15:41:15.368Z,78939,-0.037335098,-0.23973827,-0.048810452
1732203675376,2024-11-21T15:41:15.376Z,78947,-0.037335098,-0.23973827,-0.048810452
1732203675394,2024-11-21T15:41:15.394Z,78965,-0.12603873,0.06813068,-0.30786103
1732203675398,2024-11-21T15:41:15.398Z,78969,-0.12603873,0.06813068,-0.30786103
1732203675411,2024-11-21T15:41:15.411Z,78982,9.921698E-5,0.40592802,-0.258777
1732203675416,2024-11-21T15:41:15.416Z,78987,9.921698E-5,0.40592802,-0.258777
1732203675430,2024-11-21T15:41:15.430Z,79001,0.15051663,0.45409608,-0.16591282
1732203675436,2024-11-21T15:41:15.436Z,79007,0.15051663,0.45409608,-0.16591282
1732203675452,2024-11-21T15:41:15.452Z,79023,-0.1381794,-0.0041446,-0.16988705
1732203675461,2024-11-21T15:41:15.461Z,79032,-0.1381794,-0.0041446,-0.16988705
1732203675487,2024-11-21T15:41:15.487Z,79058,-0.018526686,0.27655038,-0.14671394
1732203675494,2024-11-21T15:41:15.494Z,79065,-0.018526686,0.27655038,-0.14671394
1732203675516,2024-11-21T15:41:15.516Z,79087,0.2208217,0.21939692,-0.05814656
1732203675519,2024-11-21T15:41:15.519Z,79090,0.2208217,0.21939692,-0.05814656
1732203675532,2024-11-21T15:41:15.532Z,79103,0.094206,-0.3566586,-0.064178616
1732203675536,2024-11-21T15:41:15.536Z,79107,0.094206,-0.3566586,-0.064178616
1732203675549,2024-11-21T15:41:15.549Z,79120,-0.041226942,-0.42181516,-0.15188508
1732203675553,2024-11-21T15:41:15.553Z,79124,-0.041226942,-0.42181516,-0.15188508
1732203675565,2024-11-21T15:41:15.565Z,79136,-0.054444376,-0.16989808,-0.21398754
1732203675568,2024-11-21T15:41:15.568Z,79139,-0.054444376,-0.16989808,-0.21398754
1732203675579,2024-11-21T15:41:15.579Z,79150,-0.16389723,0.27932757,-0.04458635
1732203675582,2024-11-21T15:41:15.582Z,79153,-0.16389723,0.27932757,-0.04458635
1732203675592,2024-11-21T15:41:15.592Z,79163,-0.063618995,-0.4840855,0.019415883
1732203675595,2024-11-21T15:41:15.595Z,79166,-0.063618995,-0.4840855,0.019415883
1732203675605,2024-11-21T15:41:15.605Z,79176,-0.23532432,-0.10648917,-0.029734097
1732203675607,2024-11-21T15:41:15.607Z,79178,-0.23532432,-0.10648917,-0.029734097
1732203675622,2024-11-21T15:41:15.622Z,79193,-0.14452413,0.21031874,-0.2044835
1732203675629,2024-11-21T15:41:15.629Z,79200,-0.14452413,0.21031874,-0.2044835
1732203675651,2024-11-21T15:41:15.651Z,79222,-0.10859191,0.278279,-0.14781326
1732203675656,2024-11-21T15:41:15.656Z,79227,-0.10859191,0.278279,-0.14781326
1732203675671,2024-11-21T15:41:15.671Z,79242,-0.031252317,0.42693445,-0.120431885
1732203675676,2024-11-21T15:41:15.676Z,79247,-0.031252317,0.42693445,-0.120431885
1732203675692,2024-11-21T15:41:15.692Z,79263,-0.3583977,0.20882201,-0.21072428
1732203675699,2024-11-21T15:41:15.699Z,79270,-0.3583977,0.20882201,-0.21072428
1732203675718,2024-11-21T15:41:15.718Z,79289,-0.37589267,0.18503843,-0.23161516
1732203675721,2024-11-21T15:41:15.721Z,79292,-0.37589267,0.18503843,-0.23161516
1732203675755,2024-11-21T15:41:15.755Z,79326,-0.27792537,0.047601786,-0.11186786
1732203675759,2024-11-21T15:41:15.759Z,79330,-0.27792537,0.047601786,-0.11186786
1732203675773,2024-11-21T15:41:15.773Z,79344,-0.017317327,0.08027157,0.02611444
1732203675780,2024-11-21T15:41:15.780Z,79351,-0.017317327,0.08027157,0.02611444
1732203675793,2024-11-21T15:41:15.793Z,79364,0.13201892,-0.014856242,0.11668477
1732203675797,2024-11-21T15:41:15.797Z,79368,0.13201892,-0.014856242,0.11668477
1732203675809,2024-11-21T15:41:15.809Z,79380,0.123947136,-0.008201484,-0.025083236
1732203675812,2024-11-21T15:41:15.812Z,79383,0.123947136,-0.008201484,-0.025083236
1732203675823,2024-11-21T15:41:15.823Z,79394,-0.012488746,0.094533436,-0.08114018
1732203675826,2024-11-21T15:41:15.826Z,79397,-0.012488746,0.094533436,-0.08114018
1732203675837,2024-11-21T15:41:15.837Z,79408,0.044884134,0.06840327,-0.077945195
1732203675840,2024-11-21T15:41:15.840Z,79411,0.044884134,0.06840327,-0.077945195
1732203675851,2024-11-21T15:41:15.851Z,79422,-0.008937502,0.12489592,0.03509061
1732203675855,2024-11-21T15:41:15.855Z,79426,-0.008937502,0.12489592,0.03509061
1732203675891,2024-11-21T15:41:15.891Z,79462,-0.1254926,-0.09686067,-0.028042521
1732203675894,2024-11-21T15:41:15.894Z,79465,-0.1254926,-0.09686067,-0.028042521
1732203675905,2024-11-21T15:41:15.905Z,79476,-0.11968541,-0.04052273,-0.080939494
1732203675908,2024-11-21T15:41:15.908Z,79479,-0.11968541,-0.04052273,-0.080939494
1732203675924,2024-11-21T15:41:15.924Z,79495,-0.05309442,0.059750356,-0.06794226
1732203675935,2024-11-21T15:41:15.935Z,79506,-0.05309442,0.059750356,-0.06794226
1732203675955,2024-11-21T15:41:15.955Z,79526,-0.13023874,0.33400798,-0.1614209
1732203675962,2024-11-21T15:41:15.962Z,79533,-0.13023874,0.33400798,-0.1614209
1732203675975,2024-11-21T15:41:15.975Z,79546,-0.04691631,0.28022966,-0.2083578
1732203675979,2024-11-21T15:41:15.979Z,79550,-0.04691631,0.28022966,-0.2083578
1732203675990,2024-11-21T15:41:15.990Z,79561,0.069434,0.34458718,-0.24938263
1732203675994,2024-11-21T15:41:15.994Z,79565,0.069434,0.34458718,-0.24938263
1732203676005,2024-11-21T15:41:16.005Z,79576,0.007010843,-0.05343334,-0.28327948
1732203676008,2024-11-21T15:41:16.008Z,79579,0.007010843,-0.05343334,-0.28327948
1732203676017,2024-11-21T15:41:16.017Z,79588,-0.24801615,-0.13064277,-0.2142347
1732203676020,2024-11-21T15:41:16.020Z,79591,-0.24801615,-0.13064277,-0.2142347
1732203676029,2024-11-21T15:41:16.029Z,79600,-0.2479932,0.00818923,-0.1367897
1732203676032,2024-11-21T15:41:16.032Z,79603,-0.2479932,0.00818923,-0.1367897
1732203676070,2024-11-21T15:41:16.070Z,79641,-0.124089204,0.09118403,-0.044959273
1732203676072,2024-11-21T15:41:16.072Z,79643,-0.124089204,0.09118403,-0.044959273
1732203676084,2024-11-21T15:41:16.084Z,79655,-0.1342654,0.02372465,-0.04576548
1732203676088,2024-11-21T15:41:16.088Z,79659,-0.1342654,0.02372465,-0.04576548
1732203676118,2024-11-21T15:41:16.118Z,79689,-0.070415914,-0.022364348,-0.019872935
1732203676125,2024-11-21T15:41:16.125Z,79696,-0.070415914,-0.022364348,-0.019872935
1732203676151,2024-11-21T15:41:16.151Z,79722,0.07922383,-0.103307806,0.05750328
1732203676156,2024-11-21T15:41:16.156Z,79727,0.07922383,-0.103307806,0.05750328
1732203676170,2024-11-21T15:41:16.170Z,79741,0.11408402,-0.039196663,0.030465327
1732203676175,2024-11-21T15:41:16.175Z,79746,0.11408402,-0.039196663,0.030465327
1732203676205,2024-11-21T15:41:16.205Z,79776,0.046673164,0.03534225,0.027746694
1732203676208,2024-11-21T15:41:16.208Z,79779,0.046673164,0.03534225,0.027746694
1732203676223,2024-11-21T15:41:16.223Z,79794,-0.007022695,0.08158889,-0.05760648
1732203676229,2024-11-21T15:41:16.229Z,79800,-0.007022695,0.08158889,-0.05760648
1732203676242,2024-11-21T15:41:16.242Z,79813,0.029188901,0.07149632,-0.04043217
1732203676246,2024-11-21T15:41:16.246Z,79817,0.029188901,0.07149632,-0.04043217
1732203676258,2024-11-21T15:41:16.258Z,79829,-0.0033052796,0.07858996,-0.11262438
1732203676261,2024-11-21T15:41:16.261Z,79832,-0.0033052796,0.07858996,-0.11262438
1732203676273,2024-11-21T15:41:16.273Z,79844,-0.14739233,0.114470966,-0.2695778
1732203676276,2024-11-21T15:41:16.276Z,79847,-0.14739233,0.114470966,-0.2695778
1732203676286,2024-11-21T15:41:16.286Z,79857,-0.07799524,0.11989982,-0.17860354
1732203676288,2024-11-21T15:41:16.288Z,79859,-0.07799524,0.11989982,-0.17860354
1732203676431,2024-11-21T15:41:16.431Z,80002,0.010526725,0.055635806,-0.08866647
1732203676435,2024-11-21T15:41:16.435Z,80006,0.010526725,0.055635806,-0.08866647
1732203676447,2024-11-21T15:41:16.447Z,80018,-0.12705077,0.15635842,-0.06349313
1732203676451,2024-11-21T15:41:16.451Z,80022,-0.12705077,0.15635842,-0.06349313
1732203676463,2024-11-21T15:41:16.463Z,80034,-0.13124382,0.10240136,-0.073153295
1732203676466,2024-11-21T15:41:16.466Z,80037,-0.13124382,0.10240136,-0.073153295
1732203676479,2024-11-21T15:41:16.479Z,80050,-0.14772953,0.026175875,-0.07717019
1732203676482,2024-11-21T15:41:16.482Z,80053,-0.14772953,0.026175875,-0.07717019
1732203676492,2024-11-21T15:41:16.492Z,80063,-0.13369755,0.12022399,-0.1575484
1732203676495,2024-11-21T15:41:16.495Z,80066,-0.13369755,0.12022399,-0.1575484
1732203676504,2024-11-21T15:41:16.504Z,80075,-0.13980049,0.1137347,-0.19961007
1732203676508,2024-11-21T15:41:16.508Z,80079,-0.13980049,0.1137347,-0.19961007
1732203676519,2024-11-21T15:41:16.519Z,80090,-0.17805356,0.12307112,-0.22983247
1732203676522,2024-11-21T15:41:16.522Z,80093,-0.17805356,0.12307112,-0.22983247
1732203676536,2024-11-21T15:41:16.536Z,80107,-0.14548768,-0.07042854,-0.036610845
1732203676539,2024-11-21T15:41:16.539Z,80110,-0.14548768,-0.07042854,-0.036610845
1732203676549,2024-11-21T15:41:16.549Z,80120,-0.3273552,0.029680392,-0.10384394
1732203676552,2024-11-21T15:41:16.552Z,80123,-0.3273552,0.029680392,-0.10384394
1732203676566,2024-11-21T15:41:16.566Z,80137,-0.418502,0.15934227,-0.18075827
1732203676573,2024-11-21T15:41:16.573Z,80144,-0.418502,0.15934227,-0.18075827
1732203676591,2024-11-21T15:41:16.591Z,80162,0.104668885,0.19455723,-0.03767942
1732203676593,2024-11-21T15:41:16.593Z,80164,0.104668885,0.19455723,-0.03767942
1732203676603,2024-11-21T15:41:16.603Z,80174,0.16421917,0.11165574,-0.027463643
1732203676606,2024-11-21T15:41:16.606Z,80177,0.16421917,0.11165574,-0.027463643
1732203676616,2024-11-21T15:41:16.616Z,80187,0.08915143,0.033937994,-0.098862484
1732203676619,2024-11-21T15:41:16.619Z,80190,0.08915143,0.033937994,-0.098862484
1732203676629,2024-11-21T15:41:16.629Z,80200,-0.09853706,0.07253989,-0.013015865
1732203676633,2024-11-21T15:41:16.633Z,80204,-0.09853706,0.07253989,-0.013015865
1732203676645,2024-11-21T15:41:16.645Z,80216,-0.14871947,0.20711084,-0.02527575
1732203676654,2024-11-21T15:41:16.654Z,80225,-0.14871947,0.20711084,-0.02527575
1732203676674,2024-11-21T15:41:16.674Z,80245,-0.1387712,0.2707341,-0.0034807874
1732203676681,2024-11-21T15:41:16.681Z,80252,-0.1387712,0.2707341,-0.0034807874
1732203676705,2024-11-21T15:41:16.705Z,80276,-0.17227012,-0.01211726,0.1042539
1732203676711,2024-11-21T15:41:16.711Z,80282,-0.17227012,-0.01211726,0.1042539
1732203676730,2024-11-21T15:41:16.730Z,80301,-0.13141552,-0.11571797,0.1904732
1732203676735,2024-11-21T15:41:16.735Z,80306,-0.13141552,-0.11571797,0.1904732
1732203676748,2024-11-21T15:41:16.748Z,80319,-0.016255466,-0.06489622,0.11981204
1732203676751,2024-11-21T15:41:16.751Z,80322,-0.016255466,-0.06489622,0.11981204
1732203676761,2024-11-21T15:41:16.761Z,80332,-0.09245016,0.12163686,0.20311056
1732203676764,2024-11-21T15:41:16.764Z,80335,-0.09245016,0.12163686,0.20311056
1732203676775,2024-11-21T15:41:16.775Z,80346,-0.05804614,0.026618645,0.16665447
1732203676778,2024-11-21T15:41:16.778Z,80349,-0.05804614,0.026618645,0.16665447
1732203676791,2024-11-21T15:41:16.791Z,80362,-0.013453601,-0.111507826,0.17754863
1732203676798,2024-11-21T15:41:16.798Z,80369,-0.013453601,-0.111507826,0.17754863
1732203676819,2024-11-21T15:41:16.819Z,80390,-1.8041882E-4,-0.27623513,0.04963347
1732203676826,2024-11-21T15:41:16.826Z,80397,-1.8041882E-4,-0.27623513,0.04963347
1732203676842,2024-11-21T15:41:16.842Z,80413,0.21458855,-0.13070618,-0.10910171
1732203676846,2024-11-21T15:41:16.846Z,80417,0.21458855,-0.13070618,-0.10910171
1732203676857,2024-11-21T15:41:16.857Z,80428,0.21689746,0.18775941,-0.10706239
1732203676861,2024-11-21T15:41:16.861Z,80432,0.21689746,0.18775941,-0.10706239
1732203676872,2024-11-21T15:41:16.872Z,80443,-0.1064127,0.15776905,-0.32516432
1732203676875,2024-11-21T15:41:16.875Z,80446,-0.1064127,0.15776905,-0.32516432
1732203676886,2024-11-21T15:41:16.886Z,80457,0.010872842,-0.38022047,-0.25467595
1732203676889,2024-11-21T15:41:16.889Z,80460,0.010872842,-0.38022047,-0.25467595
1732203676899,2024-11-21T15:41:16.899Z,80470,0.11635211,-0.57634526,-0.22197314
1732203676903,2024-11-21T15:41:16.903Z,80474,0.11635211,-0.57634526,-0.22197314
1732203676912,2024-11-21T15:41:16.912Z,80483,-0.039604127,0.50037915,-0.18467027
1732203676915,2024-11-21T15:41:16.915Z,80486,-0.039604127,0.50037915,-0.18467027
1732203676926,2024-11-21T15:41:16.926Z,80497,-0.31009102,0.8189735,-0.2875519
1732203676929,2024-11-21T15:41:16.929Z,80500,-0.31009102,0.8189735,-0.2875519
1732203676939,2024-11-21T15:41:16.939Z,80510,-0.49456555,0.6385814,-0.22058493
1732203676942,2024-11-21T15:41:16.942Z,80513,-0.49456555,0.6385814,-0.22058493
1732203676951,2024-11-21T15:41:16.951Z,80522,-0.35687417,0.44576243,-0.116909966
1732203676954,2024-11-21T15:41:16.954Z,80525,-0.35687417,0.44576243,-0.116909966
1732203676963,2024-11-21T15:41:16.963Z,80534,-0.2843724,0.25490114,-0.058233112
1732203676966,2024-11-21T15:41:16.966Z,80537,-0.2843724,0.25490114,-0.058233112
1732203676975,2024-11-21T15:41:16.975Z,80546,-0.062327202,-0.04128331,-0.015645918
1732203676977,2024-11-21T15:41:16.977Z,80548,-0.062327202,-0.04128331,-0.015645918
1732203677063,2024-11-21T15:41:17.063Z,80634,0.10299003,-0.10349005,-0.072612606
1732203677068,2024-11-21T15:41:17.068Z,80639,0.10299003,-0.10349005,-0.072612606
1732203677081,2024-11-21T15:41:17.081Z,80652,0.13674182,0.0780904,5.827326E-4
1732203677084,2024-11-21T15:41:17.084Z,80655,0.13674182,0.0780904,5.827326E-4
1732203677096,2024-11-21T15:41:17.096Z,80667,0.058293708,0.32019758,-0.059330307
1732203677100,2024-11-21T15:41:17.100Z,80671,0.058293708,0.32019758,-0.059330307
1732203677120,2024-11-21T15:41:17.120Z,80691,0.018206097,0.13473526,-0.22688809
1732203677129,2024-11-21T15:41:17.129Z,80700,0.018206097,0.13473526,-0.22688809
1732203677152,2024-11-21T15:41:17.152Z,80723,0.16173276,-0.13383201,-0.1063227
1732203677159,2024-11-21T15:41:17.159Z,80730,0.16173276,-0.13383201,-0.1063227
1732203677182,2024-11-21T15:41:17.182Z,80753,-0.01617331,0.09026552,-0.21937115
1732203677189,2024-11-21T15:41:17.189Z,80760,-0.01617331,0.09026552,-0.21937115
1732203677208,2024-11-21T15:41:17.208Z,80779,-0.19361229,-0.34813514,-0.007179191
1732203677213,2024-11-21T15:41:17.213Z,80784,-0.19361229,-0.34813514,-0.007179191
1732203677226,2024-11-21T15:41:17.226Z,80797,-0.13465108,-0.3025539,-0.11844047
1732203677230,2024-11-21T15:41:17.230Z,80801,-0.13465108,-0.3025539,-0.11844047
1732203677244,2024-11-21T15:41:17.244Z,80815,-0.07247678,-0.046593715,-0.086003505
1732203677248,2024-11-21T15:41:17.248Z,80819,-0.07247678,-0.046593715,-0.086003505
1732203677260,2024-11-21T15:41:17.260Z,80831,-0.04815301,0.041633204,-0.03354779
1732203677264,2024-11-21T15:41:17.264Z,80835,-0.04815301,0.041633204,-0.03354779
1732203677275,2024-11-21T15:41:17.275Z,80846,0.04260194,-0.07539149,-0.05174693
1732203677280,2024-11-21T15:41:17.280Z,80851,0.04260194,-0.07539149,-0.05174693
1732203677336,2024-11-21T15:41:17.336Z,80907,0.045463514,0.02178942,-0.34033573
1732203677347,2024-11-21T15:41:17.347Z,80918,0.045463514,0.02178942,-0.34033573
1732203677376,2024-11-21T15:41:17.376Z,80947,-0.12410459,0.18819344,-0.27972156
1732203677384,2024-11-21T15:41:17.384Z,80955,-0.12410459,0.18819344,-0.27972156
1732203677404,2024-11-21T15:41:17.404Z,80975,-0.17045707,0.15938677,-0.16831072
1732203677409,2024-11-21T15:41:17.409Z,80980,-0.17045707,0.15938677,-0.16831072
1732203677467,2024-11-21T15:41:17.467Z,81038,0.044688437,0.17860326,-0.22117381
1732203677472,2024-11-21T15:41:17.472Z,81043,0.044688437,0.17860326,-0.22117381
1732203677485,2024-11-21T15:41:17.485Z,81056,-0.016911924,0.5211172,-0.09805052
1732203677490,2024-11-21T15:41:17.490Z,81061,-0.016911924,0.5211172,-0.09805052
1732203677504,2024-11-21T15:41:17.504Z,81075,-0.11748545,0.72425944,0.069662794
1732203677509,2024-11-21T15:41:17.509Z,81080,-0.11748545,0.72425944,0.069662794
1732203677522,2024-11-21T15:41:17.522Z,81093,-0.12863165,-0.28601176,-0.5020488
1732203677526,2024-11-21T15:41:17.526Z,81097,-0.12863165,-0.28601176,-0.5020488
1732203677555,2024-11-21T15:41:17.555Z,81126,-0.17316493,0.1319194,0.025680616
1732203677558,2024-11-21T15:41:17.558Z,81129,-0.17316493,0.1319194,0.025680616
1732203677569,2024-11-21T15:41:17.569Z,81140,-0.12753063,0.11768204,0.09901597
1732203677572,2024-11-21T15:41:17.572Z,81143,-0.12753063,0.11768204,0.09901597
1732203677582,2024-11-21T15:41:17.582Z,81153,-0.17226006,-0.10541186,0.2146872
1732203677585,2024-11-21T15:41:17.585Z,81156,-0.17226006,-0.10541186,0.2146872
1732203677649,2024-11-21T15:41:17.649Z,81220,0.056381308,-0.30764967,0.040872898
1732203677654,2024-11-21T15:41:17.654Z,81225,0.056381308,-0.30764967,0.040872898
1732203677668,2024-11-21T15:41:17.668Z,81239,-0.5785881,-0.39028716,-0.52835965
1732203677672,2024-11-21T15:41:17.672Z,81243,-0.5785881,-0.39028716,-0.52835965
1732203677685,2024-11-21T15:41:17.685Z,81256,-0.45607504,-0.31860864,-0.54935586
1732203677693,2024-11-21T15:41:17.693Z,81264,-0.45607504,-0.31860864,-0.54935586
1732203677706,2024-11-21T15:41:17.706Z,81277,0.21894759,-0.20266998,-0.3852293
1732203677710,2024-11-21T15:41:17.710Z,81281,0.21894759,-0.20266998,-0.3852293
1732203677722,2024-11-21T15:41:17.722Z,81293,0.15497921,-0.32000327,0.40710083
1732203677725,2024-11-21T15:41:17.725Z,81296,0.15497921,-0.32000327,0.40710083
1732203677736,2024-11-21T15:41:17.736Z,81307,0.14544256,0.021991841,0.76082903
1732203677739,2024-11-21T15:41:17.739Z,81310,0.14544256,0.021991841,0.76082903
1732203677751,2024-11-21T15:41:17.751Z,81322,0.36075824,0.05876937,0.68286794
1732203677771,2024-11-21T15:41:17.771Z,81342,0.36075824,0.05876937,0.68286794
1732203677784,2024-11-21T15:41:17.784Z,81355,0.020330364,0.11274791,0.18188517
1732203677789,2024-11-21T15:41:17.789Z,81360,0.020330364,0.11274791,0.18188517
1732203677801,2024-11-21T15:41:17.801Z,81372,0.26422325,0.3650553,0.31728953
1732203677804,2024-11-21T15:41:17.804Z,81375,0.26422325,0.3650553,0.31728953
1732203677872,2024-11-21T15:41:17.872Z,81443,0.33615437,0.35211727,0.59871185
1732203677874,2024-11-21T15:41:17.874Z,81445,0.33615437,0.35211727,0.59871185
1732203677883,2024-11-21T15:41:17.883Z,81454,0.31874985,-0.4535014,0.16243549
1732203677885,2024-11-21T15:41:17.885Z,81456,0.31874985,-0.4535014,0.16243549
1732203677893,2024-11-21T15:41:17.893Z,81464,0.30941066,-0.5465205,-0.1279107
1732203677896,2024-11-21T15:41:17.896Z,81467,0.30941066,-0.5465205,-0.1279107
1732203677905,2024-11-21T15:41:17.905Z,81476,0.48622122,-0.40346584,-0.2939706
1732203677908,2024-11-21T15:41:17.908Z,81479,0.48622122,-0.40346584,-0.2939706
1732203677964,2024-11-21T15:41:17.964Z,81535,0.10761515,-0.23516276,-0.28752232
1732203677971,2024-11-21T15:41:17.971Z,81542,0.10761515,-0.23516276,-0.28752232
1732203677995,2024-11-21T15:41:17.995Z,81566,0.047866296,-0.46395907,-0.37718865
1732203678001,2024-11-21T15:41:18.001Z,81572,0.047866296,-0.46395907,-0.37718865
1732203678019,2024-11-21T15:41:18.019Z,81590,0.050724797,-0.5154301,-0.36744344
1732203678025,2024-11-21T15:41:18.025Z,81596,0.050724797,-0.5154301,-0.36744344
1732203678040,2024-11-21T15:41:18.040Z,81611,-0.16117029,0.6096844,0.2547229
1732203678043,2024-11-21T15:41:18.043Z,81614,-0.16117029,0.6096844,0.2547229
1732203678055,2024-11-21T15:41:18.055Z,81626,-0.31358612,-0.33085003,-0.047156245
1732203678059,2024-11-21T15:41:18.059Z,81630,-0.31358612,-0.33085003,-0.047156245
1732203678074,2024-11-21T15:41:18.074Z,81645,0.33011657,-1.2207998,-0.3269159
1732203678080,2024-11-21T15:41:18.080Z,81651,0.33011657,-1.2207998,-0.3269159
1732203678144,2024-11-21T15:41:18.144Z,81715,0.32107538,0.045749653,0.26687938
1732203678151,2024-11-21T15:41:18.151Z,81722,0.32107538,0.045749653,0.26687938
1732203678174,2024-11-21T15:41:18.174Z,81745,-0.38776878,-0.80067366,-0.39925656
1732203678179,2024-11-21T15:41:18.179Z,81750,-0.38776878,-0.80067366,-0.39925656
1732203678196,2024-11-21T15:41:18.196Z,81767,-0.1905994,-0.4724217,0.07750507
1732203678200,2024-11-21T15:41:18.200Z,81771,-0.1905994,-0.4724217,0.07750507
1732203678214,2024-11-21T15:41:18.214Z,81785,0.073359884,0.13851646,0.4494062
1732203678218,2024-11-21T15:41:18.218Z,81789,0.073359884,0.13851646,0.4494062
1732203678230,2024-11-21T15:41:18.230Z,81801,0.16444364,0.32780552,0.48673046
1732203678234,2024-11-21T15:41:18.234Z,81805,0.16444364,0.32780552,0.48673046
1732203678245,2024-11-21T15:41:18.245Z,81816,-0.016040329,0.11786676,0.10093481
1732203678249,2024-11-21T15:41:18.249Z,81820,-0.016040329,0.11786676,0.10093481
1732203678259,2024-11-21T15:41:18.259Z,81830,0.0023049654,-0.20976809,-0.1290022
1732203678262,2024-11-21T15:41:18.262Z,81833,0.0023049654,-0.20976809,-0.1290022
1732203678277,2024-11-21T15:41:18.277Z,81848,-0.20845526,0.08706544,-0.014157468
1732203678280,2024-11-21T15:41:18.280Z,81851,-0.20845526,0.08706544,-0.014157468
1732203678291,2024-11-21T15:41:18.291Z,81862,-0.24445239,-0.3248998,-0.15540554
1732203678294,2024-11-21T15:41:18.294Z,81865,-0.24445239,-0.3248998,-0.15540554
1732203678321,2024-11-21T15:41:18.321Z,81892,-0.078894734,-0.43784812,-0.11933615
1732203678324,2024-11-21T15:41:18.324Z,81895,-0.078894734,-0.43784812,-0.11933615
1732203678332,2024-11-21T15:41:18.332Z,81903,0.21881115,0.10956428,0.17113283
1732203678336,2024-11-21T15:41:18.336Z,81907,0.21881115,0.10956428,0.17113283
1732203678506,2024-11-21T15:41:18.506Z,82077,0.17874981,0.20472701,0.045847144
1732203678514,2024-11-21T15:41:18.514Z,82085,0.17874981,0.20472701,0.045847144
1732203678538,2024-11-21T15:41:18.538Z,82109,-0.11668223,0.11528921,-0.16849563
1732203678543,2024-11-21T15:41:18.543Z,82114,-0.11668223,0.11528921,-0.16849563
1732203678557,2024-11-21T15:41:18.557Z,82128,-0.2091705,0.11579042,-0.10702057
1732203678561,2024-11-21T15:41:18.561Z,82132,-0.2091705,0.11579042,-0.10702057
1732203678575,2024-11-21T15:41:18.575Z,82146,-0.14782883,-0.05946275,-0.15982506
1732203678579,2024-11-21T15:41:18.579Z,82150,-0.14782883,-0.05946275,-0.15982506
1732203678595,2024-11-21T15:41:18.595Z,82166,0.026958233,-0.22513619,0.027844816
1732203678598,2024-11-21T15:41:18.598Z,82169,0.026958233,-0.22513619,0.027844816
1732203678610,2024-11-21T15:41:18.610Z,82181,0.26949295,-0.2942585,0.19664912
1732203678613,2024-11-21T15:41:18.613Z,82184,0.26949295,-0.2942585,0.19664912
1732203678625,2024-11-21T15:41:18.625Z,82196,0.1859243,-0.24602433,0.13415402
1732203678628,2024-11-21T15:41:18.628Z,82199,0.1859243,-0.24602433,0.13415402
1732203678683,2024-11-21T15:41:18.683Z,82254,-0.41892624,-0.29854125,-0.36186188
1732203678688,2024-11-21T15:41:18.688Z,82259,-0.41892624,-0.29854125,-0.36186188
1732203678701,2024-11-21T15:41:18.701Z,82272,-0.24226676,-0.47747695,-0.16674307
1732203678705,2024-11-21T15:41:18.705Z,82276,-0.24226676,-0.47747695,-0.16674307
1732203678717,2024-11-21T15:41:18.717Z,82288,0.23111156,-0.279763,0.17460886
1732203678721,2024-11-21T15:41:18.721Z,82292,0.23111156,-0.279763,0.17460886
1732203678775,2024-11-21T15:41:18.775Z,82346,0.24909738,0.31478152,0.21660489
1732203678782,2024-11-21T15:41:18.782Z,82353,0.24909738,0.31478152,0.21660489
1732203678809,2024-11-21T15:41:18.809Z,82380,-0.014252212,-0.17623581,0.12302595
1732203678816,2024-11-21T15:41:18.816Z,82387,-0.014252212,-0.17623581,0.12302595
1732203678841,2024-11-21T15:41:18.841Z,82412,0.21583867,-0.26411137,0.28648204
1732203678848,2024-11-21T15:41:18.848Z,82419,0.21583867,-0.26411137,0.28648204
1732203678870,2024-11-21T15:41:18.870Z,82441,0.08634836,-0.1977857,0.30496985
1732203678876,2024-11-21T15:41:18.876Z,82447,0.08634836,-0.1977857,0.30496985
1732203678898,2024-11-21T15:41:18.898Z,82469,0.35753134,-0.10879326,0.28828475
1732203678905,2024-11-21T15:41:18.905Z,82476,0.35753134,-0.10879326,0.28828475
1732203678920,2024-11-21T15:41:18.920Z,82491,0.047595,0.089346826,0.046138644
1732203678925,2024-11-21T15:41:18.925Z,82496,0.047595,0.089346826,0.046138644
1732203678938,2024-11-21T15:41:18.938Z,82509,-0.28418803,0.26304612,-0.30326945
1732203678942,2024-11-21T15:41:18.942Z,82513,-0.28418803,0.26304612,-0.30326945
1732203678954,2024-11-21T15:41:18.954Z,82525,-0.09880951,-0.27623144,-0.18218307
1732203678958,2024-11-21T15:41:18.958Z,82529,-0.09880951,-0.27623144,-0.18218307
1732203678968,2024-11-21T15:41:18.968Z,82539,-0.38732064,0.06142195,-0.32464024
1732203678972,2024-11-21T15:41:18.972Z,82543,-0.38732064,0.06142195,-0.32464024
1732203678981,2024-11-21T15:41:18.981Z,82552,-0.46617112,0.31472477,-0.2861441
1732203678984,2024-11-21T15:41:18.984Z,82555,-0.46617112,0.31472477,-0.2861441
1732203679136,2024-11-21T15:41:19.136Z,82707,0.086153984,-0.03950951,0.026145486
1732203679143,2024-11-21T15:41:19.143Z,82714,0.086153984,-0.03950951,0.026145486
1732203679163,2024-11-21T15:41:19.163Z,82734,-0.051150803,0.07151733,-0.1277611
1732203679167,2024-11-21T15:41:19.167Z,82738,-0.051150803,0.07151733,-0.1277611
1732203679180,2024-11-21T15:41:19.180Z,82751,-0.103368826,0.25101873,-0.22261795
1732203679184,2024-11-21T15:41:19.184Z,82755,-0.103368826,0.25101873,-0.22261795
1732203679197,2024-11-21T15:41:19.197Z,82768,-0.15223438,0.23705141,-0.11481522
1732203679201,2024-11-21T15:41:19.201Z,82772,-0.15223438,0.23705141,-0.11481522
1732203679214,2024-11-21T15:41:19.214Z,82785,-0.022426806,0.21197984,-0.11925741
1732203679218,2024-11-21T15:41:19.218Z,82789,-0.022426806,0.21197984,-0.11925741
1732203679230,2024-11-21T15:41:19.230Z,82801,-0.08309341,0.30518427,-0.02416427
1732203679233,2024-11-21T15:41:19.233Z,82804,-0.08309341,0.30518427,-0.02416427
1732203679244,2024-11-21T15:41:19.244Z,82815,-0.030151047,0.05161257,-0.026463218
1732203679247,2024-11-21T15:41:19.247Z,82818,-0.030151047,0.05161257,-0.026463218
1732203679256,2024-11-21T15:41:19.256Z,82827,-0.03761163,0.19964767,-0.08094546
1732203679259,2024-11-21T15:41:19.259Z,82830,-0.03761163,0.19964767,-0.08094546
1732203679267,2024-11-21T15:41:19.267Z,82838,-0.20699796,-0.0019667377,-0.078448445
1732203679270,2024-11-21T15:41:19.270Z,82841,-0.20699796,-0.0019667377,-0.078448445
1732203679279,2024-11-21T15:41:19.279Z,82850,-0.20946968,-0.16566731,-0.1278585
1732203679283,2024-11-21T15:41:19.283Z,82854,-0.20946968,-0.16566731,-0.1278585
1732203679291,2024-11-21T15:41:19.291Z,82862,-0.3793958,0.13903768,-0.14965636
1732203679294,2024-11-21T15:41:19.294Z,82865,-0.3793958,0.13903768,-0.14965636
1732203679302,2024-11-21T15:41:19.302Z,82873,-0.2514129,0.48505566,-0.29034513
1732203679305,2024-11-21T15:41:19.305Z,82876,-0.2514129,0.48505566,-0.29034513
1732203679314,2024-11-21T15:41:19.314Z,82885,-0.34151086,0.6942451,-0.35575324
1732203679316,2024-11-21T15:41:19.316Z,82887,-0.34151086,0.6942451,-0.35575324
1732203679325,2024-11-21T15:41:19.325Z,82896,-0.0033830535,-0.28342876,-0.22836784
1732203679327,2024-11-21T15:41:19.327Z,82898,-0.0033830535,-0.28342876,-0.22836784
1732203679335,2024-11-21T15:41:19.335Z,82906,0.009732466,-0.23417737,-0.09848004
1732203679338,2024-11-21T15:41:19.338Z,82909,0.009732466,-0.23417737,-0.09848004
1732203679403,2024-11-21T15:41:19.403Z,82974,-0.008960344,0.05203307,-0.105102435
1732203679406,2024-11-21T15:41:19.406Z,82977,-0.008960344,0.05203307,-0.105102435
1732203679416,2024-11-21T15:41:19.416Z,82987,-0.053266596,0.2897114,-0.123101346
1732203679419,2024-11-21T15:41:19.419Z,82990,-0.053266596,0.2897114,-0.123101346
1732203679430,2024-11-21T15:41:19.430Z,83001,-0.103194,0.15749258,0.005168023
1732203679432,2024-11-21T15:41:19.432Z,83003,-0.103194,0.15749258,0.005168023
1732203679444,2024-11-21T15:41:19.444Z,83015,-0.13970494,0.0025288295,0.0993289
1732203679447,2024-11-21T15:41:19.447Z,83018,-0.13970494,0.0025288295,0.0993289
1732203679457,2024-11-21T15:41:19.457Z,83028,-0.18856698,-0.19702251,0.023753885
1732203679460,2024-11-21T15:41:19.460Z,83031,-0.18856698,-0.19702251,0.023753885
1732203679468,2024-11-21T15:41:19.468Z,83039,0.031288445,-0.3204742,-0.064330846
1732203679471,2024-11-21T15:41:19.471Z,83042,0.031288445,-0.3204742,-0.064330846
1732203679480,2024-11-21T15:41:19.480Z,83051,0.15863776,-0.22854896,0.0459711
1732203679482,2024-11-21T15:41:19.482Z,83053,0.15863776,-0.22854896,0.0459711
1732203679549,2024-11-21T15:41:19.549Z,83120,-0.046060055,-0.33252475,-0.18740006
1732203679559,2024-11-21T15:41:19.559Z,83130,-0.046060055,-0.33252475,-0.18740006
1732203679588,2024-11-21T15:41:19.588Z,83159,0.050592806,-0.43845075,-0.17837285
1732203679595,2024-11-21T15:41:19.595Z,83166,0.050592806,-0.43845075,-0.17837285
1732203679625,2024-11-21T15:41:19.625Z,83196,0.033751447,-0.27933657,-0.05879243
1732203679630,2024-11-21T15:41:19.630Z,83201,0.033751447,-0.27933657,-0.05879243
1732203679643,2024-11-21T15:41:19.643Z,83214,-0.19603956,0.16146567,-0.1660528
1732203679647,2024-11-21T15:41:19.647Z,83218,-0.19603956,0.16146567,-0.1660528
1732203679671,2024-11-21T15:41:19.671Z,83242,-0.279855,0.15107082,-0.15213612
1732203679675,2024-11-21T15:41:19.675Z,83246,-0.279855,0.15107082,-0.15213612
1732203679689,2024-11-21T15:41:19.689Z,83260,-0.17783403,0.11467013,-0.12845586
1732203679693,2024-11-21T15:41:19.693Z,83264,-0.17783403,0.11467013,-0.12845586
1732203679720,2024-11-21T15:41:19.720Z,83291,-0.03485791,-0.014816468,-0.16995852
1732203679729,2024-11-21T15:41:19.729Z,83300,-0.03485791,-0.014816468,-0.16995852
1732203679754,2024-11-21T15:41:19.754Z,83325,-0.123700164,0.0061103655,-0.07977494
1732203679762,2024-11-21T15:41:19.762Z,83333,-0.123700164,0.0061103655,-0.07977494
1732203679808,2024-11-21T15:41:19.808Z,83379,-0.06432528,0.025532097,-0.19925316
1732203679814,2024-11-21T15:41:19.814Z,83385,-0.06432528,0.025532097,-0.19925316
1732203679838,2024-11-21T15:41:19.838Z,83409,-0.011933291,0.0057165124,-0.22637448
1732203679844,2024-11-21T15:41:19.844Z,83415,-0.011933291,0.0057165124,-0.22637448
1732203679866,2024-11-21T15:41:19.866Z,83437,-0.036943484,-6.7149545E-4,-0.1709101
1732203679875,2024-11-21T15:41:19.875Z,83446,-0.036943484,-6.7149545E-4,-0.1709101
1732203679898,2024-11-21T15:41:19.898Z,83469,-0.035620987,0.0060455985,-0.1200619
1732203679904,2024-11-21T15:41:19.904Z,83475,-0.035620987,0.0060455985,-0.1200619
1732203679920,2024-11-21T15:41:19.920Z,83491,-0.06299038,0.02084991,-0.101159856
1732203679923,2024-11-21T15:41:19.923Z,83494,-0.06299038,0.02084991,-0.101159856
1732203679940,2024-11-21T15:41:19.940Z,83511,-0.03647526,-0.017129213,-0.17656073
1732203679944,2024-11-21T15:41:19.944Z,83515,-0.03647526,-0.017129213,-0.17656073
1732203679955,2024-11-21T15:41:19.955Z,83526,-0.10656711,-0.040254526,-0.16269977
1732203679959,2024-11-21T15:41:19.959Z,83530,-0.10656711,-0.040254526,-0.16269977
1732203679971,2024-11-21T15:41:19.971Z,83542,-0.115848795,-0.0427322,-0.055408854
1732203679974,2024-11-21T15:41:19.974Z,83545,-0.115848795,-0.0427322,-0.055408854
1732203679986,2024-11-21T15:41:19.986Z,83557,-0.18321776,0.053641744,-0.04454783
1732203679989,2024-11-21T15:41:19.989Z,83560,-0.18321776,0.053641744,-0.04454783
1732203679998,2024-11-21T15:41:19.998Z,83569,-0.018007895,-0.009858196,-0.03221046
1732203680001,2024-11-21T15:41:20.001Z,83572,-0.018007895,-0.009858196,-0.03221046
1732203680077,2024-11-21T15:41:20.077Z,83648,-0.012993486,0.022984205,0.013150274
1732203680080,2024-11-21T15:41:20.080Z,83651,-0.012993486,0.022984205,0.013150274
1732203680092,2024-11-21T15:41:20.092Z,83663,0.0044492777,0.06399308,0.007952724
1732203680095,2024-11-21T15:41:20.095Z,83666,0.0044492777,0.06399308,0.007952724
1732203680121,2024-11-21T15:41:20.121Z,83692,-0.043468002,0.062334813,-0.1062901
1732203680126,2024-11-21T15:41:20.126Z,83697,-0.043468002,0.062334813,-0.1062901
1732203680139,2024-11-21T15:41:20.139Z,83710,-0.022640921,-0.028895505,0.010348761
1732203680146,2024-11-21T15:41:20.146Z,83717,-0.022640921,-0.028895505,0.010348761
1732203680159,2024-11-21T15:41:20.159Z,83730,0.04335517,0.008627429,0.016762175
1732203680163,2024-11-21T15:41:20.163Z,83734,0.04335517,0.008627429,0.016762175
1732203680177,2024-11-21T15:41:20.177Z,83748,-0.07861005,0.012688785,0.031386383
1732203680181,2024-11-21T15:41:20.181Z,83752,-0.07861005,0.012688785,0.031386383
1732203680193,2024-11-21T15:41:20.193Z,83764,-0.24180914,-0.04593982,-0.034400515
1732203680197,2024-11-21T15:41:20.197Z,83768,-0.24180914,-0.04593982,-0.034400515
1732203680210,2024-11-21T15:41:20.210Z,83781,-0.13301882,0.11771671,-0.18683644
1732203680213,2024-11-21T15:41:20.213Z,83784,-0.13301882,0.11771671,-0.18683644
1732203680260,2024-11-21T15:41:20.260Z,83831,-0.2681267,-0.06586102,-0.11952182
1732203680267,2024-11-21T15:41:20.267Z,83838,-0.2681267,-0.06586102,-0.11952182
1732203680290,2024-11-21T15:41:20.290Z,83861,-0.08007124,0.03589909,0.050291244
1732203680297,2024-11-21T15:41:20.297Z,83868,-0.08007124,0.03589909,0.050291244
1732203680319,2024-11-21T15:41:20.319Z,83890,-0.13211912,0.119080506,-0.089540675
1732203680326,2024-11-21T15:41:20.326Z,83897,-0.13211912,0.119080506,-0.089540675
1732203680348,2024-11-21T15:41:20.348Z,83919,-0.14465292,0.21917982,-0.10353811
1732203680357,2024-11-21T15:41:20.357Z,83928,-0.14465292,0.21917982,-0.10353811
1732203680370,2024-11-21T15:41:20.370Z,83941,0.041749537,-0.104977354,0.06379743
1732203680374,2024-11-21T15:41:20.374Z,83945,0.041749537,-0.104977354,0.06379743
1732203680386,2024-11-21T15:41:20.386Z,83957,0.10515463,-0.1669891,0.036434926
1732203680390,2024-11-21T15:41:20.390Z,83961,0.10515463,-0.1669891,0.036434926
1732203680404,2024-11-21T15:41:20.404Z,83975,0.0062563345,-0.059033643,0.019961357
1732203680411,2024-11-21T15:41:20.411Z,83982,0.0062563345,-0.059033643,0.019961357
1732203680434,2024-11-21T15:41:20.434Z,84005,0.012461517,-0.06094981,-0.049691964
1732203680441,2024-11-21T15:41:20.441Z,84012,0.012461517,-0.06094981,-0.049691964
1732203680455,2024-11-21T15:41:20.455Z,84026,-0.021942927,0.011653486,-4.7799683E-4
1732203680458,2024-11-21T15:41:20.458Z,84029,-0.021942927,0.011653486,-4.7799683E-4
1732203680470,2024-11-21T15:41:20.470Z,84041,-0.08816202,0.12566593,-0.083943926
1732203680473,2024-11-21T15:41:20.473Z,84044,-0.08816202,0.12566593,-0.083943926
1732203680484,2024-11-21T15:41:20.484Z,84055,-0.13266103,0.05147555,-0.031480957
1732203680486,2024-11-21T15:41:20.486Z,84057,-0.13266103,0.05147555,-0.031480957
1732203680496,2024-11-21T15:41:20.496Z,84067,-0.14232089,0.11143402,-0.085919395
1732203680499,2024-11-21T15:41:20.499Z,84070,-0.14232089,0.11143402,-0.085919395
1732203680508,2024-11-21T15:41:20.508Z,84079,-0.14205264,0.035666086,-0.08358333
1732203680511,2024-11-21T15:41:20.511Z,84082,-0.14205264,0.035666086,-0.08358333
1732203680519,2024-11-21T15:41:20.519Z,84090,-0.12966758,0.14862728,-0.18496212
1732203680521,2024-11-21T15:41:20.521Z,84092,-0.12966758,0.14862728,-0.18496212
1732203680570,2024-11-21T15:41:20.570Z,84141,0.012351128,0.011006204,-0.15282159
1732203680574,2024-11-21T15:41:20.574Z,84145,0.012351128,0.011006204,-0.15282159
1732203680591,2024-11-21T15:41:20.591Z,84162,0.07286726,-0.0010883964,-0.24162275
1732203680594,2024-11-21T15:41:20.594Z,84165,0.07286726,-0.0010883964,-0.24162275
1732203680605,2024-11-21T15:41:20.605Z,84176,0.04340045,0.016929077,-0.26334774
1732203680610,2024-11-21T15:41:20.610Z,84181,0.04340045,0.016929077,-0.26334774
1732203680629,2024-11-21T15:41:20.629Z,84200,-0.06124183,0.12349011,-0.2278788
1732203680635,2024-11-21T15:41:20.635Z,84206,-0.06124183,0.12349011,-0.2278788
1732203680651,2024-11-21T15:41:20.651Z,84222,-0.028736237,0.26068348,-0.22570796
1732203680654,2024-11-21T15:41:20.654Z,84225,-0.028736237,0.26068348,-0.22570796
1732203680669,2024-11-21T15:41:20.669Z,84240,-0.086993635,0.31670687,-0.24141575
1732203680672,2024-11-21T15:41:20.672Z,84243,-0.086993635,0.31670687,-0.24141575
1732203680684,2024-11-21T15:41:20.684Z,84255,-0.07949868,-0.009560423,-0.07532664
1732203680687,2024-11-21T15:41:20.687Z,84258,-0.07949868,-0.009560423,-0.07532664
1732203680699,2024-11-21T15:41:20.699Z,84270,-0.091390245,0.057352424,-0.08926894
1732203680702,2024-11-21T15:41:20.702Z,84273,-0.091390245,0.057352424,-0.08926894
1732203680712,2024-11-21T15:41:20.712Z,84283,-0.16498432,0.027493583,-0.0824623
1732203680715,2024-11-21T15:41:20.715Z,84286,-0.16498432,0.027493583,-0.0824623
1732203680751,2024-11-21T15:41:20.751Z,84322,0.019686086,-0.18423939,-0.053595897
1732203680754,2024-11-21T15:41:20.754Z,84325,0.019686086,-0.18423939,-0.053595897
1732203680765,2024-11-21T15:41:20.765Z,84336,0.0955929,0.04031472,8.821826E-4
1732203680768,2024-11-21T15:41:20.768Z,84339,0.0955929,0.04031472,8.821826E-4
1732203680780,2024-11-21T15:41:20.780Z,84351,0.043000277,0.30968326,0.0027809443
1732203680784,2024-11-21T15:41:20.784Z,84355,0.043000277,0.30968326,0.0027809443
1732203680794,2024-11-21T15:41:20.794Z,84365,-0.040544882,0.121685,-0.13106479
1732203680797,2024-11-21T15:41:20.797Z,84368,-0.040544882,0.121685,-0.13106479
1732203680806,2024-11-21T15:41:20.806Z,84377,-0.09782632,0.00959232,-0.16198076
1732203680809,2024-11-21T15:41:20.809Z,84380,-0.09782632,0.00959232,-0.16198076
1732203680818,2024-11-21T15:41:20.818Z,84389,-0.14170207,0.031021437,-0.030591846
1732203680820,2024-11-21T15:41:20.820Z,84391,-0.14170207,0.031021437,-0.030591846
1732203680844,2024-11-21T15:41:20.844Z,84415,-0.07404523,0.005244958,-0.10246744
1732203680850,2024-11-21T15:41:20.850Z,84421,-0.07404523,0.005244958,-0.10246744
1732203680870,2024-11-21T15:41:20.870Z,84441,-0.15267731,0.14983363,-0.09529193
1732203680876,2024-11-21T15:41:20.876Z,84447,-0.15267731,0.14983363,-0.09529193
1732203680891,2024-11-21T15:41:20.891Z,84462,-0.10635068,0.3262032,-0.10542682
1732203680894,2024-11-21T15:41:20.894Z,84465,-0.10635068,0.3262032,-0.10542682
1732203680936,2024-11-21T15:41:20.936Z,84507,-0.01320489,0.0052898866,-0.10189116
1732203680942,2024-11-21T15:41:20.942Z,84513,-0.01320489,0.0052898866,-0.10189116
1732203681026,2024-11-21T15:41:21.026Z,84597,-0.056823224,-0.095824786,-0.118272476
1732203681032,2024-11-21T15:41:21.032Z,84603,-0.056823224,-0.095824786,-0.118272476
1732203681053,2024-11-21T15:41:21.053Z,84624,-0.12888172,0.045306932,-0.13010423
1732203681058,2024-11-21T15:41:21.058Z,84629,-0.12888172,0.045306932,-0.13010423
1732203681075,2024-11-21T15:41:21.075Z,84646,-0.029089782,0.44693327,0.036080457
1732203681078,2024-11-21T15:41:21.078Z,84649,-0.029089782,0.44693327,0.036080457
1732203681090,2024-11-21T15:41:21.090Z,84661,-0.040090334,0.3537687,-0.032578666
1732203681094,2024-11-21T15:41:21.094Z,84665,-0.040090334,0.3537687,-0.032578666
1732203681105,2024-11-21T15:41:21.105Z,84676,-0.14544332,0.14486526,-0.104718916
1732203681109,2024-11-21T15:41:21.109Z,84680,-0.14544332,0.14486526,-0.104718916
1732203681156,2024-11-21T15:41:21.156Z,84727,0.030185059,0.23073187,-0.10159023
1732203681159,2024-11-21T15:41:21.159Z,84730,0.030185059,0.23073187,-0.10159023
1732203681173,2024-11-21T15:41:21.173Z,84744,0.03391079,-0.13418336,0.05974783
1732203681180,2024-11-21T15:41:21.180Z,84751,0.03391079,-0.13418336,0.05974783
1732203681203,2024-11-21T15:41:21.203Z,84774,0.10820102,-0.19834663,0.0630135
1732203681209,2024-11-21T15:41:21.209Z,84780,0.10820102,-0.19834663,0.0630135
1732203681227,2024-11-21T15:41:21.227Z,84798,0.025143664,-0.08800384,0.09959617
1732203681231,2024-11-21T15:41:21.231Z,84802,0.025143664,-0.08800384,0.09959617
1732203681296,2024-11-21T15:41:21.296Z,84867,0.15346214,-0.36576626,0.19919214
1732203681302,2024-11-21T15:41:21.302Z,84873,0.15346214,-0.36576626,0.19919214
1732203681324,2024-11-21T15:41:21.324Z,84895,0.10092601,-0.3936251,0.21136771
1732203681329,2024-11-21T15:41:21.329Z,84900,0.10092601,-0.3936251,0.21136771
1732203681344,2024-11-21T15:41:21.344Z,84915,0.007538813,-0.22418807,0.41305968
1732203681348,2024-11-21T15:41:21.348Z,84919,0.007538813,-0.22418807,0.41305968
1732203681363,2024-11-21T15:41:21.363Z,84934,-0.5686765,-0.443572,-0.79946285
1732203681369,2024-11-21T15:41:21.369Z,84940,-0.5686765,-0.443572,-0.79946285
1732203681391,2024-11-21T15:41:21.391Z,84962,-0.3679558,-0.23100086,-0.68257695
1732203681398,2024-11-21T15:41:21.398Z,84969,-0.3679558,-0.23100086,-0.68257695
1732203681419,2024-11-21T15:41:21.419Z,84990,0.10889663,0.061982337,-0.20497414
1732203681426,2024-11-21T15:41:21.426Z,84997,0.10889663,0.061982337,-0.20497414
1732203681448,2024-11-21T15:41:21.448Z,85019,0.3131903,-0.07839342,-0.34855598
1732203681455,2024-11-21T15:41:21.455Z,85026,0.3131903,-0.07839342,-0.34855598
1732203681470,2024-11-21T15:41:21.470Z,85041,0.29041368,0.41242608,0.22416653
1732203681475,2024-11-21T15:41:21.475Z,85046,0.29041368,0.41242608,0.22416653
1732203681489,2024-11-21T15:41:21.489Z,85060,0.28568122,0.13631392,0.20960651
1732203681493,2024-11-21T15:41:21.493Z,85064,0.28568122,0.13631392,0.20960651
1732203681505,2024-11-21T15:41:21.505Z,85076,0.35678485,-0.17037207,0.40397716
1732203681508,2024-11-21T15:41:21.508Z,85079,0.35678485,-0.17037207,0.40397716
1732203681521,2024-11-21T15:41:21.521Z,85092,0.09805749,-0.3646161,0.3946682
1732203681524,2024-11-21T15:41:21.524Z,85095,0.09805749,-0.3646161,0.3946682
1732203681534,2024-11-21T15:41:21.534Z,85105,0.25857496,-0.24510679,0.15650892
1732203681536,2024-11-21T15:41:21.536Z,85107,0.25857496,-0.24510679,0.15650892
1732203681546,2024-11-21T15:41:21.546Z,85117,0.52377653,-0.27925387,0.09294693
1732203681549,2024-11-21T15:41:21.549Z,85120,0.52377653,-0.27925387,0.09294693
1732203681558,2024-11-21T15:41:21.558Z,85129,0.29026377,-0.4388431,0.011682416
1732203681561,2024-11-21T15:41:21.561Z,85132,0.29026377,-0.4388431,0.011682416
1732203681569,2024-11-21T15:41:21.569Z,85140,0.058763973,-0.3453398,0.021620745
1732203681571,2024-11-21T15:41:21.571Z,85142,0.058763973,-0.3453398,0.021620745
1732203681579,2024-11-21T15:41:21.579Z,85150,-0.02140607,-0.4099604,0.09488678
1732203681582,2024-11-21T15:41:21.582Z,85153,-0.02140607,-0.4099604,0.09488678
1732203681590,2024-11-21T15:41:21.590Z,85161,0.05878041,-0.41184238,0.08754366
1732203681592,2024-11-21T15:41:21.592Z,85163,0.05878041,-0.41184238,0.08754366
1732203681695,2024-11-21T15:41:21.695Z,85266,0.29782113,-0.35212502,0.10390291
1732203681697,2024-11-21T15:41:21.697Z,85268,0.29782113,-0.35212502,0.10390291
1732203681708,2024-11-21T15:41:21.708Z,85279,0.14923178,0.4367136,0.27068
1732203681715,2024-11-21T15:41:21.715Z,85286,0.14923178,0.4367136,0.27068
1732203681737,2024-11-21T15:41:21.737Z,85308,-0.15851033,0.3768014,0.13478732
1732203681743,2024-11-21T15:41:21.743Z,85314,-0.15851033,0.3768014,0.13478732
1732203681759,2024-11-21T15:41:21.759Z,85330,-0.05548877,-0.1046188,-0.033826936
1732203681763,2024-11-21T15:41:21.763Z,85334,-0.05548877,-0.1046188,-0.033826936
1732203681776,2024-11-21T15:41:21.776Z,85347,0.40764123,-0.25356796,-0.022930184
1732203681779,2024-11-21T15:41:21.779Z,85350,0.40764123,-0.25356796,-0.022930184
1732203681830,2024-11-21T15:41:21.830Z,85401,0.33737162,0.003033448,0.031204311
1732203681834,2024-11-21T15:41:21.834Z,85405,0.33737162,0.003033448,0.031204311
1732203681845,2024-11-21T15:41:21.845Z,85416,0.14729464,0.13045198,-0.024808913
1732203681849,2024-11-21T15:41:21.849Z,85420,0.14729464,0.13045198,-0.024808913
1732203681877,2024-11-21T15:41:21.877Z,85448,-0.053885058,-0.54907686,-0.1783689
1732203681881,2024-11-21T15:41:21.881Z,85452,-0.053885058,-0.54907686,-0.1783689
1732203681894,2024-11-21T15:41:21.894Z,85465,0.03867274,-0.36641252,0.19514734
1732203681898,2024-11-21T15:41:21.898Z,85469,0.03867274,-0.36641252,0.19514734
1732203681927,2024-11-21T15:41:21.927Z,85498,0.1405617,0.08649445,0.29994428
1732203681934,2024-11-21T15:41:21.934Z,85505,0.1405617,0.08649445,0.29994428
1732203681959,2024-11-21T15:41:21.959Z,85530,0.1734149,0.08030177,0.1461605
1732203681966,2024-11-21T15:41:21.966Z,85537,0.1734149,0.08030177,0.1461605
1732203681985,2024-11-21T15:41:21.985Z,85556,0.24702796,-0.35843655,-0.03049382
1732203681991,2024-11-21T15:41:21.991Z,85562,0.24702796,-0.35843655,-0.03049382
1732203682003,2024-11-21T15:41:22.003Z,85574,-0.1656467,-0.060716514,-0.09741187
1732203682007,2024-11-21T15:41:22.007Z,85578,-0.1656467,-0.060716514,-0.09741187
1732203682020,2024-11-21T15:41:22.020Z,85591,0.1381462,-0.30441964,0.012840442
1732203682023,2024-11-21T15:41:22.023Z,85594,0.1381462,-0.30441964,0.012840442
1732203682035,2024-11-21T15:41:22.035Z,85606,0.039882794,-0.2776272,-0.010928358
1732203682038,2024-11-21T15:41:22.038Z,85609,0.039882794,-0.2776272,-0.010928358
1732203682051,2024-11-21T15:41:22.051Z,85622,-0.027781922,-0.047175013,0.049520627
1732203682054,2024-11-21T15:41:22.054Z,85625,-0.027781922,-0.047175013,0.049520627
1732203682107,2024-11-21T15:41:22.107Z,85678,0.019566774,-0.021772498,-0.21379113
1732203682116,2024-11-21T15:41:22.116Z,85687,0.019566774,-0.021772498,-0.21379113
1732203682137,2024-11-21T15:41:22.137Z,85708,0.03915164,-0.048663486,-0.29892802
1732203682143,2024-11-21T15:41:22.143Z,85714,0.03915164,-0.048663486,-0.29892802
1732203682159,2024-11-21T15:41:22.159Z,85730,0.10025204,-0.13213164,-0.14713523
1732203682163,2024-11-21T15:41:22.163Z,85734,0.10025204,-0.13213164,-0.14713523
1732203682175,2024-11-21T15:41:22.175Z,85746,-0.038442314,-0.025036132,-0.014145653
1732203682180,2024-11-21T15:41:22.180Z,85751,-0.038442314,-0.025036132,-0.014145653
1732203682193,2024-11-21T15:41:22.193Z,85764,-0.19483499,0.02715375,-0.3009575
1732203682200,2024-11-21T15:41:22.200Z,85771,-0.19483499,0.02715375,-0.3009575
1732203682211,2024-11-21T15:41:22.211Z,85782,-0.30466193,-0.050769288,-0.5313831
1732203682214,2024-11-21T15:41:22.214Z,85785,-0.30466193,-0.050769288,-0.5313831
1732203682223,2024-11-21T15:41:22.223Z,85794,-0.22275126,-0.29023746,-0.4103991
1732203682225,2024-11-21T15:41:22.225Z,85796,-0.22275126,-0.29023746,-0.4103991
1732203682234,2024-11-21T15:41:22.234Z,85805,0.17923614,0.10145159,0.22228046
1732203682237,2024-11-21T15:41:22.237Z,85808,0.17923614,0.10145159,0.22228046
1732203682246,2024-11-21T15:41:22.246Z,85817,0.31883815,0.26089883,-0.06919124
1732203682249,2024-11-21T15:41:22.249Z,85820,0.31883815,0.26089883,-0.06919124
1732203682280,2024-11-21T15:41:22.280Z,85851,0.31566826,0.2340615,-0.17718357
1732203682282,2024-11-21T15:41:22.282Z,85853,0.31566826,0.2340615,-0.17718357
1732203682290,2024-11-21T15:41:22.290Z,85861,-0.25976497,-0.24619417,-0.028798744
1732203682292,2024-11-21T15:41:22.292Z,85863,-0.25976497,-0.24619417,-0.028798744
1732203682420,2024-11-21T15:41:22.420Z,85991,-0.15165287,0.012566593,0.25604582
1732203682426,2024-11-21T15:41:22.426Z,85997,-0.15165287,0.012566593,0.25604582
1732203682448,2024-11-21T15:41:22.448Z,86019,0.22054397,0.27272126,0.506267
1732203682455,2024-11-21T15:41:22.455Z,86026,0.22054397,0.27272126,0.506267
1732203682475,2024-11-21T15:41:22.475Z,86046,0.3249281,0.003086837,0.15088364
1732203682481,2024-11-21T15:41:22.481Z,86052,0.3249281,0.003086837,0.15088364
1732203682499,2024-11-21T15:41:22.499Z,86070,-0.2671586,-0.24354427,-0.509208
1732203682506,2024-11-21T15:41:22.506Z,86077,-0.2671586,-0.24354427,-0.509208
1732203682524,2024-11-21T15:41:22.524Z,86095,-0.66794175,-0.29589057,-0.41568944
1732203682530,2024-11-21T15:41:22.530Z,86101,-0.66794175,-0.29589057,-0.41568944
1732203682547,2024-11-21T15:41:22.547Z,86118,-0.09267923,0.15904728,0.483368
1732203682552,2024-11-21T15:41:22.552Z,86123,-0.09267923,0.15904728,0.483368
1732203682564,2024-11-21T15:41:22.564Z,86135,-0.41411155,-0.052233595,-0.5563925
1732203682568,2024-11-21T15:41:22.568Z,86139,-0.41411155,-0.052233595,-0.5563925
1732203682580,2024-11-21T15:41:22.580Z,86151,-0.5782926,-0.20464537,-0.42695558
1732203682583,2024-11-21T15:41:22.583Z,86154,-0.5782926,-0.20464537,-0.42695558
1732203682595,2024-11-21T15:41:22.595Z,86166,-0.30650574,-0.435541,-0.26992717
1732203682598,2024-11-21T15:41:22.598Z,86169,-0.30650574,-0.435541,-0.26992717
1732203682607,2024-11-21T15:41:22.607Z,86178,-0.04519364,0.004880182,0.048699077
1732203682610,2024-11-21T15:41:22.610Z,86181,-0.04519364,0.004880182,0.048699077
1732203682619,2024-11-21T15:41:22.619Z,86190,0.2385117,0.37002692,0.20331557
1732203682622,2024-11-21T15:41:22.622Z,86193,0.2385117,0.37002692,0.20331557
1732203682631,2024-11-21T15:41:22.631Z,86202,-0.3518512,0.008202164,-0.1557604
1732203682634,2024-11-21T15:41:22.634Z,86205,-0.3518512,0.008202164,-0.1557604
1732203682646,2024-11-21T15:41:22.646Z,86217,-0.4387608,-0.052856173,-0.32156032
1732203682649,2024-11-21T15:41:22.649Z,86220,-0.4387608,-0.052856173,-0.32156032
1732203682657,2024-11-21T15:41:22.657Z,86228,-0.31885117,0.006898072,-0.24719241
1732203682660,2024-11-21T15:41:22.660Z,86231,-0.31885117,0.006898072,-0.24719241
1732203682668,2024-11-21T15:41:22.668Z,86239,0.144739,0.16748041,0.08088799
1732203682670,2024-11-21T15:41:22.670Z,86241,0.144739,0.16748041,0.08088799
1732203682677,2024-11-21T15:41:22.677Z,86248,0.11024615,0.15376605,0.11134831
1732203682680,2024-11-21T15:41:22.680Z,86251,0.11024615,0.15376605,0.11134831
1732203682688,2024-11-21T15:41:22.688Z,86259,-0.049023997,0.011615364,-0.13796334
1732203682690,2024-11-21T15:41:22.690Z,86261,-0.049023997,0.011615364,-0.13796334
1732203682697,2024-11-21T15:41:22.697Z,86268,-0.49696866,0.09544795,-0.31718403
1732203682699,2024-11-21T15:41:22.699Z,86270,-0.49696866,0.09544795,-0.31718403
1732203682707,2024-11-21T15:41:22.707Z,86278,-0.11924257,0.24877045,-0.13812397
1732203682709,2024-11-21T15:41:22.709Z,86280,-0.11924257,0.24877045,-0.13812397
1732203682716,2024-11-21T15:41:22.716Z,86287,0.33034024,0.22651215,-0.10139431
1732203682718,2024-11-21T15:41:22.718Z,86289,0.33034024,0.22651215,-0.10139431
1732203682725,2024-11-21T15:41:22.725Z,86296,0.21871573,0.016401606,-0.030397229
1732203682727,2024-11-21T15:41:22.727Z,86298,0.21871573,0.016401606,-0.030397229
1732203682734,2024-11-21T15:41:22.734Z,86305,-0.13467558,-0.17307779,-0.2850382
1732203682737,2024-11-21T15:41:22.737Z,86308,-0.13467558,-0.17307779,-0.2850382
1732203682777,2024-11-21T15:41:22.777Z,86348,-0.3626577,-0.11115978,-0.30594864
1732203682780,2024-11-21T15:41:22.780Z,86351,-0.3626577,-0.11115978,-0.30594864
1732203682789,2024-11-21T15:41:22.789Z,86360,-0.3984037,-0.24021965,-0.16323462
1732203682791,2024-11-21T15:41:22.791Z,86362,-0.3984037,-0.24021965,-0.16323462
1732203682802,2024-11-21T15:41:22.802Z,86373,0.1880979,-0.088582456,0.13688979
1732203682804,2024-11-21T15:41:22.804Z,86375,0.1880979,-0.088582456,0.13688979
1732203682821,2024-11-21T15:41:22.821Z,86392,0.20096019,0.088619895,0.33193997
1732203682824,2024-11-21T15:41:22.824Z,86395,0.20096019,0.088619895,0.33193997
1732203682834,2024-11-21T15:41:22.834Z,86405,0.13365129,0.047985815,0.058502316
1732203682836,2024-11-21T15:41:22.836Z,86407,0.13365129,0.047985815,0.058502316
1732203682912,2024-11-21T15:41:22.912Z,86483,0.20574369,0.06620926,0.09253932
1732203682916,2024-11-21T15:41:22.916Z,86487,0.20574369,0.06620926,0.09253932
1732203682926,2024-11-21T15:41:22.926Z,86497,-0.31119984,-0.35556644,-0.35218242
1732203682929,2024-11-21T15:41:22.929Z,86500,-0.31119984,-0.35556644,-0.35218242
1732203682939,2024-11-21T15:41:22.939Z,86510,-0.0059620505,0.019418618,-0.19296071
1732203682942,2024-11-21T15:41:22.942Z,86513,-0.0059620505,0.019418618,-0.19296071
1732203682955,2024-11-21T15:41:22.955Z,86526,0.35426632,0.17335163,-0.031848814
1732203682959,2024-11-21T15:41:22.959Z,86530,0.35426632,0.17335163,-0.031848814
1732203683002,2024-11-21T15:41:23.002Z,86573,-0.12600286,0.25933933,-0.21350104
1732203683008,2024-11-21T15:41:23.008Z,86579,-0.12600286,0.25933933,-0.21350104
1732203683027,2024-11-21T15:41:23.027Z,86598,-0.080357425,0.013816664,-0.11767128
1732203683033,2024-11-21T15:41:23.033Z,86604,-0.080357425,0.013816664,-0.11767128
1732203683045,2024-11-21T15:41:23.045Z,86616,-0.49619797,-0.02804556,-0.10180332
1732203683049,2024-11-21T15:41:23.049Z,86620,-0.49619797,-0.02804556,-0.10180332
1732203683062,2024-11-21T15:41:23.062Z,86633,-0.4399394,-0.09937151,-0.12640153
1732203683066,2024-11-21T15:41:23.066Z,86637,-0.4399394,-0.09937151,-0.12640153
1732203683077,2024-11-21T15:41:23.077Z,86648,-0.24817024,-0.0724159,-0.11246787
1732203683080,2024-11-21T15:41:23.080Z,86651,-0.24817024,-0.0724159,-0.11246787
1732203683094,2024-11-21T15:41:23.094Z,86665,0.11236626,0.21870996,0.08364156
1732203683097,2024-11-21T15:41:23.097Z,86668,0.11236626,0.21870996,0.08364156
1732203683105,2024-11-21T15:41:23.105Z,86676,0.048656594,0.21807532,0.15841067
1732203683107,2024-11-21T15:41:23.107Z,86678,0.048656594,0.21807532,0.15841067
1732203683114,2024-11-21T15:41:23.114Z,86685,-0.046330016,-0.024213612,-0.1548636
1732203683116,2024-11-21T15:41:23.116Z,86687,-0.046330016,-0.024213612,-0.1548636
1732203683134,2024-11-21T15:41:23.134Z,86705,0.0262139,0.14488548,-0.10608425
1732203683137,2024-11-21T15:41:23.137Z,86708,0.0262139,0.14488548,-0.10608425
1732203683145,2024-11-21T15:41:23.145Z,86716,-0.088621065,0.26485494,0.027358687
1732203683147,2024-11-21T15:41:23.147Z,86718,-0.088621065,0.26485494,0.027358687
1732203683181,2024-11-21T15:41:23.181Z,86752,0.0834594,-0.030009868,-0.0836383
1732203683183,2024-11-21T15:41:23.183Z,86754,0.0834594,-0.030009868,-0.0836383
1732203683234,2024-11-21T15:41:23.234Z,86805,-0.034831457,-0.04464487,-0.09913888
1732203683241,2024-11-21T15:41:23.241Z,86812,-0.034831457,-0.04464487,-0.09913888
1732203683261,2024-11-21T15:41:23.261Z,86832,0.01858518,-0.06790701,-0.044003442
1732203683267,2024-11-21T15:41:23.267Z,86838,0.01858518,-0.06790701,-0.044003442
1732203683282,2024-11-21T15:41:23.282Z,86853,-0.15393415,-0.027721433,-0.10584702
1732203683285,2024-11-21T15:41:23.285Z,86856,-0.15393415,-0.027721433,-0.10584702
1732203683298,2024-11-21T15:41:23.298Z,86869,-0.14076193,0.11502693,-0.05924085
1732203683305,2024-11-21T15:41:23.305Z,86876,-0.14076193,0.11502693,-0.05924085
1732203683328,2024-11-21T15:41:23.328Z,86899,-0.3641872,0.2632553,-0.1652853
1732203683333,2024-11-21T15:41:23.333Z,86904,-0.3641872,0.2632553,-0.1652853
1732203683504,2024-11-21T15:41:23.504Z,87075,0.18269043,-0.0074168886,-0.01950658
1732203683510,2024-11-21T15:41:23.510Z,87081,0.18269043,-0.0074168886,-0.01950658
1732203683531,2024-11-21T15:41:23.531Z,87102,0.19778277,-0.050669268,-0.027152559
1732203683538,2024-11-21T15:41:23.538Z,87109,0.19778277,-0.050669268,-0.027152559
1732203683553,2024-11-21T15:41:23.553Z,87124,0.028770274,0.030416654,0.012249444
1732203683557,2024-11-21T15:41:23.557Z,87128,0.028770274,0.030416654,0.012249444
1732203683569,2024-11-21T15:41:23.569Z,87140,-0.3362946,0.026450407,-0.03384737
1732203683573,2024-11-21T15:41:23.573Z,87144,-0.3362946,0.026450407,-0.03384737
1732203683585,2024-11-21T15:41:23.585Z,87156,-0.31343368,-0.04139553,0.017232757
1732203683589,2024-11-21T15:41:23.589Z,87160,-0.31343368,-0.04139553,0.017232757
1732203683600,2024-11-21T15:41:23.600Z,87171,-0.26198924,-0.03251526,0.16034517
1732203683603,2024-11-21T15:41:23.603Z,87174,-0.26198924,-0.03251526,0.16034517
1732203683613,2024-11-21T15:41:23.613Z,87184,-0.091961935,0.19993721,0.11037117
1732203683616,2024-11-21T15:41:23.616Z,87187,-0.091961935,0.19993721,0.11037117
1732203683626,2024-11-21T15:41:23.626Z,87197,-0.1368055,0.031364623,-0.19123468
1732203683629,2024-11-21T15:41:23.629Z,87200,-0.1368055,0.031364623,-0.19123468
1732203683638,2024-11-21T15:41:23.638Z,87209,-0.14224303,0.10436761,-0.14341253
1732203683641,2024-11-21T15:41:23.641Z,87212,-0.14224303,0.10436761,-0.14341253
1732203683650,2024-11-21T15:41:23.650Z,87221,-0.13055441,0.030571958,-0.07874981
1732203683653,2024-11-21T15:41:23.653Z,87224,-0.13055441,0.030571958,-0.07874981
1732203683660,2024-11-21T15:41:23.660Z,87231,-0.15689743,0.060766984,-0.04533173
1732203683663,2024-11-21T15:41:23.663Z,87234,-0.15689743,0.060766984,-0.04533173
1732203683671,2024-11-21T15:41:23.671Z,87242,-0.18747292,0.083259895,-0.037623975
1732203683673,2024-11-21T15:41:23.673Z,87244,-0.18747292,0.083259895,-0.037623975
1732203683815,2024-11-21T15:41:23.815Z,87386,-0.09187928,-0.012624892,-0.1850219
1732203683821,2024-11-21T15:41:23.821Z,87392,-0.09187928,-0.012624892,-0.1850219
1732203683840,2024-11-21T15:41:23.840Z,87411,-0.041817684,-0.025222847,-0.17759082
1732203683846,2024-11-21T15:41:23.846Z,87417,-0.041817684,-0.025222847,-0.17759082
1732203683859,2024-11-21T15:41:23.859Z,87430,-0.043916047,-0.009551574,-0.2186928
1732203683863,2024-11-21T15:41:23.863Z,87434,-0.043916047,-0.009551574,-0.2186928
1732203683950,2024-11-21T15:41:23.950Z,87521,-0.14335921,0.08093101,-0.31608883
1732203683957,2024-11-21T15:41:23.957Z,87528,-0.14335921,0.08093101,-0.31608883
1732203683978,2024-11-21T15:41:23.978Z,87549,-0.20995699,0.042232055,-0.3106498
1732203683984,2024-11-21T15:41:23.984Z,87555,-0.20995699,0.042232055,-0.3106498
1732203683997,2024-11-21T15:41:23.997Z,87568,-0.18025936,0.0065323235,-0.26300812
1732203684001,2024-11-21T15:41:24.001Z,87572,-0.18025936,0.0065323235,-0.26300812
1732203684014,2024-11-21T15:41:24.014Z,87585,0.009716651,-0.10176205,0.010343242
1732203684018,2024-11-21T15:41:24.018Z,87589,0.009716651,-0.10176205,0.010343242
1732203684035,2024-11-21T15:41:24.035Z,87606,0.09373511,-0.09919656,0.10033762
1732203684042,2024-11-21T15:41:24.042Z,87613,0.09373511,-0.09919656,0.10033762
1732203684064,2024-11-21T15:41:24.064Z,87635,0.08087689,-0.066227734,0.13449131
1732203684070,2024-11-21T15:41:24.070Z,87641,0.08087689,-0.066227734,0.13449131
1732203684098,2024-11-21T15:41:24.098Z,87669,-0.16631678,0.3780412,-0.18004742
1732203684106,2024-11-21T15:41:24.106Z,87677,-0.16631678,0.3780412,-0.18004742
1732203684129,2024-11-21T15:41:24.129Z,87700,-0.31839752,0.34158567,-0.12943035
1732203684135,2024-11-21T15:41:24.135Z,87706,-0.31839752,0.34158567,-0.12943035
1732203684155,2024-11-21T15:41:24.155Z,87726,-0.2733284,0.20581098,-0.21303755
1732203684161,2024-11-21T15:41:24.161Z,87732,-0.2733284,0.20581098,-0.21303755
1732203684183,2024-11-21T15:41:24.183Z,87754,-0.31359348,0.13235322,-0.18388882
1732203684190,2024-11-21T15:41:24.190Z,87761,-0.31359348,0.13235322,-0.18388882
1732203684211,2024-11-21T15:41:24.211Z,87782,-0.35661054,0.33931047,-0.2637047
1732203684217,2024-11-21T15:41:24.217Z,87788,-0.35661054,0.33931047,-0.2637047
1732203684229,2024-11-21T15:41:24.229Z,87800,-0.3868782,0.42092216,-0.20949188
1732203684233,2024-11-21T15:41:24.233Z,87804,-0.3868782,0.42092216,-0.20949188
1732203684253,2024-11-21T15:41:24.253Z,87824,-0.052654557,0.1707684,-0.03178617
1732203684256,2024-11-21T15:41:24.256Z,87827,-0.052654557,0.1707684,-0.03178617
1732203684266,2024-11-21T15:41:24.266Z,87837,-0.04096392,0.0545231,-0.051595334
1732203684269,2024-11-21T15:41:24.269Z,87840,-0.04096392,0.0545231,-0.051595334
1732203684278,2024-11-21T15:41:24.278Z,87849,-0.033768527,-0.036981944,-0.013219903
1732203684280,2024-11-21T15:41:24.280Z,87851,-0.033768527,-0.036981944,-0.013219903
1732203684288,2024-11-21T15:41:24.288Z,87859,-0.04314074,-0.027590537,-0.05024201
1732203684291,2024-11-21T15:41:24.291Z,87862,-0.04314074,-0.027590537,-0.05024201
1732203684298,2024-11-21T15:41:24.298Z,87869,0.03629608,-0.03199683,-0.025466988
1732203684301,2024-11-21T15:41:24.301Z,87872,0.03629608,-0.03199683,-0.025466988
1732203684309,2024-11-21T15:41:24.309Z,87880,0.105094366,0.023388173,0.084730305
1732203684311,2024-11-21T15:41:24.311Z,87882,0.105094366,0.023388173,0.084730305
1732203684352,2024-11-21T15:41:24.352Z,87923,-0.068750694,-0.12389349,-0.04259625
1732203684355,2024-11-21T15:41:24.355Z,87926,-0.068750694,-0.12389349,-0.04259625
1732203684366,2024-11-21T15:41:24.366Z,87937,0.057851717,-0.22574385,0.062913045
1732203684369,2024-11-21T15:41:24.369Z,87940,0.057851717,-0.22574385,0.062913045
1732203684381,2024-11-21T15:41:24.381Z,87952,0.20410588,-0.07176415,0.1826633
1732203684388,2024-11-21T15:41:24.388Z,87959,0.20410588,-0.07176415,0.1826633
1732203684406,2024-11-21T15:41:24.406Z,87977,-0.033919845,0.30949795,-0.1579707
1732203684412,2024-11-21T15:41:24.412Z,87983,-0.033919845,0.30949795,-0.1579707
1732203684429,2024-11-21T15:41:24.429Z,88000,0.029245013,0.17757875,0.0011616725
1732203684434,2024-11-21T15:41:24.434Z,88005,0.029245013,0.17757875,0.0011616725
1732203684447,2024-11-21T15:41:24.447Z,88018,0.07066983,0.12289379,-0.18723129
1732203684451,2024-11-21T15:41:24.451Z,88022,0.07066983,0.12289379,-0.18723129
1732203684489,2024-11-21T15:41:24.489Z,88060,-0.040659964,0.11816521,-0.18303707
1732203684495,2024-11-21T15:41:24.495Z,88066,-0.040659964,0.11816521,-0.18303707
1732203684514,2024-11-21T15:41:24.514Z,88085,-0.04120144,0.14191933,-0.0046840576
1732203684517,2024-11-21T15:41:24.517Z,88088,-0.04120144,0.14191933,-0.0046840576
1732203684530,2024-11-21T15:41:24.530Z,88101,0.101165354,-0.028248614,-0.12371343
1732203684535,2024-11-21T15:41:24.535Z,88106,0.101165354,-0.028248614,-0.12371343
1732203684547,2024-11-21T15:41:24.547Z,88118,0.08704697,-0.044096295,-0.06596494
1732203684550,2024-11-21T15:41:24.550Z,88121,0.08704697,-0.044096295,-0.06596494
1732203684561,2024-11-21T15:41:24.561Z,88132,-0.111250535,0.15193243,-0.032480154
1732203684564,2024-11-21T15:41:24.564Z,88135,-0.111250535,0.15193243,-0.032480154
1732203684620,2024-11-21T15:41:24.620Z,88191,-0.18491283,0.3309371,-0.003966321
1732203684624,2024-11-21T15:41:24.624Z,88195,-0.18491283,0.3309371,-0.003966321
1732203684633,2024-11-21T15:41:24.633Z,88204,-0.106499754,0.22812486,-0.09213249
1732203684637,2024-11-21T15:41:24.637Z,88208,-0.106499754,0.22812486,-0.09213249
1732203684646,2024-11-21T15:41:24.646Z,88217,-0.07846992,0.34442076,-0.14504302
1732203684649,2024-11-21T15:41:24.649Z,88220,-0.07846992,0.34442076,-0.14504302
1732203684711,2024-11-21T15:41:24.711Z,88282,-0.060508694,0.23535775,-0.15223114
1732203684714,2024-11-21T15:41:24.714Z,88285,-0.060508694,0.23535775,-0.15223114
1732203684725,2024-11-21T15:41:24.725Z,88296,-0.0829031,-0.037565917,-0.038820364
1732203684728,2024-11-21T15:41:24.728Z,88299,-0.0829031,-0.037565917,-0.038820364
1732203684738,2024-11-21T15:41:24.738Z,88309,0.019444935,-0.07546082,-0.12050127
1732203684741,2024-11-21T15:41:24.741Z,88312,0.019444935,-0.07546082,-0.12050127
1732203684752,2024-11-21T15:41:24.752Z,88323,-0.03372101,0.073616326,-0.12263343
1732203684755,2024-11-21T15:41:24.755Z,88326,-0.03372101,0.073616326,-0.12263343
1732203684766,2024-11-21T15:41:24.766Z,88337,-0.100722425,0.3154041,-0.14779833
1732203684769,2024-11-21T15:41:24.769Z,88340,-0.100722425,0.3154041,-0.14779833
1732203684781,2024-11-21T15:41:24.781Z,88352,-0.17579752,0.24328908,-0.12577453
1732203684784,2024-11-21T15:41:24.784Z,88355,-0.17579752,0.24328908,-0.12577453
1732203684793,2024-11-21T15:41:24.793Z,88364,0.03896857,-0.12746228,-0.25751182
1732203684796,2024-11-21T15:41:24.796Z,88367,0.03896857,-0.12746228,-0.25751182
1732203684806,2024-11-21T15:41:24.806Z,88377,0.03126278,-0.23956275,-0.27822208
1732203684808,2024-11-21T15:41:24.808Z,88379,0.03126278,-0.23956275,-0.27822208
1732203684816,2024-11-21T15:41:24.816Z,88387,0.033080537,-0.19821496,-0.13080098
1732203684819,2024-11-21T15:41:24.819Z,88390,0.033080537,-0.19821496,-0.13080098
1732203684844,2024-11-21T15:41:24.844Z,88415,0.03999988,-0.004220162,-0.07926513
1732203684847,2024-11-21T15:41:24.847Z,88418,0.03999988,-0.004220162,-0.07926513
1732203684858,2024-11-21T15:41:24.858Z,88429,0.051338844,-0.14415632,-0.20166375
1732203684861,2024-11-21T15:41:24.861Z,88432,0.051338844,-0.14415632,-0.20166375
1732203684870,2024-11-21T15:41:24.870Z,88441,-0.17645012,-0.15440924,-0.09466871
1732203684873,2024-11-21T15:41:24.873Z,88444,-0.17645012,-0.15440924,-0.09466871
1732203684881,2024-11-21T15:41:24.881Z,88452,-0.17150933,-0.22800164,-0.0054891473
1732203684883,2024-11-21T15:41:24.883Z,88454,-0.17150933,-0.22800164,-0.0054891473
1732203685034,2024-11-21T15:41:25.034Z,88605,-0.21912424,-0.22900213,0.10218398
1732203685042,2024-11-21T15:41:25.042Z,88613,-0.21912424,-0.22900213,0.10218398
1732203685066,2024-11-21T15:41:25.066Z,88637,-0.13917437,-0.37571946,0.24011424
1732203685073,2024-11-21T15:41:25.073Z,88644,-0.13917437,-0.37571946,0.24011424
1732203685096,2024-11-21T15:41:25.096Z,88667,0.17114295,-0.44615453,0.30773896
1732203685102,2024-11-21T15:41:25.102Z,88673,0.17114295,-0.44615453,0.30773896
1732203685122,2024-11-21T15:41:25.122Z,88693,-0.16708168,-0.18028836,0.020517396
1732203685128,2024-11-21T15:41:25.128Z,88699,-0.16708168,-0.18028836,0.020517396
1732203685145,2024-11-21T15:41:25.145Z,88716,-0.4040233,-0.20772476,0.038000613
1732203685151,2024-11-21T15:41:25.151Z,88722,-0.4040233,-0.20772476,0.038000613
1732203685165,2024-11-21T15:41:25.165Z,88736,-0.4809989,-0.2981433,0.051265713
1732203685169,2024-11-21T15:41:25.169Z,88740,-0.4809989,-0.2981433,0.051265713
1732203685182,2024-11-21T15:41:25.182Z,88753,0.8167153,-0.10544531,0.3703234
1732203685185,2024-11-21T15:41:25.185Z,88756,0.8167153,-0.10544531,0.3703234
1732203685196,2024-11-21T15:41:25.196Z,88767,0.52990216,-0.1176673,0.40469864
1732203685199,2024-11-21T15:41:25.199Z,88770,0.52990216,-0.1176673,0.40469864
1732203685209,2024-11-21T15:41:25.209Z,88780,-0.015713772,-0.5278817,-0.21658435
1732203685212,2024-11-21T15:41:25.212Z,88783,-0.015713772,-0.5278817,-0.21658435
1732203685222,2024-11-21T15:41:25.222Z,88793,0.120645516,-0.3106763,-0.047659256
1732203685225,2024-11-21T15:41:25.225Z,88796,0.120645516,-0.3106763,-0.047659256
1732203685237,2024-11-21T15:41:25.237Z,88808,0.32771662,0.015765654,0.4066021
1732203685240,2024-11-21T15:41:25.240Z,88811,0.32771662,0.015765654,0.4066021
1732203685250,2024-11-21T15:41:25.250Z,88821,0.40750843,0.41011047,0.49972713
1732203685255,2024-11-21T15:41:25.255Z,88826,0.40750843,0.41011047,0.49972713
1732203685267,2024-11-21T15:41:25.267Z,88838,0.3159156,0.15126157,0.30103955
1732203685269,2024-11-21T15:41:25.269Z,88840,0.3159156,0.15126157,0.30103955
1732203685293,2024-11-21T15:41:25.293Z,88864,0.2534295,-0.3753053,0.1087883
1732203685296,2024-11-21T15:41:25.296Z,88867,0.2534295,-0.3753053,0.1087883
1732203685304,2024-11-21T15:41:25.304Z,88875,0.32918584,-0.7065916,0.1345869
1732203685307,2024-11-21T15:41:25.307Z,88878,0.32918584,-0.7065916,0.1345869
1732203685316,2024-11-21T15:41:25.316Z,88887,0.004237423,-0.069138214,-0.13134089
1732203685318,2024-11-21T15:41:25.318Z,88889,0.004237423,-0.069138214,-0.13134089
1732203685339,2024-11-21T15:41:25.339Z,88910,-0.098044075,-0.277073,-0.25203827
1732203685342,2024-11-21T15:41:25.342Z,88913,-0.098044075,-0.277073,-0.25203827
1732203685350,2024-11-21T15:41:25.350Z,88921,0.14386356,-0.4366296,-0.35667315
1732203685353,2024-11-21T15:41:25.353Z,88924,0.14386356,-0.4366296,-0.35667315
1732203685475,2024-11-21T15:41:25.475Z,89046,0.08227779,0.28035977,0.06637132
1732203685478,2024-11-21T15:41:25.478Z,89049,0.08227779,0.28035977,0.06637132
1732203685486,2024-11-21T15:41:25.486Z,89057,-0.07471075,0.4874273,0.09446405
1732203685489,2024-11-21T15:41:25.489Z,89060,-0.07471075,0.4874273,0.09446405
1732203685504,2024-11-21T15:41:25.504Z,89075,0.10038716,-0.5442984,0.12300329
1732203685511,2024-11-21T15:41:25.511Z,89082,0.10038716,-0.5442984,0.12300329
1732203685532,2024-11-21T15:41:25.532Z,89103,0.41078937,-0.2131881,0.34797737
1732203685538,2024-11-21T15:41:25.538Z,89109,0.41078937,-0.2131881,0.34797737
1732203685560,2024-11-21T15:41:25.560Z,89131,0.389348,0.19757712,0.26450235
1732203685566,2024-11-21T15:41:25.566Z,89137,0.389348,0.19757712,0.26450235
1732203685891,2024-11-21T15:41:25.891Z,89462,-0.45320067,0.24687868,0.037641525
1732203685900,2024-11-21T15:41:25.900Z,89471,-0.45320067,0.24687868,0.037641525
1732203685931,2024-11-21T15:41:25.931Z,89502,-0.31070223,-0.23040074,-0.012554145
1732203685938,2024-11-21T15:41:25.938Z,89509,-0.31070223,-0.23040074,-0.012554145
1732203685962,2024-11-21T15:41:25.962Z,89533,0.04728028,-0.35517713,-0.124699526
1732203685969,2024-11-21T15:41:25.969Z,89540,0.04728028,-0.35517713,-0.124699526
1732203685990,2024-11-21T15:41:25.990Z,89561,0.044620994,-0.20540705,-0.017729912
1732203685996,2024-11-21T15:41:25.996Z,89567,0.044620994,-0.20540705,-0.017729912
1732203686016,2024-11-21T15:41:26.016Z,89587,0.06561678,0.13327035,0.17852731
1732203686023,2024-11-21T15:41:26.023Z,89594,0.06561678,0.13327035,0.17852731
1732203686042,2024-11-21T15:41:26.042Z,89613,-0.2645274,-0.20736636,-0.29348698
1732203686047,2024-11-21T15:41:26.047Z,89618,-0.2645274,-0.20736636,-0.29348698
1732203686065,2024-11-21T15:41:26.065Z,89636,-0.2067035,0.10344964,-0.012639845
1732203686070,2024-11-21T15:41:26.070Z,89641,-0.2067035,0.10344964,-0.012639845
1732203686085,2024-11-21T15:41:26.085Z,89656,0.052707337,-0.112238936,0.012816544
1732203686092,2024-11-21T15:41:26.092Z,89663,0.052707337,-0.112238936,0.012816544
1732203686112,2024-11-21T15:41:26.112Z,89683,-0.22526403,0.28188992,-0.19090104
1732203686117,2024-11-21T15:41:26.117Z,89688,-0.22526403,0.28188992,-0.19090104
1732203686133,2024-11-21T15:41:26.133Z,89704,-0.19132814,0.38617426,-0.22665496
1732203686137,2024-11-21T15:41:26.137Z,89708,-0.19132814,0.38617426,-0.22665496
1732203686151,2024-11-21T15:41:26.151Z,89722,0.079259805,0.25761196,-0.2744976
1732203686156,2024-11-21T15:41:26.156Z,89727,0.079259805,0.25761196,-0.2744976
1732203686166,2024-11-21T15:41:26.166Z,89737,-0.07440809,-0.27534553,-0.28407842
1732203686169,2024-11-21T15:41:26.169Z,89740,-0.07440809,-0.27534553,-0.28407842
1732203686179,2024-11-21T15:41:26.179Z,89750,-0.17987946,-0.2634424,-0.25301522
1732203686182,2024-11-21T15:41:26.182Z,89753,-0.17987946,-0.2634424,-0.25301522
1732203686197,2024-11-21T15:41:26.197Z,89768,-0.008304639,0.3032637,-0.06324609
1732203686203,2024-11-21T15:41:26.203Z,89774,-0.008304639,0.3032637,-0.06324609
1732203686221,2024-11-21T15:41:26.221Z,89792,-0.19518639,0.045107283,0.10604839
1732203686224,2024-11-21T15:41:26.224Z,89795,-0.19518639,0.045107283,0.10604839
1732203686234,2024-11-21T15:41:26.234Z,89805,-0.25011548,-0.16911057,0.12460386
1732203686238,2024-11-21T15:41:26.238Z,89809,-0.25011548,-0.16911057,0.12460386
1732203686249,2024-11-21T15:41:26.249Z,89820,0.19569245,0.2202966,-0.087079965
1732203686252,2024-11-21T15:41:26.252Z,89823,0.19569245,0.2202966,-0.087079965
1732203686262,2024-11-21T15:41:26.262Z,89833,-0.286494,-0.15796053,-0.2240585
1732203686265,2024-11-21T15:41:26.265Z,89836,-0.286494,-0.15796053,-0.2240585
1732203686275,2024-11-21T15:41:26.275Z,89846,-0.10273347,-0.14524296,-0.14136958
1732203686278,2024-11-21T15:41:26.278Z,89849,-0.10273347,-0.14524296,-0.14136958
1732203686287,2024-11-21T15:41:26.287Z,89858,-0.13193151,-0.19214875,0.17225842
1732203686290,2024-11-21T15:41:26.290Z,89861,-0.13193151,-0.19214875,0.17225842
1732203686330,2024-11-21T15:41:26.330Z,89901,-0.23504242,-0.35906053,-0.0132778995
1732203686333,2024-11-21T15:41:26.333Z,89904,-0.23504242,-0.35906053,-0.0132778995
1732203686342,2024-11-21T15:41:26.342Z,89913,-0.372379,-0.39253825,-0.15369537
1732203686345,2024-11-21T15:41:26.345Z,89916,-0.372379,-0.39253825,-0.15369537
1732203686353,2024-11-21T15:41:26.353Z,89924,0.25875872,0.19186872,0.43102473
1732203686356,2024-11-21T15:41:26.356Z,89927,0.25875872,0.19186872,0.43102473
1732203686378,2024-11-21T15:41:26.378Z,89949,0.55191237,-0.012634034,0.49171537
1732203686385,2024-11-21T15:41:26.385Z,89956,0.55191237,-0.012634034,0.49171537
1732203686407,2024-11-21T15:41:26.407Z,89978,0.51458097,-0.164301,0.45671737
1732203686413,2024-11-21T15:41:26.413Z,89984,0.51458097,-0.164301,0.45671737
1732203686435,2024-11-21T15:41:26.435Z,90006,-0.063466616,-0.08866774,-0.03397192
1732203686444,2024-11-21T15:41:26.444Z,90015,-0.063466616,-0.08866774,-0.03397192
1732203686511,2024-11-21T15:41:26.511Z,90082,-0.13855296,-0.033079587,-0.11882415
1732203686517,2024-11-21T15:41:26.517Z,90088,-0.13855296,-0.033079587,-0.11882415
1732203686556,2024-11-21T15:41:26.556Z,90127,-0.101859175,-0.023304053,-0.07270998
1732203686563,2024-11-21T15:41:26.563Z,90134,-0.101859175,-0.023304053,-0.07270998
1732203686585,2024-11-21T15:41:26.585Z,90156,-0.29543442,-0.083901435,-0.35230926
1732203686598,2024-11-21T15:41:26.598Z,90169,-0.29543442,-0.083901435,-0.35230926
1732203686617,2024-11-21T15:41:26.617Z,90188,-0.32134968,-0.032231685,-0.42090932
1732203686621,2024-11-21T15:41:26.621Z,90192,-0.32134968,-0.032231685,-0.42090932
1732203686697,2024-11-21T15:41:26.697Z,90268,-0.09140364,-0.0017136992,-0.24105252
1732203686703,2024-11-21T15:41:26.703Z,90274,-0.09140364,-0.0017136992,-0.24105252
1732203686726,2024-11-21T15:41:26.726Z,90297,-0.063580066,0.15474135,-0.11780075
1732203686732,2024-11-21T15:41:26.732Z,90303,-0.063580066,0.15474135,-0.11780075
1732203686746,2024-11-21T15:41:26.746Z,90317,-0.13683696,0.18184735,-0.027635084
1732203686749,2024-11-21T15:41:26.749Z,90320,-0.13683696,0.18184735,-0.027635084
1732203686761,2024-11-21T15:41:26.761Z,90332,0.0011629611,0.17505503,-0.15277778
1732203686764,2024-11-21T15:41:26.764Z,90335,0.0011629611,0.17505503,-0.15277778
1732203686775,2024-11-21T15:41:26.775Z,90346,-0.12781192,0.075498655,-0.194633
1732203686779,2024-11-21T15:41:26.779Z,90350,-0.12781192,0.075498655,-0.194633
1732203686880,2024-11-21T15:41:26.880Z,90451,-0.22867365,-0.13964325,-0.33350074
1732203686886,2024-11-21T15:41:26.886Z,90457,-0.22867365,-0.13964325,-0.33350074
1732203686909,2024-11-21T15:41:26.909Z,90480,-0.36044905,0.23077427,-0.066574715
1732203686915,2024-11-21T15:41:26.915Z,90486,-0.36044905,0.23077427,-0.066574715
1732203687012,2024-11-21T15:41:27.012Z,90583,-0.21418163,0.02320311,-0.04352279
1732203687019,2024-11-21T15:41:27.019Z,90590,-0.21418163,0.02320311,-0.04352279
1732203687046,2024-11-21T15:41:27.046Z,90617,-0.06717344,0.19412993,-0.04633866
1732203687055,2024-11-21T15:41:27.055Z,90626,-0.06717344,0.19412993,-0.04633866
1732203687076,2024-11-21T15:41:27.076Z,90647,0.03712311,0.49115178,-0.20614026
1732203687082,2024-11-21T15:41:27.082Z,90653,0.03712311,0.49115178,-0.20614026
1732203687101,2024-11-21T15:41:27.101Z,90672,-0.08335496,0.5585125,-0.11840268
1732203687108,2024-11-21T15:41:27.108Z,90679,-0.08335496,0.5585125,-0.11840268
1732203687126,2024-11-21T15:41:27.126Z,90697,-0.14856215,0.0077041583,0.22281936
1732203687131,2024-11-21T15:41:27.131Z,90702,-0.14856215,0.0077041583,0.22281936
1732203687143,2024-11-21T15:41:27.143Z,90714,-0.06475607,-0.13029939,0.02767772
1732203687147,2024-11-21T15:41:27.147Z,90718,-0.06475607,-0.13029939,0.02767772
1732203687159,2024-11-21T15:41:27.159Z,90730,0.10774716,-0.15242393,-0.0994991
1732203687163,2024-11-21T15:41:27.163Z,90734,0.10774716,-0.15242393,-0.0994991
1732203687173,2024-11-21T15:41:27.173Z,90744,-0.06357854,0.13693193,-0.20228238
1732203687177,2024-11-21T15:41:27.177Z,90748,-0.06357854,0.13693193,-0.20228238
1732203687191,2024-11-21T15:41:27.191Z,90762,-0.24372156,0.18551776,-0.24759024
1732203687197,2024-11-21T15:41:27.197Z,90768,-0.24372156,0.18551776,-0.24759024
1732203687214,2024-11-21T15:41:27.214Z,90785,-0.1398468,0.10624128,-0.35360196
1732203687217,2024-11-21T15:41:27.217Z,90788,-0.1398468,0.10624128,-0.35360196
1732203687230,2024-11-21T15:41:27.230Z,90801,-0.13676195,0.0074085253,-0.2762541
1732203687233,2024-11-21T15:41:27.233Z,90804,-0.13676195,0.0074085253,-0.2762541
1732203687244,2024-11-21T15:41:27.244Z,90815,-0.17091678,-0.032431725,-0.26428744
1732203687248,2024-11-21T15:41:27.248Z,90819,-0.17091678,-0.032431725,-0.26428744
1732203687276,2024-11-21T15:41:27.276Z,90847,0.04898231,0.02020827,-0.25679314
1732203687279,2024-11-21T15:41:27.279Z,90850,0.04898231,0.02020827,-0.25679314
1732203687290,2024-11-21T15:41:27.290Z,90861,0.092748985,-0.1791054,-0.08212882
1732203687293,2024-11-21T15:41:27.293Z,90864,0.092748985,-0.1791054,-0.08212882
1732203687320,2024-11-21T15:41:27.320Z,90891,-0.039375577,-0.08562204,-0.045014083
1732203687324,2024-11-21T15:41:27.324Z,90895,-0.039375577,-0.08562204,-0.045014083
1732203687369,2024-11-21T15:41:27.369Z,90940,-0.0672466,0.059751526,-0.040284768
1732203687376,2024-11-21T15:41:27.376Z,90947,-0.0672466,0.059751526,-0.040284768
1732203687391,2024-11-21T15:41:27.391Z,90962,-0.06456016,0.057739373,0.1210781
1732203687394,2024-11-21T15:41:27.394Z,90965,-0.06456016,0.057739373,0.1210781
1732203687406,2024-11-21T15:41:27.406Z,90977,-0.08189262,-0.0049384334,0.07650808
1732203687410,2024-11-21T15:41:27.410Z,90981,-0.08189262,-0.0049384334,0.07650808
1732203687421,2024-11-21T15:41:27.421Z,90992,-0.21147974,0.055538073,-0.027763372
1732203687425,2024-11-21T15:41:27.425Z,90996,-0.21147974,0.055538073,-0.027763372
1732203687436,2024-11-21T15:41:27.436Z,91007,-0.22078314,0.19274507,-0.09071206
1732203687439,2024-11-21T15:41:27.439Z,91010,-0.22078314,0.19274507,-0.09071206
1732203687455,2024-11-21T15:41:27.455Z,91026,-0.24040131,0.16848312,-0.030749872
1732203687459,2024-11-21T15:41:27.459Z,91030,-0.24040131,0.16848312,-0.030749872
1732203687468,2024-11-21T15:41:27.468Z,91039,-0.11711088,0.07206999,-0.09647677
1732203687471,2024-11-21T15:41:27.471Z,91042,-0.11711088,0.07206999,-0.09647677
1732203687480,2024-11-21T15:41:27.480Z,91051,-0.08850957,0.086082995,-0.19774525
1732203687483,2024-11-21T15:41:27.483Z,91054,-0.08850957,0.086082995,-0.19774525
1732203687640,2024-11-21T15:41:27.640Z,91211,-0.07764761,0.09461162,-0.15579952
1732203687645,2024-11-21T15:41:27.645Z,91216,-0.07764761,0.09461162,-0.15579952
1732203687663,2024-11-21T15:41:27.663Z,91234,-0.068206675,0.08172572,-0.1449848
1732203687669,2024-11-21T15:41:27.669Z,91240,-0.068206675,0.08172572,-0.1449848
1732203687690,2024-11-21T15:41:27.690Z,91261,-0.13457973,-0.00210269,-0.20903024
1732203687695,2024-11-21T15:41:27.695Z,91266,-0.13457973,-0.00210269,-0.20903024
1732203687713,2024-11-21T15:41:27.713Z,91284,-0.17360687,0.031937122,-0.16585809
1732203687719,2024-11-21T15:41:27.719Z,91290,-0.17360687,0.031937122,-0.16585809
1732203687869,2024-11-21T15:41:27.869Z,91440,0.072437316,-0.033091743,-0.061060987
1732203687879,2024-11-21T15:41:27.879Z,91450,0.072437316,-0.033091743,-0.061060987
1732203687909,2024-11-21T15:41:27.909Z,91480,-0.017881595,0.007268683,-0.15949172
1732203687917,2024-11-21T15:41:27.917Z,91488,-0.017881595,0.007268683,-0.15949172
1732203687943,2024-11-21T15:41:27.943Z,91514,-0.1332966,0.003989393,-0.16558978
1732203687950,2024-11-21T15:41:27.950Z,91521,-0.1332966,0.003989393,-0.16558978
1732203687976,2024-11-21T15:41:27.976Z,91547,-0.18347576,0.26956236,-0.012560454
1732203687982,2024-11-21T15:41:27.982Z,91553,-0.18347576,0.26956236,-0.012560454
1732203688002,2024-11-21T15:41:28.002Z,91573,-0.206559,0.41317704,-0.08779194
1732203688008,2024-11-21T15:41:28.008Z,91579,-0.206559,0.41317704,-0.08779194
1732203688026,2024-11-21T15:41:28.026Z,91597,-0.20608658,0.2759744,-0.087509595
1732203688031,2024-11-21T15:41:28.031Z,91602,-0.20608658,0.2759744,-0.087509595
1732203688045,2024-11-21T15:41:28.045Z,91616,-0.109238856,-0.10500108,-0.07682546
1732203688048,2024-11-21T15:41:28.048Z,91619,-0.109238856,-0.10500108,-0.07682546
1732203688059,2024-11-21T15:41:28.059Z,91630,-0.15273112,0.014974981,-0.16255118
1732203688063,2024-11-21T15:41:28.063Z,91634,-0.15273112,0.014974981,-0.16255118
1732203688073,2024-11-21T15:41:28.073Z,91644,-0.14299817,-0.08449163,-0.095001064
1732203688076,2024-11-21T15:41:28.076Z,91647,-0.14299817,-0.08449163,-0.095001064
1732203688086,2024-11-21T15:41:28.086Z,91657,-0.13788123,0.045702342,-0.0026042815
1732203688089,2024-11-21T15:41:28.089Z,91660,-0.13788123,0.045702342,-0.0026042815
1732203688099,2024-11-21T15:41:28.099Z,91670,-0.034787454,0.06482406,-0.2653299
1732203688103,2024-11-21T15:41:28.103Z,91674,-0.034787454,0.06482406,-0.2653299
1732203688111,2024-11-21T15:41:28.111Z,91682,0.041428827,0.01933051,-0.14270304
1732203688114,2024-11-21T15:41:28.114Z,91685,0.041428827,0.01933051,-0.14270304
1732203688131,2024-11-21T15:41:28.131Z,91702,-0.08704064,0.2363806,-0.013885041
1732203688134,2024-11-21T15:41:28.134Z,91705,-0.08704064,0.2363806,-0.013885041
1732203688141,2024-11-21T15:41:28.141Z,91712,0.015652956,0.2268886,-0.057983957
1732203688144,2024-11-21T15:41:28.144Z,91715,0.015652956,0.2268886,-0.057983957
1732203688151,2024-11-21T15:41:28.151Z,91722,-0.010033314,0.1894985,-0.057957284
1732203688153,2024-11-21T15:41:28.153Z,91724,-0.010033314,0.1894985,-0.057957284
1732203688271,2024-11-21T15:41:28.271Z,91842,-0.06295296,0.3963869,-0.12071752
1732203688278,2024-11-21T15:41:28.278Z,91849,-0.06295296,0.3963869,-0.12071752
1732203688300,2024-11-21T15:41:28.300Z,91871,-0.21068224,0.35807222,-0.14372422
1732203688307,2024-11-21T15:41:28.307Z,91878,-0.21068224,0.35807222,-0.14372422
1732203688327,2024-11-21T15:41:28.327Z,91898,-0.19804986,0.27666235,-0.11156614
1732203688333,2024-11-21T15:41:28.333Z,91904,-0.19804986,0.27666235,-0.11156614
1732203688347,2024-11-21T15:41:28.347Z,91918,0.036404464,0.13075928,-0.13184983
1732203688351,2024-11-21T15:41:28.351Z,91922,0.036404464,0.13075928,-0.13184983
1732203688365,2024-11-21T15:41:28.365Z,91936,-0.14422774,0.38326257,-0.17029534
1732203688368,2024-11-21T15:41:28.368Z,91939,-0.14422774,0.38326257,-0.17029534
1732203688379,2024-11-21T15:41:28.379Z,91950,-0.18510067,0.41583467,-0.20676507
1732203688382,2024-11-21T15:41:28.382Z,91953,-0.18510067,0.41583467,-0.20676507
1732203688490,2024-11-21T15:41:28.490Z,92061,0.0147994,0.40165344,-0.05348405
1732203688493,2024-11-21T15:41:28.493Z,92064,0.0147994,0.40165344,-0.05348405
1732203688503,2024-11-21T15:41:28.503Z,92074,0.08674662,0.18691522,-0.007643123
1732203688506,2024-11-21T15:41:28.506Z,92077,0.08674662,0.18691522,-0.007643123
1732203688516,2024-11-21T15:41:28.516Z,92087,0.1205805,-0.18031165,-0.006470729
1732203688519,2024-11-21T15:41:28.519Z,92090,0.1205805,-0.18031165,-0.006470729
1732203688528,2024-11-21T15:41:28.528Z,92099,-0.09642236,-0.044540327,-0.22192933
1732203688531,2024-11-21T15:41:28.531Z,92102,-0.09642236,-0.044540327,-0.22192933
1732203688582,2024-11-21T15:41:28.582Z,92153,-0.24326001,0.08995054,-0.29457918
1732203688589,2024-11-21T15:41:28.589Z,92160,-0.24326001,0.08995054,-0.29457918
1732203688630,2024-11-21T15:41:28.630Z,92201,0.09054696,0.05199213,-0.10715976
1732203688635,2024-11-21T15:41:28.635Z,92206,0.09054696,0.05199213,-0.10715976
1732203688654,2024-11-21T15:41:28.654Z,92225,0.32258818,0.011837672,-0.046783738
1732203688660,2024-11-21T15:41:28.660Z,92231,0.32258818,0.011837672,-0.046783738
1732203688679,2024-11-21T15:41:28.679Z,92250,0.25608647,-0.10117127,0.026178805
1732203688685,2024-11-21T15:41:28.685Z,92256,0.25608647,-0.10117127,0.026178805
1732203688768,2024-11-21T15:41:28.768Z,92339,-0.11613436,-0.14129178,0.17547502
1732203688775,2024-11-21T15:41:28.775Z,92346,-0.11613436,-0.14129178,0.17547502
1732203688798,2024-11-21T15:41:28.798Z,92369,0.072319895,0.041620173,0.22155648
1732203688804,2024-11-21T15:41:28.804Z,92375,0.072319895,0.041620173,0.22155648
1732203688825,2024-11-21T15:41:28.825Z,92396,0.21313982,0.08099174,0.142333
1732203688830,2024-11-21T15:41:28.830Z,92401,0.21313982,0.08099174,0.142333
1732203688842,2024-11-21T15:41:28.842Z,92413,0.096111715,0.06724368,-0.009871153
1732203688845,2024-11-21T15:41:28.845Z,92416,0.096111715,0.06724368,-0.009871153
1732203688858,2024-11-21T15:41:28.858Z,92429,-0.33371595,-1.1070193,-0.5104588
1732203688861,2024-11-21T15:41:28.861Z,92432,-0.33371595,-1.1070193,-0.5104588
1732203688872,2024-11-21T15:41:28.872Z,92443,-0.10422033,-0.79802775,-0.72233385
1732203688875,2024-11-21T15:41:28.875Z,92446,-0.10422033,-0.79802775,-0.72233385
1732203688885,2024-11-21T15:41:28.885Z,92456,0.3384184,-0.20103174,0.14958717
1732203688888,2024-11-21T15:41:28.888Z,92459,0.3384184,-0.20103174,0.14958717
1732203688901,2024-11-21T15:41:28.901Z,92472,0.3746933,-0.19205539,0.11392842
1732203688908,2024-11-21T15:41:28.908Z,92479,0.3746933,-0.19205539,0.11392842
1732203688927,2024-11-21T15:41:28.927Z,92498,0.21015012,-5.127386E-4,0.28440246
1732203688933,2024-11-21T15:41:28.933Z,92504,0.21015012,-5.127386E-4,0.28440246
1732203688953,2024-11-21T15:41:28.953Z,92524,-0.00558834,0.107769944,0.11905435
1732203688958,2024-11-21T15:41:28.958Z,92529,-0.00558834,0.107769944,0.11905435
1732203688986,2024-11-21T15:41:28.986Z,92557,-0.32864588,0.0662828,0.04226843
1732203688990,2024-11-21T15:41:28.990Z,92561,-0.32864588,0.0662828,0.04226843
1732203689012,2024-11-21T15:41:29.012Z,92583,-0.40345678,-0.01552307,0.062021628
1732203689017,2024-11-21T15:41:29.017Z,92588,-0.40345678,-0.01552307,0.062021628
1732203689029,2024-11-21T15:41:29.029Z,92600,0.3138895,-0.32360545,0.22230336
1732203689032,2024-11-21T15:41:29.032Z,92603,0.3138895,-0.32360545,0.22230336
1732203689046,2024-11-21T15:41:29.046Z,92617,0.29133922,-0.116868585,0.06256203
1732203689053,2024-11-21T15:41:29.053Z,92624,0.29133922,-0.116868585,0.06256203
1732203689080,2024-11-21T15:41:29.080Z,92651,0.152515,0.025356662,0.2902548
1732203689085,2024-11-21T15:41:29.085Z,92656,0.152515,0.025356662,0.2902548
1732203689107,2024-11-21T15:41:29.107Z,92678,0.053789753,-0.48618072,0.25035784
1732203689111,2024-11-21T15:41:29.111Z,92682,0.053789753,-0.48618072,0.25035784
1732203689122,2024-11-21T15:41:29.122Z,92693,0.36173302,-0.6273277,-0.011978098
1732203689125,2024-11-21T15:41:29.125Z,92696,0.36173302,-0.6273277,-0.011978098
1732203689171,2024-11-21T15:41:29.171Z,92742,0.05748891,-0.24889174,0.18033032
1732203689177,2024-11-21T15:41:29.177Z,92748,0.05748891,-0.24889174,0.18033032
1732203689196,2024-11-21T15:41:29.196Z,92767,0.036742568,-0.18261565,0.17997411
1732203689203,2024-11-21T15:41:29.203Z,92774,0.036742568,-0.18261565,0.17997411
1732203689221,2024-11-21T15:41:29.221Z,92792,-0.0753486,-0.18527757,0.037851047
1732203689227,2024-11-21T15:41:29.227Z,92798,-0.0753486,-0.18527757,0.037851047
1732203689242,2024-11-21T15:41:29.242Z,92813,0.19516818,-0.29927722,-0.1122383
1732203689245,2024-11-21T15:41:29.245Z,92816,0.19516818,-0.29927722,-0.1122383
1732203689256,2024-11-21T15:41:29.256Z,92827,0.040367622,-0.31300864,-0.012731039
1732203689259,2024-11-21T15:41:29.259Z,92830,0.040367622,-0.31300864,-0.012731039
1732203689270,2024-11-21T15:41:29.270Z,92841,0.31245103,0.082933165,-0.09057754
1732203689273,2024-11-21T15:41:29.273Z,92844,0.31245103,0.082933165,-0.09057754
1732203689282,2024-11-21T15:41:29.282Z,92853,0.2835194,-0.08414438,-0.04888351
1732203689285,2024-11-21T15:41:29.285Z,92856,0.2835194,-0.08414438,-0.04888351
1732203689293,2024-11-21T15:41:29.293Z,92864,-0.45248404,-0.18685259,0.085567825
1732203689295,2024-11-21T15:41:29.295Z,92866,-0.45248404,-0.18685259,0.085567825
1732203689303,2024-11-21T15:41:29.303Z,92874,-0.15018582,-0.28534925,0.065632045
1732203689306,2024-11-21T15:41:29.306Z,92877,-0.15018582,-0.28534925,0.065632045
1732203689349,2024-11-21T15:41:29.349Z,92920,0.09148822,0.5368994,0.10519596
1732203689352,2024-11-21T15:41:29.352Z,92923,0.09148822,0.5368994,0.10519596
1732203689363,2024-11-21T15:41:29.363Z,92934,-0.4661535,0.35137588,0.0522936
1732203689367,2024-11-21T15:41:29.367Z,92938,-0.4661535,0.35137588,0.0522936
1732203689377,2024-11-21T15:41:29.377Z,92948,-0.59767413,-0.28574944,0.08158096
1732203689380,2024-11-21T15:41:29.380Z,92951,-0.59767413,-0.28574944,0.08158096
1732203689532,2024-11-21T15:41:29.532Z,93103,0.44386658,-0.6021256,0.12802783
1732203689538,2024-11-21T15:41:29.538Z,93109,0.44386658,-0.6021256,0.12802783
1732203689562,2024-11-21T15:41:29.562Z,93133,0.43995288,0.0047775856,0.12567459
1732203689568,2024-11-21T15:41:29.568Z,93139,0.43995288,0.0047775856,0.12567459
1732203689588,2024-11-21T15:41:29.588Z,93159,0.18126847,0.52360433,0.088964105
1732203689594,2024-11-21T15:41:29.594Z,93165,0.18126847,0.52360433,0.088964105
1732203689611,2024-11-21T15:41:29.611Z,93182,0.36599323,0.4734506,0.16705908
1732203689615,2024-11-21T15:41:29.615Z,93186,0.36599323,0.4734506,0.16705908
1732203689628,2024-11-21T15:41:29.628Z,93199,-0.17268267,0.25779343,0.23373668
1732203689633,2024-11-21T15:41:29.633Z,93204,-0.17268267,0.25779343,0.23373668
1732203689647,2024-11-21T15:41:29.647Z,93218,-0.44042334,-0.14362763,0.06876113
1732203689649,2024-11-21T15:41:29.649Z,93220,-0.44042334,-0.14362763,0.06876113
1732203689890,2024-11-21T15:41:29.890Z,93461,-0.41347048,0.018077474,-0.20100237
1732203689897,2024-11-21T15:41:29.897Z,93468,-0.41347048,0.018077474,-0.20100237
1732203689918,2024-11-21T15:41:29.918Z,93489,-0.39775756,-0.052066814,-0.19358376
1732203689924,2024-11-21T15:41:29.924Z,93495,-0.39775756,-0.052066814,-0.19358376
1732203689979,2024-11-21T15:41:29.979Z,93550,-0.114981174,-0.005108228,-0.21194892
1732203689985,2024-11-21T15:41:29.985Z,93556,-0.114981174,-0.005108228,-0.21194892
1732203690006,2024-11-21T15:41:30.006Z,93577,-0.26462537,-0.48546517,-0.19462258
1732203690012,2024-11-21T15:41:30.012Z,93583,-0.26462537,-0.48546517,-0.19462258
1732203690030,2024-11-21T15:41:30.030Z,93601,-0.4045449,-0.38977185,-0.37102687
1732203690036,2024-11-21T15:41:30.036Z,93607,-0.4045449,-0.38977185,-0.37102687
1732203690053,2024-11-21T15:41:30.053Z,93624,-0.4087808,0.06267323,-0.37486607
1732203690059,2024-11-21T15:41:30.059Z,93630,-0.4087808,0.06267323,-0.37486607
1732203690074,2024-11-21T15:41:30.074Z,93645,-0.30222115,0.06596925,-0.05836651
1732203690077,2024-11-21T15:41:30.077Z,93648,-0.30222115,0.06596925,-0.05836651
1732203690088,2024-11-21T15:41:30.088Z,93659,0.1542189,0.32277825,0.002771244
1732203690091,2024-11-21T15:41:30.091Z,93662,0.1542189,0.32277825,0.002771244
1732203690109,2024-11-21T15:41:30.109Z,93680,0.10762632,0.28912354,-0.12998338
1732203690112,2024-11-21T15:41:30.112Z,93683,0.10762632,0.28912354,-0.12998338
1732203690124,2024-11-21T15:41:30.124Z,93695,-0.0066987993,0.20046356,-0.16191639
1732203690127,2024-11-21T15:41:30.127Z,93698,-0.0066987993,0.20046356,-0.16191639
1732203690136,2024-11-21T15:41:30.136Z,93707,-0.1541549,-0.18780343,-0.08914657
1732203690138,2024-11-21T15:41:30.138Z,93709,-0.1541549,-0.18780343,-0.08914657
1732203690154,2024-11-21T15:41:30.154Z,93725,-0.21513854,-0.07384875,-0.021589309
1732203690156,2024-11-21T15:41:30.156Z,93727,-0.21513854,-0.07384875,-0.021589309
1732203690165,2024-11-21T15:41:30.165Z,93736,-0.13728836,-0.06283243,-0.004668328
1732203690168,2024-11-21T15:41:30.168Z,93739,-0.13728836,-0.06283243,-0.004668328
1732203690176,2024-11-21T15:41:30.176Z,93747,-0.3459727,-0.008744223,-0.058921505
1732203690179,2024-11-21T15:41:30.179Z,93750,-0.3459727,-0.008744223,-0.058921505
1732203690198,2024-11-21T15:41:30.198Z,93769,-0.20493577,-0.08609641,-0.15235688
1732203690200,2024-11-21T15:41:30.200Z,93771,-0.20493577,-0.08609641,-0.15235688
1732203690210,2024-11-21T15:41:30.210Z,93781,7.830994E-4,-0.015241537,-0.0011570412
1732203690214,2024-11-21T15:41:30.214Z,93785,7.830994E-4,-0.015241537,-0.0011570412
1732203690252,2024-11-21T15:41:30.252Z,93823,-0.051735505,-0.16461305,0.024023175
1732203690263,2024-11-21T15:41:30.263Z,93834,-0.051735505,-0.16461305,0.024023175
1732203690279,2024-11-21T15:41:30.279Z,93850,0.17437552,-0.13438118,-0.101650886
1732203690284,2024-11-21T15:41:30.284Z,93855,0.17437552,-0.13438118,-0.101650886
1732203690297,2024-11-21T15:41:30.297Z,93868,-0.050273836,0.047623858,0.013755105
1732203690300,2024-11-21T15:41:30.300Z,93871,-0.050273836,0.047623858,0.013755105
1732203690312,2024-11-21T15:41:30.312Z,93883,-0.020060198,-0.086372696,0.012401041
1732203690317,2024-11-21T15:41:30.317Z,93888,-0.020060198,-0.086372696,0.012401041
1732203690331,2024-11-21T15:41:30.331Z,93902,-0.10780195,-0.08068157,0.028879082
1732203690336,2024-11-21T15:41:30.336Z,93907,-0.10780195,-0.08068157,0.028879082
1732203690350,2024-11-21T15:41:30.350Z,93921,-0.068814114,0.090002276,-0.12658903
1732203690353,2024-11-21T15:41:30.353Z,93924,-0.068814114,0.090002276,-0.12658903
1732203690361,2024-11-21T15:41:30.361Z,93932,-0.16661842,0.085379995,-0.15135983
1732203690363,2024-11-21T15:41:30.363Z,93934,-0.16661842,0.085379995,-0.15135983
1732203690427,2024-11-21T15:41:30.427Z,93998,0.011268251,-0.07414847,-0.1744647
1732203690432,2024-11-21T15:41:30.432Z,94003,0.011268251,-0.07414847,-0.1744647
1732203690449,2024-11-21T15:41:30.449Z,94020,-0.074707955,0.1336314,-0.17029192
1732203690454,2024-11-21T15:41:30.454Z,94025,-0.074707955,0.1336314,-0.17029192
1732203690465,2024-11-21T15:41:30.465Z,94036,-0.08910616,0.118496045,-0.28170994
1732203690468,2024-11-21T15:41:30.468Z,94039,-0.08910616,0.118496045,-0.28170994
1732203690478,2024-11-21T15:41:30.478Z,94049,-0.019114465,-0.05875075,-0.08908659
1732203690482,2024-11-21T15:41:30.482Z,94053,-0.019114465,-0.05875075,-0.08908659
1732203690492,2024-11-21T15:41:30.492Z,94063,-0.26231933,-0.03680612,-0.11826256
1732203690495,2024-11-21T15:41:30.495Z,94066,-0.26231933,-0.03680612,-0.11826256
1732203690506,2024-11-21T15:41:30.506Z,94077,-0.29782885,-0.2724245,-0.2015909
1732203690509,2024-11-21T15:41:30.509Z,94080,-0.29782885,-0.2724245,-0.2015909
1732203690611,2024-11-21T15:41:30.611Z,94182,0.06854434,0.1507816,-0.06586676
1732203690617,2024-11-21T15:41:30.617Z,94188,0.06854434,0.1507816,-0.06586676
1732203690636,2024-11-21T15:41:30.636Z,94207,-0.022766674,0.044138696,-0.0892607
1732203690641,2024-11-21T15:41:30.641Z,94212,-0.022766674,0.044138696,-0.0892607
1732203690658,2024-11-21T15:41:30.658Z,94229,-0.13778214,-0.02910138,-0.1438476
1732203690661,2024-11-21T15:41:30.661Z,94232,-0.13778214,-0.02910138,-0.1438476
1732203690672,2024-11-21T15:41:30.672Z,94243,-0.2879338,-0.20028546,-0.28578365
1732203690675,2024-11-21T15:41:30.675Z,94246,-0.2879338,-0.20028546,-0.28578365
1732203690685,2024-11-21T15:41:30.685Z,94256,-0.34759188,-0.1713106,-0.33128288
1732203690689,2024-11-21T15:41:30.689Z,94260,-0.34759188,-0.1713106,-0.33128288
1732203690706,2024-11-21T15:41:30.706Z,94277,-0.28536448,-0.074874714,-0.32052454
1732203690709,2024-11-21T15:41:30.709Z,94280,-0.28536448,-0.074874714,-0.32052454
1732203690720,2024-11-21T15:41:30.720Z,94291,-0.040261816,-0.2629448,-0.17893068
1732203690723,2024-11-21T15:41:30.723Z,94294,-0.040261816,-0.2629448,-0.17893068
1732203690734,2024-11-21T15:41:30.734Z,94305,-0.05301797,-0.13066971,-0.18231034
1732203690738,2024-11-21T15:41:30.738Z,94309,-0.05301797,-0.13066971,-0.18231034
1732203690746,2024-11-21T15:41:30.746Z,94317,-0.057395138,0.012941823,-0.12396711
1732203690749,2024-11-21T15:41:30.749Z,94320,-0.057395138,0.012941823,-0.12396711
1732203690785,2024-11-21T15:41:30.785Z,94356,-0.20076907,-0.1831364,-0.013048905
1732203690788,2024-11-21T15:41:30.788Z,94359,-0.20076907,-0.1831364,-0.013048905
1732203690797,2024-11-21T15:41:30.797Z,94368,-0.17444356,-0.19622284,-0.012242892
1732203690801,2024-11-21T15:41:30.801Z,94372,-0.17444356,-0.19622284,-0.012242892
1732203690811,2024-11-21T15:41:30.811Z,94382,-0.28735605,-0.030060435,0.038660344
1732203690814,2024-11-21T15:41:30.814Z,94385,-0.28735605,-0.030060435,0.038660344
1732203690830,2024-11-21T15:41:30.830Z,94401,-0.26153395,0.1111239,0.027972016
1732203690834,2024-11-21T15:41:30.834Z,94405,-0.26153395,0.1111239,0.027972016
1732203690843,2024-11-21T15:41:30.843Z,94414,-0.037764374,0.06781929,0.05101469
1732203690846,2024-11-21T15:41:30.846Z,94417,-0.037764374,0.06781929,0.05101469
1732203690855,2024-11-21T15:41:30.855Z,94426,0.12557648,0.06435552,0.087501355
1732203690858,2024-11-21T15:41:30.858Z,94429,0.12557648,0.06435552,0.087501355
1732203690920,2024-11-21T15:41:30.920Z,94491,0.2437528,-8.214514E-4,-0.026975034
1732203690923,2024-11-21T15:41:30.923Z,94494,0.2437528,-8.214514E-4,-0.026975034
1732203691016,2024-11-21T15:41:31.016Z,94587,0.018845465,0.05294195,-0.139385
1732203691021,2024-11-21T15:41:31.021Z,94592,0.018845465,0.05294195,-0.139385
1732203691040,2024-11-21T15:41:31.040Z,94611,0.0032465663,0.09666744,-0.18224068
1732203691045,2024-11-21T15:41:31.045Z,94616,0.0032465663,0.09666744,-0.18224068
1732203691056,2024-11-21T15:41:31.056Z,94627,-0.035821926,0.04959711,-0.25570387
1732203691060,2024-11-21T15:41:31.060Z,94631,-0.035821926,0.04959711,-0.25570387
1732203691071,2024-11-21T15:41:31.071Z,94642,-0.23151447,-0.045803577,-0.3282517
1732203691075,2024-11-21T15:41:31.075Z,94646,-0.23151447,-0.045803577,-0.3282517
1732203691087,2024-11-21T15:41:31.087Z,94658,-0.22501782,-0.03546867,-0.3293603
1732203691091,2024-11-21T15:41:31.091Z,94662,-0.22501782,-0.03546867,-0.3293603
1732203691101,2024-11-21T15:41:31.101Z,94672,-0.24123769,0.01232148,-0.28645888
1732203691104,2024-11-21T15:41:31.104Z,94675,-0.24123769,0.01232148,-0.28645888
1732203691119,2024-11-21T15:41:31.119Z,94690,-0.13715534,0.028603762,-0.11170372
1732203691125,2024-11-21T15:41:31.125Z,94696,-0.13715534,0.028603762,-0.11170372
1732203691147,2024-11-21T15:41:31.147Z,94718,-0.13032702,0.055586793,-0.040469125
1732203691153,2024-11-21T15:41:31.153Z,94724,-0.13032702,0.055586793,-0.040469125
1732203691172,2024-11-21T15:41:31.172Z,94743,0.0015848703,-0.11608537,-0.052956864
1732203691195,2024-11-21T15:41:31.195Z,94766,0.0015848703,-0.11608537,-0.052956864
1732203691205,2024-11-21T15:41:31.205Z,94776,0.10547397,-0.27112177,-0.06653712
1732203691207,2024-11-21T15:41:31.207Z,94778,0.10547397,-0.27112177,-0.06653712
1732203691219,2024-11-21T15:41:31.219Z,94790,-0.12198683,-0.026954927,-0.23301071
1732203691221,2024-11-21T15:41:31.221Z,94792,-0.12198683,-0.026954927,-0.23301071
1732203691228,2024-11-21T15:41:31.228Z,94799,-0.12166489,0.039365876,-0.2455913
1732203691231,2024-11-21T15:41:31.231Z,94802,-0.12166489,0.039365876,-0.2455913
1732203691237,2024-11-21T15:41:31.237Z,94808,0.040268406,-0.02932855,-0.14602973
1732203691239,2024-11-21T15:41:31.239Z,94810,0.040268406,-0.02932855,-0.14602973
1732203691279,2024-11-21T15:41:31.279Z,94850,0.012568392,-0.2712766,-0.036149506
1732203691282,2024-11-21T15:41:31.282Z,94853,0.012568392,-0.2712766,-0.036149506
1732203691293,2024-11-21T15:41:31.293Z,94864,0.21148269,0.21771629,-0.10831702
1732203691296,2024-11-21T15:41:31.296Z,94867,0.21148269,0.21771629,-0.10831702
1732203691305,2024-11-21T15:41:31.305Z,94876,-0.083565444,0.20319977,-0.23802698
1732203691309,2024-11-21T15:41:31.309Z,94880,-0.083565444,0.20319977,-0.23802698
1732203691324,2024-11-21T15:41:31.324Z,94895,-0.4491064,0.12224791,-0.1898713
1732203691327,2024-11-21T15:41:31.327Z,94898,-0.4491064,0.12224791,-0.1898713
1732203691336,2024-11-21T15:41:31.336Z,94907,-0.26109406,-0.12612689,-0.22134781
1732203691339,2024-11-21T15:41:31.339Z,94910,-0.26109406,-0.12612689,-0.22134781
1732203691348,2024-11-21T15:41:31.348Z,94919,0.020913195,-0.08620047,-0.11602451
1732203691350,2024-11-21T15:41:31.350Z,94921,0.020913195,-0.08620047,-0.11602451
1732203691357,2024-11-21T15:41:31.357Z,94928,0.051985394,0.08394043,-0.08370837
1732203691359,2024-11-21T15:41:31.359Z,94930,0.051985394,0.08394043,-0.08370837
1732203691461,2024-11-21T15:41:31.461Z,95032,0.45773673,0.20901884,-0.18521693
1732203691464,2024-11-21T15:41:31.464Z,95035,0.45773673,0.20901884,-0.18521693
1732203691476,2024-11-21T15:41:31.476Z,95047,0.61792725,0.29166186,-0.0915282
1732203691480,2024-11-21T15:41:31.480Z,95051,0.61792725,0.29166186,-0.0915282
1732203691493,2024-11-21T15:41:31.493Z,95064,0.49931207,0.5328077,-0.12023175
1732203691495,2024-11-21T15:41:31.495Z,95066,0.49931207,0.5328077,-0.12023175
