Timestamp (ms),ISO DateTime,Elapsed Time (ms),Acceleration X,Acceleration Y,Acceleration Z
1732438424895,2024-11-24T08:53:44.895Z,15508,0.01499584,-0.04398125,-0.16527306
1732438424901,2024-11-24T08:53:44.901Z,15514,0.01499584,-0.04398125,-0.16527306
1732438424927,2024-11-24T08:53:44.927Z,15540,0.024171479,-0.04095811,-0.1599077
1732438424935,2024-11-24T08:53:44.935Z,15548,0.024171479,-0.04095811,-0.1599077
1732438424957,2024-11-24T08:53:44.957Z,15570,0.031024452,-0.04440068,-0.15040722
1732438424965,2024-11-24T08:53:44.965Z,15578,0.031024452,-0.04440068,-0.15040722
1732438424984,2024-11-24T08:53:44.984Z,15597,-0.015937028,-0.044799495,-0.14723743
1732438424989,2024-11-24T08:53:44.989Z,15602,-0.015937028,-0.044799495,-0.14723743
1732438425006,2024-11-24T08:53:45.006Z,15619,-0.001011668,-0.036949754,-0.14599024
1732438425011,2024-11-24T08:53:45.011Z,15624,-0.001011668,-0.036949754,-0.14599024
1732438425024,2024-11-24T08:53:45.024Z,15637,0.01810913,-0.046696797,-0.1460571
1732438425029,2024-11-24T08:53:45.029Z,15642,0.01810913,-0.046696797,-0.1460571
1732438425041,2024-11-24T08:53:45.041Z,15654,0.016675381,-0.044312283,-0.14326327
1732438425044,2024-11-24T08:53:45.044Z,15657,0.016675381,-0.044312283,-0.14326327
1732438425057,2024-11-24T08:53:45.057Z,15670,0.01663991,-0.049405925,-0.11530411
1732438425060,2024-11-24T08:53:45.060Z,15673,0.01663991,-0.049405925,-0.11530411
1732438425073,2024-11-24T08:53:45.073Z,15686,0.012414303,-0.0432728,-0.114709176
1732438425076,2024-11-24T08:53:45.076Z,15689,0.012414303,-0.0432728,-0.114709176
1732438425088,2024-11-24T08:53:45.088Z,15701,0.013483736,-0.046174575,-0.10189827
1732438425093,2024-11-24T08:53:45.093Z,15706,0.013483736,-0.046174575,-0.10189827
1732438425107,2024-11-24T08:53:45.107Z,15720,0.011086507,-0.043343306,-0.09759326
1732438425112,2024-11-24T08:53:45.112Z,15725,0.011086507,-0.043343306,-0.09759326
1732438425122,2024-11-24T08:53:45.122Z,15735,0.010593266,-0.024197176,-0.119995825
1732438425127,2024-11-24T08:53:45.127Z,15740,0.010593266,-0.024197176,-0.119995825
1732438425139,2024-11-24T08:53:45.139Z,15752,0.011463463,-0.021548148,-0.10758952
1732438425144,2024-11-24T08:53:45.144Z,15757,0.011463463,-0.021548148,-0.10758952
1732438425158,2024-11-24T08:53:45.158Z,15771,0.013751532,-0.023836777,-0.10549605
1732438425162,2024-11-24T08:53:45.162Z,15775,0.013751532,-0.023836777,-0.10549605
1732438425173,2024-11-24T08:53:45.173Z,15786,0.007836829,-0.01961642,-0.10335081
1732438425177,2024-11-24T08:53:45.177Z,15790,0.007836829,-0.01961642,-0.10335081
1732438425188,2024-11-24T08:53:45.188Z,15801,0.0069776694,-0.020451779,-0.102388985
1732438425193,2024-11-24T08:53:45.193Z,15806,0.0069776694,-0.020451779,-0.102388985
1732438425204,2024-11-24T08:53:45.204Z,15817,0.004705671,-0.016437296,-0.09907833
1732438425209,2024-11-24T08:53:45.209Z,15822,0.004705671,-0.016437296,-0.09907833
1732438425221,2024-11-24T08:53:45.221Z,15834,0.011033483,-0.025374068,-0.082299404
1732438425224,2024-11-24T08:53:45.224Z,15837,0.011033483,-0.025374068,-0.082299404
1732438425238,2024-11-24T08:53:45.238Z,15851,-7.402496E-4,-0.022116853,-0.07977429
1732438425242,2024-11-24T08:53:45.242Z,15855,-7.402496E-4,-0.022116853,-0.07977429
1732438425256,2024-11-24T08:53:45.256Z,15869,6.974363E-4,-0.021846699,-0.0769114
1732438425260,2024-11-24T08:53:45.260Z,15873,6.974363E-4,-0.021846699,-0.0769114
1732438425273,2024-11-24T08:53:45.273Z,15886,0.020207055,-0.019123277,-0.06897012
1732438425277,2024-11-24T08:53:45.277Z,15890,0.020207055,-0.019123277,-0.06897012
1732438425290,2024-11-24T08:53:45.290Z,15903,0.00724972,-0.0126503715,-0.07795776
1732438425294,2024-11-24T08:53:45.294Z,15907,0.00724972,-0.0126503715,-0.07795776
1732438425306,2024-11-24T08:53:45.306Z,15919,-0.005100667,-0.009050261,-0.08396287
1732438425310,2024-11-24T08:53:45.310Z,15923,-0.005100667,-0.009050261,-0.08396287
1732438425323,2024-11-24T08:53:45.323Z,15936,0.009644397,-0.009801889,-0.06886721
1732438425328,2024-11-24T08:53:45.328Z,15941,0.009644397,-0.009801889,-0.06886721
1732438425340,2024-11-24T08:53:45.340Z,15953,0.008314947,-0.012148185,-0.06363557
1732438425344,2024-11-24T08:53:45.344Z,15957,0.008314947,-0.012148185,-0.06363557
1732438425356,2024-11-24T08:53:45.356Z,15969,0.008932397,-0.013066884,-0.06532015
1732438425360,2024-11-24T08:53:45.360Z,15973,0.008932397,-0.013066884,-0.06532015
1732438425373,2024-11-24T08:53:45.373Z,15986,0.0073302165,-0.010083032,-0.065973654
1732438425377,2024-11-24T08:53:45.377Z,15990,0.0073302165,-0.010083032,-0.065973654
1732438425389,2024-11-24T08:53:45.389Z,16002,0.0072216154,-0.016447507,-0.06316871
1732438425393,2024-11-24T08:53:45.393Z,16006,0.0072216154,-0.016447507,-0.06316871
1732438425407,2024-11-24T08:53:45.407Z,16020,0.006804374,-0.032077644,-0.058046114
1732438425411,2024-11-24T08:53:45.411Z,16024,0.006804374,-0.032077644,-0.058046114
1732438425422,2024-11-24T08:53:45.422Z,16035,0.00176208,-0.022200778,-0.04909286
1732438425426,2024-11-24T08:53:45.426Z,16039,0.00176208,-0.022200778,-0.04909286
1732438425439,2024-11-24T08:53:45.439Z,16052,0.00139108,-0.018477941,-0.05912277
1732438425443,2024-11-24T08:53:45.443Z,16056,0.00139108,-0.018477941,-0.05912277
1732438425457,2024-11-24T08:53:45.457Z,16070,0.0023360604,-0.01865036,-0.06752183
1732438425461,2024-11-24T08:53:45.461Z,16074,0.0023360604,-0.01865036,-0.06752183
1732438425478,2024-11-24T08:53:45.478Z,16091,-0.0066815256,-0.0024728149,-0.05361432
1732438425482,2024-11-24T08:53:45.482Z,16095,-0.0066815256,-0.0024728149,-0.05361432
1732438425495,2024-11-24T08:53:45.495Z,16108,-0.010251393,0.0021562735,-0.057722013
1732438425499,2024-11-24T08:53:45.499Z,16112,-0.010251393,0.0021562735,-0.057722013
1732438425511,2024-11-24T08:53:45.511Z,16124,-0.009370766,0.007781665,-0.06036005
1732438425516,2024-11-24T08:53:45.516Z,16129,-0.009370766,0.007781665,-0.06036005
1732438425530,2024-11-24T08:53:45.530Z,16143,0.0030712287,0.0018454699,-0.044843256
1732438425535,2024-11-24T08:53:45.535Z,16148,0.0030712287,0.0018454699,-0.044843256
1732438425548,2024-11-24T08:53:45.548Z,16161,0.0019089483,0.0070034885,-0.061007574
1732438425552,2024-11-24T08:53:45.552Z,16165,0.0019089483,0.0070034885,-0.061007574
1732438425563,2024-11-24T08:53:45.563Z,16176,-0.0015530946,-4.5968994E-4,-0.047310624
1732438425566,2024-11-24T08:53:45.566Z,16179,-0.0015530946,-4.5968994E-4,-0.047310624
1732438425579,2024-11-24T08:53:45.579Z,16192,0.0067135203,-0.012554777,-0.035963543
1732438425582,2024-11-24T08:53:45.582Z,16195,0.0067135203,-0.012554777,-0.035963543
1732438425596,2024-11-24T08:53:45.596Z,16209,0.02518869,-0.024960862,-0.013110475
1732438425601,2024-11-24T08:53:45.601Z,16214,0.02518869,-0.024960862,-0.013110475
1732438425615,2024-11-24T08:53:45.615Z,16228,0.019145304,-0.014511888,-0.044618055
1732438425618,2024-11-24T08:53:45.618Z,16231,0.019145304,-0.014511888,-0.044618055
1732438425632,2024-11-24T08:53:45.632Z,16245,-0.010460572,-0.011168803,-0.039233547
1732438425636,2024-11-24T08:53:45.636Z,16249,-0.010460572,-0.011168803,-0.039233547
1732438425656,2024-11-24T08:53:45.656Z,16269,-9.683441E-5,-0.012056382,-0.03273905
1732438425667,2024-11-24T08:53:45.667Z,16280,-9.683441E-5,-0.012056382,-0.03273905
1732438425694,2024-11-24T08:53:45.694Z,16307,-0.004331559,-0.0066359895,-0.04056421
1732438425700,2024-11-24T08:53:45.700Z,16313,-0.004331559,-0.0066359895,-0.04056421
1732438425722,2024-11-24T08:53:45.722Z,16335,-0.008676952,-0.0040887804,-0.04077402
1732438425729,2024-11-24T08:53:45.729Z,16342,-0.008676952,-0.0040887804,-0.04077402
1732438425748,2024-11-24T08:53:45.748Z,16361,-0.0046257335,-0.008337825,-0.03903674
1732438425751,2024-11-24T08:53:45.751Z,16364,-0.0046257335,-0.008337825,-0.03903674
1732438425765,2024-11-24T08:53:45.765Z,16378,8.4768404E-4,-0.005747048,-0.039689273
1732438425769,2024-11-24T08:53:45.769Z,16382,8.4768404E-4,-0.005747048,-0.039689273
1732438425785,2024-11-24T08:53:45.785Z,16398,-0.0033641874,-0.00392589,-0.037880853
1732438425790,2024-11-24T08:53:45.790Z,16403,-0.0033641874,-0.00392589,-0.037880853
1732438425803,2024-11-24T08:53:45.803Z,16416,0.009267999,-3.8694867E-4,-0.040897917
1732438425807,2024-11-24T08:53:45.807Z,16420,0.009267999,-3.8694867E-4,-0.040897917
1732438425819,2024-11-24T08:53:45.819Z,16432,0.0073461896,0.01243312,-0.039597616
1732438425823,2024-11-24T08:53:45.823Z,16436,0.0073461896,0.01243312,-0.039597616
1732438425837,2024-11-24T08:53:45.837Z,16450,-0.0049477206,0.009825131,-0.041481692
1732438425841,2024-11-24T08:53:45.841Z,16454,-0.0049477206,0.009825131,-0.041481692
1732438425854,2024-11-24T08:53:45.854Z,16467,0.015313865,0.011367674,-0.045884438
1732438425857,2024-11-24T08:53:45.857Z,16470,0.015313865,0.011367674,-0.045884438
1732438425872,2024-11-24T08:53:45.872Z,16485,0.026575442,0.027006371,-0.054663695
1732438425876,2024-11-24T08:53:45.876Z,16489,0.026575442,0.027006371,-0.054663695
1732438425889,2024-11-24T08:53:45.889Z,16502,-0.009488605,0.049186338,-0.06135363
1732438425893,2024-11-24T08:53:45.893Z,16506,-0.009488605,0.049186338,-0.06135363
1732438425909,2024-11-24T08:53:45.909Z,16522,-0.058006316,0.036384456,-0.07073388
1732438425915,2024-11-24T08:53:45.915Z,16528,-0.058006316,0.036384456,-0.07073388
1732438425940,2024-11-24T08:53:45.940Z,16553,-0.06261722,0.037735615,-0.033742793
1732438425947,2024-11-24T08:53:45.947Z,16560,-0.06261722,0.037735615,-0.033742793
1732438425963,2024-11-24T08:53:45.963Z,16576,-0.014307837,-0.014530364,0.03410154
1732438425966,2024-11-24T08:53:45.966Z,16579,-0.014307837,-0.014530364,0.03410154
1732438425977,2024-11-24T08:53:45.977Z,16590,-0.009344921,0.113841526,-0.0430891
1732438425982,2024-11-24T08:53:45.982Z,16595,-0.009344921,0.113841526,-0.0430891
1732438425994,2024-11-24T08:53:45.994Z,16607,-0.0441747,0.1578891,-0.09284122
1732438426000,2024-11-24T08:53:46Z,16613,-0.0441747,0.1578891,-0.09284122
1732438426011,2024-11-24T08:53:46.011Z,16624,-0.08161293,0.1878931,-0.13084547
1732438426014,2024-11-24T08:53:46.014Z,16627,-0.08161293,0.1878931,-0.13084547
1732438426025,2024-11-24T08:53:46.025Z,16638,-0.10772225,0.18186392,-0.13444006
1732438426028,2024-11-24T08:53:46.028Z,16641,-0.10772225,0.18186392,-0.13444006
1732438426040,2024-11-24T08:53:46.040Z,16653,-0.06353677,0.17999142,-0.119287476
1732438426043,2024-11-24T08:53:46.043Z,16656,-0.06353677,0.17999142,-0.119287476
1732438426056,2024-11-24T08:53:46.056Z,16669,-0.039225083,0.17346881,-0.08896287
1732438426060,2024-11-24T08:53:46.060Z,16673,-0.039225083,0.17346881,-0.08896287
1732438426072,2024-11-24T08:53:46.072Z,16685,-0.037871663,0.047489755,-0.0031578764
1732438426076,2024-11-24T08:53:46.076Z,16689,-0.037871663,0.047489755,-0.0031578764
1732438426088,2024-11-24T08:53:46.088Z,16701,-0.0019694606,0.020845534,-0.006808507
1732438426092,2024-11-24T08:53:46.092Z,16705,-0.0019694606,0.020845534,-0.006808507
1732438426104,2024-11-24T08:53:46.104Z,16717,0.0027092241,0.017498948,-0.009921041
1732438426109,2024-11-24T08:53:46.109Z,16722,0.0027092241,0.017498948,-0.009921041
1732438426125,2024-11-24T08:53:46.125Z,16738,0.02727779,0.07121236,-0.031494256
1732438426132,2024-11-24T08:53:46.132Z,16745,0.02727779,0.07121236,-0.031494256
1732438426152,2024-11-24T08:53:46.152Z,16765,-0.0151640065,0.10135001,-0.021540929
1732438426155,2024-11-24T08:53:46.155Z,16768,-0.0151640065,0.10135001,-0.021540929
1732438426166,2024-11-24T08:53:46.166Z,16779,-0.04769361,0.09883382,0.029977994
1732438426171,2024-11-24T08:53:46.171Z,16784,-0.04769361,0.09883382,0.029977994
1732438426184,2024-11-24T08:53:46.184Z,16797,-0.02034962,0.12092078,0.007275077
1732438426187,2024-11-24T08:53:46.187Z,16800,-0.02034962,0.12092078,0.007275077
1732438426200,2024-11-24T08:53:46.200Z,16813,-0.0086667165,0.08410556,-0.024775388
1732438426204,2024-11-24T08:53:46.204Z,16817,-0.0086667165,0.08410556,-0.024775388
1732438426216,2024-11-24T08:53:46.216Z,16829,3.7727252E-4,0.09040945,-0.025365656
1732438426219,2024-11-24T08:53:46.219Z,16832,3.7727252E-4,0.09040945,-0.025365656
1732438426228,2024-11-24T08:53:46.228Z,16841,-0.005141268,0.19647558,-0.052939977
1732438426232,2024-11-24T08:53:46.232Z,16845,-0.005141268,0.19647558,-0.052939977
1732438426243,2024-11-24T08:53:46.243Z,16856,-0.012545077,0.1795927,-0.020035436
1732438426247,2024-11-24T08:53:46.247Z,16860,-0.012545077,0.1795927,-0.020035436
1732438426258,2024-11-24T08:53:46.258Z,16871,-0.0036555172,0.120324016,-0.05971005
1732438426261,2024-11-24T08:53:46.261Z,16874,-0.0036555172,0.120324016,-0.05971005
1732438426271,2024-11-24T08:53:46.271Z,16884,-0.081170805,0.10503366,-0.03712283
1732438426275,2024-11-24T08:53:46.275Z,16888,-0.081170805,0.10503366,-0.03712283
1732438426289,2024-11-24T08:53:46.289Z,16902,-0.04269277,0.06481482,-0.053574786
1732438426292,2024-11-24T08:53:46.292Z,16905,-0.04269277,0.06481482,-0.053574786
1732438426305,2024-11-24T08:53:46.305Z,16918,-0.028889062,0.029469948,-0.043830324
1732438426308,2024-11-24T08:53:46.308Z,16921,-0.028889062,0.029469948,-0.043830324
1732438426321,2024-11-24T08:53:46.321Z,16934,-0.116520144,0.095055945,-0.11699622
1732438426325,2024-11-24T08:53:46.325Z,16938,-0.116520144,0.095055945,-0.11699622
1732438426337,2024-11-24T08:53:46.337Z,16950,-0.10526878,0.12720808,-0.12003514
1732438426340,2024-11-24T08:53:46.340Z,16953,-0.10526878,0.12720808,-0.12003514
1732438426352,2024-11-24T08:53:46.352Z,16965,-0.089096226,0.15546443,-0.12451104
1732438426355,2024-11-24T08:53:46.355Z,16968,-0.089096226,0.15546443,-0.12451104
1732438426367,2024-11-24T08:53:46.367Z,16980,-0.03455903,0.10039261,-0.14333105
1732438426371,2024-11-24T08:53:46.371Z,16984,-0.03455903,0.10039261,-0.14333105
1732438426383,2024-11-24T08:53:46.383Z,16996,-0.03433249,0.12570512,-0.16090117
1732438426387,2024-11-24T08:53:46.387Z,17000,-0.03433249,0.12570512,-0.16090117
1732438426397,2024-11-24T08:53:46.397Z,17010,-0.09139683,0.14556947,-0.13561265
1732438426401,2024-11-24T08:53:46.401Z,17014,-0.09139683,0.14556947,-0.13561265
1732438426419,2024-11-24T08:53:46.419Z,17032,-0.06129685,0.06237692,-0.14835472
1732438426423,2024-11-24T08:53:46.423Z,17036,-0.06129685,0.06237692,-0.14835472
1732438426436,2024-11-24T08:53:46.436Z,17049,-0.027956396,0.05111301,-0.10281708
1732438426439,2024-11-24T08:53:46.439Z,17052,-0.027956396,0.05111301,-0.10281708
1732438426453,2024-11-24T08:53:46.453Z,17066,-0.010115075,0.03545992,-0.09409796
1732438426462,2024-11-24T08:53:46.462Z,17075,-0.010115075,0.03545992,-0.09409796
1732438426486,2024-11-24T08:53:46.486Z,17099,-0.008323894,0.105102025,-0.08789615
1732438426492,2024-11-24T08:53:46.492Z,17105,-0.008323894,0.105102025,-0.08789615
1732438426504,2024-11-24T08:53:46.504Z,17117,-0.023296699,0.069449164,-0.12211061
1732438426507,2024-11-24T08:53:46.507Z,17120,-0.023296699,0.069449164,-0.12211061
1732438426519,2024-11-24T08:53:46.519Z,17132,-0.028310377,0.1303164,-0.108276844
1732438426523,2024-11-24T08:53:46.523Z,17136,-0.028310377,0.1303164,-0.108276844
1732438426536,2024-11-24T08:53:46.536Z,17149,0.006566822,0.053573765,-0.06472769
1732438426540,2024-11-24T08:53:46.540Z,17153,0.006566822,0.053573765,-0.06472769
1732438426551,2024-11-24T08:53:46.551Z,17164,0.014096251,0.01118553,-0.074196726
1732438426555,2024-11-24T08:53:46.555Z,17168,0.014096251,0.01118553,-0.074196726
1732438426568,2024-11-24T08:53:46.568Z,17181,-0.005229958,0.017554963,-0.019433958
1732438426572,2024-11-24T08:53:46.572Z,17185,-0.005229958,0.017554963,-0.019433958
1732438426584,2024-11-24T08:53:46.584Z,17197,-0.041446052,-1.6921102E-4,-0.010804683
1732438426588,2024-11-24T08:53:46.588Z,17201,-0.041446052,-1.6921102E-4,-0.010804683
1732438426602,2024-11-24T08:53:46.602Z,17215,2.7688855E-4,0.016728066,0.0059654177
1732438426605,2024-11-24T08:53:46.605Z,17218,2.7688855E-4,0.016728066,0.0059654177
1732438426618,2024-11-24T08:53:46.618Z,17231,0.03260701,0.077522665,0.025132334
1732438426622,2024-11-24T08:53:46.622Z,17235,0.03260701,0.077522665,0.025132334
1732438426632,2024-11-24T08:53:46.632Z,17245,0.05401313,-0.010989576,0.067150936
1732438426636,2024-11-24T08:53:46.636Z,17249,0.05401313,-0.010989576,0.067150936
1732438426648,2024-11-24T08:53:46.648Z,17261,-0.03345054,-0.0048469235,0.06028979
1732438426651,2024-11-24T08:53:46.651Z,17264,-0.03345054,-0.0048469235,0.06028979
1732438426663,2024-11-24T08:53:46.663Z,17276,-0.059450846,0.061356112,0.012078555
1732438426666,2024-11-24T08:53:46.666Z,17279,-0.059450846,0.061356112,0.012078555
1732438426675,2024-11-24T08:53:46.675Z,17288,0.0674428,-0.051536817,0.0598751
1732438426678,2024-11-24T08:53:46.678Z,17291,0.0674428,-0.051536817,0.0598751
1732438426688,2024-11-24T08:53:46.688Z,17301,0.027431125,-0.054374892,0.07048636
1732438426691,2024-11-24T08:53:46.691Z,17304,0.027431125,-0.054374892,0.07048636
1732438426702,2024-11-24T08:53:46.702Z,17315,-0.0033205962,-0.029926136,0.03702257
1732438426704,2024-11-24T08:53:46.704Z,17317,-0.0033205962,-0.029926136,0.03702257
1732438426713,2024-11-24T08:53:46.713Z,17326,0.023778744,-0.08157644,0.017026154
1732438426716,2024-11-24T08:53:46.716Z,17329,0.023778744,-0.08157644,0.017026154
1732438426727,2024-11-24T08:53:46.727Z,17340,0.0586271,-0.09601267,0.063017055
1732438426731,2024-11-24T08:53:46.731Z,17344,0.0586271,-0.09601267,0.063017055
1732438426742,2024-11-24T08:53:46.742Z,17355,0.11061203,-0.11649041,0.04339176
1732438426745,2024-11-24T08:53:46.745Z,17358,0.11061203,-0.11649041,0.04339176
1732438426755,2024-11-24T08:53:46.755Z,17368,0.029243434,-0.05146077,0.07510373
1732438426757,2024-11-24T08:53:46.757Z,17370,0.029243434,-0.05146077,0.07510373
1732438426766,2024-11-24T08:53:46.766Z,17379,0.0350517,-0.065884255,0.022091812
1732438426769,2024-11-24T08:53:46.769Z,17382,0.0350517,-0.065884255,0.022091812
1732438426781,2024-11-24T08:53:46.781Z,17394,0.05841765,-0.0755006,0.018714132
1732438426785,2024-11-24T08:53:46.785Z,17398,0.05841765,-0.0755006,0.018714132
1732438426795,2024-11-24T08:53:46.795Z,17408,0.08061286,-0.06581852,0.049300335
1732438426798,2024-11-24T08:53:46.798Z,17411,0.08061286,-0.06581852,0.049300335
1732438426808,2024-11-24T08:53:46.808Z,17421,0.10806842,-0.0518836,0.038933244
1732438426812,2024-11-24T08:53:46.812Z,17425,0.10806842,-0.0518836,0.038933244
1732438426823,2024-11-24T08:53:46.823Z,17436,0.068975255,0.027250852,-0.005712355
1732438426827,2024-11-24T08:53:46.827Z,17440,0.068975255,0.027250852,-0.005712355
1732438426837,2024-11-24T08:53:46.837Z,17450,0.06675309,0.021325743,0.01912437
1732438426839,2024-11-24T08:53:46.839Z,17452,0.06675309,0.021325743,0.01912437
1732438426848,2024-11-24T08:53:46.848Z,17461,0.0338998,-0.096204445,0.013120808
1732438426851,2024-11-24T08:53:46.851Z,17464,0.0338998,-0.096204445,0.013120808
1732438426861,2024-11-24T08:53:46.861Z,17474,0.030788165,-0.17761897,-0.030461388
1732438426865,2024-11-24T08:53:46.865Z,17478,0.030788165,-0.17761897,-0.030461388
1732438426875,2024-11-24T08:53:46.875Z,17488,0.033988904,-0.15068562,-0.063004
1732438426878,2024-11-24T08:53:46.878Z,17491,0.033988904,-0.15068562,-0.063004
1732438426888,2024-11-24T08:53:46.888Z,17501,-0.034840573,-0.007192538,-0.079315744
1732438426891,2024-11-24T08:53:46.891Z,17504,-0.034840573,-0.007192538,-0.079315744
1732438426903,2024-11-24T08:53:46.903Z,17516,-0.056104224,0.06616958,-0.04629317
1732438426906,2024-11-24T08:53:46.906Z,17519,-0.056104224,0.06616958,-0.04629317
1732438426916,2024-11-24T08:53:46.916Z,17529,0.07348448,-0.18611579,-0.051694673
1732438426919,2024-11-24T08:53:46.919Z,17532,0.07348448,-0.18611579,-0.051694673
1732438426929,2024-11-24T08:53:46.929Z,17542,0.02449174,-0.1377085,-0.010626793
1732438426933,2024-11-24T08:53:46.933Z,17546,0.02449174,-0.1377085,-0.010626793
1732438426942,2024-11-24T08:53:46.942Z,17555,-0.028621193,-0.06531847,0.03206257
1732438426945,2024-11-24T08:53:46.945Z,17558,-0.028621193,-0.06531847,0.03206257
1732438426956,2024-11-24T08:53:46.956Z,17569,0.028112393,-0.035491236,-0.014688003
1732438426960,2024-11-24T08:53:46.960Z,17573,0.028112393,-0.035491236,-0.014688003
1732438426975,2024-11-24T08:53:46.975Z,17588,0.12796715,-0.085758574,0.025326539
1732438426983,2024-11-24T08:53:46.983Z,17596,0.12796715,-0.085758574,0.025326539
1732438427011,2024-11-24T08:53:47.011Z,17624,0.15094051,-0.053389966,0.032096364
1732438427017,2024-11-24T08:53:47.017Z,17630,0.15094051,-0.053389966,0.032096364
1732438427034,2024-11-24T08:53:47.034Z,17647,0.026532993,-0.08182219,-0.030349238
1732438427044,2024-11-24T08:53:47.044Z,17657,0.026532993,-0.08182219,-0.030349238
1732438427074,2024-11-24T08:53:47.074Z,17687,0.097854905,-0.07300736,0.029731082
1732438427083,2024-11-24T08:53:47.083Z,17696,0.097854905,-0.07300736,0.029731082
1732438427111,2024-11-24T08:53:47.111Z,17724,0.14959799,-0.07386295,0.044866547
1732438427116,2024-11-24T08:53:47.116Z,17729,0.14959799,-0.07386295,0.044866547
1732438427131,2024-11-24T08:53:47.131Z,17744,0.0734485,0.07323137,-0.014066371
1732438427135,2024-11-24T08:53:47.135Z,17748,0.0734485,0.07323137,-0.014066371
1732438427151,2024-11-24T08:53:47.151Z,17764,0.040402364,0.09303752,-7.1075925E-4
1732438427157,2024-11-24T08:53:47.157Z,17770,0.040402364,0.09303752,-7.1075925E-4
1732438427180,2024-11-24T08:53:47.180Z,17793,0.029065568,0.035407115,-0.049008083
1732438427186,2024-11-24T08:53:47.186Z,17799,0.029065568,0.035407115,-0.049008083
1732438427197,2024-11-24T08:53:47.197Z,17810,-0.030653818,-0.16109872,-0.030475538
1732438427201,2024-11-24T08:53:47.201Z,17814,-0.030653818,-0.16109872,-0.030475538
1732438427212,2024-11-24T08:53:47.212Z,17825,-4.5662664E-4,-0.06975778,-0.017114503
1732438427216,2024-11-24T08:53:47.216Z,17829,-4.5662664E-4,-0.06975778,-0.017114503
1732438427226,2024-11-24T08:53:47.226Z,17839,-0.021673355,-0.070497006,0.023830455
1732438427230,2024-11-24T08:53:47.230Z,17843,-0.021673355,-0.070497006,0.023830455
1732438427239,2024-11-24T08:53:47.239Z,17852,0.08983958,-0.16872814,-0.13348058
1732438427242,2024-11-24T08:53:47.242Z,17855,0.08983958,-0.16872814,-0.13348058
1732438427251,2024-11-24T08:53:47.251Z,17864,0.15859444,-0.13043049,-0.10750458
1732438427254,2024-11-24T08:53:47.254Z,17867,0.15859444,-0.13043049,-0.10750458
1732438427264,2024-11-24T08:53:47.264Z,17877,0.09293959,-0.06054798,-0.08929059
1732438427267,2024-11-24T08:53:47.267Z,17880,0.09293959,-0.06054798,-0.08929059
1732438427278,2024-11-24T08:53:47.278Z,17891,0.0079420265,-0.3084012,-0.0961342
1732438427282,2024-11-24T08:53:47.282Z,17895,0.0079420265,-0.3084012,-0.0961342
1732438427296,2024-11-24T08:53:47.296Z,17909,0.049531713,-0.31947473,-0.104182765
1732438427299,2024-11-24T08:53:47.299Z,17912,0.049531713,-0.31947473,-0.104182765
1732438427307,2024-11-24T08:53:47.307Z,17920,0.05133974,-0.27105573,-0.11485733
1732438427310,2024-11-24T08:53:47.310Z,17923,0.05133974,-0.27105573,-0.11485733
1732438427323,2024-11-24T08:53:47.323Z,17936,0.29921886,-0.5847053,-0.0047970354
1732438427328,2024-11-24T08:53:47.328Z,17941,0.29921886,-0.5847053,-0.0047970354
1732438427339,2024-11-24T08:53:47.339Z,17952,0.1953175,-0.7337547,-0.23344572
1732438427342,2024-11-24T08:53:47.342Z,17955,0.1953175,-0.7337547,-0.23344572
1732438427352,2024-11-24T08:53:47.352Z,17965,0.028168578,-0.3155669,-0.4466085
1732438427355,2024-11-24T08:53:47.355Z,17968,0.028168578,-0.3155669,-0.4466085
1732438427366,2024-11-24T08:53:47.366Z,17979,-0.09415171,-5.953991E-4,-0.25278336
1732438427370,2024-11-24T08:53:47.370Z,17983,-0.09415171,-5.953991E-4,-0.25278336
1732438427382,2024-11-24T08:53:47.382Z,17995,0.08562637,-0.2609394,-0.1386759
1732438427386,2024-11-24T08:53:47.386Z,17999,0.08562637,-0.2609394,-0.1386759
1732438427396,2024-11-24T08:53:47.396Z,18009,0.21510382,-0.48436537,0.026568076
1732438427399,2024-11-24T08:53:47.399Z,18012,0.21510382,-0.48436537,0.026568076
1732438427409,2024-11-24T08:53:47.409Z,18022,0.22934687,-0.20588285,0.16302466
1732438427414,2024-11-24T08:53:47.414Z,18027,0.22934687,-0.20588285,0.16302466
1732438427426,2024-11-24T08:53:47.426Z,18039,0.12679157,0.04867496,0.05987041
1732438427430,2024-11-24T08:53:47.430Z,18043,0.12679157,0.04867496,0.05987041
1732438427439,2024-11-24T08:53:47.439Z,18052,0.01603255,0.12542622,-0.009039856
1732438427442,2024-11-24T08:53:47.442Z,18055,0.01603255,0.12542622,-0.009039856
1732438427452,2024-11-24T08:53:47.452Z,18065,-0.031980056,-0.24207135,0.08068614
1732438427455,2024-11-24T08:53:47.455Z,18068,-0.031980056,-0.24207135,0.08068614
1732438427468,2024-11-24T08:53:47.468Z,18081,0.040958405,-0.38126516,0.052171454
1732438427471,2024-11-24T08:53:47.471Z,18084,0.040958405,-0.38126516,0.052171454
1732438427481,2024-11-24T08:53:47.481Z,18094,-0.02616727,-0.33446926,0.105466366
1732438427484,2024-11-24T08:53:47.484Z,18097,-0.02616727,-0.33446926,0.105466366
1732438427493,2024-11-24T08:53:47.493Z,18106,0.011287251,0.113318674,0.0911108
1732438427496,2024-11-24T08:53:47.496Z,18109,0.011287251,0.113318674,0.0911108
1732438427505,2024-11-24T08:53:47.505Z,18118,0.047776684,0.06774368,0.076710746
1732438427508,2024-11-24T08:53:47.508Z,18121,0.047776684,0.06774368,0.076710746
1732438427517,2024-11-24T08:53:47.517Z,18130,0.06297976,6.721762E-4,0.034130108
1732438427520,2024-11-24T08:53:47.520Z,18133,0.06297976,6.721762E-4,0.034130108
1732438427529,2024-11-24T08:53:47.529Z,18142,0.0872172,-0.17560355,0.09080875
1732438427532,2024-11-24T08:53:47.532Z,18145,0.0872172,-0.17560355,0.09080875
1732438427542,2024-11-24T08:53:47.542Z,18155,0.07047912,-0.14565058,0.054881066
1732438427545,2024-11-24T08:53:47.545Z,18158,0.07047912,-0.14565058,0.054881066
1732438427555,2024-11-24T08:53:47.555Z,18168,0.022445356,-0.048974533,0.009477665
1732438427558,2024-11-24T08:53:47.558Z,18171,0.022445356,-0.048974533,0.009477665
1732438427569,2024-11-24T08:53:47.569Z,18182,0.024345333,0.11831317,-0.10721281
1732438427572,2024-11-24T08:53:47.572Z,18185,0.024345333,0.11831317,-0.10721281
1732438427583,2024-11-24T08:53:47.583Z,18196,0.047109224,0.067022786,-0.09986239
1732438427588,2024-11-24T08:53:47.588Z,18201,0.047109224,0.067022786,-0.09986239
1732438427599,2024-11-24T08:53:47.599Z,18212,0.10799607,-0.025487313,-0.03825273
1732438427602,2024-11-24T08:53:47.602Z,18215,0.10799607,-0.025487313,-0.03825273
1732438427612,2024-11-24T08:53:47.612Z,18225,0.06142355,-0.15674946,-0.02740601
1732438427616,2024-11-24T08:53:47.616Z,18229,0.06142355,-0.15674946,-0.02740601
1732438427627,2024-11-24T08:53:47.627Z,18240,0.011969395,-0.079416715,-0.08515786
1732438427631,2024-11-24T08:53:47.631Z,18244,0.011969395,-0.079416715,-0.08515786
1732438427641,2024-11-24T08:53:47.641Z,18254,-0.018607596,0.007314584,-0.11506632
1732438427645,2024-11-24T08:53:47.645Z,18258,-0.018607596,0.007314584,-0.11506632
1732438427655,2024-11-24T08:53:47.655Z,18268,0.0424177,0.09055279,-0.16285905
1732438427658,2024-11-24T08:53:47.658Z,18271,0.0424177,0.09055279,-0.16285905
1732438427670,2024-11-24T08:53:47.670Z,18283,0.052982282,0.061274666,-0.13761406
1732438427674,2024-11-24T08:53:47.674Z,18287,0.052982282,0.061274666,-0.13761406
1732438427684,2024-11-24T08:53:47.684Z,18297,0.084659606,-0.027847856,-0.09930849
1732438427687,2024-11-24T08:53:47.687Z,18300,0.084659606,-0.027847856,-0.09930849
1732438427699,2024-11-24T08:53:47.699Z,18312,0.019366128,-0.17742155,0.036818713
1732438427703,2024-11-24T08:53:47.703Z,18316,0.019366128,-0.17742155,0.036818713
1732438427713,2024-11-24T08:53:47.713Z,18326,-0.04777311,-0.16977604,-0.02629284
1732438427717,2024-11-24T08:53:47.717Z,18330,-0.04777311,-0.16977604,-0.02629284
1732438427738,2024-11-24T08:53:47.738Z,18351,-0.0373245,-0.063570246,-0.09097679
1732438427742,2024-11-24T08:53:47.742Z,18355,-0.0373245,-0.063570246,-0.09097679
1732438427753,2024-11-24T08:53:47.753Z,18366,0.07965993,0.043463115,-0.046324532
1732438427756,2024-11-24T08:53:47.756Z,18369,0.07965993,0.043463115,-0.046324532
1732438427764,2024-11-24T08:53:47.764Z,18377,0.086046286,-0.036533438,-0.06568305
1732438427767,2024-11-24T08:53:47.767Z,18380,0.086046286,-0.036533438,-0.06568305
1732438427776,2024-11-24T08:53:47.776Z,18389,0.068354644,-0.11654312,-0.059929512
1732438427779,2024-11-24T08:53:47.779Z,18392,0.068354644,-0.11654312,-0.059929512
1732438427788,2024-11-24T08:53:47.788Z,18401,-0.06208739,-0.16383809,-0.011105203
1732438427791,2024-11-24T08:53:47.791Z,18404,-0.06208739,-0.16383809,-0.011105203
1732438427799,2024-11-24T08:53:47.799Z,18412,-0.047647078,-0.091258615,7.4999867E-4
1732438427802,2024-11-24T08:53:47.802Z,18415,-0.047647078,-0.091258615,7.4999867E-4
1732438427813,2024-11-24T08:53:47.813Z,18426,-4.1366747E-4,-0.031577792,0.0696987
1732438427816,2024-11-24T08:53:47.816Z,18429,-4.1366747E-4,-0.031577792,0.0696987
1732438427826,2024-11-24T08:53:47.826Z,18439,0.057111856,-0.0037023178,0.049899165
1732438427830,2024-11-24T08:53:47.830Z,18443,0.057111856,-0.0037023178,0.049899165
1732438427843,2024-11-24T08:53:47.843Z,18456,0.043891005,-0.040704295,0.0046383757
1732438427849,2024-11-24T08:53:47.849Z,18462,0.043891005,-0.040704295,0.0046383757
1732438427869,2024-11-24T08:53:47.869Z,18482,-0.014128197,-0.10850443,0.04288814
1732438427876,2024-11-24T08:53:47.876Z,18489,-0.014128197,-0.10850443,0.04288814
1732438427905,2024-11-24T08:53:47.905Z,18518,-0.052409273,-0.13530727,0.029375715
1732438427914,2024-11-24T08:53:47.914Z,18527,-0.052409273,-0.13530727,0.029375715
1732438427932,2024-11-24T08:53:47.932Z,18545,-0.024429282,-0.006889709,-0.016699767
1732438427936,2024-11-24T08:53:47.936Z,18549,-0.024429282,-0.006889709,-0.016699767
1732438427950,2024-11-24T08:53:47.950Z,18563,0.012616603,0.07773404,0.018663295
1732438427955,2024-11-24T08:53:47.955Z,18568,0.012616603,0.07773404,0.018663295
1732438427973,2024-11-24T08:53:47.973Z,18586,0.05129727,-0.031608813,0.08924403
1732438427982,2024-11-24T08:53:47.982Z,18595,0.05129727,-0.031608813,0.08924403
1732438428006,2024-11-24T08:53:48.006Z,18619,0.039984103,-0.12616393,0.036839645
1732438428013,2024-11-24T08:53:48.013Z,18626,0.039984103,-0.12616393,0.036839645
1732438428036,2024-11-24T08:53:48.036Z,18649,5.033055E-4,-0.121442266,0.008199733
1732438428044,2024-11-24T08:53:48.044Z,18657,5.033055E-4,-0.121442266,0.008199733
1732438428067,2024-11-24T08:53:48.067Z,18680,0.0013719221,0.036782295,-0.038983304
1732438428075,2024-11-24T08:53:48.075Z,18688,0.0013719221,0.036782295,-0.038983304
1732438428100,2024-11-24T08:53:48.100Z,18713,0.043577213,0.08735014,-0.04113824
1732438428104,2024-11-24T08:53:48.104Z,18717,0.043577213,0.08735014,-0.04113824
1732438428119,2024-11-24T08:53:48.119Z,18732,0.06320669,0.06312835,-0.011210401
1732438428124,2024-11-24T08:53:48.124Z,18737,0.06320669,0.06312835,-0.011210401
1732438428138,2024-11-24T08:53:48.138Z,18751,0.0077766324,-0.13674575,0.056645628
1732438428142,2024-11-24T08:53:48.142Z,18755,0.0077766324,-0.13674575,0.056645628
1732438428158,2024-11-24T08:53:48.158Z,18771,0.0016658048,-0.13120876,0.078111015
1732438428167,2024-11-24T08:53:48.167Z,18780,0.0016658048,-0.13120876,0.078111015
1732438428191,2024-11-24T08:53:48.191Z,18804,-0.010993684,-0.1275112,0.043296725
1732438428198,2024-11-24T08:53:48.198Z,18811,-0.010993684,-0.1275112,0.043296725
1732438428223,2024-11-24T08:53:48.223Z,18836,0.012602648,0.045408167,0.009212276
1732438428230,2024-11-24T08:53:48.230Z,18843,0.012602648,0.045408167,0.009212276
1732438428243,2024-11-24T08:53:48.243Z,18856,0.06991928,0.1713176,0.026247524
1732438428247,2024-11-24T08:53:48.247Z,18860,0.06991928,0.1713176,0.026247524
1732438428261,2024-11-24T08:53:48.261Z,18874,0.11766541,0.1875677,0.03144405
1732438428265,2024-11-24T08:53:48.265Z,18878,0.11766541,0.1875677,0.03144405
1732438428276,2024-11-24T08:53:48.276Z,18889,0.0109633915,-0.0846977,0.006542875
1732438428279,2024-11-24T08:53:48.279Z,18892,0.0109633915,-0.0846977,0.006542875
1732438428290,2024-11-24T08:53:48.290Z,18903,-0.00313478,-0.10692814,0.013657128
1732438428293,2024-11-24T08:53:48.293Z,18906,-0.00313478,-0.10692814,0.013657128
1732438428307,2024-11-24T08:53:48.307Z,18920,-0.030478079,-0.098519035,-0.0032108277
1732438428315,2024-11-24T08:53:48.315Z,18928,-0.030478079,-0.098519035,-0.0032108277
1732438428335,2024-11-24T08:53:48.335Z,18948,-0.014038656,0.08066649,-0.1340223
1732438428342,2024-11-24T08:53:48.342Z,18955,-0.014038656,0.08066649,-0.1340223
1732438428354,2024-11-24T08:53:48.354Z,18967,0.033588123,0.0871179,-0.055071622
1732438428358,2024-11-24T08:53:48.358Z,18971,0.033588123,0.0871179,-0.055071622
1732438428370,2024-11-24T08:53:48.370Z,18983,0.034716655,0.0743239,-0.044613823
1732438428373,2024-11-24T08:53:48.373Z,18986,0.034716655,0.0743239,-0.044613823
1732438428384,2024-11-24T08:53:48.384Z,18997,0.03746855,0.01344401,-0.033427615
1732438428387,2024-11-24T08:53:48.387Z,19000,0.03746855,0.01344401,-0.033427615
1732438428399,2024-11-24T08:53:48.399Z,19012,0.01752213,-0.11378031,-0.026766267
1732438428402,2024-11-24T08:53:48.402Z,19015,0.01752213,-0.11378031,-0.026766267
1732438428412,2024-11-24T08:53:48.412Z,19025,-0.002118116,-0.1422981,0.035134237
1732438428416,2024-11-24T08:53:48.416Z,19029,-0.002118116,-0.1422981,0.035134237
1732438428425,2024-11-24T08:53:48.425Z,19038,-0.057177026,-0.058648735,-0.14262368
1732438428428,2024-11-24T08:53:48.428Z,19041,-0.057177026,-0.058648735,-0.14262368
1732438428439,2024-11-24T08:53:48.439Z,19052,-0.022924775,0.08361689,-0.1656438
1732438428442,2024-11-24T08:53:48.442Z,19055,-0.022924775,0.08361689,-0.1656438
1732438428451,2024-11-24T08:53:48.451Z,19064,0.023783691,0.13690116,-0.12047387
1732438428455,2024-11-24T08:53:48.455Z,19068,0.023783691,0.13690116,-0.12047387
1732438428467,2024-11-24T08:53:48.467Z,19080,0.021809515,0.030291691,-0.037300333
1732438428471,2024-11-24T08:53:48.471Z,19084,0.021809515,0.030291691,-0.037300333
1732438428484,2024-11-24T08:53:48.484Z,19097,0.013701547,-0.02351051,-0.026068904
1732438428489,2024-11-24T08:53:48.489Z,19102,0.013701547,-0.02351051,-0.026068904
1732438428503,2024-11-24T08:53:48.503Z,19116,0.009046724,0.012059202,0.0064221662
1732438428509,2024-11-24T08:53:48.509Z,19122,0.009046724,0.012059202,0.0064221662
1732438428523,2024-11-24T08:53:48.523Z,19136,-0.060424328,-0.02280245,-0.1175537
1732438428532,2024-11-24T08:53:48.532Z,19145,-0.060424328,-0.02280245,-0.1175537
1732438428551,2024-11-24T08:53:48.551Z,19164,-0.053837575,0.015354733,-0.17922437
1732438428554,2024-11-24T08:53:48.554Z,19167,-0.053837575,0.015354733,-0.17922437
1732438428562,2024-11-24T08:53:48.562Z,19175,0.0074206814,0.07434053,-0.13322867
1732438428566,2024-11-24T08:53:48.566Z,19179,0.0074206814,0.07434053,-0.13322867
1732438428577,2024-11-24T08:53:48.577Z,19190,0.044477277,0.060476117,-0.007276244
1732438428580,2024-11-24T08:53:48.580Z,19193,0.044477277,0.060476117,-0.007276244
1732438428590,2024-11-24T08:53:48.590Z,19203,0.029715607,0.06733626,0.06440828
1732438428592,2024-11-24T08:53:48.592Z,19205,0.029715607,0.06733626,0.06440828
1732438428604,2024-11-24T08:53:48.604Z,19217,0.011327147,0.023476474,0.057785857
1732438428608,2024-11-24T08:53:48.608Z,19221,0.011327147,0.023476474,0.057785857
1732438428626,2024-11-24T08:53:48.626Z,19239,-0.052160926,0.083890155,-0.08926316
1732438428632,2024-11-24T08:53:48.632Z,19245,-0.052160926,0.083890155,-0.08926316
1732438428650,2024-11-24T08:53:48.650Z,19263,-0.076521054,0.07226653,-0.1602807
1732438428653,2024-11-24T08:53:48.653Z,19266,-0.076521054,0.07226653,-0.1602807
1732438428663,2024-11-24T08:53:48.663Z,19276,-0.06392592,-0.028203491,-0.18525012
1732438428667,2024-11-24T08:53:48.667Z,19280,-0.06392592,-0.028203491,-0.18525012
1732438428678,2024-11-24T08:53:48.678Z,19291,0.037393205,-0.12178876,-0.062526
1732438428681,2024-11-24T08:53:48.681Z,19294,0.037393205,-0.12178876,-0.062526
1732438428691,2024-11-24T08:53:48.691Z,19304,0.013654406,-0.065840006,0.02124403
1732438428694,2024-11-24T08:53:48.694Z,19307,0.013654406,-0.065840006,0.02124403
1732438428704,2024-11-24T08:53:48.704Z,19317,-0.009213127,0.0055650976,0.06330364
1732438428707,2024-11-24T08:53:48.707Z,19320,-0.009213127,0.0055650976,0.06330364
1732438428719,2024-11-24T08:53:48.719Z,19332,-0.008880309,0.075199224,0.02429863
1732438428722,2024-11-24T08:53:48.722Z,19335,-0.008880309,0.075199224,0.02429863
1732438428731,2024-11-24T08:53:48.731Z,19344,0.006181952,0.044776738,-0.027550107
1732438428734,2024-11-24T08:53:48.734Z,19347,0.006181952,0.044776738,-0.027550107
1732438428746,2024-11-24T08:53:48.746Z,19359,-0.004556979,0.092365585,-0.098839246
1732438428751,2024-11-24T08:53:48.751Z,19364,-0.004556979,0.092365585,-0.098839246
1732438428773,2024-11-24T08:53:48.773Z,19386,-0.039283797,0.12514575,-0.13152784
1732438428781,2024-11-24T08:53:48.781Z,19394,-0.039283797,0.12514575,-0.13152784
1732438428805,2024-11-24T08:53:48.805Z,19418,-0.047750536,0.006573751,-0.11721442
1732438428815,2024-11-24T08:53:48.815Z,19428,-0.047750536,0.006573751,-0.11721442
1732438428839,2024-11-24T08:53:48.839Z,19452,-9.792602E-4,0.012864608,-0.026494654
1732438428848,2024-11-24T08:53:48.848Z,19461,-9.792602E-4,0.012864608,-0.026494654
1732438428870,2024-11-24T08:53:48.870Z,19483,0.03187684,9.024588E-5,0.057470262
1732438428874,2024-11-24T08:53:48.874Z,19487,0.03187684,9.024588E-5,0.057470262
1732438428890,2024-11-24T08:53:48.890Z,19503,-0.0018705354,0.08474302,0.024684023
1732438428895,2024-11-24T08:53:48.895Z,19508,-0.0018705354,0.08474302,0.024684023
1732438428909,2024-11-24T08:53:48.909Z,19522,-0.036267843,0.088207275,-0.020894108
1732438428914,2024-11-24T08:53:48.914Z,19527,-0.036267843,0.088207275,-0.020894108
1732438428927,2024-11-24T08:53:48.927Z,19540,-0.036464877,0.09323382,-0.07399012
1732438428930,2024-11-24T08:53:48.930Z,19543,-0.036464877,0.09323382,-0.07399012
1732438428943,2024-11-24T08:53:48.943Z,19556,0.014328138,0.05455441,-0.18903029
1732438428946,2024-11-24T08:53:48.946Z,19559,0.014328138,0.05455441,-0.18903029
1732438428960,2024-11-24T08:53:48.960Z,19573,0.008788045,0.077367075,-0.100591116
1732438428969,2024-11-24T08:53:48.969Z,19582,0.008788045,0.077367075,-0.100591116
1732438428992,2024-11-24T08:53:48.992Z,19605,0.0087159,0.047873784,-0.025752338
1732438428998,2024-11-24T08:53:48.998Z,19611,0.0087159,0.047873784,-0.025752338
1732438429010,2024-11-24T08:53:49.010Z,19623,0.028748916,0.027855733,0.07409403
1732438429013,2024-11-24T08:53:49.013Z,19626,0.028748916,0.027855733,0.07409403
1732438429025,2024-11-24T08:53:49.025Z,19638,0.013252943,0.025177045,0.036739264
1732438429028,2024-11-24T08:53:49.028Z,19641,0.013252943,0.025177045,0.036739264
1732438429039,2024-11-24T08:53:49.039Z,19652,-0.0041859914,0.07615332,0.0070432387
1732438429042,2024-11-24T08:53:49.042Z,19655,-0.0041859914,0.07615332,0.0070432387
1732438429057,2024-11-24T08:53:49.057Z,19670,-0.0053901006,-0.0113491975,-0.020876557
1732438429064,2024-11-24T08:53:49.064Z,19677,-0.0053901006,-0.0113491975,-0.020876557
1732438429085,2024-11-24T08:53:49.085Z,19698,0.019225605,-0.04719918,0.03637502
1732438429091,2024-11-24T08:53:49.091Z,19704,0.019225605,-0.04719918,0.03637502
1732438429114,2024-11-24T08:53:49.114Z,19727,0.03821179,-0.03480418,0.06424148
1732438429121,2024-11-24T08:53:49.121Z,19734,0.03821179,-0.03480418,0.06424148
1732438429133,2024-11-24T08:53:49.133Z,19746,0.006273815,0.037438717,0.04212929
1732438429136,2024-11-24T08:53:49.136Z,19749,0.006273815,0.037438717,0.04212929
1732438429147,2024-11-24T08:53:49.147Z,19760,-0.021737903,0.069561385,-0.0010015785
1732438429151,2024-11-24T08:53:49.151Z,19764,-0.021737903,0.069561385,-0.0010015785
1732438429164,2024-11-24T08:53:49.164Z,19777,-0.039422985,0.089436,-0.06868448
1732438429167,2024-11-24T08:53:49.167Z,19780,-0.039422985,0.089436,-0.06868448
1732438429178,2024-11-24T08:53:49.178Z,19791,-0.043266043,0.061463766,-0.12472649
1732438429183,2024-11-24T08:53:49.183Z,19796,-0.043266043,0.061463766,-0.12472649
1732438429203,2024-11-24T08:53:49.203Z,19816,-0.011848199,0.010890772,-0.081822574
1732438429208,2024-11-24T08:53:49.208Z,19821,-0.011848199,0.010890772,-0.081822574
1732438429224,2024-11-24T08:53:49.224Z,19837,-2.28678E-4,0.038859602,-0.015210126
1732438429228,2024-11-24T08:53:49.228Z,19841,-2.28678E-4,0.038859602,-0.015210126
1732438429244,2024-11-24T08:53:49.244Z,19857,-0.0017673799,0.053235054,0.0491877
1732438429247,2024-11-24T08:53:49.247Z,19860,-0.0017673799,0.053235054,0.0491877
1732438429260,2024-11-24T08:53:49.260Z,19873,-0.020424573,0.07999587,0.034075357
1732438429262,2024-11-24T08:53:49.262Z,19875,-0.020424573,0.07999587,0.034075357
1732438429272,2024-11-24T08:53:49.272Z,19885,-0.012658662,0.077327006,-7.771551E-4
1732438429276,2024-11-24T08:53:49.276Z,19889,-0.012658662,0.077327006,-7.771551E-4
1732438429286,2024-11-24T08:53:49.286Z,19899,-0.019073777,0.052375384,-0.057579156
1732438429290,2024-11-24T08:53:49.290Z,19903,-0.019073777,0.052375384,-0.057579156
1732438429299,2024-11-24T08:53:49.299Z,19912,-0.04803196,0.04214434,-0.024190443
1732438429303,2024-11-24T08:53:49.303Z,19916,-0.04803196,0.04214434,-0.024190443
1732438429312,2024-11-24T08:53:49.312Z,19925,-0.04669728,0.032930702,0.019169737
1732438429317,2024-11-24T08:53:49.317Z,19930,-0.04669728,0.032930702,0.019169737
1732438429327,2024-11-24T08:53:49.327Z,19940,-0.042095058,0.020418713,0.05626585
1732438429329,2024-11-24T08:53:49.329Z,19942,-0.042095058,0.020418713,0.05626585
1732438429338,2024-11-24T08:53:49.338Z,19951,-0.025965966,0.03130268,0.06874995
1732438429341,2024-11-24T08:53:49.341Z,19954,-0.025965966,0.03130268,0.06874995
1732438429350,2024-11-24T08:53:49.350Z,19963,-0.034217726,0.039603353,0.046991773
1732438429354,2024-11-24T08:53:49.354Z,19967,-0.034217726,0.039603353,0.046991773
1732438429364,2024-11-24T08:53:49.364Z,19977,-0.038625844,0.047536336,0.010102433
1732438429367,2024-11-24T08:53:49.367Z,19980,-0.038625844,0.047536336,0.010102433
1732438429377,2024-11-24T08:53:49.377Z,19990,-0.030598726,0.0877752,-0.06751921
1732438429380,2024-11-24T08:53:49.380Z,19993,-0.030598726,0.0877752,-0.06751921
1732438429390,2024-11-24T08:53:49.390Z,20003,-0.017875224,0.08914552,-0.062557146
1732438429393,2024-11-24T08:53:49.393Z,20006,-0.017875224,0.08914552,-0.062557146
1732438429402,2024-11-24T08:53:49.402Z,20015,-0.016174337,0.08667747,-0.062448956
1732438429405,2024-11-24T08:53:49.405Z,20018,-0.016174337,0.08667747,-0.062448956
1732438429413,2024-11-24T08:53:49.413Z,20026,-0.03495535,0.06380413,-0.041081663
1732438429416,2024-11-24T08:53:49.416Z,20029,-0.03495535,0.06380413,-0.041081663
1732438429426,2024-11-24T08:53:49.426Z,20039,-0.035989266,0.053636003,-0.047634702
1732438429428,2024-11-24T08:53:49.428Z,20041,-0.035989266,0.053636003,-0.047634702
1732438429437,2024-11-24T08:53:49.437Z,20050,-0.028786369,0.049805418,-0.051228832
1732438429439,2024-11-24T08:53:49.439Z,20052,-0.028786369,0.049805418,-0.051228832
1732438429451,2024-11-24T08:53:49.451Z,20064,-0.034683056,0.05261928,-0.08871447
1732438429456,2024-11-24T08:53:49.456Z,20069,-0.034683056,0.05261928,-0.08871447
1732438429477,2024-11-24T08:53:49.477Z,20090,-0.03908529,0.045500748,-0.08519809
1732438429485,2024-11-24T08:53:49.485Z,20098,-0.03908529,0.045500748,-0.08519809
1732438429506,2024-11-24T08:53:49.506Z,20119,-0.049545694,0.037301403,-0.07986627
1732438429510,2024-11-24T08:53:49.510Z,20123,-0.049545694,0.037301403,-0.07986627
1732438429523,2024-11-24T08:53:49.523Z,20136,-0.0572075,0.027812846,-0.047663342
1732438429528,2024-11-24T08:53:49.528Z,20141,-0.0572075,0.027812846,-0.047663342
1732438429540,2024-11-24T08:53:49.540Z,20153,-0.06815357,0.035037186,-0.05264347
1732438429544,2024-11-24T08:53:49.544Z,20157,-0.06815357,0.035037186,-0.05264347
1732438429555,2024-11-24T08:53:49.555Z,20168,-0.06251447,0.037912898,-0.060404763
1732438429558,2024-11-24T08:53:49.558Z,20171,-0.06251447,0.037912898,-0.060404763
1732438429569,2024-11-24T08:53:49.569Z,20182,-0.04288731,0.038240526,-0.10660914
1732438429573,2024-11-24T08:53:49.573Z,20186,-0.04288731,0.038240526,-0.10660914
1732438429581,2024-11-24T08:53:49.581Z,20194,-0.050919704,0.040936038,-0.09694717
1732438429585,2024-11-24T08:53:49.585Z,20198,-0.050919704,0.040936038,-0.09694717
1732438429593,2024-11-24T08:53:49.593Z,20206,-0.054435015,0.038766827,-0.089770384
1732438429596,2024-11-24T08:53:49.596Z,20209,-0.054435015,0.038766827,-0.089770384
1732438429604,2024-11-24T08:53:49.604Z,20217,0.004493987,0.04434982,-0.12211189
1732438429607,2024-11-24T08:53:49.607Z,20220,0.004493987,0.04434982,-0.12211189
1732438429614,2024-11-24T08:53:49.614Z,20227,0.009157939,0.06548282,-0.122840226
1732438429617,2024-11-24T08:53:49.617Z,20230,0.009157939,0.06548282,-0.122840226
1732438429626,2024-11-24T08:53:49.626Z,20239,0.0010455832,0.10792901,-0.15230401
1732438429630,2024-11-24T08:53:49.630Z,20243,0.0010455832,0.10792901,-0.15230401
1732438429639,2024-11-24T08:53:49.639Z,20252,-0.02669005,0.08105928,-0.14236724
1732438429642,2024-11-24T08:53:49.642Z,20255,-0.02669005,0.08105928,-0.14236724
1732438429652,2024-11-24T08:53:49.652Z,20265,-0.014619297,0.06248516,-0.06935087
1732438429655,2024-11-24T08:53:49.655Z,20268,-0.014619297,0.06248516,-0.06935087
1732438429666,2024-11-24T08:53:49.666Z,20279,0.0043132524,0.05122708,-0.011016829
1732438429672,2024-11-24T08:53:49.672Z,20285,0.0043132524,0.05122708,-0.011016829
1732438429690,2024-11-24T08:53:49.690Z,20303,0.030030508,0.0230268,-7.0059684E-4
1732438429696,2024-11-24T08:53:49.696Z,20309,0.030030508,0.0230268,-7.0059684E-4
1732438429715,2024-11-24T08:53:49.715Z,20328,0.05720395,0.09701344,-0.04600984
1732438429719,2024-11-24T08:53:49.719Z,20332,0.05720395,0.09701344,-0.04600984
1732438429737,2024-11-24T08:53:49.737Z,20350,0.008703719,0.13446768,-0.09108328
1732438429744,2024-11-24T08:53:49.744Z,20357,0.008703719,0.13446768,-0.09108328
1732438429769,2024-11-24T08:53:49.769Z,20382,-0.07736508,0.13586055,-0.18603563
1732438429776,2024-11-24T08:53:49.776Z,20389,-0.07736508,0.13586055,-0.18603563
1732438429788,2024-11-24T08:53:49.788Z,20401,-0.044672657,0.14141446,-0.14572805
1732438429792,2024-11-24T08:53:49.792Z,20405,-0.044672657,0.14141446,-0.14572805
1732438429804,2024-11-24T08:53:49.804Z,20417,0.006253028,0.13158117,-0.07413672
1732438429808,2024-11-24T08:53:49.808Z,20421,0.006253028,0.13158117,-0.07413672
1732438429821,2024-11-24T08:53:49.821Z,20434,-0.005707614,0.124440074,0.0066089304
1732438429825,2024-11-24T08:53:49.825Z,20438,-0.005707614,0.124440074,0.0066089304
1732438429837,2024-11-24T08:53:49.837Z,20450,-0.030414173,0.10807975,-0.039013572
1732438429841,2024-11-24T08:53:49.841Z,20454,-0.030414173,0.10807975,-0.039013572
1732438429855,2024-11-24T08:53:49.855Z,20468,-0.030480765,0.09623615,-0.051251683
1732438429859,2024-11-24T08:53:49.859Z,20472,-0.030480765,0.09623615,-0.051251683
1732438429870,2024-11-24T08:53:49.870Z,20483,0.007052137,0.09813743,-0.033489
1732438429873,2024-11-24T08:53:49.873Z,20486,0.007052137,0.09813743,-0.033489
1732438429887,2024-11-24T08:53:49.887Z,20500,-0.07042078,0.13175057,-0.08949773
1732438429893,2024-11-24T08:53:49.893Z,20506,-0.07042078,0.13175057,-0.08949773
1732438429907,2024-11-24T08:53:49.907Z,20520,-0.08391656,0.10748751,-0.080212176
1732438429910,2024-11-24T08:53:49.910Z,20523,-0.08391656,0.10748751,-0.080212176
1732438429919,2024-11-24T08:53:49.919Z,20532,-0.031049663,0.09023489,-0.048894666
1732438429922,2024-11-24T08:53:49.922Z,20535,-0.031049663,0.09023489,-0.048894666
1732438429932,2024-11-24T08:53:49.932Z,20545,-0.011820946,0.084270105,0.017818844
1732438429935,2024-11-24T08:53:49.935Z,20548,-0.011820946,0.084270105,0.017818844
1732438429944,2024-11-24T08:53:49.944Z,20557,-0.048804056,0.095492296,0.01405582
1732438429947,2024-11-24T08:53:49.947Z,20560,-0.048804056,0.095492296,0.01405582
1732438429958,2024-11-24T08:53:49.958Z,20571,-0.061070263,0.076093614,-0.013881941
1732438429961,2024-11-24T08:53:49.961Z,20574,-0.061070263,0.076093614,-0.013881941
1732438429975,2024-11-24T08:53:49.975Z,20588,-0.047900576,0.049586125,-0.05694048
1732438429978,2024-11-24T08:53:49.978Z,20591,-0.047900576,0.049586125,-0.05694048
1732438429989,2024-11-24T08:53:49.989Z,20602,-0.037172247,0.0376267,-0.024473408
1732438429992,2024-11-24T08:53:49.992Z,20605,-0.037172247,0.0376267,-0.024473408
1732438430000,2024-11-24T08:53:50Z,20613,-0.03649783,0.039807867,0.01567813
1732438430003,2024-11-24T08:53:50.003Z,20616,-0.03649783,0.039807867,0.01567813
1732438430012,2024-11-24T08:53:50.012Z,20625,-0.01646744,0.117428266,0.0038622415
1732438430014,2024-11-24T08:53:50.014Z,20627,-0.01646744,0.117428266,0.0038622415
1732438430024,2024-11-24T08:53:50.024Z,20637,-0.0096880365,0.10606983,0.021971954
1732438430027,2024-11-24T08:53:50.027Z,20640,-0.0096880365,0.10606983,0.021971954
1732438430035,2024-11-24T08:53:50.035Z,20648,-0.018168256,0.061932303,0.0103346845
1732438430038,2024-11-24T08:53:50.038Z,20651,-0.018168256,0.061932303,0.0103346845
1732438430048,2024-11-24T08:53:50.048Z,20661,-0.0043930197,0.12762196,-0.08178762
1732438430051,2024-11-24T08:53:50.051Z,20664,-0.0043930197,0.12762196,-0.08178762
1732438430060,2024-11-24T08:53:50.060Z,20673,-0.022613898,0.18815619,-0.07322271
1732438430063,2024-11-24T08:53:50.063Z,20676,-0.022613898,0.18815619,-0.07322271
1732438430071,2024-11-24T08:53:50.071Z,20684,-0.07089577,0.20580816,-0.076320626
1732438430074,2024-11-24T08:53:50.074Z,20687,-0.07089577,0.20580816,-0.076320626
1732438430082,2024-11-24T08:53:50.082Z,20695,-0.053853087,0.1599281,-0.044994377
1732438430084,2024-11-24T08:53:50.084Z,20697,-0.053853087,0.1599281,-0.044994377
1732438430094,2024-11-24T08:53:50.094Z,20707,0.019070849,0.11097851,-0.034419615
1732438430096,2024-11-24T08:53:50.096Z,20709,0.019070849,0.11097851,-0.034419615
1732438430111,2024-11-24T08:53:50.111Z,20724,0.027706165,0.08451692,-0.034057196
1732438430117,2024-11-24T08:53:50.117Z,20730,0.027706165,0.08451692,-0.034057196
1732438430134,2024-11-24T08:53:50.134Z,20747,-0.019546645,0.08022898,-0.089821085
1732438430140,2024-11-24T08:53:50.140Z,20753,-0.019546645,0.08022898,-0.089821085
1732438430156,2024-11-24T08:53:50.156Z,20769,-0.0580175,0.037400596,-0.102740996
1732438430159,2024-11-24T08:53:50.159Z,20772,-0.0580175,0.037400596,-0.102740996
1732438430167,2024-11-24T08:53:50.167Z,20780,-0.027835457,0.022284508,-0.12373889
1732438430171,2024-11-24T08:53:50.171Z,20784,-0.027835457,0.022284508,-0.12373889
1732438430182,2024-11-24T08:53:50.182Z,20795,0.048583414,0.106094725,-0.070634395
1732438430184,2024-11-24T08:53:50.184Z,20797,0.048583414,0.106094725,-0.070634395
1732438430194,2024-11-24T08:53:50.194Z,20807,-0.008752975,0.09417323,0.045316756
1732438430198,2024-11-24T08:53:50.198Z,20811,-0.008752975,0.09417323,0.045316756
1732438430208,2024-11-24T08:53:50.208Z,20821,-0.046154946,-0.022852533,0.014182485
1732438430211,2024-11-24T08:53:50.211Z,20824,-0.046154946,-0.022852533,0.014182485
1732438430220,2024-11-24T08:53:50.220Z,20833,-0.04976146,-0.019291224,6.169152E-4
1732438430224,2024-11-24T08:53:50.224Z,20837,-0.04976146,-0.019291224,6.169152E-4
1732438430232,2024-11-24T08:53:50.232Z,20845,0.05030233,0.12854952,0.0039135152
1732438430235,2024-11-24T08:53:50.235Z,20848,0.05030233,0.12854952,0.0039135152
1732438430245,2024-11-24T08:53:50.245Z,20858,0.04997487,0.15333194,0.008958046
1732438430248,2024-11-24T08:53:50.248Z,20861,0.04997487,0.15333194,0.008958046
1732438430256,2024-11-24T08:53:50.256Z,20869,-0.0013064744,0.12046541,0.03585358
1732438430259,2024-11-24T08:53:50.259Z,20872,-0.0013064744,0.12046541,0.03585358
1732438430268,2024-11-24T08:53:50.268Z,20881,0.014020033,-0.03587867,0.095976345
1732438430271,2024-11-24T08:53:50.271Z,20884,0.014020033,-0.03587867,0.095976345
1732438430280,2024-11-24T08:53:50.280Z,20893,-0.06337603,-0.029600454,0.05420065
1732438430283,2024-11-24T08:53:50.283Z,20896,-0.06337603,-0.029600454,0.05420065
1732438430291,2024-11-24T08:53:50.291Z,20904,-0.10289466,0.02356322,0.017149659
1732438430294,2024-11-24T08:53:50.294Z,20907,-0.10289466,0.02356322,0.017149659
1732438430301,2024-11-24T08:53:50.301Z,20914,-0.07872397,0.044846077,-0.04447053
1732438430304,2024-11-24T08:53:50.304Z,20917,-0.07872397,0.044846077,-0.04447053
1732438430314,2024-11-24T08:53:50.314Z,20927,-7.9269044E-4,0.04652214,-0.022433419
1732438430316,2024-11-24T08:53:50.316Z,20929,-7.9269044E-4,0.04652214,-0.022433419
1732438430325,2024-11-24T08:53:50.325Z,20938,0.03838579,-0.03831492,0.05236206
1732438430328,2024-11-24T08:53:50.328Z,20941,0.03838579,-0.03831492,0.05236206
1732438430335,2024-11-24T08:53:50.335Z,20948,-0.04103315,0.07084282,0.00469512
1732438430338,2024-11-24T08:53:50.338Z,20951,-0.04103315,0.07084282,0.00469512
1732438430347,2024-11-24T08:53:50.347Z,20960,-0.03184555,-0.09332426,-0.09924743
1732438430349,2024-11-24T08:53:50.349Z,20962,-0.03184555,-0.09332426,-0.09924743
1732438430359,2024-11-24T08:53:50.359Z,20972,0.053902816,-0.093870305,-0.07117509
1732438430362,2024-11-24T08:53:50.362Z,20975,0.053902816,-0.093870305,-0.07117509
1732438430371,2024-11-24T08:53:50.371Z,20984,0.09950611,-0.03496386,-0.0029577406
1732438430374,2024-11-24T08:53:50.374Z,20987,0.09950611,-0.03496386,-0.0029577406
1732438430385,2024-11-24T08:53:50.385Z,20998,0.086139865,4.551193E-4,-0.018691083
1732438430389,2024-11-24T08:53:50.389Z,21002,0.086139865,4.551193E-4,-0.018691083
1732438430398,2024-11-24T08:53:50.398Z,21011,0.047316313,-0.005989195,-0.02539528
1732438430401,2024-11-24T08:53:50.401Z,21014,0.047316313,-0.005989195,-0.02539528
1732438430411,2024-11-24T08:53:50.411Z,21024,0.058337566,-0.048013434,-0.016107552
1732438430418,2024-11-24T08:53:50.418Z,21031,0.058337566,-0.048013434,-0.016107552
1732438430434,2024-11-24T08:53:50.434Z,21047,0.017552922,0.0061907894,-0.03522763
1732438430437,2024-11-24T08:53:50.437Z,21050,0.017552922,0.0061907894,-0.03522763
1732438430447,2024-11-24T08:53:50.447Z,21060,0.08137312,0.06463949,-0.021383485
1732438430449,2024-11-24T08:53:50.449Z,21062,0.08137312,0.06463949,-0.021383485
1732438430459,2024-11-24T08:53:50.459Z,21072,0.10480442,0.0034624077,-0.0061407797
1732438430462,2024-11-24T08:53:50.462Z,21075,0.10480442,0.0034624077,-0.0061407797
1732438430471,2024-11-24T08:53:50.471Z,21084,-0.0049175983,-0.06921859,-0.030378217
1732438430474,2024-11-24T08:53:50.474Z,21087,-0.0049175983,-0.06921859,-0.030378217
1732438430483,2024-11-24T08:53:50.483Z,21096,-0.0015819286,-0.083766654,-0.055437446
1732438430485,2024-11-24T08:53:50.485Z,21098,-0.0015819286,-0.083766654,-0.055437446
1732438430493,2024-11-24T08:53:50.493Z,21106,0.026068514,-0.019847967,-0.068217605
1732438430496,2024-11-24T08:53:50.496Z,21109,0.026068514,-0.019847967,-0.068217605
1732438430503,2024-11-24T08:53:50.503Z,21116,0.058143314,0.030226631,-0.0246292
1732438430506,2024-11-24T08:53:50.506Z,21119,0.058143314,0.030226631,-0.0246292
1732438430516,2024-11-24T08:53:50.516Z,21129,0.080038294,0.014705119,-0.0071896208
1732438430519,2024-11-24T08:53:50.519Z,21132,0.080038294,0.014705119,-0.0071896208
1732438430529,2024-11-24T08:53:50.529Z,21142,0.06996183,-0.043903258,-0.027927987
1732438430532,2024-11-24T08:53:50.532Z,21145,0.06996183,-0.043903258,-0.027927987
1732438430540,2024-11-24T08:53:50.540Z,21153,-0.02784309,-0.13466689,-0.017253324
1732438430542,2024-11-24T08:53:50.542Z,21155,-0.02784309,-0.13466689,-0.017253324
1732438430550,2024-11-24T08:53:50.550Z,21163,-0.057494964,-0.12222414,-0.057461582
1732438430553,2024-11-24T08:53:50.553Z,21166,-0.057494964,-0.12222414,-0.057461582
1732438430564,2024-11-24T08:53:50.564Z,21177,-0.017863117,-0.102895476,0.018904105
1732438430566,2024-11-24T08:53:50.566Z,21179,-0.017863117,-0.102895476,0.018904105
1732438430576,2024-11-24T08:53:50.576Z,21189,0.046254415,-0.033987883,0.062187944
1732438430579,2024-11-24T08:53:50.579Z,21192,0.046254415,-0.033987883,0.062187944
1732438430587,2024-11-24T08:53:50.587Z,21200,0.05848633,-0.11779849,0.0543296
1732438430591,2024-11-24T08:53:50.591Z,21204,0.05848633,-0.11779849,0.0543296
1732438430604,2024-11-24T08:53:50.604Z,21217,0.061632685,-0.119838946,0.04320424
1732438430609,2024-11-24T08:53:50.609Z,21222,0.061632685,-0.119838946,0.04320424
1732438430624,2024-11-24T08:53:50.624Z,21237,-0.011314066,-0.048708364,-0.003984093
1732438430628,2024-11-24T08:53:50.628Z,21241,-0.011314066,-0.048708364,-0.003984093
1732438430638,2024-11-24T08:53:50.638Z,21251,-0.010194721,-0.0040878076,-0.04668199
1732438430641,2024-11-24T08:53:50.641Z,21254,-0.010194721,-0.0040878076,-0.04668199
1732438430651,2024-11-24T08:53:50.651Z,21264,0.03279363,-0.01902107,-0.033913318
1732438430654,2024-11-24T08:53:50.654Z,21267,0.03279363,-0.01902107,-0.033913318
1732438430663,2024-11-24T08:53:50.663Z,21276,0.08322771,-0.07698576,-0.053878296
1732438430665,2024-11-24T08:53:50.665Z,21278,0.08322771,-0.07698576,-0.053878296
1732438430673,2024-11-24T08:53:50.673Z,21286,0.112878926,-0.09541372,0.03525954
1732438430676,2024-11-24T08:53:50.676Z,21289,0.112878926,-0.09541372,0.03525954
1732438430683,2024-11-24T08:53:50.683Z,21296,0.087724924,-0.08606296,0.05458857
1732438430686,2024-11-24T08:53:50.686Z,21299,0.087724924,-0.08606296,0.05458857
1732438430694,2024-11-24T08:53:50.694Z,21307,0.05440594,-0.09773755,0.017577646
1732438430696,2024-11-24T08:53:50.696Z,21309,0.05440594,-0.09773755,0.017577646
1732438430705,2024-11-24T08:53:50.705Z,21318,0.010115561,-0.07174625,-0.023228468
1732438430708,2024-11-24T08:53:50.708Z,21321,0.010115561,-0.07174625,-0.023228468
1732438430716,2024-11-24T08:53:50.716Z,21329,0.0065630293,-0.094522156,-0.07167348
1732438430718,2024-11-24T08:53:50.718Z,21331,0.0065630293,-0.094522156,-0.07167348
1732438430726,2024-11-24T08:53:50.726Z,21339,-0.019912394,-0.14360969,-0.083255395
1732438430729,2024-11-24T08:53:50.729Z,21342,-0.019912394,-0.14360969,-0.083255395
1732438430738,2024-11-24T08:53:50.738Z,21351,0.082984515,-0.10908276,-0.064433224
1732438430742,2024-11-24T08:53:50.742Z,21355,0.082984515,-0.10908276,-0.064433224
1732438430751,2024-11-24T08:53:50.751Z,21364,0.116238005,-0.07748474,-0.0083908485
1732438430753,2024-11-24T08:53:50.753Z,21366,0.116238005,-0.07748474,-0.0083908485
1732438430762,2024-11-24T08:53:50.762Z,21375,0.11517304,-0.051909078,0.030407585
1732438430764,2024-11-24T08:53:50.764Z,21377,0.11517304,-0.051909078,0.030407585
1732438430772,2024-11-24T08:53:50.772Z,21385,0.012214945,-0.12730952,0.0033160255
1732438430774,2024-11-24T08:53:50.774Z,21387,0.012214945,-0.12730952,0.0033160255
1732438430783,2024-11-24T08:53:50.783Z,21396,0.025998205,-0.07988997,-0.117003806
1732438430786,2024-11-24T08:53:50.786Z,21399,0.025998205,-0.07988997,-0.117003806
1732438430796,2024-11-24T08:53:50.796Z,21409,-0.021038668,-0.0038902976,-0.07831395
1732438430799,2024-11-24T08:53:50.799Z,21412,-0.021038668,-0.0038902976,-0.07831395
1732438430808,2024-11-24T08:53:50.808Z,21421,-0.025206607,0.032623786,-0.13262385
1732438430810,2024-11-24T08:53:50.810Z,21423,-0.025206607,0.032623786,-0.13262385
1732438430818,2024-11-24T08:53:50.818Z,21431,0.03973087,-0.04423536,-0.08847769
1732438430820,2024-11-24T08:53:50.820Z,21433,0.03973087,-0.04423536,-0.08847769
1732438430828,2024-11-24T08:53:50.828Z,21441,0.066085026,-0.15298991,-0.053237338
1732438430830,2024-11-24T08:53:50.830Z,21443,0.066085026,-0.15298991,-0.053237338
1732438430838,2024-11-24T08:53:50.838Z,21451,-0.008578172,0.009793429,-0.060410183
1732438430840,2024-11-24T08:53:50.840Z,21453,-0.008578172,0.009793429,-0.060410183
1732438430849,2024-11-24T08:53:50.849Z,21462,7.989872E-4,-0.051751345,-0.044868976
1732438430851,2024-11-24T08:53:50.851Z,21464,7.989872E-4,-0.051751345,-0.044868976
1732438430860,2024-11-24T08:53:50.860Z,21473,0.02446772,-0.16470574,-0.07256982
1732438430864,2024-11-24T08:53:50.864Z,21477,0.02446772,-0.16470574,-0.07256982
1732438430876,2024-11-24T08:53:50.876Z,21489,0.027894923,-0.09385241,-0.09522992
1732438430879,2024-11-24T08:53:50.879Z,21492,0.027894923,-0.09385241,-0.09522992
1732438430887,2024-11-24T08:53:50.887Z,21500,0.04592173,0.08204872,-0.02654053
1732438430890,2024-11-24T08:53:50.890Z,21503,0.04592173,0.08204872,-0.02654053
1732438430900,2024-11-24T08:53:50.900Z,21513,-0.0027377664,0.115571275,0.02883069
1732438430904,2024-11-24T08:53:50.904Z,21517,-0.0027377664,0.115571275,0.02883069
1732438430915,2024-11-24T08:53:50.915Z,21528,0.04902787,-0.15582837,0.013484077
1732438430921,2024-11-24T08:53:50.921Z,21534,0.04902787,-0.15582837,0.013484077
1732438430931,2024-11-24T08:53:50.931Z,21544,-0.014325756,-0.23212335,0.06867906
1732438430935,2024-11-24T08:53:50.935Z,21548,-0.014325756,-0.23212335,0.06867906
1732438430944,2024-11-24T08:53:50.944Z,21557,-0.07170891,-0.24166845,0.034684952
1732438430947,2024-11-24T08:53:50.947Z,21560,-0.07170891,-0.24166845,0.034684952
1732438430956,2024-11-24T08:53:50.956Z,21569,-0.0465633,-0.21798663,0.040815156
1732438430960,2024-11-24T08:53:50.960Z,21573,-0.0465633,-0.21798663,0.040815156
1732438430970,2024-11-24T08:53:50.970Z,21583,0.06338479,-0.19530453,-0.031886432
1732438430974,2024-11-24T08:53:50.974Z,21587,0.06338479,-0.19530453,-0.031886432
1732438430982,2024-11-24T08:53:50.982Z,21595,0.16575037,-0.08878833,-0.020117538
1732438430985,2024-11-24T08:53:50.985Z,21598,0.16575037,-0.08878833,-0.020117538
1732438430994,2024-11-24T08:53:50.994Z,21607,0.12793024,0.079530396,0.0280336
1732438430997,2024-11-24T08:53:50.997Z,21610,0.12793024,0.079530396,0.0280336
1732438431008,2024-11-24T08:53:51.008Z,21621,0.10726812,0.035843853,0.016252037
1732438431011,2024-11-24T08:53:51.011Z,21624,0.10726812,0.035843853,0.016252037
1732438431022,2024-11-24T08:53:51.022Z,21635,0.0175448,-0.06875472,0.0850795
1732438431025,2024-11-24T08:53:51.025Z,21638,0.0175448,-0.06875472,0.0850795
1732438431033,2024-11-24T08:53:51.033Z,21646,0.041624695,-0.2660165,-0.0053877663
1732438431035,2024-11-24T08:53:51.035Z,21648,0.041624695,-0.2660165,-0.0053877663
1732438431044,2024-11-24T08:53:51.044Z,21657,0.0019752956,-0.23004015,-0.15271997
1732438431047,2024-11-24T08:53:51.047Z,21660,0.0019752956,-0.23004015,-0.15271997
1732438431055,2024-11-24T08:53:51.055Z,21668,-0.011088865,-0.12966548,-0.24634902
1732438431058,2024-11-24T08:53:51.058Z,21671,-0.011088865,-0.12966548,-0.24634902
1732438431066,2024-11-24T08:53:51.066Z,21679,0.061017446,-0.05274084,-0.20968486
1732438431068,2024-11-24T08:53:51.068Z,21681,0.061017446,-0.05274084,-0.20968486
1732438431077,2024-11-24T08:53:51.077Z,21690,0.10847691,0.04047615,0.018543292
1732438431080,2024-11-24T08:53:51.080Z,21693,0.10847691,0.04047615,0.018543292
1732438431087,2024-11-24T08:53:51.087Z,21700,0.044586375,-0.06725832,0.07310699
1732438431091,2024-11-24T08:53:51.091Z,21704,0.044586375,-0.06725832,0.07310699
1732438431101,2024-11-24T08:53:51.101Z,21714,-7.98112E-4,-0.14464995,0.06566798
1732438431104,2024-11-24T08:53:51.104Z,21717,-7.98112E-4,-0.14464995,0.06566798
1732438431112,2024-11-24T08:53:51.112Z,21725,-0.01444785,-0.09636636,-0.10401589
1732438431115,2024-11-24T08:53:51.115Z,21728,-0.01444785,-0.09636636,-0.10401589
1732438431122,2024-11-24T08:53:51.122Z,21735,-0.034680773,-0.06620046,-0.11487282
1732438431124,2024-11-24T08:53:51.124Z,21737,-0.034680773,-0.06620046,-0.11487282
1732438431132,2024-11-24T08:53:51.132Z,21745,-0.03263565,-0.110700674,-0.15037595
1732438431134,2024-11-24T08:53:51.134Z,21747,-0.03263565,-0.110700674,-0.15037595
1732438431145,2024-11-24T08:53:51.145Z,21758,-0.010663358,-0.13039936,-0.058144238
1732438431148,2024-11-24T08:53:51.148Z,21761,-0.010663358,-0.13039936,-0.058144238
1732438431158,2024-11-24T08:53:51.158Z,21771,0.026108338,-0.076524176,-0.055193037
1732438431161,2024-11-24T08:53:51.161Z,21774,0.026108338,-0.076524176,-0.055193037
1732438431168,2024-11-24T08:53:51.168Z,21781,0.03253009,-0.07769635,-0.06915885
1732438431170,2024-11-24T08:53:51.170Z,21783,0.03253009,-0.07769635,-0.06915885
1732438431178,2024-11-24T08:53:51.178Z,21791,0.09611526,-0.13864903,-0.016775668
1732438431180,2024-11-24T08:53:51.180Z,21793,0.09611526,-0.13864903,-0.016775668
1732438431187,2024-11-24T08:53:51.187Z,21800,0.057383787,-0.21742162,-0.10880252
1732438431190,2024-11-24T08:53:51.190Z,21803,0.057383787,-0.21742162,-0.10880252
1732438431199,2024-11-24T08:53:51.199Z,21812,-0.026947584,-0.2030454,-0.14952542
1732438431202,2024-11-24T08:53:51.202Z,21815,-0.026947584,-0.2030454,-0.14952542
1732438431210,2024-11-24T08:53:51.210Z,21823,0.071796045,-0.18334728,-0.16571805
1732438431213,2024-11-24T08:53:51.213Z,21826,0.071796045,-0.18334728,-0.16571805
1732438431223,2024-11-24T08:53:51.223Z,21836,0.0766859,-0.023771718,-0.09042219
1732438431226,2024-11-24T08:53:51.226Z,21839,0.0766859,-0.023771718,-0.09042219
1732438431235,2024-11-24T08:53:51.235Z,21848,0.018282132,0.06365436,0.033781618
1732438431237,2024-11-24T08:53:51.237Z,21850,0.018282132,0.06365436,0.033781618
1732438431246,2024-11-24T08:53:51.246Z,21859,0.113169305,-0.069653384,0.10196447
1732438431248,2024-11-24T08:53:51.248Z,21861,0.113169305,-0.069653384,0.10196447
1732438431256,2024-11-24T08:53:51.256Z,21869,0.11682514,-0.11760677,0.09492106
1732438431259,2024-11-24T08:53:51.259Z,21872,0.11682514,-0.11760677,0.09492106
1732438431267,2024-11-24T08:53:51.267Z,21880,0.05519926,-0.1337865,0.040977903
1732438431269,2024-11-24T08:53:51.269Z,21882,0.05519926,-0.1337865,0.040977903
1732438431279,2024-11-24T08:53:51.279Z,21892,0.12973976,0.04194153,0.028088836
1732438431282,2024-11-24T08:53:51.282Z,21895,0.12973976,0.04194153,0.028088836
1732438431290,2024-11-24T08:53:51.290Z,21903,0.19735713,0.094382994,0.12632906
1732438431293,2024-11-24T08:53:51.293Z,21906,0.19735713,0.094382994,0.12632906
1732438431300,2024-11-24T08:53:51.300Z,21913,0.13975495,0.018520877,0.15563242
1732438431304,2024-11-24T08:53:51.304Z,21917,0.13975495,0.018520877,0.15563242
1732438431313,2024-11-24T08:53:51.313Z,21926,-0.036349323,-0.14900295,0.067893445
1732438431315,2024-11-24T08:53:51.315Z,21928,-0.036349323,-0.14900295,0.067893445
1732438431324,2024-11-24T08:53:51.324Z,21937,-0.047992792,-0.17177136,0.043864068
1732438431327,2024-11-24T08:53:51.327Z,21940,-0.047992792,-0.17177136,0.043864068
1732438431336,2024-11-24T08:53:51.336Z,21949,-0.052208457,-0.13994452,-0.03502058
1732438431340,2024-11-24T08:53:51.340Z,21953,-0.052208457,-0.13994452,-0.03502058
1732438431349,2024-11-24T08:53:51.349Z,21962,0.0384879,0.012659221,-0.0107747065
1732438431351,2024-11-24T08:53:51.351Z,21964,0.0384879,0.012659221,-0.0107747065
1732438431359,2024-11-24T08:53:51.359Z,21972,0.09701522,0.025566911,0.054116115
1732438431362,2024-11-24T08:53:51.362Z,21975,0.09701522,0.025566911,0.054116115
1732438431377,2024-11-24T08:53:51.377Z,21990,0.114036486,0.012504792,0.11688378
1732438431385,2024-11-24T08:53:51.385Z,21998,0.114036486,0.012504792,0.11688378
1732438431405,2024-11-24T08:53:51.405Z,22018,0.034473293,-0.056381796,0.07742605
1732438431411,2024-11-24T08:53:51.411Z,22024,0.034473293,-0.056381796,0.07742605
1732438431423,2024-11-24T08:53:51.423Z,22036,-0.058574975,-0.016937148,-0.09460652
1732438431425,2024-11-24T08:53:51.425Z,22038,-0.058574975,-0.016937148,-0.09460652
1732438431435,2024-11-24T08:53:51.435Z,22048,-0.027485073,-0.01291615,-0.082201354
1732438431438,2024-11-24T08:53:51.438Z,22051,-0.027485073,-0.01291615,-0.082201354
1732438431448,2024-11-24T08:53:51.448Z,22061,0.050138343,0.017619438,-0.026273925
1732438431451,2024-11-24T08:53:51.451Z,22064,0.050138343,0.017619438,-0.026273925
1732438431459,2024-11-24T08:53:51.459Z,22072,0.14400034,-0.025859723,0.093809135
1732438431462,2024-11-24T08:53:51.462Z,22075,0.14400034,-0.025859723,0.093809135
1732438431469,2024-11-24T08:53:51.469Z,22082,0.06154742,-0.17381726,0.14906736
1732438431472,2024-11-24T08:53:51.472Z,22085,0.06154742,-0.17381726,0.14906736
1732438431479,2024-11-24T08:53:51.479Z,22092,-7.242524E-5,-0.086935565,0.11816105
1732438431481,2024-11-24T08:53:51.481Z,22094,-7.242524E-5,-0.086935565,0.11816105
1732438431490,2024-11-24T08:53:51.490Z,22103,0.0017088612,-0.051212106,0.075576015
1732438431493,2024-11-24T08:53:51.493Z,22106,0.0017088612,-0.051212106,0.075576015
1732438431502,2024-11-24T08:53:51.502Z,22115,0.0032814054,-0.01919349,-0.052059572
1732438431504,2024-11-24T08:53:51.504Z,22117,0.0032814054,-0.01919349,-0.052059572
1732438431513,2024-11-24T08:53:51.513Z,22126,0.013865725,-0.005302529,-0.06574004
1732438431515,2024-11-24T08:53:51.515Z,22128,0.013865725,-0.005302529,-0.06574004
1732438431525,2024-11-24T08:53:51.525Z,22138,0.032651212,-0.11425828,-0.09486033
1732438431528,2024-11-24T08:53:51.528Z,22141,0.032651212,-0.11425828,-0.09486033
1732438431535,2024-11-24T08:53:51.535Z,22148,0.047500912,-0.18638021,0.09781175
1732438431539,2024-11-24T08:53:51.539Z,22152,0.047500912,-0.18638021,0.09781175
1732438431548,2024-11-24T08:53:51.548Z,22161,-0.016157683,-0.10432822,0.07695017
1732438431550,2024-11-24T08:53:51.550Z,22163,-0.016157683,-0.10432822,0.07695017
1732438431558,2024-11-24T08:53:51.558Z,22171,-0.046698913,0.026949676,0.05758747
1732438431561,2024-11-24T08:53:51.561Z,22174,-0.046698913,0.026949676,0.05758747
1732438431569,2024-11-24T08:53:51.569Z,22182,0.036800236,0.10067346,-0.041360743
1732438431572,2024-11-24T08:53:51.572Z,22185,0.036800236,0.10067346,-0.041360743
1732438431580,2024-11-24T08:53:51.580Z,22193,0.073123306,0.08669294,-0.043440506
1732438431582,2024-11-24T08:53:51.582Z,22195,0.073123306,0.08669294,-0.043440506
1732438431592,2024-11-24T08:53:51.592Z,22205,0.07801693,0.07187822,-0.06206315
1732438431594,2024-11-24T08:53:51.594Z,22207,0.07801693,0.07187822,-0.06206315
1732438431604,2024-11-24T08:53:51.604Z,22217,-0.0010971973,-0.080654435,-0.021614982
1732438431611,2024-11-24T08:53:51.611Z,22224,-0.0010971973,-0.080654435,-0.021614982
1732438431631,2024-11-24T08:53:51.631Z,22244,-0.047674123,-0.051749498,0.0075719017
1732438431638,2024-11-24T08:53:51.638Z,22251,-0.047674123,-0.051749498,0.0075719017
1732438431656,2024-11-24T08:53:51.656Z,22269,-0.07372567,-0.007090428,0.0018024864
1732438431661,2024-11-24T08:53:51.661Z,22274,-0.07372567,-0.007090428,0.0018024864
1732438431673,2024-11-24T08:53:51.673Z,22286,-0.058739796,-0.022562636,-0.028777009
1732438431677,2024-11-24T08:53:51.677Z,22290,-0.058739796,-0.022562636,-0.028777009
1732438431691,2024-11-24T08:53:51.691Z,22304,-0.01643112,0.03807355,-0.071131624
1732438431694,2024-11-24T08:53:51.694Z,22307,-0.01643112,0.03807355,-0.071131624
1732438431705,2024-11-24T08:53:51.705Z,22318,0.07641925,0.08334547,-0.023575837
1732438431709,2024-11-24T08:53:51.709Z,22322,0.07641925,0.08334547,-0.023575837
1732438431719,2024-11-24T08:53:51.719Z,22332,0.10351409,-0.043168165,0.035006892
1732438431722,2024-11-24T08:53:51.722Z,22335,0.10351409,-0.043168165,0.035006892
1732438431731,2024-11-24T08:53:51.731Z,22344,0.026728097,-0.08048785,0.047892872
1732438431734,2024-11-24T08:53:51.734Z,22347,0.026728097,-0.08048785,0.047892872
1732438431743,2024-11-24T08:53:51.743Z,22356,-0.026353024,-0.10251611,0.016199136
1732438431747,2024-11-24T08:53:51.747Z,22360,-0.026353024,-0.10251611,0.016199136
1732438431754,2024-11-24T08:53:51.754Z,22367,-0.062431842,-0.063374974,-0.019064175
1732438431757,2024-11-24T08:53:51.757Z,22370,-0.062431842,-0.063374974,-0.019064175
1732438431766,2024-11-24T08:53:51.766Z,22379,-0.090190716,0.14467484,-0.17412917
1732438431769,2024-11-24T08:53:51.769Z,22382,-0.090190716,0.14467484,-0.17412917
1732438431778,2024-11-24T08:53:51.778Z,22391,-0.06582291,0.26495513,-0.16376907
1732438431781,2024-11-24T08:53:51.781Z,22394,-0.06582291,0.26495513,-0.16376907
1732438431788,2024-11-24T08:53:51.788Z,22401,0.030722948,0.20354345,-0.0922481
1732438431791,2024-11-24T08:53:51.791Z,22404,0.030722948,0.20354345,-0.0922481
1732438431799,2024-11-24T08:53:51.799Z,22412,0.09846218,-0.05078227,0.0055740443
1732438431801,2024-11-24T08:53:51.801Z,22414,0.09846218,-0.05078227,0.0055740443
1732438431810,2024-11-24T08:53:51.810Z,22423,0.030033547,-0.08737717,0.062731415
1732438431813,2024-11-24T08:53:51.813Z,22426,0.030033547,-0.08737717,0.062731415
1732438431822,2024-11-24T08:53:51.822Z,22435,0.008062663,-0.08876664,0.05510257
1732438431825,2024-11-24T08:53:51.825Z,22438,0.008062663,-0.08876664,0.05510257
1732438431833,2024-11-24T08:53:51.833Z,22446,-0.025626158,0.1059648,-0.14807239
1732438431835,2024-11-24T08:53:51.835Z,22448,-0.025626158,0.1059648,-0.14807239
1732438431845,2024-11-24T08:53:51.845Z,22458,-0.08041208,0.15942173,-0.22585367
1732438431848,2024-11-24T08:53:51.848Z,22461,-0.08041208,0.15942173,-0.22585367
1732438431856,2024-11-24T08:53:51.856Z,22469,-0.07607387,0.15752612,-0.18334284
1732438431859,2024-11-24T08:53:51.859Z,22472,-0.07607387,0.15752612,-0.18334284
1732438431868,2024-11-24T08:53:51.868Z,22481,0.06729765,-0.09592913,-0.034485012
1732438431870,2024-11-24T08:53:51.870Z,22483,0.06729765,-0.09592913,-0.034485012
1732438431878,2024-11-24T08:53:51.878Z,22491,0.07926708,-0.12630202,0.048794575
1732438431880,2024-11-24T08:53:51.880Z,22493,0.07926708,-0.12630202,0.048794575
1732438431888,2024-11-24T08:53:51.888Z,22501,-0.010661084,-0.09074544,0.07391342
1732438431891,2024-11-24T08:53:51.891Z,22504,-0.010661084,-0.09074544,0.07391342
1732438431899,2024-11-24T08:53:51.899Z,22512,-0.0058137113,0.03203758,-0.07187579
1732438431901,2024-11-24T08:53:51.901Z,22514,-0.0058137113,0.03203758,-0.07187579
1732438431911,2024-11-24T08:53:51.911Z,22524,-0.0045979205,0.030886263,-0.19278437
1732438431913,2024-11-24T08:53:51.913Z,22526,-0.0045979205,0.030886263,-0.19278437
1732438431922,2024-11-24T08:53:51.922Z,22535,-0.037729304,0.09393487,-0.21100731
1732438431926,2024-11-24T08:53:51.926Z,22539,-0.037729304,0.09393487,-0.21100731
1732438431936,2024-11-24T08:53:51.936Z,22549,0.04024294,0.07948406,-0.064526446
1732438431938,2024-11-24T08:53:51.938Z,22551,0.04024294,0.07948406,-0.064526446
1732438431950,2024-11-24T08:53:51.950Z,22563,0.030633382,0.039120518,0.011973868
1732438431953,2024-11-24T08:53:51.953Z,22566,0.030633382,0.039120518,0.011973868
1732438431962,2024-11-24T08:53:51.962Z,22575,-5.3120346E-4,0.014392564,0.07977631
1732438431965,2024-11-24T08:53:51.965Z,22578,-5.3120346E-4,0.014392564,0.07977631
1732438431972,2024-11-24T08:53:51.972Z,22585,-0.029670192,0.03881049,0.060325116
1732438431974,2024-11-24T08:53:51.974Z,22587,-0.029670192,0.03881049,0.060325116
1732438431982,2024-11-24T08:53:51.982Z,22595,-0.006758558,0.022004532,-0.0020802987
1732438431984,2024-11-24T08:53:51.984Z,22597,-0.006758558,0.022004532,-0.0020802987
1732438431994,2024-11-24T08:53:51.994Z,22607,-0.010355787,0.071618564,-0.08127164
1732438431997,2024-11-24T08:53:51.997Z,22610,-0.010355787,0.071618564,-0.08127164
1732438432004,2024-11-24T08:53:52.004Z,22617,-0.036097646,0.09778199,-0.13011861
1732438432006,2024-11-24T08:53:52.006Z,22619,-0.036097646,0.09778199,-0.13011861
1732438432014,2024-11-24T08:53:52.014Z,22627,-0.0011401322,0.015989956,-0.08612528
1732438432016,2024-11-24T08:53:52.016Z,22629,-0.0011401322,0.015989956,-0.08612528
1732438432024,2024-11-24T08:53:52.024Z,22637,0.017643677,0.08414669,-0.027605247
1732438432027,2024-11-24T08:53:52.027Z,22640,0.017643677,0.08414669,-0.027605247
1732438432034,2024-11-24T08:53:52.034Z,22647,0.0148414355,0.05474531,0.05023372
1732438432036,2024-11-24T08:53:52.036Z,22649,0.0148414355,0.05474531,0.05023372
1732438432044,2024-11-24T08:53:52.044Z,22657,-0.02268393,-0.013606609,0.031402793
1732438432047,2024-11-24T08:53:52.047Z,22660,-0.02268393,-0.013606609,0.031402793
1732438432054,2024-11-24T08:53:52.054Z,22667,-0.021334361,-0.034042533,-0.015413301
1732438432058,2024-11-24T08:53:52.058Z,22671,-0.021334361,-0.034042533,-0.015413301
1732438432067,2024-11-24T08:53:52.067Z,22680,-0.03067385,-0.035458755,-0.093105584
1732438432069,2024-11-24T08:53:52.069Z,22682,-0.03067385,-0.035458755,-0.093105584
1732438432076,2024-11-24T08:53:52.076Z,22689,-0.001958885,0.08519075,-0.054726467
1732438432079,2024-11-24T08:53:52.079Z,22692,-0.001958885,0.08519075,-0.054726467
1732438432085,2024-11-24T08:53:52.085Z,22698,0.0077910614,0.04367842,0.036686774
1732438432088,2024-11-24T08:53:52.088Z,22701,0.0077910614,0.04367842,0.036686774
1732438432095,2024-11-24T08:53:52.095Z,22708,0.010087736,-0.010938714,0.076382294
1732438432098,2024-11-24T08:53:52.098Z,22711,0.010087736,-0.010938714,0.076382294
1732438432106,2024-11-24T08:53:52.106Z,22719,-0.027803607,-0.009862863,0.058607966
1732438432109,2024-11-24T08:53:52.109Z,22722,-0.027803607,-0.009862863,0.058607966
1732438432118,2024-11-24T08:53:52.118Z,22731,-0.025873229,0.048196357,0.028480306
1732438432121,2024-11-24T08:53:52.121Z,22734,-0.025873229,0.048196357,0.028480306
1732438432129,2024-11-24T08:53:52.129Z,22742,-0.017546307,0.05789069,-0.03985012
1732438432131,2024-11-24T08:53:52.131Z,22744,-0.017546307,0.05789069,-0.03985012
1732438432138,2024-11-24T08:53:52.138Z,22751,-0.026234163,-0.0049265693,-0.089648075
1732438432141,2024-11-24T08:53:52.141Z,22754,-0.026234163,-0.0049265693,-0.089648075
1732438432150,2024-11-24T08:53:52.150Z,22763,-0.0058386433,-0.032435223,-0.037434973
1732438432152,2024-11-24T08:53:52.152Z,22765,-0.0058386433,-0.032435223,-0.037434973
1732438432160,2024-11-24T08:53:52.160Z,22773,0.0120967645,-0.04821454,0.033886623
1732438432163,2024-11-24T08:53:52.163Z,22776,0.0120967645,-0.04821454,0.033886623
1732438432170,2024-11-24T08:53:52.170Z,22783,0.03892899,0.01141056,0.03032935
1732438432173,2024-11-24T08:53:52.173Z,22786,0.03892899,0.01141056,0.03032935
1732438432183,2024-11-24T08:53:52.183Z,22796,-0.016756851,0.0098757,-0.061016694
1732438432185,2024-11-24T08:53:52.185Z,22798,-0.016756851,0.0098757,-0.061016694
1732438432193,2024-11-24T08:53:52.193Z,22806,-0.013757196,0.026984684,-0.07910748
1732438432196,2024-11-24T08:53:52.196Z,22809,-0.013757196,0.026984684,-0.07910748
1732438432205,2024-11-24T08:53:52.205Z,22818,-0.0036998135,0.023067158,-0.05069735
1732438432209,2024-11-24T08:53:52.209Z,22822,-0.0036998135,0.023067158,-0.05069735
1732438432216,2024-11-24T08:53:52.216Z,22829,0.01926368,-0.04667122,0.03686583
1732438432219,2024-11-24T08:53:52.219Z,22832,0.01926368,-0.04667122,0.03686583
1732438432226,2024-11-24T08:53:52.226Z,22839,0.04014884,-0.068614684,0.07514452
1732438432228,2024-11-24T08:53:52.228Z,22841,0.04014884,-0.068614684,0.07514452
1732438432235,2024-11-24T08:53:52.235Z,22848,0.017457059,-0.050189838,0.07588334
1732438432237,2024-11-24T08:53:52.237Z,22850,0.017457059,-0.050189838,0.07588334
1732438432245,2024-11-24T08:53:52.245Z,22858,0.01052743,0.026376596,0.00415221
1732438432247,2024-11-24T08:53:52.247Z,22860,0.01052743,0.026376596,0.00415221
1732438432254,2024-11-24T08:53:52.254Z,22867,0.01051063,0.02129511,-0.014513103
1732438432256,2024-11-24T08:53:52.256Z,22869,0.01051063,0.02129511,-0.014513103
1732438432264,2024-11-24T08:53:52.264Z,22877,0.012110088,0.034775686,-0.05572452
1732438432268,2024-11-24T08:53:52.268Z,22881,0.012110088,0.034775686,-0.05572452
1732438432276,2024-11-24T08:53:52.276Z,22889,0.026932463,0.09940477,-0.066723965
1732438432279,2024-11-24T08:53:52.279Z,22892,0.026932463,0.09940477,-0.066723965
1732438432286,2024-11-24T08:53:52.286Z,22899,-0.0045730253,0.040195107,-0.00725113
1732438432288,2024-11-24T08:53:52.288Z,22901,-0.0045730253,0.040195107,-0.00725113
1732438432295,2024-11-24T08:53:52.295Z,22908,-0.032368027,0.010352505,0.020480296
1732438432297,2024-11-24T08:53:52.297Z,22910,-0.032368027,0.010352505,0.020480296
1732438432304,2024-11-24T08:53:52.304Z,22917,0.042060267,-0.04434136,0.04349416
1732438432306,2024-11-24T08:53:52.306Z,22919,0.042060267,-0.04434136,0.04349416
1732438432315,2024-11-24T08:53:52.315Z,22928,0.052427433,-0.04863854,0.062488344
1732438432317,2024-11-24T08:53:52.317Z,22930,0.052427433,-0.04863854,0.062488344
1732438432326,2024-11-24T08:53:52.326Z,22939,0.033026394,0.0030284883,0.049614497
1732438432329,2024-11-24T08:53:52.329Z,22942,0.033026394,0.0030284883,0.049614497
1732438432337,2024-11-24T08:53:52.337Z,22950,-0.020989606,0.06013118,-0.041065983
1732438432340,2024-11-24T08:53:52.340Z,22953,-0.020989606,0.06013118,-0.041065983
1732438432350,2024-11-24T08:53:52.350Z,22963,-0.041700087,0.057530485,-0.060999457
1732438432352,2024-11-24T08:53:52.352Z,22965,-0.041700087,0.057530485,-0.060999457
1732438432364,2024-11-24T08:53:52.364Z,22977,-0.051134977,0.037412364,-0.07295441
1732438432372,2024-11-24T08:53:52.372Z,22985,-0.051134977,0.037412364,-0.07295441
1732438432386,2024-11-24T08:53:52.386Z,22999,-0.009579823,0.051382095,-0.05569683
1732438432388,2024-11-24T08:53:52.388Z,23001,-0.009579823,0.051382095,-0.05569683
1732438432396,2024-11-24T08:53:52.396Z,23009,-0.003984482,0.04641974,-0.051362913
1732438432398,2024-11-24T08:53:52.398Z,23011,-0.003984482,0.04641974,-0.051362913
1732438432406,2024-11-24T08:53:52.406Z,23019,-0.026264055,0.05610736,-0.04160965
1732438432409,2024-11-24T08:53:52.409Z,23022,-0.026264055,0.05610736,-0.04160965
1732438432416,2024-11-24T08:53:52.416Z,23029,-0.05749415,0.07037963,-0.0714804
1732438432418,2024-11-24T08:53:52.418Z,23031,-0.05749415,0.07037963,-0.0714804
1732438432425,2024-11-24T08:53:52.425Z,23038,-0.06941994,0.06751024,-0.08010943
1732438432427,2024-11-24T08:53:52.427Z,23040,-0.06941994,0.06751024,-0.08010943
1732438432435,2024-11-24T08:53:52.435Z,23048,-0.07037139,0.073475316,-0.10547709
1732438432437,2024-11-24T08:53:52.437Z,23050,-0.07037139,0.073475316,-0.10547709
1732438432447,2024-11-24T08:53:52.447Z,23060,-0.061283406,0.032928854,-0.11566684
1732438432450,2024-11-24T08:53:52.450Z,23063,-0.061283406,0.032928854,-0.11566684
1732438432457,2024-11-24T08:53:52.457Z,23070,-0.03074275,0.014125522,-0.08962092
1732438432459,2024-11-24T08:53:52.459Z,23072,-0.03074275,0.014125522,-0.08962092
1732438432466,2024-11-24T08:53:52.466Z,23079,0.0025616507,0.0122982375,-0.051561177
1732438432469,2024-11-24T08:53:52.469Z,23082,0.0025616507,0.0122982375,-0.051561177
1732438432477,2024-11-24T08:53:52.477Z,23090,-0.057800785,0.04427484,-0.059492797
1732438432480,2024-11-24T08:53:52.480Z,23093,-0.057800785,0.04427484,-0.059492797
1732438432488,2024-11-24T08:53:52.488Z,23101,-0.06530019,0.040681735,-0.062589794
1732438432491,2024-11-24T08:53:52.491Z,23104,-0.06530019,0.040681735,-0.062589794
1732438432499,2024-11-24T08:53:52.499Z,23112,-0.053327948,0.04774396,-0.08589932
1732438432501,2024-11-24T08:53:52.501Z,23114,-0.053327948,0.04774396,-0.08589932
1732438432508,2024-11-24T08:53:52.508Z,23121,-0.014850334,0.055973936,-0.09213883
1732438432511,2024-11-24T08:53:52.511Z,23124,-0.014850334,0.055973936,-0.09213883
1732438432519,2024-11-24T08:53:52.519Z,23132,-0.05937491,0.053836625,-0.07716178
1732438432521,2024-11-24T08:53:52.521Z,23134,-0.05937491,0.053836625,-0.07716178
1732438432530,2024-11-24T08:53:52.530Z,23143,-0.06662796,0.050248966,-0.064700924
1732438432533,2024-11-24T08:53:52.533Z,23146,-0.06662796,0.050248966,-0.064700924
1732438432541,2024-11-24T08:53:52.541Z,23154,-0.050476525,0.06852288,-0.05306076
1732438432543,2024-11-24T08:53:52.543Z,23156,-0.050476525,0.06852288,-0.05306076
1732438432550,2024-11-24T08:53:52.550Z,23163,-0.03961439,0.058764655,-0.05319226
1732438432552,2024-11-24T08:53:52.552Z,23165,-0.03961439,0.058764655,-0.05319226
1732438432559,2024-11-24T08:53:52.559Z,23172,-0.037402783,0.06128172,-0.04054065
1732438432562,2024-11-24T08:53:52.562Z,23175,-0.037402783,0.06128172,-0.04054065
1732438432571,2024-11-24T08:53:52.571Z,23184,-0.045219604,0.089097776,-0.06202114
1732438432577,2024-11-24T08:53:52.577Z,23190,-0.045219604,0.089097776,-0.06202114
1732438432594,2024-11-24T08:53:52.594Z,23207,-0.034992352,0.09556163,-0.06358941
1732438432600,2024-11-24T08:53:52.600Z,23213,-0.034992352,0.09556163,-0.06358941
1732438432617,2024-11-24T08:53:52.617Z,23230,-0.04900915,0.09576887,-0.0801865
1732438432626,2024-11-24T08:53:52.626Z,23239,-0.04900915,0.09576887,-0.0801865
1732438432649,2024-11-24T08:53:52.649Z,23262,-0.010943237,0.08857818,-0.09928576
1732438432655,2024-11-24T08:53:52.655Z,23268,-0.010943237,0.08857818,-0.09928576
1732438432676,2024-11-24T08:53:52.676Z,23289,0.019648341,0.080648795,-0.06284184
1732438432682,2024-11-24T08:53:52.682Z,23295,0.019648341,0.080648795,-0.06284184
1732438432694,2024-11-24T08:53:52.694Z,23307,0.0136736855,0.08436842,-0.040799964
1732438432698,2024-11-24T08:53:52.698Z,23311,0.0136736855,0.08436842,-0.040799964
1732438432710,2024-11-24T08:53:52.710Z,23323,0.012845913,-0.01871124,-0.027405621
1732438432714,2024-11-24T08:53:52.714Z,23327,0.012845913,-0.01871124,-0.027405621
1732438432726,2024-11-24T08:53:52.726Z,23339,0.0436076,0.021733405,-0.026171379
1732438432729,2024-11-24T08:53:52.729Z,23342,0.0436076,0.021733405,-0.026171379
1732438432739,2024-11-24T08:53:52.739Z,23352,0.049103655,0.014830082,-0.04062939
1732438432742,2024-11-24T08:53:52.742Z,23355,0.049103655,0.014830082,-0.04062939
1732438432751,2024-11-24T08:53:52.751Z,23364,0.038784772,-0.033526246,-0.048370697
1732438432753,2024-11-24T08:53:52.753Z,23366,0.038784772,-0.033526246,-0.048370697
1732438432762,2024-11-24T08:53:52.762Z,23375,0.041131992,-0.007864715,-0.041018795
1732438432765,2024-11-24T08:53:52.765Z,23378,0.041131992,-0.007864715,-0.041018795
1732438432772,2024-11-24T08:53:52.772Z,23385,0.038199946,0.013853229,-0.025545077
1732438432775,2024-11-24T08:53:52.775Z,23388,0.038199946,0.013853229,-0.025545077
1732438432783,2024-11-24T08:53:52.783Z,23396,0.01639334,-0.0019045965,-0.010853307
1732438432786,2024-11-24T08:53:52.786Z,23399,0.01639334,-0.0019045965,-0.010853307
1732438432793,2024-11-24T08:53:52.793Z,23406,0.0070103933,-0.011060274,-4.6034637E-4
1732438432796,2024-11-24T08:53:52.796Z,23409,0.0070103933,-0.011060274,-4.6034637E-4
1732438432804,2024-11-24T08:53:52.804Z,23417,0.021407941,4.7272115E-4,-0.032965347
1732438432806,2024-11-24T08:53:52.806Z,23419,0.021407941,4.7272115E-4,-0.032965347
1732438432815,2024-11-24T08:53:52.815Z,23428,0.02718453,0.018865863,-0.0352726
1732438432817,2024-11-24T08:53:52.817Z,23430,0.02718453,0.018865863,-0.0352726
1732438432828,2024-11-24T08:53:52.828Z,23441,0.022054883,0.019770557,-0.0033746902
1732438432831,2024-11-24T08:53:52.831Z,23444,0.022054883,0.019770557,-0.0033746902
1732438432838,2024-11-24T08:53:52.838Z,23451,0.010532219,0.009331988,0.031943053
1732438432840,2024-11-24T08:53:52.840Z,23453,0.010532219,0.009331988,0.031943053
1732438432850,2024-11-24T08:53:52.850Z,23463,-0.01197749,0.0061067673,0.059377924
1732438432853,2024-11-24T08:53:52.853Z,23466,-0.01197749,0.0061067673,0.059377924
1732438432861,2024-11-24T08:53:52.861Z,23474,0.008503754,0.05489478,0.003780991
1732438432864,2024-11-24T08:53:52.864Z,23477,0.008503754,0.05489478,0.003780991
1732438432871,2024-11-24T08:53:52.871Z,23484,-0.028804846,0.08263936,-0.011715773
1732438432873,2024-11-24T08:53:52.873Z,23486,-0.028804846,0.08263936,-0.011715773
1732438432883,2024-11-24T08:53:52.883Z,23496,-0.082857445,0.1270571,-0.051321
1732438432885,2024-11-24T08:53:52.885Z,23498,-0.082857445,0.1270571,-0.051321
1732438432891,2024-11-24T08:53:52.891Z,23504,-0.06394706,0.14011222,-0.06374026
1732438432894,2024-11-24T08:53:52.894Z,23507,-0.06394706,0.14011222,-0.06374026
1732438432903,2024-11-24T08:53:52.903Z,23516,-0.03440549,0.13021775,-0.047502298
1732438432906,2024-11-24T08:53:52.906Z,23519,-0.03440549,0.13021775,-0.047502298
1732438432915,2024-11-24T08:53:52.915Z,23528,-0.011966064,0.119514376,-0.051091492
1732438432918,2024-11-24T08:53:52.918Z,23531,-0.011966064,0.119514376,-0.051091492
1732438432927,2024-11-24T08:53:52.927Z,23540,-0.025840882,0.10902023,-0.05914533
1732438432929,2024-11-24T08:53:52.929Z,23542,-0.025840882,0.10902023,-0.05914533
1732438432940,2024-11-24T08:53:52.940Z,23553,-0.06452011,0.12220551,-0.09694646
1732438432944,2024-11-24T08:53:52.944Z,23557,-0.06452011,0.12220551,-0.09694646
1732438432954,2024-11-24T08:53:52.954Z,23567,-0.1075336,0.13394682,-0.084409945
1732438432956,2024-11-24T08:53:52.956Z,23569,-0.1075336,0.13394682,-0.084409945
1732438432964,2024-11-24T08:53:52.964Z,23577,-0.083598465,0.049697373,-0.015508166
1732438432967,2024-11-24T08:53:52.967Z,23580,-0.083598465,0.049697373,-0.015508166
1732438432975,2024-11-24T08:53:52.975Z,23588,-0.04366048,0.051343583,0.015056863
1732438432978,2024-11-24T08:53:52.978Z,23591,-0.04366048,0.051343583,0.015056863
1732438432986,2024-11-24T08:53:52.986Z,23599,-0.00367786,0.03337882,0.02388929
1732438432989,2024-11-24T08:53:52.989Z,23602,-0.00367786,0.03337882,0.02388929
1732438432996,2024-11-24T08:53:52.996Z,23609,-0.014179811,0.03819054,0.0065111234
1732438432999,2024-11-24T08:53:52.999Z,23612,-0.014179811,0.03819054,0.0065111234
1732438433005,2024-11-24T08:53:53.005Z,23618,-0.049361214,0.060835835,-0.029878631
1732438433007,2024-11-24T08:53:53.007Z,23620,-0.049361214,0.060835835,-0.029878631
1732438433015,2024-11-24T08:53:53.015Z,23628,-0.06952364,0.07308934,-0.041673344
1732438433017,2024-11-24T08:53:53.017Z,23630,-0.06952364,0.07308934,-0.041673344
1732438433035,2024-11-24T08:53:53.035Z,23648,-0.069142506,0.065238334,-0.024453789
1732438433041,2024-11-24T08:53:53.041Z,23654,-0.069142506,0.065238334,-0.024453789
1732438433056,2024-11-24T08:53:53.056Z,23669,-0.051805753,0.06545044,0.031464595
1732438433058,2024-11-24T08:53:53.058Z,23671,-0.051805753,0.06545044,0.031464595
1732438433068,2024-11-24T08:53:53.068Z,23681,-0.070049316,0.10236975,0.018587345
1732438433070,2024-11-24T08:53:53.070Z,23683,-0.070049316,0.10236975,0.018587345
1732438433080,2024-11-24T08:53:53.080Z,23693,-0.08815407,0.12864959,-0.019479739
1732438433083,2024-11-24T08:53:53.083Z,23696,-0.08815407,0.12864959,-0.019479739
1732438433091,2024-11-24T08:53:53.091Z,23704,-0.019767689,0.08253063,-0.093191706
1732438433094,2024-11-24T08:53:53.094Z,23707,-0.019767689,0.08253063,-0.093191706
1732438433103,2024-11-24T08:53:53.103Z,23716,0.057006758,0.080970004,-0.071097925
1732438433105,2024-11-24T08:53:53.105Z,23718,0.057006758,0.080970004,-0.071097925
1732438433126,2024-11-24T08:53:53.126Z,23739,0.027270399,0.12963617,-0.05547627
1732438433131,2024-11-24T08:53:53.131Z,23744,0.027270399,0.12963617,-0.05547627
1732438433146,2024-11-24T08:53:53.146Z,23759,-0.022226937,0.15711802,-0.08125166
1732438433149,2024-11-24T08:53:53.149Z,23762,-0.022226937,0.15711802,-0.08125166
1732438433158,2024-11-24T08:53:53.158Z,23771,0.023627475,0.11414023,-0.04216848
1732438433162,2024-11-24T08:53:53.162Z,23775,0.023627475,0.11414023,-0.04216848
1732438433172,2024-11-24T08:53:53.172Z,23785,0.031341333,0.11901058,-0.014748905
1732438433174,2024-11-24T08:53:53.174Z,23787,0.031341333,0.11901058,-0.014748905
1732438433183,2024-11-24T08:53:53.183Z,23796,-0.044256598,0.14408304,0.010990839
1732438433186,2024-11-24T08:53:53.186Z,23799,-0.044256598,0.14408304,0.010990839
1732438433194,2024-11-24T08:53:53.194Z,23807,-0.055022247,0.13536872,-0.023171457
1732438433197,2024-11-24T08:53:53.197Z,23810,-0.055022247,0.13536872,-0.023171457
1732438433204,2024-11-24T08:53:53.204Z,23817,-0.057305586,0.14605863,-0.07261176
1732438433206,2024-11-24T08:53:53.206Z,23819,-0.057305586,0.14605863,-0.07261176
1732438433214,2024-11-24T08:53:53.214Z,23827,0.028758556,0.15602116,-0.041885294
1732438433217,2024-11-24T08:53:53.217Z,23830,0.028758556,0.15602116,-0.041885294
1732438433225,2024-11-24T08:53:53.225Z,23838,0.042080447,0.11836165,-0.011560346
1732438433227,2024-11-24T08:53:53.227Z,23840,0.042080447,0.11836165,-0.011560346
1732438433235,2024-11-24T08:53:53.235Z,23848,0.0074787624,0.096359745,-0.018154398
1732438433236,2024-11-24T08:53:53.236Z,23849,0.0074787624,0.096359745,-0.018154398
1732438433256,2024-11-24T08:53:53.256Z,23869,-0.062971905,0.099932045,-0.0070314473
1732438433259,2024-11-24T08:53:53.259Z,23872,-0.062971905,0.099932045,-0.0070314473
1732438433269,2024-11-24T08:53:53.269Z,23882,-0.026103694,0.13763227,-0.002572664
1732438433271,2024-11-24T08:53:53.271Z,23884,-0.026103694,0.13763227,-0.002572664
1732438433279,2024-11-24T08:53:53.279Z,23892,0.014211003,0.13428986,-0.0020964663
1732438433281,2024-11-24T08:53:53.281Z,23894,0.014211003,0.13428986,-0.0020964663
1732438433301,2024-11-24T08:53:53.301Z,23914,0.042632304,0.053829234,-0.0067227343
1732438433304,2024-11-24T08:53:53.304Z,23917,0.042632304,0.053829234,-0.0067227343
1732438433314,2024-11-24T08:53:53.314Z,23927,0.0041929567,0.024174517,-0.035664313
1732438433319,2024-11-24T08:53:53.319Z,23932,0.0041929567,0.024174517,-0.035664313
1732438433336,2024-11-24T08:53:53.336Z,23949,-0.05416553,0.034406047,-0.0428454
1732438433341,2024-11-24T08:53:53.341Z,23954,-0.05416553,0.034406047,-0.0428454
1732438433361,2024-11-24T08:53:53.361Z,23974,-0.051781297,0.052371006,-0.09644988
1732438433365,2024-11-24T08:53:53.365Z,23978,-0.051781297,0.052371006,-0.09644988
1732438433376,2024-11-24T08:53:53.376Z,23989,-0.0359667,0.066853136,-0.04841716
1732438433379,2024-11-24T08:53:53.379Z,23992,-0.0359667,0.066853136,-0.04841716
1732438433389,2024-11-24T08:53:53.389Z,24002,0.0056118495,0.05738354,-0.07990883
1732438433392,2024-11-24T08:53:53.392Z,24005,0.0056118495,0.05738354,-0.07990883
1732438433400,2024-11-24T08:53:53.400Z,24013,0.06660928,0.08696766,0.0078358315
1732438433402,2024-11-24T08:53:53.402Z,24015,0.06660928,0.08696766,0.0078358315
1732438433410,2024-11-24T08:53:53.410Z,24023,-0.059956085,-0.0012189029,0.031500213
1732438433413,2024-11-24T08:53:53.413Z,24026,-0.059956085,-0.0012189029,0.031500213
1732438433422,2024-11-24T08:53:53.422Z,24035,-0.09159806,0.028225858,-0.015076653
1732438433427,2024-11-24T08:53:53.427Z,24040,-0.09159806,0.028225858,-0.015076653
1732438433447,2024-11-24T08:53:53.447Z,24060,-0.08010265,0.080539584,-0.047422107
1732438433452,2024-11-24T08:53:53.452Z,24065,-0.08010265,0.080539584,-0.047422107
1732438433468,2024-11-24T08:53:53.468Z,24081,0.06407214,-0.040400494,-0.051694598
1732438433472,2024-11-24T08:53:53.472Z,24085,0.06407214,-0.040400494,-0.051694598
1732438433491,2024-11-24T08:53:53.491Z,24104,0.097114585,-0.06276834,0.016037874
1732438433514,2024-11-24T08:53:53.514Z,24127,0.097114585,-0.06276834,0.016037874
1732438433530,2024-11-24T08:53:53.530Z,24143,0.027410265,0.004614015,0.051904533
1732438433535,2024-11-24T08:53:53.535Z,24148,0.027410265,0.004614015,0.051904533
1732438433550,2024-11-24T08:53:53.550Z,24163,0.07889119,0.06746288,-0.04471619
1732438433552,2024-11-24T08:53:53.552Z,24165,0.07889119,0.06746288,-0.04471619
1732438433558,2024-11-24T08:53:53.558Z,24171,0.065919824,0.094544224,-0.031079082
1732438433560,2024-11-24T08:53:53.560Z,24173,0.065919824,0.094544224,-0.031079082
1732438433567,2024-11-24T08:53:53.567Z,24180,-0.0070032943,0.05410231,-0.011779276
1732438433570,2024-11-24T08:53:53.570Z,24183,-0.0070032943,0.05410231,-0.011779276
1732438433577,2024-11-24T08:53:53.577Z,24190,-0.07018217,-0.072556324,-0.006483797
1732438433579,2024-11-24T08:53:53.579Z,24192,-0.07018217,-0.072556324,-0.006483797
1732438433587,2024-11-24T08:53:53.587Z,24200,-0.0065254434,-0.14051001,0.03384702
1732438433589,2024-11-24T08:53:53.589Z,24202,-0.0065254434,-0.14051001,0.03384702
1732438433598,2024-11-24T08:53:53.598Z,24211,0.028681707,-0.119098015,0.04804861
1732438433600,2024-11-24T08:53:53.600Z,24213,0.028681707,-0.119098015,0.04804861
1732438433619,2024-11-24T08:53:53.619Z,24232,0.09567694,-0.060488857,0.033855308
1732438433626,2024-11-24T08:53:53.626Z,24239,0.09567694,-0.060488857,0.033855308
1732438433641,2024-11-24T08:53:53.641Z,24254,-0.03195747,-0.03715018,-0.02369212
1732438433643,2024-11-24T08:53:53.643Z,24256,-0.03195747,-0.03715018,-0.02369212
1732438433651,2024-11-24T08:53:53.651Z,24264,-0.049949028,0.0018669616,-0.0059730276
1732438433653,2024-11-24T08:53:53.653Z,24266,-0.049949028,0.0018669616,-0.0059730276
1732438433662,2024-11-24T08:53:53.662Z,24275,-0.025837963,-0.07111823,-0.022187626
1732438433665,2024-11-24T08:53:53.665Z,24278,-0.025837963,-0.07111823,-0.022187626
1732438433672,2024-11-24T08:53:53.672Z,24285,-0.00903351,2.5099635E-4,0.050747093
1732438433674,2024-11-24T08:53:53.674Z,24287,-0.00903351,2.5099635E-4,0.050747093
1732438433683,2024-11-24T08:53:53.683Z,24296,-0.021999864,-0.036933903,0.04047404
1732438433685,2024-11-24T08:53:53.685Z,24298,-0.021999864,-0.036933903,0.04047404
1732438433692,2024-11-24T08:53:53.692Z,24305,0.024650497,-0.093660444,0.039023343
1732438433695,2024-11-24T08:53:53.695Z,24308,0.024650497,-0.093660444,0.039023343
1732438433708,2024-11-24T08:53:53.708Z,24321,0.057301685,-0.06183632,0.01908112
1732438433710,2024-11-24T08:53:53.710Z,24323,0.057301685,-0.06183632,0.01908112
1732438433718,2024-11-24T08:53:53.718Z,24331,-0.02994031,-0.04917856,0.057731397
1732438433720,2024-11-24T08:53:53.720Z,24333,-0.02994031,-0.04917856,0.057731397
1732438433752,2024-11-24T08:53:53.752Z,24365,-0.007489338,-0.052267242,0.038686525
1732438433754,2024-11-24T08:53:53.754Z,24367,-0.007489338,-0.052267242,0.038686525
1732438433762,2024-11-24T08:53:53.762Z,24375,7.1195053E-4,-0.051764958,0.018722981
1732438433764,2024-11-24T08:53:53.764Z,24377,7.1195053E-4,-0.051764958,0.018722981
1732438433771,2024-11-24T08:53:53.771Z,24384,0.023131026,-0.094960935,-0.025479363
1732438433773,2024-11-24T08:53:53.773Z,24386,0.023131026,-0.094960935,-0.025479363
1732438433780,2024-11-24T08:53:53.780Z,24393,0.088164635,-0.06552619,-0.05056249
1732438433782,2024-11-24T08:53:53.782Z,24395,0.088164635,-0.06552619,-0.05056249
1732438433798,2024-11-24T08:53:53.798Z,24411,-0.04337649,-0.017719992,-0.010644686
1732438433801,2024-11-24T08:53:53.801Z,24414,-0.04337649,-0.017719992,-0.010644686
1732438433808,2024-11-24T08:53:53.808Z,24421,-0.053746648,-0.09456475,-0.011962466
1732438433810,2024-11-24T08:53:53.810Z,24423,-0.053746648,-0.09456475,-0.011962466
1732438433818,2024-11-24T08:53:53.818Z,24431,0.0026600168,-0.16933434,0.0083177425
1732438433820,2024-11-24T08:53:53.820Z,24433,0.0026600168,-0.16933434,0.0083177425
1732438433848,2024-11-24T08:53:53.848Z,24461,0.07371109,-0.08747033,-0.0015078988
1732438433854,2024-11-24T08:53:53.854Z,24467,0.07371109,-0.08747033,-0.0015078988
1732438433878,2024-11-24T08:53:53.878Z,24491,0.07528726,-0.04780678,0.024585633
1732438433885,2024-11-24T08:53:53.885Z,24498,0.07528726,-0.04780678,0.024585633
1732438433903,2024-11-24T08:53:53.903Z,24516,0.08058087,-0.03753295,-0.016077504
1732438433906,2024-11-24T08:53:53.906Z,24519,0.08058087,-0.03753295,-0.016077504
1732438433917,2024-11-24T08:53:53.917Z,24530,0.04495125,-0.0770269,-0.021134676
1732438433921,2024-11-24T08:53:53.921Z,24534,0.04495125,-0.0770269,-0.021134676
1732438433933,2024-11-24T08:53:53.933Z,24546,0.04672184,-0.049291365,0.042859133
1732438433936,2024-11-24T08:53:53.936Z,24549,0.04672184,-0.049291365,0.042859133
1732438433946,2024-11-24T08:53:53.946Z,24559,0.039609067,-0.105072945,0.069611736
1732438433949,2024-11-24T08:53:53.949Z,24562,0.039609067,-0.105072945,0.069611736
1732438433958,2024-11-24T08:53:53.958Z,24571,0.13211355,-0.0752145,0.024432078
1732438433961,2024-11-24T08:53:53.961Z,24574,0.13211355,-0.0752145,0.024432078
1732438433970,2024-11-24T08:53:53.970Z,24583,0.112453245,-0.08125815,0.019324994
1732438433972,2024-11-24T08:53:53.972Z,24585,0.112453245,-0.08125815,0.019324994
1732438433980,2024-11-24T08:53:53.980Z,24593,0.0032258283,0.0015334992,-2.6444084E-4
1732438433983,2024-11-24T08:53:53.983Z,24596,0.0032258283,0.0015334992,-2.6444084E-4
1732438433990,2024-11-24T08:53:53.990Z,24603,-0.065205246,-0.12709323,-0.054174904
1732438433992,2024-11-24T08:53:53.992Z,24605,-0.065205246,-0.12709323,-0.054174904
1732438433999,2024-11-24T08:53:53.999Z,24612,-0.09642804,-0.19857506,-0.08673069
1732438434002,2024-11-24T08:53:54.002Z,24615,-0.09642804,-0.19857506,-0.08673069
1732438434009,2024-11-24T08:53:54.009Z,24622,-0.07443513,-0.16635884,-0.17892405
1732438434011,2024-11-24T08:53:54.011Z,24624,-0.07443513,-0.16635884,-0.17892405
1732438434022,2024-11-24T08:53:54.022Z,24635,0.03756261,0.10752544,-0.110408634
1732438434025,2024-11-24T08:53:54.025Z,24638,0.03756261,0.10752544,-0.110408634
1732438434032,2024-11-24T08:53:54.032Z,24645,0.018708127,0.06434259,-0.08357768
1732438434034,2024-11-24T08:53:54.034Z,24647,0.018708127,0.06434259,-0.08357768
1732438434065,2024-11-24T08:53:54.065Z,24678,0.05159181,-0.06958074,-0.07695817
1732438434068,2024-11-24T08:53:54.068Z,24681,0.05159181,-0.06958074,-0.07695817
1732438434075,2024-11-24T08:53:54.075Z,24688,0.042350892,-0.14923298,-0.030015336
1732438434077,2024-11-24T08:53:54.077Z,24690,0.042350892,-0.14923298,-0.030015336
1732438434086,2024-11-24T08:53:54.086Z,24699,8.672065E-4,-0.0837031,-0.0454273
1732438434088,2024-11-24T08:53:54.088Z,24701,8.672065E-4,-0.0837031,-0.0454273
1732438434096,2024-11-24T08:53:54.096Z,24709,0.0034450488,-0.10939682,-0.110081494
1732438434099,2024-11-24T08:53:54.099Z,24712,0.0034450488,-0.10939682,-0.110081494
1732438434114,2024-11-24T08:53:54.114Z,24727,0.03754039,-0.2035967,-0.0021180552
1732438434117,2024-11-24T08:53:54.117Z,24730,0.03754039,-0.2035967,-0.0021180552
1732438434126,2024-11-24T08:53:54.126Z,24739,0.04845883,-0.24589625,-0.0072177253
1732438434128,2024-11-24T08:53:54.128Z,24741,0.04845883,-0.24589625,-0.0072177253
1732438434156,2024-11-24T08:53:54.156Z,24769,0.1562797,-0.26910946,-0.044177715
1732438434160,2024-11-24T08:53:54.160Z,24773,0.1562797,-0.26910946,-0.044177715
1732438434169,2024-11-24T08:53:54.169Z,24782,0.04245349,-0.27407157,-0.1006994
1732438434172,2024-11-24T08:53:54.172Z,24785,0.04245349,-0.27407157,-0.1006994
1732438434181,2024-11-24T08:53:54.181Z,24794,-0.13034746,-0.18654358,-0.15450326
1732438434184,2024-11-24T08:53:54.184Z,24797,-0.13034746,-0.18654358,-0.15450326
1732438434192,2024-11-24T08:53:54.192Z,24805,-0.09592699,-0.16462915,-0.16089924
1732438434195,2024-11-24T08:53:54.195Z,24808,-0.09592699,-0.16462915,-0.16089924
1732438434204,2024-11-24T08:53:54.204Z,24817,0.15658692,-0.44506904,0.023187453
1732438434206,2024-11-24T08:53:54.206Z,24819,0.15658692,-0.44506904,0.023187453
1732438434213,2024-11-24T08:53:54.213Z,24826,0.17410171,-0.34067369,0.045805424
1732438434215,2024-11-24T08:53:54.215Z,24828,0.17410171,-0.34067369,0.045805424
1732438434223,2024-11-24T08:53:54.223Z,24836,0.121425055,-0.1521159,0.058528487
1732438434224,2024-11-24T08:53:54.224Z,24837,0.121425055,-0.1521159,0.058528487
1732438434247,2024-11-24T08:53:54.247Z,24860,0.15659644,0.03719725,0.009312976
1732438434249,2024-11-24T08:53:54.249Z,24862,0.15659644,0.03719725,0.009312976
1732438434257,2024-11-24T08:53:54.257Z,24870,0.20225827,0.019527536,0.12627217
1732438434259,2024-11-24T08:53:54.259Z,24872,0.20225827,0.019527536,0.12627217
1732438434267,2024-11-24T08:53:54.267Z,24880,0.12541668,-0.16367559,0.23285756
1732438434270,2024-11-24T08:53:54.270Z,24883,0.12541668,-0.16367559,0.23285756
1732438434294,2024-11-24T08:53:54.294Z,24907,0.04596272,-0.31167164,0.14380087
1732438434297,2024-11-24T08:53:54.297Z,24910,0.04596272,-0.31167164,0.14380087
1732438434307,2024-11-24T08:53:54.307Z,24920,-0.027218955,-0.26935026,0.031287555
1732438434310,2024-11-24T08:53:54.310Z,24923,-0.027218955,-0.26935026,0.031287555
1732438434319,2024-11-24T08:53:54.319Z,24932,-0.06855023,-0.1351272,-0.027742147
1732438434322,2024-11-24T08:53:54.322Z,24935,-0.06855023,-0.1351272,-0.027742147
1732438434340,2024-11-24T08:53:54.340Z,24953,0.050743323,-0.084243655,-0.03744557
1732438434342,2024-11-24T08:53:54.342Z,24955,0.050743323,-0.084243655,-0.03744557
1732438434352,2024-11-24T08:53:54.352Z,24965,0.023442728,-0.10408666,-0.08618503
1732438434354,2024-11-24T08:53:54.354Z,24967,0.023442728,-0.10408666,-0.08618503
1732438434382,2024-11-24T08:53:54.382Z,24995,0.019354679,-0.060091697,-0.026987262
1732438434384,2024-11-24T08:53:54.384Z,24997,0.019354679,-0.060091697,-0.026987262
1732438434392,2024-11-24T08:53:54.392Z,25005,0.032996442,-0.059821688,-0.015506586
1732438434395,2024-11-24T08:53:54.395Z,25008,0.032996442,-0.059821688,-0.015506586
1732438434404,2024-11-24T08:53:54.404Z,25017,0.015279026,-0.07474435,-0.04777299
1732438434407,2024-11-24T08:53:54.407Z,25020,0.015279026,-0.07474435,-0.04777299
1732438434419,2024-11-24T08:53:54.419Z,25032,0.003332193,-0.09140405,-0.060620215
1732438434427,2024-11-24T08:53:54.427Z,25040,0.003332193,-0.09140405,-0.060620215
1732438434447,2024-11-24T08:53:54.447Z,25060,-0.0056551006,-0.13466994,-0.1402598
1732438434452,2024-11-24T08:53:54.452Z,25065,-0.0056551006,-0.13466994,-0.1402598
1732438434471,2024-11-24T08:53:54.471Z,25084,1.06826614E-4,-0.06398885,-0.06312235
1732438434477,2024-11-24T08:53:54.477Z,25090,1.06826614E-4,-0.06398885,-0.06312235
1732438434490,2024-11-24T08:53:54.490Z,25103,0.07496311,-0.017291907,-0.026372414
1732438434493,2024-11-24T08:53:54.493Z,25106,0.07496311,-0.017291907,-0.026372414
1732438434504,2024-11-24T08:53:54.504Z,25117,0.120002635,0.013184553,0.02805052
1732438434507,2024-11-24T08:53:54.507Z,25120,0.120002635,0.013184553,0.02805052
1732438434517,2024-11-24T08:53:54.517Z,25130,0.09516389,-0.0421599,0.049901545
1732438434520,2024-11-24T08:53:54.520Z,25133,0.09516389,-0.0421599,0.049901545
1732438434528,2024-11-24T08:53:54.528Z,25141,0.07174377,-0.082107216,0.069470026
1732438434531,2024-11-24T08:53:54.531Z,25144,0.07174377,-0.082107216,0.069470026
1732438434539,2024-11-24T08:53:54.539Z,25152,-0.053203035,0.025347227,-0.1289262
1732438434541,2024-11-24T08:53:54.541Z,25154,-0.053203035,0.025347227,-0.1289262
1732438434549,2024-11-24T08:53:54.549Z,25162,0.043184645,0.09541985,-0.05616532
1732438434551,2024-11-24T08:53:54.551Z,25164,0.043184645,0.09541985,-0.05616532
1732438434561,2024-11-24T08:53:54.561Z,25174,0.12463002,0.059204847,0.01477222
1732438434564,2024-11-24T08:53:54.564Z,25177,0.12463002,0.059204847,0.01477222
1732438434571,2024-11-24T08:53:54.571Z,25184,0.10683879,-0.024692751,0.02254202
1732438434573,2024-11-24T08:53:54.573Z,25186,0.10683879,-0.024692751,0.02254202
1732438434579,2024-11-24T08:53:54.579Z,25192,0.03487687,-0.042347685,0.020027973
1732438434582,2024-11-24T08:53:54.582Z,25195,0.03487687,-0.042347685,0.020027973
1732438434607,2024-11-24T08:53:54.607Z,25220,-8.0540555E-4,-0.032169156,0.07456746
1732438434610,2024-11-24T08:53:54.610Z,25223,-8.0540555E-4,-0.032169156,0.07456746
1732438434620,2024-11-24T08:53:54.620Z,25233,0.0012430446,-0.06343089,0.079817034
1732438434623,2024-11-24T08:53:54.623Z,25236,0.0012430446,-0.06343089,0.079817034
1732438434631,2024-11-24T08:53:54.631Z,25244,0.022476766,-0.06946676,0.017747466
1732438434634,2024-11-24T08:53:54.634Z,25247,0.022476766,-0.06946676,0.017747466
1732438434651,2024-11-24T08:53:54.651Z,25264,0.06079047,-0.055105127,0.006769608
1732438434655,2024-11-24T08:53:54.655Z,25268,0.06079047,-0.055105127,0.006769608
1732438434664,2024-11-24T08:53:54.664Z,25277,-0.028506588,-1.0950093E-4,-0.04078907
1732438434667,2024-11-24T08:53:54.667Z,25280,-0.028506588,-1.0950093E-4,-0.04078907
1732438434676,2024-11-24T08:53:54.676Z,25289,-0.086506,-0.025539195,-0.046690915
1732438434678,2024-11-24T08:53:54.678Z,25291,-0.086506,-0.025539195,-0.046690915
1732438434687,2024-11-24T08:53:54.687Z,25300,-0.08498417,-0.053248085,-0.034052696
1732438434689,2024-11-24T08:53:54.689Z,25302,-0.08498417,-0.053248085,-0.034052696
1732438434705,2024-11-24T08:53:54.705Z,25318,-0.04119885,-0.08468321,0.02193646
1732438434709,2024-11-24T08:53:54.709Z,25322,-0.04119885,-0.08468321,0.02193646
1732438434719,2024-11-24T08:53:54.719Z,25332,-0.048504,-0.109468155,0.053185165
1732438434721,2024-11-24T08:53:54.721Z,25334,-0.048504,-0.109468155,0.053185165
1732438434741,2024-11-24T08:53:54.741Z,25354,-0.027103303,-0.121425636,0.028802853
1732438434743,2024-11-24T08:53:54.743Z,25356,-0.027103303,-0.121425636,0.028802853
1732438434751,2024-11-24T08:53:54.751Z,25364,0.040456947,0.014368058,0.028167218
1732438434753,2024-11-24T08:53:54.753Z,25366,0.040456947,0.014368058,0.028167218
1732438434760,2024-11-24T08:53:54.760Z,25373,-0.018111657,-0.0021216534,0.0036628596
1732438434763,2024-11-24T08:53:54.763Z,25376,-0.018111657,-0.0021216534,0.0036628596
1732438434786,2024-11-24T08:53:54.786Z,25399,-0.042412523,-0.0633385,-0.047991943
1732438434788,2024-11-24T08:53:54.788Z,25401,-0.042412523,-0.0633385,-0.047991943
1732438434795,2024-11-24T08:53:54.795Z,25408,0.02963629,-0.07389971,-0.0289796
1732438434798,2024-11-24T08:53:54.798Z,25411,0.02963629,-0.07389971,-0.0289796
1732438434805,2024-11-24T08:53:54.805Z,25418,0.044170786,-0.08200122,-0.014786102
1732438434807,2024-11-24T08:53:54.807Z,25420,0.044170786,-0.08200122,-0.014786102
1732438434834,2024-11-24T08:53:54.834Z,25447,0.04568017,-0.067388974,-0.023329021
1732438434837,2024-11-24T08:53:54.837Z,25450,0.04568017,-0.067388974,-0.023329021
1732438434845,2024-11-24T08:53:54.845Z,25458,0.008816867,0.056173585,0.01316559
1732438434848,2024-11-24T08:53:54.848Z,25461,0.008816867,0.056173585,0.01316559
1732438434856,2024-11-24T08:53:54.856Z,25469,-0.0038578412,0.093626596,0.0026577557
1732438434859,2024-11-24T08:53:54.859Z,25472,-0.0038578412,0.093626596,0.0026577557
1732438434876,2024-11-24T08:53:54.876Z,25489,-0.019673651,0.021991987,0.0021334447
1732438434880,2024-11-24T08:53:54.880Z,25493,-0.019673651,0.021991987,0.0021334447
1732438434889,2024-11-24T08:53:54.889Z,25502,0.009716311,-0.07577318,0.027620563
1732438434892,2024-11-24T08:53:54.892Z,25505,0.009716311,-0.07577318,0.027620563
1732438434900,2024-11-24T08:53:54.900Z,25513,0.07186078,-0.08898749,0.00641779
1732438434903,2024-11-24T08:53:54.903Z,25516,0.07186078,-0.08898749,0.00641779
1732438434910,2024-11-24T08:53:54.910Z,25523,0.069677114,-0.071435355,0.027071478
1732438434912,2024-11-24T08:53:54.912Z,25525,0.069677114,-0.071435355,0.027071478
1732438434923,2024-11-24T08:53:54.923Z,25536,-7.497799E-5,-0.04115008,0.017204313
1732438434925,2024-11-24T08:53:54.925Z,25538,-7.497799E-5,-0.04115008,0.017204313
1732438434933,2024-11-24T08:53:54.933Z,25546,-0.0240188,0.026193185,-0.0024252122
1732438434936,2024-11-24T08:53:54.936Z,25549,-0.0240188,0.026193185,-0.0024252122
1732438434942,2024-11-24T08:53:54.942Z,25555,-0.0201842,0.106179334,0.021849714
1732438434945,2024-11-24T08:53:54.945Z,25558,-0.0201842,0.106179334,0.021849714
1732438434969,2024-11-24T08:53:54.969Z,25582,0.011507565,-0.044512223,-0.001272146
1732438434972,2024-11-24T08:53:54.972Z,25585,0.011507565,-0.044512223,-0.001272146
1732438434980,2024-11-24T08:53:54.980Z,25593,0.03251616,-0.104007594,-0.03189212
1732438434983,2024-11-24T08:53:54.983Z,25596,0.03251616,-0.104007594,-0.03189212
1732438434991,2024-11-24T08:53:54.991Z,25604,0.016526958,-0.12208459,-0.036882583
1732438434993,2024-11-24T08:53:54.993Z,25606,0.016526958,-0.12208459,-0.036882583
1732438435015,2024-11-24T08:53:55.015Z,25628,-0.09003288,-0.0822104,-0.12804224
1732438435017,2024-11-24T08:53:55.017Z,25630,-0.09003288,-0.0822104,-0.12804224
1732438435026,2024-11-24T08:53:55.026Z,25639,-0.1004072,0.07652656,-0.09477032
1732438435029,2024-11-24T08:53:55.029Z,25642,-0.1004072,0.07652656,-0.09477032
1732438435058,2024-11-24T08:53:55.058Z,25671,-0.04038875,0.12085917,0.03310677
1732438435061,2024-11-24T08:53:55.061Z,25674,-0.04038875,0.12085917,0.03310677
1732438435071,2024-11-24T08:53:55.071Z,25684,0.0845233,0.0014847781,0.04332218
1732438435074,2024-11-24T08:53:55.074Z,25687,0.0845233,0.0014847781,0.04332218
1732438435085,2024-11-24T08:53:55.085Z,25698,0.038064662,0.039575152,0.018271921
1732438435088,2024-11-24T08:53:55.088Z,25701,0.038064662,0.039575152,0.018271921
1732438435107,2024-11-24T08:53:55.107Z,25720,0.017151458,0.003996103,-0.039714288
1732438435115,2024-11-24T08:53:55.115Z,25728,0.017151458,0.003996103,-0.039714288
1732438435136,2024-11-24T08:53:55.136Z,25749,-0.05909018,0.022458388,-0.1465934
1732438435141,2024-11-24T08:53:55.141Z,25754,-0.05909018,0.022458388,-0.1465934
1732438435158,2024-11-24T08:53:55.158Z,25771,-0.033744518,0.047121868,-0.117541306
1732438435162,2024-11-24T08:53:55.162Z,25775,-0.033744518,0.047121868,-0.117541306
1732438435174,2024-11-24T08:53:55.174Z,25787,0.025209757,-0.008370597,-0.036113083
1732438435178,2024-11-24T08:53:55.178Z,25791,0.025209757,-0.008370597,-0.036113083
1732438435190,2024-11-24T08:53:55.190Z,25803,0.005285498,0.016771438,0.13629076
1732438435193,2024-11-24T08:53:55.193Z,25806,0.005285498,0.016771438,0.13629076
1732438435204,2024-11-24T08:53:55.204Z,25817,-0.016728746,-0.0022847378,0.12574401
1732438435207,2024-11-24T08:53:55.207Z,25820,-0.016728746,-0.0022847378,0.12574401
1732438435216,2024-11-24T08:53:55.216Z,25829,-0.0074878917,0.01105794,0.03783741
1732438435219,2024-11-24T08:53:55.219Z,25832,-0.0074878917,0.01105794,0.03783741
1732438435228,2024-11-24T08:53:55.228Z,25841,-0.036112256,0.04168436,-0.1342471
1732438435230,2024-11-24T08:53:55.230Z,25843,-0.036112256,0.04168436,-0.1342471
1732438435239,2024-11-24T08:53:55.239Z,25852,-0.042281434,0.118349105,-0.11376136
1732438435241,2024-11-24T08:53:55.241Z,25854,-0.042281434,0.118349105,-0.11376136
1732438435248,2024-11-24T08:53:55.248Z,25861,0.008514827,0.09779279,-0.05984916
1732438435250,2024-11-24T08:53:55.250Z,25863,0.008514827,0.09779279,-0.05984916
1732438435257,2024-11-24T08:53:55.257Z,25870,0.013862601,0.08961649,0.02359672
1732438435259,2024-11-24T08:53:55.259Z,25872,0.013862601,0.08961649,0.02359672
1732438435266,2024-11-24T08:53:55.266Z,25879,-0.010483899,0.1046542,0.058877923
1732438435269,2024-11-24T08:53:55.269Z,25882,-0.010483899,0.1046542,0.058877923
1732438435281,2024-11-24T08:53:55.281Z,25894,-0.019021763,0.1125052,0.037890382
1732438435283,2024-11-24T08:53:55.283Z,25896,-0.019021763,0.1125052,0.037890382
1732438435291,2024-11-24T08:53:55.291Z,25904,-0.029472755,0.13157411,-0.04272177
1732438435294,2024-11-24T08:53:55.294Z,25907,-0.029472755,0.13157411,-0.04272177
1732438435302,2024-11-24T08:53:55.302Z,25915,-0.017768811,-0.031367153,-0.16377595
1732438435304,2024-11-24T08:53:55.304Z,25917,-0.017768811,-0.031367153,-0.16377595
1732438435311,2024-11-24T08:53:55.311Z,25924,0.016294973,-0.07867875,-0.16600263
1732438435314,2024-11-24T08:53:55.314Z,25927,0.016294973,-0.07867875,-0.16600263
1732438435328,2024-11-24T08:53:55.328Z,25941,0.034847382,-0.057322666,-0.0929374
1732438435333,2024-11-24T08:53:55.333Z,25946,0.034847382,-0.057322666,-0.0929374
1732438435342,2024-11-24T08:53:55.342Z,25955,0.058478285,-0.018438265,0.09926116
1732438435343,2024-11-24T08:53:55.343Z,25956,0.058478285,-0.018438265,0.09926116
1732438435350,2024-11-24T08:53:55.350Z,25963,0.011770499,0.056690846,0.082299426
1732438435352,2024-11-24T08:53:55.352Z,25965,0.011770499,0.056690846,0.082299426
1732438435373,2024-11-24T08:53:55.373Z,25986,0.03135596,0.036685143,-0.1541886
1732438435375,2024-11-24T08:53:55.375Z,25988,0.03135596,0.036685143,-0.1541886
1732438435383,2024-11-24T08:53:55.383Z,25996,0.019209802,0.0029438827,-0.17638417
1732438435385,2024-11-24T08:53:55.385Z,25998,0.019209802,0.0029438827,-0.17638417
1732438435421,2024-11-24T08:53:55.421Z,26034,-9.488946E-5,0.085557565,-0.17374025
1732438435427,2024-11-24T08:53:55.427Z,26040,-9.488946E-5,0.085557565,-0.17374025
1732438435443,2024-11-24T08:53:55.443Z,26056,0.067063265,0.08557283,0.091978855
1732438435446,2024-11-24T08:53:55.446Z,26059,0.067063265,0.08557283,0.091978855
1732438435456,2024-11-24T08:53:55.456Z,26069,0.049461696,0.04952515,0.13709956
1732438435459,2024-11-24T08:53:55.459Z,26072,0.049461696,0.04952515,0.13709956
1732438435468,2024-11-24T08:53:55.468Z,26081,-0.010099248,0.041804265,0.07480668
1732438435471,2024-11-24T08:53:55.471Z,26084,-0.010099248,0.041804265,0.07480668
1732438435479,2024-11-24T08:53:55.479Z,26092,-0.0028994891,0.14168505,-0.11755355
1732438435482,2024-11-24T08:53:55.482Z,26095,-0.0028994891,0.14168505,-0.11755355
1732438435490,2024-11-24T08:53:55.490Z,26103,-0.031855177,0.13561077,-0.16231984
1732438435492,2024-11-24T08:53:55.492Z,26105,-0.031855177,0.13561077,-0.16231984
1732438435500,2024-11-24T08:53:55.500Z,26113,-0.05353697,0.07053795,-0.17110884
1732438435503,2024-11-24T08:53:55.503Z,26116,-0.05353697,0.07053795,-0.17110884
1732438435511,2024-11-24T08:53:55.511Z,26124,-0.04013598,0.01617181,-0.08164552
1732438435513,2024-11-24T08:53:55.513Z,26126,-0.04013598,0.01617181,-0.08164552
1732438435522,2024-11-24T08:53:55.522Z,26135,-0.026918132,-0.03661785,0.006064027
1732438435524,2024-11-24T08:53:55.524Z,26137,-0.026918132,-0.03661785,0.006064027
1732438435531,2024-11-24T08:53:55.531Z,26144,-0.0051165307,-0.028451277,0.013566932
1732438435533,2024-11-24T08:53:55.533Z,26146,-0.0051165307,-0.028451277,0.013566932
1732438435553,2024-11-24T08:53:55.553Z,26166,-0.015095034,-0.017969823,0.02694299
1732438435555,2024-11-24T08:53:55.555Z,26168,-0.015095034,-0.017969823,0.02694299
1732438435563,2024-11-24T08:53:55.563Z,26176,-0.022694407,0.035530232,-0.016007751
1732438435565,2024-11-24T08:53:55.565Z,26178,-0.022694407,0.035530232,-0.016007751
1732438435572,2024-11-24T08:53:55.572Z,26185,-0.03474188,0.05181971,-0.08026792
1732438435575,2024-11-24T08:53:55.575Z,26188,-0.03474188,0.05181971,-0.08026792
1732438435605,2024-11-24T08:53:55.605Z,26218,-0.0221329,0.009374388,-0.13308875
1732438435612,2024-11-24T08:53:55.612Z,26225,-0.0221329,0.009374388,-0.13308875
1732438435637,2024-11-24T08:53:55.637Z,26250,0.001808686,0.014938902,-0.054459132
1732438435646,2024-11-24T08:53:55.646Z,26259,0.001808686,0.014938902,-0.054459132
1732438435666,2024-11-24T08:53:55.666Z,26279,-0.00599255,0.024264278,0.029431948
1732438435671,2024-11-24T08:53:55.671Z,26284,-0.00599255,0.024264278,0.029431948
1732438435686,2024-11-24T08:53:55.686Z,26299,-0.02020556,0.036252197,0.053602234
1732438435690,2024-11-24T08:53:55.690Z,26303,-0.02020556,0.036252197,0.053602234
1732438435701,2024-11-24T08:53:55.701Z,26314,-0.022429492,0.038564943,0.019552456
1732438435705,2024-11-24T08:53:55.705Z,26318,-0.022429492,0.038564943,0.019552456
1732438435716,2024-11-24T08:53:55.716Z,26329,-0.018751547,0.041308787,-0.016634488
1732438435719,2024-11-24T08:53:55.719Z,26332,-0.018751547,0.041308787,-0.016634488
1732438435730,2024-11-24T08:53:55.730Z,26343,-0.017865013,-0.0039275433,-0.076720275
1732438435733,2024-11-24T08:53:55.733Z,26346,-0.017865013,-0.0039275433,-0.076720275
1732438435742,2024-11-24T08:53:55.742Z,26355,0.0022491694,-0.0018345781,-0.042634856
1732438435745,2024-11-24T08:53:55.745Z,26358,0.0022491694,-0.0018345781,-0.042634856
1732438435753,2024-11-24T08:53:55.753Z,26366,0.0026766704,0.0036123637,0.014363804
1732438435756,2024-11-24T08:53:55.756Z,26369,0.0026766704,0.0036123637,0.014363804
1732438435764,2024-11-24T08:53:55.764Z,26377,0.006782566,0.06476202,0.027456895
1732438435766,2024-11-24T08:53:55.766Z,26379,0.006782566,0.06476202,0.027456895
1732438435773,2024-11-24T08:53:55.773Z,26386,0.016885996,0.10153692,0.03903421
1732438435776,2024-11-24T08:53:55.776Z,26389,0.016885996,0.10153692,0.03903421
1732438435785,2024-11-24T08:53:55.785Z,26398,0.028686665,0.09993078,0.06035463
1732438435787,2024-11-24T08:53:55.787Z,26400,0.028686665,0.09993078,0.06035463
1732438435794,2024-11-24T08:53:55.794Z,26407,-0.027912209,0.081867985,-0.013162454
1732438435796,2024-11-24T08:53:55.796Z,26409,-0.027912209,0.081867985,-0.013162454
1732438435803,2024-11-24T08:53:55.803Z,26416,-0.02148168,0.089638084,-0.029786512
1732438435805,2024-11-24T08:53:55.805Z,26418,-0.02148168,0.089638084,-0.029786512
1732438435814,2024-11-24T08:53:55.814Z,26427,-0.011500685,0.055628415,-0.025341976
1732438435820,2024-11-24T08:53:55.820Z,26433,-0.011500685,0.055628415,-0.025341976
1732438435838,2024-11-24T08:53:55.838Z,26451,-0.021211233,0.016272265,-0.00373898
1732438435843,2024-11-24T08:53:55.843Z,26456,-0.021211233,0.016272265,-0.00373898
1732438435859,2024-11-24T08:53:55.859Z,26472,-6.40595E-4,0.006950294,0.011478828
1732438435864,2024-11-24T08:53:55.864Z,26477,-6.40595E-4,0.006950294,0.011478828
1732438435872,2024-11-24T08:53:55.872Z,26485,0.023040537,-0.047078785,0.031136068
1732438435875,2024-11-24T08:53:55.875Z,26488,0.023040537,-0.047078785,0.031136068
1732438435884,2024-11-24T08:53:55.884Z,26497,0.0024036232,-0.019956982,0.02788814
1732438435887,2024-11-24T08:53:55.887Z,26500,0.0024036232,-0.019956982,0.02788814
1732438435895,2024-11-24T08:53:55.895Z,26508,-0.024360236,-0.015434573,0.0070602084
1732438435897,2024-11-24T08:53:55.897Z,26510,-0.024360236,-0.015434573,0.0070602084
1732438435907,2024-11-24T08:53:55.907Z,26520,-0.039142374,-0.02350701,-0.016105218
1732438435910,2024-11-24T08:53:55.910Z,26523,-0.039142374,-0.02350701,-0.016105218
1732438435918,2024-11-24T08:53:55.918Z,26531,-0.015832901,-0.06250539,0.0041302806
1732438435920,2024-11-24T08:53:55.920Z,26533,-0.015832901,-0.06250539,0.0041302806
1732438435930,2024-11-24T08:53:55.930Z,26543,0.012501996,-0.05178616,0.030801537
1732438435932,2024-11-24T08:53:55.932Z,26545,0.012501996,-0.05178616,0.030801537
1732438435960,2024-11-24T08:53:55.960Z,26573,0.030568166,-0.03927855,0.073527806
1732438435966,2024-11-24T08:53:55.966Z,26579,0.030568166,-0.03927855,0.073527806
1732438435982,2024-11-24T08:53:55.982Z,26595,0.033572122,-0.009315553,0.089164704
