Timestamp (ms),ISO DateTime,Elapsed Time (ms),Acceleration X,Acceleration Y,Acceleration Z
1732438059852,2024-11-24T08:47:39.852Z,90047,-0.0058259163,-0.04295772,-0.09529362
1732438059858,2024-11-24T08:47:39.858Z,90053,-0.0058259163,-0.04295772,-0.09529362
1732438059880,2024-11-24T08:47:39.880Z,90075,0.009493929,-0.036840156,-0.10883276
1732438059886,2024-11-24T08:47:39.886Z,90081,0.009493929,-0.036840156,-0.10883276
1732438059907,2024-11-24T08:47:39.907Z,90102,-0.0019622643,-0.022889778,-0.11306134
1732438059913,2024-11-24T08:47:39.913Z,90108,-0.0019622643,-0.022889778,-0.11306134
1732438059931,2024-11-24T08:47:39.931Z,90126,-0.02098991,-0.0083917,-0.12018417
1732438059936,2024-11-24T08:47:39.936Z,90131,-0.02098991,-0.0083917,-0.12018417
1732438059953,2024-11-24T08:47:39.953Z,90148,-0.01078922,-0.012936085,-0.10233326
1732438059959,2024-11-24T08:47:39.959Z,90154,-0.01078922,-0.012936085,-0.10233326
1732438059973,2024-11-24T08:47:39.973Z,90168,0.00844786,-0.027956482,-0.080459796
1732438059978,2024-11-24T08:47:39.978Z,90173,0.00844786,-0.027956482,-0.080459796
1732438059990,2024-11-24T08:47:39.990Z,90185,0.0028308567,-0.02708203,-0.07670601
1732438059993,2024-11-24T08:47:39.993Z,90188,0.0028308567,-0.02708203,-0.07670601
1732438060006,2024-11-24T08:47:40.006Z,90201,-0.0055703004,-0.019017957,-0.080190636
1732438060011,2024-11-24T08:47:40.011Z,90206,-0.0055703004,-0.019017957,-0.080190636
1732438060030,2024-11-24T08:47:40.030Z,90225,0.008777068,-0.021223633,-0.08407374
1732438060035,2024-11-24T08:47:40.035Z,90230,0.008777068,-0.021223633,-0.08407374
1732438060048,2024-11-24T08:47:40.048Z,90243,0.017439725,-0.022407819,-0.089598015
1732438060052,2024-11-24T08:47:40.052Z,90247,0.017439725,-0.022407819,-0.089598015
1732438060065,2024-11-24T08:47:40.065Z,90260,0.0071200402,-0.021098476,-0.092568085
1732438060069,2024-11-24T08:47:40.069Z,90264,0.0071200402,-0.021098476,-0.092568085
1732438060080,2024-11-24T08:47:40.080Z,90275,0.013671352,-0.011875988,-0.106360264
1732438060085,2024-11-24T08:47:40.085Z,90280,0.013671352,-0.011875988,-0.106360264
1732438060098,2024-11-24T08:47:40.098Z,90293,0.019610925,-0.022681182,-0.08833319
1732438060101,2024-11-24T08:47:40.101Z,90296,0.019610925,-0.022681182,-0.08833319
1732438060115,2024-11-24T08:47:40.115Z,90310,0.0039174785,-0.027356172,-0.0690998
1732438060119,2024-11-24T08:47:40.119Z,90314,0.0039174785,-0.027356172,-0.0690998
1732438060132,2024-11-24T08:47:40.132Z,90327,-0.001307617,-0.024322042,-0.06783322
1732438060136,2024-11-24T08:47:40.136Z,90331,-0.001307617,-0.024322042,-0.06783322
1732438060150,2024-11-24T08:47:40.150Z,90345,0.0038176777,-0.027206993,-0.071656294
1732438060154,2024-11-24T08:47:40.154Z,90349,0.0038176777,-0.027206993,-0.071656294
1732438060170,2024-11-24T08:47:40.170Z,90365,0.0103149675,-0.020282567,-0.071565226
1732438060173,2024-11-24T08:47:40.173Z,90368,0.0103149675,-0.020282567,-0.071565226
1732438060186,2024-11-24T08:47:40.186Z,90381,0.018785195,-0.010821434,-0.09594374
1732438060192,2024-11-24T08:47:40.192Z,90387,0.018785195,-0.010821434,-0.09594374
1732438060206,2024-11-24T08:47:40.206Z,90401,0.022635913,0.0030916994,-0.09706078
1732438060210,2024-11-24T08:47:40.210Z,90405,0.022635913,0.0030916994,-0.09706078
1732438060223,2024-11-24T08:47:40.223Z,90418,-0.008220739,-0.011730992,-0.07463932
1732438060226,2024-11-24T08:47:40.226Z,90421,-0.008220739,-0.011730992,-0.07463932
1732438060239,2024-11-24T08:47:40.239Z,90434,-0.009602215,-0.018474441,-0.06725059
1732438060243,2024-11-24T08:47:40.243Z,90438,-0.009602215,-0.018474441,-0.06725059
1732438060256,2024-11-24T08:47:40.256Z,90451,-6.691372E-4,-0.030595686,-0.05698203
1732438060260,2024-11-24T08:47:40.260Z,90455,-6.691372E-4,-0.030595686,-0.05698203
1732438060272,2024-11-24T08:47:40.272Z,90467,0.059015773,-0.04270225,-0.028948845
1732438060276,2024-11-24T08:47:40.276Z,90471,0.059015773,-0.04270225,-0.028948845
1732438060288,2024-11-24T08:47:40.288Z,90483,0.015808418,-0.034472175,-0.044444613
1732438060293,2024-11-24T08:47:40.293Z,90488,0.015808418,-0.034472175,-0.044444613
1732438060305,2024-11-24T08:47:40.305Z,90500,-0.014781798,-0.015973521,-0.076937795
1732438060309,2024-11-24T08:47:40.309Z,90504,-0.014781798,-0.015973521,-0.076937795
1732438060322,2024-11-24T08:47:40.322Z,90517,0.0010933317,-0.02764626,-0.07518948
1732438060326,2024-11-24T08:47:40.326Z,90521,0.0010933317,-0.02764626,-0.07518948
1732438060339,2024-11-24T08:47:40.339Z,90534,0.03810508,-0.03044787,-0.042713482
1732438060342,2024-11-24T08:47:40.342Z,90537,0.03810508,-0.03044787,-0.042713482
1732438060354,2024-11-24T08:47:40.354Z,90549,0.021942245,-0.04797648,-0.037172623
1732438060357,2024-11-24T08:47:40.357Z,90552,0.021942245,-0.04797648,-0.037172623
1732438060370,2024-11-24T08:47:40.370Z,90565,0.03611909,-0.023374267,-0.03438835
1732438060374,2024-11-24T08:47:40.374Z,90569,0.03611909,-0.023374267,-0.03438835
1732438060388,2024-11-24T08:47:40.388Z,90583,0.0075160083,0.0034411105,-0.09371687
1732438060392,2024-11-24T08:47:40.392Z,90587,0.0075160083,0.0034411105,-0.09371687
1732438060405,2024-11-24T08:47:40.405Z,90600,0.0032192396,-0.02917237,-0.06859946
1732438060410,2024-11-24T08:47:40.410Z,90605,0.0032192396,-0.02917237,-0.06859946
1732438060424,2024-11-24T08:47:40.424Z,90619,-0.010572382,-0.0027277984,-0.077907234
1732438060428,2024-11-24T08:47:40.428Z,90623,-0.010572382,-0.0027277984,-0.077907234
1732438060441,2024-11-24T08:47:40.441Z,90636,0.015908122,-0.011369522,-0.049089383
1732438060446,2024-11-24T08:47:40.446Z,90641,0.015908122,-0.011369522,-0.049089383
1732438060457,2024-11-24T08:47:40.457Z,90652,0.002435253,0.0038364222,-0.029986357
1732438060461,2024-11-24T08:47:40.461Z,90656,0.002435253,0.0038364222,-0.029986357
1732438060474,2024-11-24T08:47:40.474Z,90669,0.0045025446,0.005110562,-0.054140598
1732438060478,2024-11-24T08:47:40.478Z,90673,0.0045025446,0.005110562,-0.054140598
1732438060491,2024-11-24T08:47:40.491Z,90686,-0.026769659,-0.0063458025,-0.111279
1732438060494,2024-11-24T08:47:40.494Z,90689,-0.026769659,-0.0063458025,-0.111279
1732438060505,2024-11-24T08:47:40.505Z,90700,-0.04296562,0.004822125,-0.08877209
1732438060508,2024-11-24T08:47:40.508Z,90703,-0.04296562,0.004822125,-0.08877209
1732438060522,2024-11-24T08:47:40.522Z,90717,-0.033435673,0.0018913707,-0.05329644
1732438060525,2024-11-24T08:47:40.525Z,90720,-0.033435673,0.0018913707,-0.05329644
1732438060537,2024-11-24T08:47:40.537Z,90732,0.0037696376,0.0077163144,-0.04954873
1732438060541,2024-11-24T08:47:40.541Z,90736,0.0037696376,0.0077163144,-0.04954873
1732438060553,2024-11-24T08:47:40.553Z,90748,-0.03362314,9.729634E-4,-0.0792114
1732438060556,2024-11-24T08:47:40.556Z,90751,-0.03362314,9.729634E-4,-0.0792114
1732438060571,2024-11-24T08:47:40.571Z,90766,-0.0596804,-0.0037412168,-0.10775436
1732438060575,2024-11-24T08:47:40.575Z,90770,-0.0596804,-0.0037412168,-0.10775436
1732438060587,2024-11-24T08:47:40.587Z,90782,-0.011952814,-5.170661E-4,-0.1081495
1732438060592,2024-11-24T08:47:40.592Z,90787,-0.011952814,-5.170661E-4,-0.1081495
1732438060604,2024-11-24T08:47:40.604Z,90799,-0.041983977,0.0137755275,-0.07212584
1732438060607,2024-11-24T08:47:40.607Z,90802,-0.041983977,0.0137755275,-0.07212584
1732438060619,2024-11-24T08:47:40.619Z,90814,-0.10002415,0.010166082,-0.07100151
1732438060623,2024-11-24T08:47:40.623Z,90818,-0.10002415,0.010166082,-0.07100151
1732438060647,2024-11-24T08:47:40.647Z,90842,0.021025393,0.038923398,-0.077528775
1732438060656,2024-11-24T08:47:40.656Z,90851,0.021025393,0.038923398,-0.077528775
1732438060680,2024-11-24T08:47:40.680Z,90875,-8.189716E-4,0.09152021,-0.14104219
1732438060686,2024-11-24T08:47:40.686Z,90881,-8.189716E-4,0.09152021,-0.14104219
1732438060700,2024-11-24T08:47:40.700Z,90895,-0.08350941,0.08619036,-0.16754322
1732438060705,2024-11-24T08:47:40.705Z,90900,-0.08350941,0.08619036,-0.16754322
1732438060718,2024-11-24T08:47:40.718Z,90913,-0.030842891,0.065235905,-0.060726043
1732438060721,2024-11-24T08:47:40.721Z,90916,-0.030842891,0.065235905,-0.060726043
1732438060732,2024-11-24T08:47:40.732Z,90927,0.0065483814,0.057328403,-0.04301429
1732438060735,2024-11-24T08:47:40.735Z,90930,0.0065483814,0.057328403,-0.04301429
1732438060747,2024-11-24T08:47:40.747Z,90942,0.028255457,0.07092519,-0.050390046
1732438060751,2024-11-24T08:47:40.751Z,90946,0.028255457,0.07092519,-0.050390046
1732438060762,2024-11-24T08:47:40.762Z,90957,-0.05265807,0.122966915,-0.101798445
1732438060766,2024-11-24T08:47:40.766Z,90961,-0.05265807,0.122966915,-0.101798445
1732438060776,2024-11-24T08:47:40.776Z,90971,-0.039600715,0.15397468,-0.12312469
1732438060782,2024-11-24T08:47:40.782Z,90977,-0.039600715,0.15397468,-0.12312469
1732438060794,2024-11-24T08:47:40.794Z,90989,-0.04191548,0.16517432,-0.10144704
1732438060798,2024-11-24T08:47:40.798Z,90993,-0.04191548,0.16517432,-0.10144704
1732438060808,2024-11-24T08:47:40.808Z,91003,-0.066925146,0.12142554,-0.05964732
1732438060811,2024-11-24T08:47:40.811Z,91006,-0.066925146,0.12142554,-0.05964732
1732438060822,2024-11-24T08:47:40.822Z,91017,-0.06640227,0.089481026,-0.06362991
1732438060825,2024-11-24T08:47:40.825Z,91020,-0.06640227,0.089481026,-0.06362991
1732438060834,2024-11-24T08:47:40.834Z,91029,-0.011021023,0.12492208,-0.106404655
1732438060837,2024-11-24T08:47:40.837Z,91032,-0.011021023,0.12492208,-0.106404655
1732438060849,2024-11-24T08:47:40.849Z,91044,-0.02464352,0.11416668,-0.14238383
1732438060852,2024-11-24T08:47:40.852Z,91047,-0.02464352,0.11416668,-0.14238383
1732438060863,2024-11-24T08:47:40.863Z,91058,0.038441975,0.07699413,-0.10438506
1732438060867,2024-11-24T08:47:40.867Z,91062,0.038441975,0.07699413,-0.10438506
1732438060878,2024-11-24T08:47:40.878Z,91073,0.022055198,0.08031251,-0.09380049
1732438060881,2024-11-24T08:47:40.881Z,91076,0.022055198,0.08031251,-0.09380049
1732438060891,2024-11-24T08:47:40.891Z,91086,-0.02648471,0.122836895,-0.13487817
1732438060894,2024-11-24T08:47:40.894Z,91089,-0.02648471,0.122836895,-0.13487817
1732438060906,2024-11-24T08:47:40.906Z,91101,0.019588899,0.0077512264,-0.11106139
1732438060909,2024-11-24T08:47:40.909Z,91104,0.019588899,0.0077512264,-0.11106139
1732438060922,2024-11-24T08:47:40.922Z,91117,0.043985967,0.053463098,-0.15158513
1732438060925,2024-11-24T08:47:40.925Z,91120,0.043985967,0.053463098,-0.15158513
1732438060936,2024-11-24T08:47:40.936Z,91131,0.042629946,0.09514736,-0.12712945
1732438060939,2024-11-24T08:47:40.939Z,91134,0.042629946,0.09514736,-0.12712945
1732438060950,2024-11-24T08:47:40.950Z,91145,0.01050347,0.109510265,-0.08370826
1732438060954,2024-11-24T08:47:40.954Z,91149,0.01050347,0.109510265,-0.08370826
1732438060964,2024-11-24T08:47:40.964Z,91159,-0.0018806128,0.11743712,-0.09824916
1732438060967,2024-11-24T08:47:40.967Z,91162,-0.0018806128,0.11743712,-0.09824916
1732438060978,2024-11-24T08:47:40.978Z,91173,-0.014637726,0.13323481,-0.08619494
1732438060982,2024-11-24T08:47:40.982Z,91177,-0.014637726,0.13323481,-0.08619494
1732438060997,2024-11-24T08:47:40.997Z,91192,0.03727937,0.039977174,-0.008321438
1732438061004,2024-11-24T08:47:41.004Z,91199,0.03727937,0.039977174,-0.008321438
1732438061025,2024-11-24T08:47:41.025Z,91220,0.037693903,0.011954661,-0.0032187777
1732438061032,2024-11-24T08:47:41.032Z,91227,0.037693903,0.011954661,-0.0032187777
1732438061057,2024-11-24T08:47:41.057Z,91252,-0.040478036,0.10347118,-0.027411409
1732438061064,2024-11-24T08:47:41.064Z,91259,-0.040478036,0.10347118,-0.027411409
1732438061078,2024-11-24T08:47:41.078Z,91273,0.012360331,0.091133945,-0.06507287
1732438061082,2024-11-24T08:47:41.082Z,91277,0.012360331,0.091133945,-0.06507287
1732438061094,2024-11-24T08:47:41.094Z,91289,0.023059962,0.035908427,-0.03452649
1732438061098,2024-11-24T08:47:41.098Z,91293,0.023059962,0.035908427,-0.03452649
1732438061110,2024-11-24T08:47:41.110Z,91305,-0.0014140912,0.073928006,0.026630435
1732438061114,2024-11-24T08:47:41.114Z,91309,-0.0014140912,0.073928006,0.026630435
1732438061129,2024-11-24T08:47:41.129Z,91324,-0.081384726,0.068022735,-0.021609245
1732438061139,2024-11-24T08:47:41.139Z,91334,-0.081384726,0.068022735,-0.021609245
1732438061167,2024-11-24T08:47:41.167Z,91362,-0.067831144,-0.024756545,-0.051289514
1732438061171,2024-11-24T08:47:41.171Z,91366,-0.067831144,-0.024756545,-0.051289514
1732438061182,2024-11-24T08:47:41.182Z,91377,-0.061189014,0.00488592,-0.012909853
1732438061185,2024-11-24T08:47:41.185Z,91380,-0.061189014,0.00488592,-0.012909853
1732438061199,2024-11-24T08:47:41.199Z,91394,-0.011087051,0.18893349,-0.061980747
1732438061202,2024-11-24T08:47:41.202Z,91397,-0.011087051,0.18893349,-0.061980747
1732438061211,2024-11-24T08:47:41.211Z,91406,0.05803234,0.014968563,-0.0380692
1732438061215,2024-11-24T08:47:41.215Z,91410,0.05803234,0.014968563,-0.0380692
1732438061225,2024-11-24T08:47:41.225Z,91420,0.05174717,0.030961532,-0.09412332
1732438061228,2024-11-24T08:47:41.228Z,91423,0.05174717,0.030961532,-0.09412332
1732438061238,2024-11-24T08:47:41.238Z,91433,-0.07220726,0.18294834,-0.05131035
1732438061241,2024-11-24T08:47:41.241Z,91436,-0.07220726,0.18294834,-0.05131035
1732438061251,2024-11-24T08:47:41.251Z,91446,0.031961296,0.045309655,-0.097214885
1732438061254,2024-11-24T08:47:41.254Z,91449,0.031961296,0.045309655,-0.097214885
1732438061264,2024-11-24T08:47:41.264Z,91459,0.04570868,0.04150688,-0.12865168
1732438061268,2024-11-24T08:47:41.268Z,91463,0.04570868,0.04150688,-0.12865168
1732438061286,2024-11-24T08:47:41.286Z,91481,0.01682968,0.12544575,-0.08459628
1732438061289,2024-11-24T08:47:41.289Z,91484,0.01682968,0.12544575,-0.08459628
1732438061298,2024-11-24T08:47:41.298Z,91493,0.03300903,0.09356981,-0.04168347
1732438061301,2024-11-24T08:47:41.301Z,91496,0.03300903,0.09356981,-0.04168347
1732438061311,2024-11-24T08:47:41.311Z,91506,0.02374279,0.10173803,-0.08367942
1732438061314,2024-11-24T08:47:41.314Z,91509,0.02374279,0.10173803,-0.08367942
1732438061330,2024-11-24T08:47:41.330Z,91525,0.0824863,0.06742388,-0.11542915
1732438061338,2024-11-24T08:47:41.338Z,91533,0.0824863,0.06742388,-0.11542915
1732438061363,2024-11-24T08:47:41.363Z,91558,0.05019868,0.12920973,-0.07554555
1732438061371,2024-11-24T08:47:41.371Z,91566,0.05019868,0.12920973,-0.07554555
1732438061385,2024-11-24T08:47:41.385Z,91580,0.038980123,0.2173805,-0.0732039
1732438061388,2024-11-24T08:47:41.388Z,91583,0.038980123,0.2173805,-0.0732039
1732438061399,2024-11-24T08:47:41.399Z,91594,0.04578673,0.16164155,-0.031508453
1732438061403,2024-11-24T08:47:41.403Z,91598,0.04578673,0.16164155,-0.031508453
1732438061414,2024-11-24T08:47:41.414Z,91609,0.04297825,-0.13696067,0.022407187
1732438061420,2024-11-24T08:47:41.420Z,91615,0.04297825,-0.13696067,0.022407187
1732438061432,2024-11-24T08:47:41.432Z,91627,0.076835185,-0.11691567,0.030918695
1732438061436,2024-11-24T08:47:41.436Z,91631,0.076835185,-0.11691567,0.030918695
1732438061448,2024-11-24T08:47:41.448Z,91643,0.008286545,-0.006333549,-0.04302115
1732438061452,2024-11-24T08:47:41.452Z,91647,0.008286545,-0.006333549,-0.04302115
1732438061465,2024-11-24T08:47:41.465Z,91660,0.07470231,0.1181833,-0.05342111
1732438061468,2024-11-24T08:47:41.468Z,91663,0.07470231,0.1181833,-0.05342111
1732438061481,2024-11-24T08:47:41.481Z,91676,0.08264254,0.060993183,0.03339309
1732438061487,2024-11-24T08:47:41.487Z,91682,0.08264254,0.060993183,0.03339309
1732438061505,2024-11-24T08:47:41.505Z,91700,-0.0073547415,-0.08591641,0.12398186
1732438061508,2024-11-24T08:47:41.508Z,91703,-0.0073547415,-0.08591641,0.12398186
1732438061518,2024-11-24T08:47:41.518Z,91713,-0.11188233,-0.22211291,0.044384588
1732438061521,2024-11-24T08:47:41.521Z,91716,-0.11188233,-0.22211291,0.044384588
1732438061531,2024-11-24T08:47:41.531Z,91726,-0.001922715,-0.056576777,0.022426562
1732438061537,2024-11-24T08:47:41.537Z,91732,-0.001922715,-0.056576777,0.022426562
1732438061547,2024-11-24T08:47:41.547Z,91742,0.04548075,0.12078886,0.051954836
1732438061550,2024-11-24T08:47:41.550Z,91745,0.04548075,0.12078886,0.051954836
1732438061562,2024-11-24T08:47:41.562Z,91757,-0.0029797126,0.12543789,0.08791232
1732438061566,2024-11-24T08:47:41.566Z,91761,-0.0029797126,0.12543789,0.08791232
1732438061576,2024-11-24T08:47:41.576Z,91771,-0.0681038,-0.09987418,0.10972204
1732438061580,2024-11-24T08:47:41.580Z,91775,-0.0681038,-0.09987418,0.10972204
1732438061590,2024-11-24T08:47:41.590Z,91785,-0.10051647,-0.33906057,0.07012066
1732438061594,2024-11-24T08:47:41.594Z,91789,-0.10051647,-0.33906057,0.07012066
1732438061606,2024-11-24T08:47:41.606Z,91801,-0.053427342,-0.12170892,0.073013216
1732438061612,2024-11-24T08:47:41.612Z,91807,-0.053427342,-0.12170892,0.073013216
1732438061632,2024-11-24T08:47:41.632Z,91827,-0.08922829,0.047638543,1.7878992E-4
1732438061636,2024-11-24T08:47:41.636Z,91831,-0.08922829,0.047638543,1.7878992E-4
1732438061646,2024-11-24T08:47:41.646Z,91841,-0.053494077,0.11040309,-0.092851266
1732438061649,2024-11-24T08:47:41.649Z,91844,-0.053494077,0.11040309,-0.092851266
1732438061663,2024-11-24T08:47:41.663Z,91858,0.09411241,-0.026484346,0.009929089
1732438061666,2024-11-24T08:47:41.666Z,91861,0.09411241,-0.026484346,0.009929089
1732438061677,2024-11-24T08:47:41.677Z,91872,-0.008086488,-0.1532943,0.09196884
1732438061680,2024-11-24T08:47:41.680Z,91875,-0.008086488,-0.1532943,0.09196884
1732438061691,2024-11-24T08:47:41.691Z,91886,-0.07175236,-0.2696825,0.09172616
1732438061696,2024-11-24T08:47:41.696Z,91891,-0.07175236,-0.2696825,0.09172616
1732438061710,2024-11-24T08:47:41.710Z,91905,-0.008655776,-0.24311675,-0.021743787
1732438061713,2024-11-24T08:47:41.713Z,91908,-0.008655776,-0.24311675,-0.021743787
1732438061724,2024-11-24T08:47:41.724Z,91919,0.071336314,-0.116532035,-0.09354494
1732438061727,2024-11-24T08:47:41.727Z,91922,0.071336314,-0.116532035,-0.09354494
1732438061738,2024-11-24T08:47:41.738Z,91933,0.05343181,-0.0025892204,-0.1491698
1732438061741,2024-11-24T08:47:41.741Z,91936,0.05343181,-0.0025892204,-0.1491698
1732438061751,2024-11-24T08:47:41.751Z,91946,0.059964813,-0.14920075,-0.016051076
1732438061755,2024-11-24T08:47:41.755Z,91950,0.059964813,-0.14920075,-0.016051076
1732438061765,2024-11-24T08:47:41.765Z,91960,0.072485216,-0.29695892,-0.032958467
1732438061769,2024-11-24T08:47:41.769Z,91964,0.072485216,-0.29695892,-0.032958467
1732438061783,2024-11-24T08:47:41.783Z,91978,-0.02007453,-0.31278598,-0.029488668
1732438061787,2024-11-24T08:47:41.787Z,91982,-0.02007453,-0.31278598,-0.029488668
1732438061799,2024-11-24T08:47:41.799Z,91994,-0.03536547,-0.13873349,-0.064433224
1732438061803,2024-11-24T08:47:41.803Z,91998,-0.03536547,-0.13873349,-0.064433224
1732438061815,2024-11-24T08:47:41.815Z,92010,0.027248591,-0.106141604,-0.192127
1732438061818,2024-11-24T08:47:41.818Z,92013,0.027248591,-0.106141604,-0.192127
1732438061832,2024-11-24T08:47:41.832Z,92027,0.12283403,-0.1354899,-0.20507812
1732438061836,2024-11-24T08:47:41.836Z,92031,0.12283403,-0.1354899,-0.20507812
1732438061847,2024-11-24T08:47:41.847Z,92042,0.07742775,-0.1864724,0.11540255
1732438061851,2024-11-24T08:47:41.851Z,92046,0.07742775,-0.1864724,0.11540255
1732438061861,2024-11-24T08:47:41.861Z,92056,0.08942438,-0.20246167,0.018973466
1732438061866,2024-11-24T08:47:41.866Z,92061,0.08942438,-0.20246167,0.018973466
1732438061879,2024-11-24T08:47:41.879Z,92074,0.10276572,-0.20414002,-0.055484004
1732438061882,2024-11-24T08:47:41.882Z,92077,0.10276572,-0.20414002,-0.055484004
1732438061898,2024-11-24T08:47:41.898Z,92093,-0.057835694,-0.19875784,-0.11392103
1732438061903,2024-11-24T08:47:41.903Z,92098,-0.057835694,-0.19875784,-0.11392103
1732438061916,2024-11-24T08:47:41.916Z,92111,0.007368143,-0.20007725,-0.051843923
1732438061920,2024-11-24T08:47:41.920Z,92115,0.007368143,-0.20007725,-0.051843923
1732438061931,2024-11-24T08:47:41.931Z,92126,0.099180974,-0.21571687,0.036487244
1732438061935,2024-11-24T08:47:41.935Z,92130,0.099180974,-0.21571687,0.036487244
1732438061945,2024-11-24T08:47:41.945Z,92140,0.030114068,-0.22440518,-0.002565735
1732438061949,2024-11-24T08:47:41.949Z,92144,0.030114068,-0.22440518,-0.002565735
1732438061961,2024-11-24T08:47:41.961Z,92156,0.01588223,-0.1965349,-0.06586812
1732438061964,2024-11-24T08:47:41.964Z,92159,0.01588223,-0.1965349,-0.06586812
1732438061976,2024-11-24T08:47:41.976Z,92171,0.05958557,-0.23141037,0.005931673
1732438061979,2024-11-24T08:47:41.979Z,92174,0.05958557,-0.23141037,0.005931673
1732438061992,2024-11-24T08:47:41.992Z,92187,0.051409177,-0.22550578,0.029889815
1732438061996,2024-11-24T08:47:41.996Z,92191,0.051409177,-0.22550578,0.029889815
1732438062009,2024-11-24T08:47:42.009Z,92204,0.030595906,-0.20228244,0.06412145
1732438062013,2024-11-24T08:47:42.013Z,92208,0.030595906,-0.20228244,0.06412145
1732438062024,2024-11-24T08:47:42.024Z,92219,0.09260273,-0.12517697,0.044673655
1732438062028,2024-11-24T08:47:42.028Z,92223,0.09260273,-0.12517697,0.044673655
1732438062041,2024-11-24T08:47:42.041Z,92236,0.08233057,-0.15507154,0.05077663
1732438062044,2024-11-24T08:47:42.044Z,92239,0.08233057,-0.15507154,0.05077663
1732438062056,2024-11-24T08:47:42.056Z,92251,0.050225407,-0.21423492,0.040124163
1732438062060,2024-11-24T08:47:42.060Z,92255,0.050225407,-0.21423492,0.040124163
1732438062073,2024-11-24T08:47:42.073Z,92268,0.076118946,-0.12460675,0.060214277
1732438062077,2024-11-24T08:47:42.077Z,92272,0.076118946,-0.12460675,0.060214277
1732438062088,2024-11-24T08:47:42.088Z,92283,0.031476,-0.11103875,0.12748942
1732438062091,2024-11-24T08:47:42.091Z,92286,0.031476,-0.11103875,0.12748942
1732438062103,2024-11-24T08:47:42.103Z,92298,0.019921413,-0.15579264,0.070609376
1732438062106,2024-11-24T08:47:42.106Z,92301,0.019921413,-0.15579264,0.070609376
1732438062116,2024-11-24T08:47:42.116Z,92311,0.06937521,-0.18679293,0.023576882
1732438062120,2024-11-24T08:47:42.120Z,92315,0.06937521,-0.18679293,0.023576882
1732438062130,2024-11-24T08:47:42.130Z,92325,0.12771203,-0.058452394,-0.019618025
1732438062133,2024-11-24T08:47:42.133Z,92328,0.12771203,-0.058452394,-0.019618025
1732438062143,2024-11-24T08:47:42.143Z,92338,0.08109375,0.06744557,-0.020253588
1732438062146,2024-11-24T08:47:42.146Z,92341,0.08109375,0.06744557,-0.020253588
1732438062157,2024-11-24T08:47:42.157Z,92352,0.03334415,-0.15137477,0.0114181945
1732438062161,2024-11-24T08:47:42.161Z,92356,0.03334415,-0.15137477,0.0114181945
1732438062171,2024-11-24T08:47:42.171Z,92366,0.02042552,-0.09552852,-0.009183151
1732438062177,2024-11-24T08:47:42.177Z,92372,0.02042552,-0.09552852,-0.009183151
1732438062187,2024-11-24T08:47:42.187Z,92382,0.004220794,-0.0041046315,-0.042925723
1732438062190,2024-11-24T08:47:42.190Z,92385,0.004220794,-0.0041046315,-0.042925723
1732438062199,2024-11-24T08:47:42.199Z,92394,0.026614657,0.057392925,-0.031076966
1732438062202,2024-11-24T08:47:42.202Z,92397,0.026614657,0.057392925,-0.031076966
1732438062212,2024-11-24T08:47:42.212Z,92407,0.061094902,0.020280816,-0.011371759
1732438062215,2024-11-24T08:47:42.215Z,92410,0.061094902,0.020280816,-0.011371759
1732438062226,2024-11-24T08:47:42.226Z,92421,0.03516285,-0.008798341,-0.029083144
1732438062229,2024-11-24T08:47:42.229Z,92424,0.03516285,-0.008798341,-0.029083144
1732438062241,2024-11-24T08:47:42.241Z,92436,-0.05289967,0.039590567,-0.12918639
1732438062245,2024-11-24T08:47:42.245Z,92440,-0.05289967,0.039590567,-0.12918639
1732438062256,2024-11-24T08:47:42.256Z,92451,-0.06067037,0.07401825,-0.08118152
1732438062260,2024-11-24T08:47:42.260Z,92455,-0.06067037,0.07401825,-0.08118152
1732438062271,2024-11-24T08:47:42.271Z,92466,0.0069959518,0.053121757,-0.022436846
1732438062275,2024-11-24T08:47:42.275Z,92470,0.0069959518,0.053121757,-0.022436846
1732438062284,2024-11-24T08:47:42.284Z,92479,-0.029835964,-0.08022285,-0.10761496
1732438062288,2024-11-24T08:47:42.288Z,92483,-0.029835964,-0.08022285,-0.10761496
1732438062299,2024-11-24T08:47:42.299Z,92494,-0.036333617,-0.10509916,-0.1367918
1732438062302,2024-11-24T08:47:42.302Z,92497,-0.036333617,-0.10509916,-0.1367918
1732438062313,2024-11-24T08:47:42.313Z,92508,-0.007223633,-0.06928292,-0.061079003
1732438062316,2024-11-24T08:47:42.316Z,92511,-0.007223633,-0.06928292,-0.061079003
1732438062327,2024-11-24T08:47:42.327Z,92522,0.01815576,-0.019883512,0.052411802
1732438062330,2024-11-24T08:47:42.330Z,92525,0.01815576,-0.019883512,0.052411802
1732438062340,2024-11-24T08:47:42.340Z,92535,0.014133618,-0.037904534,-0.041223988
1732438062344,2024-11-24T08:47:42.344Z,92539,0.014133618,-0.037904534,-0.041223988
1732438062354,2024-11-24T08:47:42.354Z,92549,0.020319253,-0.0010049578,-0.11462476
1732438062357,2024-11-24T08:47:42.357Z,92552,0.020319253,-0.0010049578,-0.11462476
1732438062368,2024-11-24T08:47:42.368Z,92563,-0.026417658,0.017742408,-0.052948464
1732438062372,2024-11-24T08:47:42.372Z,92567,-0.026417658,0.017742408,-0.052948464
1732438062381,2024-11-24T08:47:42.381Z,92576,0.0153180715,-0.09687676,0.031145137
1732438062385,2024-11-24T08:47:42.385Z,92580,0.0153180715,-0.09687676,0.031145137
1732438062399,2024-11-24T08:47:42.399Z,92594,-0.027315862,-0.034151696,-0.04984427
1732438062406,2024-11-24T08:47:42.406Z,92601,-0.027315862,-0.034151696,-0.04984427
1732438062432,2024-11-24T08:47:42.432Z,92627,0.046908237,-0.0937359,-0.02809399
1732438062437,2024-11-24T08:47:42.437Z,92632,0.046908237,-0.0937359,-0.02809399
1732438062448,2024-11-24T08:47:42.448Z,92643,0.06074197,-0.07176327,-0.017643945
1732438062454,2024-11-24T08:47:42.454Z,92649,0.06074197,-0.07176327,-0.017643945
1732438062463,2024-11-24T08:47:42.463Z,92658,-0.07185004,0.04097727,-0.05054523
1732438062465,2024-11-24T08:47:42.465Z,92660,-0.07185004,0.04097727,-0.05054523
1732438062476,2024-11-24T08:47:42.476Z,92671,0.0078373635,0.010265129,-0.027596032
1732438062478,2024-11-24T08:47:42.478Z,92673,0.0078373635,0.010265129,-0.027596032
1732438062489,2024-11-24T08:47:42.489Z,92684,0.05951925,-0.016558466,-0.0363015
1732438062492,2024-11-24T08:47:42.492Z,92687,0.05951925,-0.016558466,-0.0363015
1732438062506,2024-11-24T08:47:42.506Z,92701,0.00923756,-0.07597993,-0.101651676
1732438062510,2024-11-24T08:47:42.510Z,92705,0.00923756,-0.07597993,-0.101651676
1732438062522,2024-11-24T08:47:42.522Z,92717,0.042959422,-0.08030707,-0.12042909
1732438062526,2024-11-24T08:47:42.526Z,92721,0.042959422,-0.08030707,-0.12042909
1732438062537,2024-11-24T08:47:42.537Z,92732,0.012048481,-0.114047356,0.00873372
1732438062540,2024-11-24T08:47:42.540Z,92735,0.012048481,-0.114047356,0.00873372
1732438062549,2024-11-24T08:47:42.549Z,92744,0.046164803,-0.07429973,-0.01598524
1732438062552,2024-11-24T08:47:42.552Z,92747,0.046164803,-0.07429973,-0.01598524
1732438062562,2024-11-24T08:47:42.562Z,92757,0.046384025,-0.032626316,-0.048230197
1732438062565,2024-11-24T08:47:42.565Z,92760,0.046384025,-0.032626316,-0.048230197
1732438062575,2024-11-24T08:47:42.575Z,92770,0.007715099,-0.070739985,-0.093224525
1732438062578,2024-11-24T08:47:42.578Z,92773,0.007715099,-0.070739985,-0.093224525
1732438062587,2024-11-24T08:47:42.587Z,92782,0.006140488,-0.10877609,-0.06819836
1732438062590,2024-11-24T08:47:42.590Z,92785,0.006140488,-0.10877609,-0.06819836
1732438062599,2024-11-24T08:47:42.599Z,92794,0.027767044,-0.108667366,-0.024405772
1732438062602,2024-11-24T08:47:42.602Z,92797,0.027767044,-0.108667366,-0.024405772
1732438062616,2024-11-24T08:47:42.616Z,92811,0.07593926,-0.14077604,0.07208103
1732438062622,2024-11-24T08:47:42.622Z,92817,0.07593926,-0.14077604,0.07208103
1732438062643,2024-11-24T08:47:42.643Z,92838,-0.03922365,-0.05058335,-0.028663084
1732438062649,2024-11-24T08:47:42.649Z,92844,-0.03922365,-0.05058335,-0.028663084
1732438062670,2024-11-24T08:47:42.670Z,92865,-0.01913147,-0.094861306,-0.006450684
1732438062677,2024-11-24T08:47:42.677Z,92872,-0.01913147,-0.094861306,-0.006450684
1732438062687,2024-11-24T08:47:42.687Z,92882,0.024396485,-0.16580862,0.074096926
1732438062690,2024-11-24T08:47:42.690Z,92885,0.024396485,-0.16580862,0.074096926
1732438062702,2024-11-24T08:47:42.702Z,92897,0.031802896,-0.047495104,-0.003709806
1732438062706,2024-11-24T08:47:42.706Z,92901,0.031802896,-0.047495104,-0.003709806
1732438062718,2024-11-24T08:47:42.718Z,92913,0.014364241,0.021836001,-0.08772488
1732438062721,2024-11-24T08:47:42.721Z,92916,0.014364241,0.021836001,-0.08772488
1732438062731,2024-11-24T08:47:42.731Z,92926,0.002117642,0.022799192,-0.09057564
1732438062734,2024-11-24T08:47:42.734Z,92929,0.002117642,0.022799192,-0.09057564
1732438062744,2024-11-24T08:47:42.744Z,92939,0.0013403409,-0.097835824,-0.025769768
1732438062747,2024-11-24T08:47:42.747Z,92942,0.0013403409,-0.097835824,-0.025769768
1732438062756,2024-11-24T08:47:42.756Z,92951,0.02453285,-0.11180312,0.030599868
1732438062760,2024-11-24T08:47:42.760Z,92955,0.02453285,-0.11180312,0.030599868
1732438062768,2024-11-24T08:47:42.768Z,92963,0.034541927,-0.08576806,0.050319664
1732438062772,2024-11-24T08:47:42.772Z,92967,0.034541927,-0.08576806,0.050319664
1732438062785,2024-11-24T08:47:42.785Z,92980,0.004312158,-0.11624924,-0.06284556
1732438062790,2024-11-24T08:47:42.790Z,92985,0.004312158,-0.11624924,-0.06284556
1732438062809,2024-11-24T08:47:42.809Z,93004,-0.0023016103,-0.1304069,-0.14912923
1732438062816,2024-11-24T08:47:42.816Z,93011,-0.0023016103,-0.1304069,-0.14912923
1732438062829,2024-11-24T08:47:42.829Z,93024,3.261445E-4,-0.069086626,-0.13491166
1732438062832,2024-11-24T08:47:42.832Z,93027,3.261445E-4,-0.069086626,-0.13491166
1732438062843,2024-11-24T08:47:42.843Z,93038,0.02607435,-0.013462828,-0.048070565
1732438062846,2024-11-24T08:47:42.846Z,93041,0.02607435,-0.013462828,-0.048070565
1732438062860,2024-11-24T08:47:42.860Z,93055,0.052994195,-0.071331345,0.054360792
1732438062866,2024-11-24T08:47:42.866Z,93061,0.052994195,-0.071331345,0.054360792
1732438062885,2024-11-24T08:47:42.885Z,93080,0.046672486,-0.10426025,0.09181366
1732438062889,2024-11-24T08:47:42.889Z,93084,0.046672486,-0.10426025,0.09181366
1732438062900,2024-11-24T08:47:42.900Z,93095,0.029473182,-0.09343677,-0.07632803
1732438062904,2024-11-24T08:47:42.904Z,93099,0.029473182,-0.09343677,-0.07632803
1732438062914,2024-11-24T08:47:42.914Z,93109,0.03625599,-0.086835064,0.100860275
1732438062916,2024-11-24T08:47:42.916Z,93111,0.03625599,-0.086835064,0.100860275
1732438062926,2024-11-24T08:47:42.926Z,93121,0.088435926,-0.11282086,0.09105649
1732438062929,2024-11-24T08:47:42.929Z,93124,0.088435926,-0.11282086,0.09105649
1732438062937,2024-11-24T08:47:42.937Z,93132,-0.021447157,0.025882626,-0.18060936
1732438062940,2024-11-24T08:47:42.940Z,93135,-0.021447157,0.025882626,-0.18060936
1732438062950,2024-11-24T08:47:42.950Z,93145,-0.04235167,0.070224956,-0.17421196
1732438062953,2024-11-24T08:47:42.953Z,93148,-0.04235167,0.070224956,-0.17421196
1732438062966,2024-11-24T08:47:42.966Z,93161,-0.04635745,0.020882148,-0.09361206
1732438062973,2024-11-24T08:47:42.973Z,93168,-0.04635745,0.020882148,-0.09361206
1732438062996,2024-11-24T08:47:42.996Z,93191,0.04577231,-0.065384015,0.034038015
1732438063003,2024-11-24T08:47:43.003Z,93198,0.04577231,-0.065384015,0.034038015
1732438063023,2024-11-24T08:47:43.023Z,93218,-0.0028893026,-0.031033253,0.034539714
1732438063027,2024-11-24T08:47:43.027Z,93222,-0.0028893026,-0.031033253,0.034539714
1732438063039,2024-11-24T08:47:43.039Z,93234,0.016555402,-0.011203423,0.017805133
1732438063042,2024-11-24T08:47:43.042Z,93237,0.016555402,-0.011203423,0.017805133
1732438063052,2024-11-24T08:47:43.052Z,93247,0.026937447,-0.080838524,-0.067803584
1732438063056,2024-11-24T08:47:43.056Z,93251,0.026937447,-0.080838524,-0.067803584
1732438063065,2024-11-24T08:47:43.065Z,93260,-0.061771795,-0.100566536,-0.05427001
1732438063068,2024-11-24T08:47:43.068Z,93263,-0.061771795,-0.100566536,-0.05427001
1732438063080,2024-11-24T08:47:43.080Z,93275,-0.13451143,-0.094558425,-0.08869896
1732438063083,2024-11-24T08:47:43.083Z,93278,-0.13451143,-0.094558425,-0.08869896
1732438063093,2024-11-24T08:47:43.093Z,93288,0.04135556,-0.071514025,0.07648046
1732438063098,2024-11-24T08:47:43.098Z,93293,0.04135556,-0.071514025,0.07648046
1732438063106,2024-11-24T08:47:43.106Z,93301,0.077576324,0.015313014,0.045721985
1732438063109,2024-11-24T08:47:43.109Z,93304,0.077576324,0.015313014,0.045721985
1732438063121,2024-11-24T08:47:43.121Z,93316,0.06460944,0.065708384,-4.2808443E-4
1732438063127,2024-11-24T08:47:43.127Z,93322,0.06460944,0.065708384,-4.2808443E-4
1732438063145,2024-11-24T08:47:43.145Z,93340,-0.06551219,-0.059262853,-0.09965742
1732438063149,2024-11-24T08:47:43.149Z,93344,-0.06551219,-0.059262853,-0.09965742
1732438063160,2024-11-24T08:47:43.160Z,93355,-0.080514826,-0.17184517,-0.109592974
1732438063163,2024-11-24T08:47:43.163Z,93358,-0.080514826,-0.17184517,-0.109592974
1732438063173,2024-11-24T08:47:43.173Z,93368,-0.058698673,-0.20048706,-0.07303994
1732438063176,2024-11-24T08:47:43.176Z,93371,-0.058698673,-0.20048706,-0.07303994
1732438063187,2024-11-24T08:47:43.187Z,93382,-0.015290598,-0.014853032,0.024728052
1732438063190,2024-11-24T08:47:43.190Z,93385,-0.015290598,-0.014853032,0.024728052
1732438063199,2024-11-24T08:47:43.199Z,93394,0.056118496,0.100034155,-0.0010640845
1732438063202,2024-11-24T08:47:43.202Z,93397,0.056118496,0.100034155,-0.0010640845
1732438063210,2024-11-24T08:47:43.210Z,93405,0.08375182,0.13772163,-3.9798627E-4
1732438063213,2024-11-24T08:47:43.213Z,93408,0.08375182,0.13772163,-3.9798627E-4
1732438063222,2024-11-24T08:47:43.222Z,93417,0.07243319,0.081273854,-0.02887484
1732438063225,2024-11-24T08:47:43.225Z,93420,0.07243319,0.081273854,-0.02887484
1732438063234,2024-11-24T08:47:43.234Z,93429,-0.040269572,-0.17764834,-0.1416393
1732438063237,2024-11-24T08:47:43.237Z,93432,-0.040269572,-0.17764834,-0.1416393
1732438063247,2024-11-24T08:47:43.247Z,93442,-0.08058961,-0.18788278,-0.1250052
1732438063250,2024-11-24T08:47:43.250Z,93445,-0.08058961,-0.18788278,-0.1250052
1732438063260,2024-11-24T08:47:43.260Z,93455,-0.07147849,-0.13537125,-0.05829777
1732438063263,2024-11-24T08:47:43.263Z,93458,-0.07147849,-0.13537125,-0.05829777
1732438063273,2024-11-24T08:47:43.273Z,93468,0.08807912,-0.038819246,0.13591471
1732438063278,2024-11-24T08:47:43.278Z,93473,0.08807912,-0.038819246,0.13591471
1732438063295,2024-11-24T08:47:43.295Z,93490,0.056072656,-0.015571791,0.04085615
1732438063298,2024-11-24T08:47:43.298Z,93493,0.056072656,-0.015571791,0.04085615
1732438063311,2024-11-24T08:47:43.311Z,93506,-0.0353021,-0.091459624,-0.08272192
1732438063316,2024-11-24T08:47:43.316Z,93511,-0.0353021,-0.091459624,-0.08272192
1732438063335,2024-11-24T08:47:43.335Z,93530,-0.021133205,-0.22603491,-0.0070813843
1732438063342,2024-11-24T08:47:43.342Z,93537,-0.021133205,-0.22603491,-0.0070813843
1732438063366,2024-11-24T08:47:43.366Z,93561,0.01605037,-0.24825892,0.024712833
1732438063373,2024-11-24T08:47:43.373Z,93568,0.01605037,-0.24825892,0.024712833
1732438063391,2024-11-24T08:47:43.391Z,93586,0.048685234,0.03164139,0.041900247
1732438063396,2024-11-24T08:47:43.396Z,93591,0.048685234,0.03164139,0.041900247
1732438063410,2024-11-24T08:47:43.410Z,93605,0.0021269533,0.0126691405,0.02740781
1732438063414,2024-11-24T08:47:43.414Z,93609,0.0021269533,0.0126691405,0.02740781
1732438063426,2024-11-24T08:47:43.426Z,93621,-0.05269181,0.00911746,-0.09976145
1732438063430,2024-11-24T08:47:43.430Z,93625,-0.05269181,0.00911746,-0.09976145
1732438063442,2024-11-24T08:47:43.442Z,93637,-0.074924454,0.0574168,-0.076649435
1732438063445,2024-11-24T08:47:43.445Z,93640,-0.074924454,0.0574168,-0.076649435
1732438063455,2024-11-24T08:47:43.455Z,93650,-0.05691262,0.04480358,-0.060981806
1732438063459,2024-11-24T08:47:43.459Z,93654,-0.05691262,0.04480358,-0.060981806
1732438063468,2024-11-24T08:47:43.468Z,93663,0.03349317,-0.047686778,-0.05973942
1732438063471,2024-11-24T08:47:43.471Z,93666,0.03349317,-0.047686778,-0.05973942
1732438063480,2024-11-24T08:47:43.480Z,93675,0.032445423,-0.052128177,-0.008427973
1732438063482,2024-11-24T08:47:43.482Z,93677,0.032445423,-0.052128177,-0.008427973
1732438063491,2024-11-24T08:47:43.491Z,93686,-0.024561314,-0.06676804,-0.0062039667
1732438063494,2024-11-24T08:47:43.494Z,93689,-0.024561314,-0.06676804,-0.0062039667
1732438063502,2024-11-24T08:47:43.502Z,93697,-0.04585473,-0.12568314,-0.044293758
1732438063505,2024-11-24T08:47:43.505Z,93700,-0.04585473,-0.12568314,-0.044293758
1732438063514,2024-11-24T08:47:43.514Z,93709,-0.013829926,-0.1432345,-0.06213638
1732438063516,2024-11-24T08:47:43.516Z,93711,-0.013829926,-0.1432345,-0.06213638
1732438063525,2024-11-24T08:47:43.525Z,93720,0.014976379,-0.08150263,-0.052000348
1732438063528,2024-11-24T08:47:43.528Z,93723,0.014976379,-0.08150263,-0.052000348
1732438063540,2024-11-24T08:47:43.540Z,93735,-0.036135186,0.12346507,-0.029316174
1732438063544,2024-11-24T08:47:43.544Z,93739,-0.036135186,0.12346507,-0.029316174
1732438063555,2024-11-24T08:47:43.555Z,93750,-0.027585791,0.008631123,-0.022865102
1732438063559,2024-11-24T08:47:43.559Z,93754,-0.027585791,0.008631123,-0.022865102
1732438063570,2024-11-24T08:47:43.570Z,93765,0.023492258,-0.27886015,-0.028405279
1732438063574,2024-11-24T08:47:43.574Z,93769,0.023492258,-0.27886015,-0.028405279
1732438063590,2024-11-24T08:47:43.590Z,93785,0.09008424,-0.019891923,-0.031338077
1732438063596,2024-11-24T08:47:43.596Z,93791,0.09008424,-0.019891923,-0.031338077
1732438063614,2024-11-24T08:47:43.614Z,93809,0.089005,0.21782,-0.08299137
1732438063621,2024-11-24T08:47:43.621Z,93816,0.089005,0.21782,-0.08299137
1732438063641,2024-11-24T08:47:43.641Z,93836,-0.071625024,-0.06701029,-0.030921102
1732438063647,2024-11-24T08:47:43.647Z,93842,-0.071625024,-0.06701029,-0.030921102
1732438063667,2024-11-24T08:47:43.667Z,93862,-0.05701733,-0.27178335,-0.01910757
1732438063671,2024-11-24T08:47:43.671Z,93866,-0.05701733,-0.27178335,-0.01910757
1732438063684,2024-11-24T08:47:43.684Z,93879,-0.050590664,-0.36037454,-0.01573772
1732438063688,2024-11-24T08:47:43.688Z,93883,-0.050590664,-0.36037454,-0.01573772
1732438063699,2024-11-24T08:47:43.699Z,93894,0.14847203,0.046102323,-0.0910755
1732438063702,2024-11-24T08:47:43.702Z,93897,0.14847203,0.046102323,-0.0910755
1732438063714,2024-11-24T08:47:43.714Z,93909,0.09221449,0.28107473,-0.07211132
1732438063717,2024-11-24T08:47:43.717Z,93912,0.09221449,0.28107473,-0.07211132
1732438063729,2024-11-24T08:47:43.729Z,93924,-0.0809119,0.32115737,-0.050034776
1732438063732,2024-11-24T08:47:43.732Z,93927,-0.0809119,0.32115737,-0.050034776
1732438063741,2024-11-24T08:47:43.741Z,93936,-0.06269382,-0.13250536,-0.048184346
1732438063743,2024-11-24T08:47:43.743Z,93938,-0.06269382,-0.13250536,-0.048184346
1732438063751,2024-11-24T08:47:43.751Z,93946,-0.005934475,-0.29163608,0.0097941095
1732438063754,2024-11-24T08:47:43.754Z,93949,-0.005934475,-0.29163608,0.0097941095
1732438063763,2024-11-24T08:47:43.763Z,93958,-0.012185685,-0.31814015,0.018343229
1732438063765,2024-11-24T08:47:43.765Z,93960,-0.012185685,-0.31814015,0.018343229
1732438063773,2024-11-24T08:47:43.773Z,93968,0.03140842,0.22251278,-0.103526175
1732438063776,2024-11-24T08:47:43.776Z,93971,0.03140842,0.22251278,-0.103526175
1732438063784,2024-11-24T08:47:43.784Z,93979,-0.038146038,0.23330592,-0.13391593
1732438063787,2024-11-24T08:47:43.787Z,93982,-0.038146038,0.23330592,-0.13391593
1732438063795,2024-11-24T08:47:43.795Z,93990,-0.04503233,0.14476952,-0.15879674
1732438063798,2024-11-24T08:47:43.798Z,93993,-0.04503233,0.14476952,-0.15879674
1732438063809,2024-11-24T08:47:43.809Z,94004,0.064532675,-0.12326313,-0.027630677
1732438063812,2024-11-24T08:47:43.812Z,94007,0.064532675,-0.12326313,-0.027630677
1732438063820,2024-11-24T08:47:43.820Z,94015,0.05526175,-0.18764219,0.0044608256
1732438063823,2024-11-24T08:47:43.823Z,94018,0.05526175,-0.18764219,0.0044608256
1732438063831,2024-11-24T08:47:43.831Z,94026,-0.004548069,-0.1266563,0.03555549
1732438063833,2024-11-24T08:47:43.833Z,94028,-0.004548069,-0.1266563,0.03555549
1732438063848,2024-11-24T08:47:43.848Z,94043,-0.0040086117,0.12962478,-0.07302861
1732438063852,2024-11-24T08:47:43.852Z,94047,-0.0040086117,0.12962478,-0.07302861
1732438063867,2024-11-24T08:47:43.867Z,94062,0.067455,-0.05274745,-0.060507867
1732438063870,2024-11-24T08:47:43.870Z,94065,0.067455,-0.05274745,-0.060507867
1732438063880,2024-11-24T08:47:43.880Z,94075,0.08063071,-0.030246956,-0.046335936
1732438063882,2024-11-24T08:47:43.882Z,94077,0.08063071,-0.030246956,-0.046335936
1732438063892,2024-11-24T08:47:43.892Z,94087,0.015757466,0.036640313,-0.021069495
1732438063896,2024-11-24T08:47:43.896Z,94091,0.015757466,0.036640313,-0.021069495
1732438063905,2024-11-24T08:47:43.905Z,94100,-0.04731152,-0.028530827,-0.088093765
1732438063908,2024-11-24T08:47:43.908Z,94103,-0.04731152,-0.028530827,-0.088093765
1732438063916,2024-11-24T08:47:43.916Z,94111,-0.049536556,-0.034804568,-0.09489089
1732438063919,2024-11-24T08:47:43.919Z,94114,-0.049536556,-0.034804568,-0.09489089
1732438063944,2024-11-24T08:47:43.944Z,94139,-0.007759456,0.06123611,-0.086294875
1732438063951,2024-11-24T08:47:43.951Z,94146,-0.007759456,0.06123611,-0.086294875
1732438063971,2024-11-24T08:47:43.971Z,94166,-8.412079E-4,0.15640827,-0.025375843
1732438063974,2024-11-24T08:47:43.974Z,94169,-8.412079E-4,0.15640827,-0.025375843
1732438063984,2024-11-24T08:47:43.984Z,94179,-0.028815037,0.059730615,-0.0022945355
1732438063987,2024-11-24T08:47:43.987Z,94182,-0.028815037,0.059730615,-0.0022945355
1732438063999,2024-11-24T08:47:43.999Z,94194,-0.021023382,-0.04713976,-0.008338967
1732438064003,2024-11-24T08:47:44.003Z,94198,-0.021023382,-0.04713976,-0.008338967
1732438064013,2024-11-24T08:47:44.013Z,94208,0.016355673,-0.020263992,-0.044895478
1732438064016,2024-11-24T08:47:44.016Z,94211,0.016355673,-0.020263992,-0.044895478
1732438064026,2024-11-24T08:47:44.026Z,94221,-0.029015977,0.011620226,-0.055291574
1732438064029,2024-11-24T08:47:44.029Z,94224,-0.029015977,0.011620226,-0.055291574
1732438064039,2024-11-24T08:47:44.039Z,94234,-0.03590979,0.06484283,-0.062684275
1732438064042,2024-11-24T08:47:44.042Z,94237,-0.03590979,0.06484283,-0.062684275
1732438064050,2024-11-24T08:47:44.050Z,94245,-0.027259622,0.09070781,-0.08467645
1732438064052,2024-11-24T08:47:44.052Z,94247,-0.027259622,0.09070781,-0.08467645
1732438064062,2024-11-24T08:47:44.062Z,94257,-0.015240243,0.08925094,-0.041984633
1732438064064,2024-11-24T08:47:44.064Z,94259,-0.015240243,0.08925094,-0.041984633
1732438064073,2024-11-24T08:47:44.073Z,94268,-0.013514287,-0.008181158,-0.038682636
1732438064076,2024-11-24T08:47:44.076Z,94271,-0.013514287,-0.008181158,-0.038682636
1732438064084,2024-11-24T08:47:44.084Z,94279,-0.025476059,-0.07924697,0.0154067855
1732438064086,2024-11-24T08:47:44.086Z,94281,-0.025476059,-0.07924697,0.0154067855
1732438064095,2024-11-24T08:47:44.095Z,94290,-0.060634036,-0.057610422,0.01700515
1732438064097,2024-11-24T08:47:44.097Z,94292,-0.060634036,-0.057610422,0.01700515
1732438064107,2024-11-24T08:47:44.107Z,94302,-0.04763189,-0.052229512,-0.032652378
1732438064110,2024-11-24T08:47:44.110Z,94305,-0.04763189,-0.052229512,-0.032652378
1732438064120,2024-11-24T08:47:44.120Z,94315,-0.011019081,-0.011289195,-0.07380445
1732438064123,2024-11-24T08:47:44.123Z,94318,-0.011019081,-0.011289195,-0.07380445
1732438064132,2024-11-24T08:47:44.132Z,94327,-0.06779666,0.1361468,-0.02163628
1732438064135,2024-11-24T08:47:44.135Z,94330,-0.06779666,0.1361468,-0.02163628
1732438064145,2024-11-24T08:47:44.145Z,94340,-0.06492756,-0.061191276,0.023925247
1732438064150,2024-11-24T08:47:44.150Z,94345,-0.06492756,-0.061191276,0.023925247
1732438064160,2024-11-24T08:47:44.160Z,94355,-0.007113804,-0.22966146,0.049225796
1732438064163,2024-11-24T08:47:44.163Z,94358,-0.007113804,-0.22966146,0.049225796
1732438064173,2024-11-24T08:47:44.173Z,94368,0.016022936,-0.21560022,-0.0130036
1732438064176,2024-11-24T08:47:44.176Z,94371,0.016022936,-0.21560022,-0.0130036
1732438064185,2024-11-24T08:47:44.185Z,94380,0.013086448,-0.06297976,-0.030137602
1732438064187,2024-11-24T08:47:44.187Z,94382,0.013086448,-0.06297976,-0.030137602
1732438064196,2024-11-24T08:47:44.196Z,94391,-0.018872976,0.079766564,-0.06659312
1732438064199,2024-11-24T08:47:44.199Z,94394,-0.018872976,0.079766564,-0.06659312
1732438064209,2024-11-24T08:47:44.209Z,94404,0.0136203505,0.07082541,-0.04742579
1732438064212,2024-11-24T08:47:44.212Z,94407,0.0136203505,0.07082541,-0.04742579
1732438064220,2024-11-24T08:47:44.220Z,94415,-0.02483857,-0.09132815,-0.016864285
1732438064223,2024-11-24T08:47:44.223Z,94418,-0.02483857,-0.09132815,-0.016864285
1732438064231,2024-11-24T08:47:44.231Z,94426,-0.028635569,-0.21775426,0.0016494185
1732438064233,2024-11-24T08:47:44.233Z,94428,-0.028635569,-0.21775426,0.0016494185
1732438064253,2024-11-24T08:47:44.253Z,94448,0.042640533,-0.1510115,-0.034940522
1732438064256,2024-11-24T08:47:44.256Z,94451,0.042640533,-0.1510115,-0.034940522
1732438064266,2024-11-24T08:47:44.266Z,94461,0.014188065,-0.021686241,-0.06478606
1732438064269,2024-11-24T08:47:44.269Z,94464,0.014188065,-0.021686241,-0.06478606
1732438064280,2024-11-24T08:47:44.280Z,94475,0.037855774,0.1620513,-0.0634511
1732438064282,2024-11-24T08:47:44.282Z,94477,0.037855774,0.1620513,-0.0634511
1732438064298,2024-11-24T08:47:44.298Z,94493,-0.012834498,0.10732977,-0.05662698
1732438064300,2024-11-24T08:47:44.300Z,94495,-0.012834498,0.10732977,-0.05662698
1732438064310,2024-11-24T08:47:44.310Z,94505,-0.027319873,-0.08848219,-0.07583336
1732438064313,2024-11-24T08:47:44.313Z,94508,-0.027319873,-0.08848219,-0.07583336
1732438064322,2024-11-24T08:47:44.322Z,94517,0.038354706,-0.20428468,-0.10954425
1732438064325,2024-11-24T08:47:44.325Z,94520,0.038354706,-0.20428468,-0.10954425
1732438064343,2024-11-24T08:47:44.343Z,94538,0.018391263,0.024043621,-0.09767366
1732438064346,2024-11-24T08:47:44.346Z,94541,0.018391263,0.024043621,-0.09767366
1732438064354,2024-11-24T08:47:44.354Z,94549,0.052419346,0.18048334,-0.10551552
1732438064357,2024-11-24T08:47:44.357Z,94552,0.052419346,0.18048334,-0.10551552
1732438064366,2024-11-24T08:47:44.366Z,94561,0.019674137,0.24818015,-0.113726355
1732438064368,2024-11-24T08:47:44.368Z,94563,0.019674137,0.24818015,-0.113726355
1732438064390,2024-11-24T08:47:44.390Z,94585,-0.05680989,-0.061148293,-0.10292681
1732438064393,2024-11-24T08:47:44.393Z,94588,-0.05680989,-0.061148293,-0.10292681
1732438064401,2024-11-24T08:47:44.401Z,94596,0.023664022,-0.2062871,-0.07156438
1732438064404,2024-11-24T08:47:44.404Z,94599,0.023664022,-0.2062871,-0.07156438
1732438064433,2024-11-24T08:47:44.433Z,94628,0.05091559,-0.19748046,-0.028587788
1732438064436,2024-11-24T08:47:44.436Z,94631,0.05091559,-0.19748046,-0.028587788
1732438064445,2024-11-24T08:47:44.445Z,94640,-0.002228711,0.14186691,-0.0986908
1732438064448,2024-11-24T08:47:44.448Z,94643,-0.002228711,0.14186691,-0.0986908
1732438064456,2024-11-24T08:47:44.456Z,94651,0.0027944434,0.2044056,-0.09089916
1732438064459,2024-11-24T08:47:44.459Z,94654,0.0027944434,0.2044056,-0.09089916
1732438064468,2024-11-24T08:47:44.468Z,94663,-0.032749735,0.1748281,-0.09623852
1732438064471,2024-11-24T08:47:44.471Z,94666,-0.032749735,0.1748281,-0.09623852
1732438064482,2024-11-24T08:47:44.482Z,94677,-0.028383527,-0.12824543,-0.06655262
1732438064485,2024-11-24T08:47:44.485Z,94680,-0.028383527,-0.12824543,-0.06655262
1732438064493,2024-11-24T08:47:44.493Z,94688,-0.03409565,-0.1918218,-0.051644858
1732438064496,2024-11-24T08:47:44.496Z,94691,-0.03409565,-0.1918218,-0.051644858
1732438064524,2024-11-24T08:47:44.524Z,94719,-0.015745481,-0.18674839,-0.060330585
1732438064527,2024-11-24T08:47:44.527Z,94722,-0.015745481,-0.18674839,-0.060330585
1732438064535,2024-11-24T08:47:44.535Z,94730,-0.055629667,0.26498052,-0.08442317
1732438064538,2024-11-24T08:47:44.538Z,94733,-0.055629667,0.26498052,-0.08442317
1732438064547,2024-11-24T08:47:44.547Z,94742,-0.09277295,0.24452451,-0.09190867
1732438064549,2024-11-24T08:47:44.549Z,94744,-0.09277295,0.24452451,-0.09190867
1732438064557,2024-11-24T08:47:44.557Z,94752,-0.048729736,0.07894015,-0.13717456
1732438064560,2024-11-24T08:47:44.560Z,94755,-0.048729736,0.07894015,-0.13717456
1732438064569,2024-11-24T08:47:44.569Z,94764,0.04750631,-0.15506634,-0.010814165
1732438064572,2024-11-24T08:47:44.572Z,94767,0.04750631,-0.15506634,-0.010814165
1732438064580,2024-11-24T08:47:44.580Z,94775,0.028910201,-0.15193613,0.0237149
1732438064583,2024-11-24T08:47:44.583Z,94778,0.028910201,-0.15193613,0.0237149
1732438064614,2024-11-24T08:47:44.614Z,94809,-0.0018975703,-0.11470572,0.0057704607
1732438064617,2024-11-24T08:47:44.617Z,94812,-0.0018975703,-0.11470572,0.0057704607
1732438064625,2024-11-24T08:47:44.625Z,94820,-0.016259003,0.07654144,-0.06249255
1732438064628,2024-11-24T08:47:44.628Z,94823,-0.016259003,0.07654144,-0.06249255
1732438064636,2024-11-24T08:47:44.636Z,94831,0.003104135,0.13933332,-0.07739051
1732438064639,2024-11-24T08:47:44.639Z,94834,0.003104135,0.13933332,-0.07739051
1732438064648,2024-11-24T08:47:44.648Z,94843,0.009031092,0.105084226,-0.108878784
1732438064650,2024-11-24T08:47:44.650Z,94845,0.009031092,0.105084226,-0.108878784
1732438064659,2024-11-24T08:47:44.659Z,94854,-0.0045345635,-0.015686154,-0.045964133
1732438064661,2024-11-24T08:47:44.661Z,94856,-0.0045345635,-0.015686154,-0.045964133
1732438064669,2024-11-24T08:47:44.669Z,94864,0.0047680917,-0.011235806,-0.012748714
1732438064671,2024-11-24T08:47:44.671Z,94866,0.0047680917,-0.011235806,-0.012748714
1732438064680,2024-11-24T08:47:44.680Z,94875,0.009111564,0.024967574,-0.00532227
1732438064682,2024-11-24T08:47:44.682Z,94877,0.009111564,0.024967574,-0.00532227
1732438064703,2024-11-24T08:47:44.703Z,94898,-0.007144595,0.025390115,-0.028640814
1732438064706,2024-11-24T08:47:44.706Z,94901,-0.007144595,0.025390115,-0.028640814
1732438064717,2024-11-24T08:47:44.717Z,94912,0.0044204555,-0.042155813,-0.048425667
1732438064720,2024-11-24T08:47:44.720Z,94915,0.0044204555,-0.042155813,-0.048425667
1732438064731,2024-11-24T08:47:44.731Z,94926,0.022508299,-0.06978204,-0.0408022
1732438064733,2024-11-24T08:47:44.733Z,94928,0.022508299,-0.06978204,-0.0408022
1732438064750,2024-11-24T08:47:44.750Z,94945,-0.049071368,0.023565358,-0.045658898
1732438064753,2024-11-24T08:47:44.753Z,94948,-0.049071368,0.023565358,-0.045658898
1732438064765,2024-11-24T08:47:44.765Z,94960,-0.028343368,0.062720306,-0.043832388
1732438064769,2024-11-24T08:47:44.769Z,94964,-0.028343368,0.062720306,-0.043832388
1732438064792,2024-11-24T08:47:44.792Z,94987,-0.0266405,0.03228731,-0.035212472
1732438064795,2024-11-24T08:47:44.795Z,94990,-0.0266405,0.03228731,-0.035212472
1732438064802,2024-11-24T08:47:44.802Z,94997,0.033066932,-0.08799965,-0.0048351563
1732438064805,2024-11-24T08:47:44.805Z,95000,0.033066932,-0.08799965,-0.0048351563
1732438064814,2024-11-24T08:47:44.814Z,95009,0.003066342,-0.066796735,0.012022224
1732438064816,2024-11-24T08:47:44.816Z,95011,0.003066342,-0.066796735,0.012022224
1732438064823,2024-11-24T08:47:44.823Z,95018,-0.045741946,-0.015525209,-0.009429405
1732438064826,2024-11-24T08:47:44.826Z,95021,-0.045741946,-0.015525209,-0.009429405
1732438064837,2024-11-24T08:47:44.837Z,95032,-0.028564949,0.09887146,-0.0965082
1732438064840,2024-11-24T08:47:44.840Z,95035,-0.028564949,0.09887146,-0.0965082
1732438064849,2024-11-24T08:47:44.849Z,95044,-0.0019671388,0.07412921,-0.13828781
1732438064852,2024-11-24T08:47:44.852Z,95047,-0.0019671388,0.07412921,-0.13828781
1732438064860,2024-11-24T08:47:44.860Z,95055,0.030061213,0.024548143,-0.115442716
1732438064863,2024-11-24T08:47:44.863Z,95058,0.030061213,0.024548143,-0.115442716
1732438064885,2024-11-24T08:47:44.885Z,95080,-0.002122176,0.005311573,-0.057219047
1732438064892,2024-11-24T08:47:44.892Z,95087,-0.002122176,0.005311573,-0.057219047
1732438064911,2024-11-24T08:47:44.911Z,95106,-0.013326158,0.0033486278,-0.050283704
1732438064917,2024-11-24T08:47:44.917Z,95112,-0.013326158,0.0033486278,-0.050283704
1732438064928,2024-11-24T08:47:44.928Z,95123,-0.019325443,0.017410744,-0.06840188
1732438064933,2024-11-24T08:47:44.933Z,95128,-0.019325443,0.017410744,-0.06840188
1732438064944,2024-11-24T08:47:44.944Z,95139,-0.01874333,0.018557101,-0.13076077
1732438064947,2024-11-24T08:47:44.947Z,95142,-0.01874333,0.018557101,-0.13076077
1732438064959,2024-11-24T08:47:44.959Z,95154,0.0016979816,0.008067962,-0.09946812
1732438064961,2024-11-24T08:47:44.961Z,95156,0.0016979816,0.008067962,-0.09946812
1732438064977,2024-11-24T08:47:44.977Z,95172,-0.0026040385,-0.021490967,-0.06539972
1732438064980,2024-11-24T08:47:44.980Z,95175,-0.0026040385,-0.021490967,-0.06539972
1732438064990,2024-11-24T08:47:44.990Z,95185,-0.020050012,0.015033816,-0.050129104
1732438064994,2024-11-24T08:47:44.994Z,95189,-0.020050012,0.015033816,-0.050129104
1732438065010,2024-11-24T08:47:45.010Z,95205,0.007084593,0.035897534,-0.075017884
1732438065019,2024-11-24T08:47:45.019Z,95214,0.007084593,0.035897534,-0.075017884
1732438065039,2024-11-24T08:47:45.039Z,95234,0.032432623,0.048898775,-0.07639897
1732438065044,2024-11-24T08:47:45.044Z,95239,0.032432623,0.048898775,-0.07639897
1732438065056,2024-11-24T08:47:45.056Z,95251,-0.009541216,-0.018363968,-0.049693972
1732438065060,2024-11-24T08:47:45.060Z,95255,-0.009541216,-0.018363968,-0.049693972
1732438065070,2024-11-24T08:47:45.070Z,95265,0.015147013,-0.046420712,-0.033270024
1732438065073,2024-11-24T08:47:45.073Z,95268,0.015147013,-0.046420712,-0.033270024
1732438065082,2024-11-24T08:47:45.082Z,95277,0.024323672,-0.048526026,-5.825138E-4
1732438065085,2024-11-24T08:47:45.085Z,95280,0.024323672,-0.048526026,-5.825138E-4
1732438065093,2024-11-24T08:47:45.093Z,95288,0.016441379,0.05896693,-0.086551994
1732438065096,2024-11-24T08:47:45.096Z,95291,0.016441379,0.05896693,-0.086551994
1732438065104,2024-11-24T08:47:45.104Z,95299,-0.0070253937,0.0808252,-0.09915766
1732438065108,2024-11-24T08:47:45.108Z,95303,-0.0070253937,0.0808252,-0.09915766
1732438065116,2024-11-24T08:47:45.116Z,95311,-0.056641042,0.056318875,-0.0771639
1732438065118,2024-11-24T08:47:45.118Z,95313,-0.056641042,0.056318875,-0.0771639
1732438065126,2024-11-24T08:47:45.126Z,95321,-0.0017668694,-0.051679477,-0.034861676
1732438065128,2024-11-24T08:47:45.128Z,95323,-0.0017668694,-0.051679477,-0.034861676
1732438065136,2024-11-24T08:47:45.136Z,95331,0.014606704,-0.067348905,-0.019914776
1732438065139,2024-11-24T08:47:45.139Z,95334,0.014606704,-0.067348905,-0.019914776
1732438065150,2024-11-24T08:47:45.150Z,95345,0.016981956,-0.032326695,-0.027778931
1732438065153,2024-11-24T08:47:45.153Z,95348,0.016981956,-0.032326695,-0.027778931
1732438065160,2024-11-24T08:47:45.160Z,95355,-0.023161342,0.05763454,-0.07294738
1732438065164,2024-11-24T08:47:45.164Z,95359,-0.023161342,0.05763454,-0.07294738
1732438065172,2024-11-24T08:47:45.172Z,95367,-0.057566904,0.06353252,-0.10266264
1732438065175,2024-11-24T08:47:45.175Z,95370,-0.057566904,0.06353252,-0.10266264
1732438065197,2024-11-24T08:47:45.197Z,95392,-0.047450125,0.025159929,-0.08023077
1732438065199,2024-11-24T08:47:45.199Z,95394,-0.047450125,0.025159929,-0.08023077
1732438065207,2024-11-24T08:47:45.207Z,95402,0.021434369,-0.04432697,-0.009867726
1732438065209,2024-11-24T08:47:45.209Z,95404,0.021434369,-0.04432697,-0.009867726
1732438065217,2024-11-24T08:47:45.217Z,95412,-0.018286899,-0.0432976,0.0025808571
1732438065219,2024-11-24T08:47:45.219Z,95414,-0.018286899,-0.0432976,0.0025808571
1732438065248,2024-11-24T08:47:45.248Z,95443,-0.05506467,-0.018881228,-0.024663966
1732438065257,2024-11-24T08:47:45.257Z,95452,-0.05506467,-0.018881228,-0.024663966
1732438065280,2024-11-24T08:47:45.280Z,95475,-0.022194918,0.028117426,-0.10547801
1732438065288,2024-11-24T08:47:45.288Z,95483,-0.022194918,0.028117426,-0.10547801
1732438065308,2024-11-24T08:47:45.308Z,95503,-0.012710131,0.046308488,-0.10852016
1732438065314,2024-11-24T08:47:45.314Z,95509,-0.012710131,0.046308488,-0.10852016
1732438065334,2024-11-24T08:47:45.334Z,95529,-0.028820235,0.021997822,-0.08983965
1732438065340,2024-11-24T08:47:45.340Z,95535,-0.028820235,0.021997822,-0.08983965
1732438065355,2024-11-24T08:47:45.355Z,95550,-0.06787616,0.011289779,-0.05619189
1732438065359,2024-11-24T08:47:45.359Z,95554,-0.06787616,0.011289779,-0.05619189
1732438065381,2024-11-24T08:47:45.381Z,95576,-0.06475847,0.01240346,-0.09759511
1732438065389,2024-11-24T08:47:45.389Z,95584,-0.06475847,0.01240346,-0.09759511
1732438065414,2024-11-24T08:47:45.414Z,95609,-0.033549026,0.0048660813,-0.09452347
1732438065420,2024-11-24T08:47:45.420Z,95615,-0.033549026,0.0048660813,-0.09452347
1732438065448,2024-11-24T08:47:45.448Z,95643,-0.00878903,0.012513544,-0.05330536
1732438065455,2024-11-24T08:47:45.455Z,95650,-0.00878903,0.012513544,-0.05330536
1732438065475,2024-11-24T08:47:45.475Z,95670,-0.04317453,-0.0024858462,-0.04740357
1732438065481,2024-11-24T08:47:45.481Z,95676,-0.04317453,-0.0024858462,-0.04740357
1732438065490,2024-11-24T08:47:45.490Z,95685,-0.053760447,-0.017466662,-0.050149698
1732438065493,2024-11-24T08:47:45.493Z,95688,-0.053760447,-0.017466662,-0.050149698
1732438065503,2024-11-24T08:47:45.503Z,95698,-0.008689083,0.0049517564,-0.092546806
1732438065506,2024-11-24T08:47:45.506Z,95701,-0.008689083,0.0049517564,-0.092546806
1732438065516,2024-11-24T08:47:45.516Z,95711,-0.013368813,0.029418211,-0.13465646
1732438065518,2024-11-24T08:47:45.518Z,95713,-0.013368813,0.029418211,-0.13465646
1732438065527,2024-11-24T08:47:45.527Z,95722,-0.01959962,0.030924287,-0.107881464
1732438065529,2024-11-24T08:47:45.529Z,95724,-0.01959962,0.030924287,-0.107881464
1732438065537,2024-11-24T08:47:45.537Z,95732,-0.015292495,-0.013946586,-0.031439822
1732438065539,2024-11-24T08:47:45.539Z,95734,-0.015292495,-0.013946586,-0.031439822
1732438065547,2024-11-24T08:47:45.547Z,95742,-0.033863354,-0.02368507,-0.018132541
1732438065549,2024-11-24T08:47:45.549Z,95744,-0.033863354,-0.02368507,-0.018132541
1732438065556,2024-11-24T08:47:45.556Z,95751,-0.03735783,-0.0065029548,-0.0348794
1732438065561,2024-11-24T08:47:45.561Z,95756,-0.03735783,-0.0065029548,-0.0348794
1732438065568,2024-11-24T08:47:45.568Z,95763,0.11672444,-0.041913375,-0.045813277
1732438065570,2024-11-24T08:47:45.570Z,95765,0.11672444,-0.041913375,-0.045813277
1732438065578,2024-11-24T08:47:45.578Z,95773,0.04744964,-0.026461395,-0.041367136
1732438065580,2024-11-24T08:47:45.580Z,95775,0.04744964,-0.026461395,-0.041367136
1732438065590,2024-11-24T08:47:45.590Z,95785,-0.02644552,-0.015336646,-0.0071436954
1732438065592,2024-11-24T08:47:45.592Z,95787,-0.02644552,-0.015336646,-0.0071436954
1732438065600,2024-11-24T08:47:45.600Z,95795,-0.03968397,0.035259202,-0.033041563
1732438065603,2024-11-24T08:47:45.603Z,95798,-0.03968397,0.035259202,-0.033041563
1732438065611,2024-11-24T08:47:45.611Z,95806,-0.07247877,0.027259216,-0.03807304
1732438065613,2024-11-24T08:47:45.613Z,95808,-0.07247877,0.027259216,-0.03807304
1732438065621,2024-11-24T08:47:45.621Z,95816,-0.07674515,0.06420381,-0.034607325
1732438065624,2024-11-24T08:47:45.624Z,95819,-0.07674515,0.06420381,-0.034607325
1732438065633,2024-11-24T08:47:45.633Z,95828,-0.006602901,0.061259154,-0.06457664
1732438065635,2024-11-24T08:47:45.635Z,95830,-0.006602901,0.061259154,-0.06457664
1732438065647,2024-11-24T08:47:45.647Z,95842,-0.081654176,0.055444326,-0.052772786
1732438065649,2024-11-24T08:47:45.649Z,95844,-0.081654176,0.055444326,-0.052772786
1732438065656,2024-11-24T08:47:45.656Z,95851,-0.07866653,0.052999128,-0.023171894
1732438065659,2024-11-24T08:47:45.659Z,95854,-0.07866653,0.052999128,-0.023171894
1732438065666,2024-11-24T08:47:45.666Z,95861,-0.0011248643,0.04281,-0.011818393
1732438065668,2024-11-24T08:47:45.668Z,95863,-0.0011248643,0.04281,-0.011818393
1732438065691,2024-11-24T08:47:45.691Z,95886,-0.057285152,0.09623527,-0.06873894
1732438065694,2024-11-24T08:47:45.694Z,95889,-0.057285152,0.09623527,-0.06873894
1732438065703,2024-11-24T08:47:45.703Z,95898,-0.078545645,0.11439346,-0.09879551
1732438065705,2024-11-24T08:47:45.705Z,95900,-0.078545645,0.11439346,-0.09879551
1732438065714,2024-11-24T08:47:45.714Z,95909,-0.083649516,0.07466621,-0.112802364
1732438065717,2024-11-24T08:47:45.717Z,95912,-0.083649516,0.07466621,-0.112802364
1732438065725,2024-11-24T08:47:45.725Z,95920,0.005629111,0.06283389,-0.0360455
1732438065728,2024-11-24T08:47:45.728Z,95923,0.005629111,0.06283389,-0.0360455
1732438065789,2024-11-24T08:47:45.789Z,95984,-0.029917348,0.09132504,-0.05001202
1732438065796,2024-11-24T08:47:45.796Z,95991,-0.029917348,0.09132504,-0.05001202
1732438065818,2024-11-24T08:47:45.818Z,96013,-0.09019264,0.11530438,-0.07560723
1732438065825,2024-11-24T08:47:45.825Z,96020,-0.09019264,0.11530438,-0.07560723
1732438065842,2024-11-24T08:47:45.842Z,96037,-0.10005036,0.10876145,-0.11943057
1732438065847,2024-11-24T08:47:45.847Z,96042,-0.10005036,0.10876145,-0.11943057
1732438065855,2024-11-24T08:47:45.855Z,96050,-0.11063785,0.14398734,-0.06387167
1732438065857,2024-11-24T08:47:45.857Z,96052,-0.11063785,0.14398734,-0.06387167
1732438065865,2024-11-24T08:47:45.865Z,96060,-0.09819108,0.15490068,-0.052043475
1732438065868,2024-11-24T08:47:45.868Z,96063,-0.09819108,0.15490068,-0.052043475
1732438065876,2024-11-24T08:47:45.876Z,96071,1.433796E-4,0.14437638,-0.06737516
1732438065878,2024-11-24T08:47:45.878Z,96073,1.433796E-4,0.14437638,-0.06737516
1732438065886,2024-11-24T08:47:45.886Z,96081,0.0470464,0.16534294,-0.06836689
1732438065888,2024-11-24T08:47:45.888Z,96083,0.0470464,0.16534294,-0.06836689
1732438065898,2024-11-24T08:47:45.898Z,96093,0.010248244,0.19514139,-0.049731143
1732438065902,2024-11-24T08:47:45.902Z,96097,0.010248244,0.19514139,-0.049731143
1732438065918,2024-11-24T08:47:45.918Z,96113,-0.070232704,0.21618663,-0.11107364
1732438065923,2024-11-24T08:47:45.923Z,96118,-0.070232704,0.21618663,-0.11107364
1732438065940,2024-11-24T08:47:45.940Z,96135,-0.038173005,0.16290261,-0.12529585
1732438065946,2024-11-24T08:47:45.946Z,96141,-0.038173005,0.16290261,-0.12529585
1732438065964,2024-11-24T08:47:45.964Z,96159,0.031724587,0.11631021,-0.102804914
1732438065968,2024-11-24T08:47:45.968Z,96163,0.031724587,0.11631021,-0.102804914
1732438065977,2024-11-24T08:47:45.977Z,96172,0.033358447,0.11942039,-0.07517397
1732438065981,2024-11-24T08:47:45.981Z,96176,0.033358447,0.11942039,-0.07517397
1732438065991,2024-11-24T08:47:45.991Z,96186,0.066072516,0.10370409,-0.09380687
1732438065994,2024-11-24T08:47:45.994Z,96189,0.066072516,0.10370409,-0.09380687
1732438066004,2024-11-24T08:47:46.004Z,96199,0.027433908,0.0722359,-0.16499577
1732438066007,2024-11-24T08:47:46.007Z,96202,0.027433908,0.0722359,-0.16499577
1732438066016,2024-11-24T08:47:46.016Z,96211,-0.031098755,0.13370773,-0.1695034
1732438066019,2024-11-24T08:47:46.019Z,96214,-0.031098755,0.13370773,-0.1695034
1732438066026,2024-11-24T08:47:46.026Z,96221,0.066977784,0.059288044,-0.06802677
1732438066029,2024-11-24T08:47:46.029Z,96224,0.066977784,0.059288044,-0.06802677
1732438066038,2024-11-24T08:47:46.038Z,96233,0.027058447,0.068493605,-0.055581663
1732438066040,2024-11-24T08:47:46.040Z,96235,0.027058447,0.068493605,-0.055581663
1732438066048,2024-11-24T08:47:46.048Z,96243,-0.060369667,0.05667519,-0.05986664
1732438066050,2024-11-24T08:47:46.050Z,96245,-0.060369667,0.05667519,-0.05986664
1732438066058,2024-11-24T08:47:46.058Z,96253,-0.072658755,0.059414368,-0.16359419
1732438066061,2024-11-24T08:47:46.061Z,96256,-0.072658755,0.059414368,-0.16359419
1732438066070,2024-11-24T08:47:46.070Z,96265,0.0074951244,0.053940877,-0.101751976
1732438066073,2024-11-24T08:47:46.073Z,96268,0.0074951244,0.053940877,-0.101751976
1732438066084,2024-11-24T08:47:46.084Z,96279,0.053437565,0.004012441,-0.063750446
1732438066087,2024-11-24T08:47:46.087Z,96282,0.053437565,0.004012441,-0.063750446
1732438066102,2024-11-24T08:47:46.102Z,96297,-0.00600866,-0.018170735,-0.076906145
1732438066105,2024-11-24T08:47:46.105Z,96300,-0.00600866,-0.018170735,-0.076906145
1732438066114,2024-11-24T08:47:46.114Z,96309,0.0075056334,0.008481654,-0.051290534
1732438066116,2024-11-24T08:47:46.116Z,96311,0.0075056334,0.008481654,-0.051290534
1732438066123,2024-11-24T08:47:46.123Z,96318,0.074222155,-0.02006444,-0.08031419
1732438066125,2024-11-24T08:47:46.125Z,96320,0.074222155,-0.02006444,-0.08031419
1732438066145,2024-11-24T08:47:46.145Z,96340,-0.06623353,0.08017102,-0.09460452
1732438066147,2024-11-24T08:47:46.147Z,96342,-0.06623353,0.08017102,-0.09460452
1732438066155,2024-11-24T08:47:46.155Z,96350,-0.041665856,0.043145407,-0.09716525
1732438066158,2024-11-24T08:47:46.158Z,96353,-0.041665856,0.043145407,-0.09716525
1732438066187,2024-11-24T08:47:46.187Z,96382,0.04674942,-0.024239382,-0.091600955
1732438066190,2024-11-24T08:47:46.190Z,96385,0.04674942,-0.024239382,-0.091600955
1732438066200,2024-11-24T08:47:46.200Z,96395,0.08049366,0.0011757249,-0.05885006
1732438066203,2024-11-24T08:47:46.203Z,96398,0.08049366,0.0011757249,-0.05885006
1732438066214,2024-11-24T08:47:46.214Z,96409,0.009070091,0.053530686,-0.08025589
1732438066216,2024-11-24T08:47:46.216Z,96411,0.009070091,0.053530686,-0.08025589
1732438066225,2024-11-24T08:47:46.225Z,96420,-0.021344457,0.07217618,-0.11633072
1732438066228,2024-11-24T08:47:46.228Z,96423,-0.021344457,0.07217618,-0.11633072
1732438066237,2024-11-24T08:47:46.237Z,96432,0.053481285,-0.061969746,0.04205188
1732438066240,2024-11-24T08:47:46.240Z,96435,0.053481285,-0.061969746,0.04205188
1732438066248,2024-11-24T08:47:46.248Z,96443,-0.003226345,-0.078128815,-0.012189393
1732438066250,2024-11-24T08:47:46.250Z,96445,-0.003226345,-0.078128815,-0.012189393
1732438066279,2024-11-24T08:47:46.279Z,96474,-0.0018574769,0.07713757,-0.04773105
1732438066282,2024-11-24T08:47:46.282Z,96477,-0.0018574769,0.07713757,-0.04773105
1732438066290,2024-11-24T08:47:46.290Z,96485,0.026955422,0.05527424,-0.013164253
1732438066292,2024-11-24T08:47:46.292Z,96487,0.026955422,0.05527424,-0.013164253
1732438066300,2024-11-24T08:47:46.300Z,96495,0.019137558,-0.027079599,-0.024093729
1732438066302,2024-11-24T08:47:46.302Z,96497,0.019137558,-0.027079599,-0.024093729
1732438066310,2024-11-24T08:47:46.310Z,96505,-0.010851839,-0.055783138,-0.0034631614
1732438066312,2024-11-24T08:47:46.312Z,96507,-0.010851839,-0.055783138,-0.0034631614
1732438066371,2024-11-24T08:47:46.371Z,96566,-0.019293895,-0.07834159,0.044855338
1732438066376,2024-11-24T08:47:46.376Z,96571,-0.019293895,-0.07834159,0.044855338
1732438066386,2024-11-24T08:47:46.386Z,96581,-0.07851718,0.004746369,-0.013386221
1732438066389,2024-11-24T08:47:46.389Z,96584,-0.07851718,0.004746369,-0.013386221
1732438066401,2024-11-24T08:47:46.401Z,96596,-0.022840042,0.092997015,-0.029671833
1732438066404,2024-11-24T08:47:46.404Z,96599,-0.022840042,0.092997015,-0.029671833
1732438066416,2024-11-24T08:47:46.416Z,96611,0.024204206,-0.017326528,0.077787355
1732438066419,2024-11-24T08:47:46.419Z,96614,0.024204206,-0.017326528,0.077787355
1732438066429,2024-11-24T08:47:46.429Z,96624,-0.033707295,-0.12933372,0.1061408
1732438066432,2024-11-24T08:47:46.432Z,96627,-0.033707295,-0.12933372,0.1061408
1732438066441,2024-11-24T08:47:46.441Z,96636,-0.07074775,-0.25720298,0.015595957
1732438066444,2024-11-24T08:47:46.444Z,96639,-0.07074775,-0.25720298,0.015595957
1732438066456,2024-11-24T08:47:46.456Z,96651,0.026497955,-0.0016238423,-0.027891884
1732438066460,2024-11-24T08:47:46.460Z,96655,0.026497955,-0.0016238423,-0.027891884
1732438066468,2024-11-24T08:47:46.468Z,96663,-0.006215229,-0.056385685,0.09475523
1732438066471,2024-11-24T08:47:46.471Z,96666,-0.006215229,-0.056385685,0.09475523
1732438066478,2024-11-24T08:47:46.478Z,96673,5.3477735E-4,-0.10720783,0.11431221
1732438066482,2024-11-24T08:47:46.482Z,96677,5.3477735E-4,-0.10720783,0.11431221
1732438066509,2024-11-24T08:47:46.509Z,96704,-0.0032295054,-0.15517613,0.047294118
1732438066516,2024-11-24T08:47:46.516Z,96711,-0.0032295054,-0.15517613,0.047294118
1732438066533,2024-11-24T08:47:46.533Z,96728,0.029467504,-0.058914125,-0.10230224
1732438066536,2024-11-24T08:47:46.536Z,96731,0.029467504,-0.058914125,-0.10230224
1732438066547,2024-11-24T08:47:46.547Z,96742,0.14846116,0.072979644,-0.039305385
1732438066550,2024-11-24T08:47:46.550Z,96745,0.14846116,0.072979644,-0.039305385
1732438066560,2024-11-24T08:47:46.560Z,96755,0.095416956,0.11793254,-0.053658128
1732438066563,2024-11-24T08:47:46.563Z,96758,0.095416956,0.11793254,-0.053658128
1732438066575,2024-11-24T08:47:46.575Z,96770,-0.013762375,0.008523859,0.01872602
1732438066580,2024-11-24T08:47:46.580Z,96775,-0.013762375,0.008523859,0.01872602
1732438066590,2024-11-24T08:47:46.590Z,96785,-0.024462808,-0.13506463,-0.056777496
1732438066594,2024-11-24T08:47:46.594Z,96789,-0.024462808,-0.13506463,-0.056777496
1732438066604,2024-11-24T08:47:46.604Z,96799,-0.022419708,-0.26117003,-0.04281693
1732438066606,2024-11-24T08:47:46.606Z,96801,-0.022419708,-0.26117003,-0.04281693
1732438066616,2024-11-24T08:47:46.616Z,96811,-0.03064662,-0.1633569,-0.12772427
1732438066619,2024-11-24T08:47:46.619Z,96814,-0.03064662,-0.1633569,-0.12772427
1732438066627,2024-11-24T08:47:46.627Z,96822,0.026475884,-0.0019093617,-0.051608413
1732438066630,2024-11-24T08:47:46.630Z,96825,0.026475884,-0.0019093617,-0.051608413
1732438066639,2024-11-24T08:47:46.639Z,96834,0.11487949,0.09039919,0.02145902
1732438066641,2024-11-24T08:47:46.641Z,96836,0.11487949,0.09039919,0.02145902
1732438066650,2024-11-24T08:47:46.650Z,96845,-0.04241486,-0.16574122,-0.15807626
1732438066652,2024-11-24T08:47:46.652Z,96847,-0.04241486,-0.16574122,-0.15807626
1732438066660,2024-11-24T08:47:46.660Z,96855,-0.059422255,-0.13627663,-0.18631427
1732438066662,2024-11-24T08:47:46.662Z,96857,-0.059422255,-0.13627663,-0.18631427
1732438066682,2024-11-24T08:47:46.682Z,96877,-0.046619277,-0.097811654,-0.012057647
1732438066684,2024-11-24T08:47:46.684Z,96879,-0.046619277,-0.097811654,-0.012057647
1732438066692,2024-11-24T08:47:46.692Z,96887,-0.0430309,-0.2234383,0.090802036
1732438066694,2024-11-24T08:47:46.694Z,96889,-0.0430309,-0.2234383,0.090802036
1732438066702,2024-11-24T08:47:46.702Z,96897,-0.07175917,-0.18675432,0.06298948
1732438066705,2024-11-24T08:47:46.705Z,96900,-0.07175917,-0.18675432,0.06298948
1732438066719,2024-11-24T08:47:46.719Z,96914,-0.0390894,-0.08429471,0.015926648
1732438066722,2024-11-24T08:47:46.722Z,96917,-0.0390894,-0.08429471,0.015926648
1732438066730,2024-11-24T08:47:46.730Z,96925,0.07851909,-0.15878107,-0.10900331
1732438066733,2024-11-24T08:47:46.733Z,96928,0.07851909,-0.15878107,-0.10900331
1732438066740,2024-11-24T08:47:46.740Z,96935,-0.066045955,-0.18159086,-0.07891589
1732438066742,2024-11-24T08:47:46.742Z,96937,-0.066045955,-0.18159086,-0.07891589
1732438066772,2024-11-24T08:47:46.772Z,96967,-0.089308925,-0.17305017,0.054939125
1732438066774,2024-11-24T08:47:46.774Z,96969,-0.089308925,-0.17305017,0.054939125
1732438066782,2024-11-24T08:47:46.782Z,96977,0.1645985,-0.2725622,0.07591623
1732438066784,2024-11-24T08:47:46.784Z,96979,0.1645985,-0.2725622,0.07591623
1732438066796,2024-11-24T08:47:46.796Z,96991,0.1430333,-0.26438,0.034536798
1732438066806,2024-11-24T08:47:46.806Z,97001,0.1430333,-0.26438,0.034536798
1732438066830,2024-11-24T08:47:46.830Z,97025,0.07781259,-0.13533406,-0.05696664
1732438066837,2024-11-24T08:47:46.837Z,97032,0.07781259,-0.13533406,-0.05696664
1732438066859,2024-11-24T08:47:46.859Z,97054,-0.093822576,-0.09666009,-0.054474864
1732438066866,2024-11-24T08:47:46.866Z,97061,-0.093822576,-0.09666009,-0.054474864
1732438066887,2024-11-24T08:47:46.887Z,97082,-0.025171598,-0.2221536,-0.0025006763
1732438066894,2024-11-24T08:47:46.894Z,97089,-0.025171598,-0.2221536,-0.0025006763
1732438066915,2024-11-24T08:47:46.915Z,97110,0.101541325,-0.33997408,0.058383103
1732438066921,2024-11-24T08:47:46.921Z,97116,0.101541325,-0.33997408,0.058383103
1732438066938,2024-11-24T08:47:46.938Z,97133,0.10347181,-0.35819587,0.0885049
1732438066941,2024-11-24T08:47:46.941Z,97136,0.10347181,-0.35819587,0.0885049
1732438066958,2024-11-24T08:47:46.958Z,97153,0.018699447,-0.21600434,0.026825102
1732438066962,2024-11-24T08:47:46.962Z,97157,0.018699447,-0.21600434,0.026825102
1732438066974,2024-11-24T08:47:46.974Z,97169,0.0742478,-0.14056554,-0.057300445
1732438066978,2024-11-24T08:47:46.978Z,97173,0.0742478,-0.14056554,-0.057300445
1732438066989,2024-11-24T08:47:46.989Z,97184,-0.006141363,-0.11679271,0.08732378
1732438066992,2024-11-24T08:47:46.992Z,97187,-0.006141363,-0.11679271,0.08732378
1732438067006,2024-11-24T08:47:47.006Z,97201,0.11061616,-0.2649621,0.13445868
1732438067009,2024-11-24T08:47:47.009Z,97204,0.11061616,-0.2649621,0.13445868
1732438067023,2024-11-24T08:47:47.023Z,97218,0.17035864,-0.32952404,0.20094948
1732438067031,2024-11-24T08:47:47.031Z,97226,0.17035864,-0.32952404,0.20094948
1732438067053,2024-11-24T08:47:47.053Z,97248,-0.09579308,0.011724039,-0.064325765
1732438067058,2024-11-24T08:47:47.058Z,97253,-0.09579308,0.011724039,-0.064325765
1732438067077,2024-11-24T08:47:47.077Z,97272,-0.052590422,-0.030106384,-0.029652286
1732438067083,2024-11-24T08:47:47.083Z,97278,-0.052590422,-0.030106384,-0.029652286
1732438067101,2024-11-24T08:47:47.101Z,97296,0.031031502,-0.13932359,0.038936768
1732438067104,2024-11-24T08:47:47.104Z,97299,0.031031502,-0.13932359,0.038936768
1732438067116,2024-11-24T08:47:47.116Z,97311,0.1319479,-0.18596631,0.111407176
1732438067120,2024-11-24T08:47:47.120Z,97315,0.1319479,-0.18596631,0.111407176
1732438067132,2024-11-24T08:47:47.132Z,97327,0.0988859,-0.040118426,0.0923191
1732438067136,2024-11-24T08:47:47.136Z,97331,0.0988859,-0.040118426,0.0923191
1732438067146,2024-11-24T08:47:47.146Z,97341,-0.016915437,-0.15621655,-0.07832807
1732438067149,2024-11-24T08:47:47.149Z,97344,-0.016915437,-0.15621655,-0.07832807
1732438067158,2024-11-24T08:47:47.158Z,97353,0.021238025,-0.101203755,-0.06676094
1732438067161,2024-11-24T08:47:47.161Z,97356,0.021238025,-0.101203755,-0.06676094
1732438067170,2024-11-24T08:47:47.170Z,97365,0.084114,0.0073277126,0.017926207
1732438067172,2024-11-24T08:47:47.172Z,97367,0.084114,0.0073277126,0.017926207
1732438067181,2024-11-24T08:47:47.181Z,97376,0.039989255,0.002190845,-0.011899473
1732438067184,2024-11-24T08:47:47.184Z,97379,0.039989255,0.002190845,-0.011899473
1732438067191,2024-11-24T08:47:47.191Z,97386,-0.025363881,-0.023331769,-0.11337615
1732438067193,2024-11-24T08:47:47.193Z,97388,-0.025363881,-0.023331769,-0.11337615
1732438067201,2024-11-24T08:47:47.201Z,97396,-0.0624413,-0.030019348,-0.1154575
1732438067203,2024-11-24T08:47:47.203Z,97398,-0.0624413,-0.030019348,-0.1154575
1732438067210,2024-11-24T08:47:47.210Z,97405,0.073604725,-0.04023658,-0.0041846177
1732438067213,2024-11-24T08:47:47.213Z,97408,0.073604725,-0.04023658,-0.0041846177
1732438067221,2024-11-24T08:47:47.221Z,97416,0.08895042,0.0064909444,-0.009488265
1732438067224,2024-11-24T08:47:47.224Z,97419,0.08895042,0.0064909444,-0.009488265
1732438067231,2024-11-24T08:47:47.231Z,97426,-0.0016865671,0.080061905,-0.014996619
1732438067233,2024-11-24T08:47:47.233Z,97428,-0.0016865671,0.080061905,-0.014996619
1732438067241,2024-11-24T08:47:47.241Z,97436,-0.10575259,0.10249331,-0.060247682
1732438067243,2024-11-24T08:47:47.243Z,97438,-0.10575259,0.10249331,-0.060247682
1732438067251,2024-11-24T08:47:47.251Z,97446,0.019880107,-0.057050712,-0.045211095
1732438067254,2024-11-24T08:47:47.254Z,97449,0.019880107,-0.057050712,-0.045211095
1732438067263,2024-11-24T08:47:47.263Z,97458,0.03530481,-0.12187132,0.002209614
1732438067266,2024-11-24T08:47:47.266Z,97461,0.03530481,-0.12187132,0.002209614
1732438067275,2024-11-24T08:47:47.275Z,97470,0.013251752,-0.08296786,-0.007407942
1732438067278,2024-11-24T08:47:47.278Z,97473,0.013251752,-0.08296786,-0.007407942
1732438067287,2024-11-24T08:47:47.287Z,97482,-0.06313847,0.10631548,-0.034824844
1732438067289,2024-11-24T08:47:47.289Z,97484,-0.06313847,0.10631548,-0.034824844
1732438067301,2024-11-24T08:47:47.301Z,97496,-0.025391743,0.0316464,-0.06339005
1732438067307,2024-11-24T08:47:47.307Z,97502,-0.025391743,0.0316464,-0.06339005
1732438067323,2024-11-24T08:47:47.323Z,97518,0.025624506,-0.101741195,-0.053290825
1732438067327,2024-11-24T08:47:47.327Z,97522,0.025624506,-0.101741195,-0.053290825
1732438067345,2024-11-24T08:47:47.345Z,97540,-0.030473666,0.056768596,-0.05077483
1732438067350,2024-11-24T08:47:47.350Z,97545,-0.030473666,0.056768596,-0.05077483
1732438067369,2024-11-24T08:47:47.369Z,97564,-0.0163762,0.041142784,-0.010008686
1732438067374,2024-11-24T08:47:47.374Z,97569,-0.0163762,0.041142784,-0.010008686
1732438067391,2024-11-24T08:47:47.391Z,97586,0.0132640535,-0.04519563,0.051988482
1732438067397,2024-11-24T08:47:47.397Z,97592,0.0132640535,-0.04519563,0.051988482
1732438067417,2024-11-24T08:47:47.417Z,97612,0.02828659,-0.08659535,0.0115337735
1732438067423,2024-11-24T08:47:47.423Z,97618,0.02828659,-0.08659535,0.0115337735
1732438067445,2024-11-24T08:47:47.445Z,97640,0.0046905978,-0.08442006,-0.06408372
1732438067452,2024-11-24T08:47:47.452Z,97647,0.0046905978,-0.08442006,-0.06408372
1732438067479,2024-11-24T08:47:47.479Z,97674,-0.016776178,-0.08994388,-0.084293686
1732438067485,2024-11-24T08:47:47.485Z,97680,-0.016776178,-0.08994388,-0.084293686
1732438067493,2024-11-24T08:47:47.493Z,97688,0.010190151,-0.03456597,0.0551255
1732438067495,2024-11-24T08:47:47.495Z,97690,0.010190151,-0.03456597,0.0551255
1732438067503,2024-11-24T08:47:47.503Z,97698,0.02516749,-0.07630936,0.06410278
1732438067505,2024-11-24T08:47:47.505Z,97700,0.02516749,-0.07630936,0.06410278
1732438067513,2024-11-24T08:47:47.513Z,97708,0.015011157,-0.060207568,-0.002572591
1732438067515,2024-11-24T08:47:47.515Z,97710,0.015011157,-0.060207568,-0.002572591
1732438067523,2024-11-24T08:47:47.523Z,97718,-0.017965203,0.018894015,-0.0760289
1732438067525,2024-11-24T08:47:47.525Z,97720,-0.017965203,0.018894015,-0.0760289
1732438067532,2024-11-24T08:47:47.532Z,97727,-0.035870064,-0.006496342,-0.08812622
1732438067536,2024-11-24T08:47:47.536Z,97731,-0.035870064,-0.006496342,-0.08812622
1732438067545,2024-11-24T08:47:47.545Z,97740,-0.03436117,-0.05429559,-0.076166354
1732438067549,2024-11-24T08:47:47.549Z,97744,-0.03436117,-0.05429559,-0.076166354
1732438067559,2024-11-24T08:47:47.559Z,97754,0.06583661,-0.21189383,-0.058410574
1732438067564,2024-11-24T08:47:47.564Z,97759,0.06583661,-0.21189383,-0.058410574
1732438067584,2024-11-24T08:47:47.584Z,97779,0.06419139,-0.12775466,-0.05909982
1732438067589,2024-11-24T08:47:47.589Z,97784,0.06419139,-0.12775466,-0.05909982
1732438067608,2024-11-24T08:47:47.608Z,97803,7.1973033E-4,0.06583155,-0.09164829
1732438067614,2024-11-24T08:47:47.614Z,97809,7.1973033E-4,0.06583155,-0.09164829
1732438067631,2024-11-24T08:47:47.631Z,97826,-0.060969114,0.11923484,-0.08976567
1732438067636,2024-11-24T08:47:47.636Z,97831,-0.060969114,0.11923484,-0.08976567
1732438067645,2024-11-24T08:47:47.645Z,97840,0.077787034,-0.12138158,0.0031249095
1732438067647,2024-11-24T08:47:47.647Z,97842,0.077787034,-0.12138158,0.0031249095
1732438067655,2024-11-24T08:47:47.655Z,97850,0.10217416,-0.2085857,0.0035057315
1732438067657,2024-11-24T08:47:47.657Z,97852,0.10217416,-0.2085857,0.0035057315
1732438067665,2024-11-24T08:47:47.665Z,97860,0.06940988,-0.16914499,-0.0054562287
1732438067667,2024-11-24T08:47:47.667Z,97862,0.06940988,-0.16914499,-0.0054562287
1732438067677,2024-11-24T08:47:47.677Z,97872,0.005297642,-0.0037048948,-0.07126682
1732438067683,2024-11-24T08:47:47.683Z,97878,0.005297642,-0.0037048948,-0.07126682
1732438067700,2024-11-24T08:47:47.700Z,97895,-0.003952682,-0.021670388,-0.054074593
1732438067706,2024-11-24T08:47:47.706Z,97901,-0.003952682,-0.021670388,-0.054074593
1732438067725,2024-11-24T08:47:47.725Z,97920,0.025277331,-0.074412,-0.033034123
1732438067731,2024-11-24T08:47:47.731Z,97926,0.025277331,-0.074412,-0.033034123
1732438067751,2024-11-24T08:47:47.751Z,97946,0.032088682,-0.022875192,0.09171485
1732438067756,2024-11-24T08:47:47.756Z,97951,0.032088682,-0.022875192,0.09171485
1732438067773,2024-11-24T08:47:47.773Z,97968,0.052203935,-0.083919674,0.115559705
1732438067779,2024-11-24T08:47:47.779Z,97974,0.052203935,-0.083919674,0.115559705
1732438067798,2024-11-24T08:47:47.798Z,97993,0.048434734,-0.16151659,0.05137023
1732438067802,2024-11-24T08:47:47.802Z,97997,0.048434734,-0.16151659,0.05137023
1732438067817,2024-11-24T08:47:47.817Z,98012,-0.037151057,-0.16509297,-0.04406284
1732438067820,2024-11-24T08:47:47.820Z,98015,-0.037151057,-0.16509297,-0.04406284
1732438067830,2024-11-24T08:47:47.830Z,98025,-0.03820187,-0.093517095,-0.036078174
1732438067834,2024-11-24T08:47:47.834Z,98029,-0.03820187,-0.093517095,-0.036078174
1732438067844,2024-11-24T08:47:47.844Z,98039,-0.0041345595,-0.018851858,0.040287443
1732438067847,2024-11-24T08:47:47.847Z,98042,-0.0041345595,-0.018851858,0.040287443
1732438067859,2024-11-24T08:47:47.859Z,98054,0.0671893,-0.061549004,0.084210634
1732438067861,2024-11-24T08:47:47.861Z,98056,0.0671893,-0.061549004,0.084210634
1732438067871,2024-11-24T08:47:47.871Z,98066,0.0032635361,-0.16120593,-0.017726557
1732438067874,2024-11-24T08:47:47.874Z,98069,0.0032635361,-0.16120593,-0.017726557
1732438067882,2024-11-24T08:47:47.882Z,98077,-0.05140828,-0.20117718,-0.05953218
1732438067885,2024-11-24T08:47:47.885Z,98080,-0.05140828,-0.20117718,-0.05953218
1732438067893,2024-11-24T08:47:47.893Z,98088,-0.015983926,-0.071053945,-0.052301668
1732438067895,2024-11-24T08:47:47.895Z,98090,-0.015983926,-0.071053945,-0.052301668
1732438067906,2024-11-24T08:47:47.906Z,98101,-0.032581095,-0.036923643,0.039272565
1732438067911,2024-11-24T08:47:47.911Z,98106,-0.032581095,-0.036923643,0.039272565
1732438067927,2024-11-24T08:47:47.927Z,98122,0.009609096,-0.07437914,0.054455996
1732438067932,2024-11-24T08:47:47.932Z,98127,0.009609096,-0.07437914,0.054455996
1732438067945,2024-11-24T08:47:47.945Z,98140,0.0659338,-0.07100537,-0.061416697
1732438067948,2024-11-24T08:47:47.948Z,98143,0.0659338,-0.07100537,-0.061416697
1732438067958,2024-11-24T08:47:47.958Z,98153,-1.2720001E-4,-0.0040551326,-0.11646698
1732438067960,2024-11-24T08:47:47.960Z,98155,-1.2720001E-4,-0.0040551326,-0.11646698
1732438067971,2024-11-24T08:47:47.971Z,98166,-0.045849137,0.0016778149,-0.08961236
1732438067975,2024-11-24T08:47:47.975Z,98170,-0.045849137,0.0016778149,-0.08961236
1732438067992,2024-11-24T08:47:47.992Z,98187,-0.06577617,-0.07679696,-0.069427475
1732438067996,2024-11-24T08:47:47.996Z,98191,-0.06577617,-0.07679696,-0.069427475
1732438068011,2024-11-24T08:47:48.011Z,98206,0.041254546,-0.15069656,-0.08187752
1732438068017,2024-11-24T08:47:48.017Z,98212,0.041254546,-0.15069656,-0.08187752
1732438068035,2024-11-24T08:47:48.035Z,98230,-6.528239E-4,-0.03636622,-0.10971716
1732438068041,2024-11-24T08:47:48.041Z,98236,-6.528239E-4,-0.03636622,-0.10971716
1732438068051,2024-11-24T08:47:48.051Z,98246,-0.0046442105,0.09765222,-0.11007202
1732438068054,2024-11-24T08:47:48.054Z,98249,-0.0046442105,0.09765222,-0.11007202
1732438068063,2024-11-24T08:47:48.063Z,98258,0.04867343,0.07183139,-0.028448846
1732438068067,2024-11-24T08:47:48.067Z,98262,0.04867343,0.07183139,-0.028448846
1732438068076,2024-11-24T08:47:48.076Z,98271,0.061890684,-0.07140277,-0.034350958
1732438068080,2024-11-24T08:47:48.080Z,98275,0.061890684,-0.07140277,-0.034350958
1732438068089,2024-11-24T08:47:48.089Z,98284,-0.030512735,-0.2313457,-0.10114195
1732438068097,2024-11-24T08:47:48.097Z,98292,-0.030512735,-0.2313457,-0.10114195
1732438068106,2024-11-24T08:47:48.106Z,98301,0.026913693,-0.013571891,-0.13446753
1732438068109,2024-11-24T08:47:48.109Z,98304,0.026913693,-0.013571891,-0.13446753
1732438068119,2024-11-24T08:47:48.119Z,98314,0.042089734,0.16219154,-0.031788673
1732438068127,2024-11-24T08:47:48.127Z,98322,0.042089734,0.16219154,-0.031788673
1732438068142,2024-11-24T08:47:48.142Z,98337,0.0409427,0.2253989,0.069633834
1732438068145,2024-11-24T08:47:48.145Z,98340,0.0409427,0.2253989,0.069633834
1732438068154,2024-11-24T08:47:48.154Z,98349,0.058683842,-0.027818048,-0.0055039288
1732438068157,2024-11-24T08:47:48.157Z,98352,0.058683842,-0.027818048,-0.0055039288
1732438068165,2024-11-24T08:47:48.165Z,98360,0.040389795,-0.20389462,-0.059837736
1732438068168,2024-11-24T08:47:48.168Z,98363,0.040389795,-0.20389462,-0.059837736
1732438068176,2024-11-24T08:47:48.176Z,98371,-0.013922518,-0.24757382,-0.063294984
1732438068178,2024-11-24T08:47:48.178Z,98373,-0.013922518,-0.24757382,-0.063294984
1732438068186,2024-11-24T08:47:48.186Z,98381,-0.0030887332,-0.0061227647,0.018714447
1732438068189,2024-11-24T08:47:48.189Z,98384,-0.0030887332,-0.0061227647,0.018714447
1732438068196,2024-11-24T08:47:48.196Z,98391,0.052774683,0.025156962,0.016832218
1732438068198,2024-11-24T08:47:48.198Z,98393,0.052774683,0.025156962,0.016832218
1732438068206,2024-11-24T08:47:48.206Z,98401,0.07266634,0.04744283,-0.007865784
1732438068208,2024-11-24T08:47:48.208Z,98403,0.07266634,0.04744283,-0.007865784
1732438068216,2024-11-24T08:47:48.216Z,98411,-0.07760225,0.10297006,7.804129E-5
1732438068218,2024-11-24T08:47:48.218Z,98413,-0.07760225,0.10297006,7.804129E-5
1732438068225,2024-11-24T08:47:48.225Z,98420,-0.081849426,0.010118041,0.053628907
1732438068228,2024-11-24T08:47:48.228Z,98423,-0.081849426,0.010118041,0.053628907
1732438068236,2024-11-24T08:47:48.236Z,98431,-0.014826436,-0.15307559,0.12091586
1732438068238,2024-11-24T08:47:48.238Z,98433,-0.014826436,-0.15307559,0.12091586
1732438068247,2024-11-24T08:47:48.247Z,98442,0.05042656,-0.25115204,-0.049031615
1732438068250,2024-11-24T08:47:48.250Z,98445,0.05042656,-0.25115204,-0.049031615
1732438068257,2024-11-24T08:47:48.257Z,98452,-0.021366369,-0.09025648,-0.11575179
1732438068260,2024-11-24T08:47:48.260Z,98455,-0.021366369,-0.09025648,-0.11575179
1732438068266,2024-11-24T08:47:48.266Z,98461,-0.064160526,0.09449536,-0.15781155
1732438068269,2024-11-24T08:47:48.269Z,98464,-0.064160526,0.09449536,-0.15781155
1732438068276,2024-11-24T08:47:48.276Z,98471,-0.07152611,0.19801594,-0.15078618
1732438068279,2024-11-24T08:47:48.279Z,98474,-0.07152611,0.19801594,-0.15078618
1732438068288,2024-11-24T08:47:48.288Z,98483,-0.059355192,0.08391958,0.08403661
1732438068290,2024-11-24T08:47:48.290Z,98485,-0.059355192,0.08391958,0.08403661
1732438068298,2024-11-24T08:47:48.298Z,98493,0.019111972,-0.09656805,0.13983327
1732438068301,2024-11-24T08:47:48.301Z,98496,0.019111972,-0.09656805,0.13983327
1732438068307,2024-11-24T08:47:48.307Z,98502,0.05946603,-0.19733457,0.07020235
1732438068309,2024-11-24T08:47:48.309Z,98504,0.05946603,-0.19733457,0.07020235
1732438068316,2024-11-24T08:47:48.316Z,98511,-0.069637254,-0.094953254,-0.082041234
1732438068318,2024-11-24T08:47:48.318Z,98513,-0.069637254,-0.094953254,-0.082041234
1732438068325,2024-11-24T08:47:48.325Z,98520,-0.062716864,-0.012229775,-0.12504835
1732438068327,2024-11-24T08:47:48.327Z,98522,-0.062716864,-0.012229775,-0.12504835
1732438068336,2024-11-24T08:47:48.336Z,98531,-0.0132924495,0.03477199,-0.113769345
1732438068339,2024-11-24T08:47:48.339Z,98534,-0.0132924495,0.03477199,-0.113769345
1732438068346,2024-11-24T08:47:48.346Z,98541,-0.010445535,0.06306758,0.078909375
1732438068349,2024-11-24T08:47:48.349Z,98544,-0.010445535,0.06306758,0.078909375
1732438068357,2024-11-24T08:47:48.357Z,98552,0.03386293,-0.036184125,0.097210616
1732438068359,2024-11-24T08:47:48.359Z,98554,0.03386293,-0.036184125,0.097210616
1732438068365,2024-11-24T08:47:48.365Z,98560,0.08693972,-0.09775253,0.031542927
1732438068368,2024-11-24T08:47:48.368Z,98563,0.08693972,-0.09775253,0.031542927
1732438068375,2024-11-24T08:47:48.375Z,98570,-0.0035076642,-7.7273033E-4,-0.19736567
1732438068377,2024-11-24T08:47:48.377Z,98572,-0.0035076642,-7.7273033E-4,-0.19736567
1732438068384,2024-11-24T08:47:48.384Z,98579,-0.081925064,3.3511562E-4,-0.13149445
1732438068387,2024-11-24T08:47:48.387Z,98582,-0.081925064,3.3511562E-4,-0.13149445
1732438068395,2024-11-24T08:47:48.395Z,98590,-0.05940317,-0.052704662,-0.023946375
1732438068397,2024-11-24T08:47:48.397Z,98592,-0.05940317,-0.052704662,-0.023946375
1732438068405,2024-11-24T08:47:48.405Z,98600,0.039114125,0.025417343,0.03836471
1732438068407,2024-11-24T08:47:48.407Z,98602,0.039114125,0.025417343,0.03836471
1732438068416,2024-11-24T08:47:48.416Z,98611,0.014025661,0.052545276,0.02160567
1732438068419,2024-11-24T08:47:48.419Z,98614,0.014025661,0.052545276,0.02160567
1732438068427,2024-11-24T08:47:48.427Z,98622,-0.024629442,-0.0053169215,-0.043379433
1732438068429,2024-11-24T08:47:48.429Z,98624,-0.024629442,-0.0053169215,-0.043379433
1732438068436,2024-11-24T08:47:48.436Z,98631,-0.050616477,-0.17943847,-0.09217766
1732438068439,2024-11-24T08:47:48.439Z,98634,-0.050616477,-0.17943847,-0.09217766
1732438068446,2024-11-24T08:47:48.446Z,98641,-0.024985904,-0.1645654,-0.10073191
1732438068448,2024-11-24T08:47:48.448Z,98643,-0.024985904,-0.1645654,-0.10073191
1732438068455,2024-11-24T08:47:48.455Z,98650,-0.0053529884,-0.093652755,-0.06889357
1732438068457,2024-11-24T08:47:48.457Z,98652,-0.0053529884,-0.093652755,-0.06889357
1732438068464,2024-11-24T08:47:48.464Z,98659,-0.061211552,-0.012180082,0.021758933
1732438068466,2024-11-24T08:47:48.466Z,98661,-0.061211552,-0.012180082,0.021758933
1732438068476,2024-11-24T08:47:48.476Z,98671,-0.037837252,-0.13411091,-0.06618937
1732438068480,2024-11-24T08:47:48.480Z,98675,-0.037837252,-0.13411091,-0.06618937
1732438068494,2024-11-24T08:47:48.494Z,98689,-0.0065112817,-0.018950175,-0.11743804
1732438068499,2024-11-24T08:47:48.499Z,98694,-0.0065112817,-0.018950175,-0.11743804
1732438068513,2024-11-24T08:47:48.513Z,98708,0.03568381,0.08722556,-0.09898507
1732438068518,2024-11-24T08:47:48.518Z,98713,0.03568381,0.08722556,-0.09898507
1732438068534,2024-11-24T08:47:48.534Z,98729,-0.010389727,0.1707098,6.883193E-4
1732438068538,2024-11-24T08:47:48.538Z,98733,-0.010389727,0.1707098,6.883193E-4
1732438068556,2024-11-24T08:47:48.556Z,98751,0.009074925,0.071693644,-0.033970255
1732438068563,2024-11-24T08:47:48.563Z,98758,0.009074925,0.071693644,-0.033970255
1732438068581,2024-11-24T08:47:48.581Z,98776,0.058666494,-0.10023283,-0.051376745
1732438068587,2024-11-24T08:47:48.587Z,98782,0.058666494,-0.10023283,-0.051376745
1732438068606,2024-11-24T08:47:48.606Z,98801,0.018096486,0.04772529,-0.07143513
1732438068612,2024-11-24T08:47:48.612Z,98807,0.018096486,0.04772529,-0.07143513
1732438068636,2024-11-24T08:47:48.636Z,98831,0.019850593,0.17019211,-0.07315464
1732438068642,2024-11-24T08:47:48.642Z,98837,0.019850593,0.17019211,-0.07315464
1732438068660,2024-11-24T08:47:48.660Z,98855,-0.0204932,0.1711606,-0.066558234
1732438068665,2024-11-24T08:47:48.665Z,98860,-0.0204932,0.1711606,-0.066558234
1732438068676,2024-11-24T08:47:48.676Z,98871,-0.023451481,0.020470643,-0.09122052
1732438068679,2024-11-24T08:47:48.679Z,98874,-0.023451481,0.020470643,-0.09122052
1732438068689,2024-11-24T08:47:48.689Z,98884,-5.2042113E-4,-0.019734576,-0.08207326
1732438068692,2024-11-24T08:47:48.692Z,98887,-5.2042113E-4,-0.019734576,-0.08207326
1732438068700,2024-11-24T08:47:48.700Z,98895,0.011093436,-0.049404465,-0.070306376
1732438068703,2024-11-24T08:47:48.703Z,98898,0.011093436,-0.049404465,-0.070306376
1732438068712,2024-11-24T08:47:48.712Z,98907,-0.03162346,-0.028019886,-0.04674328
1732438068715,2024-11-24T08:47:48.715Z,98910,-0.03162346,-0.028019886,-0.04674328
1732438068723,2024-11-24T08:47:48.723Z,98918,0.027616953,-0.013962049,-0.015373235
1732438068726,2024-11-24T08:47:48.726Z,98921,0.027616953,-0.013962049,-0.015373235
1732438068733,2024-11-24T08:47:48.733Z,98928,0.02541504,-0.020311158,-0.004781184
1732438068736,2024-11-24T08:47:48.736Z,98931,0.02541504,-0.020311158,-0.004781184
1732438068744,2024-11-24T08:47:48.744Z,98939,-0.06869406,-0.05907147,-0.06444579
1732438068746,2024-11-24T08:47:48.746Z,98941,-0.06869406,-0.05907147,-0.06444579
1732438068754,2024-11-24T08:47:48.754Z,98949,-0.026188305,-0.04761219,-0.046036582
1732438068756,2024-11-24T08:47:48.756Z,98951,-0.026188305,-0.04761219,-0.046036582
1732438068763,2024-11-24T08:47:48.763Z,98958,-0.012123088,-0.0151681155,0.0022849324
1732438068765,2024-11-24T08:47:48.765Z,98960,-0.012123088,-0.0151681155,0.0022849324
1732438068773,2024-11-24T08:47:48.773Z,98968,-0.043780163,-0.07023541,0.031698138
1732438068775,2024-11-24T08:47:48.775Z,98970,-0.043780163,-0.07023541,0.031698138
1732438068782,2024-11-24T08:47:48.782Z,98977,-0.027387053,-0.087649755,0.017153889
1732438068785,2024-11-24T08:47:48.785Z,98980,-0.027387053,-0.087649755,0.017153889
1732438068792,2024-11-24T08:47:48.792Z,98987,0.021326978,-0.041802514,0.03285242
1732438068794,2024-11-24T08:47:48.794Z,98989,0.021326978,-0.041802514,0.03285242
1732438068802,2024-11-24T08:47:48.802Z,98997,0.04337543,-9.5594506E-4,-0.041606948
1732438068804,2024-11-24T08:47:48.804Z,98999,0.04337543,-9.5594506E-4,-0.041606948
1732438068812,2024-11-24T08:47:48.812Z,99007,-0.037571337,-0.016337033,-0.052663624
1732438068816,2024-11-24T08:47:48.816Z,99011,-0.037571337,-0.016337033,-0.052663624
1732438068824,2024-11-24T08:47:48.824Z,99019,-0.05061132,-0.036447275,-0.03874157
1732438068827,2024-11-24T08:47:48.827Z,99022,-0.05061132,-0.036447275,-0.03874157
1732438068833,2024-11-24T08:47:48.833Z,99028,0.003621675,-0.038101267,-0.00890529
1732438068835,2024-11-24T08:47:48.835Z,99030,0.003621675,-0.038101267,-0.00890529
1732438068842,2024-11-24T08:47:48.842Z,99037,-0.006872435,0.029044488,-0.04733175
1732438068844,2024-11-24T08:47:48.844Z,99039,-0.006872435,0.029044488,-0.04733175
1732438068851,2024-11-24T08:47:48.851Z,99046,0.045545626,0.12028239,-0.022112843
1732438068853,2024-11-24T08:47:48.853Z,99048,0.045545626,0.12028239,-0.022112843
1732438068860,2024-11-24T08:47:48.860Z,99055,0.05791303,0.12949952,-0.06023521
1732438068862,2024-11-24T08:47:48.862Z,99057,0.05791303,0.12949952,-0.06023521
1732438068869,2024-11-24T08:47:48.869Z,99064,-0.019765483,-0.081382915,-0.04117991
1732438068872,2024-11-24T08:47:48.872Z,99067,-0.019765483,-0.081382915,-0.04117991
1732438068878,2024-11-24T08:47:48.878Z,99073,-0.0020949892,-0.07735025,-0.003206087
1732438068880,2024-11-24T08:47:48.880Z,99075,-0.0020949892,-0.07735025,-0.003206087
1732438068890,2024-11-24T08:47:48.890Z,99085,-0.013416362,-0.04750366,0.024393301
1732438068893,2024-11-24T08:47:48.893Z,99088,-0.013416362,-0.04750366,0.024393301
1732438068900,2024-11-24T08:47:48.900Z,99095,-0.057627186,-0.063254096,0.0062324842
1732438068903,2024-11-24T08:47:48.903Z,99098,-0.057627186,-0.063254096,0.0062324842
1732438068911,2024-11-24T08:47:48.911Z,99106,0.0035031666,-0.06064241,-0.032792926
1732438068913,2024-11-24T08:47:48.913Z,99108,0.0035031666,-0.06064241,-0.032792926
1732438068922,2024-11-24T08:47:48.922Z,99117,0.04114928,-0.047405537,-0.085288994
1732438068924,2024-11-24T08:47:48.924Z,99119,0.04114928,-0.047405537,-0.085288994
1732438068938,2024-11-24T08:47:48.938Z,99133,-0.04659139,0.08768427,-0.057776496
1732438068943,2024-11-24T08:47:48.943Z,99138,-0.04659139,0.08768427,-0.057776496
1732438068956,2024-11-24T08:47:48.956Z,99151,-0.05290532,0.043121193,-0.032025497
1732438068959,2024-11-24T08:47:48.959Z,99154,-0.05290532,0.043121193,-0.032025497
1732438068965,2024-11-24T08:47:48.965Z,99160,-0.026331365,-0.07590544,-0.050486226
1732438068968,2024-11-24T08:47:48.968Z,99163,-0.026331365,-0.07590544,-0.050486226
1732438068977,2024-11-24T08:47:48.977Z,99172,0.03948564,-0.0014737891,-0.12065118
1732438068980,2024-11-24T08:47:48.980Z,99175,0.03948564,-0.0014737891,-0.12065118
1732438068988,2024-11-24T08:47:48.988Z,99183,0.04293869,0.0875139,-0.09552451
1732438068991,2024-11-24T08:47:48.991Z,99186,0.04293869,0.0875139,-0.09552451
1732438069022,2024-11-24T08:47:49.022Z,99217,0.029417494,0.064388394,-0.0052690757
1732438069024,2024-11-24T08:47:49.024Z,99219,0.029417494,0.064388394,-0.0052690757
1732438069032,2024-11-24T08:47:49.032Z,99227,0.014359288,-0.011556724,-0.041770056
1732438069035,2024-11-24T08:47:49.035Z,99230,0.014359288,-0.011556724,-0.041770056
1732438069042,2024-11-24T08:47:49.042Z,99237,0.01713131,-0.03408406,-0.03882321
1732438069044,2024-11-24T08:47:49.044Z,99239,0.01713131,-0.03408406,-0.03882321
1732438069053,2024-11-24T08:47:49.053Z,99248,-0.00790227,-0.02882111,-0.053078752
1732438069056,2024-11-24T08:47:49.056Z,99251,-0.00790227,-0.02882111,-0.053078752
1732438069068,2024-11-24T08:47:49.068Z,99263,0.007934593,0.050965972,-0.07494349
1732438069071,2024-11-24T08:47:49.071Z,99266,0.007934593,0.050965972,-0.07494349
1732438069078,2024-11-24T08:47:49.078Z,99273,-0.058828812,-0.028504375,-0.081019476
1732438069080,2024-11-24T08:47:49.080Z,99275,-0.058828812,-0.028504375,-0.081019476
1732438069088,2024-11-24T08:47:49.088Z,99283,-0.06555476,-0.10056124,-0.096687496
1732438069090,2024-11-24T08:47:49.090Z,99285,-0.06555476,-0.10056124,-0.096687496
1732438069112,2024-11-24T08:47:49.112Z,99307,-0.026044825,-0.15406314,-0.027450185
1732438069115,2024-11-24T08:47:49.115Z,99310,-0.026044825,-0.15406314,-0.027450185
1732438069122,2024-11-24T08:47:49.122Z,99317,-0.09736398,-0.17064582,-0.014786053
1732438069125,2024-11-24T08:47:49.125Z,99320,-0.09736398,-0.17064582,-0.014786053
1732438069131,2024-11-24T08:47:49.131Z,99326,-0.15503313,-0.22918195,-0.026415592
1732438069133,2024-11-24T08:47:49.133Z,99328,-0.15503313,-0.22918195,-0.026415592
1732438069159,2024-11-24T08:47:49.159Z,99354,0.1407607,0.047628623,-0.051913723
1732438069162,2024-11-24T08:47:49.162Z,99357,0.1407607,0.047628623,-0.051913723
1732438069170,2024-11-24T08:47:49.170Z,99365,0.07176005,0.14534906,0.022477472
1732438069173,2024-11-24T08:47:49.173Z,99368,0.07176005,0.14534906,0.022477472
1732438069201,2024-11-24T08:47:49.201Z,99396,-0.013281035,0.1232643,0.030761106
1732438069204,2024-11-24T08:47:49.204Z,99399,-0.013281035,0.1232643,0.030761106
1732438069213,2024-11-24T08:47:49.213Z,99408,0.03996037,-0.0080772005,-0.01305784
1732438069216,2024-11-24T08:47:49.216Z,99411,0.03996037,-0.0080772005,-0.01305784
1732438069226,2024-11-24T08:47:49.226Z,99421,0.057618722,-0.022552134,-0.042755954
1732438069228,2024-11-24T08:47:49.228Z,99423,0.057618722,-0.022552134,-0.042755954
1732438069252,2024-11-24T08:47:49.252Z,99447,0.012148549,-0.0067894463,-0.021744102
1732438069259,2024-11-24T08:47:49.259Z,99454,0.012148549,-0.0067894463,-0.021744102
1732438069279,2024-11-24T08:47:49.279Z,99474,0.058048952,0.076243475,-0.01616899
1732438069285,2024-11-24T08:47:49.285Z,99480,0.058048952,0.076243475,-0.01616899
1732438069305,2024-11-24T08:47:49.305Z,99500,0.04835012,0.06626975,-0.05092
1732438069311,2024-11-24T08:47:49.311Z,99506,0.04835012,0.06626975,-0.05092
1732438069325,2024-11-24T08:47:49.325Z,99520,-0.0083862115,0.029484631,-0.06646434
1732438069328,2024-11-24T08:47:49.328Z,99523,-0.0083862115,0.029484631,-0.06646434
1732438069339,2024-11-24T08:47:49.339Z,99534,-0.009584777,-0.023096526,-0.05576906
1732438069342,2024-11-24T08:47:49.342Z,99537,-0.009584777,-0.023096526,-0.05576906
1732438069350,2024-11-24T08:47:49.350Z,99545,0.005623124,-0.053134497,-0.01983795
1732438069353,2024-11-24T08:47:49.353Z,99548,0.005623124,-0.053134497,-0.01983795
1732438069361,2024-11-24T08:47:49.361Z,99556,-0.015425846,-0.084534034,-6.6480966E-4
1732438069363,2024-11-24T08:47:49.363Z,99558,-0.015425846,-0.084534034,-6.6480966E-4
1732438069371,2024-11-24T08:47:49.371Z,99566,-0.023657698,0.061329465,-0.056660067
1732438069373,2024-11-24T08:47:49.373Z,99568,-0.023657698,0.061329465,-0.056660067
1732438069380,2024-11-24T08:47:49.380Z,99575,-0.025943331,0.057444807,-0.050663557
1732438069383,2024-11-24T08:47:49.383Z,99578,-0.025943331,0.057444807,-0.050663557
1732438069391,2024-11-24T08:47:49.391Z,99586,-0.02618085,-0.011784478,-0.063859925
1732438069393,2024-11-24T08:47:49.393Z,99588,-0.02618085,-0.011784478,-0.063859925
1732438069400,2024-11-24T08:47:49.400Z,99595,-0.020308897,-0.06802507,-0.025480725
1732438069402,2024-11-24T08:47:49.402Z,99597,-0.020308897,-0.06802507,-0.025480725
1732438069409,2024-11-24T08:47:49.409Z,99604,-0.019795472,-0.08963234,0.022345336
1732438069410,2024-11-24T08:47:49.410Z,99605,-0.019795472,-0.08963234,0.022345336
1732438069429,2024-11-24T08:47:49.429Z,99624,-0.030183828,-0.12676647,0.02997848
1732438069435,2024-11-24T08:47:49.435Z,99630,-0.030183828,-0.12676647,0.02997848
1732438069449,2024-11-24T08:47:49.449Z,99644,0.029369703,0.044071108,-0.040859576
1732438069452,2024-11-24T08:47:49.452Z,99647,0.029369703,0.044071108,-0.040859576
1732438069463,2024-11-24T08:47:49.463Z,99658,-0.003682528,0.1286277,-0.044034787
1732438069467,2024-11-24T08:47:49.467Z,99662,-0.003682528,0.1286277,-0.044034787
1732438069483,2024-11-24T08:47:49.483Z,99678,-0.03622018,0.10403775,-0.03420314
1732438069489,2024-11-24T08:47:49.489Z,99684,-0.03622018,0.10403775,-0.03420314
1732438069506,2024-11-24T08:47:49.506Z,99701,-0.02400978,-0.09227904,0.02223581
1732438069511,2024-11-24T08:47:49.511Z,99706,-0.02400978,-0.09227904,0.02223581
1732438069526,2024-11-24T08:47:49.526Z,99721,-0.016309919,-0.15058604,0.024801936
1732438069529,2024-11-24T08:47:49.529Z,99724,-0.016309919,-0.15058604,0.024801936
1732438069539,2024-11-24T08:47:49.539Z,99734,-0.017099345,-0.20498583,0.051382314
1732438069542,2024-11-24T08:47:49.542Z,99737,-0.017099345,-0.20498583,0.051382314
1732438069552,2024-11-24T08:47:49.552Z,99747,0.009295574,-0.03620805,-0.0040667537
1732438069555,2024-11-24T08:47:49.555Z,99750,0.009295574,-0.03620805,-0.0040667537
1732438069564,2024-11-24T08:47:49.564Z,99759,0.07647385,0.15657033,-0.03130761
1732438069568,2024-11-24T08:47:49.568Z,99763,0.07647385,0.15657033,-0.03130761
1732438069578,2024-11-24T08:47:49.578Z,99773,0.063176684,0.171853,-9.000519E-4
1732438069580,2024-11-24T08:47:49.580Z,99775,0.063176684,0.171853,-9.000519E-4
1732438069589,2024-11-24T08:47:49.589Z,99784,0.0090027675,0.028559223,-0.046033446
1732438069592,2024-11-24T08:47:49.592Z,99787,0.0090027675,0.028559223,-0.046033446
1732438069602,2024-11-24T08:47:49.602Z,99797,0.022576896,0.066297464,-0.04590187
1732438069608,2024-11-24T08:47:49.608Z,99803,0.022576896,0.066297464,-0.04590187
1732438069626,2024-11-24T08:47:49.626Z,99821,0.01802851,0.105989605,-0.02897802
1732438069631,2024-11-24T08:47:49.631Z,99826,0.01802851,0.105989605,-0.02897802
1732438069649,2024-11-24T08:47:49.649Z,99844,-0.01885246,0.10102589,-0.049752854
1732438069655,2024-11-24T08:47:49.655Z,99850,-0.01885246,0.10102589,-0.049752854
1732438069673,2024-11-24T08:47:49.673Z,99868,9.131682E-4,-0.013756662,-0.09481232
1732438069679,2024-11-24T08:47:49.679Z,99874,9.131682E-4,-0.013756662,-0.09481232
1732438069696,2024-11-24T08:47:49.696Z,99891,0.04074124,-0.12312718,-0.10556638
1732438069702,2024-11-24T08:47:49.702Z,99897,0.04074124,-0.12312718,-0.10556638
1732438069719,2024-11-24T08:47:49.719Z,99914,-0.058065843,0.18121806,-0.099116065
1732438069723,2024-11-24T08:47:49.723Z,99918,-0.058065843,0.18121806,-0.099116065
1732438069735,2024-11-24T08:47:49.735Z,99930,-0.051771395,0.25816897,-0.09835529
1732438069739,2024-11-24T08:47:49.739Z,99934,-0.051771395,0.25816897,-0.09835529
1732438069750,2024-11-24T08:47:49.750Z,99945,-0.06933097,0.18350017,-0.08303589
1732438069754,2024-11-24T08:47:49.754Z,99949,-0.06933097,0.18350017,-0.08303589
1732438069768,2024-11-24T08:47:49.768Z,99963,-0.021032196,-0.16065332,-0.109100305
1732438069775,2024-11-24T08:47:49.775Z,99970,-0.021032196,-0.16065332,-0.109100305
1732438069797,2024-11-24T08:47:49.797Z,99992,0.014687201,-0.1319704,-0.111572
1732438069804,2024-11-24T08:47:49.804Z,99999,0.014687201,-0.1319704,-0.111572
1732438069823,2024-11-24T08:47:49.823Z,100018,0.004417672,0.01938857,-0.12199056
1732438069828,2024-11-24T08:47:49.828Z,100023,0.004417672,0.01938857,-0.12199056
1732438069845,2024-11-24T08:47:49.845Z,100040,-0.085051365,0.27157617,-0.11184905
1732438069847,2024-11-24T08:47:49.847Z,100042,-0.085051365,0.27157617,-0.11184905
1732438069856,2024-11-24T08:47:49.856Z,100051,-0.09776507,0.20055139,-0.091214955
1732438069859,2024-11-24T08:47:49.859Z,100054,-0.09776507,0.20055139,-0.091214955
1732438069867,2024-11-24T08:47:49.867Z,100062,-0.047357753,-0.00527812,-0.08633453
1732438069870,2024-11-24T08:47:49.870Z,100065,-0.047357753,-0.00527812,-0.08633453
1732438069877,2024-11-24T08:47:49.877Z,100072,-0.0022404902,-0.017943565,-0.09321964
1732438069879,2024-11-24T08:47:49.879Z,100074,-0.0022404902,-0.017943565,-0.09321964
1732438069886,2024-11-24T08:47:49.886Z,100081,-0.021404928,0.085658215,-0.1196422
1732438069889,2024-11-24T08:47:49.889Z,100084,-0.021404928,0.085658215,-0.1196422
1732438069895,2024-11-24T08:47:49.895Z,100090,-0.028386839,0.038099613,-0.055140767
1732438069897,2024-11-24T08:47:49.897Z,100092,-0.028386839,0.038099613,-0.055140767
1732438069905,2024-11-24T08:47:49.905Z,100100,0.008194275,-0.10303969,-0.039891377
1732438069907,2024-11-24T08:47:49.907Z,100102,0.008194275,-0.10303969,-0.039891377
1732438069914,2024-11-24T08:47:49.914Z,100109,0.040528752,-0.14123169,-0.05765321
1732438069916,2024-11-24T08:47:49.916Z,100111,0.040528752,-0.14123169,-0.05765321
1732438069923,2024-11-24T08:47:49.923Z,100118,-0.0013849412,0.07611151,-0.086938724
1732438069925,2024-11-24T08:47:49.925Z,100120,-0.0013849412,0.07611151,-0.086938724
1732438069931,2024-11-24T08:47:49.931Z,100126,-0.0344112,0.107946426,-0.10141213
1732438069933,2024-11-24T08:47:49.933Z,100128,-0.0344112,0.107946426,-0.10141213
1732438069940,2024-11-24T08:47:49.940Z,100135,-0.04267129,0.07970802,-0.0645798
1732438069943,2024-11-24T08:47:49.943Z,100138,-0.04267129,0.07970802,-0.0645798
1732438069951,2024-11-24T08:47:49.951Z,100146,-0.012570786,-0.103072464,-0.01758832
1732438069954,2024-11-24T08:47:49.954Z,100149,-0.012570786,-0.103072464,-0.01758832
1732438069961,2024-11-24T08:47:49.961Z,100156,0.04539098,-0.16408528,-0.007168761
1732438069963,2024-11-24T08:47:49.963Z,100158,0.04539098,-0.16408528,-0.007168761
1732438069972,2024-11-24T08:47:49.972Z,100167,0.047558993,-0.13641423,-0.024083566
1732438069974,2024-11-24T08:47:49.974Z,100169,0.047558993,-0.13641423,-0.024083566
1732438069984,2024-11-24T08:47:49.984Z,100179,-0.025660438,0.12941891,-0.025970148
1732438069988,2024-11-24T08:47:49.988Z,100183,-0.025660438,0.12941891,-0.025970148
1732438070001,2024-11-24T08:47:50.001Z,100196,-0.036642976,0.13424249,-0.031286705
1732438070006,2024-11-24T08:47:50.006Z,100201,-0.036642976,0.13424249,-0.031286705
1732438070020,2024-11-24T08:47:50.020Z,100215,-0.07403694,0.07144624,-0.030707207
1732438070025,2024-11-24T08:47:50.025Z,100220,-0.07403694,0.07144624,-0.030707207
1732438070041,2024-11-24T08:47:50.041Z,100236,0.018858265,-0.06030681,-0.021819372
1732438070046,2024-11-24T08:47:50.046Z,100241,0.018858265,-0.06030681,-0.021819372
1732438070063,2024-11-24T08:47:50.063Z,100258,0.028556403,-0.07376385,-0.017161135
1732438070069,2024-11-24T08:47:50.069Z,100264,0.028556403,-0.07376385,-0.017161135
1732438070087,2024-11-24T08:47:50.087Z,100282,0.020251691,-0.037518267,-0.0187038
1732438070092,2024-11-24T08:47:50.092Z,100287,0.020251691,-0.037518267,-0.0187038
1732438070109,2024-11-24T08:47:50.109Z,100304,-0.030145466,0.09646788,-0.023184536
1732438070112,2024-11-24T08:47:50.112Z,100307,-0.030145466,0.09646788,-0.023184536
1732438070122,2024-11-24T08:47:50.122Z,100317,-0.032490484,0.102003515,-0.025499906
1732438070126,2024-11-24T08:47:50.126Z,100321,-0.032490484,0.102003515,-0.025499906
1732438070135,2024-11-24T08:47:50.135Z,100330,-0.022860616,0.018836688,-0.029902773
1732438070139,2024-11-24T08:47:50.139Z,100334,-0.022860616,0.018836688,-0.029902773
1732438070154,2024-11-24T08:47:50.154Z,100349,0.010571896,-0.04834631,-0.021407966
1732438070159,2024-11-24T08:47:50.159Z,100354,0.010571896,-0.04834631,-0.021407966
1732438070179,2024-11-24T08:47:50.179Z,100374,-0.026728425,0.021522379,-0.07201451
1732438070185,2024-11-24T08:47:50.185Z,100380,-0.026728425,0.021522379,-0.07201451
1732438070203,2024-11-24T08:47:50.203Z,100398,-0.048548028,0.061674304,-0.06909214
1732438070209,2024-11-24T08:47:50.209Z,100404,-0.048548028,0.061674304,-0.06909214
1732438070226,2024-11-24T08:47:50.226Z,100421,-0.011925767,0.02203001,-0.05372236
1732438070231,2024-11-24T08:47:50.231Z,100426,-0.011925767,0.02203001,-0.05372236
1732438070247,2024-11-24T08:47:50.247Z,100442,-0.007977339,-0.02997797,0.0048597115
1732438070250,2024-11-24T08:47:50.250Z,100445,-0.007977339,-0.02997797,0.0048597115
1732438070262,2024-11-24T08:47:50.262Z,100457,-0.006903117,-0.07277844,0.029026886
1732438070266,2024-11-24T08:47:50.266Z,100461,-0.006903117,-0.07277844,0.029026886
1732438070277,2024-11-24T08:47:50.277Z,100472,0.04611625,-0.040646337,-0.017060628
1732438070281,2024-11-24T08:47:50.281Z,100476,0.04611625,-0.040646337,-0.017060628
1732438070292,2024-11-24T08:47:50.292Z,100487,0.031823926,0.06690847,-0.05187616
1732438070295,2024-11-24T08:47:50.295Z,100490,0.031823926,0.06690847,-0.05187616
1732438070306,2024-11-24T08:47:50.306Z,100501,-0.05742993,0.12372623,-0.07742178
1732438070309,2024-11-24T08:47:50.309Z,100504,-0.05742993,0.12372623,-0.07742178
1732438070318,2024-11-24T08:47:50.318Z,100513,-0.0842494,0.06819885,-0.051909275
1732438070320,2024-11-24T08:47:50.320Z,100515,-0.0842494,0.06819885,-0.051909275
1732438070329,2024-11-24T08:47:50.329Z,100524,-0.0054008462,0.01876064,-0.026522443
1732438070331,2024-11-24T08:47:50.331Z,100526,-0.0054008462,0.01876064,-0.026522443
1732438070339,2024-11-24T08:47:50.339Z,100534,0.030482247,-0.04033252,0.013845862
1732438070341,2024-11-24T08:47:50.341Z,100536,0.030482247,-0.04033252,0.013845862
1732438070347,2024-11-24T08:47:50.347Z,100542,-0.021729054,0.033048276,-0.06620943
1732438070349,2024-11-24T08:47:50.349Z,100544,-0.021729054,0.033048276,-0.06620943
1732438070356,2024-11-24T08:47:50.356Z,100551,-0.054299537,0.058027517,-0.107372
1732438070358,2024-11-24T08:47:50.358Z,100553,-0.054299537,0.058027517,-0.107372
1732438070365,2024-11-24T08:47:50.365Z,100560,-0.035609525,0.052792188,-0.13077073
1732438070367,2024-11-24T08:47:50.367Z,100562,-0.035609525,0.052792188,-0.13077073
1732438070376,2024-11-24T08:47:50.376Z,100571,-0.018658774,0.0036836462,-0.033271506
1732438070379,2024-11-24T08:47:50.379Z,100574,-0.018658774,0.0036836462,-0.033271506
1732438070390,2024-11-24T08:47:50.390Z,100585,-0.05366637,0.019364743,-0.043232176
1732438070392,2024-11-24T08:47:50.392Z,100587,-0.05366637,0.019364743,-0.043232176
1732438070398,2024-11-24T08:47:50.398Z,100593,-0.075106405,0.017092064,-0.058643166
1732438070400,2024-11-24T08:47:50.400Z,100595,-0.075106405,0.017092064,-0.058643166
1732438070407,2024-11-24T08:47:50.407Z,100602,-0.020035388,0.033484332,-0.028315252
1732438070409,2024-11-24T08:47:50.409Z,100604,-0.020035388,0.033484332,-0.028315252
1732438070415,2024-11-24T08:47:50.415Z,100610,-0.040755656,0.042350408,-0.0615906
1732438070417,2024-11-24T08:47:50.417Z,100612,-0.040755656,0.042350408,-0.0615906
1732438070424,2024-11-24T08:47:50.424Z,100619,-0.07262158,0.042015973,-0.10446437
1732438070426,2024-11-24T08:47:50.426Z,100621,-0.07262158,0.042015973,-0.10446437
1732438070432,2024-11-24T08:47:50.432Z,100627,-0.025612324,0.04443365,-0.11902031
1732438070434,2024-11-24T08:47:50.434Z,100629,-0.025612324,0.04443365,-0.11902031
1732438070440,2024-11-24T08:47:50.440Z,100635,-0.034996208,0.02533264,-0.11081156
1732438070442,2024-11-24T08:47:50.442Z,100637,-0.034996208,0.02533264,-0.11081156
1732438070460,2024-11-24T08:47:50.460Z,100655,-0.036006782,0.043752138,-0.07797456
1732438070463,2024-11-24T08:47:50.463Z,100658,-0.036006782,0.043752138,-0.07797456
1732438070470,2024-11-24T08:47:50.470Z,100665,-0.004077159,0.017609617,-0.05871073
1732438070472,2024-11-24T08:47:50.472Z,100667,-0.004077159,0.017609617,-0.05871073
1732438070478,2024-11-24T08:47:50.478Z,100673,-0.00314397,0.0023960865,-0.05778148
1732438070480,2024-11-24T08:47:50.480Z,100675,-0.00314397,0.0023960865,-0.05778148
1732438070486,2024-11-24T08:47:50.486Z,100681,-0.048605017,0.045719847,-0.06970245
1732438070488,2024-11-24T08:47:50.488Z,100683,-0.048605017,0.045719847,-0.06970245
1732438070507,2024-11-24T08:47:50.507Z,100702,0.03945549,0.05703102,-0.07283392
1732438070509,2024-11-24T08:47:50.509Z,100704,0.03945549,0.05703102,-0.07283392
1732438070516,2024-11-24T08:47:50.516Z,100711,-0.0318253,0.027603278,-0.06738097
1732438070518,2024-11-24T08:47:50.518Z,100713,-0.0318253,0.027603278,-0.06738097
1732438070526,2024-11-24T08:47:50.526Z,100721,-0.042574443,0.1001844,-0.08887904
1732438070528,2024-11-24T08:47:50.528Z,100723,-0.042574443,0.1001844,-0.08887904
1732438070552,2024-11-24T08:47:50.552Z,100747,-0.111905076,0.060311478,-0.007299535
1732438070555,2024-11-24T08:47:50.555Z,100750,-0.111905076,0.060311478,-0.007299535
1732438070563,2024-11-24T08:47:50.563Z,100758,-0.09892613,0.049707685,0.013174197
1732438070566,2024-11-24T08:47:50.566Z,100761,-0.09892613,0.049707685,0.013174197
1732438070574,2024-11-24T08:47:50.574Z,100769,-0.014720703,0.026926627,0.025178965
1732438070576,2024-11-24T08:47:50.576Z,100771,-0.014720703,0.026926627,0.025178965
1732438070598,2024-11-24T08:47:50.598Z,100793,-0.14132057,0.15921877,-0.06261435
1732438070601,2024-11-24T08:47:50.601Z,100796,-0.14132057,0.15921877,-0.06261435
1732438070610,2024-11-24T08:47:50.610Z,100805,-0.14245108,0.1880747,-0.08494408
1732438070613,2024-11-24T08:47:50.613Z,100808,-0.14245108,0.1880747,-0.08494408
1732438070620,2024-11-24T08:47:50.620Z,100815,-0.10321442,0.17126961,-0.060074847
1732438070623,2024-11-24T08:47:50.623Z,100818,-0.10321442,0.17126961,-0.060074847
1732438070644,2024-11-24T08:47:50.644Z,100839,0.029349895,0.12385936,0.0023514254
1732438070647,2024-11-24T08:47:50.647Z,100842,0.029349895,0.12385936,0.0023514254
1732438070655,2024-11-24T08:47:50.655Z,100850,0.040031668,0.106351465,-0.024699995
1732438070658,2024-11-24T08:47:50.658Z,100853,0.040031668,0.106351465,-0.024699995
1732438070685,2024-11-24T08:47:50.685Z,100880,-0.022793066,0.08553219,-0.03440427
1732438070688,2024-11-24T08:47:50.688Z,100883,-0.022793066,0.08553219,-0.03440427
1732438070736,2024-11-24T08:47:50.736Z,100931,-0.07424783,0.13878357,-0.10286409
1732438070739,2024-11-24T08:47:50.739Z,100934,-0.07424783,0.13878357,-0.10286409
1732438070749,2024-11-24T08:47:50.749Z,100944,-0.04669056,0.20013458,-0.16685799
1732438070752,2024-11-24T08:47:50.752Z,100947,-0.04669056,0.20013458,-0.16685799
1732438070762,2024-11-24T08:47:50.762Z,100957,-0.057321828,0.21429244,-0.17286183
1732438070765,2024-11-24T08:47:50.765Z,100960,-0.057321828,0.21429244,-0.17286183
1732438070778,2024-11-24T08:47:50.778Z,100973,-7.849228E-4,0.1243243,-0.15708074
1732438070782,2024-11-24T08:47:50.782Z,100977,-7.849228E-4,0.1243243,-0.15708074
1732438070791,2024-11-24T08:47:50.791Z,100986,0.014499087,0.16648988,-0.1879027
1732438070794,2024-11-24T08:47:50.794Z,100989,0.014499087,0.16648988,-0.1879027
1732438070803,2024-11-24T08:47:50.803Z,100998,-0.012585179,0.18856628,-0.18961693
1732438070806,2024-11-24T08:47:50.806Z,101001,-0.012585179,0.18856628,-0.18961693
1732438070822,2024-11-24T08:47:50.822Z,101017,-0.07553826,0.1265925,-0.24314685
1732438070825,2024-11-24T08:47:50.825Z,101020,-0.07553826,0.1265925,-0.24314685
1732438070832,2024-11-24T08:47:50.832Z,101027,-0.050958812,-0.033434443,-0.16752402
1732438070835,2024-11-24T08:47:50.835Z,101030,-0.050958812,-0.033434443,-0.16752402
1732438070843,2024-11-24T08:47:50.843Z,101038,-0.016364517,0.034391556,-0.1741315
1732438070846,2024-11-24T08:47:50.846Z,101041,-0.016364517,0.034391556,-0.1741315
1732438070872,2024-11-24T08:47:50.872Z,101067,-0.02579515,0.15372802,-0.099392146
1732438070878,2024-11-24T08:47:50.878Z,101073,-0.02579515,0.15372802,-0.099392146
1732438070920,2024-11-24T08:47:50.920Z,101115,0.016681254,0.09602181,-0.027839638
1732438070925,2024-11-24T08:47:50.925Z,101120,0.016681254,0.09602181,-0.027839638
1732438070943,2024-11-24T08:47:50.943Z,101138,0.014648083,0.07894268,-0.04018509
1732438070947,2024-11-24T08:47:50.947Z,101142,0.014648083,0.07894268,-0.04018509
1732438070959,2024-11-24T08:47:50.959Z,101154,-0.020823555,0.08478649,-0.09119317
1732438070963,2024-11-24T08:47:50.963Z,101158,-0.020823555,0.08478649,-0.09119317
1732438070973,2024-11-24T08:47:50.973Z,101168,0.0068337126,0.08527623,-0.022330774
1732438070977,2024-11-24T08:47:50.977Z,101172,0.0068337126,0.08527623,-0.022330774
1732438070987,2024-11-24T08:47:50.987Z,101182,0.033858664,0.032696918,0.011171794
1732438070991,2024-11-24T08:47:50.991Z,101186,0.033858664,0.032696918,0.011171794
1732438071001,2024-11-24T08:47:51.001Z,101196,-0.020073986,0.078511775,-0.019650482
1732438071004,2024-11-24T08:47:51.004Z,101199,-0.020073986,0.078511775,-0.019650482
1732438071015,2024-11-24T08:47:51.015Z,101210,0.059378374,-0.0027480258,-0.051984813
1732438071017,2024-11-24T08:47:51.017Z,101212,0.059378374,-0.0027480258,-0.051984813
1732438071027,2024-11-24T08:47:51.027Z,101222,0.020017046,0.087927885,-0.060287457
1732438071029,2024-11-24T08:47:51.029Z,101224,0.020017046,0.087927885,-0.060287457
1732438071037,2024-11-24T08:47:51.037Z,101232,0.024115643,0.18820015,-0.04518017
1732438071040,2024-11-24T08:47:51.040Z,101235,0.024115643,0.18820015,-0.04518017
1732438071048,2024-11-24T08:47:51.048Z,101243,0.04166567,0.023273906,-0.1085629
1732438071050,2024-11-24T08:47:51.050Z,101245,0.04166567,0.023273906,-0.1085629
1732438071058,2024-11-24T08:47:51.058Z,101253,0.006696441,0.11529028,-0.109086454
1732438071061,2024-11-24T08:47:51.061Z,101256,0.006696441,0.11529028,-0.109086454
1732438071091,2024-11-24T08:47:51.091Z,101286,0.02892206,0.2096421,-0.10895017
1732438071093,2024-11-24T08:47:51.093Z,101288,0.02892206,0.2096421,-0.10895017
1732438071100,2024-11-24T08:47:51.100Z,101295,-0.014076432,0.12695116,-0.072471455
1732438071102,2024-11-24T08:47:51.102Z,101297,-0.014076432,0.12695116,-0.072471455
1732438071108,2024-11-24T08:47:51.108Z,101303,-0.019930396,0.11419838,-0.036015205
1732438071111,2024-11-24T08:47:51.111Z,101306,-0.019930396,0.11419838,-0.036015205
1732438071118,2024-11-24T08:47:51.118Z,101313,-0.004941573,0.08976596,-0.030187272
1732438071120,2024-11-24T08:47:51.120Z,101315,-0.004941573,0.08976596,-0.030187272
1732438071139,2024-11-24T08:47:51.139Z,101334,-0.011292061,-0.022317378,0.0033538307
1732438071142,2024-11-24T08:47:51.142Z,101337,-0.011292061,-0.022317378,0.0033538307
1732438071187,2024-11-24T08:47:51.187Z,101382,-0.027138148,-0.15645377,-0.009798315
1732438071191,2024-11-24T08:47:51.191Z,101386,-0.027138148,-0.15645377,-0.009798315
1732438071201,2024-11-24T08:47:51.201Z,101396,-0.072731346,-0.16780978,-0.027131772
1732438071204,2024-11-24T08:47:51.204Z,101399,-0.072731346,-0.16780978,-0.027131772
1732438071215,2024-11-24T08:47:51.215Z,101410,0.118705556,0.08999897,-0.06428677
1732438071218,2024-11-24T08:47:51.218Z,101413,0.118705556,0.08999897,-0.06428677
1732438071232,2024-11-24T08:47:51.232Z,101427,0.11485337,0.26646015,-0.046689212
1732438071241,2024-11-24T08:47:51.241Z,101436,0.11485337,0.26646015,-0.046689212
1732438071262,2024-11-24T08:47:51.262Z,101457,0.014934875,0.27132758,0.020187557
1732438071267,2024-11-24T08:47:51.267Z,101462,0.014934875,0.27132758,0.020187557
1732438071287,2024-11-24T08:47:51.287Z,101482,0.063496865,-0.35466933,-0.02363472
1732438071292,2024-11-24T08:47:51.292Z,101487,0.063496865,-0.35466933,-0.02363472
1732438071312,2024-11-24T08:47:51.312Z,101507,0.077496774,-0.20172842,-0.041095376
1732438071318,2024-11-24T08:47:51.318Z,101513,0.077496774,-0.20172842,-0.041095376
1732438071335,2024-11-24T08:47:51.335Z,101530,-0.025852907,0.122440904,0.002990343
1732438071338,2024-11-24T08:47:51.338Z,101533,-0.025852907,0.122440904,0.002990343
1732438071350,2024-11-24T08:47:51.350Z,101545,-0.019237343,0.012302322,0.08060401
1732438071353,2024-11-24T08:47:51.353Z,101548,-0.019237343,0.012302322,0.08060401
1732438071364,2024-11-24T08:47:51.364Z,101559,0.014921555,-0.09837326,0.07563511
1732438071367,2024-11-24T08:47:51.367Z,101562,0.014921555,-0.09837326,0.07563511
1732438071377,2024-11-24T08:47:51.377Z,101572,0.13214171,-0.114240006,0.15267536
1732438071380,2024-11-24T08:47:51.380Z,101575,0.13214171,-0.114240006,0.15267536
1732438071389,2024-11-24T08:47:51.389Z,101584,0.0048067663,0.015992872,-0.0015494721
1732438071392,2024-11-24T08:47:51.392Z,101587,0.0048067663,0.015992872,-0.0015494721
1732438071400,2024-11-24T08:47:51.400Z,101595,-0.14577743,0.09168563,-0.02187901
1732438071402,2024-11-24T08:47:51.402Z,101597,-0.14577743,0.09168563,-0.02187901
1732438071413,2024-11-24T08:47:51.413Z,101608,0.096430846,-0.2742336,0.021133363
1732438071418,2024-11-24T08:47:51.418Z,101613,0.096430846,-0.2742336,0.021133363
1732438071431,2024-11-24T08:47:51.431Z,101626,0.019089507,-0.21031423,0.08091761
1732438071433,2024-11-24T08:47:51.433Z,101628,0.019089507,-0.21031423,0.08091761
