Timestamp (ms),ISO DateTime,Elapsed Time (ms),Acceleration X,Acceleration Y,Acceleration Z
1732371761255,2024-11-23T14:22:41.255Z,25222,0.012501838,-0.19792332,-0.38122657
1732371761261,2024-11-23T14:22:41.261Z,25228,0.012501838,-0.19792332,-0.38122657
1732371761283,2024-11-23T14:22:41.283Z,25250,0.008171291,-0.17892452,-0.3859038
1732371761292,2024-11-23T14:22:41.292Z,25259,0.008171291,-0.17892452,-0.3859038
1732371761320,2024-11-23T14:22:41.320Z,25287,-0.0022700352,-0.1636115,-0.37896964
1732371761327,2024-11-23T14:22:41.327Z,25294,-0.0022700352,-0.1636115,-0.37896964
1732371761346,2024-11-23T14:22:41.346Z,25313,0.005751789,-0.14999308,-0.3691525
1732371761352,2024-11-23T14:22:41.352Z,25319,0.005751789,-0.14999308,-0.3691525
1732371761368,2024-11-23T14:22:41.368Z,25335,0.011730542,-0.14684643,-0.36279416
1732371761376,2024-11-23T14:22:41.376Z,25343,0.011730542,-0.14684643,-0.36279416
1732371761388,2024-11-23T14:22:41.388Z,25355,0.013733511,-0.14639048,-0.3526268
1732371761392,2024-11-23T14:22:41.392Z,25359,0.013733511,-0.14639048,-0.3526268
1732371761404,2024-11-23T14:22:41.404Z,25371,0.015685473,-0.15301111,-0.33963028
1732371761408,2024-11-23T14:22:41.408Z,25375,0.015685473,-0.15301111,-0.33963028
1732371761419,2024-11-23T14:22:41.419Z,25386,0.023954878,-0.15692076,-0.34185314
1732371761423,2024-11-23T14:22:41.423Z,25390,0.023954878,-0.15692076,-0.34185314
1732371761434,2024-11-23T14:22:41.434Z,25401,0.014758061,-0.15175137,-0.34317458
1732371761437,2024-11-23T14:22:41.437Z,25404,0.014758061,-0.15175137,-0.34317458
1732371761450,2024-11-23T14:22:41.450Z,25417,0.010067533,-0.1414113,-0.33921525
1732371761454,2024-11-23T14:22:41.454Z,25421,0.010067533,-0.1414113,-0.33921525
1732371761467,2024-11-23T14:22:41.467Z,25434,0.018303642,-0.13128431,-0.33143824
1732371761470,2024-11-23T14:22:41.470Z,25437,0.018303642,-0.13128431,-0.33143824
1732371761481,2024-11-23T14:22:41.481Z,25448,0.022537474,-0.11894407,-0.32282418
1732371761486,2024-11-23T14:22:41.486Z,25453,0.022537474,-0.11894407,-0.32282418
1732371761499,2024-11-23T14:22:41.499Z,25466,0.014619249,-0.11074122,-0.31389633
1732371761503,2024-11-23T14:22:41.503Z,25470,0.014619249,-0.11074122,-0.31389633
1732371761516,2024-11-23T14:22:41.516Z,25483,0.01840348,-0.10672178,-0.29742056
1732371761519,2024-11-23T14:22:41.519Z,25486,0.01840348,-0.10672178,-0.29742056
1732371761531,2024-11-23T14:22:41.531Z,25498,0.027438212,-0.1103111,-0.28269887
1732371761534,2024-11-23T14:22:41.534Z,25501,0.027438212,-0.1103111,-0.28269887
1732371761546,2024-11-23T14:22:41.546Z,25513,0.031476807,-0.11605659,-0.28718433
1732371761550,2024-11-23T14:22:41.550Z,25517,0.031476807,-0.11605659,-0.28718433
1732371761561,2024-11-23T14:22:41.561Z,25528,0.01999004,-0.094593145,-0.27041152
1732371761565,2024-11-23T14:22:41.565Z,25532,0.01999004,-0.094593145,-0.27041152
1732371761578,2024-11-23T14:22:41.578Z,25545,0.020752808,-0.09280933,-0.24491705
1732371761582,2024-11-23T14:22:41.582Z,25549,0.020752808,-0.09280933,-0.24491705
1732371761593,2024-11-23T14:22:41.593Z,25560,0.021108303,-0.08944786,-0.2239422
1732371761597,2024-11-23T14:22:41.597Z,25564,0.021108303,-0.08944786,-0.2239422
1732371761609,2024-11-23T14:22:41.609Z,25576,0.017798867,-0.10236012,-0.23904261
1732371761614,2024-11-23T14:22:41.614Z,25581,0.017798867,-0.10236012,-0.23904261
1732371761627,2024-11-23T14:22:41.627Z,25594,0.012024467,-0.097632915,-0.23057881
1732371761633,2024-11-23T14:22:41.633Z,25600,0.012024467,-0.097632915,-0.23057881
1732371761644,2024-11-23T14:22:41.644Z,25611,0.0064485264,-0.07172146,-0.19902569
1732371761649,2024-11-23T14:22:41.649Z,25616,0.0064485264,-0.07172146,-0.19902569
1732371761661,2024-11-23T14:22:41.661Z,25628,0.0043784752,-0.062293287,-0.18319698
1732371761664,2024-11-23T14:22:41.664Z,25631,0.0043784752,-0.062293287,-0.18319698
1732371761677,2024-11-23T14:22:41.677Z,25644,-0.0077841384,-0.043566782,-0.15739387
1732371761681,2024-11-23T14:22:41.681Z,25648,-0.0077841384,-0.043566782,-0.15739387
1732371761692,2024-11-23T14:22:41.692Z,25659,-0.007569209,-0.04405652,-0.15895543
1732371761698,2024-11-23T14:22:41.698Z,25665,-0.007569209,-0.04405652,-0.15895543
1732371761712,2024-11-23T14:22:41.712Z,25679,-0.0054096533,-0.050463688,-0.16449551
1732371761716,2024-11-23T14:22:41.716Z,25683,-0.0054096533,-0.050463688,-0.16449551
1732371761728,2024-11-23T14:22:41.728Z,25695,-0.0037129784,-0.050883118,-0.14861465
1732371761732,2024-11-23T14:22:41.732Z,25699,-0.0037129784,-0.050883118,-0.14861465
1732371761748,2024-11-23T14:22:41.748Z,25715,-5.8580807E-4,-0.04387525,-0.14136562
1732371761752,2024-11-23T14:22:41.752Z,25719,-5.8580807E-4,-0.04387525,-0.14136562
1732371761764,2024-11-23T14:22:41.764Z,25731,0.0042650052,-0.041342337,-0.13960814
1732371761768,2024-11-23T14:22:41.768Z,25735,0.0042650052,-0.041342337,-0.13960814
1732371761780,2024-11-23T14:22:41.780Z,25747,7.045293E-4,-0.042379875,-0.1287693
1732371761785,2024-11-23T14:22:41.785Z,25752,7.045293E-4,-0.042379875,-0.1287693
1732371761798,2024-11-23T14:22:41.798Z,25765,0.008275179,-0.044898782,-0.13411771
1732371761803,2024-11-23T14:22:41.803Z,25770,0.008275179,-0.044898782,-0.13411771
1732371761816,2024-11-23T14:22:41.816Z,25783,0.011892478,-0.04943072,-0.123950794
1732371761820,2024-11-23T14:22:41.820Z,25787,0.011892478,-0.04943072,-0.123950794
1732371761834,2024-11-23T14:22:41.834Z,25801,0.018885415,-0.048708364,-0.10047925
1732371761838,2024-11-23T14:22:41.838Z,25805,0.018885415,-0.048708364,-0.10047925
1732371761851,2024-11-23T14:22:41.851Z,25818,0.015654791,-0.037352458,-0.09762499
1732371761855,2024-11-23T14:22:41.855Z,25822,0.015654791,-0.037352458,-0.09762499
1732371761871,2024-11-23T14:22:41.871Z,25838,0.009521494,-0.035722878,-0.113170154
1732371761877,2024-11-23T14:22:41.877Z,25844,0.009521494,-0.035722878,-0.113170154
1732371761890,2024-11-23T14:22:41.890Z,25857,0.016147941,-0.026998008,-0.11548454
1732371761895,2024-11-23T14:22:41.895Z,25862,0.016147941,-0.026998008,-0.11548454
1732371761908,2024-11-23T14:22:41.908Z,25875,0.01663622,-0.030774428,-0.12777475
1732371761912,2024-11-23T14:22:41.912Z,25879,0.01663622,-0.030774428,-0.12777475
1732371761925,2024-11-23T14:22:41.925Z,25892,0.02005418,-0.030657828,-0.13424593
1732371761929,2024-11-23T14:22:41.929Z,25896,0.02005418,-0.030657828,-0.13424593
1732371761941,2024-11-23T14:22:41.941Z,25908,0.01663622,-0.027556695,-0.12247827
1732371761945,2024-11-23T14:22:41.945Z,25912,0.01663622,-0.027556695,-0.12247827
1732371761965,2024-11-23T14:22:41.965Z,25932,0.0175682,-0.030300735,-0.12944768
1732371761969,2024-11-23T14:22:41.969Z,25936,0.0175682,-0.030300735,-0.12944768
1732371761981,2024-11-23T14:22:41.981Z,25948,-0.0055103353,-0.01504675,-0.0936525
1732371761984,2024-11-23T14:22:41.984Z,25951,-0.0055103353,-0.01504675,-0.0936525
1732371761996,2024-11-23T14:22:41.996Z,25963,3.3847068E-4,-0.010548849,-0.07994686
1732371762000,2024-11-23T14:22:42Z,25967,3.3847068E-4,-0.010548849,-0.07994686
1732371762013,2024-11-23T14:22:42.013Z,25980,0.0033095342,-0.01197664,-0.08696952
1732371762016,2024-11-23T14:22:42.016Z,25983,0.0033095342,-0.01197664,-0.08696952
1732371762033,2024-11-23T14:22:42.033Z,26000,-0.012387149,-8.0783677E-4,-0.08198287
1732371762036,2024-11-23T14:22:42.036Z,26003,-0.012387149,-8.0783677E-4,-0.08198287
1732371762048,2024-11-23T14:22:42.048Z,26015,-0.009729531,-0.0018784369,-0.06895386
1732371762051,2024-11-23T14:22:42.051Z,26018,-0.009729531,-0.0018784369,-0.06895386
1732371762064,2024-11-23T14:22:42.064Z,26031,1.7952536E-4,-0.010410174,-0.04661083
1732371762068,2024-11-23T14:22:42.068Z,26035,1.7952536E-4,-0.010410174,-0.04661083
1732371762080,2024-11-23T14:22:42.080Z,26047,-0.009938027,-0.011578022,-0.04131742
1732371762083,2024-11-23T14:22:42.083Z,26050,-0.009938027,-0.011578022,-0.04131742
1732371762098,2024-11-23T14:22:42.098Z,26065,-0.0055128816,-0.012798869,-0.04682283
1732371762102,2024-11-23T14:22:42.102Z,26069,-0.0055128816,-0.012798869,-0.04682283
1732371762116,2024-11-23T14:22:42.116Z,26083,0.0051788115,-0.020370673,-0.044019736
1732371762120,2024-11-23T14:22:42.120Z,26087,0.0051788115,-0.020370673,-0.044019736
1732371762134,2024-11-23T14:22:42.134Z,26101,0.009446886,-0.032302577,-0.05107615
1732371762138,2024-11-23T14:22:42.138Z,26105,0.009446886,-0.032302577,-0.05107615
1732371762151,2024-11-23T14:22:42.151Z,26118,0.009853935,-0.030557565,-0.04664844
1732371762156,2024-11-23T14:22:42.156Z,26123,0.009853935,-0.030557565,-0.04664844
1732371762168,2024-11-23T14:22:42.168Z,26135,0.0044373465,-0.02539488,-0.05687479
1732371762172,2024-11-23T14:22:42.172Z,26139,0.0044373465,-0.02539488,-0.05687479
1732371762188,2024-11-23T14:22:42.188Z,26155,0.0062757656,-0.020866442,-0.0580423
1732371762197,2024-11-23T14:22:42.197Z,26164,0.0062757656,-0.020866442,-0.0580423
1732371762224,2024-11-23T14:22:42.224Z,26191,-0.0025034237,-0.010269067,-0.07096646
1732371762231,2024-11-23T14:22:42.231Z,26198,-0.0025034237,-0.010269067,-0.07096646
1732371762245,2024-11-23T14:22:42.245Z,26212,0.0034007344,-0.008408426,-0.07100854
1732371762247,2024-11-23T14:22:42.247Z,26214,0.0034007344,-0.008408426,-0.07100854
1732371762257,2024-11-23T14:22:42.257Z,26224,0.0062611545,-0.02294696,-0.067502715
1732371762261,2024-11-23T14:22:42.261Z,26228,0.0062611545,-0.02294696,-0.067502715
1732371762272,2024-11-23T14:22:42.272Z,26239,0.014915326,-0.0225639,-0.06800711
1732371762275,2024-11-23T14:22:42.275Z,26242,0.014915326,-0.0225639,-0.06800711
1732371762288,2024-11-23T14:22:42.288Z,26255,0.0069942684,-0.019738758,-0.07631818
1732371762293,2024-11-23T14:22:42.293Z,26260,0.0069942684,-0.019738758,-0.07631818
1732371762305,2024-11-23T14:22:42.305Z,26272,-0.0038277672,-0.020410448,-0.073806375
1732371762308,2024-11-23T14:22:42.308Z,26275,-0.0038277672,-0.020410448,-0.073806375
1732371762322,2024-11-23T14:22:42.322Z,26289,-0.0028204937,-0.018005025,-0.083814
1732371762326,2024-11-23T14:22:42.326Z,26293,-0.0028204937,-0.018005025,-0.083814
1732371762341,2024-11-23T14:22:42.341Z,26308,0.008811093,-0.021924302,-0.078070246
1732371762348,2024-11-23T14:22:42.348Z,26315,0.008811093,-0.021924302,-0.078070246
1732371762368,2024-11-23T14:22:42.368Z,26335,0.00612144,-0.020225288,-0.058618307
1732371762371,2024-11-23T14:22:42.371Z,26338,0.00612144,-0.020225288,-0.058618307
1732371762384,2024-11-23T14:22:42.384Z,26351,0.0069812313,-0.01751869,-0.053162567
1732371762388,2024-11-23T14:22:42.388Z,26355,0.0069812313,-0.01751869,-0.053162567
1732371762409,2024-11-23T14:22:42.409Z,26376,0.0059225075,-0.01774625,-0.059446517
1732371762413,2024-11-23T14:22:42.413Z,26380,0.0059225075,-0.01774625,-0.059446517
1732371762424,2024-11-23T14:22:42.424Z,26391,-0.00735699,-0.0127801,-0.052287117
1732371762427,2024-11-23T14:22:42.427Z,26394,-0.00735699,-0.0127801,-0.052287117
1732371762438,2024-11-23T14:22:42.438Z,26405,-0.0097177755,-0.010734397,-0.02899003
1732371762442,2024-11-23T14:22:42.442Z,26409,-0.0097177755,-0.010734397,-0.02899003
1732371762453,2024-11-23T14:22:42.453Z,26420,-0.012647463,-0.0082929935,-0.00652909
1732371762457,2024-11-23T14:22:42.457Z,26424,-0.012647463,-0.0082929935,-0.00652909
1732371762472,2024-11-23T14:22:42.472Z,26439,-0.013598017,-0.010734397,-0.0202072
1732371762475,2024-11-23T14:22:42.475Z,26442,-0.013598017,-0.010734397,-0.0202072
1732371762489,2024-11-23T14:22:42.489Z,26456,-0.026334016,-0.0112288045,-0.022175543
1732371762493,2024-11-23T14:22:42.493Z,26460,-0.026334016,-0.0112288045,-0.022175543
1732371762504,2024-11-23T14:22:42.504Z,26471,-0.02837453,-0.006807437,-0.039625794
1732371762508,2024-11-23T14:22:42.508Z,26475,-0.02837453,-0.006807437,-0.039625794
1732371762519,2024-11-23T14:22:42.519Z,26486,-0.00953957,-0.020368632,-0.023631997
1732371762522,2024-11-23T14:22:42.522Z,26489,-0.00953957,-0.020368632,-0.023631997
1732371762537,2024-11-23T14:22:42.537Z,26504,-0.008940724,-0.02015809,-0.03062564
1732371762544,2024-11-23T14:22:42.544Z,26511,-0.008940724,-0.02015809,-0.03062564
1732371762569,2024-11-23T14:22:42.569Z,26536,0.0013482909,-0.027236946,-0.05161735
1732371762578,2024-11-23T14:22:42.578Z,26545,0.0013482909,-0.027236946,-0.05161735
1732371762601,2024-11-23T14:22:42.601Z,26568,0.0035507267,-0.02687178,-0.06191677
1732371762608,2024-11-23T14:22:42.608Z,26575,0.0035507267,-0.02687178,-0.06191677
1732371762620,2024-11-23T14:22:42.620Z,26587,0.011567373,-0.01995844,-0.0548154
1732371762624,2024-11-23T14:22:42.624Z,26591,0.011567373,-0.01995844,-0.0548154
1732371762637,2024-11-23T14:22:42.637Z,26604,0.020614693,-0.016972741,-0.065392256
1732371762641,2024-11-23T14:22:42.641Z,26608,0.020614693,-0.016972741,-0.065392256
1732371762652,2024-11-23T14:22:42.652Z,26619,0.021870172,-0.013749855,-0.052054685
1732371762656,2024-11-23T14:22:42.656Z,26623,0.021870172,-0.013749855,-0.052054685
1732371762668,2024-11-23T14:22:42.668Z,26635,0.033049848,-0.022264281,-0.051891115
1732371762672,2024-11-23T14:22:42.672Z,26639,0.033049848,-0.022264281,-0.051891115
1732371762686,2024-11-23T14:22:42.686Z,26653,0.026177833,-0.03610263,-0.07789732
1732371762690,2024-11-23T14:22:42.690Z,26657,0.026177833,-0.03610263,-0.07789732
1732371762704,2024-11-23T14:22:42.704Z,26671,0.024740936,-0.03280204,-0.07113832
1732371762707,2024-11-23T14:22:42.707Z,26674,0.024740936,-0.03280204,-0.07113832
1732371762719,2024-11-23T14:22:42.719Z,26686,0.007379521,-0.025410634,-0.060774654
1732371762722,2024-11-23T14:22:42.722Z,26689,0.007379521,-0.025410634,-0.060774654
1732371762735,2024-11-23T14:22:42.735Z,26702,-0.018308645,-0.018629938,-0.061286982
1732371762739,2024-11-23T14:22:42.739Z,26706,-0.018308645,-0.018629938,-0.061286982
1732371762751,2024-11-23T14:22:42.751Z,26718,-0.0042385934,-0.013289386,-0.0445717
1732371762754,2024-11-23T14:22:42.754Z,26721,-0.0042385934,-0.013289386,-0.0445717
1732371762763,2024-11-23T14:22:42.763Z,26730,-0.009074649,-0.0107659055,-0.025581205
1732371762766,2024-11-23T14:22:42.766Z,26733,-0.009074649,-0.0107659055,-0.025581205
1732371762782,2024-11-23T14:22:42.782Z,26749,-0.044598773,-0.009697348,-0.031929392
1732371762787,2024-11-23T14:22:42.787Z,26754,-0.044598773,-0.009697348,-0.031929392
1732371762801,2024-11-23T14:22:42.801Z,26768,-0.023664564,0.026190074,-0.028282845
1732371762805,2024-11-23T14:22:42.805Z,26772,-0.023664564,0.026190074,-0.028282845
1732371762823,2024-11-23T14:22:42.823Z,26790,-0.068814114,0.06808789,-0.036307387
1732371762831,2024-11-23T14:22:42.831Z,26798,-0.068814114,0.06808789,-0.036307387
1732371762851,2024-11-23T14:22:42.851Z,26818,-0.038996056,0.104293406,-0.057791825
1732371762858,2024-11-23T14:22:42.858Z,26825,-0.038996056,0.104293406,-0.057791825
1732371762881,2024-11-23T14:22:42.881Z,26848,0.026197799,0.12520643,-0.14027081
1732371762889,2024-11-23T14:22:42.889Z,26856,0.026197799,0.12520643,-0.14027081
1732371762915,2024-11-23T14:22:42.915Z,26882,0.029719658,0.11720431,-0.20901631
1732371762922,2024-11-23T14:22:42.922Z,26889,0.029719658,0.11720431,-0.20901631
1732371762939,2024-11-23T14:22:42.939Z,26906,0.023744952,0.08133449,-0.16268048
1732371762948,2024-11-23T14:22:42.948Z,26915,0.023744952,0.08133449,-0.16268048
1732371762977,2024-11-23T14:22:42.977Z,26944,0.06598797,-0.08264082,-0.07335394
1732371762985,2024-11-23T14:22:42.985Z,26952,0.06598797,-0.08264082,-0.07335394
1732371763008,2024-11-23T14:22:43.008Z,26975,0.07746444,-0.09158469,-0.07265478
1732371763013,2024-11-23T14:22:43.013Z,26980,0.07746444,-0.09158469,-0.07265478
1732371763029,2024-11-23T14:22:43.029Z,26996,0.07052207,-0.073609516,-0.03844579
1732371763033,2024-11-23T14:22:43.033Z,27000,0.07052207,-0.073609516,-0.03844579
1732371763048,2024-11-23T14:22:43.048Z,27015,0.12371135,0.09023324,-0.022300676
1732371763052,2024-11-23T14:22:43.052Z,27019,0.12371135,0.09023324,-0.022300676
1732371763064,2024-11-23T14:22:43.064Z,27031,0.02407197,0.16628882,0.0021509493
1732371763068,2024-11-23T14:22:43.068Z,27035,0.02407197,0.16628882,0.0021509493
1732371763079,2024-11-23T14:22:43.079Z,27046,-0.11306248,0.18886678,0.051020455
1732371763083,2024-11-23T14:22:43.083Z,27050,-0.11306248,0.18886678,0.051020455
1732371763093,2024-11-23T14:22:43.093Z,27060,-0.16953276,0.09693526,0.14642702
1732371763096,2024-11-23T14:22:43.096Z,27063,-0.16953276,0.09693526,0.14642702
1732371763105,2024-11-23T14:22:43.105Z,27072,-0.14399815,0.12326741,0.14182009
1732371763107,2024-11-23T14:22:43.107Z,27074,-0.14399815,0.12326741,0.14182009
1732371763117,2024-11-23T14:22:43.117Z,27084,-0.17477362,0.16564816,0.10184855
1732371763120,2024-11-23T14:22:43.120Z,27087,-0.17477362,0.16564816,0.10184855
1732371763131,2024-11-23T14:22:43.131Z,27098,-0.13782056,0.18045996,0.09918049
1732371763134,2024-11-23T14:22:43.134Z,27101,-0.13782056,0.18045996,0.09918049
1732371763144,2024-11-23T14:22:43.144Z,27111,-0.059438866,0.1905853,0.07102053
1732371763147,2024-11-23T14:22:43.147Z,27114,-0.059438866,0.1905853,0.07102053
1732371763156,2024-11-23T14:22:43.156Z,27123,-0.0250472,0.17245452,0.025201708
1732371763160,2024-11-23T14:22:43.160Z,27127,-0.0250472,0.17245452,0.025201708
1732371763172,2024-11-23T14:22:43.172Z,27139,0.039050195,-0.058602057,-0.007131953
1732371763175,2024-11-23T14:22:43.175Z,27142,0.039050195,-0.058602057,-0.007131953
1732371763189,2024-11-23T14:22:43.189Z,27156,0.054057434,0.16385968,-0.08426558
1732371763197,2024-11-23T14:22:43.197Z,27164,0.054057434,0.16385968,-0.08426558
1732371763216,2024-11-23T14:22:43.216Z,27183,0.03457616,0.13844146,-0.1079226
1732371763219,2024-11-23T14:22:43.219Z,27186,0.03457616,0.13844146,-0.1079226
1732371763228,2024-11-23T14:22:43.228Z,27195,0.03874031,0.14956786,-0.13456759
1732371763232,2024-11-23T14:22:43.232Z,27199,0.03874031,0.14956786,-0.13456759
1732371763241,2024-11-23T14:22:43.241Z,27208,-0.20070013,0.12902749,-0.1401744
1732371763244,2024-11-23T14:22:43.244Z,27211,-0.20070013,0.12902749,-0.1401744
1732371763254,2024-11-23T14:22:43.254Z,27221,-0.09990523,0.09734856,-0.11883848
1732371763257,2024-11-23T14:22:43.257Z,27224,-0.09990523,0.09734856,-0.11883848
1732371763268,2024-11-23T14:22:43.268Z,27235,-0.004781813,0.17682144,-0.08239394
1732371763271,2024-11-23T14:22:43.271Z,27238,-0.004781813,0.17682144,-0.08239394
1732371763282,2024-11-23T14:22:43.282Z,27249,-0.17373168,0.1546788,-0.0041119736
1732371763286,2024-11-23T14:22:43.286Z,27253,-0.17373168,0.1546788,-0.0041119736
1732371763297,2024-11-23T14:22:43.297Z,27264,-0.074587315,0.08288462,0.090410106
1732371763301,2024-11-23T14:22:43.301Z,27268,-0.074587315,0.08288462,0.090410106
1732371763310,2024-11-23T14:22:43.310Z,27277,-0.021907728,0.103242256,0.1171613
1732371763313,2024-11-23T14:22:43.313Z,27280,-0.021907728,0.103242256,0.1171613
1732371763323,2024-11-23T14:22:43.323Z,27290,0.11163655,0.09550377,0.037375428
1732371763326,2024-11-23T14:22:43.326Z,27293,0.11163655,0.09550377,0.037375428
1732371763336,2024-11-23T14:22:43.336Z,27303,0.1335162,0.12677193,-0.07000514
1732371763339,2024-11-23T14:22:43.339Z,27306,0.1335162,0.12677193,-0.07000514
1732371763348,2024-11-23T14:22:43.348Z,27315,0.119761884,0.18247464,-0.08423846
1732371763351,2024-11-23T14:22:43.351Z,27318,0.119761884,0.18247464,-0.08423846
1732371763362,2024-11-23T14:22:43.362Z,27329,0.033604737,-0.08616322,-0.043251153
1732371763366,2024-11-23T14:22:43.366Z,27333,0.033604737,-0.08616322,-0.043251153
1732371763375,2024-11-23T14:22:43.375Z,27342,-0.113121994,-0.08157187,-0.009056625
1732371763378,2024-11-23T14:22:43.378Z,27345,-0.113121994,-0.08157187,-0.009056625
1732371763387,2024-11-23T14:22:43.387Z,27354,-0.06466593,-0.017555838,-0.060456563
1732371763390,2024-11-23T14:22:43.390Z,27357,-0.06466593,-0.017555838,-0.060456563
1732371763403,2024-11-23T14:22:43.403Z,27370,-0.07875712,0.1437647,0.08856387
1732371763407,2024-11-23T14:22:43.407Z,27374,-0.07875712,0.1437647,0.08856387
1732371763418,2024-11-23T14:22:43.418Z,27385,-0.0016020102,0.174844,0.028513996
1732371763422,2024-11-23T14:22:43.422Z,27389,-0.0016020102,0.174844,0.028513996
1732371763433,2024-11-23T14:22:43.433Z,27400,0.07298571,0.21633488,-0.06871825
1732371763437,2024-11-23T14:22:43.437Z,27404,0.07298571,0.21633488,-0.06871825
1732371763449,2024-11-23T14:22:43.449Z,27416,-0.067393966,0.07502535,0.020008808
1732371763452,2024-11-23T14:22:43.452Z,27419,-0.067393966,0.07502535,0.020008808
1732371763461,2024-11-23T14:22:43.461Z,27428,-0.071902335,-0.030605897,-0.05779439
1732371763464,2024-11-23T14:22:43.464Z,27431,-0.071902335,-0.030605897,-0.05779439
1732371763474,2024-11-23T14:22:43.474Z,27441,0.0020783902,-0.039752144,-0.07424807
1732371763478,2024-11-23T14:22:43.478Z,27445,0.0020783902,-0.039752144,-0.07424807
1732371763495,2024-11-23T14:22:43.495Z,27462,-0.021495137,0.0575193,0.064652555
1732371763503,2024-11-23T14:22:43.503Z,27470,-0.021495137,0.0575193,0.064652555
1732371763526,2024-11-23T14:22:43.526Z,27493,0.11461419,0.109890595,0.0013802733
1732371763535,2024-11-23T14:22:43.535Z,27502,0.11461419,0.109890595,0.0013802733
1732371763563,2024-11-23T14:22:43.563Z,27530,0.1554294,0.12040765,-0.026291724
1732371763571,2024-11-23T14:22:43.571Z,27538,0.1554294,0.12040765,-0.026291724
1732371763594,2024-11-23T14:22:43.594Z,27561,0.022175578,0.088084936,0.05289329
1732371763601,2024-11-23T14:22:43.601Z,27568,0.022175578,0.088084936,0.05289329
1732371763624,2024-11-23T14:22:43.624Z,27591,0.05004857,0.08897281,-0.0396969
1732371763629,2024-11-23T14:22:43.629Z,27596,0.05004857,0.08897281,-0.0396969
1732371763645,2024-11-23T14:22:43.645Z,27612,0.021513103,0.02642551,-0.06256562
1732371763650,2024-11-23T14:22:43.650Z,27617,0.021513103,0.02642551,-0.06256562
1732371763666,2024-11-23T14:22:43.666Z,27633,-0.016741704,-0.021908062,-0.05416608
1732371763669,2024-11-23T14:22:43.669Z,27636,-0.016741704,-0.021908062,-0.05416608
1732371763681,2024-11-23T14:22:43.681Z,27648,-0.007951824,0.0036414408,-0.10794514
1732371763685,2024-11-23T14:22:43.685Z,27652,-0.007951824,0.0036414408,-0.10794514
1732371763699,2024-11-23T14:22:43.699Z,27666,-0.029542275,-0.031867977,-0.120821886
1732371763703,2024-11-23T14:22:43.703Z,27670,-0.029542275,-0.031867977,-0.120821886
1732371763714,2024-11-23T14:22:43.714Z,27681,-0.046321105,-0.031285465,-0.07941257
1732371763718,2024-11-23T14:22:43.718Z,27685,-0.046321105,-0.031285465,-0.07941257
1732371763727,2024-11-23T14:22:43.727Z,27694,0.02738966,0.0014806937,-0.061562557
1732371763731,2024-11-23T14:22:43.731Z,27698,0.02738966,0.0014806937,-0.061562557
1732371763742,2024-11-23T14:22:43.742Z,27709,0.0917822,-0.101880886,-0.024150364
1732371763745,2024-11-23T14:22:43.745Z,27712,0.0917822,-0.101880886,-0.024150364
1732371763754,2024-11-23T14:22:43.754Z,27721,0.051850986,-0.04517798,0.06919494
1732371763757,2024-11-23T14:22:43.757Z,27724,0.051850986,-0.04517798,0.06919494
1732371763768,2024-11-23T14:22:43.768Z,27735,0.07466457,0.05080921,-0.12640296
1732371763771,2024-11-23T14:22:43.771Z,27738,0.07466457,0.05080921,-0.12640296
1732371763781,2024-11-23T14:22:43.781Z,27748,0.06828028,-0.21768628,0.09267367
1732371763785,2024-11-23T14:22:43.785Z,27752,0.06828028,-0.21768628,0.09267367
1732371763796,2024-11-23T14:22:43.796Z,27763,0.07993591,-0.20885134,0.13170917
1732371763799,2024-11-23T14:22:43.799Z,27766,0.07993591,-0.20885134,0.13170917
1732371763808,2024-11-23T14:22:43.808Z,27775,-0.06599471,-0.15126503,0.1150859
1732371763811,2024-11-23T14:22:43.811Z,27778,-0.06599471,-0.15126503,0.1150859
1732371763825,2024-11-23T14:22:43.825Z,27792,-0.02587516,-0.1279917,0.15429549
1732371763833,2024-11-23T14:22:43.833Z,27800,-0.02587516,-0.1279917,0.15429549
1732371763855,2024-11-23T14:22:43.855Z,27822,0.01881877,-0.049228445,0.1352546
1732371763862,2024-11-23T14:22:43.862Z,27829,0.01881877,-0.049228445,0.1352546
1732371763885,2024-11-23T14:22:43.885Z,27852,0.013929386,-0.16121969,-0.045938313
1732371763888,2024-11-23T14:22:43.888Z,27855,0.013929386,-0.16121969,-0.045938313
1732371763901,2024-11-23T14:22:43.901Z,27868,-0.052753743,-0.18936473,0.033311136
1732371763905,2024-11-23T14:22:43.905Z,27872,-0.052753743,-0.18936473,0.033311136
1732371763918,2024-11-23T14:22:43.918Z,27885,-0.09683688,-0.21851143,0.13278684
1732371763922,2024-11-23T14:22:43.922Z,27889,-0.09683688,-0.21851143,0.13278684
1732371763933,2024-11-23T14:22:43.933Z,27900,-0.15569773,-0.12648077,0.13950692
1732371763937,2024-11-23T14:22:43.937Z,27904,-0.15569773,-0.12648077,0.13950692
1732371763992,2024-11-23T14:22:43.992Z,27959,-0.06021373,-0.08304245,0.23519693
1732371763997,2024-11-23T14:22:43.997Z,27964,-0.06021373,-0.08304245,0.23519693
1732371764012,2024-11-23T14:22:44.012Z,27979,-0.035989735,-0.030648006,0.2530885
1732371764017,2024-11-23T14:22:44.017Z,27984,-0.035989735,-0.030648006,0.2530885
1732371764033,2024-11-23T14:22:44.033Z,28000,0.035644483,-0.025857778,0.29137054
1732371764036,2024-11-23T14:22:44.036Z,28003,0.035644483,-0.025857778,0.29137054
1732371764048,2024-11-23T14:22:44.048Z,28015,0.021590034,-0.1028346,0.085866764
1732371764052,2024-11-23T14:22:44.052Z,28019,0.021590034,-0.1028346,0.085866764
1732371764081,2024-11-23T14:22:44.081Z,28048,-0.10682847,-0.08449017,0.017412253
1732371764085,2024-11-23T14:22:44.085Z,28052,-0.10682847,-0.08449017,0.017412253
1732371764096,2024-11-23T14:22:44.096Z,28063,0.0010818193,-0.103130326,-0.016973617
1732371764099,2024-11-23T14:22:44.099Z,28066,0.0010818193,-0.103130326,-0.016973617
1732371764110,2024-11-23T14:22:44.110Z,28077,-0.100466356,-0.15280475,-0.15385988
1732371764113,2024-11-23T14:22:44.113Z,28080,-0.100466356,-0.15280475,-0.15385988
1732371764171,2024-11-23T14:22:44.171Z,28138,-0.101634525,-0.15432522,-0.11607667
1732371764174,2024-11-23T14:22:44.174Z,28141,-0.101634525,-0.15432522,-0.11607667
1732371764186,2024-11-23T14:22:44.186Z,28153,0.018852139,-0.07081681,0.098713435
1732371764190,2024-11-23T14:22:44.190Z,28157,0.018852139,-0.07081681,0.098713435
1732371764204,2024-11-23T14:22:44.204Z,28171,-0.032857474,-0.14494422,-0.15098476
1732371764208,2024-11-23T14:22:44.208Z,28175,-0.032857474,-0.14494422,-0.15098476
1732371764221,2024-11-23T14:22:44.221Z,28188,0.007464844,-0.21805355,-0.25875238
1732371764224,2024-11-23T14:22:44.224Z,28191,0.007464844,-0.21805355,-0.25875238
1732371764266,2024-11-23T14:22:44.266Z,28233,-0.11085686,-0.58373576,-0.21910435
1732371764275,2024-11-23T14:22:44.275Z,28242,-0.11085686,-0.58373576,-0.21910435
1732371764304,2024-11-23T14:22:44.304Z,28271,-0.013370272,-0.5749872,-0.053984493
1732371764312,2024-11-23T14:22:44.312Z,28279,-0.013370272,-0.5749872,-0.053984493
1732371764338,2024-11-23T14:22:44.338Z,28305,0.039535962,-0.4111876,0.11524404
1732371764346,2024-11-23T14:22:44.346Z,28313,0.039535962,-0.4111876,0.11524404
1732371764371,2024-11-23T14:22:44.371Z,28338,-0.057145473,0.07618333,0.42407346
1732371764377,2024-11-23T14:22:44.377Z,28344,-0.057145473,0.07618333,0.42407346
1732371764394,2024-11-23T14:22:44.394Z,28361,-0.009869305,0.017127171,0.3829687
1732371764399,2024-11-23T14:22:44.399Z,28366,-0.009869305,0.017127171,0.3829687
1732371764413,2024-11-23T14:22:44.413Z,28380,0.06619174,0.08660313,0.31002674
1732371764417,2024-11-23T14:22:44.417Z,28384,0.06619174,0.08660313,0.31002674
1732371764430,2024-11-23T14:22:44.430Z,28397,-0.08531944,0.013969585,0.2767778
1732371764435,2024-11-23T14:22:44.435Z,28402,-0.08531944,0.013969585,0.2767778
1732371764447,2024-11-23T14:22:44.447Z,28414,0.06965021,-0.20471223,-0.26457068
1732371764451,2024-11-23T14:22:44.451Z,28418,0.06965021,-0.20471223,-0.26457068
1732371764471,2024-11-23T14:22:44.471Z,28438,-0.021622263,-0.17403373,-0.5212087
1732371764474,2024-11-23T14:22:44.474Z,28441,-0.021622263,-0.17403373,-0.5212087
1732371764484,2024-11-23T14:22:44.484Z,28451,-0.06758989,-0.2559165,-0.5036106
1732371764487,2024-11-23T14:22:44.487Z,28454,-0.06758989,-0.2559165,-0.5036106
1732371764496,2024-11-23T14:22:44.496Z,28463,-0.022864603,-0.30077046,-0.3423118
1732371764499,2024-11-23T14:22:44.499Z,28466,-0.022864603,-0.30077046,-0.3423118
1732371764509,2024-11-23T14:22:44.509Z,28476,-0.0065780785,-0.35911345,-0.2277912
1732371764511,2024-11-23T14:22:44.511Z,28478,-0.0065780785,-0.35911345,-0.2277912
1732371764524,2024-11-23T14:22:44.524Z,28491,-0.028770396,-0.38508743,-0.21707353
1732371764526,2024-11-23T14:22:44.526Z,28493,-0.028770396,-0.38508743,-0.21707353
1732371764622,2024-11-23T14:22:44.622Z,28589,-0.04872095,-0.29080957,-0.23868705
1732371764625,2024-11-23T14:22:44.625Z,28592,-0.04872095,-0.29080957,-0.23868705
1732371764668,2024-11-23T14:22:44.668Z,28635,0.08580105,0.057548475,0.09963928
1732371764673,2024-11-23T14:22:44.673Z,28640,0.08580105,0.057548475,0.09963928
1732371764687,2024-11-23T14:22:44.687Z,28654,0.1432661,0.17624924,0.07794142
1732371764691,2024-11-23T14:22:44.691Z,28658,0.1432661,0.17624924,0.07794142
1732371764705,2024-11-23T14:22:44.705Z,28672,0.20429505,0.19417587,0.031966686
1732371764712,2024-11-23T14:22:44.712Z,28679,0.20429505,0.19417587,0.031966686
1732371764760,2024-11-23T14:22:44.760Z,28727,0.16238952,-0.06267975,0.24703044
1732371764767,2024-11-23T14:22:44.767Z,28734,0.16238952,-0.06267975,0.24703044
1732371764851,2024-11-23T14:22:44.851Z,28818,0.06863199,-0.050284166,0.13821332
1732371764859,2024-11-23T14:22:44.859Z,28826,0.06863199,-0.050284166,0.13821332
1732371764894,2024-11-23T14:22:44.894Z,28861,-0.0011705373,0.026866432,0.011658834
1732371764901,2024-11-23T14:22:44.901Z,28868,-0.0011705373,0.026866432,0.011658834
1732371764919,2024-11-23T14:22:44.919Z,28886,-0.09682914,-0.051240306,-0.029862123
1732371764923,2024-11-23T14:22:44.923Z,28890,-0.09682914,-0.051240306,-0.029862123
1732371764939,2024-11-23T14:22:44.939Z,28906,0.1127384,0.083305605,-0.04778597
1732371764943,2024-11-23T14:22:44.943Z,28910,0.1127384,0.083305605,-0.04778597
1732371764956,2024-11-23T14:22:44.956Z,28923,0.039426576,0.17636034,-0.096958525
1732371764960,2024-11-23T14:22:44.960Z,28927,0.039426576,0.17636034,-0.096958525
1732371764973,2024-11-23T14:22:44.973Z,28940,-0.26432616,-0.09519073,-0.07019341
1732371764976,2024-11-23T14:22:44.976Z,28943,-0.26432616,-0.09519073,-0.07019341
1732371764988,2024-11-23T14:22:44.988Z,28955,0.1771599,0.124874815,-0.10529862
1732371764991,2024-11-23T14:22:44.991Z,28958,0.1771599,0.124874815,-0.10529862
1732371765002,2024-11-23T14:22:45.002Z,28969,-0.055179156,0.12599093,-0.13409953
1732371765005,2024-11-23T14:22:45.005Z,28972,-0.055179156,0.12599093,-0.13409953
1732371765025,2024-11-23T14:22:45.025Z,28992,-0.10631297,-0.13923724,-0.043007813
1732371765028,2024-11-23T14:22:45.028Z,28995,-0.10631297,-0.13923724,-0.043007813
1732371765038,2024-11-23T14:22:45.038Z,29005,-0.17048937,-0.15859576,-0.008762955
1732371765041,2024-11-23T14:22:45.041Z,29008,-0.17048937,-0.15859576,-0.008762955
1732371765050,2024-11-23T14:22:45.050Z,29017,-0.1722179,-0.1760563,0.04378621
1732371765053,2024-11-23T14:22:45.053Z,29020,-0.1722179,-0.1760563,0.04378621
1732371765073,2024-11-23T14:22:45.073Z,29040,-0.16212884,-0.10237344,0.08865708
1732371765080,2024-11-23T14:22:45.080Z,29047,-0.16212884,-0.10237344,0.08865708
1732371765099,2024-11-23T14:22:45.099Z,29066,-0.23865975,-0.22543731,0.26963863
1732371765103,2024-11-23T14:22:45.103Z,29070,-0.23865975,-0.22543731,0.26963863
1732371765112,2024-11-23T14:22:45.112Z,29079,-0.10260572,-0.2693829,0.34809417
1732371765116,2024-11-23T14:22:45.116Z,29083,-0.10260572,-0.2693829,0.34809417
1732371765127,2024-11-23T14:22:45.127Z,29094,-0.03896869,-0.17951812,0.35299793
1732371765130,2024-11-23T14:22:45.130Z,29097,-0.03896869,-0.17951812,0.35299793
1732371765140,2024-11-23T14:22:45.140Z,29107,0.15636726,0.25351992,0.35386455
1732371765144,2024-11-23T14:22:45.144Z,29111,0.15636726,0.25351992,0.35386455
1732371765155,2024-11-23T14:22:45.155Z,29122,0.2515965,0.35857314,0.29593986
1732371765158,2024-11-23T14:22:45.158Z,29125,0.2515965,0.35857314,0.29593986
1732371765170,2024-11-23T14:22:45.170Z,29137,0.30265126,0.25878024,0.1597276
1732371765173,2024-11-23T14:22:45.173Z,29140,0.30265126,0.25878024,0.1597276
1732371765205,2024-11-23T14:22:45.205Z,29172,0.08317082,-0.053290676,-0.1552891
1732371765208,2024-11-23T14:22:45.208Z,29175,0.08317082,-0.053290676,-0.1552891
1732371765217,2024-11-23T14:22:45.217Z,29184,0.12476375,-0.056190215,-0.24023414
1732371765220,2024-11-23T14:22:45.220Z,29187,0.12476375,-0.056190215,-0.24023414
1732371765230,2024-11-23T14:22:45.230Z,29197,0.05214144,0.0851747,-0.36829433
1732371765234,2024-11-23T14:22:45.234Z,29201,0.05214144,0.0851747,-0.36829433
1732371765250,2024-11-23T14:22:45.250Z,29217,-0.14249602,-0.10303638,-0.3346982
1732371765254,2024-11-23T14:22:45.254Z,29221,-0.14249602,-0.10303638,-0.3346982
1732371765346,2024-11-23T14:22:45.346Z,29313,-0.08222503,0.045064397,-0.35333028
1732371765355,2024-11-23T14:22:45.355Z,29322,-0.08222503,0.045064397,-0.35333028
1732371765390,2024-11-23T14:22:45.390Z,29357,-0.025820205,-0.05634542,-0.31416044
1732371765397,2024-11-23T14:22:45.397Z,29364,-0.025820205,-0.05634542,-0.31416044
1732371765413,2024-11-23T14:22:45.413Z,29380,-0.036676306,0.1400089,-0.1426677
1732371765418,2024-11-23T14:22:45.418Z,29385,-0.036676306,0.1400089,-0.1426677
1732371765433,2024-11-23T14:22:45.433Z,29400,-0.19519155,-0.22047253,0.028355781
1732371765438,2024-11-23T14:22:45.438Z,29405,-0.19519155,-0.22047253,0.028355781
1732371765452,2024-11-23T14:22:45.452Z,29419,-0.09142249,-0.19015089,0.10634718
1732371765455,2024-11-23T14:22:45.455Z,29422,-0.09142249,-0.19015089,0.10634718
1732371765466,2024-11-23T14:22:45.466Z,29433,-0.113548644,-0.056493044,0.13222247
1732371765470,2024-11-23T14:22:45.470Z,29437,-0.113548644,-0.056493044,0.13222247
1732371765482,2024-11-23T14:22:45.482Z,29449,-0.058085077,0.011809179,0.114808485
1732371765486,2024-11-23T14:22:45.486Z,29453,-0.058085077,0.011809179,0.114808485
1732371765523,2024-11-23T14:22:45.523Z,29490,-0.15481319,0.06166672,-0.0016595991
1732371765528,2024-11-23T14:22:45.528Z,29495,-0.15481319,0.06166672,-0.0016595991
1732371765544,2024-11-23T14:22:45.544Z,29511,-0.15226752,0.093802616,-0.032136496
1732371765548,2024-11-23T14:22:45.548Z,29515,-0.15226752,0.093802616,-0.032136496
1732371765613,2024-11-23T14:22:45.613Z,29580,-0.057390314,-0.085022025,0.11783401
1732371765616,2024-11-23T14:22:45.616Z,29583,-0.057390314,-0.085022025,0.11783401
1732371765629,2024-11-23T14:22:45.629Z,29596,0.13990009,-0.010131462,0.15304096
1732371765633,2024-11-23T14:22:45.633Z,29600,0.13990009,-0.010131462,0.15304096
1732371765646,2024-11-23T14:22:45.646Z,29613,0.09146579,0.18916519,0.12487211
1732371765650,2024-11-23T14:22:45.650Z,29617,0.09146579,0.18916519,0.12487211
1732371765662,2024-11-23T14:22:45.662Z,29629,-0.021144936,-0.0033168278,0.035840366
1732371765665,2024-11-23T14:22:45.665Z,29632,-0.021144936,-0.0033168278,0.035840366
1732371765677,2024-11-23T14:22:45.677Z,29644,0.15405211,0.13350555,0.0042121387
1732371765680,2024-11-23T14:22:45.680Z,29647,0.15405211,0.13350555,0.0042121387
1732371765690,2024-11-23T14:22:45.690Z,29657,0.19301052,0.20866117,-0.0108446395
1732371765695,2024-11-23T14:22:45.695Z,29662,0.19301052,0.20866117,-0.0108446395
1732371765704,2024-11-23T14:22:45.704Z,29671,-0.044875905,0.36498243,-0.068860374
1732371765708,2024-11-23T14:22:45.708Z,29675,-0.044875905,0.36498243,-0.068860374
1732371765716,2024-11-23T14:22:45.716Z,29683,0.0026493925,0.03969827,-0.25392768
1732371765718,2024-11-23T14:22:45.718Z,29685,0.0026493925,0.03969827,-0.25392768
1732371765731,2024-11-23T14:22:45.731Z,29698,-0.05955828,-0.044844907,-0.17874745
1732371765739,2024-11-23T14:22:45.739Z,29706,-0.05955828,-0.044844907,-0.17874745
1732371765762,2024-11-23T14:22:45.762Z,29729,-0.023431642,-0.21487145,-0.061022043
1732371765768,2024-11-23T14:22:45.768Z,29735,-0.023431642,-0.21487145,-0.061022043
1732371765792,2024-11-23T14:22:45.792Z,29759,-0.060070887,-0.073256895,-0.0182842
1732371765799,2024-11-23T14:22:45.799Z,29766,-0.060070887,-0.073256895,-0.0182842
1732371765816,2024-11-23T14:22:45.816Z,29783,0.030890401,-0.04668007,-0.048929177
1732371765821,2024-11-23T14:22:45.821Z,29788,0.030890401,-0.04668007,-0.048929177
1732371765834,2024-11-23T14:22:45.834Z,29801,0.09674435,0.15655589,-0.0029539114
1732371765838,2024-11-23T14:22:45.838Z,29805,0.09674435,0.15655589,-0.0029539114
1732371765852,2024-11-23T14:22:45.852Z,29819,0.106680304,0.021071926,0.109645925
1732371765854,2024-11-23T14:22:45.854Z,29821,0.106680304,0.021071926,0.109645925
1732371765868,2024-11-23T14:22:45.868Z,29835,-0.016885703,-0.10298008,0.16292886
1732371765876,2024-11-23T14:22:45.876Z,29843,-0.016885703,-0.10298008,0.16292886
1732371765900,2024-11-23T14:22:45.900Z,29867,0.011594881,-0.027290821,0.15898983
1732371765906,2024-11-23T14:22:45.906Z,29873,0.011594881,-0.027290821,0.15898983
1732371765921,2024-11-23T14:22:45.921Z,29888,-0.09778115,-0.016612342,-0.016465303
1732371765926,2024-11-23T14:22:45.926Z,29893,-0.09778115,-0.016612342,-0.016465303
1732371765938,2024-11-23T14:22:45.938Z,29905,0.02296991,0.014925968,-0.03634938
1732371765942,2024-11-23T14:22:45.942Z,29909,0.02296991,0.014925968,-0.03634938
1732371765955,2024-11-23T14:22:45.955Z,29922,-0.052726086,0.013275675,-0.07211685
1732371765959,2024-11-23T14:22:45.959Z,29926,-0.052726086,0.013275675,-0.07211685
1732371765970,2024-11-23T14:22:45.970Z,29937,-0.12148457,-0.06115199,-0.14670366
1732371765974,2024-11-23T14:22:45.974Z,29941,-0.12148457,-0.06115199,-0.14670366
1732371765984,2024-11-23T14:22:45.984Z,29951,-0.075852565,-0.019891437,-0.11792257
1732371765987,2024-11-23T14:22:45.987Z,29954,-0.075852565,-0.019891437,-0.11792257
1732371765996,2024-11-23T14:22:45.996Z,29963,0.087799914,-0.013345401,-0.030654898
1732371765999,2024-11-23T14:22:45.999Z,29966,0.087799914,-0.013345401,-0.030654898
1732371766007,2024-11-23T14:22:46.007Z,29974,0.051562335,0.018378554,-0.035450123
1732371766010,2024-11-23T14:22:46.010Z,29977,0.051562335,0.018378554,-0.035450123
1732371766018,2024-11-23T14:22:46.018Z,29985,0.015432869,-0.018206522,0.015932057
1732371766021,2024-11-23T14:22:46.021Z,29988,0.015432869,-0.018206522,0.015932057
1732371766030,2024-11-23T14:22:46.030Z,29997,-0.08618994,-0.10817204,-0.018968957
1732371766032,2024-11-23T14:22:46.032Z,29999,-0.08618994,-0.10817204,-0.018968957
1732371766042,2024-11-23T14:22:46.042Z,30009,-0.038011745,-0.1480257,0.01767471
1732371766045,2024-11-23T14:22:46.045Z,30012,-0.038011745,-0.1480257,0.01767471
1732371766054,2024-11-23T14:22:46.054Z,30021,-7.98343E-6,-0.14350203,-0.012323875
1732371766058,2024-11-23T14:22:46.058Z,30025,-7.98343E-6,-0.14350203,-0.012323875
1732371766068,2024-11-23T14:22:46.068Z,30035,-0.0706751,0.10701129,-0.016452843
1732371766071,2024-11-23T14:22:46.071Z,30038,-0.0706751,0.10701129,-0.016452843
1732371766079,2024-11-23T14:22:46.079Z,30046,-0.06677193,-0.021780862,-0.0064893034
1732371766082,2024-11-23T14:22:46.082Z,30049,-0.06677193,-0.021780862,-0.0064893034
1732371766092,2024-11-23T14:22:46.092Z,30059,0.123278834,-0.07047435,0.049491126
1732371766095,2024-11-23T14:22:46.095Z,30062,0.123278834,-0.07047435,0.049491126
1732371766105,2024-11-23T14:22:46.105Z,30072,0.14883493,0.04549744,0.011721619
1732371766108,2024-11-23T14:22:46.108Z,30075,0.14883493,0.04549744,0.011721619
1732371766116,2024-11-23T14:22:46.116Z,30083,0.144342,0.14574555,0.045226093
1732371766119,2024-11-23T14:22:46.119Z,30086,0.144342,0.14574555,0.045226093
1732371766130,2024-11-23T14:22:46.130Z,30097,-0.030453986,0.19865213,-0.061155282
1732371766136,2024-11-23T14:22:46.136Z,30103,-0.030453986,0.19865213,-0.061155282
1732371766156,2024-11-23T14:22:46.156Z,30123,-0.07631728,0.116192445,-0.06716638
1732371766162,2024-11-23T14:22:46.162Z,30129,-0.07631728,0.116192445,-0.06716638
1732371766175,2024-11-23T14:22:46.175Z,30142,-0.08468176,0.13407397,-0.07553287
1732371766179,2024-11-23T14:22:46.179Z,30146,-0.08468176,0.13407397,-0.07553287
1732371766191,2024-11-23T14:22:46.191Z,30158,-0.09846099,0.10751474,-0.0853924
1732371766196,2024-11-23T14:22:46.196Z,30163,-0.09846099,0.10751474,-0.0853924
1732371766209,2024-11-23T14:22:46.209Z,30176,-0.10044916,-0.010568395,-0.03104868
1732371766212,2024-11-23T14:22:46.212Z,30179,-0.10044916,-0.010568395,-0.03104868
1732371766221,2024-11-23T14:22:46.221Z,30188,-0.14742464,-0.04595149,0.029680671
1732371766224,2024-11-23T14:22:46.224Z,30191,-0.14742464,-0.04595149,0.029680671
1732371766231,2024-11-23T14:22:46.231Z,30198,-0.16054454,-0.05109142,-0.016175382
1732371766234,2024-11-23T14:22:46.234Z,30201,-0.16054454,-0.05109142,-0.016175382
1732371766243,2024-11-23T14:22:46.243Z,30210,-0.089363396,0.04422466,0.046667013
1732371766246,2024-11-23T14:22:46.246Z,30213,-0.089363396,0.04422466,0.046667013
1732371766254,2024-11-23T14:22:46.254Z,30221,0.06918372,0.029848533,0.089053646
1732371766257,2024-11-23T14:22:46.257Z,30224,0.06918372,0.029848533,0.089053646
1732371766265,2024-11-23T14:22:46.265Z,30232,0.026886517,0.005224925,0.12368908
1732371766267,2024-11-23T14:22:46.267Z,30234,0.026886517,0.005224925,0.12368908
1732371766275,2024-11-23T14:22:46.275Z,30242,-0.12440726,0.650713,-0.0891224
1732371766278,2024-11-23T14:22:46.278Z,30245,-0.12440726,0.650713,-0.0891224
1732371766285,2024-11-23T14:22:46.285Z,30252,-0.16789512,0.46681994,-0.2181302
1732371766288,2024-11-23T14:22:46.288Z,30255,-0.16789512,0.46681994,-0.2181302
1732371766297,2024-11-23T14:22:46.297Z,30264,0.07234627,0.41341263,-0.22257948
1732371766299,2024-11-23T14:22:46.299Z,30266,0.07234627,0.41341263,-0.22257948
1732371766332,2024-11-23T14:22:46.332Z,30299,0.0196294,-0.26935545,-0.03720086
1732371766335,2024-11-23T14:22:46.335Z,30302,0.0196294,-0.26935545,-0.03720086
1732371766345,2024-11-23T14:22:46.345Z,30312,0.033427086,-0.36719853,0.0409091
1732371766348,2024-11-23T14:22:46.348Z,30315,0.033427086,-0.36719853,0.0409091
1732371766357,2024-11-23T14:22:46.357Z,30324,-0.01984607,-0.36070722,0.15293565
1732371766361,2024-11-23T14:22:46.361Z,30328,-0.01984607,-0.36070722,0.15293565
1732371766375,2024-11-23T14:22:46.375Z,30342,0.10642729,0.029783279,0.052728247
1732371766378,2024-11-23T14:22:46.378Z,30345,0.10642729,0.029783279,0.052728247
1732371766420,2024-11-23T14:22:46.420Z,30387,0.02869379,0.19458626,-0.0626369
1732371766423,2024-11-23T14:22:46.423Z,30390,0.02869379,0.19458626,-0.0626369
1732371766432,2024-11-23T14:22:46.432Z,30399,-0.06649982,0.15928379,-0.07359328
1732371766435,2024-11-23T14:22:46.435Z,30402,-0.06649982,0.15928379,-0.07359328
1732371766446,2024-11-23T14:22:46.446Z,30413,-0.05318479,0.15263437,-0.16446118
1732371766449,2024-11-23T14:22:46.449Z,30416,-0.05318479,0.15263437,-0.16446118
1732371766464,2024-11-23T14:22:46.464Z,30431,-0.033922587,0.15163428,-0.18288043
1732371766467,2024-11-23T14:22:46.467Z,30434,-0.033922587,0.15163428,-0.18288043
1732371766477,2024-11-23T14:22:46.477Z,30444,-0.03780081,0.07454679,-0.13988897
1732371766480,2024-11-23T14:22:46.480Z,30447,-0.03780081,0.07454679,-0.13988897
1732371766509,2024-11-23T14:22:46.509Z,30476,-0.03455243,-0.05306244,-0.07062477
1732371766512,2024-11-23T14:22:46.512Z,30479,-0.03455243,-0.05306244,-0.07062477
1732371766522,2024-11-23T14:22:46.522Z,30489,-0.033317685,-0.03771043,-0.0318394
1732371766526,2024-11-23T14:22:46.526Z,30493,-0.033317685,-0.03771043,-0.0318394
1732371766536,2024-11-23T14:22:46.536Z,30503,0.035408363,0.111100554,-0.1566923
1732371766540,2024-11-23T14:22:46.540Z,30507,0.035408363,0.111100554,-0.1566923
1732371766550,2024-11-23T14:22:46.550Z,30517,0.0451565,0.09652934,-0.1768728
1732371766554,2024-11-23T14:22:46.554Z,30521,0.0451565,0.09652934,-0.1768728
1732371766603,2024-11-23T14:22:46.603Z,30570,-0.04600101,0.071733706,-0.1910548
1732371766607,2024-11-23T14:22:46.607Z,30574,-0.04600101,0.071733706,-0.1910548
1732371766646,2024-11-23T14:22:46.646Z,30613,-0.08075463,-0.036798146,-0.1621366
1732371766650,2024-11-23T14:22:46.650Z,30617,-0.08075463,-0.036798146,-0.1621366
1732371766661,2024-11-23T14:22:46.661Z,30628,-0.14753574,-0.09764118,-0.12075638
1732371766665,2024-11-23T14:22:46.665Z,30632,-0.14753574,-0.09764118,-0.12075638
1732371766680,2024-11-23T14:22:46.680Z,30647,-0.11837672,-0.09501666,-0.11065617
1732371766684,2024-11-23T14:22:46.684Z,30651,-0.11837672,-0.09501666,-0.11065617
1732371766697,2024-11-23T14:22:46.697Z,30664,0.08387818,0.12067654,0.19695407
1732371766701,2024-11-23T14:22:46.701Z,30668,0.08387818,0.12067654,0.19695407
1732371766713,2024-11-23T14:22:46.713Z,30680,0.18560386,0.17018564,0.2571964
1732371766716,2024-11-23T14:22:46.716Z,30683,0.18560386,0.17018564,0.2571964
1732371766726,2024-11-23T14:22:46.726Z,30693,0.14211737,0.18432741,0.3368345
1732371766730,2024-11-23T14:22:46.730Z,30697,0.14211737,0.18432741,0.3368345
1732371766740,2024-11-23T14:22:46.740Z,30707,-0.14501101,0.098123915,0.027057681
1732371766743,2024-11-23T14:22:46.743Z,30710,-0.14501101,0.098123915,0.027057681
1732371766751,2024-11-23T14:22:46.751Z,30718,-0.11236303,0.31762898,-0.20118372
1732371766753,2024-11-23T14:22:46.753Z,30720,-0.11236303,0.31762898,-0.20118372
1732371766761,2024-11-23T14:22:46.761Z,30728,-0.05014723,0.35863543,-0.25588766
1732371766764,2024-11-23T14:22:46.764Z,30731,-0.05014723,0.35863543,-0.25588766
1732371766778,2024-11-23T14:22:46.778Z,30745,-0.05477807,0.37814987,-0.31193572
1732371766780,2024-11-23T14:22:46.780Z,30747,-0.05477807,0.37814987,-0.31193572
1732371766788,2024-11-23T14:22:46.788Z,30755,0.006007028,0.22731687,-0.32298613
1732371766791,2024-11-23T14:22:46.791Z,30758,0.006007028,0.22731687,-0.32298613
1732371766804,2024-11-23T14:22:46.804Z,30771,0.011910049,0.13215789,-0.26788867
1732371766810,2024-11-23T14:22:46.810Z,30777,0.011910049,0.13215789,-0.26788867
1732371766829,2024-11-23T14:22:46.829Z,30796,0.056943618,0.04382585,-0.23264371
1732371766836,2024-11-23T14:22:46.836Z,30803,0.056943618,0.04382585,-0.23264371
1732371766856,2024-11-23T14:22:46.856Z,30823,0.22073445,0.12233481,-0.16883299
1732371766862,2024-11-23T14:22:46.862Z,30829,0.22073445,0.12233481,-0.16883299
1732371766887,2024-11-23T14:22:46.887Z,30854,0.20338644,0.10953798,-0.16267987
1732371766894,2024-11-23T14:22:46.894Z,30861,0.20338644,0.10953798,-0.16267987
1732371766913,2024-11-23T14:22:46.913Z,30880,0.1564974,0.08499373,-0.11628582
1732371766918,2024-11-23T14:22:46.918Z,30885,0.1564974,0.08499373,-0.11628582
1732371766933,2024-11-23T14:22:46.933Z,30900,0.042698342,0.10905388,-0.07257264
1732371766941,2024-11-23T14:22:46.941Z,30908,0.042698342,0.10905388,-0.07257264
1732371766961,2024-11-23T14:22:46.961Z,30928,-3.650983E-4,0.09856192,-0.0320172
1732371766965,2024-11-23T14:22:46.965Z,30932,-3.650983E-4,0.09856192,-0.0320172
1732371766976,2024-11-23T14:22:46.976Z,30943,0.010555966,0.12316277,0.018713146
1732371766979,2024-11-23T14:22:46.979Z,30946,0.010555966,0.12316277,0.018713146
1732371766991,2024-11-23T14:22:46.991Z,30958,-0.08327197,0.1040039,0.15768476
1732371766994,2024-11-23T14:22:46.994Z,30961,-0.08327197,0.1040039,0.15768476
1732371767004,2024-11-23T14:22:47.004Z,30971,-0.015411423,0.23390968,0.16663416
1732371767007,2024-11-23T14:22:47.007Z,30974,-0.015411423,0.23390968,0.16663416
1732371767017,2024-11-23T14:22:47.017Z,30984,-0.031642765,0.27397656,0.1646661
1732371767020,2024-11-23T14:22:47.020Z,30987,-0.031642765,0.27397656,0.1646661
1732371767029,2024-11-23T14:22:47.029Z,30996,0.037723143,0.10809356,0.11097348
1732371767031,2024-11-23T14:22:47.031Z,30998,0.037723143,0.10809356,0.11097348
1732371767043,2024-11-23T14:22:47.043Z,31010,0.08454947,0.107652634,0.09458705
1732371767046,2024-11-23T14:22:47.046Z,31013,0.08454947,0.107652634,0.09458705
1732371767056,2024-11-23T14:22:47.056Z,31023,0.019385237,0.054460566,0.10078144
1732371767059,2024-11-23T14:22:47.059Z,31026,0.019385237,0.054460566,0.10078144
1732371767066,2024-11-23T14:22:47.066Z,31033,-0.07963248,0.036299948,0.106011935
1732371767068,2024-11-23T14:22:47.068Z,31035,-0.07963248,0.036299948,0.106011935
1732371767077,2024-11-23T14:22:47.077Z,31044,-0.092331864,0.12059524,0.024725623
1732371767079,2024-11-23T14:22:47.079Z,31046,-0.092331864,0.12059524,0.024725623
1732371767086,2024-11-23T14:22:47.086Z,31053,0.02667833,0.15846233,0.05618826
1732371767089,2024-11-23T14:22:47.089Z,31056,0.02667833,0.15846233,0.05618826
1732371767098,2024-11-23T14:22:47.098Z,31065,0.007941558,0.015900487,-0.003218884
1732371767101,2024-11-23T14:22:47.101Z,31068,0.007941558,0.015900487,-0.003218884
1732371767111,2024-11-23T14:22:47.111Z,31078,0.10196327,0.037708092,0.014108215
1732371767114,2024-11-23T14:22:47.114Z,31081,0.10196327,0.037708092,0.014108215
1732371767140,2024-11-23T14:22:47.140Z,31107,0.048796944,0.11610346,0.0054502846
1732371767143,2024-11-23T14:22:47.143Z,31110,0.048796944,0.11610346,0.0054502846
1732371767151,2024-11-23T14:22:47.151Z,31118,0.0043737767,0.1467574,0.036259
1732371767154,2024-11-23T14:22:47.154Z,31121,0.0043737767,0.1467574,0.036259
1732371767163,2024-11-23T14:22:47.163Z,31130,0.023058783,0.13767524,0.081968434
1732371767165,2024-11-23T14:22:47.165Z,31132,0.023058783,0.13767524,0.081968434
1732371767185,2024-11-23T14:22:47.185Z,31152,-0.043082584,0.21943203,0.088332385
1732371767188,2024-11-23T14:22:47.188Z,31155,-0.043082584,0.21943203,0.088332385
1732371767198,2024-11-23T14:22:47.198Z,31165,-0.02334542,0.15546466,0.22756289
1732371767201,2024-11-23T14:22:47.201Z,31168,-0.02334542,0.15546466,0.22756289
1732371767210,2024-11-23T14:22:47.210Z,31177,-0.08108608,0.1997436,0.1469169
1732371767212,2024-11-23T14:22:47.212Z,31179,-0.08108608,0.1997436,0.1469169
1732371767230,2024-11-23T14:22:47.230Z,31197,-0.112844,0.16934465,0.14410537
1732371767233,2024-11-23T14:22:47.233Z,31200,-0.112844,0.16934465,0.14410537
1732371767242,2024-11-23T14:22:47.242Z,31209,0.038152236,0.19145624,-0.08594828
1732371767245,2024-11-23T14:22:47.245Z,31212,0.038152236,0.19145624,-0.08594828
1732371767254,2024-11-23T14:22:47.254Z,31221,0.039772302,0.06218826,-0.26838785
1732371767257,2024-11-23T14:22:47.257Z,31224,0.039772302,0.06218826,-0.26838785
1732371767366,2024-11-23T14:22:47.366Z,31333,0.0020050535,-0.0017221598,-0.35674965
1732371767369,2024-11-23T14:22:47.369Z,31336,0.0020050535,-0.0017221598,-0.35674965
1732371767377,2024-11-23T14:22:47.377Z,31344,-0.05322811,-0.001276668,-0.293953
1732371767380,2024-11-23T14:22:47.380Z,31347,-0.05322811,-0.001276668,-0.293953
1732371767390,2024-11-23T14:22:47.390Z,31357,0.013678548,0.019318065,-0.27249417
1732371767393,2024-11-23T14:22:47.393Z,31360,0.013678548,0.019318065,-0.27249417
1732371767412,2024-11-23T14:22:47.412Z,31379,0.0029097367,0.0526292,-0.27303547
1732371767419,2024-11-23T14:22:47.419Z,31386,0.0029097367,0.0526292,-0.27303547
1732371767507,2024-11-23T14:22:47.507Z,31474,0.044205133,1.3507708E-4,-0.11501384
1732371767516,2024-11-23T14:22:47.516Z,31483,0.044205133,1.3507708E-4,-0.11501384
1732371767538,2024-11-23T14:22:47.538Z,31505,0.064891346,0.0063135163,0.048081737
1732371767543,2024-11-23T14:22:47.543Z,31510,0.064891346,0.0063135163,0.048081737
1732371767558,2024-11-23T14:22:47.558Z,31525,0.24547847,0.094341464,0.15955292
1732371767563,2024-11-23T14:22:47.563Z,31530,0.24547847,0.094341464,0.15955292
1732371767644,2024-11-23T14:22:47.644Z,31611,-0.18860677,-0.2276109,0.083066665
1732371767650,2024-11-23T14:22:47.650Z,31617,-0.18860677,-0.2276109,0.083066665
1732371767677,2024-11-23T14:22:47.677Z,31644,-0.11371639,-0.26930898,0.14373557
1732371767684,2024-11-23T14:22:47.684Z,31651,-0.11371639,-0.26930898,0.14373557
1732371767702,2024-11-23T14:22:47.702Z,31669,-0.22712873,-0.1181464,-0.24713802
1732371767706,2024-11-23T14:22:47.706Z,31673,-0.22712873,-0.1181464,-0.24713802
1732371767722,2024-11-23T14:22:47.722Z,31689,0.19967893,-0.072946,0.4122115
1732371767727,2024-11-23T14:22:47.727Z,31694,0.19967893,-0.072946,0.4122115
1732371767742,2024-11-23T14:22:47.742Z,31709,0.05479753,-0.058531504,0.24960142
1732371767746,2024-11-23T14:22:47.746Z,31713,0.05479753,-0.058531504,0.24960142
1732371767757,2024-11-23T14:22:47.757Z,31724,-0.089222625,-0.16290295,0.10178816
1732371767761,2024-11-23T14:22:47.761Z,31728,-0.089222625,-0.16290295,0.10178816
1732371767773,2024-11-23T14:22:47.773Z,31740,0.20768572,-0.29838517,0.024605421
1732371767777,2024-11-23T14:22:47.777Z,31744,0.20768572,-0.29838517,0.024605421
1732371767788,2024-11-23T14:22:47.788Z,31755,0.20675121,-0.3588718,0.16681182
1732371767794,2024-11-23T14:22:47.794Z,31761,0.20675121,-0.3588718,0.16681182
1732371767804,2024-11-23T14:22:47.804Z,31771,0.19156173,-0.44225052,0.37592503
1732371767808,2024-11-23T14:22:47.808Z,31775,0.19156173,-0.44225052,0.37592503
1732371767913,2024-11-23T14:22:47.913Z,31880,0.23533288,-0.11242142,0.30108562
1732371767920,2024-11-23T14:22:47.920Z,31887,0.23533288,-0.11242142,0.30108562
1732371767943,2024-11-23T14:22:47.943Z,31910,0.2684997,-0.09687263,0.38153294
1732371767949,2024-11-23T14:22:47.949Z,31916,0.2684997,-0.09687263,0.38153294
1732371767971,2024-11-23T14:22:47.971Z,31938,0.15329663,-0.39570546,0.17924076
1732371767977,2024-11-23T14:22:47.977Z,31944,0.15329663,-0.39570546,0.17924076
1732371768044,2024-11-23T14:22:48.044Z,32011,0.17807695,-0.3992276,0.19179185
1732371768051,2024-11-23T14:22:48.051Z,32018,0.17807695,-0.3992276,0.19179185
1732371768076,2024-11-23T14:22:48.076Z,32043,-0.10696977,0.010154314,0.041148327
1732371768083,2024-11-23T14:22:48.083Z,32050,-0.10696977,0.010154314,0.041148327
1732371768097,2024-11-23T14:22:48.097Z,32064,-0.0422089,0.06641696,0.23930581
1732371768101,2024-11-23T14:22:48.101Z,32068,-0.0422089,0.06641696,0.23930581
1732371768129,2024-11-23T14:22:48.129Z,32096,-0.054406863,0.066741884,0.3714888
1732371768134,2024-11-23T14:22:48.134Z,32101,-0.054406863,0.066741884,0.3714888
1732371768148,2024-11-23T14:22:48.148Z,32115,0.16473797,-0.2010138,-0.012290069
1732371768153,2024-11-23T14:22:48.153Z,32120,0.16473797,-0.2010138,-0.012290069
1732371768166,2024-11-23T14:22:48.166Z,32133,0.17996734,-0.22690912,-0.05076851
1732371768169,2024-11-23T14:22:48.169Z,32136,0.17996734,-0.22690912,-0.05076851
1732371768182,2024-11-23T14:22:48.182Z,32149,0.06905225,-0.22281411,0.0137283625
1732371768186,2024-11-23T14:22:48.186Z,32153,0.06905225,-0.22281411,0.0137283625
1732371768196,2024-11-23T14:22:48.196Z,32163,-0.2510757,-0.010188205,-0.27636117
1732371768199,2024-11-23T14:22:48.199Z,32166,-0.2510757,-0.010188205,-0.27636117
1732371768209,2024-11-23T14:22:48.209Z,32176,-0.25504756,-0.11685553,-0.20039414
1732371768212,2024-11-23T14:22:48.212Z,32179,-0.25504756,-0.11685553,-0.20039414
1732371768222,2024-11-23T14:22:48.222Z,32189,-0.16154592,-0.2745222,0.012765075
1732371768225,2024-11-23T14:22:48.225Z,32192,-0.16154592,-0.2745222,0.012765075
1732371768234,2024-11-23T14:22:48.234Z,32201,-0.065970294,-0.12507145,0.0010191074
1732371768237,2024-11-23T14:22:48.237Z,32204,-0.065970294,-0.12507145,0.0010191074
1732371768245,2024-11-23T14:22:48.245Z,32212,-0.0928885,0.028200816,-9.024588E-4
1732371768249,2024-11-23T14:22:48.249Z,32216,-0.0928885,0.028200816,-9.024588E-4
1732371768363,2024-11-23T14:22:48.363Z,32330,-0.09895495,0.02920592,-0.11945773
1732371768369,2024-11-23T14:22:48.369Z,32336,-0.09895495,0.02920592,-0.11945773
1732371768391,2024-11-23T14:22:48.391Z,32358,-0.12665063,-0.012269355,-0.116545506
1732371768400,2024-11-23T14:22:48.400Z,32367,-0.12665063,-0.012269355,-0.116545506
1732371768424,2024-11-23T14:22:48.424Z,32391,-0.08954754,-0.08244471,-0.05250652
1732371768430,2024-11-23T14:22:48.430Z,32397,-0.08954754,-0.08244471,-0.05250652
1732371768451,2024-11-23T14:22:48.451Z,32418,-0.054801617,-0.22358942,-0.10645148
1732371768455,2024-11-23T14:22:48.455Z,32422,-0.054801617,-0.22358942,-0.10645148
1732371768469,2024-11-23T14:22:48.469Z,32436,0.09807712,-0.07801654,0.00957822
1732371768472,2024-11-23T14:22:48.472Z,32439,0.09807712,-0.07801654,0.00957822
1732371768485,2024-11-23T14:22:48.485Z,32452,0.15973842,0.085327335,0.06910865
1732371768490,2024-11-23T14:22:48.490Z,32457,0.15973842,0.085327335,0.06910865
1732371768502,2024-11-23T14:22:48.502Z,32469,-0.11310169,0.0641373,0.17868091
1732371768505,2024-11-23T14:22:48.505Z,32472,-0.11310169,0.0641373,0.17868091
1732371768580,2024-11-23T14:22:48.580Z,32547,-0.21499527,0.0013643855,0.15228501
1732371768583,2024-11-23T14:22:48.583Z,32550,-0.21499527,0.0013643855,0.15228501
1732371768593,2024-11-23T14:22:48.593Z,32560,-0.15601549,-0.2193889,0.14420757
1732371768596,2024-11-23T14:22:48.596Z,32563,-0.15601549,-0.2193889,0.14420757
1732371768606,2024-11-23T14:22:48.606Z,32573,0.050944336,0.07331914,-0.024219615
1732371768610,2024-11-23T14:22:48.610Z,32577,0.050944336,0.07331914,-0.024219615
1732371768719,2024-11-23T14:22:48.719Z,32686,0.16710186,0.079159155,0.2059831
1732371768726,2024-11-23T14:22:48.726Z,32693,0.16710186,0.079159155,0.2059831
1732371768747,2024-11-23T14:22:48.747Z,32714,0.2040645,0.06557598,0.35651633
1732371768752,2024-11-23T14:22:48.752Z,32719,0.2040645,0.06557598,0.35651633
1732371768813,2024-11-23T14:22:48.813Z,32780,-0.08483763,0.22257376,-0.19336995
1732371768820,2024-11-23T14:22:48.820Z,32787,-0.08483763,0.22257376,-0.19336995
1732371768853,2024-11-23T14:22:48.853Z,32820,-0.1422321,-0.004712235,-0.14174512
1732371768860,2024-11-23T14:22:48.860Z,32827,-0.1422321,-0.004712235,-0.14174512
1732371768884,2024-11-23T14:22:48.884Z,32851,0.28214332,-0.2088137,0.1548402
1732371768890,2024-11-23T14:22:48.890Z,32857,0.28214332,-0.2088137,0.1548402
1732371769082,2024-11-23T14:22:49.082Z,33049,0.3338354,-0.0091830045,0.08192517
1732371769092,2024-11-23T14:22:49.092Z,33059,0.3338354,-0.0091830045,0.08192517
1732371769126,2024-11-23T14:22:49.126Z,33093,0.26796886,0.18251699,0.12263246
1732371769134,2024-11-23T14:22:49.134Z,33101,0.26796886,0.18251699,0.12263246
1732371769162,2024-11-23T14:22:49.162Z,33129,-0.3349207,-0.3714107,-0.035776682
1732371769168,2024-11-23T14:22:49.168Z,33135,-0.3349207,-0.3714107,-0.035776682
1732371769186,2024-11-23T14:22:49.186Z,33153,-0.31681818,-0.279142,-0.08766425
1732371769190,2024-11-23T14:22:49.190Z,33157,-0.31681818,-0.279142,-0.08766425
1732371769202,2024-11-23T14:22:49.202Z,33169,0.24299656,0.35457432,0.18782474
1732371769206,2024-11-23T14:22:49.206Z,33173,0.24299656,0.35457432,0.18782474
1732371769219,2024-11-23T14:22:49.219Z,33186,0.011353512,-0.049956832,-0.017280651
1732371769223,2024-11-23T14:22:49.223Z,33190,0.011353512,-0.049956832,-0.017280651
1732371769235,2024-11-23T14:22:49.235Z,33202,-0.16273612,-0.36971363,-0.26241687
1732371769245,2024-11-23T14:22:49.245Z,33212,-0.16273612,-0.36971363,-0.26241687
1732371769256,2024-11-23T14:22:49.256Z,33223,-0.09361427,0.03203476,-0.09469461
1732371769260,2024-11-23T14:22:49.260Z,33227,-0.09361427,0.03203476,-0.09469461
1732371769269,2024-11-23T14:22:49.269Z,33236,0.04309535,-0.12666097,0.060209014
1732371769271,2024-11-23T14:22:49.271Z,33238,0.04309535,-0.12666097,0.060209014
1732371769279,2024-11-23T14:22:49.279Z,33246,0.16208628,0.12250995,0.109022416
1732371769281,2024-11-23T14:22:49.281Z,33248,0.16208628,0.12250995,0.109022416
1732371769289,2024-11-23T14:22:49.289Z,33256,0.22825682,0.3186415,0.20731603
1732371769293,2024-11-23T14:22:49.293Z,33260,0.22825682,0.3186415,0.20731603
1732371769303,2024-11-23T14:22:49.303Z,33270,0.02425057,0.6386098,0.09630115
1732371769305,2024-11-23T14:22:49.305Z,33272,0.02425057,0.6386098,0.09630115
1732371769352,2024-11-23T14:22:49.352Z,33319,-0.226783,-0.014782625,-0.24669856
1732371769359,2024-11-23T14:22:49.359Z,33326,-0.226783,-0.014782625,-0.24669856
1732371769442,2024-11-23T14:22:49.442Z,33409,-0.18930204,-0.08495502,-0.33139175
1732371769449,2024-11-23T14:22:49.449Z,33416,-0.18930204,-0.08495502,-0.33139175
1732371769472,2024-11-23T14:22:49.472Z,33439,-0.1136125,-0.06136846,-0.22226717
1732371769479,2024-11-23T14:22:49.479Z,33446,-0.1136125,-0.06136846,-0.22226717
1732371769496,2024-11-23T14:22:49.496Z,33463,0.066915534,-0.1622121,0.014623406
1732371769502,2024-11-23T14:22:49.502Z,33469,0.066915534,-0.1622121,0.014623406
1732371769524,2024-11-23T14:22:49.524Z,33491,0.089711346,-0.07678787,0.008854502
1732371769530,2024-11-23T14:22:49.530Z,33497,0.089711346,-0.07678787,0.008854502
1732371769544,2024-11-23T14:22:49.544Z,33511,0.078796156,-0.034829367,0.047729056
1732371769547,2024-11-23T14:22:49.547Z,33514,0.078796156,-0.034829367,0.047729056
1732371769559,2024-11-23T14:22:49.559Z,33526,0.00497433,0.01150917,0.15842304
1732371769563,2024-11-23T14:22:49.563Z,33530,0.00497433,0.01150917,0.15842304
1732371769619,2024-11-23T14:22:49.619Z,33586,-0.14500932,0.044567753,0.042905595
1732371769625,2024-11-23T14:22:49.625Z,33592,-0.14500932,0.044567753,0.042905595
1732371769646,2024-11-23T14:22:49.646Z,33613,-0.1808861,0.036331844,0.075443536
1732371769653,2024-11-23T14:22:49.653Z,33620,-0.1808861,0.036331844,0.075443536
1732371769676,2024-11-23T14:22:49.676Z,33643,-0.2027144,-0.118140124,0.14029588
1732371769681,2024-11-23T14:22:49.681Z,33648,-0.2027144,-0.118140124,0.14029588
1732371769695,2024-11-23T14:22:49.695Z,33662,0.14880063,-0.0909728,0.03540602
1732371769698,2024-11-23T14:22:49.698Z,33665,0.14880063,-0.0909728,0.03540602
1732371769711,2024-11-23T14:22:49.711Z,33678,0.086369805,-0.079401106,-0.03824079
1732371769715,2024-11-23T14:22:49.715Z,33682,0.086369805,-0.079401106,-0.03824079
1732371769725,2024-11-23T14:22:49.725Z,33692,0.052452456,-0.057129726,-0.047115825
1732371769728,2024-11-23T14:22:49.728Z,33695,0.052452456,-0.057129726,-0.047115825
1732371769738,2024-11-23T14:22:49.738Z,33705,-0.11393399,0.15656328,-0.13563406
1732371769741,2024-11-23T14:22:49.741Z,33708,-0.11393399,0.15656328,-0.13563406
1732371769751,2024-11-23T14:22:49.751Z,33718,-0.11797979,0.14468807,-0.15790632
1732371769754,2024-11-23T14:22:49.754Z,33721,-0.11797979,0.14468807,-0.15790632
1732371769762,2024-11-23T14:22:49.762Z,33729,-0.07768153,0.09331803,-0.14230226
1732371769765,2024-11-23T14:22:49.765Z,33732,-0.07768153,0.09331803,-0.14230226
1732371769772,2024-11-23T14:22:49.772Z,33739,-0.11428616,0.051255964,-0.07219644
1732371769775,2024-11-23T14:22:49.775Z,33742,-0.11428616,0.051255964,-0.07219644
1732371769795,2024-11-23T14:22:49.795Z,33762,-0.15693082,0.02174566,-0.08201598
1732371769798,2024-11-23T14:22:49.798Z,33765,-0.15693082,0.02174566,-0.08201598
1732371769805,2024-11-23T14:22:49.805Z,33772,-0.08460534,-0.0019795746,-0.052041262
1732371769807,2024-11-23T14:22:49.807Z,33774,-0.08460534,-0.0019795746,-0.052041262
1732371769820,2024-11-23T14:22:49.820Z,33787,0.007399558,0.11043207,-0.057977214
1732371769827,2024-11-23T14:22:49.827Z,33794,0.007399558,0.11043207,-0.057977214
1732371769852,2024-11-23T14:22:49.852Z,33819,0.029702004,0.16804531,-0.05787513
1732371769859,2024-11-23T14:22:49.859Z,33826,0.029702004,0.16804531,-0.05787513
1732371769875,2024-11-23T14:22:49.875Z,33842,-0.005185596,0.08611256,0.03936833
1732371769880,2024-11-23T14:22:49.880Z,33847,-0.005185596,0.08611256,0.03936833
1732371769893,2024-11-23T14:22:49.893Z,33860,0.056771126,-0.034397393,0.05830467
1732371769897,2024-11-23T14:22:49.897Z,33864,0.056771126,-0.034397393,0.05830467
1732371769914,2024-11-23T14:22:49.914Z,33881,0.010236946,-0.023228979,0.010040219
1732371769921,2024-11-23T14:22:49.921Z,33888,0.010236946,-0.023228979,0.010040219
1732371769947,2024-11-23T14:22:49.947Z,33914,-0.02472567,0.036795814,-0.064366356
1732371769953,2024-11-23T14:22:49.953Z,33920,-0.02472567,0.036795814,-0.064366356
1732371769972,2024-11-23T14:22:49.972Z,33939,0.0040663704,-0.0383509,-0.016331004
1732371769979,2024-11-23T14:22:49.979Z,33946,0.0040663704,-0.0383509,-0.016331004
1732371769999,2024-11-23T14:22:49.999Z,33966,-0.03871008,-0.08651546,0.046861485
1732371770005,2024-11-23T14:22:50.005Z,33972,-0.03871008,-0.08651546,0.046861485
1732371770018,2024-11-23T14:22:50.018Z,33985,-0.018773098,-0.12140181,0.027558714
1732371770023,2024-11-23T14:22:50.023Z,33990,-0.018773098,-0.12140181,0.027558714
1732371770036,2024-11-23T14:22:50.036Z,34003,0.022122758,-0.11705299,0.059751526
1732371770040,2024-11-23T14:22:50.040Z,34007,0.022122758,-0.11705299,0.059751526
1732371770055,2024-11-23T14:22:50.055Z,34022,0.060994163,-0.026062096,0.07586202
1732371770063,2024-11-23T14:22:50.063Z,34030,0.060994163,-0.026062096,0.07586202
1732371770085,2024-11-23T14:22:50.085Z,34052,-0.010390465,0.2639436,0.0640526
1732371770090,2024-11-23T14:22:50.090Z,34057,-0.010390465,0.2639436,0.0640526
1732371770113,2024-11-23T14:22:50.113Z,34080,-0.18638028,0.3621394,-0.042417947
1732371770120,2024-11-23T14:22:50.120Z,34087,-0.18638028,0.3621394,-0.042417947
1732371770141,2024-11-23T14:22:50.141Z,34108,-0.0722297,0.21185848,-0.12865081
1732371770148,2024-11-23T14:22:50.148Z,34115,-0.0722297,0.21185848,-0.12865081
1732371770169,2024-11-23T14:22:50.169Z,34136,-0.16057959,0.11448176,-0.040530805
1732371770175,2024-11-23T14:22:50.175Z,34142,-0.16057959,0.11448176,-0.040530805
1732371770184,2024-11-23T14:22:50.184Z,34151,-0.16014037,0.0590845,-0.0674539
1732371770187,2024-11-23T14:22:50.187Z,34154,-0.16014037,0.0590845,-0.0674539
1732371770195,2024-11-23T14:22:50.195Z,34162,-0.014297675,-0.07331943,-0.090894096
1732371770199,2024-11-23T14:22:50.199Z,34166,-0.014297675,-0.07331943,-0.090894096
1732371770208,2024-11-23T14:22:50.208Z,34175,0.032625694,0.021543287,0.046506967
1732371770210,2024-11-23T14:22:50.210Z,34177,0.032625694,0.021543287,0.046506967
1732371770219,2024-11-23T14:22:50.219Z,34186,-0.07042007,0.09599682,0.0059201247
1732371770221,2024-11-23T14:22:50.221Z,34188,-0.07042007,0.09599682,0.0059201247
1732371770230,2024-11-23T14:22:50.230Z,34197,-0.012552799,-0.035542194,-0.0636104
1732371770232,2024-11-23T14:22:50.232Z,34199,-0.012552799,-0.035542194,-0.0636104
1732371770239,2024-11-23T14:22:50.239Z,34206,-0.067145646,-0.008995997,-0.15843728
1732371770242,2024-11-23T14:22:50.242Z,34209,-0.067145646,-0.008995997,-0.15843728
1732371770251,2024-11-23T14:22:50.251Z,34218,-0.029724414,-0.020405002,-0.1872582
1732371770254,2024-11-23T14:22:50.254Z,34221,-0.029724414,-0.020405002,-0.1872582
1732371770264,2024-11-23T14:22:50.264Z,34231,0.060607925,-0.11333492,-0.032006312
1732371770266,2024-11-23T14:22:50.266Z,34233,0.060607925,-0.11333492,-0.032006312
1732371770278,2024-11-23T14:22:50.278Z,34245,0.05647013,-0.08989024,0.02471587
1732371770283,2024-11-23T14:22:50.283Z,34250,0.05647013,-0.08989024,0.02471587
1732371770299,2024-11-23T14:22:50.299Z,34266,-0.007120733,-0.029489495,0.04662216
1732371770304,2024-11-23T14:22:50.304Z,34271,-0.007120733,-0.029489495,0.04662216
1732371770322,2024-11-23T14:22:50.322Z,34289,0.037562806,0.11216337,0.070712894
1732371770328,2024-11-23T14:22:50.328Z,34295,0.037562806,0.11216337,0.070712894
1732371770345,2024-11-23T14:22:50.345Z,34312,-0.075723164,0.15940243,0.051560204
1732371770348,2024-11-23T14:22:50.348Z,34315,-0.075723164,0.15940243,0.051560204
1732371770359,2024-11-23T14:22:50.359Z,34326,-0.13997243,0.039393883,0.090551674
1732371770363,2024-11-23T14:22:50.363Z,34330,-0.13997243,0.039393883,0.090551674
1732371770373,2024-11-23T14:22:50.373Z,34340,-0.17225704,0.103329584,0.056758627
1732371770376,2024-11-23T14:22:50.376Z,34343,-0.17225704,0.103329584,0.056758627
1732371770386,2024-11-23T14:22:50.386Z,34353,-0.10755048,0.06955672,0.082853034
1732371770389,2024-11-23T14:22:50.389Z,34356,-0.10755048,0.06955672,0.082853034
1732371770398,2024-11-23T14:22:50.398Z,34365,-0.18632121,0.08128159,0.039588183
1732371770401,2024-11-23T14:22:50.401Z,34368,-0.18632121,0.08128159,0.039588183
1732371770410,2024-11-23T14:22:50.410Z,34377,-0.076528005,0.04631792,0.0068113273
1732371770413,2024-11-23T14:22:50.413Z,34380,-0.076528005,0.04631792,0.0068113273
1732371770421,2024-11-23T14:22:50.421Z,34388,-0.121896215,0.056661088,0.0043773144
1732371770423,2024-11-23T14:22:50.423Z,34390,-0.121896215,0.056661088,0.0043773144
1732371770431,2024-11-23T14:22:50.431Z,34398,-0.055975005,-0.017110832,0.06479824
1732371770433,2024-11-23T14:22:50.433Z,34400,-0.055975005,-0.017110832,0.06479824
1732371770440,2024-11-23T14:22:50.440Z,34407,-0.029150944,-0.042216595,0.08227329
1732371770442,2024-11-23T14:22:50.442Z,34409,-0.029150944,-0.042216595,0.08227329
1732371770450,2024-11-23T14:22:50.450Z,34417,0.0065894746,-0.077428244,0.054886416
1732371770452,2024-11-23T14:22:50.452Z,34419,0.0065894746,-0.077428244,0.054886416
1732371770460,2024-11-23T14:22:50.460Z,34427,0.049923904,-0.06354214,-0.03664824
1732371770462,2024-11-23T14:22:50.462Z,34429,0.049923904,-0.06354214,-0.03664824
1732371770472,2024-11-23T14:22:50.472Z,34439,0.06658403,-0.08564966,-0.01019776
1732371770474,2024-11-23T14:22:50.474Z,34441,0.06658403,-0.08564966,-0.01019776
1732371770481,2024-11-23T14:22:50.481Z,34448,0.13727792,-0.09352371,0.025766147
1732371770483,2024-11-23T14:22:50.483Z,34450,0.13727792,-0.09352371,0.025766147
1732371770490,2024-11-23T14:22:50.490Z,34457,0.21494988,-0.023389146,-0.09674788
1732371770492,2024-11-23T14:22:50.492Z,34459,0.21494988,-0.023389146,-0.09674788
1732371770500,2024-11-23T14:22:50.500Z,34467,0.11033878,0.03792933,-0.1031928
1732371770502,2024-11-23T14:22:50.502Z,34469,0.11033878,0.03792933,-0.1031928
1732371770511,2024-11-23T14:22:50.511Z,34478,0.04023082,0.009951359,-0.09235659
1732371770515,2024-11-23T14:22:50.515Z,34482,0.04023082,0.009951359,-0.09235659
1732371770525,2024-11-23T14:22:50.525Z,34492,0.13229394,-0.013182803,-0.07776084
1732371770528,2024-11-23T14:22:50.528Z,34495,0.13229394,-0.013182803,-0.07776084
1732371770536,2024-11-23T14:22:50.536Z,34503,0.09222543,-0.0065901857,-0.12262609
1732371770539,2024-11-23T14:22:50.539Z,34506,0.09222543,-0.0065901857,-0.12262609
1732371770546,2024-11-23T14:22:50.546Z,34513,0.040825963,0.038842585,-0.071383424
1732371770548,2024-11-23T14:22:50.548Z,34515,0.040825963,0.038842585,-0.071383424
1732371770563,2024-11-23T14:22:50.563Z,34530,-0.11668308,0.042333096,-0.03701066
1732371770568,2024-11-23T14:22:50.568Z,34535,-0.11668308,0.042333096,-0.03701066
1732371770583,2024-11-23T14:22:50.583Z,34550,-0.016321864,0.047602076,0.07574627
1732371770587,2024-11-23T14:22:50.587Z,34554,-0.016321864,0.047602076,0.07574627
1732371770601,2024-11-23T14:22:50.601Z,34568,-0.015190208,0.07462216,0.09786482
1732371770606,2024-11-23T14:22:50.606Z,34573,-0.015190208,0.07462216,0.09786482
1732371770623,2024-11-23T14:22:50.623Z,34590,-0.05068254,0.12354243,0.097234875
1732371770628,2024-11-23T14:22:50.628Z,34595,-0.05068254,0.12354243,0.097234875
1732371770638,2024-11-23T14:22:50.638Z,34605,-0.32494798,0.063767664,0.19441724
1732371770641,2024-11-23T14:22:50.641Z,34608,-0.32494798,0.063767664,0.19441724
1732371770652,2024-11-23T14:22:50.652Z,34619,-0.18311436,0.039564747,0.2264247
1732371770655,2024-11-23T14:22:50.655Z,34622,-0.18311436,0.039564747,0.2264247
1732371770665,2024-11-23T14:22:50.665Z,34632,-0.079059094,0.06421004,0.2273485
1732371770669,2024-11-23T14:22:50.669Z,34636,-0.079059094,0.06421004,0.2273485
1732371770680,2024-11-23T14:22:50.680Z,34647,-0.15019958,0.16551785,0.034283247
1732371770683,2024-11-23T14:22:50.683Z,34650,-0.15019958,0.16551785,0.034283247
1732371770695,2024-11-23T14:22:50.695Z,34662,-0.07429742,0.16622931,0.030664781
1732371770698,2024-11-23T14:22:50.698Z,34665,-0.07429742,0.16622931,0.030664781
1732371770706,2024-11-23T14:22:50.706Z,34673,-0.07331052,0.11494106,0.0133971125
1732371770709,2024-11-23T14:22:50.709Z,34676,-0.07331052,0.11494106,0.0133971125
1732371770739,2024-11-23T14:22:50.739Z,34706,0.06759661,-0.013965258,-0.19709466
1732371770742,2024-11-23T14:22:50.742Z,34709,0.06759661,-0.013965258,-0.19709466
1732371770753,2024-11-23T14:22:50.753Z,34720,0.096416414,0.008103069,-0.19566654
1732371770756,2024-11-23T14:22:50.756Z,34723,0.096416414,0.008103069,-0.19566654
1732371770765,2024-11-23T14:22:50.765Z,34732,0.12899606,0.06575083,-0.23009962
1732371770768,2024-11-23T14:22:50.768Z,34735,0.12899606,0.06575083,-0.23009962
1732371770786,2024-11-23T14:22:50.786Z,34753,-0.0053020525,0.21366076,-0.2728849
1732371770789,2024-11-23T14:22:50.789Z,34756,-0.0053020525,0.21366076,-0.2728849
1732371770798,2024-11-23T14:22:50.798Z,34765,-0.11728327,0.23867443,-0.29406434
1732371770801,2024-11-23T14:22:50.801Z,34768,-0.11728327,0.23867443,-0.29406434
1732371770810,2024-11-23T14:22:50.810Z,34777,-0.18463463,0.20329824,-0.29978257
1732371770812,2024-11-23T14:22:50.812Z,34779,-0.18463463,0.20329824,-0.29978257
1732371770830,2024-11-23T14:22:50.830Z,34797,-0.10238493,0.1943093,-0.20775826
1732371770832,2024-11-23T14:22:50.832Z,34799,-0.10238493,0.1943093,-0.20775826
1732371770840,2024-11-23T14:22:50.840Z,34807,0.006220209,0.25134358,-0.03857237
1732371770843,2024-11-23T14:22:50.843Z,34810,0.006220209,0.25134358,-0.03857237
1732371770850,2024-11-23T14:22:50.850Z,34817,0.030364845,0.25188377,-0.02436522
1732371770853,2024-11-23T14:22:50.853Z,34820,0.030364845,0.25188377,-0.02436522
1732371770873,2024-11-23T14:22:50.873Z,34840,0.06946205,0.32478175,-0.002526362
1732371770876,2024-11-23T14:22:50.876Z,34843,0.06946205,0.32478175,-0.002526362
1732371770884,2024-11-23T14:22:50.884Z,34851,-0.046794582,0.2920095,0.02078856
1732371770886,2024-11-23T14:22:50.886Z,34853,-0.046794582,0.2920095,0.02078856
1732371770894,2024-11-23T14:22:50.894Z,34861,-0.11609436,0.17501137,0.06193217
1732371770897,2024-11-23T14:22:50.897Z,34864,-0.11609436,0.17501137,0.06193217
1732371770967,2024-11-23T14:22:50.967Z,34934,-0.08102669,0.20346984,-0.0194065
1732371770971,2024-11-23T14:22:50.971Z,34938,-0.08102669,0.20346984,-0.0194065
1732371770982,2024-11-23T14:22:50.982Z,34949,0.024767982,0.2949134,-0.05707123
1732371770986,2024-11-23T14:22:50.986Z,34953,0.024767982,0.2949134,-0.05707123
1732371771011,2024-11-23T14:22:51.011Z,34978,0.038020328,0.29937613,-0.07949304
1732371771015,2024-11-23T14:22:51.015Z,34982,0.038020328,0.29937613,-0.07949304
1732371771029,2024-11-23T14:22:51.029Z,34996,0.12825215,-0.05724506,-0.05386462
1732371771033,2024-11-23T14:22:51.033Z,35000,0.12825215,-0.05724506,-0.05386462
1732371771046,2024-11-23T14:22:51.046Z,35013,0.069819756,-0.084928274,-0.07371958
1732371771050,2024-11-23T14:22:51.050Z,35017,0.069819756,-0.084928274,-0.07371958
1732371771064,2024-11-23T14:22:51.064Z,35031,0.02625189,0.06494844,-0.14308521
1732371771070,2024-11-23T14:22:51.070Z,35037,0.02625189,0.06494844,-0.14308521
1732371771092,2024-11-23T14:22:51.092Z,35059,-0.06279932,0.0064026923,0.073487796
1732371771098,2024-11-23T14:22:51.098Z,35065,-0.06279932,0.0064026923,0.073487796
1732371771119,2024-11-23T14:22:51.119Z,35086,-0.1044296,-0.1213951,0.113931835
1732371771125,2024-11-23T14:22:51.125Z,35092,-0.1044296,-0.1213951,0.113931835
1732371771142,2024-11-23T14:22:51.142Z,35109,0.05333478,0.1765892,0.12765211
1732371771149,2024-11-23T14:22:51.149Z,35116,0.05333478,0.1765892,0.12765211
1732371771167,2024-11-23T14:22:51.167Z,35134,0.007782996,0.21157344,0.12580101
1732371771170,2024-11-23T14:22:51.170Z,35137,0.007782996,0.21157344,0.12580101
1732371771183,2024-11-23T14:22:51.183Z,35150,-0.03591856,0.05026326,0.14133117
1732371771186,2024-11-23T14:22:51.186Z,35153,-0.03591856,0.05026326,0.14133117
1732371771198,2024-11-23T14:22:51.198Z,35165,-0.090255104,0.032545116,0.12495356
1732371771201,2024-11-23T14:22:51.201Z,35168,-0.090255104,0.032545116,0.12495356
1732371771212,2024-11-23T14:22:51.212Z,35179,0.0380109,0.17706893,0.14820452
1732371771215,2024-11-23T14:22:51.215Z,35182,0.0380109,0.17706893,0.14820452
1732371771225,2024-11-23T14:22:51.225Z,35192,0.18686476,0.3698883,0.20984165
1732371771227,2024-11-23T14:22:51.227Z,35194,0.18686476,0.3698883,0.20984165
1732371771237,2024-11-23T14:22:51.237Z,35204,0.07110999,0.20596322,0.2306898
1732371771239,2024-11-23T14:22:51.239Z,35206,0.07110999,0.20596322,0.2306898
1732371771248,2024-11-23T14:22:51.248Z,35215,-0.033369813,-0.033087272,0.0843986
1732371771251,2024-11-23T14:22:51.251Z,35218,-0.033369813,-0.033087272,0.0843986
1732371771259,2024-11-23T14:22:51.259Z,35226,-0.06877516,-0.06853134,0.038794994
1732371771261,2024-11-23T14:22:51.261Z,35228,-0.06877516,-0.06853134,0.038794994
1732371771281,2024-11-23T14:22:51.281Z,35248,-0.02676747,0.16994835,-0.1731609
1732371771284,2024-11-23T14:22:51.284Z,35251,-0.02676747,0.16994835,-0.1731609
1732371771292,2024-11-23T14:22:51.292Z,35259,-0.08982043,-0.03950144,-0.14618714
1732371771295,2024-11-23T14:22:51.295Z,35262,-0.08982043,-0.03950144,-0.14618714
1732371771326,2024-11-23T14:22:51.326Z,35293,-0.17873663,-0.12456761,-0.21898162
1732371771329,2024-11-23T14:22:51.329Z,35296,-0.17873663,-0.12456761,-0.21898162
1732371771342,2024-11-23T14:22:51.342Z,35309,0.23285046,-0.025420163,0.20778024
1732371771345,2024-11-23T14:22:51.345Z,35312,0.23285046,-0.025420163,0.20778024
1732371771416,2024-11-23T14:22:51.416Z,35383,0.03871221,0.044519905,0.24616034
1732371771419,2024-11-23T14:22:51.419Z,35386,0.03871221,0.044519905,0.24616034
1732371771431,2024-11-23T14:22:51.431Z,35398,0.1649042,0.027631577,0.27381092
1732371771437,2024-11-23T14:22:51.437Z,35404,0.1649042,0.027631577,0.27381092
1732371771458,2024-11-23T14:22:51.458Z,35425,0.14355892,-0.03574077,0.3119946
1732371771467,2024-11-23T14:22:51.467Z,35434,0.14355892,-0.03574077,0.3119946
1732371771507,2024-11-23T14:22:51.507Z,35474,0.1809073,-0.07458841,0.3008716
1732371771513,2024-11-23T14:22:51.513Z,35480,0.1809073,-0.07458841,0.3008716
1732371771529,2024-11-23T14:22:51.529Z,35496,-0.06026687,-0.01158337,0.050889414
1732371771533,2024-11-23T14:22:51.533Z,35500,-0.06026687,-0.01158337,0.050889414
1732371771546,2024-11-23T14:22:51.546Z,35513,-0.030898085,-0.052729752,0.04312457
1732371771550,2024-11-23T14:22:51.550Z,35517,-0.030898085,-0.052729752,0.04312457
1732371771562,2024-11-23T14:22:51.562Z,35529,-0.026421146,-0.16482359,0.15424044
1732371771565,2024-11-23T14:22:51.565Z,35532,-0.026421146,-0.16482359,0.15424044
1732371771581,2024-11-23T14:22:51.581Z,35548,-0.05544593,-0.16541846,-0.041996766
1732371771583,2024-11-23T14:22:51.583Z,35550,-0.05544593,-0.16541846,-0.041996766
1732371771591,2024-11-23T14:22:51.591Z,35558,-0.074012406,-0.20780534,-0.03039633
1732371771593,2024-11-23T14:22:51.593Z,35560,-0.074012406,-0.20780534,-0.03039633
1732371771602,2024-11-23T14:22:51.602Z,35569,-0.03720028,-0.20609115,0.031910717
1732371771604,2024-11-23T14:22:51.604Z,35571,-0.03720028,-0.20609115,0.031910717
1732371771614,2024-11-23T14:22:51.614Z,35581,0.0022944747,-0.3010989,0.27419284
1732371771621,2024-11-23T14:22:51.621Z,35588,0.0022944747,-0.3010989,0.27419284
1732371771692,2024-11-23T14:22:51.692Z,35659,-0.083973825,-0.32513723,-0.030485943
1732371771698,2024-11-23T14:22:51.698Z,35665,-0.083973825,-0.32513723,-0.030485943
1732371771717,2024-11-23T14:22:51.717Z,35684,-0.10447514,-0.2966166,-0.14155786
1732371771723,2024-11-23T14:22:51.723Z,35690,-0.10447514,-0.2966166,-0.14155786
1732371771735,2024-11-23T14:22:51.735Z,35702,-0.20516914,-0.33466274,0.02280279
1732371771739,2024-11-23T14:22:51.739Z,35706,-0.20516914,-0.33466274,0.02280279
1732371771777,2024-11-23T14:22:51.777Z,35744,-0.1892366,-0.23466597,0.008045255
1732371771783,2024-11-23T14:22:51.783Z,35750,-0.1892366,-0.23466597,0.008045255
1732371771803,2024-11-23T14:22:51.803Z,35770,-0.24733666,-0.16653928,0.035894908
1732371771810,2024-11-23T14:22:51.810Z,35777,-0.24733666,-0.16653928,0.035894908
1732371771831,2024-11-23T14:22:51.831Z,35798,-0.124753915,-0.091375366,0.1645321
1732371771837,2024-11-23T14:22:51.837Z,35804,-0.124753915,-0.091375366,0.1645321
1732371771856,2024-11-23T14:22:51.856Z,35823,-0.0646126,-0.06699526,0.22519867
1732371771863,2024-11-23T14:22:51.863Z,35830,-0.0646126,-0.06699526,0.22519867
1732371771882,2024-11-23T14:22:51.882Z,35849,0.12768464,-0.019795842,0.13465112
1732371771887,2024-11-23T14:22:51.887Z,35854,0.12768464,-0.019795842,0.13465112
1732371771905,2024-11-23T14:22:51.905Z,35872,0.19490956,-0.048059966,0.23913689
1732371771912,2024-11-23T14:22:51.912Z,35879,0.19490956,-0.048059966,0.23913689
1732371771928,2024-11-23T14:22:51.928Z,35895,0.11494837,-0.10398664,0.2925505
1732371771932,2024-11-23T14:22:51.932Z,35899,0.11494837,-0.10398664,0.2925505
1732371771944,2024-11-23T14:22:51.944Z,35911,-0.10435018,-0.31139305,0.20455882
1732371771947,2024-11-23T14:22:51.947Z,35914,-0.10435018,-0.31139305,0.20455882
1732371771959,2024-11-23T14:22:51.959Z,35926,-0.13417304,-0.2522591,0.2253284
1732371771962,2024-11-23T14:22:51.962Z,35929,-0.13417304,-0.2522591,0.2253284
1732371771972,2024-11-23T14:22:51.972Z,35939,-0.11752716,-0.24722187,0.24067117
1732371771974,2024-11-23T14:22:51.974Z,35941,-0.11752716,-0.24722187,0.24067117
1732371771983,2024-11-23T14:22:51.983Z,35950,-0.0039112787,-0.12174689,0.31748918
1732371771986,2024-11-23T14:22:51.986Z,35953,-0.0039112787,-0.12174689,0.31748918
1732371771994,2024-11-23T14:22:51.994Z,35961,0.03675441,-0.04699078,0.22575551
1732371771997,2024-11-23T14:22:51.997Z,35964,0.03675441,-0.04699078,0.22575551
1732371772006,2024-11-23T14:22:52.006Z,35973,0.026068028,-0.052022763,0.31912518
1732371772008,2024-11-23T14:22:52.008Z,35975,0.026068028,-0.052022763,0.31912518
1732371772044,2024-11-23T14:22:52.044Z,36011,0.07254626,0.02479034,0.23688649
1732371772047,2024-11-23T14:22:52.047Z,36014,0.07254626,0.02479034,0.23688649
1732371772093,2024-11-23T14:22:52.093Z,36060,0.078983545,-0.038429283,0.095514566
1732371772099,2024-11-23T14:22:52.099Z,36066,0.078983545,-0.038429283,0.095514566
1732371772117,2024-11-23T14:22:52.117Z,36084,0.038624614,-0.19934362,0.17926162
1732371772121,2024-11-23T14:22:52.121Z,36088,0.038624614,-0.19934362,0.17926162
1732371772132,2024-11-23T14:22:52.132Z,36099,0.05079692,-0.20414892,0.22864732
1732371772136,2024-11-23T14:22:52.136Z,36103,0.05079692,-0.20414892,0.22864732
1732371772148,2024-11-23T14:22:52.148Z,36115,0.24175495,0.095805824,0.089677565
1732371772151,2024-11-23T14:22:52.151Z,36118,0.24175495,0.095805824,0.089677565
1732371772181,2024-11-23T14:22:52.181Z,36148,0.11932172,-0.031443007,-0.01687272
1732371772185,2024-11-23T14:22:52.185Z,36152,0.11932172,-0.031443007,-0.01687272
1732371772196,2024-11-23T14:22:52.196Z,36163,-0.08404925,-0.1450686,-0.1444452
1732371772200,2024-11-23T14:22:52.200Z,36167,-0.08404925,-0.1450686,-0.1444452
1732371772213,2024-11-23T14:22:52.213Z,36180,-0.03283676,-0.12496307,-0.26735294
1732371772216,2024-11-23T14:22:52.216Z,36183,-0.03283676,-0.12496307,-0.26735294
1732371772276,2024-11-23T14:22:52.276Z,36243,0.09628059,0.15176035,0.14484638
1732371772283,2024-11-23T14:22:52.283Z,36250,0.09628059,0.15176035,0.14484638
1732371772303,2024-11-23T14:22:52.303Z,36270,0.08757451,0.119440034,-0.07234272
1732371772310,2024-11-23T14:22:52.310Z,36277,0.08757451,0.119440034,-0.07234272
1732371772326,2024-11-23T14:22:52.326Z,36293,0.016108306,0.02298863,-0.017056763
1732371772330,2024-11-23T14:22:52.330Z,36297,0.016108306,0.02298863,-0.017056763
1732371772342,2024-11-23T14:22:52.342Z,36309,-0.023702307,-0.25696915,0.38157743
1732371772345,2024-11-23T14:22:52.345Z,36312,-0.023702307,-0.25696915,0.38157743
1732371772361,2024-11-23T14:22:52.361Z,36328,-0.25842035,-0.10859628,0.1076556
1732371772371,2024-11-23T14:22:52.371Z,36338,-0.25842035,-0.10859628,0.1076556
1732371772391,2024-11-23T14:22:52.391Z,36358,-0.3119594,-0.12071028,-0.026909998
1732371772397,2024-11-23T14:22:52.397Z,36364,-0.3119594,-0.12071028,-0.026909998
1732371772416,2024-11-23T14:22:52.416Z,36383,-0.3183589,-0.080630854,-0.020460432
1732371772422,2024-11-23T14:22:52.422Z,36389,-0.3183589,-0.080630854,-0.020460432
1732371772441,2024-11-23T14:22:52.441Z,36408,0.0482521,0.10826335,-0.049708363
1732371772445,2024-11-23T14:22:52.445Z,36412,0.0482521,0.10826335,-0.049708363
1732371772458,2024-11-23T14:22:52.458Z,36425,0.22733822,0.08200876,0.17057195
1732371772461,2024-11-23T14:22:52.461Z,36428,0.22733822,0.08200876,0.17057195
1732371772477,2024-11-23T14:22:52.477Z,36444,0.24080113,0.057971455,0.11181124
1732371772487,2024-11-23T14:22:52.487Z,36454,0.24080113,0.057971455,0.11181124
1732371772511,2024-11-23T14:22:52.511Z,36478,0.08076366,0.16337194,-0.050778136
1732371772518,2024-11-23T14:22:52.518Z,36485,0.08076366,0.16337194,-0.050778136
1732371772541,2024-11-23T14:22:52.541Z,36508,0.021488423,0.23456042,-0.078438014
1732371772547,2024-11-23T14:22:52.547Z,36514,0.021488423,0.23456042,-0.078438014
1732371772568,2024-11-23T14:22:52.568Z,36535,-0.016360331,-0.06173606,0.037318274
1732371772574,2024-11-23T14:22:52.574Z,36541,-0.016360331,-0.06173606,0.037318274
1732371772594,2024-11-23T14:22:52.594Z,36561,-0.017006073,-0.16757385,0.023862984
1732371772600,2024-11-23T14:22:52.600Z,36567,-0.017006073,-0.16757385,0.023862984
1732371772621,2024-11-23T14:22:52.621Z,36588,-0.13550763,-0.31695306,0.0012799745
1732371772629,2024-11-23T14:22:52.629Z,36596,-0.13550763,-0.31695306,0.0012799745
1732371772652,2024-11-23T14:22:52.652Z,36619,-0.26007414,0.13821287,-0.24157745
1732371772658,2024-11-23T14:22:52.658Z,36625,-0.26007414,0.13821287,-0.24157745
1732371772672,2024-11-23T14:22:52.672Z,36639,-0.18450865,0.05178363,-0.2366271
1732371772676,2024-11-23T14:22:52.676Z,36643,-0.18450865,0.05178363,-0.2366271
1732371772688,2024-11-23T14:22:52.688Z,36655,-0.057549715,-0.07190185,-0.101904765
1732371772691,2024-11-23T14:22:52.691Z,36658,-0.057549715,-0.07190185,-0.101904765
1732371772702,2024-11-23T14:22:52.702Z,36669,-0.06915235,-0.29360864,0.049398337
1732371772706,2024-11-23T14:22:52.706Z,36673,-0.06915235,-0.29360864,0.049398337
1732371772716,2024-11-23T14:22:52.716Z,36683,0.05155108,-0.22295828,0.17473882
1732371772719,2024-11-23T14:22:52.719Z,36686,0.05155108,-0.22295828,0.17473882
1732371772729,2024-11-23T14:22:52.729Z,36696,-2.7616756E-4,0.08687819,0.04170264
1732371772732,2024-11-23T14:22:52.732Z,36699,-2.7616756E-4,0.08687819,0.04170264
1732371772742,2024-11-23T14:22:52.742Z,36709,0.2320772,-0.067893684,0.2377672
1732371772745,2024-11-23T14:22:52.745Z,36712,0.2320772,-0.067893684,0.2377672
1732371772765,2024-11-23T14:22:52.765Z,36732,0.3386314,-0.010268678,0.16967607
1732371772768,2024-11-23T14:22:52.768Z,36735,0.3386314,-0.010268678,0.16967607
1732371772777,2024-11-23T14:22:52.777Z,36744,0.34693435,-0.00707234,0.11514857
1732371772780,2024-11-23T14:22:52.780Z,36747,0.34693435,-0.00707234,0.11514857
1732371772789,2024-11-23T14:22:52.789Z,36756,-0.06538361,0.19232185,0.022597816
1732371772791,2024-11-23T14:22:52.791Z,36758,-0.06538361,0.19232185,0.022597816
1732371772808,2024-11-23T14:22:52.808Z,36775,-0.074359946,-0.06542301,0.071489155
1732371772811,2024-11-23T14:22:52.811Z,36778,-0.074359946,-0.06542301,0.071489155
1732371772906,2024-11-23T14:22:52.906Z,36873,-0.073474996,-0.16623661,0.13899264
1732371772912,2024-11-23T14:22:52.912Z,36879,-0.073474996,-0.16623661,0.13899264
1732371772930,2024-11-23T14:22:52.930Z,36897,-0.08420024,-0.051999424,0.02384655
1732371772934,2024-11-23T14:22:52.934Z,36901,-0.08420024,-0.051999424,0.02384655
1732371772946,2024-11-23T14:22:52.946Z,36913,-0.10915349,-0.039673276,0.020064391
1732371772950,2024-11-23T14:22:52.950Z,36917,-0.10915349,-0.039673276,0.020064391
1732371773041,2024-11-23T14:22:53.041Z,37008,-0.23110971,-0.15988556,0.02953486
1732371773048,2024-11-23T14:22:53.048Z,37015,-0.23110971,-0.15988556,0.02953486
1732371773178,2024-11-23T14:22:53.178Z,37145,-0.24670976,-0.10157018,-0.021590985
1732371773185,2024-11-23T14:22:53.185Z,37152,-0.24670976,-0.10157018,-0.021590985
1732371773207,2024-11-23T14:22:53.207Z,37174,-0.11803401,-0.24824454,-0.031540107
1732371773214,2024-11-23T14:22:53.214Z,37181,-0.11803401,-0.24824454,-0.031540107
1732371773231,2024-11-23T14:22:53.231Z,37198,-0.27587134,0.041361008,-0.1246153
1732371773235,2024-11-23T14:22:53.235Z,37202,-0.27587134,0.041361008,-0.1246153
1732371773248,2024-11-23T14:22:53.248Z,37215,0.04236751,0.008999109,-0.093561016
1732371773251,2024-11-23T14:22:53.251Z,37218,0.04236751,0.008999109,-0.093561016
1732371773262,2024-11-23T14:22:53.262Z,37229,-2.1856424E-4,0.14343727,-0.056666244
1732371773265,2024-11-23T14:22:53.265Z,37232,-2.1856424E-4,0.14343727,-0.056666244
1732371773276,2024-11-23T14:22:53.276Z,37243,0.07384911,0.101604804,0.03796947
1732371773279,2024-11-23T14:22:53.279Z,37246,0.07384911,0.101604804,0.03796947
1732371773304,2024-11-23T14:22:53.304Z,37271,-0.10009111,0.05314179,-0.045432176
1732371773307,2024-11-23T14:22:53.307Z,37274,-0.10009111,0.05314179,-0.045432176
1732371773317,2024-11-23T14:22:53.317Z,37284,-0.1832829,-0.041887313,0.20658064
1732371773321,2024-11-23T14:22:53.321Z,37288,-0.1832829,-0.041887313,0.20658064
1732371773330,2024-11-23T14:22:53.330Z,37297,-0.21267796,-0.124328576,0.085771024
1732371773332,2024-11-23T14:22:53.332Z,37299,-0.21267796,-0.124328576,0.085771024
1732371773341,2024-11-23T14:22:53.341Z,37308,-0.026209025,-0.25256845,-0.06882775
1732371773344,2024-11-23T14:22:53.344Z,37311,-0.026209025,-0.25256845,-0.06882775
1732371773353,2024-11-23T14:22:53.353Z,37320,-0.1995358,-0.09883451,-0.13004434
1732371773356,2024-11-23T14:22:53.356Z,37323,-0.1995358,-0.09883451,-0.13004434
1732371773363,2024-11-23T14:22:53.363Z,37330,-0.1945261,-0.05498172,-0.044032987
1732371773366,2024-11-23T14:22:53.366Z,37333,-0.1945261,-0.05498172,-0.044032987
1732371773373,2024-11-23T14:22:53.373Z,37340,-0.16353635,-0.041443475,0.074236594
1732371773375,2024-11-23T14:22:53.375Z,37342,-0.16353635,-0.041443475,0.074236594
1732371773382,2024-11-23T14:22:53.382Z,37349,-0.013233336,-0.046499286,0.036766797
1732371773384,2024-11-23T14:22:53.384Z,37351,-0.013233336,-0.046499286,0.036766797
1732371773397,2024-11-23T14:22:53.397Z,37364,0.08699051,0.042746887,0.25043225
1732371773400,2024-11-23T14:22:53.400Z,37367,0.08699051,0.042746887,0.25043225
1732371773409,2024-11-23T14:22:53.409Z,37376,0.33504814,0.14657146,0.26918396
1732371773412,2024-11-23T14:22:53.412Z,37379,0.33504814,0.14657146,0.26918396
1732371773440,2024-11-23T14:22:53.440Z,37407,0.2699856,0.4256178,0.19205832
1732371773442,2024-11-23T14:22:53.442Z,37409,0.2699856,0.4256178,0.19205832
1732371773450,2024-11-23T14:22:53.450Z,37417,0.1428927,0.29399464,0.017016867
1732371773452,2024-11-23T14:22:53.452Z,37419,0.1428927,0.29399464,0.017016867
1732371773460,2024-11-23T14:22:53.460Z,37427,-0.04002127,0.02318016,-0.015859742
1732371773462,2024-11-23T14:22:53.462Z,37429,-0.04002127,0.02318016,-0.015859742
1732371773575,2024-11-23T14:22:53.575Z,37542,-0.028513655,-0.10841233,-0.12563361
1732371773577,2024-11-23T14:22:53.577Z,37544,-0.028513655,-0.10841233,-0.12563361
1732371773586,2024-11-23T14:22:53.586Z,37553,-0.23005663,0.042966373,-0.26989555
1732371773589,2024-11-23T14:22:53.589Z,37556,-0.23005663,0.042966373,-0.26989555
1732371773621,2024-11-23T14:22:53.621Z,37588,-0.23615387,-0.12019244,-0.26439726
1732371773625,2024-11-23T14:22:53.625Z,37592,-0.23615387,-0.12019244,-0.26439726
1732371773639,2024-11-23T14:22:53.639Z,37606,-0.32267347,-0.13137242,-0.25271246
1732371773646,2024-11-23T14:22:53.646Z,37613,-0.32267347,-0.13137242,-0.25271246
1732371773667,2024-11-23T14:22:53.667Z,37634,-0.19267976,0.036378134,-0.08422989
1732371773672,2024-11-23T14:22:53.672Z,37639,-0.19267976,0.036378134,-0.08422989
1732371773694,2024-11-23T14:22:53.694Z,37661,-0.11240464,-0.01800804,0.092458665
1732371773699,2024-11-23T14:22:53.699Z,37666,-0.11240464,-0.01800804,0.092458665
1732371773718,2024-11-23T14:22:53.718Z,37685,0.15567997,0.017389836,0.12621033
1732371773723,2024-11-23T14:22:53.723Z,37690,0.15567997,0.017389836,0.12621033
1732371773736,2024-11-23T14:22:53.736Z,37703,-0.11091885,-0.13602912,-0.17936541
1732371773739,2024-11-23T14:22:53.739Z,37706,-0.11091885,-0.13602912,-0.17936541
1732371773751,2024-11-23T14:22:53.751Z,37718,-0.018301452,-0.004267716,-0.19480945
1732371773755,2024-11-23T14:22:53.755Z,37722,-0.018301452,-0.004267716,-0.19480945
1732371773766,2024-11-23T14:22:53.766Z,37733,-0.10384663,0.16364534,-0.23015475
1732371773769,2024-11-23T14:22:53.769Z,37736,-0.10384663,0.16364534,-0.23015475
1732371773778,2024-11-23T14:22:53.778Z,37745,-0.13305135,0.15016127,-0.17972249
1732371773781,2024-11-23T14:22:53.781Z,37748,-0.13305135,0.15016127,-0.17972249
1732371773789,2024-11-23T14:22:53.789Z,37756,-0.19129837,0.08253375,-0.11239061
1732371773791,2024-11-23T14:22:53.791Z,37758,-0.19129837,0.08253375,-0.11239061
1732371773799,2024-11-23T14:22:53.799Z,37766,-0.036293752,0.051755816,0.019700466
1732371773802,2024-11-23T14:22:53.802Z,37769,-0.036293752,0.051755816,0.019700466
1732371773809,2024-11-23T14:22:53.809Z,37776,0.05546832,6.183982E-4,-0.08929962
1732371773811,2024-11-23T14:22:53.811Z,37778,0.05546832,6.183982E-4,-0.08929962
1732371773818,2024-11-23T14:22:53.818Z,37785,0.1252367,-0.00648934,-0.049369454
1732371773820,2024-11-23T14:22:53.820Z,37787,0.1252367,-0.00648934,-0.049369454
1732371773847,2024-11-23T14:22:53.847Z,37814,-0.13749209,0.072658144,-0.10779412
1732371773849,2024-11-23T14:22:53.849Z,37816,-0.13749209,0.072658144,-0.10779412
1732371773859,2024-11-23T14:22:53.859Z,37826,-0.10531422,-0.02878299,-0.10926059
1732371773861,2024-11-23T14:22:53.861Z,37828,-0.10531422,-0.02878299,-0.10926059
1732371773870,2024-11-23T14:22:53.870Z,37837,0.064445876,0.008737999,-0.07787534
1732371773872,2024-11-23T14:22:53.872Z,37839,0.064445876,0.008737999,-0.07787534
1732371773891,2024-11-23T14:22:53.891Z,37858,-0.07162193,0.033728715,0.038569685
1732371773894,2024-11-23T14:22:53.894Z,37861,-0.07162193,0.033728715,0.038569685
1732371773902,2024-11-23T14:22:53.902Z,37869,0.008083064,0.059429146,0.010966139
1732371773905,2024-11-23T14:22:53.905Z,37872,0.008083064,0.059429146,0.010966139
1732371773942,2024-11-23T14:22:53.942Z,37909,-0.06591193,0.01244479,0.011982742
1732371773950,2024-11-23T14:22:53.950Z,37917,-0.06591193,0.01244479,0.011982742
1732371773974,2024-11-23T14:22:53.974Z,37941,0.078274846,-0.06186248,0.030696169
1732371773983,2024-11-23T14:22:53.983Z,37950,0.078274846,-0.06186248,0.030696169
1732371774003,2024-11-23T14:22:54.003Z,37970,0.039976176,-0.050888952,0.026703712
1732371774007,2024-11-23T14:22:54.007Z,37974,0.039976176,-0.050888952,0.026703712
1732371774019,2024-11-23T14:22:54.019Z,37986,-0.06341029,-0.04245174,0.065295495
1732371774023,2024-11-23T14:22:54.023Z,37990,-0.06341029,-0.04245174,0.065295495
1732371774034,2024-11-23T14:22:54.034Z,38001,-0.028729776,0.020111702,0.080179766
1732371774038,2024-11-23T14:22:54.038Z,38005,-0.028729776,0.020111702,0.080179766
1732371774048,2024-11-23T14:22:54.048Z,38015,-0.09756746,-0.026059568,0.054275483
1732371774051,2024-11-23T14:22:54.051Z,38018,-0.09756746,-0.026059568,0.054275483
1732371774062,2024-11-23T14:22:54.062Z,38029,0.03183996,-0.046021704,0.030659458
1732371774065,2024-11-23T14:22:54.065Z,38032,0.03183996,-0.046021704,0.030659458
1732371774075,2024-11-23T14:22:54.075Z,38042,0.046178494,-0.042670935,0.027522318
1732371774078,2024-11-23T14:22:54.078Z,38045,0.046178494,-0.042670935,0.027522318
1732371774087,2024-11-23T14:22:54.087Z,38054,-0.014215713,0.040134814,0.016611952
1732371774091,2024-11-23T14:22:54.091Z,38058,-0.014215713,0.040134814,0.016611952
1732371774100,2024-11-23T14:22:54.100Z,38067,-0.044462256,0.04209844,0.02799137
1732371774103,2024-11-23T14:22:54.103Z,38070,-0.044462256,0.04209844,0.02799137
1732371774112,2024-11-23T14:22:54.112Z,38079,-0.052460827,0.032444756,0.067141935
1732371774114,2024-11-23T14:22:54.114Z,38081,-0.052460827,0.032444756,0.067141935
1732371774122,2024-11-23T14:22:54.122Z,38089,0.058676038,-0.019432817,0.16714542
1732371774124,2024-11-23T14:22:54.124Z,38091,0.058676038,-0.019432817,0.16714542
1732371774133,2024-11-23T14:22:54.133Z,38100,-0.06349926,0.06020081,0.1547655
1732371774136,2024-11-23T14:22:54.136Z,38103,-0.06349926,0.06020081,0.1547655
1732371774145,2024-11-23T14:22:54.145Z,38112,-0.12115091,0.13563935,0.12516777
1732371774147,2024-11-23T14:22:54.147Z,38114,-0.12115091,0.13563935,0.12516777
1732371774155,2024-11-23T14:22:54.155Z,38122,-0.056779556,0.08575401,0.10038172
1732371774157,2024-11-23T14:22:54.157Z,38124,-0.056779556,0.08575401,0.10038172
1732371774164,2024-11-23T14:22:54.164Z,38131,-0.1150101,0.0055905767,0.08319097
1732371774166,2024-11-23T14:22:54.166Z,38133,-0.1150101,0.0055905767,0.08319097
1732371774173,2024-11-23T14:22:54.173Z,38140,0.006335655,-0.0784544,0.096846156
1732371774176,2024-11-23T14:22:54.176Z,38143,0.006335655,-0.0784544,0.096846156
1732371774182,2024-11-23T14:22:54.182Z,38149,-0.087585755,0.06316531,0.047289085
1732371774184,2024-11-23T14:22:54.184Z,38151,-0.087585755,0.06316531,0.047289085
1732371774192,2024-11-23T14:22:54.192Z,38159,-0.0540241,0.077817425,0.018338585
1732371774194,2024-11-23T14:22:54.194Z,38161,-0.0540241,0.077817425,0.018338585
1732371774203,2024-11-23T14:22:54.203Z,38170,-0.07638699,0.25586107,-0.0043393145
1732371774206,2024-11-23T14:22:54.206Z,38173,-0.07638699,0.25586107,-0.0043393145
1732371774214,2024-11-23T14:22:54.214Z,38181,-0.027130395,0.1749462,-0.14232072
1732371774217,2024-11-23T14:22:54.217Z,38184,-0.027130395,0.1749462,-0.14232072
1732371774226,2024-11-23T14:22:54.226Z,38193,0.13129032,0.08621778,-0.060276918
1732371774229,2024-11-23T14:22:54.229Z,38196,0.13129032,0.08621778,-0.060276918
1732371774253,2024-11-23T14:22:54.253Z,38220,-0.20078577,0.124183096,-0.051734947
1732371774255,2024-11-23T14:22:54.255Z,38222,-0.20078577,0.124183096,-0.051734947
1732371774263,2024-11-23T14:22:54.263Z,38230,-0.014320403,-0.106854424,-0.11412699
1732371774265,2024-11-23T14:22:54.265Z,38232,-0.014320403,-0.106854424,-0.11412699
1732371774274,2024-11-23T14:22:54.274Z,38241,-0.07186857,-0.1407791,-0.02777193
1732371774276,2024-11-23T14:22:54.276Z,38243,-0.07186857,-0.1407791,-0.02777193
1732371774283,2024-11-23T14:22:54.283Z,38250,-0.057618458,-0.07270239,0.0640116
1732371774285,2024-11-23T14:22:54.285Z,38252,-0.057618458,-0.07270239,0.0640116
1732371774340,2024-11-23T14:22:54.340Z,38307,0.020467423,-7.146734E-4,0.038256984
1732371774343,2024-11-23T14:22:54.343Z,38310,0.020467423,-7.146734E-4,0.038256984
1732371774350,2024-11-23T14:22:54.350Z,38317,0.023367614,0.017449839,-0.07884605
1732371774352,2024-11-23T14:22:54.352Z,38319,0.023367614,0.017449839,-0.07884605
1732371774359,2024-11-23T14:22:54.359Z,38326,0.009006867,-0.039131798,-0.031282865
1732371774361,2024-11-23T14:22:54.361Z,38328,0.009006867,-0.039131798,-0.031282865
1732371774384,2024-11-23T14:22:54.384Z,38351,0.049932737,-0.090715,-0.07309098
1732371774387,2024-11-23T14:22:54.387Z,38354,0.049932737,-0.090715,-0.07309098
1732371774430,2024-11-23T14:22:54.430Z,38397,0.101726025,-0.1158829,-0.030922683
1732371774434,2024-11-23T14:22:54.434Z,38401,0.101726025,-0.1158829,-0.030922683
1732371774443,2024-11-23T14:22:54.443Z,38410,0.017733412,-0.034562618,0.0236116
1732371774446,2024-11-23T14:22:54.446Z,38413,0.017733412,-0.034562618,0.0236116
1732371774453,2024-11-23T14:22:54.453Z,38420,0.02218014,0.04760995,-0.032732643
1732371774456,2024-11-23T14:22:54.456Z,38423,0.02218014,0.04760995,-0.032732643
1732371774477,2024-11-23T14:22:54.477Z,38444,-0.010262463,-0.03423674,-0.26943508
1732371774483,2024-11-23T14:22:54.483Z,38450,-0.010262463,-0.03423674,-0.26943508
1732371774502,2024-11-23T14:22:54.502Z,38469,-0.09870201,-0.047622595,-0.28035215
1732371774507,2024-11-23T14:22:54.507Z,38474,-0.09870201,-0.047622595,-0.28035215
1732371774518,2024-11-23T14:22:54.518Z,38485,0.09299404,0.054735098,-0.15569052
1732371774521,2024-11-23T14:22:54.521Z,38488,0.09299404,0.054735098,-0.15569052
1732371774528,2024-11-23T14:22:54.528Z,38495,0.1287972,0.012969052,-0.08968137
1732371774531,2024-11-23T14:22:54.531Z,38498,0.1287972,0.012969052,-0.08968137
1732371774565,2024-11-23T14:22:54.565Z,38532,0.12259905,0.046791807,0.0349793
1732371774567,2024-11-23T14:22:54.567Z,38534,0.12259905,0.046791807,0.0349793
1732371774576,2024-11-23T14:22:54.576Z,38543,0.047695894,0.082090296,0.03369553
1732371774579,2024-11-23T14:22:54.579Z,38546,0.047695894,0.082090296,0.03369553
1732371774587,2024-11-23T14:22:54.587Z,38554,0.009524836,0.1429802,0.09201796
1732371774590,2024-11-23T14:22:54.590Z,38557,0.009524836,0.1429802,0.09201796
1732371774598,2024-11-23T14:22:54.598Z,38565,-0.11096426,0.07978845,0.17760071
1732371774601,2024-11-23T14:22:54.601Z,38568,-0.11096426,0.07978845,0.17760071
1732371774610,2024-11-23T14:22:54.610Z,38577,-0.075506456,0.07918745,0.28872573
1732371774613,2024-11-23T14:22:54.613Z,38580,-0.075506456,0.07918745,0.28872573
1732371774620,2024-11-23T14:22:54.620Z,38587,-0.044829912,0.15526618,0.24823143
1732371774623,2024-11-23T14:22:54.623Z,38590,-0.044829912,0.15526618,0.24823143
1732371774655,2024-11-23T14:22:54.655Z,38622,-0.13466102,0.22718841,0.23790674
1732371774658,2024-11-23T14:22:54.658Z,38625,-0.13466102,0.22718841,0.23790674
1732371774666,2024-11-23T14:22:54.666Z,38633,-0.12472685,0.26254112,0.22838324
1732371774669,2024-11-23T14:22:54.669Z,38636,-0.12472685,0.26254112,0.22838324
1732371774681,2024-11-23T14:22:54.681Z,38648,-0.08872977,0.3130627,0.20305032
1732371774688,2024-11-23T14:22:54.688Z,38655,-0.08872977,0.3130627,0.20305032
1732371774703,2024-11-23T14:22:54.703Z,38670,-0.095126376,0.242587,0.16401616
1732371774708,2024-11-23T14:22:54.708Z,38675,-0.095126376,0.242587,0.16401616
1732371774725,2024-11-23T14:22:54.725Z,38692,-0.07513705,0.063593976,0.100602046
1732371774731,2024-11-23T14:22:54.731Z,38698,-0.07513705,0.063593976,0.100602046
1732371774748,2024-11-23T14:22:54.748Z,38715,-0.13576114,0.14560744,0.031369925
1732371774755,2024-11-23T14:22:54.755Z,38722,-0.13576114,0.14560744,0.031369925
1732371774775,2024-11-23T14:22:54.775Z,38742,-0.05481997,0.12991147,0.026389869
1732371774780,2024-11-23T14:22:54.780Z,38747,-0.05481997,0.12991147,0.026389869
1732371774793,2024-11-23T14:22:54.793Z,38760,-0.10221951,0.07301261,0.12935808
1732371774797,2024-11-23T14:22:54.797Z,38764,-0.10221951,0.07301261,0.12935808
1732371774808,2024-11-23T14:22:54.808Z,38775,-0.10652081,0.07281345,0.10579539
1732371774812,2024-11-23T14:22:54.812Z,38779,-0.10652081,0.07281345,0.10579539
1732371774822,2024-11-23T14:22:54.822Z,38789,-0.14293277,0.1987472,0.024122952
1732371774825,2024-11-23T14:22:54.825Z,38792,-0.14293277,0.1987472,0.024122952
1732371774834,2024-11-23T14:22:54.834Z,38801,-0.028564109,0.20889539,0.04904499
1732371774838,2024-11-23T14:22:54.838Z,38805,-0.028564109,0.20889539,0.04904499
1732371774851,2024-11-23T14:22:54.851Z,38818,0.05765066,0.07787938,0.11354653
1732371774857,2024-11-23T14:22:54.857Z,38824,0.05765066,0.07787938,0.11354653
1732371774874,2024-11-23T14:22:54.874Z,38841,0.05170185,0.01563257,-0.012329546
1732371774880,2024-11-23T14:22:54.880Z,38847,0.05170185,0.01563257,-0.012329546
1732371774929,2024-11-23T14:22:54.929Z,38896,0.017578885,0.14206685,-0.028168254
1732371774934,2024-11-23T14:22:54.934Z,38901,0.017578885,0.14206685,-0.028168254
1732371774953,2024-11-23T14:22:54.953Z,38920,0.014517133,0.26064366,-0.032081153
1732371774959,2024-11-23T14:22:54.959Z,38926,0.014517133,0.26064366,-0.032081153
1732371774973,2024-11-23T14:22:54.973Z,38940,-0.15064631,0.06915489,-0.016627545
1732371774977,2024-11-23T14:22:54.977Z,38944,-0.15064631,0.06915489,-0.016627545
1732371774989,2024-11-23T14:22:54.989Z,38956,-0.026988575,-0.02076657,-0.015051806
1732371774994,2024-11-23T14:22:54.994Z,38961,-0.026988575,-0.02076657,-0.015051806
1732371775011,2024-11-23T14:22:55.011Z,38978,-0.103108905,-0.015712606,-0.15245804
1732371775016,2024-11-23T14:22:55.016Z,38983,-0.103108905,-0.015712606,-0.15245804
1732371775034,2024-11-23T14:22:55.034Z,39001,-0.0494187,-0.14095755,-0.09209084
1732371775040,2024-11-23T14:22:55.040Z,39007,-0.0494187,-0.14095755,-0.09209084
1732371775154,2024-11-23T14:22:55.154Z,39121,-0.057946,-0.056760184,-0.1499085
1732371775161,2024-11-23T14:22:55.161Z,39128,-0.057946,-0.056760184,-0.1499085
1732371775200,2024-11-23T14:22:55.200Z,39167,0.104648,0.021916425,-0.2644729
1732371775207,2024-11-23T14:22:55.207Z,39174,0.104648,0.021916425,-0.2644729
1732371775227,2024-11-23T14:22:55.227Z,39194,0.07243171,0.05962938,-0.2637967
1732371775233,2024-11-23T14:22:55.233Z,39200,0.07243171,0.05962938,-0.2637967
1732371775248,2024-11-23T14:22:55.248Z,39215,0.079687454,0.18614565,-0.27815315
1732371775251,2024-11-23T14:22:55.251Z,39218,0.079687454,0.18614565,-0.27815315
1732371775291,2024-11-23T14:22:55.291Z,39258,0.11112944,0.33122995,-0.060401637
1732371775298,2024-11-23T14:22:55.298Z,39265,0.11112944,0.33122995,-0.060401637
1732371775332,2024-11-23T14:22:55.332Z,39299,0.07665113,0.18923599,0.03382805
1732371775338,2024-11-23T14:22:55.338Z,39305,0.07665113,0.18923599,0.03382805
1732371775355,2024-11-23T14:22:55.355Z,39322,-0.03334477,0.12338498,-0.010567685
1732371775361,2024-11-23T14:22:55.361Z,39328,-0.03334477,0.12338498,-0.010567685
1732371775379,2024-11-23T14:22:55.379Z,39346,0.026641708,-0.02716294,0.32556581
1732371775382,2024-11-23T14:22:55.382Z,39349,0.026641708,-0.02716294,0.32556581
1732371775395,2024-11-23T14:22:55.395Z,39362,0.010551714,0.018143311,0.41111034
1732371775398,2024-11-23T14:22:55.398Z,39365,0.010551714,0.018143311,0.41111034
1732371775410,2024-11-23T14:22:55.410Z,39377,0.031220965,0.13547151,0.46886244
1732371775413,2024-11-23T14:22:55.413Z,39380,0.031220965,0.13547151,0.46886244
1732371775426,2024-11-23T14:22:55.426Z,39393,-0.3255598,-0.089792415,0.025724597
1732371775430,2024-11-23T14:22:55.430Z,39397,-0.3255598,-0.089792415,0.025724597
1732371775440,2024-11-23T14:22:55.440Z,39407,-0.063590534,-0.18390359,-0.1468831
1732371775443,2024-11-23T14:22:55.443Z,39410,-0.063590534,-0.18390359,-0.1468831
1732371775452,2024-11-23T14:22:55.452Z,39419,-0.0396615,-0.24480352,0.08842302
1732371775455,2024-11-23T14:22:55.455Z,39422,-0.0396615,-0.24480352,0.08842302
1732371775555,2024-11-23T14:22:55.555Z,39522,-0.019721763,-0.1382596,0.27653578
1732371775558,2024-11-23T14:22:55.558Z,39525,-0.019721763,-0.1382596,0.27653578
1732371775566,2024-11-23T14:22:55.566Z,39533,-0.116263896,-0.25435627,-0.39295703
1732371775569,2024-11-23T14:22:55.569Z,39536,-0.116263896,-0.25435627,-0.39295703
1732371775577,2024-11-23T14:22:55.577Z,39544,-0.11422477,-0.29554212,-0.3426272
1732371775579,2024-11-23T14:22:55.579Z,39546,-0.11422477,-0.29554212,-0.3426272
1732371775587,2024-11-23T14:22:55.587Z,39554,0.21512726,-0.1537126,0.04887884
1732371775590,2024-11-23T14:22:55.590Z,39557,0.21512726,-0.1537126,0.04887884
1732371775648,2024-11-23T14:22:55.648Z,39615,0.3657003,0.09937846,-0.014950572
1732371775654,2024-11-23T14:22:55.654Z,39621,0.3657003,0.09937846,-0.014950572
1732371775694,2024-11-23T14:22:55.694Z,39661,0.33368856,0.039653778,-0.10281943
1732371775699,2024-11-23T14:22:55.699Z,39666,0.33368856,0.039653778,-0.10281943
1732371775719,2024-11-23T14:22:55.719Z,39686,0.31340936,-0.08095629,-0.07953657
1732371775725,2024-11-23T14:22:55.725Z,39692,0.31340936,-0.08095629,-0.07953657
1732371775740,2024-11-23T14:22:55.740Z,39707,0.29488188,-0.03826479,-0.05262045
1732371775744,2024-11-23T14:22:55.744Z,39711,0.29488188,-0.03826479,-0.05262045
1732371775758,2024-11-23T14:22:55.758Z,39725,-0.33010623,-0.075164996,0.3073318
1732371775763,2024-11-23T14:22:55.763Z,39730,-0.33010623,-0.075164996,0.3073318
1732371775781,2024-11-23T14:22:55.781Z,39748,-0.24115269,-0.15325783,0.37481874
1732371775786,2024-11-23T14:22:55.786Z,39753,-0.24115269,-0.15325783,0.37481874
1732371775807,2024-11-23T14:22:55.807Z,39774,0.09370114,-0.28062388,0.19933254
1732371775813,2024-11-23T14:22:55.813Z,39780,0.09370114,-0.28062388,0.19933254
1732371775833,2024-11-23T14:22:55.833Z,39800,0.2101518,-0.17729484,0.24423832
1732371775838,2024-11-23T14:22:55.838Z,39805,0.2101518,-0.17729484,0.24423832
1732371775857,2024-11-23T14:22:55.857Z,39824,0.16549946,-0.19651872,0.19367914
1732371775862,2024-11-23T14:22:55.862Z,39829,0.16549946,-0.19651872,0.19367914
1732371775880,2024-11-23T14:22:55.880Z,39847,0.2139718,-0.3389447,0.142539
1732371775886,2024-11-23T14:22:55.886Z,39853,0.2139718,-0.3389447,0.142539
1732371775908,2024-11-23T14:22:55.908Z,39875,0.22538972,-0.2570878,0.118241064
1732371775913,2024-11-23T14:22:55.913Z,39880,0.22538972,-0.2570878,0.118241064
1732371775930,2024-11-23T14:22:55.930Z,39897,0.05365042,-0.2103451,7.099083E-6
1732371775935,2024-11-23T14:22:55.935Z,39902,0.05365042,-0.2103451,7.099083E-6
1732371775948,2024-11-23T14:22:55.948Z,39915,0.045470867,-0.22586006,0.25219804
1732371775951,2024-11-23T14:22:55.951Z,39918,0.045470867,-0.22586006,0.25219804
1732371775962,2024-11-23T14:22:55.962Z,39929,0.07949551,-0.14397816,0.45732206
1732371775965,2024-11-23T14:22:55.965Z,39932,0.07949551,-0.14397816,0.45732206
1732371775975,2024-11-23T14:22:55.975Z,39942,-0.07220622,0.005274813,0.25423625
1732371775978,2024-11-23T14:22:55.978Z,39945,-0.07220622,0.005274813,0.25423625
1732371775987,2024-11-23T14:22:55.987Z,39954,0.08348371,0.2142064,-0.0012139432
1732371775990,2024-11-23T14:22:55.990Z,39957,0.08348371,0.2142064,-0.0012139432
1732371776095,2024-11-23T14:22:56.095Z,40062,0.14650218,0.19264553,0.121341616
1732371776098,2024-11-23T14:22:56.098Z,40065,0.14650218,0.19264553,0.121341616
1732371776105,2024-11-23T14:22:56.105Z,40072,0.12803787,0.08222241,0.069925286
1732371776107,2024-11-23T14:22:56.107Z,40074,0.12803787,0.08222241,0.069925286
1732371776114,2024-11-23T14:22:56.114Z,40081,-0.043653294,0.09813656,0.22833501
1732371776116,2024-11-23T14:22:56.116Z,40083,-0.043653294,0.09813656,0.22833501
1732371776185,2024-11-23T14:22:56.185Z,40152,-0.021202555,0.012195203,0.27088836
1732371776188,2024-11-23T14:22:56.188Z,40155,-0.021202555,0.012195203,0.27088836
1732371776233,2024-11-23T14:22:56.233Z,40200,0.016733268,0.023189448,0.18503366
1732371776239,2024-11-23T14:22:56.239Z,40206,0.016733268,0.023189448,0.18503366
1732371776278,2024-11-23T14:22:56.278Z,40245,-0.08973806,-0.07596005,0.16322285
1732371776283,2024-11-23T14:22:56.283Z,40250,-0.08973806,-0.07596005,0.16322285
1732371776304,2024-11-23T14:22:56.304Z,40271,-0.063611224,-0.022753485,0.25757024
1732371776309,2024-11-23T14:22:56.309Z,40276,-0.063611224,-0.022753485,0.25757024
1732371776322,2024-11-23T14:22:56.322Z,40289,0.12350747,0.00702216,0.43036914
1732371776327,2024-11-23T14:22:56.327Z,40294,0.12350747,0.00702216,0.43036914
1732371776413,2024-11-23T14:22:56.413Z,40380,0.08029835,7.8537257E-4,0.24757445
1732371776419,2024-11-23T14:22:56.419Z,40386,0.08029835,7.8537257E-4,0.24757445
1732371776458,2024-11-23T14:22:56.458Z,40425,0.13267578,0.019357838,-0.057497177
1732371776465,2024-11-23T14:22:56.465Z,40432,0.13267578,0.019357838,-0.057497177
1732371776485,2024-11-23T14:22:56.485Z,40452,-0.3073876,-0.08618219,-0.6945955
1732371776491,2024-11-23T14:22:56.491Z,40458,-0.3073876,-0.08618219,-0.6945955
1732371776508,2024-11-23T14:22:56.508Z,40475,0.08693312,-0.006856547,-0.33735684
1732371776514,2024-11-23T14:22:56.514Z,40481,0.08693312,-0.006856547,-0.33735684
1732371776532,2024-11-23T14:22:56.532Z,40499,0.2079074,0.0310298,0.15208979
1732371776538,2024-11-23T14:22:56.538Z,40505,0.2079074,0.0310298,0.15208979
1732371776556,2024-11-23T14:22:56.556Z,40523,0.19523932,0.07855612,0.09007684
1732371776562,2024-11-23T14:22:56.562Z,40529,0.19523932,0.07855612,0.09007684
1732371776582,2024-11-23T14:22:56.582Z,40549,-0.22294319,-0.30870178,0.23963456
1732371776587,2024-11-23T14:22:56.587Z,40554,-0.22294319,-0.30870178,0.23963456
1732371776604,2024-11-23T14:22:56.604Z,40571,0.12508722,-0.021070177,0.46942887
1732371776609,2024-11-23T14:22:56.609Z,40576,0.12508722,-0.021070177,0.46942887
1732371776625,2024-11-23T14:22:56.625Z,40592,0.17162006,-0.08324132,0.32570925
1732371776630,2024-11-23T14:22:56.630Z,40597,0.17162006,-0.08324132,0.32570925
1732371776648,2024-11-23T14:22:56.648Z,40615,0.2075522,-0.06340872,0.20074415
1732371776653,2024-11-23T14:22:56.653Z,40620,0.2075522,-0.06340872,0.20074415
1732371776664,2024-11-23T14:22:56.664Z,40631,0.14608613,-0.083732225,0.12266093
1732371776667,2024-11-23T14:22:56.667Z,40634,0.14608613,-0.083732225,0.12266093
1732371776678,2024-11-23T14:22:56.678Z,40645,0.26825497,-0.029203976,-0.006094964
1732371776682,2024-11-23T14:22:56.682Z,40649,0.26825497,-0.029203976,-0.006094964
1732371776691,2024-11-23T14:22:56.691Z,40658,0.12773901,0.22273631,-0.1514192
1732371776694,2024-11-23T14:22:56.694Z,40661,0.12773901,0.22273631,-0.1514192
1732371776703,2024-11-23T14:22:56.703Z,40670,-0.10453896,0.12156771,-0.3273378
1732371776706,2024-11-23T14:22:56.706Z,40673,-0.10453896,0.12156771,-0.3273378
1732371776715,2024-11-23T14:22:56.715Z,40682,-0.050071683,0.07574877,-0.37952048
1732371776718,2024-11-23T14:22:56.718Z,40685,-0.050071683,0.07574877,-0.37952048
1732371776727,2024-11-23T14:22:56.727Z,40694,-0.0729821,0.091599375,-0.2676122
1732371776729,2024-11-23T14:22:56.729Z,40696,-0.0729821,0.091599375,-0.2676122
1732371776737,2024-11-23T14:22:56.737Z,40704,-0.20386459,-0.105014406,-0.22908778
1732371776739,2024-11-23T14:22:56.739Z,40706,-0.20386459,-0.105014406,-0.22908778
1732371776747,2024-11-23T14:22:56.747Z,40714,0.0099922335,-0.019910205,-0.29620978
1732371776749,2024-11-23T14:22:56.749Z,40716,0.0099922335,-0.019910205,-0.29620978
1732371776756,2024-11-23T14:22:56.756Z,40723,0.08210272,0.10265673,-0.20854187
1732371776758,2024-11-23T14:22:56.758Z,40725,0.08210272,0.10265673,-0.20854187
1732371776766,2024-11-23T14:22:56.766Z,40733,-0.163515,0.16583507,0.051134076
1732371776768,2024-11-23T14:22:56.768Z,40735,-0.163515,0.16583507,0.051134076
1732371776775,2024-11-23T14:22:56.775Z,40742,-0.10427371,0.06472915,0.010314312
1732371776777,2024-11-23T14:22:56.777Z,40744,-0.10427371,0.06472915,0.010314312
1732371776786,2024-11-23T14:22:56.786Z,40753,0.018959403,-0.10894652,-0.07542166
1732371776788,2024-11-23T14:22:56.788Z,40755,0.018959403,-0.10894652,-0.07542166
1732371776796,2024-11-23T14:22:56.796Z,40763,-0.055184316,-0.024708407,0.22476096
1732371776799,2024-11-23T14:22:56.799Z,40766,-0.055184316,-0.024708407,0.22476096
1732371776806,2024-11-23T14:22:56.806Z,40773,-0.09881772,0.02352393,0.19099122
1732371776808,2024-11-23T14:22:56.808Z,40775,-0.09881772,0.02352393,0.19099122
1732371776818,2024-11-23T14:22:56.818Z,40785,0.013682449,-0.05359098,0.10846343
1732371776822,2024-11-23T14:22:56.822Z,40789,0.013682449,-0.05359098,0.10846343
1732371776835,2024-11-23T14:22:56.835Z,40802,-0.01855541,-0.021884626,-0.04386094
1732371776839,2024-11-23T14:22:56.839Z,40806,-0.01855541,-0.021884626,-0.04386094
1732371776855,2024-11-23T14:22:56.855Z,40822,-0.17456256,0.0478308,-0.06631783
1732371776862,2024-11-23T14:22:56.862Z,40829,-0.17456256,0.0478308,-0.06631783
1732371776880,2024-11-23T14:22:56.880Z,40847,-0.063808724,-0.04750269,-0.117615364
1732371776885,2024-11-23T14:22:56.885Z,40852,-0.063808724,-0.04750269,-0.117615364
1732371776894,2024-11-23T14:22:56.894Z,40861,0.14265065,-0.20564236,0.10780621
1732371776897,2024-11-23T14:22:56.897Z,40864,0.14265065,-0.20564236,0.10780621
1732371776906,2024-11-23T14:22:56.906Z,40873,7.646588E-4,-0.16253011,0.040235635
1732371776910,2024-11-23T14:22:56.910Z,40877,7.646588E-4,-0.16253011,0.040235635
1732371776919,2024-11-23T14:22:56.919Z,40886,-0.028182387,-0.15311925,-0.03662416
1732371776921,2024-11-23T14:22:56.921Z,40888,-0.028182387,-0.15311925,-0.03662416
1732371776930,2024-11-23T14:22:56.930Z,40897,0.09278725,0.04941662,0.11709177
1732371776932,2024-11-23T14:22:56.932Z,40899,0.09278725,0.04941662,0.11709177
1732371776950,2024-11-23T14:22:56.950Z,40917,0.060839266,0.18697478,0.2139738
1732371776953,2024-11-23T14:22:56.953Z,40920,0.060839266,0.18697478,0.2139738
1732371776962,2024-11-23T14:22:56.962Z,40929,0.028598748,0.221069,0.14982505
1732371776965,2024-11-23T14:22:56.965Z,40932,0.028598748,0.221069,0.14982505
1732371776973,2024-11-23T14:22:56.973Z,40940,0.021890473,-0.05895604,-0.0021129497
1732371776976,2024-11-23T14:22:56.976Z,40943,0.021890473,-0.05895604,-0.0021129497
1732371776994,2024-11-23T14:22:56.994Z,40961,-0.06708244,0.041799303,0.10300574
1732371776997,2024-11-23T14:22:56.997Z,40964,-0.06708244,0.041799303,0.10300574
1732371777006,2024-11-23T14:22:57.006Z,40973,-0.09070703,-0.36371502,0.041038487
1732371777009,2024-11-23T14:22:57.009Z,40976,-0.09070703,-0.36371502,0.041038487
1732371777043,2024-11-23T14:22:57.043Z,41010,-0.19384892,-0.40712154,0.06630162
1732371777046,2024-11-23T14:22:57.046Z,41013,-0.19384892,-0.40712154,0.06630162
1732371777134,2024-11-23T14:22:57.134Z,41101,0.15057635,0.17070007,-0.09154327
1732371777139,2024-11-23T14:22:57.139Z,41106,0.15057635,0.17070007,-0.09154327
1732371777158,2024-11-23T14:22:57.158Z,41125,0.21555452,0.030237427,0.047400508
1732371777163,2024-11-23T14:22:57.163Z,41130,0.21555452,0.030237427,0.047400508
1732371777182,2024-11-23T14:22:57.182Z,41149,-0.17713456,-0.0788854,0.027880376
1732371777187,2024-11-23T14:22:57.187Z,41154,-0.17713456,-0.0788854,0.027880376
1732371777223,2024-11-23T14:22:57.223Z,41190,0.043377914,-0.11309345,-0.075409405
1732371777228,2024-11-23T14:22:57.228Z,41195,0.043377914,-0.11309345,-0.075409405
1732371777245,2024-11-23T14:22:57.245Z,41212,0.15926385,-0.104206175,-0.0049039666
1732371777250,2024-11-23T14:22:57.250Z,41217,0.15926385,-0.104206175,-0.0049039666
1732371777266,2024-11-23T14:22:57.266Z,41233,0.17479762,0.072493896,0.059935153
1732371777270,2024-11-23T14:22:57.270Z,41237,0.17479762,0.072493896,0.059935153
1732371777315,2024-11-23T14:22:57.315Z,41282,0.076102704,0.0047731125,0.11216047
1732371777319,2024-11-23T14:22:57.319Z,41286,0.076102704,0.0047731125,0.11216047
1732371777338,2024-11-23T14:22:57.338Z,41305,0.08913464,0.05069786,-0.0078056394
1732371777343,2024-11-23T14:22:57.343Z,41310,0.08913464,0.05069786,-0.0078056394
1732371777401,2024-11-23T14:22:57.401Z,41368,-0.021822205,0.055490423,0.15497376
1732371777406,2024-11-23T14:22:57.406Z,41373,-0.021822205,0.055490423,0.15497376
1732371777424,2024-11-23T14:22:57.424Z,41391,-0.040398385,0.27986628,0.0014261074
1732371777431,2024-11-23T14:22:57.431Z,41398,-0.040398385,0.27986628,0.0014261074
1732371777449,2024-11-23T14:22:57.449Z,41416,0.07476299,0.11668296,-0.0013696854
1732371777455,2024-11-23T14:22:57.455Z,41422,0.07476299,0.11668296,-0.0013696854
1732371777470,2024-11-23T14:22:57.470Z,41437,0.10733791,0.22039926,0.16424602
1732371777473,2024-11-23T14:22:57.473Z,41440,0.10733791,0.22039926,0.16424602
1732371777485,2024-11-23T14:22:57.485Z,41452,-0.06976104,0.2614761,0.10407394
1732371777488,2024-11-23T14:22:57.488Z,41455,-0.06976104,0.2614761,0.10407394
1732371777499,2024-11-23T14:22:57.499Z,41466,0.028206851,0.04487058,0.14729978
1732371777502,2024-11-23T14:22:57.502Z,41469,0.028206851,0.04487058,0.14729978
1732371777538,2024-11-23T14:22:57.538Z,41505,-0.05351902,0.05925313,-0.014109276
1732371777545,2024-11-23T14:22:57.545Z,41512,-0.05351902,0.05925313,-0.014109276
1732371777566,2024-11-23T14:22:57.566Z,41533,-0.20859396,-0.18410102,-0.17105304
1732371777571,2024-11-23T14:22:57.571Z,41538,-0.20859396,-0.18410102,-0.17105304
1732371777589,2024-11-23T14:22:57.589Z,41556,-0.04993997,-0.25195745,-0.11548241
1732371777595,2024-11-23T14:22:57.595Z,41562,-0.04993997,-0.25195745,-0.11548241
1732371777608,2024-11-23T14:22:57.608Z,41575,-0.16670266,-0.27057493,-0.13584392
1732371777612,2024-11-23T14:22:57.612Z,41579,-0.16670266,-0.27057493,-0.13584392
1732371777625,2024-11-23T14:22:57.625Z,41592,-0.15861893,-0.25147986,-0.1013987
1732371777630,2024-11-23T14:22:57.630Z,41597,-0.15861893,-0.25147986,-0.1013987
1732371777640,2024-11-23T14:22:57.640Z,41607,0.04112822,-0.16523115,-0.024018958
1732371777643,2024-11-23T14:22:57.643Z,41610,0.04112822,-0.16523115,-0.024018958
1732371777653,2024-11-23T14:22:57.653Z,41620,0.21965146,0.06730174,0.01964456
1732371777656,2024-11-23T14:22:57.656Z,41623,0.21965146,0.06730174,0.01964456
1732371777665,2024-11-23T14:22:57.665Z,41632,0.02147075,0.27071324,-0.07079412
1732371777667,2024-11-23T14:22:57.667Z,41634,0.02147075,0.27071324,-0.07079412
1732371777675,2024-11-23T14:22:57.675Z,41642,0.0132214,0.026362494,-0.083371095
1732371777678,2024-11-23T14:22:57.678Z,41645,0.0132214,0.026362494,-0.083371095
1732371777686,2024-11-23T14:22:57.686Z,41653,-0.058783565,0.06799229,-0.13161685
1732371777688,2024-11-23T14:22:57.688Z,41655,-0.058783565,0.06799229,-0.13161685
1732371777717,2024-11-23T14:22:57.717Z,41684,-0.08088951,0.029918842,-0.1387214
1732371777719,2024-11-23T14:22:57.719Z,41686,-0.08088951,0.029918842,-0.1387214
1732371777765,2024-11-23T14:22:57.765Z,41732,-0.15905203,0.12434686,-0.22267757
1732371777769,2024-11-23T14:22:57.769Z,41736,-0.15905203,0.12434686,-0.22267757
1732371777807,2024-11-23T14:22:57.807Z,41774,-0.20828705,-0.045228455,-0.047549415
1732371777813,2024-11-23T14:22:57.813Z,41780,-0.20828705,-0.045228455,-0.047549415
1732371777829,2024-11-23T14:22:57.829Z,41796,0.009257992,-0.05618798,0.011666784
1732371777833,2024-11-23T14:22:57.833Z,41800,0.009257992,-0.05618798,0.011666784
1732371777852,2024-11-23T14:22:57.852Z,41819,0.09977628,0.1850412,-0.010343255
1732371777855,2024-11-23T14:22:57.855Z,41822,0.09977628,0.1850412,-0.010343255
