Timestamp (ms),ISO DateTime,Elapsed Time (ms),Acceleration X,Acceleration Y,Acceleration Z
1732437890652,2024-11-24T08:44:50.652Z,30211,0.061776806,-0.17185664,-0.38088414
1732437890659,2024-11-24T08:44:50.659Z,30218,0.061776806,-0.17185664,-0.38088414
1732437890680,2024-11-24T08:44:50.680Z,30239,0.056961536,-0.14849775,-0.36654374
1732437890687,2024-11-24T08:44:50.687Z,30246,0.056961536,-0.14849775,-0.36654374
1732437890728,2024-11-24T08:44:50.728Z,30287,0.044266213,-0.17852254,-0.35552052
1732437890736,2024-11-24T08:44:50.736Z,30295,0.044266213,-0.17852254,-0.35552052
1732437890750,2024-11-24T08:44:50.750Z,30309,0.068404965,-0.1811969,-0.3677933
1732437890755,2024-11-24T08:44:50.755Z,30314,0.068404965,-0.1811969,-0.3677933
1732437890766,2024-11-24T08:44:50.766Z,30325,0.09789504,-0.18278788,-0.35503173
1732437890770,2024-11-24T08:44:50.770Z,30329,0.09789504,-0.18278788,-0.35503173
1732437890785,2024-11-24T08:44:50.785Z,30344,0.07706138,-0.1717438,-0.3589013
1732437890788,2024-11-24T08:44:50.788Z,30347,0.07706138,-0.1717438,-0.3589013
1732437890800,2024-11-24T08:44:50.800Z,30359,0.081325784,-0.1613678,-0.3601588
1732437890805,2024-11-24T08:44:50.805Z,30364,0.081325784,-0.1613678,-0.3601588
1732437890816,2024-11-24T08:44:50.816Z,30375,0.07353264,-0.16074415,-0.3751478
1732437890820,2024-11-24T08:44:50.820Z,30379,0.07353264,-0.16074415,-0.3751478
1732437890832,2024-11-24T08:44:50.832Z,30391,0.072083674,-0.1738354,-0.38823187
1732437890836,2024-11-24T08:44:50.836Z,30395,0.072083674,-0.1738354,-0.38823187
1732437890847,2024-11-24T08:44:50.847Z,30406,0.09507498,-0.15923972,-0.42298254
1732437890850,2024-11-24T08:44:50.850Z,30409,0.09507498,-0.15923972,-0.42298254
1732437890861,2024-11-24T08:44:50.861Z,30420,0.09392041,-0.1810343,-0.39607444
1732437890866,2024-11-24T08:44:50.866Z,30425,0.09392041,-0.1810343,-0.39607444
1732437890878,2024-11-24T08:44:50.878Z,30437,0.07990908,-0.164502,-0.3996476
1732437890882,2024-11-24T08:44:50.882Z,30441,0.07990908,-0.164502,-0.3996476
1732437890893,2024-11-24T08:44:50.893Z,30452,0.07960477,-0.17807803,-0.38742083
1732437890897,2024-11-24T08:44:50.897Z,30456,0.07960477,-0.17807803,-0.38742083
1732437890910,2024-11-24T08:44:50.910Z,30469,0.09488479,-0.19855927,-0.38599658
1732437890916,2024-11-24T08:44:50.916Z,30475,0.09488479,-0.19855927,-0.38599658
1732437890928,2024-11-24T08:44:50.928Z,30487,0.109137364,-0.19352724,-0.37168097
1732437890932,2024-11-24T08:44:50.932Z,30491,0.109137364,-0.19352724,-0.37168097
1732437890943,2024-11-24T08:44:50.943Z,30502,0.1015607,-0.20668937,-0.38056543
1732437890947,2024-11-24T08:44:50.947Z,30506,0.1015607,-0.20668937,-0.38056543
1732437890960,2024-11-24T08:44:50.960Z,30519,0.07859691,-0.17852546,-0.40638474
1732437890964,2024-11-24T08:44:50.964Z,30523,0.07859691,-0.17852546,-0.40638474
1732437890978,2024-11-24T08:44:50.978Z,30537,0.08805416,-0.15010788,-0.37923387
1732437890983,2024-11-24T08:44:50.983Z,30542,0.08805416,-0.15010788,-0.37923387
1732437890994,2024-11-24T08:44:50.994Z,30553,0.08478331,-0.1485471,-0.36112714
1732437890998,2024-11-24T08:44:50.998Z,30557,0.08478331,-0.1485471,-0.36112714
1732437891011,2024-11-24T08:44:51.011Z,30570,0.08811513,-0.14964993,-0.36758447
1732437891014,2024-11-24T08:44:51.014Z,30573,0.08811513,-0.14964993,-0.36758447
1732437891026,2024-11-24T08:44:51.026Z,30585,0.10902811,-0.14054522,-0.36628732
1732437891030,2024-11-24T08:44:51.030Z,30589,0.10902811,-0.14054522,-0.36628732
1732437891042,2024-11-24T08:44:51.042Z,30601,0.11498227,-0.1549708,-0.3635571
1732437891046,2024-11-24T08:44:51.046Z,30605,0.11498227,-0.1549708,-0.3635571
1732437891059,2024-11-24T08:44:51.059Z,30618,0.084197365,-0.14941552,-0.35025784
1732437891063,2024-11-24T08:44:51.063Z,30622,0.084197365,-0.14941552,-0.35025784
1732437891076,2024-11-24T08:44:51.076Z,30635,0.048680674,-0.1275887,-0.3603748
1732437891080,2024-11-24T08:44:51.080Z,30639,0.048680674,-0.1275887,-0.3603748
1732437891094,2024-11-24T08:44:51.094Z,30653,0.03920024,-0.14545403,-0.35762352
1732437891098,2024-11-24T08:44:51.098Z,30657,0.03920024,-0.14545403,-0.35762352
1732437891112,2024-11-24T08:44:51.112Z,30671,0.027157057,-0.12872136,-0.33958948
1732437891118,2024-11-24T08:44:51.118Z,30677,0.027157057,-0.12872136,-0.33958948
1732437891133,2024-11-24T08:44:51.133Z,30692,0.038342025,-0.13984898,-0.3285116
1732437891138,2024-11-24T08:44:51.138Z,30697,0.038342025,-0.13984898,-0.3285116
1732437891151,2024-11-24T08:44:51.151Z,30710,0.056200888,-0.1402068,-0.3407382
1732437891154,2024-11-24T08:44:51.154Z,30713,0.056200888,-0.1402068,-0.3407382
1732437891166,2024-11-24T08:44:51.166Z,30725,0.036707122,-0.10527172,-0.33809057
1732437891171,2024-11-24T08:44:51.171Z,30730,0.036707122,-0.10527172,-0.33809057
1732437891184,2024-11-24T08:44:51.184Z,30743,0.034270994,-0.11731002,-0.32155696
1732437891188,2024-11-24T08:44:51.188Z,30747,0.034270994,-0.11731002,-0.32155696
1732437891200,2024-11-24T08:44:51.200Z,30759,0.019598478,-0.11992651,-0.30316257
1732437891204,2024-11-24T08:44:51.204Z,30763,0.019598478,-0.11992651,-0.30316257
1732437891220,2024-11-24T08:44:51.220Z,30779,0.04243939,-0.0973456,-0.29364526
1732437891224,2024-11-24T08:44:51.224Z,30783,0.04243939,-0.0973456,-0.29364526
1732437891237,2024-11-24T08:44:51.237Z,30796,0.025133502,-0.116665505,-0.29533008
1732437891241,2024-11-24T08:44:51.241Z,30800,0.025133502,-0.116665505,-0.29533008
1732437891258,2024-11-24T08:44:51.258Z,30817,0.022453938,-0.084078334,-0.28370187
1732437891262,2024-11-24T08:44:51.262Z,30821,0.022453938,-0.084078334,-0.28370187
1732437891282,2024-11-24T08:44:51.282Z,30841,0.040932413,-0.091759734,-0.2315348
1732437891290,2024-11-24T08:44:51.290Z,30849,0.040932413,-0.091759734,-0.2315348
1732437891322,2024-11-24T08:44:51.322Z,30881,0.05377266,-0.08734999,-0.24689189
1732437891330,2024-11-24T08:44:51.330Z,30889,0.05377266,-0.08734999,-0.24689189
1732437891347,2024-11-24T08:44:51.347Z,30906,0.06133294,-0.08766828,-0.24252367
1732437891351,2024-11-24T08:44:51.351Z,30910,0.06133294,-0.08766828,-0.24252367
1732437891368,2024-11-24T08:44:51.368Z,30927,0.0637275,-0.08457517,-0.21028627
1732437891371,2024-11-24T08:44:51.371Z,30930,0.0637275,-0.08457517,-0.21028627
1732437891385,2024-11-24T08:44:51.385Z,30944,0.06695068,-0.09882891,-0.18896337
1732437891389,2024-11-24T08:44:51.389Z,30948,0.06695068,-0.09882891,-0.18896337
1732437891402,2024-11-24T08:44:51.402Z,30961,0.06711429,-0.10442927,-0.159476
1732437891406,2024-11-24T08:44:51.406Z,30965,0.06711429,-0.10442927,-0.159476
1732437891419,2024-11-24T08:44:51.419Z,30978,0.0529639,-0.083814695,-0.2162122
1732437891423,2024-11-24T08:44:51.423Z,30982,0.0529639,-0.083814695,-0.2162122
1732437891437,2024-11-24T08:44:51.437Z,30996,0.05144584,-0.057210393,-0.21625338
1732437891441,2024-11-24T08:44:51.441Z,31000,0.05144584,-0.057210393,-0.21625338
1732437891454,2024-11-24T08:44:51.454Z,31013,0.05286038,-0.0665187,-0.21738322
1732437891457,2024-11-24T08:44:51.457Z,31016,0.05286038,-0.0665187,-0.21738322
1732437891469,2024-11-24T08:44:51.469Z,31028,0.054433193,-0.065079145,-0.21350624
1732437891474,2024-11-24T08:44:51.474Z,31033,0.054433193,-0.065079145,-0.21350624
1732437891488,2024-11-24T08:44:51.488Z,31047,0.083057985,-0.07514297,-0.1996216
1732437891492,2024-11-24T08:44:51.492Z,31051,0.083057985,-0.07514297,-0.1996216
1732437891504,2024-11-24T08:44:51.504Z,31063,0.08968447,-0.087936245,-0.18560536
1732437891507,2024-11-24T08:44:51.507Z,31066,0.08968447,-0.087936245,-0.18560536
1732437891520,2024-11-24T08:44:51.520Z,31079,0.06046148,-0.06632459,-0.21129754
1732437891523,2024-11-24T08:44:51.523Z,31082,0.06046148,-0.06632459,-0.21129754
1732437891535,2024-11-24T08:44:51.535Z,31094,0.04413748,-0.05983107,-0.2307796
1732437891539,2024-11-24T08:44:51.539Z,31098,0.04413748,-0.05983107,-0.2307796
1732437891550,2024-11-24T08:44:51.550Z,31109,0.030833676,-0.047396492,-0.25360146
1732437891553,2024-11-24T08:44:51.553Z,31112,0.030833676,-0.047396492,-0.25360146
1732437891565,2024-11-24T08:44:51.565Z,31124,0.042073958,-0.077105574,-0.20969316
1732437891568,2024-11-24T08:44:51.568Z,31127,0.042073958,-0.077105574,-0.20969316
1732437891579,2024-11-24T08:44:51.579Z,31138,0.04695674,-0.07210013,-0.19442186
1732437891582,2024-11-24T08:44:51.582Z,31141,0.04695674,-0.07210013,-0.19442186
1732437891593,2024-11-24T08:44:51.593Z,31152,0.040016294,-0.071874425,-0.20936327
1732437891596,2024-11-24T08:44:51.596Z,31155,0.040016294,-0.071874425,-0.20936327
1732437891610,2024-11-24T08:44:51.610Z,31169,0.043133277,-0.060248267,-0.22758314
1732437891614,2024-11-24T08:44:51.614Z,31173,0.043133277,-0.060248267,-0.22758314
1732437891628,2024-11-24T08:44:51.628Z,31187,0.025831934,-0.078011826,-0.23162043
1732437891632,2024-11-24T08:44:51.632Z,31191,0.025831934,-0.078011826,-0.23162043
1732437891642,2024-11-24T08:44:51.642Z,31201,0.028488038,-0.038379297,-0.23505667
1732437891646,2024-11-24T08:44:51.646Z,31205,0.028488038,-0.038379297,-0.23505667
1732437891659,2024-11-24T08:44:51.659Z,31218,-0.019581119,-0.027708597,-0.24912187
1732437891663,2024-11-24T08:44:51.663Z,31222,-0.019581119,-0.027708597,-0.24912187
1732437891675,2024-11-24T08:44:51.675Z,31234,-0.030744305,-0.015344036,-0.24407548
1732437891679,2024-11-24T08:44:51.679Z,31238,-0.030744305,-0.015344036,-0.24407548
1732437891691,2024-11-24T08:44:51.691Z,31250,-0.0062062033,-0.026243463,-0.2577806
1732437891695,2024-11-24T08:44:51.695Z,31254,-0.0062062033,-0.026243463,-0.2577806
1732437891708,2024-11-24T08:44:51.708Z,31267,0.020450756,-0.060354654,-0.24050191
1732437891712,2024-11-24T08:44:51.712Z,31271,0.020450756,-0.060354654,-0.24050191
1732437891727,2024-11-24T08:44:51.727Z,31286,0.010742298,-0.053030636,-0.23330729
1732437891731,2024-11-24T08:44:51.731Z,31290,0.010742298,-0.053030636,-0.23330729
1732437891743,2024-11-24T08:44:51.743Z,31302,0.015705239,-0.041311607,-0.22906081
1732437891747,2024-11-24T08:44:51.747Z,31306,0.015705239,-0.041311607,-0.22906081
1732437891762,2024-11-24T08:44:51.762Z,31321,0.027808785,-0.07243642,-0.21527207
1732437891766,2024-11-24T08:44:51.766Z,31325,0.027808785,-0.07243642,-0.21527207
1732437891778,2024-11-24T08:44:51.778Z,31337,0.02314887,-0.1040109,-0.12235146
1732437891782,2024-11-24T08:44:51.782Z,31341,0.02314887,-0.1040109,-0.12235146
1732437891793,2024-11-24T08:44:51.793Z,31352,0.031950228,-0.056649227,-0.10387913
1732437891796,2024-11-24T08:44:51.796Z,31355,0.031950228,-0.056649227,-0.10387913
1732437891807,2024-11-24T08:44:51.807Z,31366,0.06551464,-0.09334361,-0.15525457
1732437891811,2024-11-24T08:44:51.811Z,31370,0.06551464,-0.09334361,-0.15525457
1732437891825,2024-11-24T08:44:51.825Z,31384,0.052847616,-0.084196776,-0.1838635
1732437891829,2024-11-24T08:44:51.829Z,31388,0.052847616,-0.084196776,-0.1838635
1732437891840,2024-11-24T08:44:51.840Z,31399,0.060018882,-0.090056054,-0.17341045
1732437891843,2024-11-24T08:44:51.843Z,31402,0.060018882,-0.090056054,-0.17341045
1732437891853,2024-11-24T08:44:51.853Z,31412,0.04814518,-0.09829497,-0.1461595
1732437891857,2024-11-24T08:44:51.857Z,31416,0.04814518,-0.09829497,-0.1461595
1732437891869,2024-11-24T08:44:51.869Z,31428,0.026298165,-0.0847612,-0.15394484
1732437891872,2024-11-24T08:44:51.872Z,31431,0.026298165,-0.0847612,-0.15394484
1732437891884,2024-11-24T08:44:51.884Z,31443,0.008952212,-0.053853646,-0.17444147
1732437891888,2024-11-24T08:44:51.888Z,31447,0.008952212,-0.053853646,-0.17444147
1732437891900,2024-11-24T08:44:51.900Z,31459,0.1043927,-0.03149309,-0.10412352
1732437891904,2024-11-24T08:44:51.904Z,31463,0.1043927,-0.03149309,-0.10412352
1732437891920,2024-11-24T08:44:51.920Z,31479,0.10066378,-0.02486877,-0.111965574
1732437891924,2024-11-24T08:44:51.924Z,31483,0.10066378,-0.02486877,-0.111965574
1732437891935,2024-11-24T08:44:51.935Z,31494,0.043424167,-0.0679885,-0.15152253
1732437891939,2024-11-24T08:44:51.939Z,31498,0.043424167,-0.0679885,-0.15152253
1732437891952,2024-11-24T08:44:51.952Z,31511,-0.00942165,0.0044347877,-0.28138533
1732437891955,2024-11-24T08:44:51.955Z,31514,-0.00942165,0.0044347877,-0.28138533
1732437891966,2024-11-24T08:44:51.966Z,31525,-0.043973885,-0.030156322,-0.261885
1732437891969,2024-11-24T08:44:51.969Z,31528,-0.043973885,-0.030156322,-0.261885
1732437891980,2024-11-24T08:44:51.980Z,31539,-0.07128457,-0.05781299,-0.22745287
1732437891984,2024-11-24T08:44:51.984Z,31543,-0.07128457,-0.05781299,-0.22745287
1732437891997,2024-11-24T08:44:51.997Z,31556,-0.06265887,-0.030512832,-0.22437105
1732437892000,2024-11-24T08:44:52Z,31559,-0.06265887,-0.030512832,-0.22437105
1732437892011,2024-11-24T08:44:52.011Z,31570,-0.09122322,-0.01120741,-0.22912738
1732437892015,2024-11-24T08:44:52.015Z,31574,-0.09122322,-0.01120741,-0.22912738
1732437892027,2024-11-24T08:44:52.027Z,31586,-0.0801599,0.0037135012,-0.20657216
1732437892031,2024-11-24T08:44:52.031Z,31590,-0.0801599,0.0037135012,-0.20657216
1732437892044,2024-11-24T08:44:52.044Z,31603,-0.08723983,0.032694194,-0.25726536
1732437892047,2024-11-24T08:44:52.047Z,31606,-0.08723983,0.032694194,-0.25726536
1732437892057,2024-11-24T08:44:52.057Z,31616,-0.08681992,0.075884774,-0.3093631
1732437892060,2024-11-24T08:44:52.060Z,31619,-0.08681992,0.075884774,-0.3093631
1732437892072,2024-11-24T08:44:52.072Z,31631,-0.08780372,0.08366566,-0.3078201
1732437892075,2024-11-24T08:44:52.075Z,31634,-0.08780372,0.08366566,-0.3078201
1732437892086,2024-11-24T08:44:52.086Z,31645,-0.023535041,-0.006605259,-0.13022831
1732437892090,2024-11-24T08:44:52.090Z,31649,-0.023535041,-0.006605259,-0.13022831
1732437892103,2024-11-24T08:44:52.103Z,31662,-0.08732604,-0.01858112,-0.19819184
1732437892106,2024-11-24T08:44:52.106Z,31665,-0.08732604,-0.01858112,-0.19819184
1732437892118,2024-11-24T08:44:52.118Z,31677,-0.104444705,0.004585327,-0.28554517
1732437892121,2024-11-24T08:44:52.121Z,31680,-0.104444705,0.004585327,-0.28554517
1732437892132,2024-11-24T08:44:52.132Z,31691,0.031544972,-0.020185513,-0.24715509
1732437892136,2024-11-24T08:44:52.136Z,31695,0.031544972,-0.020185513,-0.24715509
1732437892148,2024-11-24T08:44:52.148Z,31707,0.079470664,-0.037841905,-0.09060047
1732437892153,2024-11-24T08:44:52.153Z,31712,0.079470664,-0.037841905,-0.09060047
1732437892166,2024-11-24T08:44:52.166Z,31725,0.11315375,-0.05661052,0.073550634
1732437892170,2024-11-24T08:44:52.170Z,31729,0.11315375,-0.05661052,0.073550634
1732437892180,2024-11-24T08:44:52.180Z,31739,0.08253569,0.04473395,-0.2742772
1732437892183,2024-11-24T08:44:52.183Z,31742,0.08253569,0.04473395,-0.2742772
1732437892199,2024-11-24T08:44:52.199Z,31758,0.06171814,0.017687414,-0.3222873
1732437892207,2024-11-24T08:44:52.207Z,31766,0.06171814,0.017687414,-0.3222873
1732437892234,2024-11-24T08:44:52.234Z,31793,-0.027601551,0.0309132,-0.29885793
1732437892239,2024-11-24T08:44:52.239Z,31798,-0.027601551,0.0309132,-0.29885793
1732437892257,2024-11-24T08:44:52.257Z,31816,-0.03708517,-0.056614798,-0.23577426
1732437892261,2024-11-24T08:44:52.261Z,31820,-0.03708517,-0.056614798,-0.23577426
1732437892275,2024-11-24T08:44:52.275Z,31834,0.060453825,0.00854185,-0.21427445
1732437892279,2024-11-24T08:44:52.279Z,31838,0.060453825,0.00854185,-0.21427445
1732437892292,2024-11-24T08:44:52.292Z,31851,0.019893551,0.044166606,-0.17672664
1732437892296,2024-11-24T08:44:52.296Z,31855,0.019893551,0.044166606,-0.17672664
1732437892307,2024-11-24T08:44:52.307Z,31866,-0.024157135,0.082559854,-0.13741486
1732437892311,2024-11-24T08:44:52.311Z,31870,-0.024157135,0.082559854,-0.13741486
1732437892321,2024-11-24T08:44:52.321Z,31880,-0.056751505,0.10588463,-0.28617483
1732437892324,2024-11-24T08:44:52.324Z,31883,-0.056751505,0.10588463,-0.28617483
1732437892335,2024-11-24T08:44:52.335Z,31894,-0.018954042,0.0854946,-0.3484723
1732437892338,2024-11-24T08:44:52.338Z,31897,-0.018954042,0.0854946,-0.3484723
1732437892349,2024-11-24T08:44:52.349Z,31908,-0.042868737,0.19119333,-0.15095092
1732437892352,2024-11-24T08:44:52.352Z,31911,-0.042868737,0.19119333,-0.15095092
1732437892366,2024-11-24T08:44:52.366Z,31925,-0.19620462,0.18437889,-0.29846126
1732437892374,2024-11-24T08:44:52.374Z,31933,-0.19620462,0.18437889,-0.29846126
1732437892395,2024-11-24T08:44:52.395Z,31954,-0.20371233,0.047527,-0.35526296
1732437892402,2024-11-24T08:44:52.402Z,31961,-0.20371233,0.047527,-0.35526296
1732437892414,2024-11-24T08:44:52.414Z,31973,0.09316158,-0.16827706,-0.11965748
1732437892418,2024-11-24T08:44:52.418Z,31977,0.09316158,-0.16827706,-0.11965748
1732437892430,2024-11-24T08:44:52.430Z,31989,0.052577633,-0.057609644,-0.14349
1732437892436,2024-11-24T08:44:52.436Z,31995,0.052577633,-0.057609644,-0.14349
1732437892458,2024-11-24T08:44:52.458Z,32017,-0.07145575,-7.676735E-4,-0.23428331
1732437892466,2024-11-24T08:44:52.466Z,32025,-0.07145575,-7.676735E-4,-0.23428331
1732437892492,2024-11-24T08:44:52.492Z,32051,-0.15454952,-0.060183305,-0.2547552
1732437892500,2024-11-24T08:44:52.500Z,32059,-0.15454952,-0.060183305,-0.2547552
1732437892522,2024-11-24T08:44:52.522Z,32081,-0.15827602,-0.07183708,-0.2875888
1732437892530,2024-11-24T08:44:52.530Z,32089,-0.15827602,-0.07183708,-0.2875888
1732437892550,2024-11-24T08:44:52.550Z,32109,-0.15046266,-0.012235708,-0.25443837
1732437892555,2024-11-24T08:44:52.555Z,32114,-0.15046266,-0.012235708,-0.25443837
1732437892571,2024-11-24T08:44:52.571Z,32130,0.014327628,0.0581836,-0.13270807
1732437892576,2024-11-24T08:44:52.576Z,32135,0.014327628,0.0581836,-0.13270807
1732437892591,2024-11-24T08:44:52.591Z,32150,0.17671521,0.11431367,-0.102789305
1732437892598,2024-11-24T08:44:52.598Z,32157,0.17671521,0.11431367,-0.102789305
1732437892611,2024-11-24T08:44:52.611Z,32170,-0.14146888,0.09559835,-0.2241557
1732437892614,2024-11-24T08:44:52.614Z,32173,-0.14146888,0.09559835,-0.2241557
1732437892625,2024-11-24T08:44:52.625Z,32184,-0.038446445,0.19824691,-0.13864803
1732437892628,2024-11-24T08:44:52.628Z,32187,-0.038446445,0.19824691,-0.13864803
1732437892640,2024-11-24T08:44:52.640Z,32199,0.035082087,0.12677751,-0.24121907
1732437892644,2024-11-24T08:44:52.644Z,32203,0.035082087,0.12677751,-0.24121907
1732437892655,2024-11-24T08:44:52.655Z,32214,0.089830026,-0.016329447,-0.28450578
1732437892659,2024-11-24T08:44:52.659Z,32218,0.089830026,-0.016329447,-0.28450578
1732437892671,2024-11-24T08:44:52.671Z,32230,0.08142493,-0.038599953,-0.07988294
1732437892675,2024-11-24T08:44:52.675Z,32234,0.08142493,-0.038599953,-0.07988294
1732437892684,2024-11-24T08:44:52.684Z,32243,0.008963468,0.019721836,-0.23600729
1732437892687,2024-11-24T08:44:52.687Z,32246,0.008963468,0.019721836,-0.23600729
1732437892698,2024-11-24T08:44:52.698Z,32257,-0.07217566,0.04534515,-0.28765678
1732437892701,2024-11-24T08:44:52.701Z,32260,-0.07217566,0.04534515,-0.28765678
1732437892711,2024-11-24T08:44:52.711Z,32270,0.041214556,-0.084646456,-0.25628614
1732437892715,2024-11-24T08:44:52.715Z,32274,0.041214556,-0.084646456,-0.25628614
1732437892727,2024-11-24T08:44:52.727Z,32286,0.043580543,-0.023620205,-0.037408207
1732437892730,2024-11-24T08:44:52.730Z,32289,0.043580543,-0.023620205,-0.037408207
1732437892743,2024-11-24T08:44:52.743Z,32302,-0.044163104,0.022033317,-0.09913605
1732437892750,2024-11-24T08:44:52.750Z,32309,-0.044163104,0.022033317,-0.09913605
1732437892774,2024-11-24T08:44:52.774Z,32333,-0.09033092,-0.02076939,-0.26699054
1732437892781,2024-11-24T08:44:52.781Z,32340,-0.09033092,-0.02076939,-0.26699054
1732437892798,2024-11-24T08:44:52.798Z,32357,-0.023276605,0.012382357,-0.20793837
1732437892802,2024-11-24T08:44:52.802Z,32361,-0.023276605,0.012382357,-0.20793837
1732437892815,2024-11-24T08:44:52.815Z,32374,-0.0499593,0.029138235,-0.13133354
1732437892819,2024-11-24T08:44:52.819Z,32378,-0.0499593,0.029138235,-0.13133354
1732437892830,2024-11-24T08:44:52.830Z,32389,-0.021553302,-0.0062886206,-0.22398548
1732437892833,2024-11-24T08:44:52.833Z,32392,-0.021553302,-0.0062886206,-0.22398548
1732437892844,2024-11-24T08:44:52.844Z,32403,-0.036817692,-0.029585283,-0.25544417
1732437892848,2024-11-24T08:44:52.848Z,32407,-0.036817692,-0.029585283,-0.25544417
1732437892860,2024-11-24T08:44:52.860Z,32419,-0.045982014,0.10544458,-0.17894605
1732437892863,2024-11-24T08:44:52.863Z,32422,-0.045982014,0.10544458,-0.17894605
1732437892874,2024-11-24T08:44:52.874Z,32433,-0.11430969,0.071474545,-0.35391974
1732437892878,2024-11-24T08:44:52.878Z,32437,-0.11430969,0.071474545,-0.35391974
1732437892890,2024-11-24T08:44:52.890Z,32449,-0.071366034,0.025950843,-0.29498702
1732437892894,2024-11-24T08:44:52.894Z,32453,-0.071366034,0.025950843,-0.29498702
1732437892905,2024-11-24T08:44:52.905Z,32464,-0.07869717,-0.05146252,-0.25662303
1732437892908,2024-11-24T08:44:52.908Z,32467,-0.07869717,-0.05146252,-0.25662303
1732437892919,2024-11-24T08:44:52.919Z,32478,-0.020099984,-0.09132873,-0.19942941
1732437892924,2024-11-24T08:44:52.924Z,32483,-0.020099984,-0.09132873,-0.19942941
1732437892943,2024-11-24T08:44:52.943Z,32502,-0.05219111,0.07969314,-0.21337695
1732437892947,2024-11-24T08:44:52.947Z,32506,-0.05219111,0.07969314,-0.21337695
1732437892959,2024-11-24T08:44:52.959Z,32518,-0.13130371,0.094418585,-0.281269
1732437892962,2024-11-24T08:44:52.962Z,32521,-0.13130371,0.094418585,-0.281269
1732437892972,2024-11-24T08:44:52.972Z,32531,-0.0752442,0.13382263,-0.28890783
1732437892975,2024-11-24T08:44:52.975Z,32534,-0.0752442,0.13382263,-0.28890783
1732437892987,2024-11-24T08:44:52.987Z,32546,-0.041421827,0.034385234,-0.2888771
1732437892990,2024-11-24T08:44:52.990Z,32549,-0.041421827,0.034385234,-0.2888771
1732437893000,2024-11-24T08:44:53Z,32559,-0.029678592,-0.06806718,-0.24015124
1732437893003,2024-11-24T08:44:53.003Z,32562,-0.029678592,-0.06806718,-0.24015124
1732437893013,2024-11-24T08:44:53.013Z,32572,-0.069678195,-0.14119512,-0.19345278
1732437893017,2024-11-24T08:44:53.017Z,32576,-0.069678195,-0.14119512,-0.19345278
1732437893028,2024-11-24T08:44:53.028Z,32587,-0.09791509,-0.10063427,-0.14736253
1732437893031,2024-11-24T08:44:53.031Z,32590,-0.09791509,-0.10063427,-0.14736253
1732437893041,2024-11-24T08:44:53.041Z,32600,0.0017702001,-0.1677276,-0.084242776
1732437893046,2024-11-24T08:44:53.046Z,32605,0.0017702001,-0.1677276,-0.084242776
1732437893057,2024-11-24T08:44:53.057Z,32616,-0.035348862,-0.11379432,-0.11167772
1732437893061,2024-11-24T08:44:53.061Z,32620,-0.035348862,-0.11379432,-0.11167772
1732437893075,2024-11-24T08:44:53.075Z,32634,-0.1156444,-0.07196428,-0.21145684
1732437893081,2024-11-24T08:44:53.081Z,32640,-0.1156444,-0.07196428,-0.21145684
1732437893101,2024-11-24T08:44:53.101Z,32660,-0.055440884,0.0067923637,-0.23000427
1732437893106,2024-11-24T08:44:53.106Z,32665,-0.055440884,0.0067923637,-0.23000427
1732437893118,2024-11-24T08:44:53.118Z,32677,0.015639232,-0.069676824,-0.16090274
1732437893123,2024-11-24T08:44:53.123Z,32682,0.015639232,-0.069676824,-0.16090274
1732437893142,2024-11-24T08:44:53.142Z,32701,0.054427844,-0.21193594,-0.12682986
1732437893145,2024-11-24T08:44:53.145Z,32704,0.054427844,-0.21193594,-0.12682986
1732437893158,2024-11-24T08:44:53.158Z,32717,0.034369044,-0.25260854,-0.22330856
1732437893161,2024-11-24T08:44:53.161Z,32720,0.034369044,-0.25260854,-0.22330856
1732437893175,2024-11-24T08:44:53.175Z,32734,0.05051686,-0.12721343,-0.36071393
1732437893179,2024-11-24T08:44:53.179Z,32738,0.05051686,-0.12721343,-0.36071393
1732437893201,2024-11-24T08:44:53.201Z,32760,0.07406092,-0.22336876,-0.3780138
1732437893210,2024-11-24T08:44:53.210Z,32769,0.07406092,-0.22336876,-0.3780138
1732437893230,2024-11-24T08:44:53.230Z,32789,-0.0068467255,-0.17901641,-0.29213962
1732437893237,2024-11-24T08:44:53.237Z,32796,-0.0068467255,-0.17901641,-0.29213962
1732437893261,2024-11-24T08:44:53.261Z,32820,-0.21541378,-0.0922981,-0.15214366
1732437893268,2024-11-24T08:44:53.268Z,32827,-0.21541378,-0.0922981,-0.15214366
1732437893290,2024-11-24T08:44:53.290Z,32849,-0.27219832,-0.037028525,-0.29125994
1732437893294,2024-11-24T08:44:53.294Z,32853,-0.27219832,-0.037028525,-0.29125994
1732437893308,2024-11-24T08:44:53.308Z,32867,-0.21920578,-0.112945735,-0.3676755
1732437893313,2024-11-24T08:44:53.313Z,32872,-0.21920578,-0.112945735,-0.3676755
1732437893326,2024-11-24T08:44:53.326Z,32885,0.048033733,-0.10794613,-0.12923513
1732437893330,2024-11-24T08:44:53.330Z,32889,0.048033733,-0.10794613,-0.12923513
1732437893342,2024-11-24T08:44:53.342Z,32901,-0.041415248,-0.053342316,-0.0151023995
1732437893346,2024-11-24T08:44:53.346Z,32905,-0.041415248,-0.053342316,-0.0151023995
1732437893356,2024-11-24T08:44:53.356Z,32915,0.00895316,-0.17798704,-0.12614769
1732437893359,2024-11-24T08:44:53.359Z,32918,0.00895316,-0.17798704,-0.12614769
1732437893369,2024-11-24T08:44:53.369Z,32928,0.18660761,0.045148563,0.021134432
1732437893372,2024-11-24T08:44:53.372Z,32931,0.18660761,0.045148563,0.021134432
1732437893381,2024-11-24T08:44:53.381Z,32940,-0.24743368,-0.4873015,-0.21772243
1732437893384,2024-11-24T08:44:53.384Z,32943,-0.24743368,-0.4873015,-0.21772243
1732437893394,2024-11-24T08:44:53.394Z,32953,-0.21443483,-0.4806653,-0.10005183
1732437893397,2024-11-24T08:44:53.397Z,32956,-0.21443483,-0.4806653,-0.10005183
1732437893407,2024-11-24T08:44:53.407Z,32966,-0.06505539,-0.4269442,-0.08467816
1732437893410,2024-11-24T08:44:53.410Z,32969,-0.06505539,-0.4269442,-0.08467816
1732437893419,2024-11-24T08:44:53.419Z,32978,-0.07286292,-0.4448139,-0.29781345
1732437893422,2024-11-24T08:44:53.422Z,32981,-0.07286292,-0.4448139,-0.29781345
1732437893432,2024-11-24T08:44:53.432Z,32991,-0.03867206,-0.216831,-0.20487687
1732437893436,2024-11-24T08:44:53.436Z,32995,-0.03867206,-0.216831,-0.20487687
1732437893446,2024-11-24T08:44:53.446Z,33005,0.03657,-0.13553122,-0.16833769
1732437893449,2024-11-24T08:44:53.449Z,33008,0.03657,-0.13553122,-0.16833769
1732437893462,2024-11-24T08:44:53.462Z,33021,0.20213686,-0.35672343,-0.009333495
1732437893468,2024-11-24T08:44:53.468Z,33027,0.20213686,-0.35672343,-0.009333495
1732437893489,2024-11-24T08:44:53.489Z,33048,0.16666897,-0.48386946,-0.14726707
1732437893495,2024-11-24T08:44:53.495Z,33054,0.16666897,-0.48386946,-0.14726707
1732437893508,2024-11-24T08:44:53.508Z,33067,0.13460606,-0.48312154,-0.20701602
1732437893512,2024-11-24T08:44:53.512Z,33071,0.13460606,-0.48312154,-0.20701602
1732437893524,2024-11-24T08:44:53.524Z,33083,0.11236978,-0.09007783,-0.199587
1732437893528,2024-11-24T08:44:53.528Z,33087,0.11236978,-0.09007783,-0.199587
1732437893538,2024-11-24T08:44:53.538Z,33097,0.27619898,-0.18250513,-0.19465995
1732437893542,2024-11-24T08:44:53.542Z,33101,0.27619898,-0.18250513,-0.19465995
1732437893551,2024-11-24T08:44:53.551Z,33110,0.15152214,-0.27278632,-0.25530753
1732437893555,2024-11-24T08:44:53.555Z,33114,0.15152214,-0.27278632,-0.25530753
1732437893565,2024-11-24T08:44:53.565Z,33124,0.037821095,-0.42584682,-0.09602417
1732437893568,2024-11-24T08:44:53.568Z,33127,0.037821095,-0.42584682,-0.09602417
1732437893578,2024-11-24T08:44:53.578Z,33137,0.14665402,-0.43984756,-0.09590154
1732437893581,2024-11-24T08:44:53.581Z,33140,0.14665402,-0.43984756,-0.09590154
1732437893591,2024-11-24T08:44:53.591Z,33150,0.18105492,-0.3121902,-0.04458241
1732437893594,2024-11-24T08:44:53.594Z,33153,0.18105492,-0.3121902,-0.04458241
1732437893607,2024-11-24T08:44:53.607Z,33166,-0.004238347,-0.23872252,-0.006074141
1732437893614,2024-11-24T08:44:53.614Z,33173,-0.004238347,-0.23872252,-0.006074141
1732437893636,2024-11-24T08:44:53.636Z,33195,-0.054308522,-0.2730434,0.04551227
1732437893641,2024-11-24T08:44:53.641Z,33200,-0.054308522,-0.2730434,0.04551227
1732437893653,2024-11-24T08:44:53.653Z,33212,0.10624726,-0.15685678,-0.11693165
1732437893656,2024-11-24T08:44:53.656Z,33215,0.10624726,-0.15685678,-0.11693165
1732437893666,2024-11-24T08:44:53.666Z,33225,0.061909936,-0.12810053,-0.066254355
1732437893671,2024-11-24T08:44:53.671Z,33230,0.061909936,-0.12810053,-0.066254355
1732437893684,2024-11-24T08:44:53.684Z,33243,0.005838072,-0.16019183,-0.14858098
1732437893690,2024-11-24T08:44:53.690Z,33249,0.005838072,-0.16019183,-0.14858098
1732437893707,2024-11-24T08:44:53.707Z,33266,-0.17216475,-0.109627254,-0.3405667
1732437893710,2024-11-24T08:44:53.710Z,33269,-0.17216475,-0.109627254,-0.3405667
1732437893722,2024-11-24T08:44:53.722Z,33281,-0.16319601,-0.09535596,-0.3982246
1732437893726,2024-11-24T08:44:53.726Z,33285,-0.16319601,-0.09535596,-0.3982246
1732437893738,2024-11-24T08:44:53.738Z,33297,-0.2125572,-0.12048598,-0.43632987
1732437893742,2024-11-24T08:44:53.742Z,33301,-0.2125572,-0.12048598,-0.43632987
1732437893753,2024-11-24T08:44:53.753Z,33312,0.14776562,-0.2183518,-0.013102525
1732437893756,2024-11-24T08:44:53.756Z,33315,0.14776562,-0.2183518,-0.013102525
1732437893767,2024-11-24T08:44:53.767Z,33326,0.023741571,-0.096098684,-0.13486347
1732437893770,2024-11-24T08:44:53.770Z,33329,0.023741571,-0.096098684,-0.13486347
1732437893783,2024-11-24T08:44:53.783Z,33342,-0.2162283,0.07126264,-0.31215268
1732437893793,2024-11-24T08:44:53.793Z,33352,-0.2162283,0.07126264,-0.31215268
1732437893804,2024-11-24T08:44:53.804Z,33363,-0.375773,-0.13605855,-0.46426293
1732437893807,2024-11-24T08:44:53.807Z,33366,-0.375773,-0.13605855,-0.46426293
1732437893815,2024-11-24T08:44:53.815Z,33374,-0.070318215,-0.11438539,-0.24683599
1732437893818,2024-11-24T08:44:53.818Z,33377,-0.070318215,-0.11438539,-0.24683599
1732437893828,2024-11-24T08:44:53.828Z,33387,0.28146347,-0.12050441,0.0056507243
1732437893830,2024-11-24T08:44:53.830Z,33389,0.28146347,-0.12050441,0.0056507243
1732437893841,2024-11-24T08:44:53.841Z,33400,-0.02637995,-0.043162525,-0.23081496
1732437893844,2024-11-24T08:44:53.844Z,33403,-0.02637995,-0.043162525,-0.23081496
1732437893854,2024-11-24T08:44:53.854Z,33413,-0.15571873,-0.03897562,-0.20175558
1732437893856,2024-11-24T08:44:53.856Z,33415,-0.15571873,-0.03897562,-0.20175558
1732437893865,2024-11-24T08:44:53.865Z,33424,-0.106900185,-0.034660008,-0.16458979
1732437893868,2024-11-24T08:44:53.868Z,33427,-0.106900185,-0.034660008,-0.16458979
1732437893880,2024-11-24T08:44:53.880Z,33439,0.022882873,-0.09900372,0.007527994
1732437893884,2024-11-24T08:44:53.884Z,33443,0.022882873,-0.09900372,0.007527994
1732437893893,2024-11-24T08:44:53.893Z,33452,0.014454025,-0.06288684,0.04347605
1732437893896,2024-11-24T08:44:53.896Z,33455,0.014454025,-0.06288684,0.04347605
1732437893906,2024-11-24T08:44:53.906Z,33465,-0.045138255,-0.03479139,-0.12579317
1732437893909,2024-11-24T08:44:53.909Z,33468,-0.045138255,-0.03479139,-0.12579317
1732437893919,2024-11-24T08:44:53.919Z,33478,-0.091288716,-0.037803445,-0.102100596
1732437893922,2024-11-24T08:44:53.922Z,33481,-0.091288716,-0.037803445,-0.102100596
1732437893934,2024-11-24T08:44:53.934Z,33493,-0.0733785,-0.052625455,-0.04807088
1732437893938,2024-11-24T08:44:53.938Z,33497,-0.0733785,-0.052625455,-0.04807088
1732437893948,2024-11-24T08:44:53.948Z,33507,-0.04077553,-0.048189793,-0.009739747
1732437893950,2024-11-24T08:44:53.950Z,33509,-0.04077553,-0.048189793,-0.009739747
1732437893959,2024-11-24T08:44:53.959Z,33518,-0.051937185,-0.11604934,-0.079469375
1732437893962,2024-11-24T08:44:53.962Z,33521,-0.051937185,-0.11604934,-0.079469375
1732437893974,2024-11-24T08:44:53.974Z,33533,-0.04911666,-0.24313815,-0.11431313
1732437893978,2024-11-24T08:44:53.978Z,33537,-0.04911666,-0.24313815,-0.11431313
1732437893987,2024-11-24T08:44:53.987Z,33546,-0.019385116,-0.17889003,-0.13125874
1732437893990,2024-11-24T08:44:53.990Z,33549,-0.019385116,-0.17889003,-0.13125874
1732437894000,2024-11-24T08:44:54Z,33559,-0.06862752,-0.19680618,-0.21351215
1732437894004,2024-11-24T08:44:54.004Z,33563,-0.06862752,-0.19680618,-0.21351215
1732437894015,2024-11-24T08:44:54.015Z,33574,-0.021165479,-0.131817,-0.24302875
1732437894018,2024-11-24T08:44:54.018Z,33577,-0.021165479,-0.131817,-0.24302875
1732437894028,2024-11-24T08:44:54.028Z,33587,-0.08082715,-0.057397645,-0.20805544
1732437894031,2024-11-24T08:44:54.031Z,33590,-0.08082715,-0.057397645,-0.20805544
1732437894042,2024-11-24T08:44:54.042Z,33601,-0.16378278,-0.024122927,-0.23076707
1732437894046,2024-11-24T08:44:54.046Z,33605,-0.16378278,-0.024122927,-0.23076707
1732437894057,2024-11-24T08:44:54.057Z,33616,0.06737137,0.0729212,-0.25822672
1732437894061,2024-11-24T08:44:54.061Z,33620,0.06737137,0.0729212,-0.25822672
1732437894071,2024-11-24T08:44:54.071Z,33630,-0.004160792,0.100912936,-0.24101932
1732437894075,2024-11-24T08:44:54.075Z,33634,-0.004160792,0.100912936,-0.24101932
1732437894084,2024-11-24T08:44:54.084Z,33643,-0.077572264,0.042640742,-0.26775557
1732437894088,2024-11-24T08:44:54.088Z,33647,-0.077572264,0.042640742,-0.26775557
1732437894099,2024-11-24T08:44:54.099Z,33658,-0.033671096,-0.16935962,-0.2958464
1732437894102,2024-11-24T08:44:54.102Z,33661,-0.033671096,-0.16935962,-0.2958464
1732437894114,2024-11-24T08:44:54.114Z,33673,0.0014465598,-0.14439856,-0.22767773
1732437894117,2024-11-24T08:44:54.117Z,33676,0.0014465598,-0.14439856,-0.22767773
1732437894129,2024-11-24T08:44:54.129Z,33688,-0.022594048,-0.09631973,-0.14677733
1732437894132,2024-11-24T08:44:54.132Z,33691,-0.022594048,-0.09631973,-0.14677733
1732437894143,2024-11-24T08:44:54.143Z,33702,-0.041171134,-0.15528797,-0.11211871
1732437894146,2024-11-24T08:44:54.146Z,33705,-0.041171134,-0.15528797,-0.11211871
1732437894156,2024-11-24T08:44:54.156Z,33715,-0.011459671,-0.18816125,-0.08617232
1732437894160,2024-11-24T08:44:54.160Z,33719,-0.011459671,-0.18816125,-0.08617232
1732437894171,2024-11-24T08:44:54.171Z,33730,-0.10131085,-0.19181713,-0.11831602
1732437894174,2024-11-24T08:44:54.174Z,33733,-0.10131085,-0.19181713,-0.11831602
1732437894184,2024-11-24T08:44:54.184Z,33743,0.019260833,-0.2787509,-0.108242564
1732437894187,2024-11-24T08:44:54.187Z,33746,0.019260833,-0.2787509,-0.108242564
1732437894200,2024-11-24T08:44:54.200Z,33759,0.010960693,-0.19748244,-0.15868598
1732437894202,2024-11-24T08:44:54.202Z,33761,0.010960693,-0.19748244,-0.15868598
1732437894214,2024-11-24T08:44:54.214Z,33773,0.010695255,-0.13769805,-0.23620127
1732437894216,2024-11-24T08:44:54.216Z,33775,0.010695255,-0.13769805,-0.23620127
1732437894225,2024-11-24T08:44:54.225Z,33784,0.072422124,-0.13945259,-0.3284221
1732437894229,2024-11-24T08:44:54.229Z,33788,0.072422124,-0.13945259,-0.3284221
1732437894238,2024-11-24T08:44:54.238Z,33797,0.050933734,-0.19461514,-0.31768584
1732437894243,2024-11-24T08:44:54.243Z,33802,0.050933734,-0.19461514,-0.31768584
1732437894255,2024-11-24T08:44:54.255Z,33814,0.047269,-0.20757724,-0.2516362
1732437894259,2024-11-24T08:44:54.259Z,33818,0.047269,-0.20757724,-0.2516362
1732437894272,2024-11-24T08:44:54.272Z,33831,0.008585661,-0.19859228,-0.2952417
1732437894275,2024-11-24T08:44:54.275Z,33834,0.008585661,-0.19859228,-0.2952417
1732437894289,2024-11-24T08:44:54.289Z,33848,-0.040373314,-0.17182714,-0.33819842
1732437894293,2024-11-24T08:44:54.293Z,33852,-0.040373314,-0.17182714,-0.33819842
1732437894312,2024-11-24T08:44:54.312Z,33871,-0.21263283,-0.19725333,-0.33586755
1732437894315,2024-11-24T08:44:54.315Z,33874,-0.21263283,-0.19725333,-0.33586755
1732437894324,2024-11-24T08:44:54.324Z,33883,-0.057466373,-0.24574998,-0.13555285
1732437894327,2024-11-24T08:44:54.327Z,33886,-0.057466373,-0.24574998,-0.13555285
1732437894337,2024-11-24T08:44:54.337Z,33896,0.042878658,-0.28692958,-0.06666385
1732437894340,2024-11-24T08:44:54.340Z,33899,0.042878658,-0.28692958,-0.06666385
1732437894349,2024-11-24T08:44:54.349Z,33908,0.040070727,-0.2439913,-0.030014973
1732437894352,2024-11-24T08:44:54.352Z,33911,0.040070727,-0.2439913,-0.030014973
1732437894362,2024-11-24T08:44:54.362Z,33921,-0.039716404,-0.046410937,-0.04670703
1732437894365,2024-11-24T08:44:54.365Z,33924,-0.039716404,-0.046410937,-0.04670703
1732437894378,2024-11-24T08:44:54.378Z,33937,-0.052284967,0.0017770561,-0.10109102
1732437894381,2024-11-24T08:44:54.381Z,33940,-0.052284967,0.0017770561,-0.10109102
1732437894390,2024-11-24T08:44:54.390Z,33949,-0.06683529,-0.02984863,-0.16032526
1732437894393,2024-11-24T08:44:54.393Z,33952,-0.06683529,-0.02984863,-0.16032526
1732437894402,2024-11-24T08:44:54.402Z,33961,0.022718769,0.0065846913,-0.081016995
1732437894405,2024-11-24T08:44:54.405Z,33964,0.022718769,0.0065846913,-0.081016995
1732437894414,2024-11-24T08:44:54.414Z,33973,0.028532527,-0.03002849,-0.07334437
1732437894417,2024-11-24T08:44:54.417Z,33976,0.028532527,-0.03002849,-0.07334437
1732437894428,2024-11-24T08:44:54.428Z,33987,-0.039550185,-0.06141874,-0.12875432
1732437894431,2024-11-24T08:44:54.431Z,33990,-0.039550185,-0.06141874,-0.12875432
1732437894441,2024-11-24T08:44:54.441Z,34000,-0.09718005,-0.0185271,-0.2795456
1732437894445,2024-11-24T08:44:54.445Z,34004,-0.09718005,-0.0185271,-0.2795456
1732437894454,2024-11-24T08:44:54.454Z,34013,-0.09690868,0.08258183,-0.26471058
1732437894457,2024-11-24T08:44:54.457Z,34016,-0.09690868,0.08258183,-0.26471058
1732437894466,2024-11-24T08:44:54.466Z,34025,-0.07772195,0.06678268,-0.24534123
1732437894470,2024-11-24T08:44:54.470Z,34029,-0.07772195,0.06678268,-0.24534123
1732437894479,2024-11-24T08:44:54.479Z,34038,-0.025907837,-0.053448074,-0.25618768
1732437894482,2024-11-24T08:44:54.482Z,34041,-0.025907837,-0.053448074,-0.25618768
1732437894496,2024-11-24T08:44:54.496Z,34055,-0.050840132,-0.12087522,-0.31981218
1732437894502,2024-11-24T08:44:54.502Z,34061,-0.050840132,-0.12087522,-0.31981218
1732437894522,2024-11-24T08:44:54.522Z,34081,-0.06691236,-0.19746527,-0.32415217
1732437894527,2024-11-24T08:44:54.527Z,34086,-0.06691236,-0.19746527,-0.32415217
1732437894536,2024-11-24T08:44:54.536Z,34095,-0.04476361,-0.21740213,-0.17859785
1732437894540,2024-11-24T08:44:54.540Z,34099,-0.04476361,-0.21740213,-0.17859785
1732437894551,2024-11-24T08:44:54.551Z,34110,-0.0914252,-0.31177422,-0.21223725
1732437894556,2024-11-24T08:44:54.556Z,34115,-0.0914252,-0.31177422,-0.21223725
1732437894568,2024-11-24T08:44:54.568Z,34127,-0.14804588,-0.33979663,-0.2355625
1732437894571,2024-11-24T08:44:54.571Z,34130,-0.14804588,-0.33979663,-0.2355625
1732437894583,2024-11-24T08:44:54.583Z,34142,-0.059443004,-0.095891595,-0.21628995
1732437894586,2024-11-24T08:44:54.586Z,34145,-0.059443004,-0.095891595,-0.21628995
1732437894595,2024-11-24T08:44:54.595Z,34154,-0.053646993,-0.024402661,-0.13870627
1732437894598,2024-11-24T08:44:54.598Z,34157,-0.053646993,-0.024402661,-0.13870627
1732437894608,2024-11-24T08:44:54.608Z,34167,-0.008271283,-0.004250211,-0.15696557
1732437894611,2024-11-24T08:44:54.611Z,34170,-0.008271283,-0.004250211,-0.15696557
1732437894619,2024-11-24T08:44:54.619Z,34178,-0.09271203,-0.121607006,-0.22800322
1732437894622,2024-11-24T08:44:54.622Z,34181,-0.09271203,-0.121607006,-0.22800322
1732437894633,2024-11-24T08:44:54.633Z,34192,-0.021935437,-0.16275883,-0.15147232
1732437894636,2024-11-24T08:44:54.636Z,34195,-0.021935437,-0.16275883,-0.15147232
1732437894646,2024-11-24T08:44:54.646Z,34205,0.07654265,-0.16907838,-0.05588493
1732437894649,2024-11-24T08:44:54.649Z,34208,0.07654265,-0.16907838,-0.05588493
1732437894659,2024-11-24T08:44:54.659Z,34218,0.007167132,-0.15347634,-0.07620606
1732437894662,2024-11-24T08:44:54.662Z,34221,0.007167132,-0.15347634,-0.07620606
1732437894671,2024-11-24T08:44:54.671Z,34230,0.008541704,-0.25494927,-0.14819808
1732437894674,2024-11-24T08:44:54.674Z,34233,0.008541704,-0.25494927,-0.14819808
1732437894683,2024-11-24T08:44:54.683Z,34242,-0.034524787,-0.2824908,-0.25399914
1732437894686,2024-11-24T08:44:54.686Z,34245,-0.034524787,-0.2824908,-0.25399914
1732437894697,2024-11-24T08:44:54.697Z,34256,-0.056676917,-0.0800832,-0.23691522
1732437894700,2024-11-24T08:44:54.700Z,34259,-0.056676917,-0.0800832,-0.23691522
1732437894710,2024-11-24T08:44:54.710Z,34269,0.064668834,-0.010471245,-0.1297878
1732437894712,2024-11-24T08:44:54.712Z,34271,0.064668834,-0.010471245,-0.1297878
1732437894726,2024-11-24T08:44:54.726Z,34285,0.110040165,0.0019765599,-0.06344526
1732437894730,2024-11-24T08:44:54.730Z,34289,0.110040165,0.0019765599,-0.06344526
1732437894742,2024-11-24T08:44:54.742Z,34301,-0.06381135,-0.08833418,-0.21735136
1732437894747,2024-11-24T08:44:54.747Z,34306,-0.06381135,-0.08833418,-0.21735136
1732437894768,2024-11-24T08:44:54.768Z,34327,-0.024878202,-0.09566472,-0.22392449
1732437894775,2024-11-24T08:44:54.775Z,34334,-0.024878202,-0.09566472,-0.22392449
1732437894791,2024-11-24T08:44:54.791Z,34350,-0.060179804,-0.064459674,-0.19824111
1732437894794,2024-11-24T08:44:54.794Z,34353,-0.060179804,-0.064459674,-0.19824111
1732437894805,2024-11-24T08:44:54.805Z,34364,-0.110843696,-0.07536756,-0.15453525
1732437894808,2024-11-24T08:44:54.808Z,34367,-0.110843696,-0.07536756,-0.15453525
1732437894827,2024-11-24T08:44:54.827Z,34386,-0.13860063,-0.08654327,-0.18055984
1732437894831,2024-11-24T08:44:54.831Z,34390,-0.13860063,-0.08654327,-0.18055984
1732437894840,2024-11-24T08:44:54.840Z,34399,-0.17730495,-0.10204524,-0.22350031
1732437894843,2024-11-24T08:44:54.843Z,34402,-0.17730495,-0.10204524,-0.22350031
1732437894851,2024-11-24T08:44:54.851Z,34410,-0.25494805,-0.06722978,-0.346929
1732437894853,2024-11-24T08:44:54.853Z,34412,-0.25494805,-0.06722978,-0.346929
1732437894862,2024-11-24T08:44:54.862Z,34421,-0.18685098,-0.027238112,-0.30296415
1732437894865,2024-11-24T08:44:54.865Z,34424,-0.18685098,-0.027238112,-0.30296415
1732437894874,2024-11-24T08:44:54.874Z,34433,-0.110605344,-0.034190156,-0.21369235
1732437894876,2024-11-24T08:44:54.876Z,34435,-0.110605344,-0.034190156,-0.21369235
1732437894885,2024-11-24T08:44:54.885Z,34444,-0.03390335,0.040351868,-0.20653898
1732437894888,2024-11-24T08:44:54.888Z,34447,-0.03390335,0.040351868,-0.20653898
1732437894899,2024-11-24T08:44:54.899Z,34458,-0.10238483,0.018562643,-0.3059498
1732437894902,2024-11-24T08:44:54.902Z,34461,-0.10238483,0.018562643,-0.3059498
1732437894912,2024-11-24T08:44:54.912Z,34471,-0.1424301,0.02183746,-0.33866474
1732437894915,2024-11-24T08:44:54.915Z,34474,-0.1424301,0.02183746,-0.33866474
1732437894928,2024-11-24T08:44:54.928Z,34487,-0.114320084,-0.16032502,-0.16436191
1732437894935,2024-11-24T08:44:54.935Z,34494,-0.114320084,-0.16032502,-0.16436191
1732437894952,2024-11-24T08:44:54.952Z,34511,-0.08379882,-0.17168714,-0.14767715
1732437894958,2024-11-24T08:44:54.958Z,34517,-0.08379882,-0.17168714,-0.14767715
1732437894978,2024-11-24T08:44:54.978Z,34537,-0.108372904,-0.1130706,-0.19533671
1732437894983,2024-11-24T08:44:54.983Z,34542,-0.108372904,-0.1130706,-0.19533671
1732437894994,2024-11-24T08:44:54.994Z,34553,-0.15159658,0.11383297,-0.273291
1732437894998,2024-11-24T08:44:54.998Z,34557,-0.15159658,0.11383297,-0.273291
1732437895008,2024-11-24T08:44:55.008Z,34567,-0.11393051,0.16851191,-0.19857289
1732437895012,2024-11-24T08:44:55.012Z,34571,-0.11393051,0.16851191,-0.19857289
1732437895023,2024-11-24T08:44:55.023Z,34582,-0.010557698,0.068264104,-0.07569826
1732437895026,2024-11-24T08:44:55.026Z,34585,-0.010557698,0.068264104,-0.07569826
1732437895036,2024-11-24T08:44:55.036Z,34595,0.06135137,-0.28820294,-0.19249392
1732437895039,2024-11-24T08:44:55.039Z,34598,0.06135137,-0.28820294,-0.19249392
1732437895049,2024-11-24T08:44:55.049Z,34608,-0.04381921,-0.19555883,-0.19696549
1732437895052,2024-11-24T08:44:55.052Z,34611,-0.04381921,-0.19555883,-0.19696549
1732437895062,2024-11-24T08:44:55.062Z,34621,-0.063114524,-0.015364847,-0.22863925
1732437895065,2024-11-24T08:44:55.065Z,34624,-0.063114524,-0.015364847,-0.22863925
1732437895073,2024-11-24T08:44:55.073Z,34632,-0.048923843,0.067852065,-0.13904946
1732437895077,2024-11-24T08:44:55.077Z,34636,-0.048923843,0.067852065,-0.13904946
1732437895088,2024-11-24T08:44:55.088Z,34647,-0.098723136,-0.056618493,-0.119842805
1732437895092,2024-11-24T08:44:55.092Z,34651,-0.098723136,-0.056618493,-0.119842805
1732437895101,2024-11-24T08:44:55.101Z,34660,-0.10691586,-0.18193589,-0.1711838
1732437895103,2024-11-24T08:44:55.103Z,34662,-0.10691586,-0.18193589,-0.1711838
1732437895112,2024-11-24T08:44:55.112Z,34671,0.010735759,-0.23492034,-0.023965314
1732437895115,2024-11-24T08:44:55.115Z,34674,0.010735759,-0.23492034,-0.023965314
1732437895124,2024-11-24T08:44:55.124Z,34683,0.0056449138,-0.25204974,-0.027263835
1732437895128,2024-11-24T08:44:55.128Z,34687,0.0056449138,-0.25204974,-0.027263835
1732437895137,2024-11-24T08:44:55.137Z,34696,-0.104725696,-0.30396962,-0.14528671
1732437895140,2024-11-24T08:44:55.140Z,34699,-0.104725696,-0.30396962,-0.14528671
1732437895150,2024-11-24T08:44:55.150Z,34709,-0.1331238,-0.1585304,-0.19498871
1732437895153,2024-11-24T08:44:55.153Z,34712,-0.1331238,-0.1585304,-0.19498871
1732437895163,2024-11-24T08:44:55.163Z,34722,-0.06163142,-0.12650946,-0.15576312
1732437895166,2024-11-24T08:44:55.166Z,34725,-0.06163142,-0.12650946,-0.15576312
1732437895175,2024-11-24T08:44:55.175Z,34734,-0.0053969566,-0.093729585,-0.183893
1732437895178,2024-11-24T08:44:55.178Z,34737,-0.0053969566,-0.093729585,-0.183893
1732437895189,2024-11-24T08:44:55.189Z,34748,0.057306353,-0.033149023,-0.17860486
1732437895194,2024-11-24T08:44:55.194Z,34753,0.057306353,-0.033149023,-0.17860486
1732437895209,2024-11-24T08:44:55.209Z,34768,0.10286844,0.02606686,-0.23618148
1732437895212,2024-11-24T08:44:55.212Z,34771,0.10286844,0.02606686,-0.23618148
1732437895221,2024-11-24T08:44:55.221Z,34780,-0.1139516,0.037466142,-0.27823716
1732437895224,2024-11-24T08:44:55.224Z,34783,-0.1139516,0.037466142,-0.27823716
1732437895233,2024-11-24T08:44:55.233Z,34792,-0.10862671,-0.046300802,-0.23327033
1732437895236,2024-11-24T08:44:55.236Z,34795,-0.10862671,-0.046300802,-0.23327033
1732437895244,2024-11-24T08:44:55.244Z,34803,-0.11576278,-0.060797133,-0.20338476
1732437895247,2024-11-24T08:44:55.247Z,34806,-0.11576278,-0.060797133,-0.20338476
1732437895255,2024-11-24T08:44:55.255Z,34814,-0.10567633,0.02740217,-0.15050606
1732437895257,2024-11-24T08:44:55.257Z,34816,-0.10567633,0.02740217,-0.15050606
1732437895266,2024-11-24T08:44:55.266Z,34825,-0.16494861,-0.018616324,-0.17915924
1732437895270,2024-11-24T08:44:55.270Z,34829,-0.16494861,-0.018616324,-0.17915924
1732437895282,2024-11-24T08:44:55.282Z,34841,-0.1609918,-0.061647173,-0.17075598
1732437895285,2024-11-24T08:44:55.285Z,34844,-0.1609918,-0.061647173,-0.17075598
1732437895292,2024-11-24T08:44:55.292Z,34851,-0.08696049,-0.1002306,-0.11285009
1732437895296,2024-11-24T08:44:55.296Z,34855,-0.08696049,-0.1002306,-0.11285009
1732437895304,2024-11-24T08:44:55.304Z,34863,0.0131403785,-0.12249497,-0.079771884
1732437895308,2024-11-24T08:44:55.308Z,34867,0.0131403785,-0.12249497,-0.079771884
1732437895321,2024-11-24T08:44:55.321Z,34880,0.034000184,-0.087289646,-0.18830414
1732437895327,2024-11-24T08:44:55.327Z,34886,0.034000184,-0.087289646,-0.18830414
1732437895338,2024-11-24T08:44:55.338Z,34897,-0.0042499197,-0.029203976,-0.19258489
1732437895341,2024-11-24T08:44:55.341Z,34900,-0.0042499197,-0.029203976,-0.19258489
1732437895349,2024-11-24T08:44:55.349Z,34908,-0.0649324,-0.010990548,-0.21883571
1732437895352,2024-11-24T08:44:55.352Z,34911,-0.0649324,-0.010990548,-0.21883571
1732437895363,2024-11-24T08:44:55.363Z,34922,-0.10028271,-0.0086990995,-0.22637744
1732437895366,2024-11-24T08:44:55.366Z,34925,-0.10028271,-0.0086990995,-0.22637744
1732437895375,2024-11-24T08:44:55.375Z,34934,-0.04751932,-0.16238326,-0.12006475
1732437895378,2024-11-24T08:44:55.378Z,34937,-0.04751932,-0.16238326,-0.12006475
1732437895387,2024-11-24T08:44:55.387Z,34946,-0.027019257,-0.20712869,-0.15514506
1732437895391,2024-11-24T08:44:55.391Z,34950,-0.027019257,-0.20712869,-0.15514506
1732437895399,2024-11-24T08:44:55.399Z,34958,-0.02634866,-0.14388305,-0.21110223
1732437895402,2024-11-24T08:44:55.402Z,34961,-0.02634866,-0.14388305,-0.21110223
1732437895412,2024-11-24T08:44:55.412Z,34971,-0.1268147,-0.03794528,-0.34762394
1732437895415,2024-11-24T08:44:55.415Z,34974,-0.1268147,-0.03794528,-0.34762394
1732437895422,2024-11-24T08:44:55.422Z,34981,-0.111337654,0.04056727,-0.28309345
1732437895425,2024-11-24T08:44:55.425Z,34984,-0.111337654,0.04056727,-0.28309345
1732437895433,2024-11-24T08:44:55.433Z,34992,-0.08768939,-0.02731737,-0.20510432
1732437895435,2024-11-24T08:44:55.435Z,34994,-0.08768939,-0.02731737,-0.20510432
1732437895444,2024-11-24T08:44:55.444Z,35003,-0.027236897,-0.015043152,-0.12358312
1732437895446,2024-11-24T08:44:55.446Z,35005,-0.027236897,-0.015043152,-0.12358312
1732437895457,2024-11-24T08:44:55.457Z,35016,-0.0062610023,-0.036812734,-0.17910421
1732437895461,2024-11-24T08:44:55.461Z,35020,-0.0062610023,-0.036812734,-0.17910421
1732437895469,2024-11-24T08:44:55.469Z,35028,-0.014175678,-0.022818398,-0.18483621
1732437895472,2024-11-24T08:44:55.472Z,35031,-0.014175678,-0.022818398,-0.18483621
1732437895482,2024-11-24T08:44:55.482Z,35041,-0.116131455,-0.05181446,-0.047070615
1732437895484,2024-11-24T08:44:55.484Z,35043,-0.116131455,-0.05181446,-0.047070615
1732437895492,2024-11-24T08:44:55.492Z,35051,-0.11242245,-0.12134716,-0.07070055
1732437895494,2024-11-24T08:44:55.494Z,35053,-0.11242245,-0.12134716,-0.07070055
1732437895503,2024-11-24T08:44:55.503Z,35062,-0.08248736,-0.121168025,-0.17019208
1732437895505,2024-11-24T08:44:55.505Z,35064,-0.08248736,-0.121168025,-0.17019208
1732437895518,2024-11-24T08:44:55.518Z,35077,-0.15306161,0.07041843,-0.28595263
1732437895524,2024-11-24T08:44:55.524Z,35083,-0.15306161,0.07041843,-0.28595263
1732437895542,2024-11-24T08:44:55.542Z,35101,-0.10260341,0.03273212,-0.3041617
1732437895549,2024-11-24T08:44:55.549Z,35108,-0.10260341,0.03273212,-0.3041617
1732437895568,2024-11-24T08:44:55.568Z,35127,-0.096906826,-0.016887357,-0.23436578
1732437895575,2024-11-24T08:44:55.575Z,35134,-0.096906826,-0.016887357,-0.23436578
1732437895593,2024-11-24T08:44:55.593Z,35152,-0.026094673,-0.1160422,-0.16371723
1732437895598,2024-11-24T08:44:55.598Z,35157,-0.026094673,-0.1160422,-0.16371723
1732437895610,2024-11-24T08:44:55.610Z,35169,-0.02922695,-0.06560253,-0.14027746
1732437895614,2024-11-24T08:44:55.614Z,35173,-0.02922695,-0.06560253,-0.14027746
1732437895625,2024-11-24T08:44:55.625Z,35184,-0.04598419,0.009894469,-0.20476782
1732437895629,2024-11-24T08:44:55.629Z,35188,-0.04598419,0.009894469,-0.20476782
1732437895639,2024-11-24T08:44:55.639Z,35198,-0.035142627,0.03172629,-0.2064302
1732437895643,2024-11-24T08:44:55.643Z,35202,-0.035142627,0.03172629,-0.2064302
1732437895652,2024-11-24T08:44:55.652Z,35211,-0.121408485,-0.099652454,-0.32528663
1732437895654,2024-11-24T08:44:55.654Z,35213,-0.121408485,-0.099652454,-0.32528663
1732437895664,2024-11-24T08:44:55.664Z,35223,-0.16509822,-0.10533173,-0.299258
1732437895666,2024-11-24T08:44:55.666Z,35225,-0.16509822,-0.10533173,-0.299258
1732437895674,2024-11-24T08:44:55.674Z,35233,-0.19447364,-0.056572303,-0.23888369
1732437895676,2024-11-24T08:44:55.676Z,35235,-0.19447364,-0.056572303,-0.23888369
1732437895685,2024-11-24T08:44:55.685Z,35244,-0.0071497248,-0.027389139,-0.1448467
1732437895687,2024-11-24T08:44:55.687Z,35246,-0.0071497248,-0.027389139,-0.1448467
1732437895695,2024-11-24T08:44:55.695Z,35254,-0.049440786,-0.103989996,-0.19129373
1732437895698,2024-11-24T08:44:55.698Z,35257,-0.049440786,-0.103989996,-0.19129373
1732437895711,2024-11-24T08:44:55.711Z,35270,-0.0080726305,-0.12527762,-0.19356096
1732437895715,2024-11-24T08:44:55.715Z,35274,-0.0080726305,-0.12527762,-0.19356096
1732437895732,2024-11-24T08:44:55.732Z,35291,-0.050562467,-0.10991598,-0.18083957
1732437895735,2024-11-24T08:44:55.735Z,35294,-0.050562467,-0.10991598,-0.18083957
1732437895743,2024-11-24T08:44:55.743Z,35302,0.0035217043,-0.09492845,-0.20469671
1732437895746,2024-11-24T08:44:55.746Z,35305,0.0035217043,-0.09492845,-0.20469671
1732437895754,2024-11-24T08:44:55.754Z,35313,-0.030658023,-0.092490256,-0.22726974
1732437895757,2024-11-24T08:44:55.757Z,35316,-0.030658023,-0.092490256,-0.22726974
1732437895766,2024-11-24T08:44:55.766Z,35325,-0.10565637,-0.098888285,-0.2805968
1732437895768,2024-11-24T08:44:55.768Z,35327,-0.10565637,-0.098888285,-0.2805968
1732437895777,2024-11-24T08:44:55.777Z,35336,-0.08129289,-0.135652,-0.21515705
1732437895779,2024-11-24T08:44:55.779Z,35338,-0.08129289,-0.135652,-0.21515705
1732437895786,2024-11-24T08:44:55.786Z,35345,-0.02854624,-0.15303075,-0.18143551
1732437895789,2024-11-24T08:44:55.789Z,35348,-0.02854624,-0.15303075,-0.18143551
1732437895799,2024-11-24T08:44:55.799Z,35358,-0.0844823,0.043548986,-0.24860384
1732437895802,2024-11-24T08:44:55.802Z,35361,-0.0844823,0.043548986,-0.24860384
1732437895814,2024-11-24T08:44:55.814Z,35373,-0.14311834,0.01714448,-0.27939457
1732437895820,2024-11-24T08:44:55.820Z,35379,-0.14311834,0.01714448,-0.27939457
1732437895840,2024-11-24T08:44:55.840Z,35399,-0.12373201,-0.024328364,-0.2893874
1732437895847,2024-11-24T08:44:55.847Z,35406,-0.12373201,-0.024328364,-0.2893874
1732437895858,2024-11-24T08:44:55.858Z,35417,-0.13173676,-0.09024209,-0.16806564
1732437895862,2024-11-24T08:44:55.862Z,35421,-0.13173676,-0.09024209,-0.16806564
1732437895876,2024-11-24T08:44:55.876Z,35435,-0.13019058,-0.1560752,-0.10930611
1732437895880,2024-11-24T08:44:55.880Z,35439,-0.13019058,-0.1560752,-0.10930611
1732437895888,2024-11-24T08:44:55.888Z,35447,-0.08080288,-0.14826289,-0.0654259
1732437895891,2024-11-24T08:44:55.891Z,35450,-0.08080288,-0.14826289,-0.0654259
1732437895900,2024-11-24T08:44:55.900Z,35459,-0.07945804,0.03751768,-0.12507601
1732437895902,2024-11-24T08:44:55.902Z,35461,-0.07945804,0.03751768,-0.12507601
1732437895910,2024-11-24T08:44:55.910Z,35469,-0.15113732,0.072878994,-0.1371931
1732437895913,2024-11-24T08:44:55.913Z,35472,-0.15113732,0.072878994,-0.1371931
1732437895921,2024-11-24T08:44:55.921Z,35480,-0.14815478,0.010083907,-0.16302146
1732437895924,2024-11-24T08:44:55.924Z,35483,-0.14815478,0.010083907,-0.16302146
1732437895934,2024-11-24T08:44:55.934Z,35493,-0.06970055,-0.14652848,-0.11426587
1732437895937,2024-11-24T08:44:55.937Z,35496,-0.06970055,-0.14652848,-0.11426587
1732437895946,2024-11-24T08:44:55.946Z,35505,-0.026430713,-0.08655212,-0.09190298
1732437895949,2024-11-24T08:44:55.949Z,35508,-0.026430713,-0.08655212,-0.09190298
1732437895958,2024-11-24T08:44:55.958Z,35517,-0.094898425,-0.009237269,-0.13820471
1732437895961,2024-11-24T08:44:55.961Z,35520,-0.094898425,-0.009237269,-0.13820471
1732437895973,2024-11-24T08:44:55.973Z,35532,-0.06171087,0.0685893,-0.27342936
1732437895976,2024-11-24T08:44:55.976Z,35535,-0.06171087,0.0685893,-0.27342936
1732437895985,2024-11-24T08:44:55.985Z,35544,-0.06816219,0.03614017,-0.25694644
1732437895988,2024-11-24T08:44:55.988Z,35547,-0.06816219,0.03614017,-0.25694644
1732437895999,2024-11-24T08:44:55.999Z,35558,-0.08195429,-0.05705076,-0.2400545
1732437896002,2024-11-24T08:44:56.002Z,35561,-0.08195429,-0.05705076,-0.2400545
1732437896014,2024-11-24T08:44:56.014Z,35573,-0.0775492,-0.039279226,-0.16036403
1732437896016,2024-11-24T08:44:56.016Z,35575,-0.0775492,-0.039279226,-0.16036403
1732437896043,2024-11-24T08:44:56.043Z,35602,-0.09406069,-0.016289674,-0.20476411
1732437896048,2024-11-24T08:44:56.048Z,35607,-0.09406069,-0.016289674,-0.20476411
1732437896062,2024-11-24T08:44:56.062Z,35621,-0.10711475,0.019402863,-0.2731034
1732437896067,2024-11-24T08:44:56.067Z,35626,-0.10711475,0.019402863,-0.2731034
1732437896075,2024-11-24T08:44:56.075Z,35634,-0.11737177,-0.07874254,-0.26191658
1732437896078,2024-11-24T08:44:56.078Z,35637,-0.11737177,-0.07874254,-0.26191658
1732437896086,2024-11-24T08:44:56.086Z,35645,-0.103884906,-0.09758711,-0.22063814
1732437896089,2024-11-24T08:44:56.089Z,35648,-0.103884906,-0.09758711,-0.22063814
1732437896098,2024-11-24T08:44:56.098Z,35657,-0.09340636,-0.08093636,-0.1748377
1732437896100,2024-11-24T08:44:56.100Z,35659,-0.09340636,-0.08093636,-0.1748377
1732437896110,2024-11-24T08:44:56.110Z,35669,-0.08391542,-0.09709494,-0.2597523
1732437896113,2024-11-24T08:44:56.113Z,35672,-0.08391542,-0.09709494,-0.2597523
1732437896122,2024-11-24T08:44:56.122Z,35681,-0.05981347,-0.09133807,-0.2041087
1732437896126,2024-11-24T08:44:56.126Z,35685,-0.05981347,-0.09133807,-0.2041087
1732437896135,2024-11-24T08:44:56.135Z,35694,-0.051022302,-0.09821513,-0.17399287
1732437896138,2024-11-24T08:44:56.138Z,35697,-0.051022302,-0.09821513,-0.17399287
1732437896146,2024-11-24T08:44:56.146Z,35705,-0.07151964,-0.0020671948,-0.1673635
1732437896149,2024-11-24T08:44:56.149Z,35708,-0.07151964,-0.0020671948,-0.1673635
1732437896157,2024-11-24T08:44:56.157Z,35716,-0.008934804,0.034614254,-0.18682812
1732437896159,2024-11-24T08:44:56.159Z,35718,-0.008934804,0.034614254,-0.18682812
1732437896167,2024-11-24T08:44:56.167Z,35726,0.0355367,0.0031439213,-0.1768185
1732437896170,2024-11-24T08:44:56.170Z,35729,0.0355367,0.0031439213,-0.1768185
1732437896180,2024-11-24T08:44:56.180Z,35739,-0.069041304,-0.08767436,-0.19385378
1732437896183,2024-11-24T08:44:56.183Z,35742,-0.069041304,-0.08767436,-0.19385378
1732437896192,2024-11-24T08:44:56.192Z,35751,-0.09596893,-0.05672265,-0.20200147
1732437896195,2024-11-24T08:44:56.195Z,35754,-0.09596893,-0.05672265,-0.20200147
1732437896204,2024-11-24T08:44:56.204Z,35763,-0.104459435,-0.019888325,-0.19920589
1732437896206,2024-11-24T08:44:56.206Z,35765,-0.104459435,-0.019888325,-0.19920589
1732437896215,2024-11-24T08:44:56.215Z,35774,0.049375292,-0.035996437,-0.21859854
1732437896218,2024-11-24T08:44:56.218Z,35777,0.049375292,-0.035996437,-0.21859854
1732437896226,2024-11-24T08:44:56.226Z,35785,0.025154969,-0.07356255,-0.22008827
1732437896228,2024-11-24T08:44:56.228Z,35787,0.025154969,-0.07356255,-0.22008827
1732437896236,2024-11-24T08:44:56.236Z,35795,-0.040518723,-0.07209479,-0.24371536
1732437896238,2024-11-24T08:44:56.238Z,35797,-0.040518723,-0.07209479,-0.24371536
1732437896247,2024-11-24T08:44:56.247Z,35806,-0.023264231,-0.042716254,-0.21870369
1732437896250,2024-11-24T08:44:56.250Z,35809,-0.023264231,-0.042716254,-0.21870369
1732437896260,2024-11-24T08:44:56.260Z,35819,-0.0585846,0.016365916,-0.19365951
1732437896263,2024-11-24T08:44:56.263Z,35822,-0.0585846,0.016365916,-0.19365951
1732437896271,2024-11-24T08:44:56.271Z,35830,-0.08771039,-0.0148937795,-0.19240718
1732437896274,2024-11-24T08:44:56.274Z,35833,-0.08771039,-0.0148937795,-0.19240718
1732437896283,2024-11-24T08:44:56.283Z,35842,-0.033888858,-0.11543479,-0.21292748
1732437896285,2024-11-24T08:44:56.285Z,35844,-0.033888858,-0.11543479,-0.21292748
1732437896295,2024-11-24T08:44:56.295Z,35854,-0.010976374,-0.10940183,-0.19187672
1732437896298,2024-11-24T08:44:56.298Z,35857,-0.010976374,-0.10940183,-0.19187672
1732437896307,2024-11-24T08:44:56.307Z,35866,-0.022683881,-0.06828112,-0.1813352
1732437896310,2024-11-24T08:44:56.310Z,35869,-0.022683881,-0.06828112,-0.1813352
1732437896320,2024-11-24T08:44:56.320Z,35879,-0.1029943,-0.02563265,-0.19039239
1732437896322,2024-11-24T08:44:56.322Z,35881,-0.1029943,-0.02563265,-0.19039239
1732437896331,2024-11-24T08:44:56.331Z,35890,-0.04719507,0.020324383,-0.16057041
1732437896334,2024-11-24T08:44:56.334Z,35893,-0.04719507,0.020324383,-0.16057041
1732437896341,2024-11-24T08:44:56.341Z,35900,-0.039603062,0.020343443,-0.16662456
1732437896344,2024-11-24T08:44:56.344Z,35903,-0.039603062,0.020343443,-0.16662456
1732437896354,2024-11-24T08:44:56.354Z,35913,-0.1254175,-0.036069956,-0.29685038
1732437896357,2024-11-24T08:44:56.357Z,35916,-0.1254175,-0.036069956,-0.29685038
1732437896371,2024-11-24T08:44:56.371Z,35930,-0.12998597,-0.08068565,-0.26645783
1732437896374,2024-11-24T08:44:56.374Z,35933,-0.12998597,-0.08068565,-0.26645783
1732437896383,2024-11-24T08:44:56.383Z,35942,-0.074332945,-0.090243354,-0.14813644
1732437896386,2024-11-24T08:44:56.386Z,35945,-0.074332945,-0.090243354,-0.14813644
1732437896395,2024-11-24T08:44:56.395Z,35954,0.04455448,-0.100195296,-0.12977992
1732437896397,2024-11-24T08:44:56.397Z,35956,0.04455448,-0.100195296,-0.12977992
1732437896405,2024-11-24T08:44:56.405Z,35964,-0.024599442,-0.057672173,-0.1526525
1732437896408,2024-11-24T08:44:56.408Z,35967,-0.024599442,-0.057672173,-0.1526525
1732437896417,2024-11-24T08:44:56.417Z,35976,-0.12662058,-0.03565889,-0.21051694
1732437896420,2024-11-24T08:44:56.420Z,35979,-0.12662058,-0.03565889,-0.21051694
1732437896430,2024-11-24T08:44:56.430Z,35989,0.038445108,-0.12418621,-0.19955455
1732437896433,2024-11-24T08:44:56.433Z,35992,0.038445108,-0.12418621,-0.19955455
1732437896440,2024-11-24T08:44:56.440Z,35999,0.030988883,-0.092694186,-0.2132974
1732437896443,2024-11-24T08:44:56.443Z,36002,0.030988883,-0.092694186,-0.2132974
1732437896451,2024-11-24T08:44:56.451Z,36010,-0.0029114992,-0.0768608,-0.21826814
1732437896453,2024-11-24T08:44:56.453Z,36012,-0.0029114992,-0.0768608,-0.21826814
1732437896462,2024-11-24T08:44:56.462Z,36021,-0.04336334,-0.077697225,-0.22663368
1732437896465,2024-11-24T08:44:56.465Z,36024,-0.04336334,-0.077697225,-0.22663368
1732437896475,2024-11-24T08:44:56.475Z,36034,-0.03959978,-0.060459293,-0.20888367
1732437896478,2024-11-24T08:44:56.478Z,36037,-0.03959978,-0.060459293,-0.20888367
1732437896495,2024-11-24T08:44:56.495Z,36054,-0.04423898,-0.043280583,-0.19559012
1732437896497,2024-11-24T08:44:56.497Z,36056,-0.04423898,-0.043280583,-0.19559012
1732437896506,2024-11-24T08:44:56.506Z,36065,-0.02673257,-0.017063571,-0.2006949
1732437896509,2024-11-24T08:44:56.509Z,36068,-0.02673257,-0.017063571,-0.2006949
1732437896518,2024-11-24T08:44:56.518Z,36077,-0.015525452,-0.006680237,-0.17138152
1732437896520,2024-11-24T08:44:56.520Z,36079,-0.015525452,-0.006680237,-0.17138152
1732437896528,2024-11-24T08:44:56.528Z,36087,-0.03280197,-0.06703742,-0.19838469
1732437896531,2024-11-24T08:44:56.531Z,36090,-0.03280197,-0.06703742,-0.19838469
1732437896540,2024-11-24T08:44:56.540Z,36099,-0.10711194,-0.06828997,-0.22368987
1732437896542,2024-11-24T08:44:56.542Z,36101,-0.10711194,-0.06828997,-0.22368987
1732437896551,2024-11-24T08:44:56.551Z,36110,-0.1278731,-0.06234308,-0.17667809
1732437896553,2024-11-24T08:44:56.553Z,36112,-0.1278731,-0.06234308,-0.17667809
1732437896560,2024-11-24T08:44:56.560Z,36119,-0.11066756,-0.086618245,-0.15773205
1732437896563,2024-11-24T08:44:56.563Z,36122,-0.11066756,-0.086618245,-0.15773205
1732437896573,2024-11-24T08:44:56.573Z,36132,-0.0682217,-0.03732902,-0.12137422
1732437896579,2024-11-24T08:44:56.579Z,36138,-0.0682217,-0.03732902,-0.12137422
1732437896597,2024-11-24T08:44:56.597Z,36156,-0.08259803,-0.027675338,-0.18968816
1732437896603,2024-11-24T08:44:56.603Z,36162,-0.08259803,-0.027675338,-0.18968816
1732437896621,2024-11-24T08:44:56.621Z,36180,-0.054979432,0.01125866,-0.18968448
1732437896629,2024-11-24T08:44:56.629Z,36188,-0.054979432,0.01125866,-0.18968448
1732437896651,2024-11-24T08:44:56.651Z,36210,-0.07122252,-0.021441953,-0.14664516
1732437896656,2024-11-24T08:44:56.656Z,36215,-0.07122252,-0.021441953,-0.14664516
1732437896672,2024-11-24T08:44:56.672Z,36231,-0.10286024,-0.038864467,-0.15596557
1732437896676,2024-11-24T08:44:56.676Z,36235,-0.10286024,-0.038864467,-0.15596557
1732437896689,2024-11-24T08:44:56.689Z,36248,-0.14115873,-0.031324267,-0.20923696
1732437896693,2024-11-24T08:44:56.693Z,36252,-0.14115873,-0.031324267,-0.20923696
1732437896704,2024-11-24T08:44:56.704Z,36263,-0.10699993,-0.09973395,-0.21329738
1732437896707,2024-11-24T08:44:56.707Z,36266,-0.10699993,-0.09973395,-0.21329738
1732437896719,2024-11-24T08:44:56.719Z,36278,-0.046985622,-0.10027863,-0.18900841
1732437896723,2024-11-24T08:44:56.723Z,36282,-0.046985622,-0.10027863,-0.18900841
1732437896734,2024-11-24T08:44:56.734Z,36293,-0.031171199,-0.10929077,-0.16051885
1732437896737,2024-11-24T08:44:56.737Z,36296,-0.031171199,-0.10929077,-0.16051885
1732437896748,2024-11-24T08:44:56.748Z,36307,-0.0026262717,-0.08030755,-0.22216927
1732437896751,2024-11-24T08:44:56.751Z,36310,-0.0026262717,-0.08030755,-0.22216927
1732437896760,2024-11-24T08:44:56.760Z,36319,4.6423628E-4,-0.06977037,-0.21342793
1732437896764,2024-11-24T08:44:56.764Z,36323,4.6423628E-4,-0.06977037,-0.21342793
1732437896772,2024-11-24T08:44:56.772Z,36331,-0.043696996,-0.04899476,-0.20238724
1732437896774,2024-11-24T08:44:56.774Z,36333,-0.043696996,-0.04899476,-0.20238724
1732437896782,2024-11-24T08:44:56.782Z,36341,-0.016516017,-0.07359493,-0.27658153
1732437896785,2024-11-24T08:44:56.785Z,36344,-0.016516017,-0.07359493,-0.27658153
1732437896794,2024-11-24T08:44:56.794Z,36353,0.026820434,-0.082857676,-0.24793376
1732437896797,2024-11-24T08:44:56.797Z,36356,0.026820434,-0.082857676,-0.24793376
1732437896808,2024-11-24T08:44:56.808Z,36367,2.6176655E-4,-0.099453196,-0.21093352
1732437896814,2024-11-24T08:44:56.814Z,36373,2.6176655E-4,-0.099453196,-0.21093352
1732437896836,2024-11-24T08:44:56.836Z,36395,0.001479697,-0.07173896,-0.20086408
1732437896843,2024-11-24T08:44:56.843Z,36402,0.001479697,-0.07173896,-0.20086408
1732437896864,2024-11-24T08:44:56.864Z,36423,0.037269603,-0.06835425,-0.22678123
1732437896870,2024-11-24T08:44:56.870Z,36429,0.037269603,-0.06835425,-0.22678123
1732437896883,2024-11-24T08:44:56.883Z,36442,0.0033546328,-0.05387844,-0.23852126
1732437896888,2024-11-24T08:44:56.888Z,36447,0.0033546328,-0.05387844,-0.23852126
1732437896901,2024-11-24T08:44:56.901Z,36460,0.022339841,-0.058084503,-0.17559505
1732437896904,2024-11-24T08:44:56.904Z,36463,0.022339841,-0.058084503,-0.17559505
1732437896916,2024-11-24T08:44:56.916Z,36475,0.0043302705,-0.07623414,-0.17515454
1732437896920,2024-11-24T08:44:56.920Z,36479,0.0043302705,-0.07623414,-0.17515454
1732437896929,2024-11-24T08:44:56.929Z,36488,-0.03318447,-0.087540545,-0.21280192
1732437896933,2024-11-24T08:44:56.933Z,36492,-0.03318447,-0.087540545,-0.21280192
1732437896944,2024-11-24T08:44:56.944Z,36503,-0.04689742,-0.061929096,-0.22029975
1732437896947,2024-11-24T08:44:56.947Z,36506,-0.04689742,-0.061929096,-0.22029975
1732437896962,2024-11-24T08:44:56.962Z,36521,-0.052305754,-0.044046603,-0.20925733
1732437896966,2024-11-24T08:44:56.966Z,36525,-0.052305754,-0.044046603,-0.20925733
1732437896974,2024-11-24T08:44:56.974Z,36533,-0.02198659,-0.04123031,-0.1541687
1732437896977,2024-11-24T08:44:56.977Z,36536,-0.02198659,-0.04123031,-0.1541687
1732437896989,2024-11-24T08:44:56.989Z,36548,0.019715881,-0.10878976,-0.17010863
1732437896994,2024-11-24T08:44:56.994Z,36553,0.019715881,-0.10878976,-0.17010863
1732437897012,2024-11-24T08:44:57.012Z,36571,0.006250038,-0.09159607,-0.15387063
1732437897018,2024-11-24T08:44:57.018Z,36577,0.006250038,-0.09159607,-0.15387063
1732437897031,2024-11-24T08:44:57.031Z,36590,-0.043354273,-0.06525798,-0.1574604
1732437897034,2024-11-24T08:44:57.034Z,36593,-0.043354273,-0.06525798,-0.1574604
1732437897043,2024-11-24T08:44:57.043Z,36602,-0.04509148,-0.05966721,-0.21156123
1732437897046,2024-11-24T08:44:57.046Z,36605,-0.04509148,-0.05966721,-0.21156123
1732437897055,2024-11-24T08:44:57.055Z,36614,0.015273434,-0.060060382,-0.20948349
1732437897058,2024-11-24T08:44:57.058Z,36617,0.015273434,-0.060060382,-0.20948349
1732437897066,2024-11-24T08:44:57.066Z,36625,0.056977678,-0.06980976,-0.15029277
1732437897069,2024-11-24T08:44:57.069Z,36628,0.056977678,-0.06980976,-0.15029277
1732437897077,2024-11-24T08:44:57.077Z,36636,-0.033643186,-0.054655258,-0.1221265
1732437897079,2024-11-24T08:44:57.079Z,36638,-0.033643186,-0.054655258,-0.1221265
1732437897088,2024-11-24T08:44:57.088Z,36647,8.04506E-4,-0.032452147,-0.1787962
1732437897091,2024-11-24T08:44:57.091Z,36650,8.04506E-4,-0.032452147,-0.1787962
1732437897100,2024-11-24T08:44:57.100Z,36659,0.0028175581,-0.04471878,-0.22650933
1732437897103,2024-11-24T08:44:57.103Z,36662,0.0028175581,-0.04471878,-0.22650933
1732437897110,2024-11-24T08:44:57.110Z,36669,-0.033028945,-0.046611413,-0.27168524
1732437897112,2024-11-24T08:44:57.112Z,36671,-0.033028945,-0.046611413,-0.27168524
1732437897120,2024-11-24T08:44:57.120Z,36679,0.0068743923,0.028258435,-0.21643177
1732437897123,2024-11-24T08:44:57.123Z,36682,0.0068743923,0.028258435,-0.21643177
1732437897133,2024-11-24T08:44:57.133Z,36692,-0.013820529,-9.630441E-4,-0.17640011
1732437897136,2024-11-24T08:44:57.136Z,36695,-0.013820529,-9.630441E-4,-0.17640011
1732437897146,2024-11-24T08:44:57.146Z,36705,-0.06254618,-0.045484602,-0.17024215
1732437897149,2024-11-24T08:44:57.149Z,36708,-0.06254618,-0.045484602,-0.17024215
1732437897162,2024-11-24T08:44:57.162Z,36721,-0.010635399,-0.051086754,-0.18141814
1732437897168,2024-11-24T08:44:57.168Z,36727,-0.010635399,-0.051086754,-0.18141814
1732437897188,2024-11-24T08:44:57.188Z,36747,-0.019612337,-0.0702995,-0.21316932
1732437897193,2024-11-24T08:44:57.193Z,36752,-0.019612337,-0.0702995,-0.21316932
1732437897203,2024-11-24T08:44:57.203Z,36762,0.014280413,-0.077881515,-0.16836144
1732437897206,2024-11-24T08:44:57.206Z,36765,0.014280413,-0.077881515,-0.16836144
1732437897217,2024-11-24T08:44:57.217Z,36776,-0.028736237,-0.066222094,-0.19163114
1732437897220,2024-11-24T08:44:57.220Z,36779,-0.028736237,-0.066222094,-0.19163114
1732437897230,2024-11-24T08:44:57.230Z,36789,0.016702563,-0.060664196,-0.25545073
1732437897233,2024-11-24T08:44:57.233Z,36792,0.016702563,-0.060664196,-0.25545073
1732437897241,2024-11-24T08:44:57.241Z,36800,0.017253786,0.01815148,-0.287154
1732437897244,2024-11-24T08:44:57.244Z,36803,0.017253786,0.01815148,-0.287154
1732437897253,2024-11-24T08:44:57.253Z,36812,-0.0603539,-0.03340177,-0.23873967
1732437897255,2024-11-24T08:44:57.255Z,36814,-0.0603539,-0.03340177,-0.23873967
1732437897264,2024-11-24T08:44:57.264Z,36823,-0.06427865,-0.061485354,-0.2144458
1732437897266,2024-11-24T08:44:57.266Z,36825,-0.06427865,-0.061485354,-0.2144458
1732437897275,2024-11-24T08:44:57.275Z,36834,-0.028873114,-0.067290165,-0.24895862
1732437897278,2024-11-24T08:44:57.278Z,36837,-0.028873114,-0.067290165,-0.24895862
1732437897287,2024-11-24T08:44:57.287Z,36846,-0.015231447,-0.0786241,-0.22141257
1732437897289,2024-11-24T08:44:57.289Z,36848,-0.015231447,-0.0786241,-0.22141257
1732437897297,2024-11-24T08:44:57.297Z,36856,-0.002174386,-0.082152344,-0.25003082
1732437897300,2024-11-24T08:44:57.300Z,36859,-0.002174386,-0.082152344,-0.25003082
1732437897308,2024-11-24T08:44:57.308Z,36867,-0.012058182,-0.06531983,-0.2428431
1732437897310,2024-11-24T08:44:57.310Z,36869,-0.012058182,-0.06531983,-0.2428431
1732437897319,2024-11-24T08:44:57.319Z,36878,-0.040783137,-0.046111073,-0.23236856
1732437897321,2024-11-24T08:44:57.321Z,36880,-0.040783137,-0.046111073,-0.23236856
1732437897328,2024-11-24T08:44:57.328Z,36887,-0.0034101126,-0.07907562,-0.22212353
1732437897331,2024-11-24T08:44:57.331Z,36890,-0.0034101126,-0.07907562,-0.22212353
1732437897339,2024-11-24T08:44:57.339Z,36898,0.009041825,-0.09587652,-0.21028364
1732437897341,2024-11-24T08:44:57.341Z,36900,0.009041825,-0.09587652,-0.21028364
1732437897349,2024-11-24T08:44:57.349Z,36908,0.03797433,-0.056094233,-0.24205476
1732437897352,2024-11-24T08:44:57.352Z,36911,0.03797433,-0.056094233,-0.24205476
1732437897360,2024-11-24T08:44:57.360Z,36919,0.022663726,-0.02837416,-0.25009483
1732437897363,2024-11-24T08:44:57.363Z,36922,0.022663726,-0.02837416,-0.25009483
1732437897371,2024-11-24T08:44:57.371Z,36930,0.011513813,0.0094891405,-0.2493763
1732437897374,2024-11-24T08:44:57.374Z,36933,0.011513813,0.0094891405,-0.2493763
1732437897382,2024-11-24T08:44:57.382Z,36941,-0.012857242,0.0021963397,-0.22952163
1732437897385,2024-11-24T08:44:57.385Z,36944,-0.012857242,0.0021963397,-0.22952163
1732437897391,2024-11-24T08:44:57.391Z,36950,0.04526125,-0.045499872,-0.22560789
1732437897394,2024-11-24T08:44:57.394Z,36953,0.04526125,-0.045499872,-0.22560789
1732437897405,2024-11-24T08:44:57.405Z,36964,0.067283385,-0.06069541,-0.22150041
1732437897411,2024-11-24T08:44:57.411Z,36970,0.067283385,-0.06069541,-0.22150041
1732437897429,2024-11-24T08:44:57.429Z,36988,0.066370934,-0.05890226,-0.22445555
1732437897435,2024-11-24T08:44:57.435Z,36994,0.066370934,-0.05890226,-0.22445555
1732437897455,2024-11-24T08:44:57.455Z,37014,0.042143174,-0.044285927,-0.22706063
1732437897462,2024-11-24T08:44:57.462Z,37021,0.042143174,-0.044285927,-0.22706063
1732437897477,2024-11-24T08:44:57.477Z,37036,0.015937539,-0.031033495,-0.19024643
1732437897481,2024-11-24T08:44:57.481Z,37040,0.015937539,-0.031033495,-0.19024643
1732437897489,2024-11-24T08:44:57.489Z,37048,-0.035134774,-0.047073826,-0.13782245
1732437897491,2024-11-24T08:44:57.491Z,37050,-0.035134774,-0.047073826,-0.13782245
1732437897501,2024-11-24T08:44:57.501Z,37060,0.05282372,-0.08280264,-0.11436251
1732437897504,2024-11-24T08:44:57.504Z,37063,0.05282372,-0.08280264,-0.11436251
1732437897511,2024-11-24T08:44:57.511Z,37070,0.018759789,-0.05522192,-0.14991708
1732437897514,2024-11-24T08:44:57.514Z,37073,0.018759789,-0.05522192,-0.14991708
1732437897522,2024-11-24T08:44:57.522Z,37081,-0.022464197,-0.0488413,-0.16596884
1732437897526,2024-11-24T08:44:57.526Z,37085,-0.022464197,-0.0488413,-0.16596884
1732437897534,2024-11-24T08:44:57.534Z,37093,-0.06291845,-0.0044638645,-0.20208189
1732437897537,2024-11-24T08:44:57.537Z,37096,-0.06291845,-0.0044638645,-0.20208189
1732437897544,2024-11-24T08:44:57.544Z,37103,-0.032418694,-0.012296974,-0.18875378
1732437897547,2024-11-24T08:44:57.547Z,37106,-0.032418694,-0.012296974,-0.18875378
1732437897556,2024-11-24T08:44:57.556Z,37115,-0.0124569945,-0.03496882,-0.15838237
1732437897559,2024-11-24T08:44:57.559Z,37118,-0.0124569945,-0.03496882,-0.15838237
1732437897568,2024-11-24T08:44:57.568Z,37127,0.044488546,-0.06193999,-0.1379895
1732437897571,2024-11-24T08:44:57.571Z,37130,0.044488546,-0.06193999,-0.1379895
1732437897578,2024-11-24T08:44:57.578Z,37137,-0.0055392543,-0.056838565,-0.1666733
1732437897581,2024-11-24T08:44:57.581Z,37140,-0.0055392543,-0.056838565,-0.1666733
1732437897588,2024-11-24T08:44:57.588Z,37147,-0.03999446,-0.02264695,-0.20013721
1732437897590,2024-11-24T08:44:57.590Z,37149,-0.03999446,-0.02264695,-0.20013721
1732437897598,2024-11-24T08:44:57.598Z,37157,-0.057993844,-0.0048371013,-0.17543398
1732437897601,2024-11-24T08:44:57.601Z,37160,-0.057993844,-0.0048371013,-0.17543398
1732437897608,2024-11-24T08:44:57.608Z,37167,-0.049526777,0.0120483115,-0.18093874
1732437897610,2024-11-24T08:44:57.610Z,37169,-0.049526777,0.0120483115,-0.18093874
1732437897619,2024-11-24T08:44:57.619Z,37178,-0.036967017,-0.019087587,-0.17960054
1732437897621,2024-11-24T08:44:57.621Z,37180,-0.036967017,-0.019087587,-0.17960054
1732437897631,2024-11-24T08:44:57.631Z,37190,6.7003675E-5,-0.060738977,-0.16363248
1732437897634,2024-11-24T08:44:57.634Z,37193,6.7003675E-5,-0.060738977,-0.16363248
1732437897641,2024-11-24T08:44:57.641Z,37200,0.025354328,-0.059079155,-0.14554973
1732437897643,2024-11-24T08:44:57.643Z,37202,0.025354328,-0.059079155,-0.14554973
1732437897662,2024-11-24T08:44:57.662Z,37221,0.007464297,-0.058951274,-0.17770797
1732437897664,2024-11-24T08:44:57.664Z,37223,0.007464297,-0.058951274,-0.17770797
1732437897671,2024-11-24T08:44:57.671Z,37230,0.031849768,-0.05102189,-0.20583077
1732437897674,2024-11-24T08:44:57.674Z,37233,0.031849768,-0.05102189,-0.20583077
1732437897681,2024-11-24T08:44:57.681Z,37240,0.027905013,-0.05209881,-0.20702006
1732437897684,2024-11-24T08:44:57.684Z,37243,0.027905013,-0.05209881,-0.20702006
1732437897711,2024-11-24T08:44:57.711Z,37270,0.02715922,-0.05409229,-0.20930757
1732437897717,2024-11-24T08:44:57.717Z,37276,0.02715922,-0.05409229,-0.20930757
1732437897735,2024-11-24T08:44:57.735Z,37294,0.037190005,-0.104068965,-0.2625948
1732437897738,2024-11-24T08:44:57.738Z,37297,0.037190005,-0.104068965,-0.2625948
1732437897748,2024-11-24T08:44:57.748Z,37307,0.04535743,-0.07861067,-0.26619884
1732437897751,2024-11-24T08:44:57.751Z,37310,0.04535743,-0.07861067,-0.26619884
1732437897761,2024-11-24T08:44:57.761Z,37320,0.053007323,-0.04931383,-0.26064113
1732437897764,2024-11-24T08:44:57.764Z,37323,0.053007323,-0.04931383,-0.26064113
1732437897772,2024-11-24T08:44:57.772Z,37331,0.055620465,-0.05828211,-0.22837085
1732437897775,2024-11-24T08:44:57.775Z,37334,0.055620465,-0.05828211,-0.22837085
1732437897784,2024-11-24T08:44:57.784Z,37343,0.059708588,-0.09127388,-0.21686019
1732437897786,2024-11-24T08:44:57.786Z,37345,0.059708588,-0.09127388,-0.21686019
1732437897800,2024-11-24T08:44:57.800Z,37359,0.035034463,-0.111599825,-0.21131457
1732437897807,2024-11-24T08:44:57.807Z,37366,0.035034463,-0.111599825,-0.21131457
1732437897848,2024-11-24T08:44:57.848Z,37407,0.027932996,-0.086220406,-0.22863375
1732437897856,2024-11-24T08:44:57.856Z,37415,0.027932996,-0.086220406,-0.22863375
1732437897878,2024-11-24T08:44:57.878Z,37437,0.022954619,-0.054917827,-0.23450063
1732437897884,2024-11-24T08:44:57.884Z,37443,0.022954619,-0.054917827,-0.23450063
1732437897908,2024-11-24T08:44:57.908Z,37467,0.029452005,-0.035675228,-0.23176849
1732437897916,2024-11-24T08:44:57.916Z,37475,0.029452005,-0.035675228,-0.23176849
1732437897936,2024-11-24T08:44:57.936Z,37495,0.03279516,-0.052362837,-0.13248263
1732437897940,2024-11-24T08:44:57.940Z,37499,0.03279516,-0.052362837,-0.13248263
1732437897953,2024-11-24T08:44:57.953Z,37512,0.036004484,-0.094446205,-0.13725148
1732437897957,2024-11-24T08:44:57.957Z,37516,0.036004484,-0.094446205,-0.13725148
1732437897969,2024-11-24T08:44:57.969Z,37528,0.029665804,-0.07652666,-0.17859666
1732437897973,2024-11-24T08:44:57.973Z,37532,0.029665804,-0.07652666,-0.17859666
1732437897985,2024-11-24T08:44:57.985Z,37544,-0.020181235,-0.04779978,-0.19835348
1732437897988,2024-11-24T08:44:57.988Z,37547,-0.020181235,-0.04779978,-0.19835348
1732437897999,2024-11-24T08:44:57.999Z,37558,-0.006579416,-0.019427078,-0.20713685
1732437898002,2024-11-24T08:44:58.002Z,37561,-0.006579416,-0.019427078,-0.20713685
1732437898011,2024-11-24T08:44:58.011Z,37570,-5.429826E-4,-0.01162684,-0.18049762
1732437898014,2024-11-24T08:44:58.014Z,37573,-5.429826E-4,-0.01162684,-0.18049762
1732437898025,2024-11-24T08:44:58.025Z,37584,-0.029080544,-0.024235006,-0.20109095
1732437898030,2024-11-24T08:44:58.030Z,37589,-0.029080544,-0.024235006,-0.20109095
1732437898046,2024-11-24T08:44:58.046Z,37605,0.048152547,-0.0547951,-0.2075768
1732437898053,2024-11-24T08:44:58.053Z,37612,0.048152547,-0.0547951,-0.2075768
1732437898077,2024-11-24T08:44:58.077Z,37636,0.033211336,-0.073837854,-0.16774237
1732437898082,2024-11-24T08:44:58.082Z,37641,0.033211336,-0.073837854,-0.16774237
1732437898099,2024-11-24T08:44:58.099Z,37658,0.038439687,-0.03261776,-0.19168647
1732437898106,2024-11-24T08:44:58.106Z,37665,0.038439687,-0.03261776,-0.19168647
1732437898125,2024-11-24T08:44:58.125Z,37684,-0.019809773,-0.0580952,-0.28403774
1732437898131,2024-11-24T08:44:58.131Z,37690,-0.019809773,-0.0580952,-0.28403774
1732437898144,2024-11-24T08:44:58.144Z,37703,-0.008899333,-0.04973754,-0.26748613
1732437898148,2024-11-24T08:44:58.148Z,37707,-0.008899333,-0.04973754,-0.26748613
1732437898162,2024-11-24T08:44:58.162Z,37721,-0.036987826,-0.06257589,-0.24546815
1732437898166,2024-11-24T08:44:58.166Z,37725,-0.036987826,-0.06257589,-0.24546815
1732437898177,2024-11-24T08:44:58.177Z,37736,0.07058414,-0.05823057,-0.20900883
1732437898180,2024-11-24T08:44:58.180Z,37739,0.07058414,-0.05823057,-0.20900883
1732437898190,2024-11-24T08:44:58.190Z,37749,0.0570362,-0.07175461,-0.24798906
1732437898193,2024-11-24T08:44:58.193Z,37752,0.0570362,-0.07175461,-0.24798906
1732437898203,2024-11-24T08:44:58.203Z,37762,0.053742953,-0.09160365,-0.22489966
1732437898206,2024-11-24T08:44:58.206Z,37765,0.053742953,-0.09160365,-0.22489966
1732437898214,2024-11-24T08:44:58.214Z,37773,-0.0061559263,-0.05040913,-0.16530663
1732437898217,2024-11-24T08:44:58.217Z,37776,-0.0061559263,-0.05040913,-0.16530663
1732437898225,2024-11-24T08:44:58.225Z,37784,-0.049817745,-0.043128096,-0.21510382
1732437898227,2024-11-24T08:44:58.227Z,37786,-0.049817745,-0.043128096,-0.21510382
1732437898236,2024-11-24T08:44:58.236Z,37795,-0.026612688,-0.04575534,-0.23588528
1732437898238,2024-11-24T08:44:58.238Z,37797,-0.026612688,-0.04575534,-0.23588528
1732437898246,2024-11-24T08:44:58.246Z,37805,0.07760139,-0.11703539,-0.06922919
1732437898248,2024-11-24T08:44:58.248Z,37807,0.07760139,-0.11703539,-0.06922919
1732437898255,2024-11-24T08:44:58.255Z,37814,0.15253212,-0.1377154,-0.012202084
1732437898257,2024-11-24T08:44:58.257Z,37816,0.15253212,-0.1377154,-0.012202084
1732437898264,2024-11-24T08:44:58.264Z,37823,0.10343841,-0.16171147,0.0019960336
1732437898266,2024-11-24T08:44:58.266Z,37825,0.10343841,-0.16171147,0.0019960336
1732437898273,2024-11-24T08:44:58.273Z,37832,-0.010227105,0.06316711,-0.16879936
1732437898275,2024-11-24T08:44:58.275Z,37834,-0.010227105,0.06316711,-0.16879936
1732437898282,2024-11-24T08:44:58.282Z,37841,-0.05107895,-0.007188065,-0.21675155
1732437898284,2024-11-24T08:44:58.284Z,37843,-0.05107895,-0.007188065,-0.21675155
1732437898293,2024-11-24T08:44:58.293Z,37852,-0.084636316,0.021945406,-0.20137998
1732437898295,2024-11-24T08:44:58.295Z,37854,-0.084636316,0.021945406,-0.20137998
1732437898304,2024-11-24T08:44:58.304Z,37863,0.07346428,-0.017950956,-0.16894954
1732437898306,2024-11-24T08:44:58.306Z,37865,0.07346428,-0.017950956,-0.16894954
1732437898315,2024-11-24T08:44:58.315Z,37874,0.038269725,-0.03241558,-0.20591916
1732437898319,2024-11-24T08:44:58.319Z,37878,0.038269725,-0.03241558,-0.20591916
1732437898326,2024-11-24T08:44:58.326Z,37885,-0.07945379,0.04546029,-0.2848117
1732437898329,2024-11-24T08:44:58.329Z,37888,-0.07945379,0.04546029,-0.2848117
1732437898337,2024-11-24T08:44:58.337Z,37896,-0.13242114,0.032668717,-0.17672774
1732437898340,2024-11-24T08:44:58.340Z,37899,-0.13242114,0.032668717,-0.17672774
1732437898349,2024-11-24T08:44:58.349Z,37908,-0.083926186,0.0120102875,-0.17878664
1732437898351,2024-11-24T08:44:58.351Z,37910,-0.083926186,0.0120102875,-0.17878664
1732437898358,2024-11-24T08:44:58.358Z,37917,-0.023306947,-0.010067375,-0.18749851
1732437898361,2024-11-24T08:44:58.361Z,37920,-0.023306947,-0.010067375,-0.18749851
1732437898368,2024-11-24T08:44:58.368Z,37927,-0.07391118,0.010607781,-0.18555155
1732437898371,2024-11-24T08:44:58.371Z,37930,-0.07391118,0.010607781,-0.18555155
1732437898381,2024-11-24T08:44:58.381Z,37940,-0.082599364,-0.024994025,-0.13770789
1732437898383,2024-11-24T08:44:58.383Z,37942,-0.082599364,-0.024994025,-0.13770789
1732437898392,2024-11-24T08:44:58.392Z,37951,-0.038125116,-0.053352624,-0.10900876
1732437898395,2024-11-24T08:44:58.395Z,37954,-0.038125116,-0.053352624,-0.10900876
1732437898402,2024-11-24T08:44:58.402Z,37961,-0.0017250043,-0.030559706,-0.2704042
1732437898404,2024-11-24T08:44:58.404Z,37963,-0.0017250043,-0.030559706,-0.2704042
1732437898411,2024-11-24T08:44:58.411Z,37970,-0.08136216,0.0013294735,-0.26956287
1732437898413,2024-11-24T08:44:58.413Z,37972,-0.08136216,0.0013294735,-0.26956287
1732437898421,2024-11-24T08:44:58.421Z,37980,-0.04807934,0.06497246,-0.2936097
1732437898424,2024-11-24T08:44:58.424Z,37983,-0.04807934,0.06497246,-0.2936097
1732437898433,2024-11-24T08:44:58.433Z,37992,-0.04867,0.0094465455,-0.20873171
1732437898435,2024-11-24T08:44:58.435Z,37994,-0.04867,0.0094465455,-0.20873171
1732437898443,2024-11-24T08:44:58.443Z,38002,-0.064047955,0.04427562,-0.21840544
1732437898446,2024-11-24T08:44:58.446Z,38005,-0.064047955,0.04427562,-0.21840544
1732437898454,2024-11-24T08:44:58.454Z,38013,-0.09544185,0.03214679,-0.23404644
1732437898456,2024-11-24T08:44:58.456Z,38015,-0.09544185,0.03214679,-0.23404644
1732437898473,2024-11-24T08:44:58.473Z,38032,0.03163417,-0.06542418,-0.21590675
1732437898476,2024-11-24T08:44:58.476Z,38035,0.03163417,-0.06542418,-0.21590675
1732437898484,2024-11-24T08:44:58.484Z,38043,7.111482E-4,-0.031043513,-0.16952425
1732437898488,2024-11-24T08:44:58.488Z,38047,7.111482E-4,-0.031043513,-0.16952425
1732437898495,2024-11-24T08:44:58.495Z,38054,0.050915986,-0.036951896,-0.19367674
1732437898498,2024-11-24T08:44:58.498Z,38057,0.050915986,-0.036951896,-0.19367674
1732437898519,2024-11-24T08:44:58.519Z,38078,0.012246526,0.013161506,-0.2028644
1732437898521,2024-11-24T08:44:58.521Z,38080,0.012246526,0.013161506,-0.2028644
1732437898531,2024-11-24T08:44:58.531Z,38090,0.04126787,0.028360642,-0.25623873
1732437898534,2024-11-24T08:44:58.534Z,38093,0.04126787,0.028360642,-0.25623873
1732437898542,2024-11-24T08:44:58.542Z,38101,0.0058754883,0.047272697,-0.23473994
1732437898544,2024-11-24T08:44:58.544Z,38103,0.0058754883,0.047272697,-0.23473994
1732437898563,2024-11-24T08:44:58.563Z,38122,-0.010507421,0.050098423,-0.07220322
1732437898565,2024-11-24T08:44:58.565Z,38124,-0.010507421,0.050098423,-0.07220322
1732437898572,2024-11-24T08:44:58.572Z,38131,0.024869474,-0.011091685,-0.17677328
1732437898575,2024-11-24T08:44:58.575Z,38134,0.024869474,-0.011091685,-0.17677328
1732437898584,2024-11-24T08:44:58.584Z,38143,0.029981397,-0.08477813,-0.16795118
1732437898587,2024-11-24T08:44:58.587Z,38146,0.029981397,-0.08477813,-0.16795118
1732437898609,2024-11-24T08:44:58.609Z,38168,0.0035387713,0.014469196,-0.1773148
1732437898611,2024-11-24T08:44:58.611Z,38170,0.0035387713,0.014469196,-0.1773148
1732437898619,2024-11-24T08:44:58.619Z,38178,-0.072816364,0.10430387,-0.13362439
1732437898621,2024-11-24T08:44:58.621Z,38180,-0.072816364,0.10430387,-0.13362439
1732437898628,2024-11-24T08:44:58.628Z,38187,-0.09162148,0.15918837,-0.21693729
1732437898630,2024-11-24T08:44:58.630Z,38189,-0.09162148,0.15918837,-0.21693729
1732437898653,2024-11-24T08:44:58.653Z,38212,0.0043357653,0.041752335,-0.21707939
1732437898655,2024-11-24T08:44:58.655Z,38214,0.0043357653,0.041752335,-0.21707939
1732437898664,2024-11-24T08:44:58.664Z,38223,0.05500462,-0.01938604,-0.21819408
1732437898666,2024-11-24T08:44:58.666Z,38225,0.05500462,-0.01938604,-0.21819408
1732437898675,2024-11-24T08:44:58.675Z,38234,-0.024314262,-0.03200831,-0.17539866
1732437898677,2024-11-24T08:44:58.677Z,38236,-0.024314262,-0.03200831,-0.17539866
1732437898700,2024-11-24T08:44:58.700Z,38259,-0.046924017,0.12002726,-0.2398807
1732437898703,2024-11-24T08:44:58.703Z,38262,-0.046924017,0.12002726,-0.2398807
1732437898711,2024-11-24T08:44:58.711Z,38270,-0.11401325,0.07282249,-0.28333533
1732437898714,2024-11-24T08:44:58.714Z,38273,-0.11401325,0.07282249,-0.28333533
1732437898723,2024-11-24T08:44:58.723Z,38282,-0.12629138,-0.018523842,-0.26866433
1732437898725,2024-11-24T08:44:58.725Z,38284,-0.12629138,-0.018523842,-0.26866433
1732437898744,2024-11-24T08:44:58.744Z,38303,-0.10596191,0.07398956,-0.16012482
1732437898748,2024-11-24T08:44:58.748Z,38307,-0.10596191,0.07398956,-0.16012482
1732437898758,2024-11-24T08:44:58.758Z,38317,-0.0943685,0.2212742,-0.23214664
1732437898760,2024-11-24T08:44:58.760Z,38319,-0.0943685,0.2212742,-0.23214664
1732437898770,2024-11-24T08:44:58.770Z,38329,0.0027947777,0.13413955,-0.26379934
1732437898772,2024-11-24T08:44:58.772Z,38331,0.0027947777,0.13413955,-0.26379934
1732437898793,2024-11-24T08:44:58.793Z,38352,-0.06927453,0.09611672,-0.04644974
1732437898796,2024-11-24T08:44:58.796Z,38355,-0.06927453,0.09611672,-0.04644974
1732437898805,2024-11-24T08:44:58.805Z,38364,-0.06898534,0.062169492,-0.0498706
1732437898807,2024-11-24T08:44:58.807Z,38366,-0.06898534,0.062169492,-0.0498706
1732437898816,2024-11-24T08:44:58.816Z,38375,-0.052928735,-0.03951476,-0.16580397
1732437898818,2024-11-24T08:44:58.818Z,38377,-0.052928735,-0.03951476,-0.16580397
1732437898838,2024-11-24T08:44:58.838Z,38397,-0.09287211,-0.10140097,-0.20013654
1732437898842,2024-11-24T08:44:58.842Z,38401,-0.09287211,-0.10140097,-0.20013654
1732437898858,2024-11-24T08:44:58.858Z,38417,-0.1096281,-0.010080601,-0.17268394
1732437898860,2024-11-24T08:44:58.860Z,38419,-0.1096281,-0.010080601,-0.17268394
1732437898870,2024-11-24T08:44:58.870Z,38429,-0.084897205,0.06347252,-0.17761326
1732437898873,2024-11-24T08:44:58.873Z,38432,-0.084897205,0.06347252,-0.17761326
1732437898882,2024-11-24T08:44:58.882Z,38441,0.0032020025,-0.08279311,-0.21263762
1732437898884,2024-11-24T08:44:58.884Z,38443,0.0032020025,-0.08279311,-0.21263762
1732437898893,2024-11-24T08:44:58.893Z,38452,0.03690084,0.037516613,-0.16004166
1732437898895,2024-11-24T08:44:58.895Z,38454,0.03690084,0.037516613,-0.16004166
1732437898903,2024-11-24T08:44:58.903Z,38462,0.021008011,0.13281047,-0.1866695
1732437898906,2024-11-24T08:44:58.906Z,38465,0.021008011,0.13281047,-0.1866695
1732437898970,2024-11-24T08:44:58.970Z,38529,-0.11483772,-0.017573731,-0.25148115
1732437898972,2024-11-24T08:44:58.972Z,38531,-0.11483772,-0.017573731,-0.25148115
1732437898980,2024-11-24T08:44:58.980Z,38539,-0.091684625,-0.1348747,-0.22566171
1732437898982,2024-11-24T08:44:58.982Z,38541,-0.091684625,-0.1348747,-0.22566171
1732437898991,2024-11-24T08:44:58.991Z,38550,0.06259602,-0.15599953,-0.2088385
1732437898993,2024-11-24T08:44:58.993Z,38552,0.06259602,-0.15599953,-0.2088385
1732437899013,2024-11-24T08:44:59.013Z,38572,-0.048873104,0.020206131,-0.21338832
1732437899016,2024-11-24T08:44:59.016Z,38575,-0.048873104,0.020206131,-0.21338832
1732437899027,2024-11-24T08:44:59.027Z,38586,-0.029298926,0.10830235,-0.20487198
1732437899030,2024-11-24T08:44:59.030Z,38589,-0.029298926,0.10830235,-0.20487198
1732437899039,2024-11-24T08:44:59.039Z,38598,-0.022878788,0.05545755,-0.13876742
1732437899042,2024-11-24T08:44:59.042Z,38601,-0.022878788,0.05545755,-0.13876742
1732437899059,2024-11-24T08:44:59.059Z,38618,-0.0099779805,-0.10219091,-0.14285731
1732437899062,2024-11-24T08:44:59.062Z,38621,-0.0099779805,-0.10219091,-0.14285731
1732437899073,2024-11-24T08:44:59.073Z,38632,0.090724654,-0.14939544,-0.1233501
1732437899076,2024-11-24T08:44:59.076Z,38635,0.090724654,-0.14939544,-0.1233501
1732437899085,2024-11-24T08:44:59.085Z,38644,0.04107916,-0.02501746,-0.16166323
1732437899088,2024-11-24T08:44:59.088Z,38647,0.04107916,-0.02501746,-0.16166323
1732437899104,2024-11-24T08:44:59.104Z,38663,-0.007743641,-0.011273928,-0.1032973
1732437899107,2024-11-24T08:44:59.107Z,38666,-0.007743641,-0.011273928,-0.1032973
1732437899115,2024-11-24T08:44:59.115Z,38674,-0.08768919,0.06886218,-0.22618239
1732437899117,2024-11-24T08:44:59.117Z,38676,-0.08768919,0.06886218,-0.22618239
1732437899125,2024-11-24T08:44:59.125Z,38684,-0.105699286,0.04603872,-0.25503957
1732437899127,2024-11-24T08:44:59.127Z,38686,-0.105699286,0.04603872,-0.25503957
1732437899150,2024-11-24T08:44:59.150Z,38709,-0.13936144,-0.13020857,-0.07713433
1732437899152,2024-11-24T08:44:59.152Z,38711,-0.13936144,-0.13020857,-0.07713433
1732437899160,2024-11-24T08:44:59.160Z,38719,-0.11149696,-0.15066218,-0.12630533
1732437899162,2024-11-24T08:44:59.162Z,38721,-0.11149696,-0.15066218,-0.12630533
1732437899193,2024-11-24T08:44:59.193Z,38752,-0.18902826,-0.04090939,-0.21573745
1732437899196,2024-11-24T08:44:59.196Z,38755,-0.18902826,-0.04090939,-0.21573745
1732437899205,2024-11-24T08:44:59.205Z,38764,-0.18472308,0.2553065,-0.13907999
1732437899208,2024-11-24T08:44:59.208Z,38767,-0.18472308,0.2553065,-0.13907999
1732437899221,2024-11-24T08:44:59.221Z,38780,-0.1730735,0.19522537,-0.16240737
1732437899224,2024-11-24T08:44:59.224Z,38783,-0.1730735,0.19522537,-0.16240737
1732437899236,2024-11-24T08:44:59.236Z,38795,-0.114830755,0.09140031,-0.15741576
1732437899239,2024-11-24T08:44:59.239Z,38798,-0.114830755,0.09140031,-0.15741576
1732437899253,2024-11-24T08:44:59.253Z,38812,-0.11259943,0.011527453,-0.23794724
1732437899255,2024-11-24T08:44:59.255Z,38814,-0.11259943,0.011527453,-0.23794724
1732437899264,2024-11-24T08:44:59.264Z,38823,-0.20974872,0.15717073,-0.22353
1732437899267,2024-11-24T08:44:59.267Z,38826,-0.20974872,0.15717073,-0.22353
1732437899274,2024-11-24T08:44:59.274Z,38833,-0.1851549,0.16965851,-0.258578
1732437899276,2024-11-24T08:44:59.276Z,38835,-0.1851549,0.16965851,-0.258578
1732437899287,2024-11-24T08:44:59.287Z,38846,0.05281645,0.0859168,-0.20673504
1732437899291,2024-11-24T08:44:59.291Z,38850,0.05281645,0.0859168,-0.20673504
1732437899306,2024-11-24T08:44:59.306Z,38865,0.09165709,-6.9308444E-4,-0.21722008
1732437899308,2024-11-24T08:44:59.308Z,38867,0.09165709,-6.9308444E-4,-0.21722008
1732437899317,2024-11-24T08:44:59.317Z,38876,0.13729124,-0.10327999,-0.21338123
1732437899320,2024-11-24T08:44:59.320Z,38879,0.13729124,-0.10327999,-0.21338123
1732437899332,2024-11-24T08:44:59.332Z,38891,0.08234212,-0.27580065,-0.19038293
1732437899335,2024-11-24T08:44:59.335Z,38894,0.08234212,-0.27580065,-0.19038293
1732437899343,2024-11-24T08:44:59.343Z,38902,0.07561977,-0.2132159,-0.16823925
1732437899345,2024-11-24T08:44:59.345Z,38904,0.07561977,-0.2132159,-0.16823925
1732437899372,2024-11-24T08:44:59.372Z,38931,0.005804473,-0.15116185,-0.12999368
1732437899375,2024-11-24T08:44:59.375Z,38934,0.005804473,-0.15116185,-0.12999368
1732437899384,2024-11-24T08:44:59.384Z,38943,0.020089578,-0.20602182,-0.29065296
1732437899387,2024-11-24T08:44:59.387Z,38946,0.020089578,-0.20602182,-0.29065296
1732437899400,2024-11-24T08:44:59.400Z,38959,-0.039144102,-0.2630932,-0.24699944
1732437899405,2024-11-24T08:44:59.405Z,38964,-0.039144102,-0.2630932,-0.24699944
1732437899427,2024-11-24T08:44:59.427Z,38986,-0.022286113,-0.37868747,-0.30031323
1732437899434,2024-11-24T08:44:59.434Z,38993,-0.022286113,-0.37868747,-0.30031323
1732437899452,2024-11-24T08:44:59.452Z,39011,0.1437013,-0.016630137,-0.20752355
1732437899458,2024-11-24T08:44:59.458Z,39017,0.1437013,-0.016630137,-0.20752355
1732437899478,2024-11-24T08:44:59.478Z,39037,0.12386376,0.04384384,-0.14396185
1732437899484,2024-11-24T08:44:59.484Z,39043,0.12386376,0.04384384,-0.14396185
1732437899503,2024-11-24T08:44:59.503Z,39062,0.05926689,6.360973E-4,-0.11716497
1732437899510,2024-11-24T08:44:59.510Z,39069,0.05926689,6.360973E-4,-0.11716497
1732437899528,2024-11-24T08:44:59.528Z,39087,0.15650535,-0.1211865,-0.030230084
1732437899534,2024-11-24T08:44:59.534Z,39093,0.15650535,-0.1211865,-0.030230084
1732437899547,2024-11-24T08:44:59.547Z,39106,0.047097456,-0.31512138,0.0033224926
1732437899554,2024-11-24T08:44:59.554Z,39113,0.047097456,-0.31512138,0.0033224926
1732437899565,2024-11-24T08:44:59.565Z,39124,0.045740586,-0.37024686,-0.118495055
1732437899568,2024-11-24T08:44:59.568Z,39127,0.045740586,-0.37024686,-0.118495055
1732437899579,2024-11-24T08:44:59.579Z,39138,-0.016740004,3.2043122E-4,0.05921141
1732437899583,2024-11-24T08:44:59.583Z,39142,-0.016740004,3.2043122E-4,0.05921141
1732437899593,2024-11-24T08:44:59.593Z,39152,-0.028412841,-0.41637552,0.1613111
1732437899596,2024-11-24T08:44:59.596Z,39155,-0.028412841,-0.41637552,0.1613111
1732437899606,2024-11-24T08:44:59.606Z,39165,-0.08256093,-0.884576,-0.008858003
1732437899609,2024-11-24T08:44:59.609Z,39168,-0.08256093,-0.884576,-0.008858003
1732437899617,2024-11-24T08:44:59.617Z,39176,-0.33404028,-0.66331327,-0.24447457
1732437899619,2024-11-24T08:44:59.619Z,39178,-0.33404028,-0.66331327,-0.24447457
1732437899627,2024-11-24T08:44:59.627Z,39186,-0.109668896,-0.20506732,-0.15209703
1732437899629,2024-11-24T08:44:59.629Z,39188,-0.109668896,-0.20506732,-0.15209703
1732437899636,2024-11-24T08:44:59.636Z,39195,0.2378514,0.036356397,-0.002713114
1732437899640,2024-11-24T08:44:59.640Z,39199,0.2378514,0.036356397,-0.002713114
1732437899648,2024-11-24T08:44:59.648Z,39207,-0.19383511,0.025725376,-0.0045334455
1732437899651,2024-11-24T08:44:59.651Z,39210,-0.19383511,0.025725376,-0.0045334455
1732437899658,2024-11-24T08:44:59.658Z,39217,-0.11003168,-0.15324397,-0.15598558
1732437899661,2024-11-24T08:44:59.661Z,39220,-0.11003168,-0.15324397,-0.15598558
1732437899668,2024-11-24T08:44:59.668Z,39227,0.04380227,-0.32462424,-0.24566571
1732437899671,2024-11-24T08:44:59.671Z,39230,0.04380227,-0.32462424,-0.24566571
1732437899678,2024-11-24T08:44:59.678Z,39237,0.14459148,0.06359383,-0.060094032
1732437899680,2024-11-24T08:44:59.680Z,39239,0.14459148,0.06359383,-0.060094032
1732437899687,2024-11-24T08:44:59.687Z,39246,0.15666635,0.11200865,-0.12206451
1732437899689,2024-11-24T08:44:59.689Z,39248,0.15666635,0.11200865,-0.12206451
1732437899695,2024-11-24T08:44:59.695Z,39254,-0.17523399,0.042636074,-0.32560626
1732437899697,2024-11-24T08:44:59.697Z,39256,-0.17523399,0.042636074,-0.32560626
1732437899704,2024-11-24T08:44:59.704Z,39263,0.020866223,-0.23652473,-0.19268626
1732437899707,2024-11-24T08:44:59.707Z,39266,0.020866223,-0.23652473,-0.19268626
1732437899715,2024-11-24T08:44:59.715Z,39274,0.06979055,-0.30398294,-0.1134416
1732437899717,2024-11-24T08:44:59.717Z,39276,0.06979055,-0.30398294,-0.1134416
1732437899726,2024-11-24T08:44:59.726Z,39285,-0.032836687,-0.19324361,-0.021503657
1732437899728,2024-11-24T08:44:59.728Z,39287,-0.032836687,-0.19324361,-0.021503657
1732437899737,2024-11-24T08:44:59.737Z,39296,-0.010467526,-0.2506415,-0.19525594
1732437899740,2024-11-24T08:44:59.740Z,39299,-0.010467526,-0.2506415,-0.19525594
1732437899748,2024-11-24T08:44:59.748Z,39307,-0.095028885,-0.30283123,-0.13681217
1732437899750,2024-11-24T08:44:59.750Z,39309,-0.095028885,-0.30283123,-0.13681217
1732437899758,2024-11-24T08:44:59.758Z,39317,0.03725137,-0.3328337,-0.050579704
1732437899760,2024-11-24T08:44:59.760Z,39319,0.03725137,-0.3328337,-0.050579704
1732437899780,2024-11-24T08:44:59.780Z,39339,-0.24393852,-0.42960653,-0.38157284
1732437899784,2024-11-24T08:44:59.784Z,39343,-0.24393852,-0.42960653,-0.38157284
1732437899794,2024-11-24T08:44:59.794Z,39353,-0.27520552,-0.2992914,-0.47723043
1732437899796,2024-11-24T08:44:59.796Z,39355,-0.27520552,-0.2992914,-0.47723043
1732437899809,2024-11-24T08:44:59.809Z,39368,0.08431848,-0.18554461,-0.34767026
1732437899813,2024-11-24T08:44:59.813Z,39372,0.08431848,-0.18554461,-0.34767026
1732437899823,2024-11-24T08:44:59.823Z,39382,0.27580383,-0.41235036,0.26557374
1732437899825,2024-11-24T08:44:59.825Z,39384,0.27580383,-0.41235036,0.26557374
1732437899832,2024-11-24T08:44:59.832Z,39391,0.3438245,-0.48597386,0.12704286
1732437899834,2024-11-24T08:44:59.834Z,39393,0.3438245,-0.48597386,0.12704286
1732437899842,2024-11-24T08:44:59.842Z,39401,0.16747758,-0.34104502,-0.08695997
1732437899845,2024-11-24T08:44:59.845Z,39404,0.16747758,-0.34104502,-0.08695997
1732437899871,2024-11-24T08:44:59.871Z,39430,-0.026089495,0.041055895,-0.17925261
1732437899873,2024-11-24T08:44:59.873Z,39432,-0.026089495,0.041055895,-0.17925261
1732437899881,2024-11-24T08:44:59.881Z,39440,0.09489451,-0.04055706,-0.16170214
1732437899884,2024-11-24T08:44:59.884Z,39443,0.09489451,-0.04055706,-0.16170214
1732437899892,2024-11-24T08:44:59.892Z,39451,0.08802039,-0.07265639,-0.052296516
1732437899894,2024-11-24T08:44:59.894Z,39453,0.08802039,-0.07265639,-0.052296516
1732437899923,2024-11-24T08:44:59.923Z,39482,-0.037928335,-0.19881985,-0.23923719
1732437899931,2024-11-24T08:44:59.931Z,39490,-0.037928335,-0.19881985,-0.23923719
1732437899955,2024-11-24T08:44:59.955Z,39514,-0.080555096,-0.24376078,-0.31711292
1732437899963,2024-11-24T08:44:59.963Z,39522,-0.080555096,-0.24376078,-0.31711292
1732437899983,2024-11-24T08:44:59.983Z,39542,-0.11008789,-0.2619881,-0.29209456
1732437899987,2024-11-24T08:44:59.987Z,39546,-0.11008789,-0.2619881,-0.29209456
1732437900002,2024-11-24T08:45:00.002Z,39561,-0.031120265,0.11320106,-0.10525597
1732437900008,2024-11-24T08:45:00.008Z,39567,-0.031120265,0.11320106,-0.10525597
1732437900028,2024-11-24T08:45:00.028Z,39587,0.0060847164,-0.05089255,-0.13237432
1732437900035,2024-11-24T08:45:00.035Z,39594,0.0060847164,-0.05089255,-0.13237432
1732437900052,2024-11-24T08:45:00.052Z,39611,0.043747008,-0.20275205,-0.20301403
1732437900055,2024-11-24T08:45:00.055Z,39614,0.043747008,-0.20275205,-0.20301403
1732437900065,2024-11-24T08:45:00.065Z,39624,0.11902563,-0.23212038,-0.3097904
1732437900069,2024-11-24T08:45:00.069Z,39628,0.11902563,-0.23212038,-0.3097904
1732437900080,2024-11-24T08:45:00.080Z,39639,0.046986546,-0.16956428,-0.36060047
1732437900083,2024-11-24T08:45:00.083Z,39642,0.046986546,-0.16956428,-0.36060047
1732437900091,2024-11-24T08:45:00.091Z,39650,-0.15607738,-0.043190822,-0.31256533
1732437900094,2024-11-24T08:45:00.094Z,39653,-0.15607738,-0.043190822,-0.31256533
1732437900103,2024-11-24T08:45:00.103Z,39662,-0.052650157,-0.22692253,-0.23567453
1732437900105,2024-11-24T08:45:00.105Z,39664,-0.052650157,-0.22692253,-0.23567453
1732437900112,2024-11-24T08:45:00.112Z,39671,-0.17780016,-0.36582,-0.24723577
1732437900114,2024-11-24T08:45:00.114Z,39673,-0.17780016,-0.36582,-0.24723577
1732437900125,2024-11-24T08:45:00.125Z,39684,-0.19863805,-0.26545787,-0.28703874
1732437900131,2024-11-24T08:45:00.131Z,39690,-0.19863805,-0.26545787,-0.28703874
1732437900152,2024-11-24T08:45:00.152Z,39711,0.07185685,0.13236095,-0.18409163
1732437900157,2024-11-24T08:45:00.157Z,39716,0.07185685,0.13236095,-0.18409163
1732437900176,2024-11-24T08:45:00.176Z,39735,0.14155677,0.15912662,-0.0964089
1732437900182,2024-11-24T08:45:00.182Z,39741,0.14155677,0.15912662,-0.0964089
1732437900200,2024-11-24T08:45:00.200Z,39759,0.023677947,0.055874452,-0.07569203
1732437900206,2024-11-24T08:45:00.206Z,39765,0.023677947,0.055874452,-0.07569203
1732437900223,2024-11-24T08:45:00.223Z,39782,-0.045261785,-0.24257465,-0.16842496
1732437900229,2024-11-24T08:45:00.229Z,39788,-0.045261785,-0.24257465,-0.16842496
1732437900243,2024-11-24T08:45:00.243Z,39802,-0.12160143,-0.23091169,-0.19837691
1732437900247,2024-11-24T08:45:00.247Z,39806,-0.12160143,-0.23091169,-0.19837691
1732437900258,2024-11-24T08:45:00.258Z,39817,-0.10842665,-0.16873193,-0.17888036
1732437900262,2024-11-24T08:45:00.262Z,39821,-0.10842665,-0.16873193,-0.17888036
1732437900274,2024-11-24T08:45:00.274Z,39833,0.05771851,-0.10136032,-0.23191465
1732437900277,2024-11-24T08:45:00.277Z,39836,0.05771851,-0.10136032,-0.23191465
1732437900286,2024-11-24T08:45:00.286Z,39845,-0.009291436,-0.113487646,-0.22854725
1732437900291,2024-11-24T08:45:00.291Z,39850,-0.009291436,-0.113487646,-0.22854725
1732437900300,2024-11-24T08:45:00.300Z,39859,-0.02273411,-0.19904749,-0.1898303
1732437900303,2024-11-24T08:45:00.303Z,39862,-0.02273411,-0.19904749,-0.1898303
1732437900312,2024-11-24T08:45:00.312Z,39871,-0.023914112,-0.28011388,-0.22897685
1732437900314,2024-11-24T08:45:00.314Z,39873,-0.023914112,-0.28011388,-0.22897685
1732437900323,2024-11-24T08:45:00.323Z,39882,-0.027576048,-0.22819234,-0.19228919
1732437900325,2024-11-24T08:45:00.325Z,39884,-0.027576048,-0.22819234,-0.19228919
1732437900332,2024-11-24T08:45:00.332Z,39891,-0.06545294,-0.20103101,-0.19325438
1732437900334,2024-11-24T08:45:00.334Z,39893,-0.06545294,-0.20103101,-0.19325438
1732437900343,2024-11-24T08:45:00.343Z,39902,-0.062511876,-0.25927645,-0.2131895
1732437900345,2024-11-24T08:45:00.345Z,39904,-0.062511876,-0.25927645,-0.2131895
1732437900353,2024-11-24T08:45:00.353Z,39912,0.06870656,-0.37474942,-0.12910978
1732437900356,2024-11-24T08:45:00.356Z,39915,0.06870656,-0.37474942,-0.12910978
1732437900363,2024-11-24T08:45:00.363Z,39922,0.08691986,-0.35021085,-0.08797869
1732437900365,2024-11-24T08:45:00.365Z,39924,0.08691986,-0.35021085,-0.08797869
1732437900373,2024-11-24T08:45:00.373Z,39932,0.014888941,-0.027828455,-0.06487735
1732437900375,2024-11-24T08:45:00.375Z,39934,0.014888941,-0.027828455,-0.06487735
1732437900381,2024-11-24T08:45:00.381Z,39940,0.21277659,-0.02267987,-0.108663335
1732437900383,2024-11-24T08:45:00.383Z,39942,0.21277659,-0.02267987,-0.108663335
1732437900390,2024-11-24T08:45:00.390Z,39949,0.32892984,-0.104920946,-0.10514953
1732437900392,2024-11-24T08:45:00.392Z,39951,0.32892984,-0.104920946,-0.10514953
1732437900408,2024-11-24T08:45:00.408Z,39967,0.1999149,-0.16884717,0.010646679
1732437900410,2024-11-24T08:45:00.410Z,39969,0.1999149,-0.16884717,0.010646679
1732437900417,2024-11-24T08:45:00.417Z,39976,0.10286228,-0.17893575,-0.028496401
1732437900421,2024-11-24T08:45:00.421Z,39980,0.10286228,-0.17893575,-0.028496401
1732437900433,2024-11-24T08:45:00.433Z,39992,-0.05475377,-0.10361277,-0.09523882
1732437900439,2024-11-24T08:45:00.439Z,39998,-0.05475377,-0.10361277,-0.09523882
1732437900452,2024-11-24T08:45:00.452Z,40011,-0.091508545,-0.106817275,-0.07981932
1732437900454,2024-11-24T08:45:00.454Z,40013,-0.091508545,-0.106817275,-0.07981932
1732437900461,2024-11-24T08:45:00.461Z,40020,-0.031230059,-0.17510045,-0.033904053
1732437900464,2024-11-24T08:45:00.464Z,40023,-0.031230059,-0.17510045,-0.033904053
1732437900471,2024-11-24T08:45:00.471Z,40030,-0.022669755,-0.21424201,0.037051283
1732437900473,2024-11-24T08:45:00.473Z,40032,-0.022669755,-0.21424201,0.037051283
1732437900503,2024-11-24T08:45:00.503Z,40062,0.060636625,-0.09866238,0.0047508427
1732437900509,2024-11-24T08:45:00.509Z,40068,0.060636625,-0.09866238,0.0047508427
1732437900527,2024-11-24T08:45:00.527Z,40086,0.18198135,-0.21358515,-0.0034135405
1732437900530,2024-11-24T08:45:00.530Z,40089,0.18198135,-0.21358515,-0.0034135405
1732437900539,2024-11-24T08:45:00.539Z,40098,0.07235279,-0.2405749,-0.16048978
1732437900541,2024-11-24T08:45:00.541Z,40100,0.07235279,-0.2405749,-0.16048978
1732437900594,2024-11-24T08:45:00.594Z,40153,0.0032391755,0.11484887,-0.3761392
1732437900599,2024-11-24T08:45:00.599Z,40158,0.0032391755,0.11484887,-0.3761392
1732437900618,2024-11-24T08:45:00.618Z,40177,-0.08056222,0.14560783,-0.31083524
1732437900623,2024-11-24T08:45:00.623Z,40182,-0.08056222,0.14560783,-0.31083524
1732437900642,2024-11-24T08:45:00.642Z,40201,-0.02168026,0.033859905,-0.3420773
1732437900648,2024-11-24T08:45:00.648Z,40207,-0.02168026,0.033859905,-0.3420773
1732437900666,2024-11-24T08:45:00.666Z,40225,-0.20348674,-0.2214841,-0.48414192
1732437900672,2024-11-24T08:45:00.672Z,40231,-0.20348674,-0.2214841,-0.48414192
1732437900690,2024-11-24T08:45:00.690Z,40249,-0.22441845,-0.08006531,-0.46489096
1732437900695,2024-11-24T08:45:00.695Z,40254,-0.22441845,-0.08006531,-0.46489096
1732437900712,2024-11-24T08:45:00.712Z,40271,-0.10274544,-7.793432E-4,-0.42464674
1732437900718,2024-11-24T08:45:00.718Z,40277,-0.10274544,-7.793432E-4,-0.42464674
1732437900735,2024-11-24T08:45:00.735Z,40294,-0.168514,-0.026446322,-0.14384356
1732437900740,2024-11-24T08:45:00.740Z,40299,-0.168514,-0.026446322,-0.14384356
1732437900755,2024-11-24T08:45:00.755Z,40314,-0.10945048,-0.037921745,-0.15094015
1732437900761,2024-11-24T08:45:00.761Z,40320,-0.10945048,-0.037921745,-0.15094015
1732437900780,2024-11-24T08:45:00.780Z,40339,0.0046668206,-0.03551905,-0.19677453
1732437900786,2024-11-24T08:45:00.786Z,40345,0.0046668206,-0.03551905,-0.19677453
1732437900801,2024-11-24T08:45:00.801Z,40360,-0.07005293,-0.008570441,-0.3101857
1732437900805,2024-11-24T08:45:00.805Z,40364,-0.07005293,-0.008570441,-0.3101857
1732437900819,2024-11-24T08:45:00.819Z,40378,-0.11022722,0.0910347,-0.38252345
1732437900823,2024-11-24T08:45:00.823Z,40382,-0.11022722,0.0910347,-0.38252345
1732437900832,2024-11-24T08:45:00.832Z,40391,-0.008856033,-0.018352978,-0.26752195
1732437900836,2024-11-24T08:45:00.836Z,40395,-0.008856033,-0.018352978,-0.26752195
1732437900845,2024-11-24T08:45:00.845Z,40404,0.020959143,-0.044262007,-0.18620236
1732437900848,2024-11-24T08:45:00.848Z,40407,0.020959143,-0.044262007,-0.18620236
1732437900859,2024-11-24T08:45:00.859Z,40418,0.0065841563,-0.05756676,-0.07987993
1732437900862,2024-11-24T08:45:00.862Z,40421,0.0065841563,-0.05756676,-0.07987993
1732437900871,2024-11-24T08:45:00.871Z,40430,-0.0027524508,-0.2594988,-0.17188662
1732437900874,2024-11-24T08:45:00.874Z,40433,-0.0027524508,-0.2594988,-0.17188662
1732437900882,2024-11-24T08:45:00.882Z,40441,-0.12010997,-0.25396755,-0.2058118
1732437900884,2024-11-24T08:45:00.884Z,40443,-0.12010997,-0.25396755,-0.2058118
1732437900892,2024-11-24T08:45:00.892Z,40451,-0.1387134,-0.09677227,-0.19413859
1732437900895,2024-11-24T08:45:00.895Z,40454,-0.1387134,-0.09677227,-0.19413859
1732437900903,2024-11-24T08:45:00.903Z,40462,-0.030193495,-0.017075434,-0.055159196
1732437900905,2024-11-24T08:45:00.905Z,40464,-0.030193495,-0.017075434,-0.055159196
1732437900913,2024-11-24T08:45:00.913Z,40472,-0.099934876,0.0025483763,-0.12895519
1732437900915,2024-11-24T08:45:00.915Z,40474,-0.099934876,0.0025483763,-0.12895519
1732437900922,2024-11-24T08:45:00.922Z,40481,-0.13695808,0.046163686,-0.12105218
1732437900925,2024-11-24T08:45:00.925Z,40484,-0.13695808,0.046163686,-0.12105218
1732437900933,2024-11-24T08:45:00.933Z,40492,-0.018494887,-0.44885966,0.08473273
1732437900936,2024-11-24T08:45:00.936Z,40495,-0.018494887,-0.44885966,0.08473273
1732437900944,2024-11-24T08:45:00.944Z,40503,0.029880235,-0.45456082,0.0050426344
1732437900947,2024-11-24T08:45:00.947Z,40506,0.029880235,-0.45456082,0.0050426344
1732437900954,2024-11-24T08:45:00.954Z,40513,0.08732762,-0.16230683,-0.03202822
1732437900956,2024-11-24T08:45:00.956Z,40515,0.08732762,-0.16230683,-0.03202822
1732437900963,2024-11-24T08:45:00.963Z,40522,6.4706197E-4,0.31346273,-0.070923634
1732437900965,2024-11-24T08:45:00.965Z,40524,6.4706197E-4,0.31346273,-0.070923634
1732437900973,2024-11-24T08:45:00.973Z,40532,-0.012209718,0.13807382,-0.09725793
1732437900975,2024-11-24T08:45:00.975Z,40534,-0.012209718,0.13807382,-0.09725793
1732437900983,2024-11-24T08:45:00.983Z,40542,-0.061305664,-0.114175044,-0.1817881
1732437900987,2024-11-24T08:45:00.987Z,40546,-0.061305664,-0.114175044,-0.1817881
1732437900995,2024-11-24T08:45:00.995Z,40554,-0.02215901,0.048711184,-0.21576576
1732437900997,2024-11-24T08:45:00.997Z,40556,-0.02215901,0.048711184,-0.21576576
1732437901004,2024-11-24T08:45:01.004Z,40563,-0.04446263,0.0969408,-0.2131833
1732437901006,2024-11-24T08:45:01.006Z,40565,-0.04446263,0.0969408,-0.2131833
1732437901013,2024-11-24T08:45:01.013Z,40572,-0.053857267,0.049718574,-0.25936788
1732437901015,2024-11-24T08:45:01.015Z,40574,-0.053857267,0.049718574,-0.25936788
1732437901042,2024-11-24T08:45:01.042Z,40601,0.04174628,-0.005923261,-0.14560646
1732437901044,2024-11-24T08:45:01.044Z,40603,0.04174628,-0.005923261,-0.14560646
1732437901053,2024-11-24T08:45:01.053Z,40612,0.026685357,-0.012619544,-0.0770798
1732437901056,2024-11-24T08:45:01.056Z,40615,0.026685357,-0.012619544,-0.0770798
1732437901063,2024-11-24T08:45:01.063Z,40622,-0.06250724,0.0055215308,-0.103498995
1732437901065,2024-11-24T08:45:01.065Z,40624,-0.06250724,0.0055215308,-0.103498995
1732437901083,2024-11-24T08:45:01.083Z,40642,-0.12396533,-0.15759732,-0.20224719
1732437901086,2024-11-24T08:45:01.086Z,40645,-0.12396533,-0.15759732,-0.20224719
1732437901095,2024-11-24T08:45:01.095Z,40654,-0.0408199,-0.11368238,-0.16264385
1732437901098,2024-11-24T08:45:01.098Z,40657,-0.0408199,-0.11368238,-0.16264385
1732437901107,2024-11-24T08:45:01.107Z,40666,0.02312096,-0.079667956,-0.1803916
1732437901113,2024-11-24T08:45:01.113Z,40672,0.02312096,-0.079667956,-0.1803916
1732437901131,2024-11-24T08:45:01.131Z,40690,-0.17626342,-0.02205588,-0.111807086
1732437901137,2024-11-24T08:45:01.137Z,40696,-0.17626342,-0.02205588,-0.111807086
1732437901154,2024-11-24T08:45:01.154Z,40713,-0.11214683,-0.13279496,-0.1784409
1732437901157,2024-11-24T08:45:01.157Z,40716,-0.11214683,-0.13279496,-0.1784409
1732437901164,2024-11-24T08:45:01.164Z,40723,-0.02588999,-0.17134687,-0.2416298
1732437901167,2024-11-24T08:45:01.167Z,40726,-0.02588999,-0.17134687,-0.2416298
1732437901176,2024-11-24T08:45:01.176Z,40735,-0.06060661,-0.07809332,-0.28161696
1732437901178,2024-11-24T08:45:01.178Z,40737,-0.06060661,-0.07809332,-0.28161696
1732437901186,2024-11-24T08:45:01.186Z,40745,-0.101681665,-0.0062787016,-0.24477196
1732437901189,2024-11-24T08:45:01.189Z,40748,-0.101681665,-0.0062787016,-0.24477196
1732437901198,2024-11-24T08:45:01.198Z,40757,-0.082656436,0.0024059084,-0.17270465
1732437901201,2024-11-24T08:45:01.201Z,40760,-0.082656436,0.0024059084,-0.17270465
1732437901219,2024-11-24T08:45:01.219Z,40778,-0.08943014,-0.050989214,-0.19618545
1732437901221,2024-11-24T08:45:01.221Z,40780,-0.08943014,-0.050989214,-0.19618545
1732437901229,2024-11-24T08:45:01.229Z,40788,-0.12879735,-0.044364892,-0.24830644
1732437901231,2024-11-24T08:45:01.231Z,40790,-0.12879735,-0.044364892,-0.24830644
1732437901267,2024-11-24T08:45:01.267Z,40826,-0.1723909,-0.06904461,-0.21119224
1732437901274,2024-11-24T08:45:01.274Z,40833,-0.1723909,-0.06904461,-0.21119224
1732437901293,2024-11-24T08:45:01.293Z,40852,0.0021969473,-0.050289225,-0.1247236
1732437901296,2024-11-24T08:45:01.296Z,40855,0.0021969473,-0.050289225,-0.1247236
1732437901306,2024-11-24T08:45:01.306Z,40865,0.007851951,0.0494315,-0.1346158
1732437901309,2024-11-24T08:45:01.309Z,40868,0.007851951,0.0494315,-0.1346158
1732437901319,2024-11-24T08:45:01.319Z,40878,-0.018926362,0.04965264,-0.15211327
1732437901323,2024-11-24T08:45:01.323Z,40882,-0.018926362,0.04965264,-0.15211327
1732437901337,2024-11-24T08:45:01.337Z,40896,-0.08718228,-0.061011855,-0.22333066
1732437901341,2024-11-24T08:45:01.341Z,40900,-0.08718228,-0.061011855,-0.22333066
1732437901357,2024-11-24T08:45:01.357Z,40916,-0.065315805,-0.030433575,-0.2007371
1732437901362,2024-11-24T08:45:01.362Z,40921,-0.065315805,-0.030433575,-0.2007371
1732437901375,2024-11-24T08:45:01.375Z,40934,-0.042979006,0.011114149,-0.20266509
1732437901378,2024-11-24T08:45:01.378Z,40937,-0.042979006,0.011114149,-0.20266509
1732437901387,2024-11-24T08:45:01.387Z,40946,-0.036966506,0.08689112,-0.23440567
1732437901389,2024-11-24T08:45:01.389Z,40948,-0.036966506,0.08689112,-0.23440567
1732437901397,2024-11-24T08:45:01.397Z,40956,0.021810621,0.108481966,-0.2685202
1732437901400,2024-11-24T08:45:01.400Z,40959,0.021810621,0.108481966,-0.2685202
1732437901409,2024-11-24T08:45:01.409Z,40968,0.06814371,0.016043248,-0.27430803
1732437901411,2024-11-24T08:45:01.411Z,40970,0.06814371,0.016043248,-0.27430803
1732437901422,2024-11-24T08:45:01.422Z,40981,-0.08917416,-0.009781467,-0.21535823
1732437901427,2024-11-24T08:45:01.427Z,40986,-0.08917416,-0.009781467,-0.21535823
1732437901445,2024-11-24T08:45:01.445Z,41004,-0.13625787,0.08742793,-0.20395418
1732437901450,2024-11-24T08:45:01.450Z,41009,-0.13625787,0.08742793,-0.20395418
1732437901465,2024-11-24T08:45:01.465Z,41024,-0.14047419,0.08737513,-0.17118187
1732437901471,2024-11-24T08:45:01.471Z,41030,-0.14047419,0.08737513,-0.17118187
1732437901490,2024-11-24T08:45:01.490Z,41049,-0.062098827,-0.06505259,-0.033713304
1732437901495,2024-11-24T08:45:01.495Z,41054,-0.062098827,-0.06505259,-0.033713304
1732437901509,2024-11-24T08:45:01.509Z,41068,-0.07896204,-0.12114741,-0.05345386
1732437901513,2024-11-24T08:45:01.513Z,41072,-0.07896204,-0.12114741,-0.05345386
1732437901526,2024-11-24T08:45:01.526Z,41085,-0.095675685,-0.13665998,-0.09509949
1732437901532,2024-11-24T08:45:01.532Z,41091,-0.095675685,-0.13665998,-0.09509949
1732437901550,2024-11-24T08:45:01.550Z,41109,-0.09989642,-0.011120568,-0.089108884
1732437901556,2024-11-24T08:45:01.556Z,41115,-0.09989642,-0.011120568,-0.089108884
1732437901574,2024-11-24T08:45:01.574Z,41133,-0.09701218,0.030260863,-0.14151818
1732437901580,2024-11-24T08:45:01.580Z,41139,-0.09701218,0.030260863,-0.14151818
1732437901597,2024-11-24T08:45:01.597Z,41156,-0.054076575,0.0047866297,-0.16597423
1732437901603,2024-11-24T08:45:01.603Z,41162,-0.054076575,0.0047866297,-0.16597423
1732437901623,2024-11-24T08:45:01.623Z,41182,-0.04453233,-0.017797498,-0.19172494
1732437901628,2024-11-24T08:45:01.628Z,41187,-0.04453233,-0.017797498,-0.19172494
1732437901639,2024-11-24T08:45:01.639Z,41198,-0.041421644,-0.047500256,-0.21260616
1732437901643,2024-11-24T08:45:01.643Z,41202,-0.041421644,-0.047500256,-0.21260616
1732437901653,2024-11-24T08:45:01.653Z,41212,-0.05666562,-0.026468785,-0.22498044
1732437901656,2024-11-24T08:45:01.656Z,41215,-0.05666562,-0.026468785,-0.22498044
1732437901666,2024-11-24T08:45:01.666Z,41225,-0.045017816,-0.021128427,-0.19460997
1732437901669,2024-11-24T08:45:01.669Z,41228,-0.045017816,-0.021128427,-0.19460997
1732437901679,2024-11-24T08:45:01.679Z,41238,-0.0559289,-0.061344247,-0.17339426
1732437901682,2024-11-24T08:45:01.682Z,41241,-0.0559289,-0.061344247,-0.17339426
1732437901690,2024-11-24T08:45:01.690Z,41249,-0.09176812,-0.06597168,-0.208509
1732437901692,2024-11-24T08:45:01.692Z,41251,-0.09176812,-0.06597168,-0.208509
1732437901700,2024-11-24T08:45:01.700Z,41259,-0.10020939,-0.07976054,-0.2356202
1732437901702,2024-11-24T08:45:01.702Z,41261,-0.10020939,-0.07976054,-0.2356202
1732437901710,2024-11-24T08:45:01.710Z,41269,-0.030962955,-7.7302207E-4,-0.13352017
1732437901712,2024-11-24T08:45:01.712Z,41271,-0.030962955,-7.7302207E-4,-0.13352017
1732437901719,2024-11-24T08:45:01.719Z,41278,-0.004788356,0.01277339,-0.09177024
1732437901721,2024-11-24T08:45:01.721Z,41280,-0.004788356,0.01277339,-0.09177024
1732437901728,2024-11-24T08:45:01.728Z,41287,-0.032817785,-0.005828347,-0.11667361
1732437901731,2024-11-24T08:45:01.731Z,41290,-0.032817785,-0.005828347,-0.11667361
1732437901738,2024-11-24T08:45:01.738Z,41297,-0.004156975,-0.12462178,-0.21268111
1732437901741,2024-11-24T08:45:01.741Z,41300,-0.004156975,-0.12462178,-0.21268111
1732437901747,2024-11-24T08:45:01.747Z,41306,-0.040709183,-0.09319394,-0.21170135
1732437901749,2024-11-24T08:45:01.749Z,41308,-0.040709183,-0.09319394,-0.21170135
1732437901756,2024-11-24T08:45:01.756Z,41315,-0.061685454,-0.03390814,-0.22134732
1732437901759,2024-11-24T08:45:01.759Z,41318,-0.061685454,-0.03390814,-0.22134732
1732437901768,2024-11-24T08:45:01.768Z,41327,0.014408343,0.03731288,-0.14068806
1732437901770,2024-11-24T08:45:01.770Z,41329,0.014408343,0.03731288,-0.14068806
1732437901778,2024-11-24T08:45:01.778Z,41337,0.0034104043,-0.015757922,-0.20332126
1732437901780,2024-11-24T08:45:01.780Z,41339,0.0034104043,-0.015757922,-0.20332126
1732437901788,2024-11-24T08:45:01.788Z,41347,-0.04553967,-0.0961635,-0.24892199
1732437901790,2024-11-24T08:45:01.790Z,41349,-0.04553967,-0.0961635,-0.24892199
1732437901803,2024-11-24T08:45:01.803Z,41362,-0.06298453,-0.0824399,-0.27445585
1732437901806,2024-11-24T08:45:01.806Z,41365,-0.06298453,-0.0824399,-0.27445585
1732437901814,2024-11-24T08:45:01.814Z,41373,-0.04385624,-0.055602353,-0.2110097
1732437901815,2024-11-24T08:45:01.815Z,41374,-0.04385624,-0.055602353,-0.2110097
1732437901822,2024-11-24T08:45:01.822Z,41381,-0.033565134,-0.017596196,-0.1477189
1732437901824,2024-11-24T08:45:01.824Z,41383,-0.033565134,-0.017596196,-0.1477189
1732437901832,2024-11-24T08:45:01.832Z,41391,-0.058224868,-8.202845E-4,-0.101334415
1732437901834,2024-11-24T08:45:01.834Z,41393,-0.058224868,-8.202845E-4,-0.101334415
1732437901843,2024-11-24T08:45:01.843Z,41402,-0.09831902,-0.06897965,-0.122618295
1732437901845,2024-11-24T08:45:01.845Z,41404,-0.09831902,-0.06897965,-0.122618295
1732437901851,2024-11-24T08:45:01.851Z,41410,-0.13607748,-0.10357222,-0.12860034
1732437901853,2024-11-24T08:45:01.853Z,41412,-0.13607748,-0.10357222,-0.12860034
1732437901860,2024-11-24T08:45:01.860Z,41419,-0.1191472,-0.04107471,-0.15362196
1732437901862,2024-11-24T08:45:01.862Z,41421,-0.1191472,-0.04107471,-0.15362196
1732437901870,2024-11-24T08:45:01.870Z,41429,-0.110726506,0.030195998,-0.19843611
1732437901874,2024-11-24T08:45:01.874Z,41433,-0.110726506,0.030195998,-0.19843611
1732437901881,2024-11-24T08:45:01.881Z,41440,-0.10589978,0.05947466,-0.16107759
1732437901883,2024-11-24T08:45:01.883Z,41442,-0.10589978,0.05947466,-0.16107759
1732437901894,2024-11-24T08:45:01.894Z,41453,-0.024582544,-0.024419291,-0.15740447
1732437901896,2024-11-24T08:45:01.896Z,41455,-0.024582544,-0.024419291,-0.15740447
1732437901902,2024-11-24T08:45:01.902Z,41461,-0.039673507,-0.081376694,-0.15296994
1732437901904,2024-11-24T08:45:01.904Z,41463,-0.039673507,-0.081376694,-0.15296994
1732437901938,2024-11-24T08:45:01.938Z,41497,-0.062018987,-0.1139751,-0.16488467
1732437901942,2024-11-24T08:45:01.942Z,41501,-0.062018987,-0.1139751,-0.16488467
1732437901949,2024-11-24T08:45:01.949Z,41508,-0.06532485,-0.037621252,-0.15363072
1732437901951,2024-11-24T08:45:01.951Z,41510,-0.06532485,-0.037621252,-0.15363072
1732437901959,2024-11-24T08:45:01.959Z,41518,-0.097632036,0.038377836,-0.17230836
1732437901961,2024-11-24T08:45:01.961Z,41520,-0.097632036,0.038377836,-0.17230836
1732437901968,2024-11-24T08:45:01.968Z,41527,-0.1349102,-0.018401796,-0.2010581
1732437901970,2024-11-24T08:45:01.970Z,41529,-0.1349102,-0.018401796,-0.2010581
1732437901985,2024-11-24T08:45:01.985Z,41544,-0.027451085,-0.14252508,-0.16695333
1732437901987,2024-11-24T08:45:01.987Z,41546,-0.027451085,-0.14252508,-0.16695333
1732437901994,2024-11-24T08:45:01.994Z,41553,-0.056125935,-0.15668114,-0.1505446
1732437901996,2024-11-24T08:45:01.996Z,41555,-0.056125935,-0.15668114,-0.1505446
1732437902002,2024-11-24T08:45:02.002Z,41561,-0.031003702,-0.1146324,-0.14623775
1732437902004,2024-11-24T08:45:02.004Z,41563,-0.031003702,-0.1146324,-0.14623775
1732437902028,2024-11-24T08:45:02.028Z,41587,-0.03833185,0.11890858,-0.16402301
1732437902031,2024-11-24T08:45:02.031Z,41590,-0.03833185,0.11890858,-0.16402301
1732437902038,2024-11-24T08:45:02.038Z,41597,-0.014684332,0.015165101,-0.1424217
1732437902040,2024-11-24T08:45:02.040Z,41599,-0.014684332,0.015165101,-0.1424217
