Timestamp (ms),ISO DateTime,Elapsed Time (ms),Acceleration X,Acceleration Y,Acceleration Z
1732438198946,2024-11-24T08:49:58.946Z,32967,0.23262149,-0.8176905,-0.8268065
1732438198953,2024-11-24T08:49:58.953Z,32974,0.23262149,-0.8176905,-0.8268065
1732438198974,2024-11-24T08:49:58.974Z,32995,0.24607022,-0.80695856,-0.87271655
1732438198987,2024-11-24T08:49:58.987Z,33008,0.24607022,-0.80695856,-0.87271655
1732438199003,2024-11-24T08:49:59.003Z,33024,0.23794323,-0.80891836,-0.8800483
1732438199007,2024-11-24T08:49:59.007Z,33028,0.23794323,-0.80891836,-0.8800483
1732438199022,2024-11-24T08:49:59.022Z,33043,0.22730112,-0.7889055,-0.87761134
1732438199030,2024-11-24T08:49:59.030Z,33051,0.22730112,-0.7889055,-0.87761134
1732438199043,2024-11-24T08:49:59.043Z,33064,0.21360905,-0.7965334,-0.8653763
1732438199047,2024-11-24T08:49:59.047Z,33068,0.21360905,-0.7965334,-0.8653763
1732438199061,2024-11-24T08:49:59.061Z,33082,0.2191776,-0.80758905,-0.843367
1732438199067,2024-11-24T08:49:59.067Z,33088,0.2191776,-0.80758905,-0.843367
1732438199081,2024-11-24T08:49:59.081Z,33102,0.23411825,-0.81667054,-0.78961974
1732438199084,2024-11-24T08:49:59.084Z,33105,0.23411825,-0.81667054,-0.78961974
1732438199098,2024-11-24T08:49:59.098Z,33119,0.22524117,-0.8069049,-0.843834
1732438199102,2024-11-24T08:49:59.102Z,33123,0.22524117,-0.8069049,-0.843834
1732438199114,2024-11-24T08:49:59.114Z,33135,0.22873963,-0.792425,-0.88489556
1732438199118,2024-11-24T08:49:59.118Z,33139,0.22873963,-0.792425,-0.88489556
1732438199130,2024-11-24T08:49:59.130Z,33151,0.21769097,-0.79157674,-0.8732024
1732438199134,2024-11-24T08:49:59.134Z,33155,0.21769097,-0.79157674,-0.8732024
1732438199148,2024-11-24T08:49:59.148Z,33169,0.21968144,-0.78668475,-0.87759703
1732438199152,2024-11-24T08:49:59.152Z,33173,0.21968144,-0.78668475,-0.87759703
1732438199163,2024-11-24T08:49:59.163Z,33184,0.23504588,-0.7959537,-0.8629378
1732438199167,2024-11-24T08:49:59.167Z,33188,0.23504588,-0.7959537,-0.8629378
1732438199181,2024-11-24T08:49:59.181Z,33202,0.2298901,-0.80217993,-0.8448434
1732438199184,2024-11-24T08:49:59.184Z,33205,0.2298901,-0.80217993,-0.8448434
1732438199198,2024-11-24T08:49:59.198Z,33219,0.21255812,-0.810969,-0.81749076
1732438199201,2024-11-24T08:49:59.201Z,33222,0.21255812,-0.810969,-0.81749076
1732438199212,2024-11-24T08:49:59.212Z,33233,0.20570505,-0.8261057,-0.77743274
1732438199217,2024-11-24T08:49:59.217Z,33238,0.20570505,-0.8261057,-0.77743274
1732438199230,2024-11-24T08:49:59.230Z,33251,0.23181961,-0.81682837,-0.86043084
1732438199233,2024-11-24T08:49:59.233Z,33254,0.23181961,-0.81682837,-0.86043084
1732438199246,2024-11-24T08:49:59.246Z,33267,0.2428922,-0.8314769,-0.8550537
1732438199251,2024-11-24T08:49:59.251Z,33272,0.2428922,-0.8314769,-0.8550537
1732438199265,2024-11-24T08:49:59.265Z,33286,0.22970863,-0.77899516,-0.8824348
1732438199268,2024-11-24T08:49:59.268Z,33289,0.22970863,-0.77899516,-0.8824348
1732438199282,2024-11-24T08:49:59.282Z,33303,0.23754896,-0.7503971,-0.88736826
1732438199285,2024-11-24T08:49:59.285Z,33306,0.23754896,-0.7503971,-0.88736826
1732438199296,2024-11-24T08:49:59.296Z,33317,0.23754029,-0.7437862,-0.8395677
1732438199302,2024-11-24T08:49:59.302Z,33323,0.23754029,-0.7437862,-0.8395677
1732438199313,2024-11-24T08:49:59.313Z,33334,0.17486043,-0.7785502,-0.8377472
1732438199317,2024-11-24T08:49:59.317Z,33338,0.17486043,-0.7785502,-0.8377472
1732438199330,2024-11-24T08:49:59.330Z,33351,0.16148734,-0.7686965,-0.85830677
1732438199334,2024-11-24T08:49:59.334Z,33355,0.16148734,-0.7686965,-0.85830677
1732438199348,2024-11-24T08:49:59.348Z,33369,0.14205171,-0.79970396,-0.8886021
1732438199352,2024-11-24T08:49:59.352Z,33373,0.14205171,-0.79970396,-0.8886021
1732438199366,2024-11-24T08:49:59.366Z,33387,0.21155076,-0.8074088,-0.8561234
1732438199369,2024-11-24T08:49:59.369Z,33390,0.21155076,-0.8074088,-0.8561234
1732438199381,2024-11-24T08:49:59.381Z,33402,0.16526283,-0.74948895,-0.8604405
1732438199384,2024-11-24T08:49:59.384Z,33405,0.16526283,-0.74948895,-0.8604405
1732438199395,2024-11-24T08:49:59.395Z,33416,0.10890356,-0.7066578,-0.92087215
1732438199398,2024-11-24T08:49:59.398Z,33419,0.10890356,-0.7066578,-0.92087215
1732438199414,2024-11-24T08:49:59.414Z,33435,0.12849161,-0.7153501,-0.93825567
1732438199418,2024-11-24T08:49:59.418Z,33439,0.12849161,-0.7153501,-0.93825567
1732438199430,2024-11-24T08:49:59.430Z,33451,0.07073398,-0.7493899,-0.8587267
1732438199433,2024-11-24T08:49:59.433Z,33454,0.07073398,-0.7493899,-0.8587267
1732438199446,2024-11-24T08:49:59.446Z,33467,0.01545161,-0.6995814,-0.87141657
1732438199450,2024-11-24T08:49:59.450Z,33471,0.01545161,-0.6995814,-0.87141657
1732438199467,2024-11-24T08:49:59.467Z,33488,0.111120634,-0.7106475,-0.8596873
1732438199471,2024-11-24T08:49:59.471Z,33492,0.111120634,-0.7106475,-0.8596873
1732438199483,2024-11-24T08:49:59.483Z,33504,0.021799108,-0.7350488,-0.74124247
1732438199487,2024-11-24T08:49:59.487Z,33508,0.021799108,-0.7350488,-0.74124247
1732438199497,2024-11-24T08:49:59.497Z,33518,0.027501361,-0.75035655,-0.6764383
1732438199500,2024-11-24T08:49:59.500Z,33521,0.027501361,-0.75035655,-0.6764383
1732438199513,2024-11-24T08:49:59.513Z,33534,0.12581226,-0.7455956,-0.79808146
1732438199517,2024-11-24T08:49:59.517Z,33538,0.12581226,-0.7455956,-0.79808146
1732438199534,2024-11-24T08:49:59.534Z,33555,0.12741652,-0.7013097,-0.767609
1732438199539,2024-11-24T08:49:59.539Z,33560,0.12741652,-0.7013097,-0.767609
1732438199554,2024-11-24T08:49:59.554Z,33575,0.04145738,-0.6329755,-0.7334699
1732438199557,2024-11-24T08:49:59.557Z,33578,0.04145738,-0.6329755,-0.7334699
1732438199574,2024-11-24T08:49:59.574Z,33595,-0.026477356,-0.57698977,-0.7945856
1732438199578,2024-11-24T08:49:59.578Z,33599,-0.026477356,-0.57698977,-0.7945856
1732438199596,2024-11-24T08:49:59.596Z,33617,0.037022434,-0.6084754,-0.82678103
1732438199600,2024-11-24T08:49:59.600Z,33621,0.037022434,-0.6084754,-0.82678103
1732438199613,2024-11-24T08:49:59.613Z,33634,0.035463374,-0.6522417,-0.8858232
1732438199618,2024-11-24T08:49:59.618Z,33639,0.035463374,-0.6522417,-0.8858232
1732438199631,2024-11-24T08:49:59.631Z,33652,0.013801894,-0.71014744,-0.8591885
1732438199635,2024-11-24T08:49:59.635Z,33656,0.013801894,-0.71014744,-0.8591885
1732438199647,2024-11-24T08:49:59.647Z,33668,0.027302502,-0.7605874,-0.8403404
1732438199651,2024-11-24T08:49:59.651Z,33672,0.027302502,-0.7605874,-0.8403404
1732438199665,2024-11-24T08:49:59.665Z,33686,0.056919366,-0.70702195,-0.882153
1732438199669,2024-11-24T08:49:59.669Z,33690,0.056919366,-0.70702195,-0.882153
1732438199681,2024-11-24T08:49:59.681Z,33702,-0.015925322,-0.6250523,-0.9401417
1732438199684,2024-11-24T08:49:59.684Z,33705,-0.015925322,-0.6250523,-0.9401417
1732438199697,2024-11-24T08:49:59.697Z,33718,-0.15601648,-0.5967429,-0.9311421
1732438199701,2024-11-24T08:49:59.701Z,33722,-0.15601648,-0.5967429,-0.9311421
1732438199714,2024-11-24T08:49:59.714Z,33735,-0.14236191,-0.64020497,-0.9422138
1732438199718,2024-11-24T08:49:59.718Z,33739,-0.14236191,-0.64020497,-0.9422138
1732438199730,2024-11-24T08:49:59.730Z,33751,-0.1166614,-0.66980964,-0.9932834
1732438199733,2024-11-24T08:49:59.733Z,33754,-0.1166614,-0.66980964,-0.9932834
1732438199751,2024-11-24T08:49:59.751Z,33772,-0.28874487,-0.6187595,-0.93927705
1732438199757,2024-11-24T08:49:59.757Z,33778,-0.28874487,-0.6187595,-0.93927705
1732438199769,2024-11-24T08:49:59.769Z,33790,-0.36743653,-0.56479573,-0.9070198
1732438199774,2024-11-24T08:49:59.774Z,33795,-0.36743653,-0.56479573,-0.9070198
1732438199786,2024-11-24T08:49:59.786Z,33807,-0.31874964,-0.6034703,-0.92215437
1732438199790,2024-11-24T08:49:59.790Z,33811,-0.31874964,-0.6034703,-0.92215437
1732438199802,2024-11-24T08:49:59.802Z,33823,-0.10506619,-0.7867067,-0.98436314
1732438199805,2024-11-24T08:49:59.805Z,33826,-0.10506619,-0.7867067,-0.98436314
1732438199817,2024-11-24T08:49:59.817Z,33838,-0.14921175,-0.6349601,-0.9944525
1732438199820,2024-11-24T08:49:59.820Z,33841,-0.14921175,-0.6349601,-0.9944525
1732438199831,2024-11-24T08:49:59.831Z,33852,-0.24819581,-0.4560343,-0.95290875
1732438199835,2024-11-24T08:49:59.835Z,33856,-0.24819581,-0.4560343,-0.95290875
1732438199848,2024-11-24T08:49:59.848Z,33869,-0.28329363,-0.5663377,-0.84624815
1732438199852,2024-11-24T08:49:59.852Z,33873,-0.28329363,-0.5663377,-0.84624815
1732438199863,2024-11-24T08:49:59.863Z,33884,-0.18247756,-0.65140605,-0.8242228
1732438199866,2024-11-24T08:49:59.866Z,33887,-0.18247756,-0.65140605,-0.8242228
1732438199877,2024-11-24T08:49:59.877Z,33898,-0.09327803,-0.751062,-0.826714
1732438199882,2024-11-24T08:49:59.882Z,33903,-0.09327803,-0.751062,-0.826714
1732438199896,2024-11-24T08:49:59.896Z,33917,-0.2598027,-0.7578701,-0.8948449
1732438199900,2024-11-24T08:49:59.900Z,33921,-0.2598027,-0.7578701,-0.8948449
1732438199911,2024-11-24T08:49:59.911Z,33932,-0.29295892,-0.5793878,-0.90750885
1732438199915,2024-11-24T08:49:59.915Z,33936,-0.29295892,-0.5793878,-0.90750885
1732438199926,2024-11-24T08:49:59.926Z,33947,-0.20049234,-0.4597055,-0.8727349
1732438199929,2024-11-24T08:49:59.929Z,33950,-0.20049234,-0.4597055,-0.8727349
1732438199941,2024-11-24T08:49:59.941Z,33962,-0.18204328,-0.7255862,-0.77194405
1732438199945,2024-11-24T08:49:59.945Z,33966,-0.18204328,-0.7255862,-0.77194405
1732438199956,2024-11-24T08:49:59.956Z,33977,-0.2786611,-0.89866185,-0.753103
1732438199959,2024-11-24T08:49:59.959Z,33980,-0.2786611,-0.89866185,-0.753103
1732438199972,2024-11-24T08:49:59.972Z,33993,-0.30107832,-0.84051776,-0.7391304
1732438199976,2024-11-24T08:49:59.976Z,33997,-0.30107832,-0.84051776,-0.7391304
1732438199988,2024-11-24T08:49:59.988Z,34009,-0.1768444,-0.6642131,-0.81230026
1732438199992,2024-11-24T08:49:59.992Z,34013,-0.1768444,-0.6642131,-0.81230026
1732438200006,2024-11-24T08:50:00.006Z,34027,-0.2630916,-0.48204952,-0.7428515
1732438200009,2024-11-24T08:50:00.009Z,34030,-0.2630916,-0.48204952,-0.7428515
1732438200021,2024-11-24T08:50:00.021Z,34042,-0.2638795,-0.6197622,-0.8352776
1732438200024,2024-11-24T08:50:00.024Z,34045,-0.2638795,-0.6197622,-0.8352776
1732438200034,2024-11-24T08:50:00.034Z,34055,-0.2035058,-0.77317107,-0.74464226
1732438200038,2024-11-24T08:50:00.038Z,34059,-0.2035058,-0.77317107,-0.74464226
1732438200050,2024-11-24T08:50:00.050Z,34071,-0.1779635,-0.8241558,-0.86938894
1732438200053,2024-11-24T08:50:00.053Z,34074,-0.1779635,-0.8241558,-0.86938894
1732438200066,2024-11-24T08:50:00.066Z,34087,-0.23024671,-0.73602605,-0.82865524
1732438200069,2024-11-24T08:50:00.069Z,34090,-0.23024671,-0.73602605,-0.82865524
1732438200083,2024-11-24T08:50:00.083Z,34104,-0.21060877,-0.71184826,-0.8456818
1732438200091,2024-11-24T08:50:00.091Z,34112,-0.21060877,-0.71184826,-0.8456818
1732438200113,2024-11-24T08:50:00.113Z,34134,-0.33537826,-0.7410729,-0.7549379
1732438200118,2024-11-24T08:50:00.118Z,34139,-0.33537826,-0.7410729,-0.7549379
1732438200141,2024-11-24T08:50:00.141Z,34162,-0.31095237,-0.7092716,-0.8930539
1732438200149,2024-11-24T08:50:00.149Z,34170,-0.31095237,-0.7092716,-0.8930539
1732438200167,2024-11-24T08:50:00.167Z,34188,-0.2825654,-0.7868855,-0.82660675
1732438200178,2024-11-24T08:50:00.178Z,34199,-0.2825654,-0.7868855,-0.82660675
1732438200193,2024-11-24T08:50:00.193Z,34214,-0.19560647,-0.82014775,-0.74326885
1732438200197,2024-11-24T08:50:00.197Z,34218,-0.19560647,-0.82014775,-0.74326885
1732438200210,2024-11-24T08:50:00.210Z,34231,-0.21246722,-0.74542797,-0.70484966
1732438200213,2024-11-24T08:50:00.213Z,34234,-0.21246722,-0.74542797,-0.70484966
1732438200224,2024-11-24T08:50:00.224Z,34245,-0.19419008,-0.6237071,-0.8217631
1732438200228,2024-11-24T08:50:00.228Z,34249,-0.19419008,-0.6237071,-0.8217631
1732438200240,2024-11-24T08:50:00.240Z,34261,-0.29897368,-0.9300106,-0.68905395
1732438200245,2024-11-24T08:50:00.245Z,34266,-0.29897368,-0.9300106,-0.68905395
1732438200256,2024-11-24T08:50:00.256Z,34277,-0.32631356,-0.8216057,-0.6423125
1732438200260,2024-11-24T08:50:00.260Z,34281,-0.32631356,-0.8216057,-0.6423125
1732438200273,2024-11-24T08:50:00.273Z,34294,-0.24852912,-0.75915766,-0.6660372
1732438200277,2024-11-24T08:50:00.277Z,34298,-0.24852912,-0.75915766,-0.6660372
1732438200289,2024-11-24T08:50:00.289Z,34310,-0.17571266,-0.83782494,-0.70726806
1732438200293,2024-11-24T08:50:00.293Z,34314,-0.17571266,-0.83782494,-0.70726806
1732438200304,2024-11-24T08:50:00.304Z,34325,-0.29221836,-0.9126661,-0.72186005
1732438200308,2024-11-24T08:50:00.308Z,34329,-0.29221836,-0.9126661,-0.72186005
1732438200319,2024-11-24T08:50:00.319Z,34340,-0.39769724,-0.9667896,-0.8953554
1732438200324,2024-11-24T08:50:00.324Z,34345,-0.39769724,-0.9667896,-0.8953554
1732438200345,2024-11-24T08:50:00.345Z,34366,-0.1880349,-0.9215303,-0.68858427
1732438200350,2024-11-24T08:50:00.350Z,34371,-0.1880349,-0.9215303,-0.68858427
1732438200362,2024-11-24T08:50:00.362Z,34383,-0.18658736,-1.084504,-0.7372065
1732438200365,2024-11-24T08:50:00.365Z,34386,-0.18658736,-1.084504,-0.7372065
1732438200377,2024-11-24T08:50:00.377Z,34398,-0.28914008,-0.93031734,-0.7000028
1732438200380,2024-11-24T08:50:00.380Z,34401,-0.28914008,-0.93031734,-0.7000028
1732438200393,2024-11-24T08:50:00.393Z,34414,-0.32856238,-0.79752547,-0.7619755
1732438200396,2024-11-24T08:50:00.396Z,34417,-0.32856238,-0.79752547,-0.7619755
1732438200406,2024-11-24T08:50:00.406Z,34427,-0.15432507,-0.88911283,-0.6736698
1732438200409,2024-11-24T08:50:00.409Z,34430,-0.15432507,-0.88911283,-0.6736698
1732438200419,2024-11-24T08:50:00.419Z,34440,-0.12540834,-1.0270665,-0.60117096
1732438200423,2024-11-24T08:50:00.423Z,34444,-0.12540834,-1.0270665,-0.60117096
1732438200437,2024-11-24T08:50:00.437Z,34458,-0.031790424,-1.0728865,-0.6254192
1732438200444,2024-11-24T08:50:00.444Z,34465,-0.031790424,-1.0728865,-0.6254192
1732438200469,2024-11-24T08:50:00.469Z,34490,-0.2453959,-1.0582229,-0.920501
1732438200472,2024-11-24T08:50:00.472Z,34493,-0.2453959,-1.0582229,-0.920501
1732438200484,2024-11-24T08:50:00.484Z,34505,-0.17414871,-1.0660591,-0.8980581
1732438200489,2024-11-24T08:50:00.489Z,34510,-0.17414871,-1.0660591,-0.8980581
1732438200502,2024-11-24T08:50:00.502Z,34523,-0.05968383,-1.0434655,-0.7605492
1732438200506,2024-11-24T08:50:00.506Z,34527,-0.05968383,-1.0434655,-0.7605492
1732438200519,2024-11-24T08:50:00.519Z,34540,-0.039865654,-1.0120045,-0.560751
1732438200522,2024-11-24T08:50:00.522Z,34543,-0.039865654,-1.0120045,-0.560751
1732438200531,2024-11-24T08:50:00.531Z,34552,0.011088816,-1.0247229,-0.84928435
1732438200534,2024-11-24T08:50:00.534Z,34555,0.011088816,-1.0247229,-0.84928435
1732438200544,2024-11-24T08:50:00.544Z,34565,-0.06423654,-1.0340197,-0.9339125
1732438200547,2024-11-24T08:50:00.547Z,34568,-0.06423654,-1.0340197,-0.9339125
1732438200560,2024-11-24T08:50:00.560Z,34581,0.026685672,-1.2197022,-0.64957154
1732438200563,2024-11-24T08:50:00.563Z,34584,0.026685672,-1.2197022,-0.64957154
1732438200580,2024-11-24T08:50:00.580Z,34601,0.23366185,-1.1939952,-0.5560471
1732438200587,2024-11-24T08:50:00.587Z,34608,0.23366185,-1.1939952,-0.5560471
1732438200610,2024-11-24T08:50:00.610Z,34631,0.19164631,-1.0912992,-0.64544153
1732438200617,2024-11-24T08:50:00.617Z,34638,0.19164631,-1.0912992,-0.64544153
1732438200631,2024-11-24T08:50:00.631Z,34652,0.028282043,-1.0989261,-0.93472373
1732438200635,2024-11-24T08:50:00.635Z,34656,0.028282043,-1.0989261,-0.93472373
1732438200647,2024-11-24T08:50:00.647Z,34668,-0.062424935,-1.1996645,-0.88005507
1732438200651,2024-11-24T08:50:00.651Z,34672,-0.062424935,-1.1996645,-0.88005507
1732438200661,2024-11-24T08:50:00.661Z,34682,-0.009445768,-1.2506694,-0.77212876
1732438200664,2024-11-24T08:50:00.664Z,34685,-0.009445768,-1.2506694,-0.77212876
1732438200674,2024-11-24T08:50:00.674Z,34695,0.16409856,-1.2736089,-0.40371722
1732438200677,2024-11-24T08:50:00.677Z,34698,0.16409856,-1.2736089,-0.40371722
1732438200687,2024-11-24T08:50:00.687Z,34708,0.117228374,-1.3236538,-0.8056156
1732438200692,2024-11-24T08:50:00.692Z,34713,0.117228374,-1.3236538,-0.8056156
1732438200702,2024-11-24T08:50:00.702Z,34723,0.042943243,-1.4731147,-0.700167
1732438200706,2024-11-24T08:50:00.706Z,34727,0.042943243,-1.4731147,-0.700167
1732438200716,2024-11-24T08:50:00.716Z,34737,0.04718409,-1.4523847,-0.41157153
1732438200719,2024-11-24T08:50:00.719Z,34740,0.04718409,-1.4523847,-0.41157153
1732438200729,2024-11-24T08:50:00.729Z,34750,0.2586566,-1.0916848,-0.51860964
1732438200732,2024-11-24T08:50:00.732Z,34753,0.2586566,-1.0916848,-0.51860964
1732438200743,2024-11-24T08:50:00.743Z,34764,0.30856597,-1.0785486,-0.7118682
1732438200746,2024-11-24T08:50:00.746Z,34767,0.30856597,-1.0785486,-0.7118682
1732438200758,2024-11-24T08:50:00.758Z,34779,0.26143256,-1.2918726,-0.38762417
1732438200761,2024-11-24T08:50:00.761Z,34782,0.26143256,-1.2918726,-0.38762417
1732438200776,2024-11-24T08:50:00.776Z,34797,0.28441566,-1.2148856,-0.2839414
1732438200782,2024-11-24T08:50:00.782Z,34803,0.28441566,-1.2148856,-0.2839414
1732438200792,2024-11-24T08:50:00.792Z,34813,0.3008257,-1.1061599,-0.49481568
1732438200795,2024-11-24T08:50:00.795Z,34816,0.3008257,-1.1061599,-0.49481568
1732438200807,2024-11-24T08:50:00.807Z,34828,0.063232675,-1.0347859,-0.7004253
1732438200810,2024-11-24T08:50:00.810Z,34831,0.063232675,-1.0347859,-0.7004253
1732438200823,2024-11-24T08:50:00.823Z,34844,0.03904046,-1.1157259,-0.5261134
1732438200830,2024-11-24T08:50:00.830Z,34851,0.03904046,-1.1157259,-0.5261134
1732438200850,2024-11-24T08:50:00.850Z,34871,0.18856065,-1.1708778,-0.39863807
1732438200856,2024-11-24T08:50:00.856Z,34877,0.18856065,-1.1708778,-0.39863807
1732438200866,2024-11-24T08:50:00.866Z,34887,0.116392605,-0.99130005,-0.484055
1732438200869,2024-11-24T08:50:00.869Z,34890,0.116392605,-0.99130005,-0.484055
1732438200880,2024-11-24T08:50:00.880Z,34901,-0.010284384,-0.96965647,-0.6191694
1732438200883,2024-11-24T08:50:00.883Z,34904,-0.010284384,-0.96965647,-0.6191694
1732438200894,2024-11-24T08:50:00.894Z,34915,0.091818444,-0.9948616,-0.51558447
1732438200896,2024-11-24T08:50:00.896Z,34917,0.091818444,-0.9948616,-0.51558447
1732438200906,2024-11-24T08:50:00.906Z,34927,-0.0018254855,-1.1021824,-0.5256989
1732438200909,2024-11-24T08:50:00.909Z,34930,-0.0018254855,-1.1021824,-0.5256989
1732438200920,2024-11-24T08:50:00.920Z,34941,0.0071276254,-0.97485983,-0.57608265
1732438200923,2024-11-24T08:50:00.923Z,34944,0.0071276254,-0.97485983,-0.57608265
1732438200934,2024-11-24T08:50:00.934Z,34955,-0.032984372,-0.9019315,-0.6995856
1732438200937,2024-11-24T08:50:00.937Z,34958,-0.032984372,-0.9019315,-0.6995856
1732438200946,2024-11-24T08:50:00.946Z,34967,0.038556896,-0.9541146,-0.66392267
1732438200949,2024-11-24T08:50:00.949Z,34970,0.038556896,-0.9541146,-0.66392267
1732438200960,2024-11-24T08:50:00.960Z,34981,0.16378547,-1.0248787,-0.6064218
1732438200963,2024-11-24T08:50:00.963Z,34984,0.16378547,-1.0248787,-0.6064218
1732438200974,2024-11-24T08:50:00.974Z,34995,0.1368016,-0.97981906,-0.5571661
1732438200977,2024-11-24T08:50:00.977Z,34998,0.1368016,-0.97981906,-0.5571661
1732438200987,2024-11-24T08:50:00.987Z,35008,0.056903113,-0.92973655,-0.7005124
1732438200991,2024-11-24T08:50:00.991Z,35012,0.056903113,-0.92973655,-0.7005124
1732438201000,2024-11-24T08:50:01Z,35021,0.019641194,-1.0191896,-0.79699165
1732438201004,2024-11-24T08:50:01.004Z,35025,0.019641194,-1.0191896,-0.79699165
1732438201014,2024-11-24T08:50:01.014Z,35035,0.07527985,-1.0377594,-0.64986515
1732438201017,2024-11-24T08:50:01.017Z,35038,0.07527985,-1.0377594,-0.64986515
1732438201027,2024-11-24T08:50:01.027Z,35048,0.19003952,-0.94687104,-0.43864533
1732438201030,2024-11-24T08:50:01.030Z,35051,0.19003952,-0.94687104,-0.43864533
1732438201040,2024-11-24T08:50:01.040Z,35061,0.24754547,-0.90796757,-0.46849525
1732438201043,2024-11-24T08:50:01.043Z,35064,0.24754547,-0.90796757,-0.46849525
1732438201055,2024-11-24T08:50:01.055Z,35076,-0.028134834,-1.1483082,-0.74905723
1732438201059,2024-11-24T08:50:01.059Z,35080,-0.028134834,-1.1483082,-0.74905723
1732438201068,2024-11-24T08:50:01.068Z,35089,0.006295501,-1.05278,-0.6041444
1732438201071,2024-11-24T08:50:01.071Z,35092,0.006295501,-1.05278,-0.6041444
1732438201084,2024-11-24T08:50:01.084Z,35105,0.0904466,-0.9271579,-0.45753056
1732438201090,2024-11-24T08:50:01.090Z,35111,0.0904466,-0.9271579,-0.45753056
1732438201111,2024-11-24T08:50:01.111Z,35132,0.08780815,-0.9805491,-0.47720218
1732438201120,2024-11-24T08:50:01.120Z,35141,0.08780815,-0.9805491,-0.47720218
1732438201144,2024-11-24T08:50:01.144Z,35165,0.09363187,-1.0207496,-0.5635999
1732438201151,2024-11-24T08:50:01.151Z,35172,0.09363187,-1.0207496,-0.5635999
1732438201177,2024-11-24T08:50:01.177Z,35198,0.092161246,-1.023127,-0.6069946
1732438201185,2024-11-24T08:50:01.185Z,35206,0.092161246,-1.023127,-0.6069946
1732438201202,2024-11-24T08:50:01.202Z,35223,0.030454824,-1.0725427,-0.61380917
1732438201206,2024-11-24T08:50:01.206Z,35227,0.030454824,-1.0725427,-0.61380917
1732438201221,2024-11-24T08:50:01.221Z,35242,0.13664016,-1.01994,-0.602053
1732438201224,2024-11-24T08:50:01.224Z,35245,0.13664016,-1.01994,-0.602053
1732438201236,2024-11-24T08:50:01.236Z,35257,0.11957926,-0.955048,-0.57354784
1732438201240,2024-11-24T08:50:01.240Z,35261,0.11957926,-0.955048,-0.57354784
1732438201251,2024-11-24T08:50:01.251Z,35272,0.11693542,-0.9871824,-0.61707056
1732438201255,2024-11-24T08:50:01.255Z,35276,0.11693542,-0.9871824,-0.61707056
1732438201264,2024-11-24T08:50:01.264Z,35285,0.14346938,-1.1414135,-0.6164225
1732438201267,2024-11-24T08:50:01.267Z,35288,0.14346938,-1.1414135,-0.6164225
1732438201276,2024-11-24T08:50:01.276Z,35297,0.010042286,-1.2422488,-0.62305045
1732438201279,2024-11-24T08:50:01.279Z,35300,0.010042286,-1.2422488,-0.62305045
1732438201288,2024-11-24T08:50:01.288Z,35309,0.0155323325,-1.1161389,-0.61051226
1732438201291,2024-11-24T08:50:01.291Z,35312,0.0155323325,-1.1161389,-0.61051226
1732438201303,2024-11-24T08:50:01.303Z,35324,0.172362,-0.9964091,-0.5475894
1732438201307,2024-11-24T08:50:01.307Z,35328,0.172362,-0.9964091,-0.5475894
1732438201317,2024-11-24T08:50:01.317Z,35338,0.20302288,-0.92587256,-0.53351086
1732438201320,2024-11-24T08:50:01.320Z,35341,0.20302288,-0.92587256,-0.53351086
1732438201334,2024-11-24T08:50:01.334Z,35355,0.16268279,-0.9400369,-0.5544352
1732438201338,2024-11-24T08:50:01.338Z,35359,0.16268279,-0.9400369,-0.5544352
1732438201353,2024-11-24T08:50:01.353Z,35374,0.049562324,-1.1071715,-0.6198444
1732438201361,2024-11-24T08:50:01.361Z,35382,0.049562324,-1.1071715,-0.6198444
1732438201371,2024-11-24T08:50:01.371Z,35392,0.05393915,-1.2154706,-0.6423189
1732438201374,2024-11-24T08:50:01.374Z,35395,0.05393915,-1.2154706,-0.6423189
1732438201386,2024-11-24T08:50:01.386Z,35407,0.014142614,-1.2543212,-0.6704937
1732438201389,2024-11-24T08:50:01.389Z,35410,0.014142614,-1.2543212,-0.6704937
1732438201399,2024-11-24T08:50:01.399Z,35420,0.06006617,-0.96319795,-0.61805904
1732438201403,2024-11-24T08:50:01.403Z,35424,0.06006617,-0.96319795,-0.61805904
1732438201415,2024-11-24T08:50:01.415Z,35436,0.09704524,-0.85186005,-0.6110235
1732438201418,2024-11-24T08:50:01.418Z,35439,0.09704524,-0.85186005,-0.6110235
1732438201428,2024-11-24T08:50:01.428Z,35449,0.089183256,-0.9173992,-0.5832357
1732438201432,2024-11-24T08:50:01.432Z,35453,0.089183256,-0.9173992,-0.5832357
1732438201442,2024-11-24T08:50:01.442Z,35463,-0.0068099173,-1.2775309,-0.64781845
1732438201444,2024-11-24T08:50:01.444Z,35465,-0.0068099173,-1.2775309,-0.64781845
1732438201454,2024-11-24T08:50:01.454Z,35475,-8.81745E-4,-1.1652025,-0.6463631
1732438201458,2024-11-24T08:50:01.458Z,35479,-8.81745E-4,-1.1652025,-0.6463631
1732438201472,2024-11-24T08:50:01.472Z,35493,0.02855662,-1.0153031,-0.6456645
1732438201479,2024-11-24T08:50:01.479Z,35500,0.02855662,-1.0153031,-0.6456645
1732438201502,2024-11-24T08:50:01.502Z,35523,0.0066141575,-1.0710021,-0.7063039
1732438201506,2024-11-24T08:50:01.506Z,35527,0.0066141575,-1.0710021,-0.7063039
1732438201515,2024-11-24T08:50:01.515Z,35536,0.033295285,-1.0583597,-0.7122639
1732438201519,2024-11-24T08:50:01.519Z,35540,0.033295285,-1.0583597,-0.7122639
1732438201530,2024-11-24T08:50:01.530Z,35551,-0.012292087,-1.0169617,-0.6426056
1732438201533,2024-11-24T08:50:01.533Z,35554,-0.012292087,-1.0169617,-0.6426056
1732438201543,2024-11-24T08:50:01.543Z,35564,0.032913756,-0.962783,-0.5911986
1732438201546,2024-11-24T08:50:01.546Z,35567,0.032913756,-0.962783,-0.5911986
1732438201556,2024-11-24T08:50:01.556Z,35577,0.09688829,-1.0413091,-0.56387544
1732438201559,2024-11-24T08:50:01.559Z,35580,0.09688829,-1.0413091,-0.56387544
1732438201570,2024-11-24T08:50:01.570Z,35591,0.05040303,-1.1633651,-0.552834
1732438201573,2024-11-24T08:50:01.573Z,35594,0.05040303,-1.1633651,-0.552834
1732438201583,2024-11-24T08:50:01.583Z,35604,-0.09393175,-1.115977,-0.6926852
1732438201586,2024-11-24T08:50:01.586Z,35607,-0.09393175,-1.115977,-0.6926852
1732438201596,2024-11-24T08:50:01.596Z,35617,-0.09613232,-0.95198226,-0.6441496
1732438201599,2024-11-24T08:50:01.599Z,35620,-0.09613232,-0.95198226,-0.6441496
1732438201609,2024-11-24T08:50:01.609Z,35630,-0.10615876,-0.840309,-0.69801044
1732438201613,2024-11-24T08:50:01.613Z,35634,-0.10615876,-0.840309,-0.69801044
1732438201623,2024-11-24T08:50:01.623Z,35644,-0.07893448,-0.9714196,-0.71048546
1732438201627,2024-11-24T08:50:01.627Z,35648,-0.07893448,-0.9714196,-0.71048546
1732438201636,2024-11-24T08:50:01.636Z,35657,-0.07221484,-1.1618556,-0.6606717
1732438201639,2024-11-24T08:50:01.639Z,35660,-0.07221484,-1.1618556,-0.6606717
1732438201648,2024-11-24T08:50:01.648Z,35669,-0.15537047,-0.9901266,-0.81622106
1732438201650,2024-11-24T08:50:01.650Z,35671,-0.15537047,-0.9901266,-0.81622106
1732438201661,2024-11-24T08:50:01.661Z,35682,-0.24430315,-0.7581405,-0.8504051
1732438201663,2024-11-24T08:50:01.663Z,35684,-0.24430315,-0.7581405,-0.8504051
1732438201674,2024-11-24T08:50:01.674Z,35695,-0.022680769,-0.97027004,-0.5757378
1732438201677,2024-11-24T08:50:01.677Z,35698,-0.022680769,-0.97027004,-0.5757378
1732438201691,2024-11-24T08:50:01.691Z,35712,0.0040025213,-1.2231194,-0.5548779
1732438201698,2024-11-24T08:50:01.698Z,35719,0.0040025213,-1.2231194,-0.5548779
1732438201716,2024-11-24T08:50:01.716Z,35737,0.06669479,-1.3113196,-0.56395566
1732438201721,2024-11-24T08:50:01.721Z,35742,0.06669479,-1.3113196,-0.56395566
1732438201740,2024-11-24T08:50:01.740Z,35761,-0.21121807,-1.0704306,-0.7296858
1732438201746,2024-11-24T08:50:01.746Z,35767,-0.21121807,-1.0704306,-0.7296858
1732438201769,2024-11-24T08:50:01.769Z,35790,-0.4165248,-0.8309291,-0.78368396
1732438201777,2024-11-24T08:50:01.777Z,35798,-0.4165248,-0.8309291,-0.78368396
1732438201794,2024-11-24T08:50:01.794Z,35815,-0.33429918,-0.58352613,-0.71872866
1732438201797,2024-11-24T08:50:01.797Z,35818,-0.33429918,-0.58352613,-0.71872866
1732438201810,2024-11-24T08:50:01.810Z,35831,0.013149083,-0.9612779,-0.5727055
1732438201815,2024-11-24T08:50:01.815Z,35836,0.013149083,-0.9612779,-0.5727055
1732438201831,2024-11-24T08:50:01.831Z,35852,-0.04447724,-1.1735501,-0.6702466
1732438201839,2024-11-24T08:50:01.839Z,35860,-0.04447724,-1.1735501,-0.6702466
1732438201860,2024-11-24T08:50:01.860Z,35881,-0.117327325,-1.2079121,-0.73464733
1732438201867,2024-11-24T08:50:01.867Z,35888,-0.117327325,-1.2079121,-0.73464733
1732438201883,2024-11-24T08:50:01.883Z,35904,-0.26106867,-0.86578786,-0.8431902
1732438201886,2024-11-24T08:50:01.886Z,35907,-0.26106867,-0.86578786,-0.8431902
1732438201898,2024-11-24T08:50:01.898Z,35919,-0.35787284,-0.6408253,-0.8447799
1732438201902,2024-11-24T08:50:01.902Z,35923,-0.35787284,-0.6408253,-0.8447799
1732438201916,2024-11-24T08:50:01.916Z,35937,-0.35075104,-0.52376413,-0.82673687
1732438201921,2024-11-24T08:50:01.921Z,35942,-0.35075104,-0.52376413,-0.82673687
1732438201943,2024-11-24T08:50:01.943Z,35964,-0.16474763,-1.191169,-0.6660108
1732438201951,2024-11-24T08:50:01.951Z,35972,-0.16474763,-1.191169,-0.6660108
1732438201974,2024-11-24T08:50:01.974Z,35995,-0.113477595,-1.3435078,-0.64969265
1732438201977,2024-11-24T08:50:01.977Z,35998,-0.113477595,-1.3435078,-0.64969265
1732438201987,2024-11-24T08:50:01.987Z,36008,-0.11093799,-1.2348808,-0.7318594
1732438201991,2024-11-24T08:50:01.991Z,36012,-0.11093799,-1.2348808,-0.7318594
1732438202002,2024-11-24T08:50:02.002Z,36023,-0.24273306,-0.94846034,-0.7878526
1732438202005,2024-11-24T08:50:02.005Z,36026,-0.24273306,-0.94846034,-0.7878526
1732438202015,2024-11-24T08:50:02.015Z,36036,-0.36248332,-0.72409654,-0.81693935
1732438202018,2024-11-24T08:50:02.018Z,36039,-0.36248332,-0.72409654,-0.81693935
1732438202027,2024-11-24T08:50:02.027Z,36048,-0.40683004,-0.6730481,-0.8329273
1732438202030,2024-11-24T08:50:02.030Z,36051,-0.40683004,-0.6730481,-0.8329273
1732438202040,2024-11-24T08:50:02.040Z,36061,-0.4380989,-0.68169117,-0.75084174
1732438202043,2024-11-24T08:50:02.043Z,36064,-0.4380989,-0.68169117,-0.75084174
1732438202052,2024-11-24T08:50:02.052Z,36073,-0.13424028,-0.95576346,-0.53209156
1732438202057,2024-11-24T08:50:02.057Z,36078,-0.13424028,-0.95576346,-0.53209156
1732438202068,2024-11-24T08:50:02.068Z,36089,-0.07871242,-1.1723138,-0.5682406
1732438202071,2024-11-24T08:50:02.071Z,36092,-0.07871242,-1.1723138,-0.5682406
1732438202080,2024-11-24T08:50:02.080Z,36101,-0.06931895,-1.2649698,-0.62198687
1732438202083,2024-11-24T08:50:02.083Z,36104,-0.06931895,-1.2649698,-0.62198687
1732438202096,2024-11-24T08:50:02.096Z,36117,-0.28605613,-0.722949,-0.859243
1732438202104,2024-11-24T08:50:02.104Z,36125,-0.28605613,-0.722949,-0.859243
1732438202128,2024-11-24T08:50:02.128Z,36149,-0.2619275,-0.7890029,-0.7727453
1732438202135,2024-11-24T08:50:02.135Z,36156,-0.2619275,-0.7890029,-0.7727453
1732438202156,2024-11-24T08:50:02.156Z,36177,-0.20551197,-0.9520417,-0.7529522
1732438202164,2024-11-24T08:50:02.164Z,36185,-0.20551197,-0.9520417,-0.7529522
1732438202180,2024-11-24T08:50:02.180Z,36201,-0.15499842,-1.168928,-0.5844977
1732438202184,2024-11-24T08:50:02.184Z,36205,-0.15499842,-1.168928,-0.5844977
1732438202197,2024-11-24T08:50:02.197Z,36218,-0.20125194,-1.1937784,-0.68063855
1732438202200,2024-11-24T08:50:02.200Z,36221,-0.20125194,-1.1937784,-0.68063855
1732438202212,2024-11-24T08:50:02.212Z,36233,-0.20660226,-1.0135019,-0.7288084
1732438202215,2024-11-24T08:50:02.215Z,36236,-0.20660226,-1.0135019,-0.7288084
1732438202227,2024-11-24T08:50:02.227Z,36248,-0.22588193,-0.60542,-0.6933477
1732438202230,2024-11-24T08:50:02.230Z,36251,-0.22588193,-0.60542,-0.6933477
1732438202240,2024-11-24T08:50:02.240Z,36261,-0.14288601,-0.78175753,-0.72769845
1732438202243,2024-11-24T08:50:02.243Z,36264,-0.14288601,-0.78175753,-0.72769845
1732438202253,2024-11-24T08:50:02.253Z,36274,-0.14654247,-1.0131731,-0.68719286
1732438202255,2024-11-24T08:50:02.255Z,36276,-0.14654247,-1.0131731,-0.68719286
1732438202266,2024-11-24T08:50:02.266Z,36287,-0.3163031,-0.9609019,-0.8053868
1732438202269,2024-11-24T08:50:02.269Z,36290,-0.3163031,-0.9609019,-0.8053868
1732438202279,2024-11-24T08:50:02.279Z,36300,-0.39292416,-0.72850287,-0.9283103
1732438202283,2024-11-24T08:50:02.283Z,36304,-0.39292416,-0.72850287,-0.9283103
1732438202292,2024-11-24T08:50:02.292Z,36313,-0.30737284,-0.6192502,-0.8870674
1732438202295,2024-11-24T08:50:02.295Z,36316,-0.30737284,-0.6192502,-0.8870674
1732438202303,2024-11-24T08:50:02.303Z,36324,-0.12642474,-0.8425478,-0.65365547
1732438202306,2024-11-24T08:50:02.306Z,36327,-0.12642474,-0.8425478,-0.65365547
1732438202316,2024-11-24T08:50:02.316Z,36337,-0.2198308,-0.89164686,-0.683632
1732438202318,2024-11-24T08:50:02.318Z,36339,-0.2198308,-0.89164686,-0.683632
1732438202328,2024-11-24T08:50:02.328Z,36349,-0.41719103,-0.9364524,-0.8010231
1732438202331,2024-11-24T08:50:02.331Z,36352,-0.41719103,-0.9364524,-0.8010231
1732438202344,2024-11-24T08:50:02.344Z,36365,-0.56389016,-1.0363388,-0.881558
1732438202348,2024-11-24T08:50:02.348Z,36369,-0.56389016,-1.0363388,-0.881558
1732438202360,2024-11-24T08:50:02.360Z,36381,-0.53603464,-1.1082349,-0.9136933
1732438202364,2024-11-24T08:50:02.364Z,36385,-0.53603464,-1.1082349,-0.9136933
1732438202373,2024-11-24T08:50:02.373Z,36394,-0.3727782,-1.0526152,-0.83369386
1732438202377,2024-11-24T08:50:02.377Z,36398,-0.3727782,-1.0526152,-0.83369386
1732438202387,2024-11-24T08:50:02.387Z,36408,-0.24190593,-0.887676,-0.702672
1732438202391,2024-11-24T08:50:02.391Z,36412,-0.24190593,-0.887676,-0.702672
1732438202405,2024-11-24T08:50:02.405Z,36426,-0.14199246,-0.68820953,-0.69347644
1732438202411,2024-11-24T08:50:02.411Z,36432,-0.14199246,-0.68820953,-0.69347644
1732438202430,2024-11-24T08:50:02.430Z,36451,-0.21489905,-0.7063693,-0.81616
1732438202433,2024-11-24T08:50:02.433Z,36454,-0.21489905,-0.7063693,-0.81616
1732438202444,2024-11-24T08:50:02.444Z,36465,-0.31465143,-0.7112129,-0.82970893
1732438202447,2024-11-24T08:50:02.447Z,36468,-0.31465143,-0.7112129,-0.82970893
1732438202462,2024-11-24T08:50:02.462Z,36483,-0.30492285,-0.8765623,-0.763195
1732438202466,2024-11-24T08:50:02.466Z,36487,-0.30492285,-0.8765623,-0.763195
1732438202478,2024-11-24T08:50:02.478Z,36499,-0.19909237,-0.9768789,-0.70601493
1732438202486,2024-11-24T08:50:02.486Z,36507,-0.19909237,-0.9768789,-0.70601493
1732438202510,2024-11-24T08:50:02.510Z,36531,-0.12928207,-0.931281,-0.64684
1732438202513,2024-11-24T08:50:02.513Z,36534,-0.12928207,-0.931281,-0.64684
1732438202523,2024-11-24T08:50:02.523Z,36544,-0.31030214,-0.66696364,-0.73512185
1732438202527,2024-11-24T08:50:02.527Z,36548,-0.31030214,-0.66696364,-0.73512185
1732438202537,2024-11-24T08:50:02.537Z,36558,-0.22240321,-0.9096335,-0.62977844
1732438202540,2024-11-24T08:50:02.540Z,36561,-0.22240321,-0.9096335,-0.62977844
1732438202550,2024-11-24T08:50:02.550Z,36571,-0.2665155,-0.96739846,-0.6641872
1732438202552,2024-11-24T08:50:02.552Z,36573,-0.2665155,-0.96739846,-0.6641872
1732438202562,2024-11-24T08:50:02.562Z,36583,-0.39652643,-0.9373932,-0.74339145
1732438202565,2024-11-24T08:50:02.565Z,36586,-0.39652643,-0.9373932,-0.74339145
1732438202574,2024-11-24T08:50:02.574Z,36595,-0.33283135,-0.86842704,-0.8130422
1732438202577,2024-11-24T08:50:02.577Z,36598,-0.33283135,-0.86842704,-0.8130422
1732438202586,2024-11-24T08:50:02.586Z,36607,-0.2892384,-0.78183115,-0.80205864
1732438202591,2024-11-24T08:50:02.591Z,36612,-0.2892384,-0.78183115,-0.80205864
1732438202603,2024-11-24T08:50:02.603Z,36624,-0.23710738,-0.64406323,-0.74322677
1732438202610,2024-11-24T08:50:02.610Z,36631,-0.23710738,-0.64406323,-0.74322677
1732438202631,2024-11-24T08:50:02.631Z,36652,-0.18368044,-0.7878441,-0.79511505
1732438202638,2024-11-24T08:50:02.638Z,36659,-0.18368044,-0.7878441,-0.79511505
1732438202660,2024-11-24T08:50:02.660Z,36681,-0.22885752,-0.70517826,-0.80056345
1732438202664,2024-11-24T08:50:02.664Z,36685,-0.22885752,-0.70517826,-0.80056345
1732438202682,2024-11-24T08:50:02.682Z,36703,-0.29766628,-0.69102174,-0.81166893
1732438202691,2024-11-24T08:50:02.691Z,36712,-0.29766628,-0.69102174,-0.81166893
1732438202714,2024-11-24T08:50:02.714Z,36735,-0.34686783,-0.9957286,-0.86731184
1732438202721,2024-11-24T08:50:02.721Z,36742,-0.34686783,-0.9957286,-0.86731184
1732438202742,2024-11-24T08:50:02.742Z,36763,-0.32609364,-1.0733285,-0.843876
1732438202749,2024-11-24T08:50:02.749Z,36770,-0.32609364,-1.0733285,-0.843876
1732438202765,2024-11-24T08:50:02.765Z,36786,-0.25972062,-1.0800024,-0.8007069
1732438202770,2024-11-24T08:50:02.770Z,36791,-0.25972062,-1.0800024,-0.8007069
1732438202784,2024-11-24T08:50:02.784Z,36805,-0.1932579,-0.8925617,-0.83597344
1732438202788,2024-11-24T08:50:02.788Z,36809,-0.1932579,-0.8925617,-0.83597344
1732438202808,2024-11-24T08:50:02.808Z,36829,-0.24479058,-0.6952988,-0.868188
1732438202815,2024-11-24T08:50:02.815Z,36836,-0.24479058,-0.6952988,-0.868188
1732438202834,2024-11-24T08:50:02.834Z,36855,-0.38073128,-0.6296164,-0.90827525
1732438202837,2024-11-24T08:50:02.837Z,36858,-0.38073128,-0.6296164,-0.90827525
1732438202849,2024-11-24T08:50:02.849Z,36870,-0.093858294,-0.9813332,-0.78229296
1732438202852,2024-11-24T08:50:02.852Z,36873,-0.093858294,-0.9813332,-0.78229296
1732438202863,2024-11-24T08:50:02.863Z,36884,-0.10262187,-0.84391934,-0.6783955
1732438202867,2024-11-24T08:50:02.867Z,36888,-0.10262187,-0.84391934,-0.6783955
1732438202877,2024-11-24T08:50:02.877Z,36898,-0.1576278,-0.73319465,-0.7196402
1732438202880,2024-11-24T08:50:02.880Z,36901,-0.1576278,-0.73319465,-0.7196402
1732438202889,2024-11-24T08:50:02.889Z,36910,-0.20788722,-0.6902441,-0.81943464
1732438202892,2024-11-24T08:50:02.892Z,36913,-0.20788722,-0.6902441,-0.81943464
1732438202902,2024-11-24T08:50:02.902Z,36923,-0.2264583,-0.61541677,-0.8318487
1732438202904,2024-11-24T08:50:02.904Z,36925,-0.2264583,-0.61541677,-0.8318487
1732438202914,2024-11-24T08:50:02.914Z,36935,-0.29164937,-0.59424204,-0.77743745
1732438202917,2024-11-24T08:50:02.917Z,36938,-0.29164937,-0.59424204,-0.77743745
1732438202926,2024-11-24T08:50:02.926Z,36947,-0.25737882,-1.0756525,-0.72093153
1732438202929,2024-11-24T08:50:02.929Z,36950,-0.25737882,-1.0756525,-0.72093153
1732438202939,2024-11-24T08:50:02.939Z,36960,-0.28259,-1.0180699,-0.7373719
1732438202943,2024-11-24T08:50:02.943Z,36964,-0.28259,-1.0180699,-0.7373719
1732438202951,2024-11-24T08:50:02.951Z,36972,-0.31218466,-0.96789086,-0.75830853
1732438202954,2024-11-24T08:50:02.954Z,36975,-0.31218466,-0.96789086,-0.75830853
1732438202964,2024-11-24T08:50:02.964Z,36985,-0.44729418,-0.8171819,-0.8316468
1732438202967,2024-11-24T08:50:02.967Z,36988,-0.44729418,-0.8171819,-0.8316468
1732438202977,2024-11-24T08:50:02.977Z,36998,-0.39171052,-0.7104436,-0.8043001
1732438202980,2024-11-24T08:50:02.980Z,37001,-0.39171052,-0.7104436,-0.8043001
1732438202994,2024-11-24T08:50:02.994Z,37015,-0.33899638,-0.6795114,-0.75444347
1732438203001,2024-11-24T08:50:03.001Z,37022,-0.33899638,-0.6795114,-0.75444347
1732438203021,2024-11-24T08:50:03.021Z,37042,-0.17635405,-1.0428145,-0.77584755
1732438203027,2024-11-24T08:50:03.027Z,37048,-0.17635405,-1.0428145,-0.77584755
1732438203048,2024-11-24T08:50:03.048Z,37069,-0.18327653,-1.0002664,-0.8204052
1732438203052,2024-11-24T08:50:03.052Z,37073,-0.18327653,-1.0002664,-0.8204052
1732438203063,2024-11-24T08:50:03.063Z,37084,-0.21014735,-0.80097854,-0.7774094
1732438203067,2024-11-24T08:50:03.067Z,37088,-0.21014735,-0.80097854,-0.7774094
1732438203080,2024-11-24T08:50:03.080Z,37101,-0.25008154,-0.5035902,-0.8540525
1732438203083,2024-11-24T08:50:03.083Z,37104,-0.25008154,-0.5035902,-0.8540525
1732438203100,2024-11-24T08:50:03.100Z,37121,-0.2671359,-0.41803515,-0.86156994
1732438203104,2024-11-24T08:50:03.104Z,37125,-0.2671359,-0.41803515,-0.86156994
1732438203117,2024-11-24T08:50:03.117Z,37138,-0.21418603,-0.5786655,-0.8055334
1732438203122,2024-11-24T08:50:03.122Z,37143,-0.21418603,-0.5786655,-0.8055334
1732438203133,2024-11-24T08:50:03.133Z,37154,-0.26090404,-1.1625799,-0.7823838
1732438203136,2024-11-24T08:50:03.136Z,37157,-0.26090404,-1.1625799,-0.7823838
1732438203147,2024-11-24T08:50:03.147Z,37168,-0.2565494,-1.1578974,-0.77490497
1732438203150,2024-11-24T08:50:03.150Z,37171,-0.2565494,-1.1578974,-0.77490497
1732438203158,2024-11-24T08:50:03.158Z,37179,-0.25984952,-1.0461701,-0.74686545
1732438203162,2024-11-24T08:50:03.162Z,37183,-0.25984952,-1.0461701,-0.74686545
1732438203173,2024-11-24T08:50:03.173Z,37194,-0.21399917,-0.52508914,-0.779047
1732438203177,2024-11-24T08:50:03.177Z,37198,-0.21399917,-0.52508914,-0.779047
1732438203186,2024-11-24T08:50:03.186Z,37207,-0.18923582,-0.555106,-0.7661877
1732438203188,2024-11-24T08:50:03.188Z,37209,-0.18923582,-0.555106,-0.7661877
1732438203198,2024-11-24T08:50:03.198Z,37219,-0.1815301,-0.80182517,-0.7741145
1732438203201,2024-11-24T08:50:03.201Z,37222,-0.1815301,-0.80182517,-0.7741145
1732438203209,2024-11-24T08:50:03.209Z,37230,-0.1469086,-1.0983634,-0.7135669
1732438203213,2024-11-24T08:50:03.213Z,37234,-0.1469086,-1.0983634,-0.7135669
1732438203223,2024-11-24T08:50:03.223Z,37244,-0.1748065,-0.99969685,-0.75308496
1732438203226,2024-11-24T08:50:03.226Z,37247,-0.1748065,-0.99969685,-0.75308496
1732438203236,2024-11-24T08:50:03.236Z,37257,-0.17868294,-0.83712816,-0.76422906
1732438203240,2024-11-24T08:50:03.240Z,37261,-0.17868294,-0.83712816,-0.76422906
1732438203249,2024-11-24T08:50:03.249Z,37270,-0.11931729,-0.5793703,-0.8015386
1732438203251,2024-11-24T08:50:03.251Z,37272,-0.11931729,-0.5793703,-0.8015386
1732438203262,2024-11-24T08:50:03.262Z,37283,-0.10351642,-0.7837445,-0.8203301
1732438203265,2024-11-24T08:50:03.265Z,37286,-0.10351642,-0.7837445,-0.8203301
1732438203276,2024-11-24T08:50:03.276Z,37297,-0.08634463,-0.9525735,-0.8873151
1732438203280,2024-11-24T08:50:03.280Z,37301,-0.08634463,-0.9525735,-0.8873151
1732438203292,2024-11-24T08:50:03.292Z,37313,-0.16297439,-0.8883736,-0.6936639
1732438203295,2024-11-24T08:50:03.295Z,37316,-0.16297439,-0.8883736,-0.6936639
1732438203307,2024-11-24T08:50:03.307Z,37328,-0.14229442,-0.8583463,-0.79350233
1732438203311,2024-11-24T08:50:03.311Z,37332,-0.14229442,-0.8583463,-0.79350233
1732438203321,2024-11-24T08:50:03.321Z,37342,-0.12865147,-0.81721115,-0.833785
1732438203324,2024-11-24T08:50:03.324Z,37345,-0.12865147,-0.81721115,-0.833785
1732438203336,2024-11-24T08:50:03.336Z,37357,-0.16105826,-0.839172,-0.8922617
1732438203340,2024-11-24T08:50:03.340Z,37361,-0.16105826,-0.839172,-0.8922617
1732438203349,2024-11-24T08:50:03.349Z,37370,-0.122861125,-0.95740736,-0.8641816
1732438203351,2024-11-24T08:50:03.351Z,37372,-0.122861125,-0.95740736,-0.8641816
1732438203361,2024-11-24T08:50:03.361Z,37382,-0.059049856,-0.98182565,-0.8664171
1732438203363,2024-11-24T08:50:03.363Z,37384,-0.059049856,-0.98182565,-0.8664171
1732438203374,2024-11-24T08:50:03.374Z,37395,-0.16180725,-0.6756063,-0.7973943
1732438203377,2024-11-24T08:50:03.377Z,37398,-0.16180725,-0.6756063,-0.7973943
1732438203386,2024-11-24T08:50:03.386Z,37407,-0.10640858,-0.8289151,-0.81959885
1732438203391,2024-11-24T08:50:03.391Z,37412,-0.10640858,-0.8289151,-0.81959885
1732438203400,2024-11-24T08:50:03.400Z,37421,-0.032714497,-0.9788242,-0.77857393
1732438203403,2024-11-24T08:50:03.403Z,37424,-0.032714497,-0.9788242,-0.77857393
1732438203412,2024-11-24T08:50:03.412Z,37433,-0.12350133,-0.8694416,-0.79113185
1732438203417,2024-11-24T08:50:03.417Z,37438,-0.12350133,-0.8694416,-0.79113185
1732438203426,2024-11-24T08:50:03.426Z,37447,-0.066144355,-0.82214,-0.8528364
1732438203429,2024-11-24T08:50:03.429Z,37450,-0.066144355,-0.82214,-0.8528364
1732438203437,2024-11-24T08:50:03.437Z,37458,-0.04722687,-0.80215156,-0.84205824
1732438203440,2024-11-24T08:50:03.440Z,37461,-0.04722687,-0.80215156,-0.84205824
1732438203454,2024-11-24T08:50:03.454Z,37475,-0.06617809,-0.8435331,-0.7543797
1732438203461,2024-11-24T08:50:03.461Z,37482,-0.06617809,-0.8435331,-0.7543797
1732438203482,2024-11-24T08:50:03.482Z,37503,-0.06959579,-0.86417973,-0.7543121
1732438203488,2024-11-24T08:50:03.488Z,37509,-0.06959579,-0.86417973,-0.7543121
1732438203502,2024-11-24T08:50:03.502Z,37523,-0.0574438,-0.88092136,-0.7433378
1732438203505,2024-11-24T08:50:03.505Z,37526,-0.0574438,-0.88092136,-0.7433378
1732438203518,2024-11-24T08:50:03.518Z,37539,-0.016186895,-0.75554633,-0.8379219
1732438203521,2024-11-24T08:50:03.521Z,37542,-0.016186895,-0.75554633,-0.8379219
1732438203533,2024-11-24T08:50:03.533Z,37554,-0.038956694,-0.79668945,-0.78831524
1732438203536,2024-11-24T08:50:03.536Z,37557,-0.038956694,-0.79668945,-0.78831524
1732438203549,2024-11-24T08:50:03.549Z,37570,-0.06841274,-0.8736969,-0.72835267
1732438203552,2024-11-24T08:50:03.552Z,37573,-0.06841274,-0.8736969,-0.72835267
1732438203562,2024-11-24T08:50:03.562Z,37583,0.05337098,-0.9056113,-0.73571336
1732438203564,2024-11-24T08:50:03.564Z,37585,0.05337098,-0.9056113,-0.73571336
1732438203580,2024-11-24T08:50:03.580Z,37601,0.0026190632,-0.8698952,-0.7123943
1732438203583,2024-11-24T08:50:03.583Z,37604,0.0026190632,-0.8698952,-0.7123943
1732438203593,2024-11-24T08:50:03.593Z,37614,-0.09072543,-0.808198,-0.81006366
1732438203597,2024-11-24T08:50:03.597Z,37618,-0.09072543,-0.808198,-0.81006366
1732438203607,2024-11-24T08:50:03.607Z,37628,-0.045534357,-0.8847464,-0.75341976
1732438203610,2024-11-24T08:50:03.610Z,37631,-0.045534357,-0.8847464,-0.75341976
1732438203619,2024-11-24T08:50:03.619Z,37640,0.052237596,-0.90376645,-0.71949565
1732438203621,2024-11-24T08:50:03.621Z,37642,0.052237596,-0.90376645,-0.71949565
1732438203630,2024-11-24T08:50:03.630Z,37651,0.081737384,-0.9346357,-0.6922969
1732438203633,2024-11-24T08:50:03.633Z,37654,0.081737384,-0.9346357,-0.6922969
1732438203640,2024-11-24T08:50:03.640Z,37661,0.034093786,-0.84228045,-0.7483624
1732438203643,2024-11-24T08:50:03.643Z,37664,0.034093786,-0.84228045,-0.7483624
1732438203652,2024-11-24T08:50:03.652Z,37673,0.029475454,-0.8365695,-0.7938617
1732438203654,2024-11-24T08:50:03.654Z,37675,0.029475454,-0.8365695,-0.7938617
1732438203666,2024-11-24T08:50:03.666Z,37687,0.039901394,-0.84617865,-0.7831631
1732438203668,2024-11-24T08:50:03.668Z,37689,0.039901394,-0.84617865,-0.7831631
1732438203677,2024-11-24T08:50:03.677Z,37698,0.020713897,-0.80476004,-0.7765304
1732438203680,2024-11-24T08:50:03.680Z,37701,0.020713897,-0.80476004,-0.7765304
1732438203688,2024-11-24T08:50:03.688Z,37709,0.05081378,-0.8518361,-0.7667573
1732438203690,2024-11-24T08:50:03.690Z,37711,0.05081378,-0.8518361,-0.7667573
1732438203699,2024-11-24T08:50:03.699Z,37720,0.14699931,-0.89781713,-0.7661952
1732438203702,2024-11-24T08:50:03.702Z,37723,0.14699931,-0.89781713,-0.7661952
1732438203712,2024-11-24T08:50:03.712Z,37733,0.115850426,-0.84825367,-0.8138968
1732438203716,2024-11-24T08:50:03.716Z,37737,0.115850426,-0.84825367,-0.8138968
1732438203724,2024-11-24T08:50:03.724Z,37745,0.05322522,-0.8080678,-0.81735635
1732438203728,2024-11-24T08:50:03.728Z,37749,0.05322522,-0.8080678,-0.81735635
1732438203736,2024-11-24T08:50:03.736Z,37757,0.055053182,-0.81602174,-0.82170236
1732438203739,2024-11-24T08:50:03.739Z,37760,0.055053182,-0.81602174,-0.82170236
1732438203747,2024-11-24T08:50:03.747Z,37768,0.17636293,-0.8879307,-0.77022994
1732438203750,2024-11-24T08:50:03.750Z,37771,0.17636293,-0.8879307,-0.77022994
1732438203761,2024-11-24T08:50:03.761Z,37782,0.20653479,-0.8631145,-0.78732735
1732438203764,2024-11-24T08:50:03.764Z,37785,0.20653479,-0.8631145,-0.78732735
1732438203773,2024-11-24T08:50:03.773Z,37794,0.1460911,-0.8383459,-0.8098069
1732438203776,2024-11-24T08:50:03.776Z,37797,0.1460911,-0.8383459,-0.8098069
1732438203787,2024-11-24T08:50:03.787Z,37808,0.10240452,-0.87042123,-0.81269664
1732438203796,2024-11-24T08:50:03.796Z,37817,0.10240452,-0.87042123,-0.81269664
1732438203814,2024-11-24T08:50:03.814Z,37835,0.114722535,-0.91402483,-0.8260251
1732438203820,2024-11-24T08:50:03.820Z,37841,0.114722535,-0.91402483,-0.8260251
1732438203841,2024-11-24T08:50:03.841Z,37862,0.14553168,-0.9290609,-0.7788127
1732438203847,2024-11-24T08:50:03.847Z,37868,0.14553168,-0.9290609,-0.7788127
1732438203864,2024-11-24T08:50:03.864Z,37885,0.11226687,-0.8459852,-0.756326
1732438203868,2024-11-24T08:50:03.868Z,37889,0.11226687,-0.8459852,-0.756326
1732438203880,2024-11-24T08:50:03.880Z,37901,0.09937573,-0.81092465,-0.78296477
1732438203884,2024-11-24T08:50:03.884Z,37905,0.09937573,-0.81092465,-0.78296477
1732438203896,2024-11-24T08:50:03.896Z,37917,0.1151775,-0.8143954,-0.76751477
1732438203899,2024-11-24T08:50:03.899Z,37920,0.1151775,-0.8143954,-0.76751477
1732438203911,2024-11-24T08:50:03.911Z,37932,0.14815012,-0.8572267,-0.8314143
1732438203914,2024-11-24T08:50:03.914Z,37935,0.14815012,-0.8572267,-0.8314143
1732438203922,2024-11-24T08:50:03.922Z,37943,0.114064224,-0.8401221,-0.8237048
1732438203925,2024-11-24T08:50:03.925Z,37946,0.114064224,-0.8401221,-0.8237048
1732438203934,2024-11-24T08:50:03.934Z,37955,0.1403731,-0.8472892,-0.80518687
1732438203937,2024-11-24T08:50:03.937Z,37958,0.1403731,-0.8472892,-0.80518687
1732438203944,2024-11-24T08:50:03.944Z,37965,0.13864867,-0.8893108,-0.72466034
1732438203947,2024-11-24T08:50:03.947Z,37968,0.13864867,-0.8893108,-0.72466034
1732438203954,2024-11-24T08:50:03.954Z,37975,0.15011105,-0.88002294,-0.76378226
1732438203957,2024-11-24T08:50:03.957Z,37978,0.15011105,-0.88002294,-0.76378226
1732438203965,2024-11-24T08:50:03.965Z,37986,0.16952398,-0.87758166,-0.8263527
1732438203968,2024-11-24T08:50:03.968Z,37989,0.16952398,-0.87758166,-0.8263527
1732438203981,2024-11-24T08:50:03.981Z,38002,0.12791526,-0.81652224,-0.85334975
1732438203986,2024-11-24T08:50:03.986Z,38007,0.12791526,-0.81652224,-0.85334975
1732438204004,2024-11-24T08:50:04.004Z,38025,0.12383744,-0.82474095,-0.84360427
1732438204010,2024-11-24T08:50:04.010Z,38031,0.12383744,-0.82474095,-0.84360427
1732438204023,2024-11-24T08:50:04.023Z,38044,0.11991176,-0.8444876,-0.7913388
1732438204027,2024-11-24T08:50:04.027Z,38048,0.11991176,-0.8444876,-0.7913388
1732438204040,2024-11-24T08:50:04.040Z,38061,0.1326369,-0.8909582,-0.75210804
1732438204043,2024-11-24T08:50:04.043Z,38064,0.1326369,-0.8909582,-0.75210804
1732438204060,2024-11-24T08:50:04.060Z,38081,0.15568043,-0.87629944,-0.7847899
1732438204063,2024-11-24T08:50:04.063Z,38084,0.15568043,-0.87629944,-0.7847899
1732438204072,2024-11-24T08:50:04.072Z,38093,0.16686969,-0.90815175,-0.77401185
1732438204075,2024-11-24T08:50:04.075Z,38096,0.16686969,-0.90815175,-0.77401185
1732438204086,2024-11-24T08:50:04.086Z,38107,0.1884854,-0.8606884,-0.7568288
1732438204091,2024-11-24T08:50:04.091Z,38112,0.1884854,-0.8606884,-0.7568288
1732438204108,2024-11-24T08:50:04.108Z,38129,0.15858594,-0.84143245,-0.7621254
1732438204116,2024-11-24T08:50:04.116Z,38137,0.15858594,-0.84143245,-0.7621254
1732438204133,2024-11-24T08:50:04.133Z,38154,0.123089395,-0.8211989,-0.7965809
1732438204139,2024-11-24T08:50:04.139Z,38160,0.123089395,-0.8211989,-0.7965809
1732438204156,2024-11-24T08:50:04.156Z,38177,0.18930362,-0.85436743,-0.7731786
1732438204163,2024-11-24T08:50:04.163Z,38184,0.18930362,-0.85436743,-0.7731786
1732438204182,2024-11-24T08:50:04.182Z,38203,0.28328717,-0.94398785,-0.7384859
1732438204189,2024-11-24T08:50:04.189Z,38210,0.28328717,-0.94398785,-0.7384859
1732438204208,2024-11-24T08:50:04.208Z,38229,0.15714288,-0.9187173,-0.7121084
1732438204213,2024-11-24T08:50:04.213Z,38234,0.15714288,-0.9187173,-0.7121084
1732438204225,2024-11-24T08:50:04.225Z,38246,0.039878845,-0.76102716,-0.8497229
1732438204229,2024-11-24T08:50:04.229Z,38250,0.039878845,-0.76102716,-0.8497229
1732438204241,2024-11-24T08:50:04.241Z,38262,-0.013236569,-0.7491294,-0.8508342
1732438204245,2024-11-24T08:50:04.245Z,38266,-0.013236569,-0.7491294,-0.8508342
1732438204256,2024-11-24T08:50:04.256Z,38277,0.034874015,-0.7110991,-0.8395693
1732438204259,2024-11-24T08:50:04.259Z,38280,0.034874015,-0.7110991,-0.8395693
1732438204273,2024-11-24T08:50:04.273Z,38294,-0.011045311,-0.84950227,-0.75461584
1732438204281,2024-11-24T08:50:04.281Z,38302,-0.011045311,-0.84950227,-0.75461584
1732438204302,2024-11-24T08:50:04.302Z,38323,-0.073940635,-0.750383,-0.7143369
1732438204309,2024-11-24T08:50:04.309Z,38330,-0.073940635,-0.750383,-0.7143369
1732438204323,2024-11-24T08:50:04.323Z,38344,-0.020109527,-0.7400963,-0.752779
1732438204327,2024-11-24T08:50:04.327Z,38348,-0.020109527,-0.7400963,-0.752779
1732438204339,2024-11-24T08:50:04.339Z,38360,0.14857528,-0.78763777,-0.87840426
1732438204343,2024-11-24T08:50:04.343Z,38364,0.14857528,-0.78763777,-0.87840426
1732438204354,2024-11-24T08:50:04.354Z,38375,0.03446712,-0.7657155,-0.88756454
1732438204357,2024-11-24T08:50:04.357Z,38378,0.03446712,-0.7657155,-0.88756454
1732438204367,2024-11-24T08:50:04.367Z,38388,-0.14168774,-0.7222848,-0.82829595
1732438204370,2024-11-24T08:50:04.370Z,38391,-0.14168774,-0.7222848,-0.82829595
1732438204379,2024-11-24T08:50:04.379Z,38400,0.0140097,-0.799414,-0.8118509
1732438204382,2024-11-24T08:50:04.382Z,38403,0.0140097,-0.799414,-0.8118509
1732438204390,2024-11-24T08:50:04.390Z,38411,-0.02903908,-0.7758278,-0.83125705
1732438204393,2024-11-24T08:50:04.393Z,38414,-0.02903908,-0.7758278,-0.83125705
1732438204401,2024-11-24T08:50:04.401Z,38422,-0.13141093,-0.7053755,-0.84277487
1732438204404,2024-11-24T08:50:04.404Z,38425,-0.13141093,-0.7053755,-0.84277487
1732438204412,2024-11-24T08:50:04.412Z,38433,-0.019000696,-0.65158546,-0.9104414
1732438204415,2024-11-24T08:50:04.415Z,38436,-0.019000696,-0.65158546,-0.9104414
1732438204424,2024-11-24T08:50:04.424Z,38445,-0.05666454,-0.6000952,-0.8839401
1732438204426,2024-11-24T08:50:04.426Z,38447,-0.05666454,-0.6000952,-0.8839401
1732438204435,2024-11-24T08:50:04.435Z,38456,-0.13543105,-0.5851131,-0.92276394
1732438204437,2024-11-24T08:50:04.437Z,38458,-0.13543105,-0.5851131,-0.92276394
1732438204445,2024-11-24T08:50:04.445Z,38466,-0.14763986,-0.65104836,-0.99337393
1732438204448,2024-11-24T08:50:04.448Z,38469,-0.14763986,-0.65104836,-0.99337393
1732438204457,2024-11-24T08:50:04.457Z,38478,-0.10496977,-0.6501348,-1.004585
1732438204460,2024-11-24T08:50:04.460Z,38481,-0.10496977,-0.6501348,-1.004585
1732438204469,2024-11-24T08:50:04.469Z,38490,-0.11720177,-0.64516085,-0.9220575
1732438204472,2024-11-24T08:50:04.472Z,38493,-0.11720177,-0.64516085,-0.9220575
1732438204482,2024-11-24T08:50:04.482Z,38503,-0.21778929,-0.58307916,-0.9540487
1732438204485,2024-11-24T08:50:04.485Z,38506,-0.21778929,-0.58307916,-0.9540487
1732438204494,2024-11-24T08:50:04.494Z,38515,-0.38472274,-0.5840187,-1.0374178
1732438204497,2024-11-24T08:50:04.497Z,38518,-0.38472274,-0.5840187,-1.0374178
1732438204505,2024-11-24T08:50:04.505Z,38526,-0.30345643,-0.5947216,-1.0347008
1732438204508,2024-11-24T08:50:04.508Z,38529,-0.30345643,-0.5947216,-1.0347008
1732438204517,2024-11-24T08:50:04.517Z,38538,-0.04676229,-0.68909615,-0.85347617
1732438204519,2024-11-24T08:50:04.519Z,38540,-0.04676229,-0.68909615,-0.85347617
1732438204527,2024-11-24T08:50:04.527Z,38548,-0.16269253,-0.7108019,-0.79805154
1732438204530,2024-11-24T08:50:04.530Z,38551,-0.16269253,-0.7108019,-0.79805154
1732438204539,2024-11-24T08:50:04.539Z,38560,-0.18569517,-0.69799054,-0.9092185
1732438204541,2024-11-24T08:50:04.541Z,38562,-0.18569517,-0.69799054,-0.9092185
1732438204560,2024-11-24T08:50:04.560Z,38581,-0.19930197,-0.57713115,-0.93082917
1732438204564,2024-11-24T08:50:04.564Z,38585,-0.19930197,-0.57713115,-0.93082917
1732438204576,2024-11-24T08:50:04.576Z,38597,-0.2001968,-0.5809536,-0.8389373
1732438204579,2024-11-24T08:50:04.579Z,38600,-0.2001968,-0.5809536,-0.8389373
1732438204588,2024-11-24T08:50:04.588Z,38609,-0.1396819,-0.7112216,-0.8184672
1732438204591,2024-11-24T08:50:04.591Z,38612,-0.1396819,-0.7112216,-0.8184672
1732438204601,2024-11-24T08:50:04.601Z,38622,-0.11705339,-0.9191111,-0.87191224
1732438204605,2024-11-24T08:50:04.605Z,38626,-0.11705339,-0.9191111,-0.87191224
1732438204617,2024-11-24T08:50:04.617Z,38638,-0.14786755,-0.70246756,-0.94290054
1732438204642,2024-11-24T08:50:04.642Z,38663,-0.14786755,-0.70246756,-0.94290054
1732438204663,2024-11-24T08:50:04.663Z,38684,-0.2055179,-0.50213283,-0.96427315
1732438204666,2024-11-24T08:50:04.666Z,38687,-0.2055179,-0.50213283,-0.96427315
1732438204676,2024-11-24T08:50:04.676Z,38697,-0.20858319,-0.55663437,-0.7931639
1732438204680,2024-11-24T08:50:04.680Z,38701,-0.20858319,-0.55663437,-0.7931639
1732438204690,2024-11-24T08:50:04.690Z,38711,-0.22405215,-0.6722278,-0.73261577
1732438204693,2024-11-24T08:50:04.693Z,38714,-0.22405215,-0.6722278,-0.73261577
1732438204704,2024-11-24T08:50:04.704Z,38725,-0.16335955,-0.8103907,-0.799167
1732438204706,2024-11-24T08:50:04.706Z,38727,-0.16335955,-0.8103907,-0.799167
1732438204715,2024-11-24T08:50:04.715Z,38736,-0.15612519,-0.7995638,-0.7509414
1732438204718,2024-11-24T08:50:04.718Z,38739,-0.15612519,-0.7995638,-0.7509414
1732438204726,2024-11-24T08:50:04.726Z,38747,-0.2891204,-0.6652806,-0.8335051
1732438204732,2024-11-24T08:50:04.732Z,38753,-0.2891204,-0.6652806,-0.8335051
1732438204739,2024-11-24T08:50:04.739Z,38760,-0.3147495,-0.60059744,-0.90461767
1732438204741,2024-11-24T08:50:04.741Z,38762,-0.3147495,-0.60059744,-0.90461767
1732438204749,2024-11-24T08:50:04.749Z,38770,-0.2566419,-0.6158494,-0.85986924
1732438204751,2024-11-24T08:50:04.751Z,38772,-0.2566419,-0.6158494,-0.85986924
1732438204759,2024-11-24T08:50:04.759Z,38780,-0.19112287,-0.81032115,-0.7275722
1732438204761,2024-11-24T08:50:04.761Z,38782,-0.19112287,-0.81032115,-0.7275722
1732438204769,2024-11-24T08:50:04.769Z,38790,-0.18129946,-0.86884844,-0.78745294
1732438204772,2024-11-24T08:50:04.772Z,38793,-0.18129946,-0.86884844,-0.78745294
1732438204780,2024-11-24T08:50:04.780Z,38801,-0.35130575,-0.65016705,-0.84464103
1732438204783,2024-11-24T08:50:04.783Z,38804,-0.35130575,-0.65016705,-0.84464103
1732438204792,2024-11-24T08:50:04.792Z,38813,-0.23439214,-0.7338698,-0.791948
1732438204795,2024-11-24T08:50:04.795Z,38816,-0.23439214,-0.7338698,-0.791948
1732438204804,2024-11-24T08:50:04.804Z,38825,-0.39090025,-0.75591856,-0.8011047
1732438204808,2024-11-24T08:50:04.808Z,38829,-0.39090025,-0.75591856,-0.8011047
1732438204818,2024-11-24T08:50:04.818Z,38839,-0.35997126,-0.82165927,-0.7114427
1732438204820,2024-11-24T08:50:04.820Z,38841,-0.35997126,-0.82165927,-0.7114427
1732438204829,2024-11-24T08:50:04.829Z,38850,-0.34534797,-0.7910316,-0.791295
1732438204832,2024-11-24T08:50:04.832Z,38853,-0.34534797,-0.7910316,-0.791295
1732438204841,2024-11-24T08:50:04.841Z,38862,-0.20093495,-0.8908004,-0.7079055
1732438204843,2024-11-24T08:50:04.843Z,38864,-0.20093495,-0.8908004,-0.7079055
1732438204853,2024-11-24T08:50:04.853Z,38874,-0.19189294,-1.0121914,-0.65926003
1732438204855,2024-11-24T08:50:04.855Z,38876,-0.19189294,-1.0121914,-0.65926003
1732438204862,2024-11-24T08:50:04.862Z,38883,-0.22160894,-0.9248412,-0.6105334
1732438204865,2024-11-24T08:50:04.865Z,38886,-0.22160894,-0.9248412,-0.6105334
1732438204878,2024-11-24T08:50:04.878Z,38899,-0.29801133,-0.78514886,-0.67686474
1732438204880,2024-11-24T08:50:04.880Z,38901,-0.29801133,-0.78514886,-0.67686474
1732438204888,2024-11-24T08:50:04.888Z,38909,-0.2693678,-0.77995473,-0.7002821
1732438204890,2024-11-24T08:50:04.890Z,38911,-0.2693678,-0.77995473,-0.7002821
1732438204898,2024-11-24T08:50:04.898Z,38919,-0.34129655,-0.8855654,-0.75340724
1732438204900,2024-11-24T08:50:04.900Z,38921,-0.34129655,-0.8855654,-0.75340724
1732438204908,2024-11-24T08:50:04.908Z,38929,-0.079437815,-0.94834375,-0.66617924
1732438204911,2024-11-24T08:50:04.911Z,38932,-0.079437815,-0.94834375,-0.66617924
1732438204920,2024-11-24T08:50:04.920Z,38941,-0.038511943,-0.9063664,-0.5952967
1732438204922,2024-11-24T08:50:04.922Z,38943,-0.038511943,-0.9063664,-0.5952967
1732438204930,2024-11-24T08:50:04.930Z,38951,-0.067249686,-0.90282816,-0.6372607
1732438204933,2024-11-24T08:50:04.933Z,38954,-0.067249686,-0.90282816,-0.6372607
1732438204940,2024-11-24T08:50:04.940Z,38961,-0.27740756,-1.2021269,-0.85121167
1732438204942,2024-11-24T08:50:04.942Z,38963,-0.27740756,-1.2021269,-0.85121167
1732438204953,2024-11-24T08:50:04.953Z,38974,-0.10406653,-1.1897688,-0.7508571
1732438204955,2024-11-24T08:50:04.955Z,38976,-0.10406653,-1.1897688,-0.7508571
1732438204963,2024-11-24T08:50:04.963Z,38984,0.06744455,-1.0568328,-0.4348634
1732438204966,2024-11-24T08:50:04.966Z,38987,0.06744455,-1.0568328,-0.4348634
1732438204975,2024-11-24T08:50:04.975Z,38996,-0.03206916,-0.8160191,-0.6478529
1732438204979,2024-11-24T08:50:04.979Z,39000,-0.03206916,-0.8160191,-0.6478529
1732438204990,2024-11-24T08:50:04.990Z,39011,-0.11956892,-0.81980884,-0.7552164
1732438204994,2024-11-24T08:50:04.994Z,39015,-0.11956892,-0.81980884,-0.7552164
1732438205006,2024-11-24T08:50:05.006Z,39027,-0.14126822,-0.92909193,-0.9045958
1732438205008,2024-11-24T08:50:05.008Z,39029,-0.14126822,-0.92909193,-0.9045958
1732438205016,2024-11-24T08:50:05.016Z,39037,0.26116294,-1.0468798,-0.47257107
1732438205019,2024-11-24T08:50:05.019Z,39040,0.26116294,-1.0468798,-0.47257107
1732438205027,2024-11-24T08:50:05.027Z,39048,-0.03779936,-0.93435955,-0.6741654
1732438205031,2024-11-24T08:50:05.031Z,39052,-0.03779936,-0.93435955,-0.6741654
1732438205038,2024-11-24T08:50:05.038Z,39059,-0.11216608,-0.9538505,-0.7967656
1732438205040,2024-11-24T08:50:05.040Z,39061,-0.11216608,-0.9538505,-0.7967656
1732438205047,2024-11-24T08:50:05.047Z,39068,0.056553144,-1.0285825,-0.70198977
1732438205050,2024-11-24T08:50:05.050Z,39071,0.056553144,-1.0285825,-0.70198977
1732438205060,2024-11-24T08:50:05.060Z,39081,0.07442936,-1.1664339,-0.6456764
1732438205063,2024-11-24T08:50:05.063Z,39084,0.07442936,-1.1664339,-0.6456764
1732438205072,2024-11-24T08:50:05.072Z,39093,0.070323035,-1.2631694,-0.5357537
1732438205074,2024-11-24T08:50:05.074Z,39095,0.070323035,-1.2631694,-0.5357537
1732438205087,2024-11-24T08:50:05.087Z,39108,0.21027315,-1.0549877,-0.48373565
1732438205094,2024-11-24T08:50:05.094Z,39115,0.21027315,-1.0549877,-0.48373565
1732438205113,2024-11-24T08:50:05.113Z,39134,-0.099107005,-1.2553661,-0.6646676
1732438205118,2024-11-24T08:50:05.118Z,39139,-0.099107005,-1.2553661,-0.6646676
1732438205135,2024-11-24T08:50:05.135Z,39156,-0.14814715,-1.4661881,-0.63432664
1732438205138,2024-11-24T08:50:05.138Z,39159,-0.14814715,-1.4661881,-0.63432664
1732438205148,2024-11-24T08:50:05.148Z,39169,0.291787,-1.1392225,-0.45104307
1732438205151,2024-11-24T08:50:05.151Z,39172,0.291787,-1.1392225,-0.45104307
1732438205161,2024-11-24T08:50:05.161Z,39182,0.27892655,-0.99579376,-0.293764
1732438205164,2024-11-24T08:50:05.164Z,39185,0.27892655,-0.99579376,-0.293764
1732438205172,2024-11-24T08:50:05.172Z,39193,0.16636135,-1.0430831,-0.559816
1732438205175,2024-11-24T08:50:05.175Z,39196,0.16636135,-1.0430831,-0.559816
1732438205184,2024-11-24T08:50:05.184Z,39205,-0.117161654,-1.2750576,-0.5954927
1732438205186,2024-11-24T08:50:05.186Z,39207,-0.117161654,-1.2750576,-0.5954927
1732438205194,2024-11-24T08:50:05.194Z,39215,0.13349892,-1.2910538,-0.5225167
1732438205197,2024-11-24T08:50:05.197Z,39218,0.13349892,-1.2910538,-0.5225167
1732438205205,2024-11-24T08:50:05.205Z,39226,0.29615012,-1.3104959,-0.4473924
1732438205208,2024-11-24T08:50:05.208Z,39229,0.29615012,-1.3104959,-0.4473924
1732438205216,2024-11-24T08:50:05.216Z,39237,-0.026951669,-0.8102364,-0.59828013
1732438205219,2024-11-24T08:50:05.219Z,39240,-0.026951669,-0.8102364,-0.59828013
1732438205229,2024-11-24T08:50:05.229Z,39250,0.036773298,-0.89977473,-0.5975013
1732438205232,2024-11-24T08:50:05.232Z,39253,0.036773298,-0.89977473,-0.5975013
1732438205240,2024-11-24T08:50:05.240Z,39261,0.18305202,-1.0647154,-0.54696083
1732438205242,2024-11-24T08:50:05.242Z,39263,0.18305202,-1.0647154,-0.54696083
1732438205250,2024-11-24T08:50:05.250Z,39271,0.18162005,-1.2323573,-0.4975774
1732438205252,2024-11-24T08:50:05.252Z,39273,0.18162005,-1.2323573,-0.4975774
1732438205261,2024-11-24T08:50:05.261Z,39282,0.09259147,-1.0650514,-0.47821987
1732438205264,2024-11-24T08:50:05.264Z,39285,0.09259147,-1.0650514,-0.47821987
1732438205273,2024-11-24T08:50:05.273Z,39294,0.025841197,-0.8946412,-0.5307488
1732438205275,2024-11-24T08:50:05.275Z,39296,0.025841197,-0.8946412,-0.5307488
1732438205283,2024-11-24T08:50:05.283Z,39304,0.13888177,-1.0087206,-0.49557003
1732438205286,2024-11-24T08:50:05.286Z,39307,0.13888177,-1.0087206,-0.49557003
1732438205295,2024-11-24T08:50:05.295Z,39316,0.16855125,-1.0262122,-0.46144703
1732438205298,2024-11-24T08:50:05.298Z,39319,0.16855125,-1.0262122,-0.46144703
1732438205306,2024-11-24T08:50:05.306Z,39327,0.10088062,-1.035716,-0.47088748
1732438205308,2024-11-24T08:50:05.308Z,39329,0.10088062,-1.035716,-0.47088748
1732438205316,2024-11-24T08:50:05.316Z,39337,0.049413607,-1.1326004,-0.57771796
1732438205318,2024-11-24T08:50:05.318Z,39339,0.049413607,-1.1326004,-0.57771796
1732438205325,2024-11-24T08:50:05.325Z,39346,0.056807205,-1.0988884,-0.5161425
1732438205327,2024-11-24T08:50:05.327Z,39348,0.056807205,-1.0988884,-0.5161425
1732438205336,2024-11-24T08:50:05.336Z,39357,0.11017317,-0.98119825,-0.56669056
1732438205339,2024-11-24T08:50:05.339Z,39360,0.11017317,-0.98119825,-0.56669056
1732438205348,2024-11-24T08:50:05.348Z,39369,0.060520753,-0.8861667,-0.5244549
1732438205351,2024-11-24T08:50:05.351Z,39372,0.060520753,-0.8861667,-0.5244549
1732438205359,2024-11-24T08:50:05.359Z,39380,0.07524953,-1.0251142,-0.61422485
1732438205362,2024-11-24T08:50:05.362Z,39383,0.07524953,-1.0251142,-0.61422485
1732438205371,2024-11-24T08:50:05.371Z,39392,0.10594178,-1.1250962,-0.6180097
1732438205373,2024-11-24T08:50:05.373Z,39394,0.10594178,-1.1250962,-0.6180097
1732438205380,2024-11-24T08:50:05.380Z,39401,0.12092933,-1.1227472,-0.6390757
1732438205383,2024-11-24T08:50:05.383Z,39404,0.12092933,-1.1227472,-0.6390757
1732438205391,2024-11-24T08:50:05.391Z,39412,0.005011904,-0.9315454,-0.50482595
1732438205395,2024-11-24T08:50:05.395Z,39416,0.005011904,-0.9315454,-0.50482595
1732438205404,2024-11-24T08:50:05.404Z,39425,0.032077353,-0.91683286,-0.47062364
1732438205406,2024-11-24T08:50:05.406Z,39427,0.032077353,-0.91683286,-0.47062364
1732438205416,2024-11-24T08:50:05.416Z,39437,0.022157721,-0.9593785,-0.49319008
1732438205419,2024-11-24T08:50:05.419Z,39440,0.022157721,-0.9593785,-0.49319008
1732438205427,2024-11-24T08:50:05.427Z,39448,0.08708392,-1.1255013,-0.60048425
1732438205429,2024-11-24T08:50:05.429Z,39450,0.08708392,-1.1255013,-0.60048425
1732438205437,2024-11-24T08:50:05.437Z,39458,0.035874635,-1.0806428,-0.66859514
1732438205440,2024-11-24T08:50:05.440Z,39461,0.035874635,-1.0806428,-0.66859514
1732438205447,2024-11-24T08:50:05.447Z,39468,0.030711388,-1.0060774,-0.66371673
1732438205450,2024-11-24T08:50:05.450Z,39471,0.030711388,-1.0060774,-0.66371673
1732438205472,2024-11-24T08:50:05.472Z,39493,0.070846714,-1.0473399,-0.55625236
1732438205479,2024-11-24T08:50:05.479Z,39500,0.070846714,-1.0473399,-0.55625236
1732438205496,2024-11-24T08:50:05.496Z,39517,0.04855734,-1.0149331,-0.5365425
1732438205501,2024-11-24T08:50:05.501Z,39522,0.04855734,-1.0149331,-0.5365425
1732438205515,2024-11-24T08:50:05.515Z,39536,0.08115392,-1.0074364,-0.5735986
1732438205518,2024-11-24T08:50:05.518Z,39539,0.08115392,-1.0074364,-0.5735986
1732438205528,2024-11-24T08:50:05.528Z,39549,0.045426354,-1.0987331,-0.58200973
1732438205531,2024-11-24T08:50:05.531Z,39552,0.045426354,-1.0987331,-0.58200973
1732438205543,2024-11-24T08:50:05.543Z,39564,0.026299963,-1.108226,-0.55568874
1732438205550,2024-11-24T08:50:05.550Z,39571,0.026299963,-1.108226,-0.55568874
1732438205568,2024-11-24T08:50:05.568Z,39589,0.021078661,-1.0407728,-0.46805903
1732438205575,2024-11-24T08:50:05.575Z,39596,0.021078661,-1.0407728,-0.46805903
1732438205596,2024-11-24T08:50:05.596Z,39617,0.17308304,-1.1364275,-0.4772501
1732438205600,2024-11-24T08:50:05.600Z,39621,0.17308304,-1.1364275,-0.4772501
1732438205613,2024-11-24T08:50:05.613Z,39634,0.15952547,-1.0879637,-0.4453988
1732438205616,2024-11-24T08:50:05.616Z,39637,0.15952547,-1.0879637,-0.4453988
1732438205627,2024-11-24T08:50:05.627Z,39648,0.11163053,-1.0259688,-0.4812187
1732438205630,2024-11-24T08:50:05.630Z,39651,0.11163053,-1.0259688,-0.4812187
1732438205641,2024-11-24T08:50:05.641Z,39662,0.018341161,-0.99204063,-0.54300743
1732438205646,2024-11-24T08:50:05.646Z,39667,0.018341161,-0.99204063,-0.54300743
1732438205658,2024-11-24T08:50:05.658Z,39679,0.052489843,-1.0653583,-0.54936904
1732438205661,2024-11-24T08:50:05.661Z,39682,0.052489843,-1.0653583,-0.54936904
1732438205672,2024-11-24T08:50:05.672Z,39693,0.046332434,-1.1864475,-0.574717
1732438205675,2024-11-24T08:50:05.675Z,39696,0.046332434,-1.1864475,-0.574717
1732438205688,2024-11-24T08:50:05.688Z,39709,0.11530567,-1.0061772,-0.49147686
1732438205691,2024-11-24T08:50:05.691Z,39712,0.11530567,-1.0061772,-0.49147686
1732438205701,2024-11-24T08:50:05.701Z,39722,0.1056259,-0.9185481,-0.47045735
1732438205704,2024-11-24T08:50:05.704Z,39725,0.1056259,-0.9185481,-0.47045735
1732438205713,2024-11-24T08:50:05.713Z,39734,0.09041448,-0.9718783,-0.47257212
1732438205716,2024-11-24T08:50:05.716Z,39737,0.09041448,-0.9718783,-0.47257212
1732438205724,2024-11-24T08:50:05.724Z,39745,0.052558426,-1.159859,-0.4448523
1732438205727,2024-11-24T08:50:05.727Z,39748,0.052558426,-1.159859,-0.4448523
1732438205735,2024-11-24T08:50:05.735Z,39756,-0.0073622353,-1.1971409,-0.53884625
1732438205737,2024-11-24T08:50:05.737Z,39758,-0.0073622353,-1.1971409,-0.53884625
1732438205744,2024-11-24T08:50:05.744Z,39765,0.045207325,-1.1789273,-0.52809167
1732438205746,2024-11-24T08:50:05.746Z,39767,0.045207325,-1.1789273,-0.52809167
1732438205754,2024-11-24T08:50:05.754Z,39775,0.102866106,-0.9093814,-0.3642301
1732438205756,2024-11-24T08:50:05.756Z,39777,0.102866106,-0.9093814,-0.3642301
1732438205764,2024-11-24T08:50:05.764Z,39785,0.108002774,-0.9647553,-0.42527223
1732438205766,2024-11-24T08:50:05.766Z,39787,0.108002774,-0.9647553,-0.42527223
1732438205776,2024-11-24T08:50:05.776Z,39797,0.031044144,-1.1347051,-0.62067693
1732438205779,2024-11-24T08:50:05.779Z,39800,0.031044144,-1.1347051,-0.62067693
1732438205827,2024-11-24T08:50:05.827Z,39848,-0.026896043,-1.2167414,-0.68895185
1732438205830,2024-11-24T08:50:05.830Z,39851,-0.026896043,-1.2167414,-0.68895185
1732438205842,2024-11-24T08:50:05.842Z,39863,0.1621275,-1.0824444,-0.564421
1732438205845,2024-11-24T08:50:05.845Z,39866,0.1621275,-1.0824444,-0.564421
1732438205856,2024-11-24T08:50:05.856Z,39877,0.1850441,-0.9646087,-0.4348637
1732438205859,2024-11-24T08:50:05.859Z,39880,0.1850441,-0.9646087,-0.4348637
1732438205872,2024-11-24T08:50:05.872Z,39893,0.09168709,-1.1812842,-0.6123822
1732438205875,2024-11-24T08:50:05.875Z,39896,0.09168709,-1.1812842,-0.6123822
1732438205886,2024-11-24T08:50:05.886Z,39907,-0.01497729,-1.3345861,-0.68773633
1732438205890,2024-11-24T08:50:05.890Z,39911,-0.01497729,-1.3345861,-0.68773633
1732438205916,2024-11-24T08:50:05.916Z,39937,-0.027254304,-1.2409708,-0.70938927
1732438205919,2024-11-24T08:50:05.919Z,39940,-0.027254304,-1.2409708,-0.70938927
1732438205930,2024-11-24T08:50:05.930Z,39951,-0.06665684,-1.2671833,-0.8032905
1732438205934,2024-11-24T08:50:05.934Z,39955,-0.06665684,-1.2671833,-0.8032905
1732438205958,2024-11-24T08:50:05.958Z,39979,-0.12277954,-1.1730866,-0.8255013
1732438205960,2024-11-24T08:50:05.960Z,39981,-0.12277954,-1.1730866,-0.8255013
1732438205971,2024-11-24T08:50:05.971Z,39992,-0.018965468,-0.80422676,-0.7229353
1732438205974,2024-11-24T08:50:05.974Z,39995,-0.018965468,-0.80422676,-0.7229353
1732438205984,2024-11-24T08:50:05.984Z,40005,-0.0077559184,-0.87880474,-0.6739106
1732438205987,2024-11-24T08:50:05.987Z,40008,-0.0077559184,-0.87880474,-0.6739106
1732438206007,2024-11-24T08:50:06.007Z,40028,0.024435846,-1.0139476,-0.58664054
1732438206014,2024-11-24T08:50:06.014Z,40035,0.024435846,-1.0139476,-0.58664054
1732438206034,2024-11-24T08:50:06.034Z,40055,-0.072412886,-1.2198595,-0.6024917
1732438206040,2024-11-24T08:50:06.040Z,40061,-0.072412886,-1.2198595,-0.6024917
1732438206058,2024-11-24T08:50:06.058Z,40079,-0.18401158,-1.1240054,-0.7023365
1732438206064,2024-11-24T08:50:06.064Z,40085,-0.18401158,-1.1240054,-0.7023365
1732438206083,2024-11-24T08:50:06.083Z,40104,-0.033955716,-0.8985599,-0.47046039
1732438206089,2024-11-24T08:50:06.089Z,40110,-0.033955716,-0.8985599,-0.47046039
1732438206100,2024-11-24T08:50:06.100Z,40121,-0.12359088,-0.98153263,-0.4889783
1732438206104,2024-11-24T08:50:06.104Z,40125,-0.12359088,-0.98153263,-0.4889783
1732438206116,2024-11-24T08:50:06.116Z,40137,-0.0960433,-1.0849475,-0.5938016
1732438206119,2024-11-24T08:50:06.119Z,40140,-0.0960433,-1.0849475,-0.5938016
1732438206129,2024-11-24T08:50:06.129Z,40150,-0.15659387,-1.3199437,-0.725979
1732438206133,2024-11-24T08:50:06.133Z,40154,-0.15659387,-1.3199437,-0.725979
1732438206142,2024-11-24T08:50:06.142Z,40163,-0.2594526,-1.263252,-0.7601776
1732438206144,2024-11-24T08:50:06.144Z,40165,-0.2594526,-1.263252,-0.7601776
1732438206155,2024-11-24T08:50:06.155Z,40176,-0.25520882,-1.0849019,-0.73822266
1732438206158,2024-11-24T08:50:06.158Z,40179,-0.25520882,-1.0849019,-0.73822266
1732438206173,2024-11-24T08:50:06.173Z,40194,-0.1201863,-0.7724555,-0.5621406
1732438206177,2024-11-24T08:50:06.177Z,40198,-0.1201863,-0.7724555,-0.5621406
1732438206187,2024-11-24T08:50:06.187Z,40208,-0.14087443,-0.6339602,-0.5935137
1732438206190,2024-11-24T08:50:06.190Z,40211,-0.14087443,-0.6339602,-0.5935137
1732438206198,2024-11-24T08:50:06.198Z,40219,-0.07699072,-0.6390288,-0.68106073
1732438206200,2024-11-24T08:50:06.200Z,40221,-0.07699072,-0.6390288,-0.68106073
1732438206208,2024-11-24T08:50:06.208Z,40229,-0.19655067,-1.4699104,-0.8040737
1732438206210,2024-11-24T08:50:06.210Z,40231,-0.19655067,-1.4699104,-0.8040737
1732438206217,2024-11-24T08:50:06.217Z,40238,-0.21179217,-1.3151513,-0.7578646
1732438206220,2024-11-24T08:50:06.220Z,40241,-0.21179217,-1.3151513,-0.7578646
1732438206227,2024-11-24T08:50:06.227Z,40248,-0.10888829,-0.9031571,-0.6654837
1732438206230,2024-11-24T08:50:06.230Z,40251,-0.10888829,-0.9031571,-0.6654837
1732438206238,2024-11-24T08:50:06.238Z,40259,-0.1075525,-0.3354177,-0.7218808
1732438206241,2024-11-24T08:50:06.241Z,40262,-0.1075525,-0.3354177,-0.7218808
1732438206248,2024-11-24T08:50:06.248Z,40269,-0.16892675,-0.347349,-0.7376309
1732438206250,2024-11-24T08:50:06.250Z,40271,-0.16892675,-0.347349,-0.7376309
1732438206271,2024-11-24T08:50:06.271Z,40292,-0.22920148,-0.663256,-0.7723354
1732438206274,2024-11-24T08:50:06.274Z,40295,-0.22920148,-0.663256,-0.7723354
1732438206281,2024-11-24T08:50:06.281Z,40302,-0.2621066,-1.4271625,-0.7366208
1732438206284,2024-11-24T08:50:06.284Z,40305,-0.2621066,-1.4271625,-0.7366208
1732438206291,2024-11-24T08:50:06.291Z,40312,-0.31066966,-1.1857477,-0.66430974
1732438206294,2024-11-24T08:50:06.294Z,40315,-0.31066966,-1.1857477,-0.66430974
1732438206365,2024-11-24T08:50:06.365Z,40386,-0.30728278,-0.86514133,-0.7280563
1732438206369,2024-11-24T08:50:06.369Z,40390,-0.30728278,-0.86514133,-0.7280563
1732438206380,2024-11-24T08:50:06.380Z,40401,-0.20044701,-0.8173066,-0.83405447
1732438206384,2024-11-24T08:50:06.384Z,40405,-0.20044701,-0.8173066,-0.83405447
1732438206395,2024-11-24T08:50:06.395Z,40416,-0.23086928,-0.8403483,-0.740414
1732438206398,2024-11-24T08:50:06.398Z,40419,-0.23086928,-0.8403483,-0.740414
1732438206408,2024-11-24T08:50:06.408Z,40429,-0.2960536,-0.80566853,-0.69399804
1732438206411,2024-11-24T08:50:06.411Z,40432,-0.2960536,-0.80566853,-0.69399804
1732438206420,2024-11-24T08:50:06.420Z,40441,-0.18402427,-1.0974815,-0.76942647
1732438206424,2024-11-24T08:50:06.424Z,40445,-0.18402427,-1.0974815,-0.76942647
1732438206434,2024-11-24T08:50:06.434Z,40455,-0.1892676,-0.98586136,-0.8127823
1732438206437,2024-11-24T08:50:06.437Z,40458,-0.1892676,-0.98586136,-0.8127823
1732438206447,2024-11-24T08:50:06.447Z,40468,-0.29683334,-0.8795447,-0.8410667
1732438206450,2024-11-24T08:50:06.450Z,40471,-0.29683334,-0.8795447,-0.8410667
1732438206460,2024-11-24T08:50:06.460Z,40481,-0.31996924,-1.0225997,-0.8924511
1732438206463,2024-11-24T08:50:06.463Z,40484,-0.31996924,-1.0225997,-0.8924511
1732438206471,2024-11-24T08:50:06.471Z,40492,-0.24525611,-0.8227333,-0.7903577
1732438206474,2024-11-24T08:50:06.474Z,40495,-0.24525611,-0.8227333,-0.7903577
1732438206500,2024-11-24T08:50:06.500Z,40521,-0.20092057,-0.6671064,-0.73148125
1732438206508,2024-11-24T08:50:06.508Z,40529,-0.20092057,-0.6671064,-0.73148125
1732438206525,2024-11-24T08:50:06.525Z,40546,-0.14001438,-0.84177303,-0.77455103
1732438206528,2024-11-24T08:50:06.528Z,40549,-0.14001438,-0.84177303,-0.77455103
1732438206540,2024-11-24T08:50:06.540Z,40561,-0.23818876,-0.93042755,-0.79640037
1732438206546,2024-11-24T08:50:06.546Z,40567,-0.23818876,-0.93042755,-0.79640037
1732438206565,2024-11-24T08:50:06.565Z,40586,-0.3253573,-0.90962183,-0.75870216
1732438206571,2024-11-24T08:50:06.571Z,40592,-0.3253573,-0.90962183,-0.75870216
1732438206595,2024-11-24T08:50:06.595Z,40616,-0.31546623,-0.9477997,-0.74689627
1732438206601,2024-11-24T08:50:06.601Z,40622,-0.31546623,-0.9477997,-0.74689627
1732438206619,2024-11-24T08:50:06.619Z,40640,-0.19754,-0.9758592,-0.7528673
1732438206623,2024-11-24T08:50:06.623Z,40644,-0.19754,-0.9758592,-0.7528673
1732438206635,2024-11-24T08:50:06.635Z,40656,-0.13439299,-0.93751514,-0.7254208
1732438206639,2024-11-24T08:50:06.639Z,40660,-0.13439299,-0.93751514,-0.7254208
1732438206649,2024-11-24T08:50:06.649Z,40670,-0.28506327,-0.780094,-0.77073884
1732438206652,2024-11-24T08:50:06.652Z,40673,-0.28506327,-0.780094,-0.77073884
1732438206662,2024-11-24T08:50:06.662Z,40683,-0.37468114,-0.8390023,-0.8038066
1732438206665,2024-11-24T08:50:06.665Z,40686,-0.37468114,-0.8390023,-0.8038066
1732438206675,2024-11-24T08:50:06.675Z,40696,-0.3483213,-0.87870127,-0.80670136
1732438206679,2024-11-24T08:50:06.679Z,40700,-0.3483213,-0.87870127,-0.80670136
1732438206688,2024-11-24T08:50:06.688Z,40709,-0.26817477,-0.8002459,-0.7678175
1732438206691,2024-11-24T08:50:06.691Z,40712,-0.26817477,-0.8002459,-0.7678175
1732438206699,2024-11-24T08:50:06.699Z,40720,-0.17128178,-0.8667067,-0.6610667
1732438206702,2024-11-24T08:50:06.702Z,40723,-0.17128178,-0.8667067,-0.6610667
1732438206709,2024-11-24T08:50:06.709Z,40730,-0.047022115,-0.90796673,-0.6264579
1732438206711,2024-11-24T08:50:06.711Z,40732,-0.047022115,-0.90796673,-0.6264579
1732438206719,2024-11-24T08:50:06.719Z,40740,-0.35288313,-0.5320401,-0.82055736
1732438206721,2024-11-24T08:50:06.721Z,40742,-0.35288313,-0.5320401,-0.82055736
1732438206728,2024-11-24T08:50:06.728Z,40749,-0.45071507,-0.49526593,-0.83573586
1732438206730,2024-11-24T08:50:06.730Z,40751,-0.45071507,-0.49526593,-0.83573586
1732438206738,2024-11-24T08:50:06.738Z,40759,-0.44189847,-0.6870599,-0.89219314
1732438206740,2024-11-24T08:50:06.740Z,40761,-0.44189847,-0.6870599,-0.89219314
1732438206749,2024-11-24T08:50:06.749Z,40770,-0.1706847,-1.0715241,-0.69157386
1732438206752,2024-11-24T08:50:06.752Z,40773,-0.1706847,-1.0715241,-0.69157386
1732438206764,2024-11-24T08:50:06.764Z,40785,-0.12191117,-0.86146516,-0.72141796
1732438206769,2024-11-24T08:50:06.769Z,40790,-0.12191117,-0.86146516,-0.72141796
1732438206784,2024-11-24T08:50:06.784Z,40805,-0.24156377,-0.6751209,-0.7819731
1732438206791,2024-11-24T08:50:06.791Z,40812,-0.24156377,-0.6751209,-0.7819731
1732438206814,2024-11-24T08:50:06.814Z,40835,-0.45971265,-0.8722058,-0.906313
1732438206819,2024-11-24T08:50:06.819Z,40840,-0.45971265,-0.8722058,-0.906313
1732438206829,2024-11-24T08:50:06.829Z,40850,-0.42493147,-0.8677506,-0.8713334
1732438206832,2024-11-24T08:50:06.832Z,40853,-0.42493147,-0.8677506,-0.8713334
1732438206841,2024-11-24T08:50:06.841Z,40862,-0.35181913,-0.76696,-0.7026623
1732438206843,2024-11-24T08:50:06.843Z,40864,-0.35181913,-0.76696,-0.7026623
1732438206851,2024-11-24T08:50:06.851Z,40872,-0.19047739,-0.6281556,-0.74419904
1732438206853,2024-11-24T08:50:06.853Z,40874,-0.19047739,-0.6281556,-0.74419904
1732438206861,2024-11-24T08:50:06.861Z,40882,-0.31975096,-0.81488204,-0.85456324
1732438206863,2024-11-24T08:50:06.863Z,40884,-0.31975096,-0.81488204,-0.85456324
1732438206870,2024-11-24T08:50:06.870Z,40891,-0.36625046,-0.9922243,-0.86874235
1732438206872,2024-11-24T08:50:06.872Z,40893,-0.36625046,-0.9922243,-0.86874235
1732438206879,2024-11-24T08:50:06.879Z,40900,-0.18074362,-0.6930452,-0.7096145
1732438206882,2024-11-24T08:50:06.882Z,40903,-0.18074362,-0.6930452,-0.7096145
1732438206889,2024-11-24T08:50:06.889Z,40910,-0.07117869,-0.5600411,-0.6526618
1732438206891,2024-11-24T08:50:06.891Z,40912,-0.07117869,-0.5600411,-0.6526618
1732438206901,2024-11-24T08:50:06.901Z,40922,-0.05615494,-0.70511603,-0.79214305
1732438206907,2024-11-24T08:50:06.907Z,40928,-0.05615494,-0.70511603,-0.79214305
1732438206928,2024-11-24T08:50:06.928Z,40949,-0.2939319,-0.7812153,-0.8960435
1732438206935,2024-11-24T08:50:06.935Z,40956,-0.2939319,-0.7812153,-0.8960435
1732438206946,2024-11-24T08:50:06.946Z,40967,-0.30509946,-0.7569225,-0.85704166
1732438206950,2024-11-24T08:50:06.950Z,40971,-0.30509946,-0.7569225,-0.85704166
1732438206960,2024-11-24T08:50:06.960Z,40981,-0.24175201,-0.84803915,-0.75102895
1732438206963,2024-11-24T08:50:06.963Z,40984,-0.24175201,-0.84803915,-0.75102895
1732438206972,2024-11-24T08:50:06.972Z,40993,-0.2593273,-1.1069752,-0.89107245
1732438206975,2024-11-24T08:50:06.975Z,40996,-0.2593273,-1.1069752,-0.89107245
1732438206984,2024-11-24T08:50:06.984Z,41005,-0.19204058,-1.0879081,-0.86690223
1732438206991,2024-11-24T08:50:06.991Z,41012,-0.19204058,-1.0879081,-0.86690223
1732438207012,2024-11-24T08:50:07.012Z,41033,-0.11791417,-0.9387319,-0.80907565
1732438207018,2024-11-24T08:50:07.018Z,41039,-0.11791417,-0.9387319,-0.80907565
1732438207033,2024-11-24T08:50:07.033Z,41054,-0.32383096,-0.856642,-0.8957352
1732438207037,2024-11-24T08:50:07.037Z,41058,-0.32383096,-0.856642,-0.8957352
1732438207047,2024-11-24T08:50:07.047Z,41068,-0.24824579,-0.9641189,-0.8783683
1732438207050,2024-11-24T08:50:07.050Z,41071,-0.24824579,-0.9641189,-0.8783683
1732438207060,2024-11-24T08:50:07.060Z,41081,-0.108951814,-0.9313332,-0.78564525
1732438207063,2024-11-24T08:50:07.063Z,41084,-0.108951814,-0.9313332,-0.78564525
1732438207073,2024-11-24T08:50:07.073Z,41094,-0.107063875,-0.640584,-0.7650427
1732438207075,2024-11-24T08:50:07.075Z,41096,-0.107063875,-0.640584,-0.7650427
1732438207085,2024-11-24T08:50:07.085Z,41106,-0.18892479,-0.641409,-0.8564061
1732438207087,2024-11-24T08:50:07.087Z,41108,-0.18892479,-0.641409,-0.8564061
1732438207095,2024-11-24T08:50:07.095Z,41116,-0.21639742,-0.7128245,-0.92153716
1732438207098,2024-11-24T08:50:07.098Z,41119,-0.21639742,-0.7128245,-0.92153716
1732438207106,2024-11-24T08:50:07.106Z,41127,-0.22776474,-0.7684164,-0.85335606
1732438207108,2024-11-24T08:50:07.108Z,41129,-0.22776474,-0.7684164,-0.85335606
1732438207115,2024-11-24T08:50:07.115Z,41136,-0.23399755,-0.81729233,-0.83453125
1732438207118,2024-11-24T08:50:07.118Z,41139,-0.23399755,-0.81729233,-0.83453125
1732438207125,2024-11-24T08:50:07.125Z,41146,-0.2004248,-0.90704304,-0.8290859
1732438207128,2024-11-24T08:50:07.128Z,41149,-0.2004248,-0.90704304,-0.8290859
1732438207136,2024-11-24T08:50:07.136Z,41157,-0.14623529,-0.9197704,-0.8154775
1732438207139,2024-11-24T08:50:07.139Z,41160,-0.14623529,-0.9197704,-0.8154775
1732438207146,2024-11-24T08:50:07.146Z,41167,-0.20633006,-0.68332237,-0.8607711
1732438207148,2024-11-24T08:50:07.148Z,41169,-0.20633006,-0.68332237,-0.8607711
1732438207156,2024-11-24T08:50:07.156Z,41177,-0.21096297,-0.673433,-0.8548468
1732438207159,2024-11-24T08:50:07.159Z,41180,-0.21096297,-0.673433,-0.8548468
1732438207170,2024-11-24T08:50:07.170Z,41191,-0.26709273,-0.7780205,-0.8595498
1732438207172,2024-11-24T08:50:07.172Z,41193,-0.26709273,-0.7780205,-0.8595498
1732438207179,2024-11-24T08:50:07.179Z,41200,-0.2909184,-0.91920584,-0.8771912
1732438207181,2024-11-24T08:50:07.181Z,41202,-0.2909184,-0.91920584,-0.8771912
1732438207189,2024-11-24T08:50:07.189Z,41210,-0.24494034,-0.8658917,-0.9104265
1732438207191,2024-11-24T08:50:07.191Z,41212,-0.24494034,-0.8658917,-0.9104265
1732438207197,2024-11-24T08:50:07.197Z,41218,-0.13815835,-0.795255,-0.8992031
1732438207200,2024-11-24T08:50:07.200Z,41221,-0.13815835,-0.795255,-0.8992031
1732438207220,2024-11-24T08:50:07.220Z,41241,-0.22434098,-0.7494494,-0.83070594
1732438207222,2024-11-24T08:50:07.222Z,41243,-0.22434098,-0.7494494,-0.83070594
1732438207230,2024-11-24T08:50:07.230Z,41251,-0.2485506,-0.7806648,-0.805998
1732438207232,2024-11-24T08:50:07.232Z,41253,-0.2485506,-0.7806648,-0.805998
1732438207262,2024-11-24T08:50:07.262Z,41283,-0.21322407,-0.81331456,-0.7873407
1732438207265,2024-11-24T08:50:07.265Z,41286,-0.21322407,-0.81331456,-0.7873407
1732438207273,2024-11-24T08:50:07.273Z,41294,-0.16519196,-0.87376374,-0.8218591
1732438207276,2024-11-24T08:50:07.276Z,41297,-0.16519196,-0.87376374,-0.8218591
1732438207283,2024-11-24T08:50:07.283Z,41304,-0.1537828,-0.900911,-0.841303
1732438207286,2024-11-24T08:50:07.286Z,41307,-0.1537828,-0.900911,-0.841303
1732438207294,2024-11-24T08:50:07.294Z,41315,-0.13519694,-0.862462,-0.7877314
1732438207296,2024-11-24T08:50:07.296Z,41317,-0.13519694,-0.862462,-0.7877314
1732438207308,2024-11-24T08:50:07.308Z,41329,-0.26364535,-0.60666186,-0.8550864
1732438207310,2024-11-24T08:50:07.310Z,41331,-0.26364535,-0.60666186,-0.8550864
1732438207319,2024-11-24T08:50:07.319Z,41340,-0.27102855,-0.6714369,-0.85115975
1732438207321,2024-11-24T08:50:07.321Z,41342,-0.27102855,-0.6714369,-0.85115975
1732438207330,2024-11-24T08:50:07.330Z,41351,-0.22122656,-0.8518016,-0.8202229
1732438207333,2024-11-24T08:50:07.333Z,41354,-0.22122656,-0.8518016,-0.8202229
1732438207357,2024-11-24T08:50:07.357Z,41378,-0.07717512,-1.1190248,-0.7571917
1732438207360,2024-11-24T08:50:07.360Z,41381,-0.07717512,-1.1190248,-0.7571917
1732438207368,2024-11-24T08:50:07.368Z,41389,-0.0770369,-0.9043375,-0.6611418
1732438207371,2024-11-24T08:50:07.371Z,41392,-0.0770369,-0.9043375,-0.6611418
1732438207379,2024-11-24T08:50:07.379Z,41400,-0.19528088,-0.587475,-0.7063322
1732438207382,2024-11-24T08:50:07.382Z,41403,-0.19528088,-0.587475,-0.7063322
1732438207400,2024-11-24T08:50:07.400Z,41421,-0.20655768,-0.6172424,-0.85684603
1732438207403,2024-11-24T08:50:07.403Z,41424,-0.20655768,-0.6172424,-0.85684603
1732438207411,2024-11-24T08:50:07.411Z,41432,-0.18053457,-0.86348355,-0.8689065
1732438207414,2024-11-24T08:50:07.414Z,41435,-0.18053457,-0.86348355,-0.8689065
1732438207428,2024-11-24T08:50:07.428Z,41449,-0.12557289,-0.9852869,-0.83923084
1732438207434,2024-11-24T08:50:07.434Z,41455,-0.12557289,-0.9852869,-0.83923084
1732438207454,2024-11-24T08:50:07.454Z,41475,-0.116513215,-0.9295869,-0.7712207
1732438207459,2024-11-24T08:50:07.459Z,41480,-0.116513215,-0.9295869,-0.7712207
1732438207477,2024-11-24T08:50:07.477Z,41498,-0.13315533,-0.7909366,-0.76108056
1732438207484,2024-11-24T08:50:07.484Z,41505,-0.13315533,-0.7909366,-0.76108056
1732438207499,2024-11-24T08:50:07.499Z,41520,-0.076101355,-0.7973125,-0.78302354
1732438207503,2024-11-24T08:50:07.503Z,41524,-0.076101355,-0.7973125,-0.78302354
1732438207514,2024-11-24T08:50:07.514Z,41535,-0.053560443,-0.7893479,-0.7620793
1732438207518,2024-11-24T08:50:07.518Z,41539,-0.053560443,-0.7893479,-0.7620793
1732438207529,2024-11-24T08:50:07.529Z,41550,-0.14017159,-0.7537212,-0.90780187
1732438207532,2024-11-24T08:50:07.532Z,41553,-0.14017159,-0.7537212,-0.90780187
1732438207543,2024-11-24T08:50:07.543Z,41564,-0.14821158,-0.78697675,-0.90622133
1732438207548,2024-11-24T08:50:07.548Z,41569,-0.14821158,-0.78697675,-0.90622133
1732438207562,2024-11-24T08:50:07.562Z,41583,-0.17393582,-0.8553467,-0.91826904
1732438207565,2024-11-24T08:50:07.565Z,41586,-0.17393582,-0.8553467,-0.91826904
1732438207575,2024-11-24T08:50:07.575Z,41596,-0.08012723,-0.91344947,-0.74773055
1732438207578,2024-11-24T08:50:07.578Z,41599,-0.08012723,-0.91344947,-0.74773055
1732438207588,2024-11-24T08:50:07.588Z,41609,-0.07400473,-0.8865389,-0.7775639
1732438207590,2024-11-24T08:50:07.590Z,41611,-0.07400473,-0.8865389,-0.7775639
1732438207597,2024-11-24T08:50:07.597Z,41618,-0.09085614,-0.8574481,-0.85484624
1732438207600,2024-11-24T08:50:07.600Z,41621,-0.09085614,-0.8574481,-0.85484624
1732438207608,2024-11-24T08:50:07.608Z,41629,-0.03874337,-0.8314038,-0.81697845
1732438207610,2024-11-24T08:50:07.610Z,41631,-0.03874337,-0.8314038,-0.81697845
1732438207619,2024-11-24T08:50:07.619Z,41640,-0.09693997,-0.84793794,-0.8469033
1732438207622,2024-11-24T08:50:07.622Z,41643,-0.09693997,-0.84793794,-0.8469033
1732438207631,2024-11-24T08:50:07.631Z,41652,-0.100755684,-0.8600611,-0.7992298
1732438207635,2024-11-24T08:50:07.635Z,41656,-0.100755684,-0.8600611,-0.7992298
1732438207650,2024-11-24T08:50:07.650Z,41671,-0.04538501,-0.7797474,-0.7796425
1732438207655,2024-11-24T08:50:07.655Z,41676,-0.04538501,-0.7797474,-0.7796425
1732438207666,2024-11-24T08:50:07.666Z,41687,-0.050571498,-0.8202035,-0.77725625
1732438207669,2024-11-24T08:50:07.669Z,41690,-0.050571498,-0.8202035,-0.77725625
1732438207680,2024-11-24T08:50:07.680Z,41701,-0.0033148099,-0.9085324,-0.7827983
1732438207686,2024-11-24T08:50:07.686Z,41707,-0.0033148099,-0.9085324,-0.7827983
1732438207701,2024-11-24T08:50:07.701Z,41722,0.018564904,-0.84083575,-0.77345484
1732438207706,2024-11-24T08:50:07.706Z,41727,0.018564904,-0.84083575,-0.77345484
1732438207723,2024-11-24T08:50:07.723Z,41744,-0.13476522,-0.7124607,-0.79944515
1732438207726,2024-11-24T08:50:07.726Z,41747,-0.13476522,-0.7124607,-0.79944515
1732438207736,2024-11-24T08:50:07.736Z,41757,-0.20446889,-0.7001328,-0.85555935
1732438207740,2024-11-24T08:50:07.740Z,41761,-0.20446889,-0.7001328,-0.85555935
1732438207749,2024-11-24T08:50:07.749Z,41770,0.0031850329,-0.9369932,-0.7846107
1732438207752,2024-11-24T08:50:07.752Z,41773,0.0031850329,-0.9369932,-0.7846107
1732438207763,2024-11-24T08:50:07.763Z,41784,0.048720036,-1.0212412,-0.759273
1732438207766,2024-11-24T08:50:07.766Z,41787,0.048720036,-1.0212412,-0.759273
1732438207775,2024-11-24T08:50:07.775Z,41796,0.056666825,-1.0325344,-0.68341047
1732438207778,2024-11-24T08:50:07.778Z,41799,0.056666825,-1.0325344,-0.68341047
1732438207787,2024-11-24T08:50:07.787Z,41808,-0.13747485,-0.77691907,-0.80459905
1732438207790,2024-11-24T08:50:07.790Z,41811,-0.13747485,-0.77691907,-0.80459905
1732438207798,2024-11-24T08:50:07.798Z,41819,-0.07283708,-0.76851183,-0.7602344
1732438207800,2024-11-24T08:50:07.800Z,41821,-0.07283708,-0.76851183,-0.7602344
1732438207808,2024-11-24T08:50:07.808Z,41829,-0.012632454,-0.8201048,-0.7946798
1732438207810,2024-11-24T08:50:07.810Z,41831,-0.012632454,-0.8201048,-0.7946798
1732438207817,2024-11-24T08:50:07.817Z,41838,0.043729868,-0.9670118,-0.80093044
1732438207819,2024-11-24T08:50:07.819Z,41840,0.043729868,-0.9670118,-0.80093044
1732438207827,2024-11-24T08:50:07.827Z,41848,0.008569031,-0.9156509,-0.78575104
1732438207829,2024-11-24T08:50:07.829Z,41850,0.008569031,-0.9156509,-0.78575104
1732438207846,2024-11-24T08:50:07.846Z,41867,-0.04858615,-0.8783779,-0.73772854
1732438207849,2024-11-24T08:50:07.849Z,41870,-0.04858615,-0.8783779,-0.73772854
1732438207862,2024-11-24T08:50:07.862Z,41883,-0.022106022,-0.7870148,-0.73862857
1732438207870,2024-11-24T08:50:07.870Z,41891,-0.022106022,-0.7870148,-0.73862857
1732438207889,2024-11-24T08:50:07.889Z,41910,-0.019290993,-0.79497194,-0.8120177
1732438207896,2024-11-24T08:50:07.896Z,41917,-0.019290993,-0.79497194,-0.8120177
1732438207913,2024-11-24T08:50:07.913Z,41934,0.06849807,-0.78182966,-0.7791445
1732438207919,2024-11-24T08:50:07.919Z,41940,0.06849807,-0.78182966,-0.7791445
1732438207938,2024-11-24T08:50:07.938Z,41959,0.031574763,-0.78855497,-0.7275133
1732438207945,2024-11-24T08:50:07.945Z,41966,0.031574763,-0.78855497,-0.7275133
1732438207968,2024-11-24T08:50:07.968Z,41989,0.006050959,-0.87188995,-0.72816557
1732438207974,2024-11-24T08:50:07.974Z,41995,0.006050959,-0.87188995,-0.72816557
1732438207993,2024-11-24T08:50:07.993Z,42014,0.0040404843,-0.8822161,-0.78205514
1732438207999,2024-11-24T08:50:07.999Z,42020,0.0040404843,-0.8822161,-0.78205514
1732438208012,2024-11-24T08:50:08.012Z,42033,0.090590864,-0.8502348,-0.76690036
1732438208015,2024-11-24T08:50:08.015Z,42036,0.090590864,-0.8502348,-0.76690036
1732438208026,2024-11-24T08:50:08.026Z,42047,0.097529985,-0.8715084,-0.7374292
1732438208029,2024-11-24T08:50:08.029Z,42050,0.097529985,-0.8715084,-0.7374292
1732438208040,2024-11-24T08:50:08.040Z,42061,0.07035708,-0.8624965,-0.7265947
1732438208043,2024-11-24T08:50:08.043Z,42064,0.07035708,-0.8624965,-0.7265947
1732438208052,2024-11-24T08:50:08.052Z,42073,0.027274119,-0.83759904,-0.83475393
1732438208055,2024-11-24T08:50:08.055Z,42076,0.027274119,-0.83759904,-0.83475393
1732438208063,2024-11-24T08:50:08.063Z,42084,0.009533449,-0.8138488,-0.8331914
1732438208066,2024-11-24T08:50:08.066Z,42087,0.009533449,-0.8138488,-0.8331914
1732438208074,2024-11-24T08:50:08.074Z,42095,0.041832928,-0.7992139,-0.8307728
1732438208076,2024-11-24T08:50:08.076Z,42097,0.041832928,-0.7992139,-0.8307728
1732438208083,2024-11-24T08:50:08.083Z,42104,0.15820482,-0.87570924,-0.77239025
1732438208086,2024-11-24T08:50:08.086Z,42107,0.15820482,-0.87570924,-0.77239025
1732438208093,2024-11-24T08:50:08.093Z,42114,0.16175002,-0.8910637,-0.7410148
1732438208095,2024-11-24T08:50:08.095Z,42116,0.16175002,-0.8910637,-0.7410148
1732438208101,2024-11-24T08:50:08.101Z,42122,0.09937039,-0.8749964,-0.74689
1732438208104,2024-11-24T08:50:08.104Z,42125,0.09937039,-0.8749964,-0.74689
1732438208112,2024-11-24T08:50:08.112Z,42133,0.031724513,-0.82481545,-0.85638106
1732438208114,2024-11-24T08:50:08.114Z,42135,0.031724513,-0.82481545,-0.85638106
1732438208122,2024-11-24T08:50:08.122Z,42143,0.18196645,-0.85421616,-0.7083574
1732438208125,2024-11-24T08:50:08.125Z,42146,0.18196645,-0.85421616,-0.7083574
1732438208132,2024-11-24T08:50:08.132Z,42153,0.1068503,-0.8084488,-0.7829117
1732438208135,2024-11-24T08:50:08.135Z,42156,0.1068503,-0.8084488,-0.7829117
1732438208161,2024-11-24T08:50:08.161Z,42182,0.077520095,-0.79952884,-0.84037215
1732438208163,2024-11-24T08:50:08.163Z,42184,0.077520095,-0.79952884,-0.84037215
1732438208171,2024-11-24T08:50:08.171Z,42192,0.23541549,-0.89548767,-0.79886293
1732438208173,2024-11-24T08:50:08.173Z,42194,0.23541549,-0.89548767,-0.79886293
1732438208181,2024-11-24T08:50:08.181Z,42202,0.23762542,-0.89695275,-0.7844309
1732438208183,2024-11-24T08:50:08.183Z,42204,0.23762542,-0.89695275,-0.7844309
1732438208191,2024-11-24T08:50:08.191Z,42212,0.19641526,-0.8957967,-0.7685653
1732438208193,2024-11-24T08:50:08.193Z,42214,0.19641526,-0.8957967,-0.7685653
1732438208213,2024-11-24T08:50:08.213Z,42234,0.13756615,-0.8438646,-0.79916954
1732438208220,2024-11-24T08:50:08.220Z,42241,0.13756615,-0.8438646,-0.79916954
1732438208238,2024-11-24T08:50:08.238Z,42259,0.10610667,-0.85796833,-0.7738065
1732438208241,2024-11-24T08:50:08.241Z,42262,0.10610667,-0.85796833,-0.7738065
1732438208255,2024-11-24T08:50:08.255Z,42276,0.15146786,-0.87835324,-0.77819353
1732438208261,2024-11-24T08:50:08.261Z,42282,0.15146786,-0.87835324,-0.77819353
1732438208278,2024-11-24T08:50:08.278Z,42299,0.1562986,-0.8398854,-0.8723678
1732438208284,2024-11-24T08:50:08.284Z,42305,0.1562986,-0.8398854,-0.8723678
1732438208303,2024-11-24T08:50:08.303Z,42324,0.13397229,-0.83836126,-0.8402292
1732438208308,2024-11-24T08:50:08.308Z,42329,0.13397229,-0.83836126,-0.8402292
1732438208319,2024-11-24T08:50:08.319Z,42340,0.11861141,-0.8361148,-0.77235746
1732438208322,2024-11-24T08:50:08.322Z,42343,0.11861141,-0.8361148,-0.77235746
1732438208333,2024-11-24T08:50:08.333Z,42354,0.1689151,-0.9004639,-0.75225544
1732438208336,2024-11-24T08:50:08.336Z,42357,0.1689151,-0.9004639,-0.75225544
1732438208347,2024-11-24T08:50:08.347Z,42368,0.21920185,-0.91251624,-0.7723026
1732438208350,2024-11-24T08:50:08.350Z,42371,0.21920185,-0.91251624,-0.7723026
1732438208359,2024-11-24T08:50:08.359Z,42380,0.21108907,-0.9005209,-0.8114762
1732438208362,2024-11-24T08:50:08.362Z,42383,0.21108907,-0.9005209,-0.8114762
1732438208370,2024-11-24T08:50:08.370Z,42391,0.14521623,-0.8086805,-0.8772133
1732438208373,2024-11-24T08:50:08.373Z,42394,0.14521623,-0.8086805,-0.8772133
1732438208381,2024-11-24T08:50:08.381Z,42402,0.09807798,-0.7847842,-0.87332666
1732438208384,2024-11-24T08:50:08.384Z,42405,0.09807798,-0.7847842,-0.87332666
1732438208393,2024-11-24T08:50:08.393Z,42414,0.091367826,-0.81116825,-0.8277758
1732438208395,2024-11-24T08:50:08.395Z,42416,0.091367826,-0.81116825,-0.8277758
1732438208403,2024-11-24T08:50:08.403Z,42424,0.16734226,-0.8658466,-0.7538746
1732438208405,2024-11-24T08:50:08.405Z,42426,0.16734226,-0.8658466,-0.7538746
1732438208412,2024-11-24T08:50:08.412Z,42433,0.12815617,-0.867956,-0.8158069
1732438208414,2024-11-24T08:50:08.414Z,42435,0.12815617,-0.867956,-0.8158069
1732438208422,2024-11-24T08:50:08.422Z,42443,0.15109172,-0.8544763,-0.83286715
1732438208424,2024-11-24T08:50:08.424Z,42445,0.15109172,-0.8544763,-0.83286715
1732438208430,2024-11-24T08:50:08.430Z,42451,0.11811568,-0.8050358,-0.8894276
1732438208432,2024-11-24T08:50:08.432Z,42453,0.11811568,-0.8050358,-0.8894276
1732438208439,2024-11-24T08:50:08.439Z,42460,0.019943215,-0.7091634,-0.76059765
1732438208442,2024-11-24T08:50:08.442Z,42463,0.019943215,-0.7091634,-0.76059765
1732438208448,2024-11-24T08:50:08.448Z,42469,0.10167503,-0.8430257,-0.72498465
1732438208450,2024-11-24T08:50:08.450Z,42471,0.10167503,-0.8430257,-0.72498465
1732438208458,2024-11-24T08:50:08.458Z,42479,0.26782748,-0.8960152,-0.75083673
1732438208460,2024-11-24T08:50:08.460Z,42481,0.26782748,-0.8960152,-0.75083673
1732438208479,2024-11-24T08:50:08.479Z,42500,0.039615244,-0.6757522,-0.9613276
1732438208481,2024-11-24T08:50:08.481Z,42502,0.039615244,-0.6757522,-0.9613276
1732438208491,2024-11-24T08:50:08.491Z,42512,-0.09820147,-0.6959285,-0.79816675
1732438208493,2024-11-24T08:50:08.493Z,42514,-0.09820147,-0.6959285,-0.79816675
1732438208521,2024-11-24T08:50:08.521Z,42542,-0.011591794,-0.7573954,-0.6534467
1732438208523,2024-11-24T08:50:08.523Z,42544,-0.011591794,-0.7573954,-0.6534467
1732438208530,2024-11-24T08:50:08.530Z,42551,0.091950074,-0.9183414,-0.7872903
1732438208532,2024-11-24T08:50:08.532Z,42553,0.091950074,-0.9183414,-0.7872903
1732438208539,2024-11-24T08:50:08.539Z,42560,0.0015892829,-0.8425861,-0.90495116
1732438208542,2024-11-24T08:50:08.542Z,42563,0.0015892829,-0.8425861,-0.90495116
1732438208550,2024-11-24T08:50:08.550Z,42571,0.021610824,-0.7931825,-0.85166395
1732438208552,2024-11-24T08:50:08.552Z,42573,0.021610824,-0.7931825,-0.85166395
1732438208619,2024-11-24T08:50:08.619Z,42640,0.08275985,-0.8069084,-0.7107671
1732438208624,2024-11-24T08:50:08.624Z,42645,0.08275985,-0.8069084,-0.7107671
1732438208643,2024-11-24T08:50:08.643Z,42664,0.08704581,-0.8441611,-0.7154159
1732438208651,2024-11-24T08:50:08.651Z,42672,0.08704581,-0.8441611,-0.7154159
1732438208671,2024-11-24T08:50:08.671Z,42692,0.07819903,-0.8110442,-0.69299906
1732438208677,2024-11-24T08:50:08.677Z,42698,0.07819903,-0.8110442,-0.69299906
1732438208694,2024-11-24T08:50:08.694Z,42715,-0.080031976,-0.7670177,-0.82467717
1732438208697,2024-11-24T08:50:08.697Z,42718,-0.080031976,-0.7670177,-0.82467717
1732438208710,2024-11-24T08:50:08.710Z,42731,-0.12622595,-0.7031724,-0.81338847
1732438208714,2024-11-24T08:50:08.714Z,42735,-0.12622595,-0.7031724,-0.81338847
1732438208724,2024-11-24T08:50:08.724Z,42745,-0.12230591,-0.640808,-0.8182588
1732438208728,2024-11-24T08:50:08.728Z,42749,-0.12230591,-0.640808,-0.8182588
1732438208739,2024-11-24T08:50:08.739Z,42760,0.0073184255,-0.6422423,-0.7498732
1732438208742,2024-11-24T08:50:08.742Z,42763,0.0073184255,-0.6422423,-0.7498732
1732438208752,2024-11-24T08:50:08.752Z,42773,-0.13054775,-0.6212364,-0.90336925
1732438208755,2024-11-24T08:50:08.755Z,42776,-0.13054775,-0.6212364,-0.90336925
1732438208763,2024-11-24T08:50:08.763Z,42784,-0.10328772,-0.65338326,-0.8854171
1732438208765,2024-11-24T08:50:08.765Z,42786,-0.10328772,-0.65338326,-0.8854171
1732438208773,2024-11-24T08:50:08.773Z,42794,-0.21513699,-0.55315584,-0.900572
1732438208776,2024-11-24T08:50:08.776Z,42797,-0.21513699,-0.55315584,-0.900572
1732438208783,2024-11-24T08:50:08.783Z,42804,-0.2773606,-0.5013507,-0.8795699
1732438208785,2024-11-24T08:50:08.785Z,42806,-0.2773606,-0.5013507,-0.8795699
1732438208793,2024-11-24T08:50:08.793Z,42814,-0.2952189,-0.5094,-0.9245325
1732438208796,2024-11-24T08:50:08.796Z,42817,-0.2952189,-0.5094,-0.9245325
1732438208803,2024-11-24T08:50:08.803Z,42824,-0.10854275,-0.7741494,-0.8861647
1732438208805,2024-11-24T08:50:08.805Z,42826,-0.10854275,-0.7741494,-0.8861647
1732438208813,2024-11-24T08:50:08.813Z,42834,-0.086227775,-0.7083234,-0.8461835
1732438208815,2024-11-24T08:50:08.815Z,42836,-0.086227775,-0.7083234,-0.8461835
1732438208822,2024-11-24T08:50:08.822Z,42843,-0.20390235,-0.6530896,-0.8385784
1732438208824,2024-11-24T08:50:08.824Z,42845,-0.20390235,-0.6530896,-0.8385784
1732438208840,2024-11-24T08:50:08.840Z,42861,-0.2663819,-0.59433687,-0.8503783
1732438208842,2024-11-24T08:50:08.842Z,42863,-0.2663819,-0.59433687,-0.8503783
1732438208849,2024-11-24T08:50:08.849Z,42870,-0.18096429,-0.6932051,-0.77571076
1732438208851,2024-11-24T08:50:08.851Z,42872,-0.18096429,-0.6932051,-0.77571076
1732438208883,2024-11-24T08:50:08.883Z,42904,-0.084625505,-0.76201916,-0.7106622
1732438208886,2024-11-24T08:50:08.886Z,42907,-0.084625505,-0.76201916,-0.7106622
1732438208895,2024-11-24T08:50:08.895Z,42916,-0.22216314,-0.57483584,-0.84712523
1732438208897,2024-11-24T08:50:08.897Z,42918,-0.22216314,-0.57483584,-0.84712523
1732438208905,2024-11-24T08:50:08.905Z,42926,-0.14788449,-0.5572942,-0.83632666
1732438208907,2024-11-24T08:50:08.907Z,42928,-0.14788449,-0.5572942,-0.83632666
1732438208929,2024-11-24T08:50:08.929Z,42950,-0.059847895,-0.7025281,-0.7959472
1732438208936,2024-11-24T08:50:08.936Z,42957,-0.059847895,-0.7025281,-0.7959472
1732438208956,2024-11-24T08:50:08.956Z,42977,-0.14490584,-0.7225137,-0.8163822
1732438208959,2024-11-24T08:50:08.959Z,42980,-0.14490584,-0.7225137,-0.8163822
1732438208969,2024-11-24T08:50:08.969Z,42990,-0.22027084,-0.66726303,-0.83498687
1732438208972,2024-11-24T08:50:08.972Z,42993,-0.22027084,-0.66726303,-0.83498687
1732438208981,2024-11-24T08:50:08.981Z,43002,-0.21962778,-0.7860219,-0.7413447
1732438208984,2024-11-24T08:50:08.984Z,43005,-0.21962778,-0.7860219,-0.7413447
1732438208994,2024-11-24T08:50:08.994Z,43015,-0.22630024,-0.7574082,-0.8546586
1732438208996,2024-11-24T08:50:08.996Z,43017,-0.22630024,-0.7574082,-0.8546586
1732438209005,2024-11-24T08:50:09.005Z,43026,-0.15580559,-0.7248421,-0.8411504
1732438209008,2024-11-24T08:50:09.008Z,43029,-0.15580559,-0.7248421,-0.8411504
1732438209016,2024-11-24T08:50:09.016Z,43037,-0.14468122,-0.7119662,-0.7945161
1732438209019,2024-11-24T08:50:09.019Z,43040,-0.14468122,-0.7119662,-0.7945161
1732438209027,2024-11-24T08:50:09.027Z,43048,-0.19287112,-0.6974263,-0.72016895
1732438209029,2024-11-24T08:50:09.029Z,43050,-0.19287112,-0.6974263,-0.72016895
1732438209037,2024-11-24T08:50:09.037Z,43058,-0.26439193,-0.7448493,-0.8392037
1732438209039,2024-11-24T08:50:09.039Z,43060,-0.26439193,-0.7448493,-0.8392037
1732438209047,2024-11-24T08:50:09.047Z,43068,-0.28957215,-0.8329606,-0.8101627
1732438209048,2024-11-24T08:50:09.048Z,43069,-0.28957215,-0.8329606,-0.8101627
1732438209064,2024-11-24T08:50:09.064Z,43085,-0.24286027,-0.86651826,-0.69240683
1732438209072,2024-11-24T08:50:09.072Z,43093,-0.24286027,-0.86651826,-0.69240683
1732438209112,2024-11-24T08:50:09.112Z,43133,-0.30119804,-0.69016397,-0.76407415
1732438209119,2024-11-24T08:50:09.119Z,43140,-0.30119804,-0.69016397,-0.76407415
1732438209141,2024-11-24T08:50:09.141Z,43162,-0.2898053,-0.6557378,-0.7584564
1732438209147,2024-11-24T08:50:09.147Z,43168,-0.2898053,-0.6557378,-0.7584564
1732438209167,2024-11-24T08:50:09.167Z,43188,-0.21396092,-0.82101274,-0.81564456
1732438209175,2024-11-24T08:50:09.175Z,43196,-0.21396092,-0.82101274,-0.81564456
1732438209197,2024-11-24T08:50:09.197Z,43218,-0.30399737,-0.800794,-0.65450114
1732438209199,2024-11-24T08:50:09.199Z,43220,-0.30399737,-0.800794,-0.65450114
1732438209210,2024-11-24T08:50:09.210Z,43231,-0.28119448,-0.7645478,-0.6406423
1732438209213,2024-11-24T08:50:09.213Z,43234,-0.28119448,-0.7645478,-0.6406423
1732438209223,2024-11-24T08:50:09.223Z,43244,-0.25711536,-0.80316126,-0.6403206
1732438209226,2024-11-24T08:50:09.226Z,43247,-0.25711536,-0.80316126,-0.6403206
1732438209243,2024-11-24T08:50:09.243Z,43264,-0.26507455,-0.7787614,-0.7295689
1732438209245,2024-11-24T08:50:09.245Z,43266,-0.26507455,-0.7787614,-0.7295689
1732438209253,2024-11-24T08:50:09.253Z,43274,-0.25447667,-0.87130946,-0.74520826
1732438209256,2024-11-24T08:50:09.256Z,43277,-0.25447667,-0.87130946,-0.74520826
1732438209267,2024-11-24T08:50:09.267Z,43288,-0.13345633,-0.8665005,-0.6116336
1732438209274,2024-11-24T08:50:09.274Z,43295,-0.13345633,-0.8665005,-0.6116336
1732438209293,2024-11-24T08:50:09.293Z,43314,-0.14612393,-0.8578741,-0.64229774
1732438209298,2024-11-24T08:50:09.298Z,43319,-0.14612393,-0.8578741,-0.64229774
1732438209316,2024-11-24T08:50:09.316Z,43337,-0.017888693,-1.041846,-0.7997742
1732438209322,2024-11-24T08:50:09.322Z,43343,-0.017888693,-1.041846,-0.7997742
1732438209336,2024-11-24T08:50:09.336Z,43357,-0.12701541,-0.930161,-0.67938185
1732438209339,2024-11-24T08:50:09.339Z,43360,-0.12701541,-0.930161,-0.67938185
1732438209350,2024-11-24T08:50:09.350Z,43371,-0.11330825,-0.85686314,-0.6063789
1732438209354,2024-11-24T08:50:09.354Z,43375,-0.11330825,-0.85686314,-0.6063789
1732438209367,2024-11-24T08:50:09.367Z,43388,0.017417358,-1.0807738,-0.8208715
1732438209374,2024-11-24T08:50:09.374Z,43395,0.017417358,-1.0807738,-0.8208715
1732438209392,2024-11-24T08:50:09.392Z,43413,0.0047339946,-1.206716,-0.9504626
1732438209398,2024-11-24T08:50:09.398Z,43419,0.0047339946,-1.206716,-0.9504626
1732438209415,2024-11-24T08:50:09.415Z,43436,-0.06608612,-1.2233973,-0.8660932
1732438209422,2024-11-24T08:50:09.422Z,43443,-0.06608612,-1.2233973,-0.8660932
1732438209440,2024-11-24T08:50:09.440Z,43461,0.014707258,-0.9982683,-0.71990424
1732438209445,2024-11-24T08:50:09.445Z,43466,0.014707258,-0.9982683,-0.71990424
1732438209459,2024-11-24T08:50:09.459Z,43480,0.05242617,-1.1074122,-0.52032757
1732438209463,2024-11-24T08:50:09.463Z,43484,0.05242617,-1.1074122,-0.52032757
1732438209475,2024-11-24T08:50:09.475Z,43496,0.04311003,-1.3036866,-0.64859635
1732438209479,2024-11-24T08:50:09.479Z,43500,0.04311003,-1.3036866,-0.64859635
1732438209490,2024-11-24T08:50:09.490Z,43511,0.1517015,-1.0840964,-0.59436005
1732438209493,2024-11-24T08:50:09.493Z,43514,0.1517015,-1.0840964,-0.59436005
1732438209503,2024-11-24T08:50:09.503Z,43524,0.22223225,-1.0458999,-0.5279929
1732438209506,2024-11-24T08:50:09.506Z,43527,0.22223225,-1.0458999,-0.5279929
1732438209515,2024-11-24T08:50:09.515Z,43536,0.2723033,-1.0683106,-0.5398698
1732438209518,2024-11-24T08:50:09.518Z,43539,0.2723033,-1.0683106,-0.5398698
1732438209527,2024-11-24T08:50:09.527Z,43548,0.36725786,-1.1929774,-0.6010878
1732438209530,2024-11-24T08:50:09.530Z,43551,0.36725786,-1.1929774,-0.6010878
1732438209538,2024-11-24T08:50:09.538Z,43559,0.24655192,-1.2526184,-0.5563161
1732438209541,2024-11-24T08:50:09.541Z,43562,0.24655192,-1.2526184,-0.5563161
1732438209549,2024-11-24T08:50:09.549Z,43570,0.17709762,-1.2872175,-0.5101302
1732438209551,2024-11-24T08:50:09.551Z,43572,0.17709762,-1.2872175,-0.5101302
1732438209559,2024-11-24T08:50:09.559Z,43580,0.47894204,-1.2634267,-0.34827363
1732438209561,2024-11-24T08:50:09.561Z,43582,0.47894204,-1.2634267,-0.34827363
1732438209568,2024-11-24T08:50:09.568Z,43589,0.24711666,-1.2831749,-0.44977
1732438209570,2024-11-24T08:50:09.570Z,43591,0.24711666,-1.2831749,-0.44977
1732438209578,2024-11-24T08:50:09.578Z,43599,0.10537157,-1.2938089,-0.53552264
1732438209580,2024-11-24T08:50:09.580Z,43601,0.10537157,-1.2938089,-0.53552264
1732438209586,2024-11-24T08:50:09.586Z,43607,0.18485162,-1.4165318,-0.44442683
1732438209590,2024-11-24T08:50:09.590Z,43611,0.18485162,-1.4165318,-0.44442683
1732438209597,2024-11-24T08:50:09.597Z,43618,0.23799917,-1.439515,-0.33793542
1732438209600,2024-11-24T08:50:09.600Z,43621,0.23799917,-1.439515,-0.33793542
1732438209607,2024-11-24T08:50:09.607Z,43628,0.31975922,-1.3920344,-0.20903036
1732438209609,2024-11-24T08:50:09.609Z,43630,0.31975922,-1.3920344,-0.20903036
1732438209616,2024-11-24T08:50:09.616Z,43637,0.25096256,-1.2487897,-0.41405615
1732438209618,2024-11-24T08:50:09.618Z,43639,0.25096256,-1.2487897,-0.41405615
1732438209625,2024-11-24T08:50:09.625Z,43646,0.2677622,-1.3956617,-0.5473179
1732438209627,2024-11-24T08:50:09.627Z,43648,0.2677622,-1.3956617,-0.5473179
1732438209633,2024-11-24T08:50:09.633Z,43654,0.0757469,-1.4949064,-0.57723814
1732438209635,2024-11-24T08:50:09.635Z,43656,0.0757469,-1.4949064,-0.57723814
1732438209647,2024-11-24T08:50:09.647Z,43668,0.17834261,-1.4077891,-0.27536365
1732438209649,2024-11-24T08:50:09.649Z,43670,0.17834261,-1.4077891,-0.27536365
1732438209656,2024-11-24T08:50:09.656Z,43677,0.43055385,-1.2035549,-0.047578055
1732438209658,2024-11-24T08:50:09.658Z,43679,0.43055385,-1.2035549,-0.047578055
1732438209665,2024-11-24T08:50:09.665Z,43686,0.3370653,-0.93113303,-0.05009541
1732438209667,2024-11-24T08:50:09.667Z,43688,0.3370653,-0.93113303,-0.05009541
1732438209783,2024-11-24T08:50:09.783Z,43804,0.2741667,-1.1074731,-0.43921715
1732438209785,2024-11-24T08:50:09.785Z,43806,0.2741667,-1.1074731,-0.43921715
1732438209796,2024-11-24T08:50:09.796Z,43817,0.21634337,-1.2135216,-0.6170862
1732438209804,2024-11-24T08:50:09.804Z,43825,0.21634337,-1.2135216,-0.6170862
1732438209823,2024-11-24T08:50:09.823Z,43844,0.099306986,-1.2604312,-0.73170817
1732438209829,2024-11-24T08:50:09.829Z,43850,0.099306986,-1.2604312,-0.73170817
1732438209843,2024-11-24T08:50:09.843Z,43864,0.24232338,-0.9728867,-0.20796609
1732438209847,2024-11-24T08:50:09.847Z,43868,0.24232338,-0.9728867,-0.20796609
1732438209859,2024-11-24T08:50:09.859Z,43880,0.15021986,-0.92450523,-0.3642222
1732438209863,2024-11-24T08:50:09.863Z,43884,0.15021986,-0.92450523,-0.3642222
1732438209874,2024-11-24T08:50:09.874Z,43895,0.083084024,-1.009374,-0.513792
1732438209882,2024-11-24T08:50:09.882Z,43903,0.083084024,-1.009374,-0.513792
1732438209892,2024-11-24T08:50:09.892Z,43913,0.17620443,-1.132797,-0.6572307
1732438209895,2024-11-24T08:50:09.895Z,43916,0.17620443,-1.132797,-0.6572307
1732438209902,2024-11-24T08:50:09.902Z,43923,0.20312169,-0.93342537,-0.5520052
1732438209905,2024-11-24T08:50:09.905Z,43926,0.20312169,-0.93342537,-0.5520052
1732438209916,2024-11-24T08:50:09.916Z,43937,0.18091221,-0.81037825,-0.4130942
1732438209918,2024-11-24T08:50:09.918Z,43939,0.18091221,-0.81037825,-0.4130942
1732438209926,2024-11-24T08:50:09.926Z,43947,-0.011596984,-1.083952,-0.6023192
1732438209928,2024-11-24T08:50:09.928Z,43949,-0.011596984,-1.083952,-0.6023192
1732438209935,2024-11-24T08:50:09.935Z,43956,0.049214076,-1.1301512,-0.563118
1732438209936,2024-11-24T08:50:09.936Z,43957,0.049214076,-1.1301512,-0.563118
1732438209960,2024-11-24T08:50:09.960Z,43981,0.17906885,-1.123209,-0.47654554
1732438209963,2024-11-24T08:50:09.963Z,43984,0.17906885,-1.123209,-0.47654554
1732438209970,2024-11-24T08:50:09.970Z,43991,0.06982746,-1.074824,-0.45027816
1732438209972,2024-11-24T08:50:09.972Z,43993,0.06982746,-1.074824,-0.45027816
1732438209980,2024-11-24T08:50:09.980Z,44001,0.046975873,-0.9597733,-0.50320905
1732438209983,2024-11-24T08:50:09.983Z,44004,0.046975873,-0.9597733,-0.50320905
1732438210008,2024-11-24T08:50:10.008Z,44029,0.17145917,-0.89152914,-0.5270475
1732438210010,2024-11-24T08:50:10.010Z,44031,0.17145917,-0.89152914,-0.5270475
1732438210018,2024-11-24T08:50:10.018Z,44039,0.051362377,-1.0862527,-0.5115792
1732438210020,2024-11-24T08:50:10.020Z,44041,0.051362377,-1.0862527,-0.5115792
1732438210028,2024-11-24T08:50:10.028Z,44049,0.090785824,-1.2271018,-0.5003877
1732438210031,2024-11-24T08:50:10.031Z,44052,0.090785824,-1.2271018,-0.5003877
1732438210038,2024-11-24T08:50:10.038Z,44059,0.069623895,-1.251791,-0.51455927
1732438210041,2024-11-24T08:50:10.041Z,44062,0.069623895,-1.251791,-0.51455927
1732438210052,2024-11-24T08:50:10.052Z,44073,0.20806788,-0.88385844,-0.3335291
1732438210054,2024-11-24T08:50:10.054Z,44075,0.20806788,-0.88385844,-0.3335291
1732438210063,2024-11-24T08:50:10.063Z,44084,0.12069832,-0.8461929,-0.45159656
1732438210066,2024-11-24T08:50:10.066Z,44087,0.12069832,-0.8461929,-0.45159656
1732438210097,2024-11-24T08:50:10.097Z,44118,0.13541022,-0.97513354,-0.5307821
1732438210101,2024-11-24T08:50:10.101Z,44122,0.13541022,-0.97513354,-0.5307821
1732438210110,2024-11-24T08:50:10.110Z,44131,0.10553957,-1.2394016,-0.4814163
1732438210113,2024-11-24T08:50:10.113Z,44134,0.10553957,-1.2394016,-0.4814163
1732438210122,2024-11-24T08:50:10.122Z,44143,0.117839314,-1.2067612,-0.41306296
1732438210124,2024-11-24T08:50:10.124Z,44145,0.117839314,-1.2067612,-0.41306296
1732438210132,2024-11-24T08:50:10.132Z,44153,0.12283622,-1.0869625,-0.35671332
1732438210135,2024-11-24T08:50:10.135Z,44156,0.12283622,-1.0869625,-0.35671332
1732438210145,2024-11-24T08:50:10.145Z,44166,0.072517745,-0.9959359,-0.40941843
1732438210147,2024-11-24T08:50:10.147Z,44168,0.072517745,-0.9959359,-0.40941843
1732438210155,2024-11-24T08:50:10.155Z,44176,0.1589881,-1.1510713,-0.45215914
1732438210158,2024-11-24T08:50:10.158Z,44179,0.1589881,-1.1510713,-0.45215914
1732438210165,2024-11-24T08:50:10.165Z,44186,0.1924807,-1.2226429,-0.5029442
1732438210167,2024-11-24T08:50:10.167Z,44188,0.1924807,-1.2226429,-0.5029442
1732438210188,2024-11-24T08:50:10.188Z,44209,0.050110556,-1.1110353,-0.4668872
1732438210191,2024-11-24T08:50:10.191Z,44212,0.050110556,-1.1110353,-0.4668872
1732438210199,2024-11-24T08:50:10.199Z,44220,0.08094639,-1.034888,-0.40635395
1732438210201,2024-11-24T08:50:10.201Z,44222,0.08094639,-1.034888,-0.40635395
1732438210231,2024-11-24T08:50:10.231Z,44252,0.13708217,-1.0223434,-0.3872622
1732438210233,2024-11-24T08:50:10.233Z,44254,0.13708217,-1.0223434,-0.3872622
1732438210242,2024-11-24T08:50:10.242Z,44263,0.12830977,-1.1298254,-0.44351137
1732438210244,2024-11-24T08:50:10.244Z,44265,0.12830977,-1.1298254,-0.44351137
1732438210252,2024-11-24T08:50:10.252Z,44273,0.0910464,-1.0754471,-0.4933112
1732438210254,2024-11-24T08:50:10.254Z,44275,0.0910464,-1.0754471,-0.4933112
1732438210275,2024-11-24T08:50:10.275Z,44296,0.12097076,-1.0510979,-0.5062996
1732438210278,2024-11-24T08:50:10.278Z,44299,0.12097076,-1.0510979,-0.5062996
1732438210284,2024-11-24T08:50:10.284Z,44305,0.14274827,-1.1356423,-0.34169653
1732438210287,2024-11-24T08:50:10.287Z,44308,0.14274827,-1.1356423,-0.34169653
1732438210295,2024-11-24T08:50:10.295Z,44316,0.17855284,-1.1574247,-0.26865765
1732438210298,2024-11-24T08:50:10.298Z,44319,0.17855284,-1.1574247,-0.26865765
1732438210323,2024-11-24T08:50:10.323Z,44344,0.119878694,-1.1310117,-0.31604436
1732438210326,2024-11-24T08:50:10.326Z,44347,0.119878694,-1.1310117,-0.31604436
1732438210335,2024-11-24T08:50:10.335Z,44356,0.17359094,-1.122164,-0.3989039
1732438210338,2024-11-24T08:50:10.338Z,44359,0.17359094,-1.122164,-0.3989039
1732438210368,2024-11-24T08:50:10.368Z,44389,0.13325074,-1.1370394,-0.55769676
1732438210372,2024-11-24T08:50:10.372Z,44393,0.13325074,-1.1370394,-0.55769676
1732438210383,2024-11-24T08:50:10.383Z,44404,-0.085774146,-1.1615126,-0.6410293
1732438210386,2024-11-24T08:50:10.386Z,44407,-0.085774146,-1.1615126,-0.6410293
1732438210397,2024-11-24T08:50:10.397Z,44418,0.29053903,-1.1173393,-0.26239383
1732438210400,2024-11-24T08:50:10.400Z,44421,0.29053903,-1.1173393,-0.26239383
1732438210412,2024-11-24T08:50:10.412Z,44433,0.15255071,-1.2458441,-0.32823983
1732438210416,2024-11-24T08:50:10.416Z,44437,0.15255071,-1.2458441,-0.32823983
1732438210426,2024-11-24T08:50:10.426Z,44447,0.12881109,-1.2752715,-0.4528604
1732438210429,2024-11-24T08:50:10.429Z,44450,0.12881109,-1.2752715,-0.4528604
1732438210439,2024-11-24T08:50:10.439Z,44460,0.03165515,-1.10834,-0.7476798
1732438210442,2024-11-24T08:50:10.442Z,44463,0.03165515,-1.10834,-0.7476798
1732438210457,2024-11-24T08:50:10.457Z,44478,-0.040986363,-1.1096505,-0.72534883
1732438210460,2024-11-24T08:50:10.460Z,44481,-0.040986363,-1.1096505,-0.72534883
1732438210469,2024-11-24T08:50:10.469Z,44490,-0.0061359904,-1.1700907,-0.58827597
1732438210477,2024-11-24T08:50:10.477Z,44498,-0.0061359904,-1.1700907,-0.58827597
1732438210486,2024-11-24T08:50:10.486Z,44507,-0.07229728,-1.0919119,-0.68430156
1732438210489,2024-11-24T08:50:10.489Z,44510,-0.07229728,-1.0919119,-0.68430156
1732438210503,2024-11-24T08:50:10.503Z,44524,0.0072401897,-1.1076003,-0.6723625
1732438210505,2024-11-24T08:50:10.505Z,44526,0.0072401897,-1.1076003,-0.6723625
1732438210513,2024-11-24T08:50:10.513Z,44534,-0.036321074,-1.2790439,-0.7347546
1732438210515,2024-11-24T08:50:10.515Z,44536,-0.036321074,-1.2790439,-0.7347546
1732438210522,2024-11-24T08:50:10.522Z,44543,-0.0679699,-1.2592111,-0.6721477
1732438210524,2024-11-24T08:50:10.524Z,44545,-0.0679699,-1.2592111,-0.6721477
1732438210545,2024-11-24T08:50:10.545Z,44566,-0.0023613933,-1.1018288,-0.57270634
1732438210547,2024-11-24T08:50:10.547Z,44568,-0.0023613933,-1.1018288,-0.57270634
1732438210596,2024-11-24T08:50:10.596Z,44617,0.085445195,-0.7784936,-0.43464303
1732438210600,2024-11-24T08:50:10.600Z,44621,0.085445195,-0.7784936,-0.43464303
1732438210609,2024-11-24T08:50:10.609Z,44630,0.052004967,-0.8752695,-0.37108487
1732438210612,2024-11-24T08:50:10.612Z,44633,0.052004967,-0.8752695,-0.37108487
1732438210622,2024-11-24T08:50:10.622Z,44643,0.018705355,-1.1208019,-0.443523
1732438210625,2024-11-24T08:50:10.625Z,44646,0.018705355,-1.1208019,-0.443523
1732438210640,2024-11-24T08:50:10.640Z,44661,-0.1924424,-1.4332552,-0.66965795
1732438210646,2024-11-24T08:50:10.646Z,44667,-0.1924424,-1.4332552,-0.66965795
1732438210663,2024-11-24T08:50:10.663Z,44684,-0.19854107,-1.1787223,-0.6516819
1732438210668,2024-11-24T08:50:10.668Z,44689,-0.19854107,-1.1787223,-0.6516819
1732438210684,2024-11-24T08:50:10.684Z,44705,-0.10531164,-0.76984423,-0.5387287
1732438210687,2024-11-24T08:50:10.687Z,44708,-0.10531164,-0.76984423,-0.5387287
1732438210699,2024-11-24T08:50:10.699Z,44720,-0.18984137,-1.1631703,-0.70650524
1732438210702,2024-11-24T08:50:10.702Z,44723,-0.18984137,-1.1631703,-0.70650524
1732438210712,2024-11-24T08:50:10.712Z,44733,-0.1888616,-0.97103703,-0.6631208
1732438210716,2024-11-24T08:50:10.716Z,44737,-0.1888616,-0.97103703,-0.6631208
1732438210726,2024-11-24T08:50:10.726Z,44747,-0.16734014,-0.89409024,-0.61306643
1732438210729,2024-11-24T08:50:10.729Z,44750,-0.16734014,-0.89409024,-0.61306643
1732438210738,2024-11-24T08:50:10.738Z,44759,-0.140867,-0.87060034,-0.4594776
1732438210741,2024-11-24T08:50:10.741Z,44762,-0.140867,-0.87060034,-0.4594776
1732438210749,2024-11-24T08:50:10.749Z,44770,-0.11438811,-1.0172437,-0.4828477
1732438210751,2024-11-24T08:50:10.751Z,44772,-0.11438811,-1.0172437,-0.4828477
1732438210759,2024-11-24T08:50:10.759Z,44780,-0.0071847825,-1.2658783,-0.51284546
1732438210761,2024-11-24T08:50:10.761Z,44782,-0.0071847825,-1.2658783,-0.51284546
1732438210773,2024-11-24T08:50:10.773Z,44794,-0.34751368,-1.1294616,-0.86219144
1732438210775,2024-11-24T08:50:10.775Z,44796,-0.34751368,-1.1294616,-0.86219144
1732438210782,2024-11-24T08:50:10.782Z,44803,-0.18301629,-0.7813497,-0.71002054
1732438210784,2024-11-24T08:50:10.784Z,44805,-0.18301629,-0.7813497,-0.71002054
1732438210791,2024-11-24T08:50:10.791Z,44812,0.019167209,-0.5736149,-0.5225391
1732438210794,2024-11-24T08:50:10.794Z,44815,0.019167209,-0.5736149,-0.5225391
1732438210817,2024-11-24T08:50:10.817Z,44838,-0.11339241,-0.7228824,-0.50405693
1732438210820,2024-11-24T08:50:10.820Z,44841,-0.11339241,-0.7228824,-0.50405693
1732438210828,2024-11-24T08:50:10.828Z,44849,-0.06995332,-1.1298937,-0.5993875
1732438210831,2024-11-24T08:50:10.831Z,44852,-0.06995332,-1.1298937,-0.5993875
1732438210838,2024-11-24T08:50:10.838Z,44859,-0.089827836,-1.4944252,-0.7364883
1732438210840,2024-11-24T08:50:10.840Z,44861,-0.089827836,-1.4944252,-0.7364883
1732438210863,2024-11-24T08:50:10.863Z,44884,-0.2622942,-0.815151,-0.61661565
1732438210865,2024-11-24T08:50:10.865Z,44886,-0.2622942,-0.815151,-0.61661565
1732438210873,2024-11-24T08:50:10.873Z,44894,-0.08627844,-0.6184198,-0.56738013
1732438210876,2024-11-24T08:50:10.876Z,44897,-0.08627844,-0.6184198,-0.56738013
1732438210907,2024-11-24T08:50:10.907Z,44928,-0.066335805,-0.6127616,-0.5821382
1732438210910,2024-11-24T08:50:10.910Z,44931,-0.066335805,-0.6127616,-0.5821382
1732438210919,2024-11-24T08:50:10.919Z,44940,-0.18818323,-0.9633661,-0.81806666
1732438210922,2024-11-24T08:50:10.922Z,44943,-0.18818323,-0.9633661,-0.81806666
1732438210930,2024-11-24T08:50:10.930Z,44951,-0.23779434,-1.0332514,-0.8062621
1732438210933,2024-11-24T08:50:10.933Z,44954,-0.23779434,-1.0332514,-0.8062621
1732438210940,2024-11-24T08:50:10.940Z,44961,-0.32296842,-1.0078756,-0.79548335
1732438210943,2024-11-24T08:50:10.943Z,44964,-0.32296842,-1.0078756,-0.79548335
1732438210954,2024-11-24T08:50:10.954Z,44975,-0.35694563,-0.9412336,-0.6301863
1732438210956,2024-11-24T08:50:10.956Z,44977,-0.35694563,-0.9412336,-0.6301863
1732438210968,2024-11-24T08:50:10.968Z,44989,-0.213374,-0.917414,-0.58421063
1732438210973,2024-11-24T08:50:10.973Z,44994,-0.213374,-0.917414,-0.58421063
1732438211000,2024-11-24T08:50:11Z,45021,-0.17789963,-0.78549606,-0.621336
1732438211005,2024-11-24T08:50:11.005Z,45026,-0.17789963,-0.78549606,-0.621336
