Timestamp (ms),ISO DateTime,Elapsed Time (ms),Acceleration X,Acceleration Y,Acceleration Z
1734276152962,2024-12-15T15:22:32.962Z,18764,0.008596741,0.08823878,-0.46489388
1734276152969,2024-12-15T15:22:32.969Z,18771,0.008596741,0.08823878,-0.46489388
1734276152999,2024-12-15T15:22:32.999Z,18801,0.018871216,0.08596416,-0.4525133
1734276153007,2024-12-15T15:22:33.007Z,18809,0.018871216,0.08596416,-0.4525133
1734276153029,2024-12-15T15:22:33.029Z,18831,0.024128146,0.07721235,-0.4312654
1734276153035,2024-12-15T15:22:33.035Z,18837,0.024128146,0.07721235,-0.4312654
1734276153056,2024-12-15T15:22:33.056Z,18858,0.0196246,0.069755785,-0.4162286
1734276153060,2024-12-15T15:22:33.060Z,18862,0.0196246,0.069755785,-0.4162286
1734276153073,2024-12-15T15:22:33.073Z,18875,0.016664015,0.0650277,-0.40393922
1734276153077,2024-12-15T15:22:33.077Z,18879,0.016664015,0.0650277,-0.40393922
1734276153089,2024-12-15T15:22:33.089Z,18891,0.01764007,0.05861071,-0.39535642
1734276153093,2024-12-15T15:22:33.093Z,18895,0.01764007,0.05861071,-0.39535642
1734276153105,2024-12-15T15:22:33.105Z,18907,0.012436792,0.059250504,-0.3859833
1734276153108,2024-12-15T15:22:33.108Z,18910,0.012436792,0.059250504,-0.3859833
1734276153120,2024-12-15T15:22:33.120Z,18922,0.01554309,0.05817747,-0.37201998
1734276153123,2024-12-15T15:22:33.123Z,18925,0.01554309,0.05817747,-0.37201998
1734276153135,2024-12-15T15:22:33.135Z,18937,0.016074868,0.0529189,-0.36366844
1734276153140,2024-12-15T15:22:33.140Z,18942,0.016074868,0.0529189,-0.36366844
1734276153153,2024-12-15T15:22:33.153Z,18955,0.019017369,0.05029545,-0.3550428
1734276153156,2024-12-15T15:22:33.156Z,18958,0.019017369,0.05029545,-0.3550428
1734276153168,2024-12-15T15:22:33.168Z,18970,0.018158892,0.04590335,-0.34808433
1734276153172,2024-12-15T15:22:33.172Z,18974,0.018158892,0.04590335,-0.34808433
1734276153184,2024-12-15T15:22:33.184Z,18986,0.009115014,0.046582043,-0.33746672
1734276153188,2024-12-15T15:22:33.188Z,18990,0.009115014,0.046582043,-0.33746672
1734276153201,2024-12-15T15:22:33.201Z,19003,0.008401945,0.04254286,-0.33388534
1734276153206,2024-12-15T15:22:33.206Z,19008,0.008401945,0.04254286,-0.33388534
1734276153218,2024-12-15T15:22:33.218Z,19020,0.009060676,0.037723165,-0.30918893
1734276153221,2024-12-15T15:22:33.221Z,19023,0.009060676,0.037723165,-0.30918893
1734276153233,2024-12-15T15:22:33.233Z,19035,0.014484653,0.035059746,-0.29422477
1734276153236,2024-12-15T15:22:33.236Z,19038,0.014484653,0.035059746,-0.29422477
1734276153247,2024-12-15T15:22:33.247Z,19049,0.019854367,0.033499017,-0.2945633
1734276153251,2024-12-15T15:22:33.251Z,19053,0.019854367,0.033499017,-0.2945633
1734276153266,2024-12-15T15:22:33.266Z,19068,0.018034983,0.02912569,-0.29308128
1734276153271,2024-12-15T15:22:33.271Z,19073,0.018034983,0.02912569,-0.29308128
1734276153283,2024-12-15T15:22:33.283Z,19085,0.00505567,0.025847957,-0.28542027
1734276153287,2024-12-15T15:22:33.287Z,19089,0.00505567,0.025847957,-0.28542027
1734276153300,2024-12-15T15:22:33.300Z,19102,0.0096174,0.02316956,-0.2735294
1734276153303,2024-12-15T15:22:33.303Z,19105,0.0096174,0.02316956,-0.2735294
1734276153314,2024-12-15T15:22:33.314Z,19116,0.015499814,0.02158481,-0.26284826
1734276153318,2024-12-15T15:22:33.318Z,19120,0.015499814,0.02158481,-0.26284826
1734276153329,2024-12-15T15:22:33.329Z,19131,0.018911382,0.017666701,-0.25579292
1734276153334,2024-12-15T15:22:33.334Z,19136,0.018911382,0.017666701,-0.25579292
1734276153346,2024-12-15T15:22:33.346Z,19148,0.0180431,0.016773188,-0.25376734
1734276153349,2024-12-15T15:22:33.349Z,19151,0.0180431,0.016773188,-0.25376734
1734276153361,2024-12-15T15:22:33.361Z,19163,0.015245786,0.01986022,-0.25277272
1734276153364,2024-12-15T15:22:33.364Z,19166,0.015245786,0.01986022,-0.25277272
1734276153375,2024-12-15T15:22:33.375Z,19177,0.008642684,0.016695002,-0.24464823
1734276153380,2024-12-15T15:22:33.380Z,19182,0.008642684,0.016695002,-0.24464823
1734276153394,2024-12-15T15:22:33.394Z,19196,0.010852997,0.0150795225,-0.2401021
1734276153397,2024-12-15T15:22:33.397Z,19199,0.010852997,0.0150795225,-0.2401021
1734276153411,2024-12-15T15:22:33.411Z,19213,0.011112046,0.013049963,-0.23567706
1734276153416,2024-12-15T15:22:33.416Z,19218,0.011112046,0.013049963,-0.23567706
1734276153428,2024-12-15T15:22:33.428Z,19230,0.012813397,0.0135443695,-0.22852884
1734276153432,2024-12-15T15:22:33.432Z,19234,0.012813397,0.0135443695,-0.22852884
1734276153446,2024-12-15T15:22:33.446Z,19248,0.012077261,0.0126515385,-0.22207172
1734276153450,2024-12-15T15:22:33.450Z,19252,0.012077261,0.0126515385,-0.22207172
1734276153464,2024-12-15T15:22:33.464Z,19266,0.008466064,0.007930259,-0.21340445
1734276153468,2024-12-15T15:22:33.468Z,19270,0.008466064,0.007930259,-0.21340445
1734276153483,2024-12-15T15:22:33.483Z,19285,0.009636015,0.002793635,-0.20304278
1734276153487,2024-12-15T15:22:33.487Z,19289,0.009636015,0.002793635,-0.20304278
1734276153501,2024-12-15T15:22:33.501Z,19303,0.013144692,0.0030941304,-0.1899906
1734276153505,2024-12-15T15:22:33.505Z,19307,0.013144692,0.0030941304,-0.1899906
1734276153518,2024-12-15T15:22:33.518Z,19320,0.014713113,0.0039326977,-0.19412813
1734276153522,2024-12-15T15:22:33.522Z,19324,0.014713113,0.0039326977,-0.19412813
1734276153536,2024-12-15T15:22:33.536Z,19338,0.0019072442,-0.0025024754,-0.19299257
1734276153542,2024-12-15T15:22:33.542Z,19344,0.0019072442,-0.0025024754,-0.19299257
1734276153554,2024-12-15T15:22:33.554Z,19356,-0.0016662605,-0.0015638405,-0.18273291
1734276153558,2024-12-15T15:22:33.558Z,19360,-0.0016662605,-0.0015638405,-0.18273291
1734276153571,2024-12-15T15:22:33.571Z,19373,-0.0022905758,0.0023478516,-0.18282777
1734276153575,2024-12-15T15:22:33.575Z,19377,-0.0022905758,0.0023478516,-0.18282777
1734276153588,2024-12-15T15:22:33.588Z,19390,0.0062934,-0.0010231432,-0.17718908
1734276153592,2024-12-15T15:22:33.592Z,19394,0.0062934,-0.0010231432,-0.17718908
1734276153606,2024-12-15T15:22:33.606Z,19408,0.008860596,-0.0033823727,-0.17308335
1734276153609,2024-12-15T15:22:33.609Z,19411,0.008860596,-0.0033823727,-0.17308335
1734276153621,2024-12-15T15:22:33.621Z,19423,0.007019848,-0.0032527416,-0.15703064
1734276153625,2024-12-15T15:22:33.625Z,19427,0.007019848,-0.0032527416,-0.15703064
1734276153641,2024-12-15T15:22:33.641Z,19443,0.008080627,-0.0040619397,-0.15090434
1734276153646,2024-12-15T15:22:33.646Z,19448,0.008080627,-0.0040619397,-0.15090434
1734276153658,2024-12-15T15:22:33.658Z,19460,0.012026038,-0.0048410883,-0.14972892
1734276153662,2024-12-15T15:22:33.662Z,19464,0.012026038,-0.0048410883,-0.14972892
1734276153675,2024-12-15T15:22:33.675Z,19477,0.0063123107,-2.217248E-4,-0.15099788
1734276153679,2024-12-15T15:22:33.679Z,19481,0.0063123107,-2.217248E-4,-0.15099788
1734276153690,2024-12-15T15:22:33.690Z,19492,-0.0031755497,0.0073466757,-0.15842798
1734276153694,2024-12-15T15:22:33.694Z,19496,-0.0031755497,0.0073466757,-0.15842798
1734276153710,2024-12-15T15:22:33.710Z,19512,0.0115881525,0.008110946,-0.14256799
1734276153715,2024-12-15T15:22:33.715Z,19517,0.0115881525,0.008110946,-0.14256799
1734276153727,2024-12-15T15:22:33.727Z,19529,0.025175018,0.012324203,-0.13228315
1734276153731,2024-12-15T15:22:33.731Z,19533,0.025175018,0.012324203,-0.13228315
1734276153742,2024-12-15T15:22:33.742Z,19544,0.021746343,0.014613123,-0.14018935
1734276153745,2024-12-15T15:22:33.745Z,19547,0.021746343,0.014613123,-0.14018935
1734276153760,2024-12-15T15:22:33.760Z,19562,0.007713935,0.018880839,-0.14131086
1734276153765,2024-12-15T15:22:33.765Z,19567,0.007713935,0.018880839,-0.14131086
1734276153781,2024-12-15T15:22:33.781Z,19583,6.829654E-4,0.01926662,-0.13707218
1734276153785,2024-12-15T15:22:33.785Z,19587,6.829654E-4,0.01926662,-0.13707218
1734276153799,2024-12-15T15:22:33.799Z,19601,-3.8619345E-4,0.015284617,-0.12719709
1734276153803,2024-12-15T15:22:33.803Z,19605,-3.8619345E-4,0.015284617,-0.12719709
1734276153815,2024-12-15T15:22:33.815Z,19617,-0.0049176435,0.009858779,-0.1208828
1734276153819,2024-12-15T15:22:33.819Z,19621,-0.0049176435,0.009858779,-0.1208828
1734276153833,2024-12-15T15:22:33.833Z,19635,-0.0059880014,0.004453362,-0.114691876
1734276153837,2024-12-15T15:22:33.837Z,19639,-0.0059880014,0.004453362,-0.114691876
1734276153850,2024-12-15T15:22:33.850Z,19652,-0.0027015726,0.004924916,-0.11538875
1734276153855,2024-12-15T15:22:33.855Z,19657,-0.0027015726,0.004924916,-0.11538875
1734276153866,2024-12-15T15:22:33.866Z,19668,0.0077126212,0.0054118354,-0.10500436
1734276153870,2024-12-15T15:22:33.870Z,19672,0.0077126212,0.0054118354,-0.10500436
1734276153882,2024-12-15T15:22:33.882Z,19684,0.012215279,0.007864228,-0.09229481
1734276153886,2024-12-15T15:22:33.886Z,19688,0.012215279,0.007864228,-0.09229481
1734276153899,2024-12-15T15:22:33.899Z,19701,-0.0012829974,0.0010502753,-0.09391626
1734276153902,2024-12-15T15:22:33.902Z,19704,-0.0012829974,0.0010502753,-0.09391626
1734276153915,2024-12-15T15:22:33.915Z,19717,-0.003470768,-0.0013558277,-0.10023603
1734276153919,2024-12-15T15:22:33.919Z,19721,-0.003470768,-0.0013558277,-0.10023603
1734276153930,2024-12-15T15:22:33.930Z,19732,0.0021247156,-0.004237472,-0.09965959
1734276153934,2024-12-15T15:22:33.934Z,19736,0.0021247156,-0.004237472,-0.09965959
1734276153945,2024-12-15T15:22:33.945Z,19747,-5.878548E-4,-0.007600006,-0.088603996
1734276153949,2024-12-15T15:22:33.949Z,19751,-5.878548E-4,-0.007600006,-0.088603996
1734276153962,2024-12-15T15:22:33.962Z,19764,-0.008119776,-0.012415616,-0.09265375
1734276153966,2024-12-15T15:22:33.966Z,19768,-0.008119776,-0.012415616,-0.09265375
1734276153980,2024-12-15T15:22:33.980Z,19782,-0.012155458,-0.011354935,-0.09696646
1734276153984,2024-12-15T15:22:33.984Z,19786,-0.012155458,-0.011354935,-0.09696646
1734276153998,2024-12-15T15:22:33.998Z,19800,-0.011309813,-0.009790511,-0.096289605
1734276154001,2024-12-15T15:22:34.001Z,19803,-0.011309813,-0.009790511,-0.096289605
1734276154013,2024-12-15T15:22:34.013Z,19815,-0.008572823,-0.0067430595,-0.10424432
1734276154017,2024-12-15T15:22:34.017Z,19819,-0.008572823,-0.0067430595,-0.10424432
1734276154030,2024-12-15T15:22:34.030Z,19832,-0.006354008,-0.009553518,-0.088605076
1734276154034,2024-12-15T15:22:34.034Z,19836,-0.006354008,-0.009553518,-0.088605076
1734276154048,2024-12-15T15:22:34.048Z,19850,0.005467947,-0.010417078,-0.084624805
1734276154052,2024-12-15T15:22:34.052Z,19854,0.005467947,-0.010417078,-0.084624805
1734276154066,2024-12-15T15:22:34.066Z,19868,0.017577112,-0.011779907,-0.078166306
1734276154070,2024-12-15T15:22:34.070Z,19872,0.017577112,-0.011779907,-0.078166306
1734276154083,2024-12-15T15:22:34.083Z,19885,0.0150703965,-0.01168762,-0.06914988
1734276154087,2024-12-15T15:22:34.087Z,19889,0.0150703965,-0.01168762,-0.06914988
1734276154100,2024-12-15T15:22:34.100Z,19902,0.0073342808,-0.020884335,-0.0595234
1734276154104,2024-12-15T15:22:34.104Z,19906,0.0073342808,-0.020884335,-0.0595234
1734276154117,2024-12-15T15:22:34.117Z,19919,-0.012484553,-0.027645774,-0.0549933
1734276154120,2024-12-15T15:22:34.120Z,19922,-0.012484553,-0.027645774,-0.0549933
1734276154131,2024-12-15T15:22:34.131Z,19933,-0.018520098,-0.03489209,-0.048993077
1734276154134,2024-12-15T15:22:34.134Z,19936,-0.018520098,-0.03489209,-0.048993077
1734276154144,2024-12-15T15:22:34.144Z,19946,-0.008455854,-0.037736002,-0.053625666
1734276154147,2024-12-15T15:22:34.147Z,19949,-0.008455854,-0.037736002,-0.053625666
1734276154158,2024-12-15T15:22:34.158Z,19960,-0.010118353,-0.043487623,-0.07109052
1734276154161,2024-12-15T15:22:34.161Z,19963,-0.010118353,-0.043487623,-0.07109052
1734276154172,2024-12-15T15:22:34.172Z,19974,-0.008808259,-0.045803964,-0.07172367
1734276154175,2024-12-15T15:22:34.175Z,19977,-0.008808259,-0.045803964,-0.07172367
1734276154185,2024-12-15T15:22:34.185Z,19987,0.00367368,-0.045193348,-0.058327585
1734276154188,2024-12-15T15:22:34.188Z,19990,0.00367368,-0.045193348,-0.058327585
1734276154200,2024-12-15T15:22:34.200Z,20002,0.029137142,-0.039709453,-0.052975893
1734276154204,2024-12-15T15:22:34.204Z,20006,0.029137142,-0.039709453,-0.052975893
1734276154216,2024-12-15T15:22:34.216Z,20018,0.03932234,-0.046003032,-0.042313933
1734276154220,2024-12-15T15:22:34.220Z,20022,0.03932234,-0.046003032,-0.042313933
1734276154233,2024-12-15T15:22:34.233Z,20035,0.024835033,-0.050340377,-0.035525616
1734276154237,2024-12-15T15:22:34.237Z,20039,0.024835033,-0.050340377,-0.035525616
1734276154250,2024-12-15T15:22:34.250Z,20052,0.023235545,-0.047781304,-0.056982458
1734276154254,2024-12-15T15:22:34.254Z,20056,0.023235545,-0.047781304,-0.056982458
1734276154266,2024-12-15T15:22:34.266Z,20068,-7.519049E-4,-0.049608003,-0.05901509
1734276154270,2024-12-15T15:22:34.270Z,20072,-7.519049E-4,-0.049608003,-0.05901509
1734276154282,2024-12-15T15:22:34.282Z,20084,0.018702723,-0.045073148,-0.06531357
1734276154286,2024-12-15T15:22:34.286Z,20088,0.018702723,-0.045073148,-0.06531357
1734276154295,2024-12-15T15:22:34.295Z,20097,0.016850993,-0.030162545,-0.066916935
1734276154299,2024-12-15T15:22:34.299Z,20101,0.016850993,-0.030162545,-0.066916935
1734276154309,2024-12-15T15:22:34.309Z,20111,-0.017358525,-0.025980603,-0.07482674
1734276154313,2024-12-15T15:22:34.313Z,20115,-0.017358525,-0.025980603,-0.07482674
1734276154324,2024-12-15T15:22:34.324Z,20126,-0.033519216,-0.026344405,-0.08970251
1734276154327,2024-12-15T15:22:34.327Z,20129,-0.033519216,-0.026344405,-0.08970251
1734276154338,2024-12-15T15:22:34.338Z,20140,-0.014274797,-0.025724256,-0.08595302
1734276154341,2024-12-15T15:22:34.341Z,20143,-0.014274797,-0.025724256,-0.08595302
1734276154353,2024-12-15T15:22:34.353Z,20155,0.009247093,-0.020706665,-0.074372545
1734276154357,2024-12-15T15:22:34.357Z,20159,0.009247093,-0.020706665,-0.074372545
1734276154370,2024-12-15T15:22:34.370Z,20172,0.020673722,-0.00787298,-0.05838664
1734276154378,2024-12-15T15:22:34.378Z,20180,0.020673722,-0.00787298,-0.05838664
1734276154390,2024-12-15T15:22:34.390Z,20192,0.028613282,-0.0057753474,-0.041379243
1734276154393,2024-12-15T15:22:34.393Z,20195,0.028613282,-0.0057753474,-0.041379243
1734276154404,2024-12-15T15:22:34.404Z,20206,0.019424414,-0.012465699,-0.039516352
1734276154407,2024-12-15T15:22:34.407Z,20209,0.019424414,-0.012465699,-0.039516352
1734276154419,2024-12-15T15:22:34.419Z,20221,0.001995772,-0.023532294,-0.035549425
1734276154422,2024-12-15T15:22:34.422Z,20224,0.001995772,-0.023532294,-0.035549425
1734276154433,2024-12-15T15:22:34.433Z,20235,-0.019890605,-0.030189386,-0.045136396
1734276154436,2024-12-15T15:22:34.436Z,20238,-0.019890605,-0.030189386,-0.045136396
1734276154447,2024-12-15T15:22:34.447Z,20249,-0.04061083,-0.042201523,-0.04775023
1734276154450,2024-12-15T15:22:34.450Z,20252,-0.04061083,-0.042201523,-0.04775023
1734276154464,2024-12-15T15:22:34.464Z,20266,-0.032701038,-0.05272538,-0.04334068
1734276154468,2024-12-15T15:22:34.468Z,20270,-0.032701038,-0.05272538,-0.04334068
1734276154480,2024-12-15T15:22:34.480Z,20282,-0.010288507,-0.05248323,-0.03875426
1734276154484,2024-12-15T15:22:34.484Z,20286,-0.010288507,-0.05248323,-0.03875426
1734276154495,2024-12-15T15:22:34.495Z,20297,8.694603E-4,-0.055639792,-0.03990227
1734276154499,2024-12-15T15:22:34.499Z,20301,8.694603E-4,-0.055639792,-0.03990227
1734276154512,2024-12-15T15:22:34.512Z,20314,-0.008908301,-0.06318631,-0.045456145
1734276154515,2024-12-15T15:22:34.515Z,20317,-0.008908301,-0.06318631,-0.045456145
1734276154526,2024-12-15T15:22:34.526Z,20328,-0.024031535,-0.065845646,-0.052486148
1734276154531,2024-12-15T15:22:34.531Z,20333,-0.024031535,-0.065845646,-0.052486148
1734276154543,2024-12-15T15:22:34.543Z,20345,-0.027039219,-0.0660628,-0.06199064
1734276154546,2024-12-15T15:22:34.546Z,20348,-0.027039219,-0.0660628,-0.06199064
1734276154557,2024-12-15T15:22:34.557Z,20359,-0.016449742,-0.05144229,-0.05443814
1734276154561,2024-12-15T15:22:34.561Z,20363,-0.016449742,-0.05144229,-0.05443814
1734276154571,2024-12-15T15:22:34.571Z,20373,0.01720386,-0.025157109,-0.038602054
1734276154574,2024-12-15T15:22:34.574Z,20376,0.01720386,-0.025157109,-0.038602054
1734276154585,2024-12-15T15:22:34.585Z,20387,0.019147446,-0.009724382,-0.030013502
1734276154588,2024-12-15T15:22:34.588Z,20390,0.019147446,-0.009724382,-0.030013502
1734276154597,2024-12-15T15:22:34.597Z,20399,0.009674393,0.009024977,-0.007372556
1734276154602,2024-12-15T15:22:34.602Z,20404,0.009674393,0.009024977,-0.007372556
1734276154611,2024-12-15T15:22:34.611Z,20413,-0.0040957476,0.023857003,-0.0036540343
1734276154614,2024-12-15T15:22:34.614Z,20416,-0.0040957476,0.023857003,-0.0036540343
1734276154624,2024-12-15T15:22:34.624Z,20426,-0.018932499,0.03280992,-0.026449483
1734276154628,2024-12-15T15:22:34.628Z,20430,-0.018932499,0.03280992,-0.026449483
1734276154638,2024-12-15T15:22:34.638Z,20440,-0.0401933,0.022177633,-0.061343018
1734276154641,2024-12-15T15:22:34.641Z,20443,-0.0401933,0.022177633,-0.061343018
1734276154652,2024-12-15T15:22:34.652Z,20454,-7.6564396E-4,0.023227908,-0.02714332
1734276154656,2024-12-15T15:22:34.656Z,20458,-7.6564396E-4,0.023227908,-0.02714332
1734276154667,2024-12-15T15:22:34.667Z,20469,0.031225108,0.05110766,0.022013223
1734276154671,2024-12-15T15:22:34.671Z,20473,0.031225108,0.05110766,0.022013223
1734276154682,2024-12-15T15:22:34.682Z,20484,0.025809182,0.06966214,0.03617428
1734276154686,2024-12-15T15:22:34.686Z,20488,0.025809182,0.06966214,0.03617428
1734276154695,2024-12-15T15:22:34.695Z,20497,0.049482528,0.075033806,0.02787494
1734276154699,2024-12-15T15:22:34.699Z,20501,0.049482528,0.075033806,0.02787494
1734276154709,2024-12-15T15:22:34.709Z,20511,0.067132175,0.07847122,0.00700891
1734276154713,2024-12-15T15:22:34.713Z,20515,0.067132175,0.07847122,0.00700891
1734276154723,2024-12-15T15:22:34.723Z,20525,0.022313721,0.059893116,-0.011220271
1734276154726,2024-12-15T15:22:34.726Z,20528,0.022313721,0.059893116,-0.011220271
1734276154735,2024-12-15T15:22:34.735Z,20537,-0.023774711,0.036380272,-0.023459734
1734276154738,2024-12-15T15:22:34.738Z,20540,-0.023774711,0.036380272,-0.023459734
1734276154747,2024-12-15T15:22:34.747Z,20549,-0.008048505,0.03532202,-0.029882072
1734276154750,2024-12-15T15:22:34.750Z,20552,-0.008048505,0.03532202,-0.029882072
1734276154759,2024-12-15T15:22:34.759Z,20561,-0.03195733,0.014050253,-0.040579807
1734276154763,2024-12-15T15:22:34.763Z,20565,-0.03195733,0.014050253,-0.040579807
1734276154772,2024-12-15T15:22:34.772Z,20574,-0.026660044,0.013866454,-0.023798266
1734276154775,2024-12-15T15:22:34.775Z,20577,-0.026660044,0.013866454,-0.023798266
1734276154784,2024-12-15T15:22:34.784Z,20586,0.035660636,0.024910003,-0.0314644
1734276154787,2024-12-15T15:22:34.787Z,20589,0.035660636,0.024910003,-0.0314644
1734276154796,2024-12-15T15:22:34.796Z,20598,0.072770014,0.028613487,-0.043163482
1734276154799,2024-12-15T15:22:34.799Z,20601,0.072770014,0.028613487,-0.043163482
1734276154808,2024-12-15T15:22:34.808Z,20610,0.06759745,0.024981381,-0.04276088
1734276154810,2024-12-15T15:22:34.810Z,20612,0.06759745,0.024981381,-0.04276088
1734276154820,2024-12-15T15:22:34.820Z,20622,0.020180315,0.008630346,-0.04695263
1734276154823,2024-12-15T15:22:34.823Z,20625,0.020180315,0.008630346,-0.04695263
1734276154832,2024-12-15T15:22:34.832Z,20634,-0.008598082,-0.003808415,-0.043798923
1734276154835,2024-12-15T15:22:34.835Z,20637,-0.008598082,-0.003808415,-0.043798923
1734276154844,2024-12-15T15:22:34.844Z,20646,0.004420325,0.0038017049,-0.04337536
1734276154847,2024-12-15T15:22:34.847Z,20649,0.004420325,0.0038017049,-0.04337536
1734276154856,2024-12-15T15:22:34.856Z,20658,0.01595672,0.004109008,-0.05501172
1734276154859,2024-12-15T15:22:34.859Z,20661,0.01595672,0.004109008,-0.05501172
1734276154868,2024-12-15T15:22:34.868Z,20670,0.020697549,-0.0063046664,-0.053805374
1734276154871,2024-12-15T15:22:34.871Z,20673,0.020697549,-0.0063046664,-0.053805374
1734276154882,2024-12-15T15:22:34.882Z,20684,0.023360081,-0.01963305,-0.059329506
1734276154886,2024-12-15T15:22:34.886Z,20688,0.023360081,-0.01963305,-0.059329506
1734276154896,2024-12-15T15:22:34.896Z,20698,0.017419524,-0.02209225,-0.05262858
1734276154900,2024-12-15T15:22:34.900Z,20702,0.017419524,-0.02209225,-0.05262858
1734276154909,2024-12-15T15:22:34.909Z,20711,0.009213476,-0.008935315,-0.05723417
1734276154912,2024-12-15T15:22:34.912Z,20714,0.009213476,-0.008935315,-0.05723417
1734276154923,2024-12-15T15:22:34.923Z,20725,-0.0032963678,-0.011857317,-0.07378486
1734276154926,2024-12-15T15:22:34.926Z,20728,-0.0032963678,-0.011857317,-0.07378486
1734276154937,2024-12-15T15:22:34.937Z,20739,0.014216221,-0.026945397,-0.07730809
1734276154942,2024-12-15T15:22:34.942Z,20744,0.014216221,-0.026945397,-0.07730809
1734276154957,2024-12-15T15:22:34.957Z,20759,0.038149063,-0.026353547,-0.07697764
1734276154960,2024-12-15T15:22:34.960Z,20762,0.038149063,-0.026353547,-0.07697764
1734276154971,2024-12-15T15:22:34.971Z,20773,0.03557466,-0.019392263,-0.076477885
1734276154974,2024-12-15T15:22:34.974Z,20776,0.03557466,-0.019392263,-0.076477885
1734276154984,2024-12-15T15:22:34.984Z,20786,0.030159561,-0.019277707,-0.06924098
1734276154987,2024-12-15T15:22:34.987Z,20789,0.030159561,-0.019277707,-0.06924098
1734276154996,2024-12-15T15:22:34.996Z,20798,0.035622645,-0.019674089,-0.04948959
1734276154999,2024-12-15T15:22:34.999Z,20801,0.035622645,-0.019674089,-0.04948959
1734276155009,2024-12-15T15:22:35.009Z,20811,0.03188546,-0.018610295,-0.051756874
1734276155012,2024-12-15T15:22:35.012Z,20814,0.03188546,-0.018610295,-0.051756874
1734276155024,2024-12-15T15:22:35.024Z,20826,0.021463154,-0.02582802,-0.05925551
1734276155027,2024-12-15T15:22:35.027Z,20829,0.021463154,-0.02582802,-0.05925551
1734276155039,2024-12-15T15:22:35.039Z,20841,0.023780009,-0.02766114,-0.052009694
1734276155042,2024-12-15T15:22:35.042Z,20844,0.023780009,-0.02766114,-0.052009694
1734276155054,2024-12-15T15:22:35.054Z,20856,0.004413649,-0.03729625,-0.05251352
1734276155058,2024-12-15T15:22:35.058Z,20860,0.004413649,-0.03729625,-0.05251352
1734276155068,2024-12-15T15:22:35.068Z,20870,0.013352238,-0.03908434,-0.04691395
1734276155071,2024-12-15T15:22:35.071Z,20873,0.013352238,-0.03908434,-0.04691395
1734276155081,2024-12-15T15:22:35.081Z,20883,0.01821064,-0.028634785,-0.050861564
1734276155084,2024-12-15T15:22:35.084Z,20886,0.01821064,-0.028634785,-0.050861564
1734276155095,2024-12-15T15:22:35.095Z,20897,0.0031494722,-0.019143116,-0.05762457
1734276155100,2024-12-15T15:22:35.100Z,20902,0.0031494722,-0.019143116,-0.05762457
1734276155110,2024-12-15T15:22:35.110Z,20912,0.0127051985,-0.021295499,-0.08291484
1734276155114,2024-12-15T15:22:35.114Z,20916,0.0127051985,-0.021295499,-0.08291484
1734276155123,2024-12-15T15:22:35.123Z,20925,0.019052854,-0.025070656,-0.092251174
1734276155126,2024-12-15T15:22:35.126Z,20928,0.019052854,-0.025070656,-0.092251174
1734276155136,2024-12-15T15:22:35.136Z,20938,0.0072286497,-0.034222834,-0.08844616
1734276155140,2024-12-15T15:22:35.140Z,20942,0.0072286497,-0.034222834,-0.08844616
1734276155152,2024-12-15T15:22:35.152Z,20954,-7.823108E-4,-0.03751029,-0.08070413
1734276155155,2024-12-15T15:22:35.155Z,20957,-7.823108E-4,-0.03751029,-0.08070413
1734276155164,2024-12-15T15:22:35.164Z,20966,-0.010748445,-0.032005098,-0.07782462
1734276155167,2024-12-15T15:22:35.167Z,20969,-0.010748445,-0.032005098,-0.07782462
1734276155177,2024-12-15T15:22:35.177Z,20979,-0.004701316,-0.026010847,-0.085687615
1734276155181,2024-12-15T15:22:35.181Z,20983,-0.004701316,-0.026010847,-0.085687615
1734276155193,2024-12-15T15:22:35.193Z,20995,0.013213061,-0.008018074,-0.070187636
1734276155198,2024-12-15T15:22:35.198Z,21000,0.013213061,-0.008018074,-0.070187636
1734276155209,2024-12-15T15:22:35.209Z,21011,0.012961738,-0.0071270904,-0.06360991
1734276155212,2024-12-15T15:22:35.212Z,21014,0.012961738,-0.0071270904,-0.06360991
1734276155223,2024-12-15T15:22:35.223Z,21025,0.007789821,-0.020422311,-0.05481133
1734276155227,2024-12-15T15:22:35.227Z,21029,0.007789821,-0.020422311,-0.05481133
1734276155238,2024-12-15T15:22:35.238Z,21040,-0.009541124,-0.022474531,-0.04939413
1734276155241,2024-12-15T15:22:35.241Z,21043,-0.009541124,-0.022474531,-0.04939413
1734276155253,2024-12-15T15:22:35.253Z,21055,0.0039255098,-0.0127889495,-0.0482955
1734276155256,2024-12-15T15:22:35.256Z,21058,0.0039255098,-0.0127889495,-0.0482955
1734276155266,2024-12-15T15:22:35.266Z,21068,2.927633E-4,-0.0055003306,-0.06503465
1734276155269,2024-12-15T15:22:35.269Z,21071,2.927633E-4,-0.0055003306,-0.06503465
1734276155278,2024-12-15T15:22:35.278Z,21080,-0.028883955,-0.00937079,-0.07016163
1734276155282,2024-12-15T15:22:35.282Z,21084,-0.028883955,-0.00937079,-0.07016163
1734276155291,2024-12-15T15:22:35.291Z,21093,-0.04706773,-0.016614286,-0.057992008
1734276155294,2024-12-15T15:22:35.294Z,21096,-0.04706773,-0.016614286,-0.057992008
1734276155306,2024-12-15T15:22:35.306Z,21108,-0.028153345,-0.00843867,-0.05393679
1734276155308,2024-12-15T15:22:35.308Z,21110,-0.028153345,-0.00843867,-0.05393679
1734276155318,2024-12-15T15:22:35.318Z,21120,9.4744575E-4,0.010509366,-0.03167951
1734276155322,2024-12-15T15:22:35.322Z,21124,9.4744575E-4,0.010509366,-0.03167951
1734276155331,2024-12-15T15:22:35.331Z,21133,-0.013357236,0.02165269,-0.016736805
1734276155334,2024-12-15T15:22:35.334Z,21136,-0.013357236,0.02165269,-0.016736805
1734276155343,2024-12-15T15:22:35.343Z,21145,-0.032939143,0.023043526,-0.028119918
1734276155346,2024-12-15T15:22:35.346Z,21148,-0.032939143,0.023043526,-0.028119918
1734276155356,2024-12-15T15:22:35.356Z,21158,-0.03545853,0.030823344,-0.035896674
1734276155359,2024-12-15T15:22:35.359Z,21161,-0.03545853,0.030823344,-0.035896674
1734276155371,2024-12-15T15:22:35.371Z,21173,-0.03218346,0.03520873,-0.05189008
1734276155374,2024-12-15T15:22:35.374Z,21176,-0.03218346,0.03520873,-0.05189008
1734276155384,2024-12-15T15:22:35.384Z,21186,-0.022440156,0.036667056,-0.08157792
1734276155388,2024-12-15T15:22:35.388Z,21190,-0.022440156,0.036667056,-0.08157792
1734276155399,2024-12-15T15:22:35.399Z,21201,0.003410361,0.046899654,-0.081112824
1734276155402,2024-12-15T15:22:35.402Z,21204,0.003410361,0.046899654,-0.081112824
1734276155412,2024-12-15T15:22:35.412Z,21214,-0.011651738,0.058533788,-0.062452737
1734276155415,2024-12-15T15:22:35.415Z,21217,-0.011651738,0.058533788,-0.062452737
1734276155425,2024-12-15T15:22:35.425Z,21227,-0.024819218,0.060338024,-0.05193513
1734276155427,2024-12-15T15:22:35.427Z,21229,-0.024819218,0.060338024,-0.05193513
1734276155436,2024-12-15T15:22:35.436Z,21238,0.0055502644,0.062131077,-0.06004069
1734276155440,2024-12-15T15:22:35.440Z,21242,0.0055502644,0.062131077,-0.06004069
1734276155452,2024-12-15T15:22:35.452Z,21254,0.008243575,0.06485635,-0.053239867
1734276155456,2024-12-15T15:22:35.456Z,21258,0.008243575,0.06485635,-0.053239867
1734276155467,2024-12-15T15:22:35.467Z,21269,7.755505E-6,0.06857987,-0.044855703
1734276155470,2024-12-15T15:22:35.470Z,21272,7.755505E-6,0.06857987,-0.044855703
1734276155481,2024-12-15T15:22:35.481Z,21283,0.0014182546,0.081556216,-0.049310584
1734276155484,2024-12-15T15:22:35.484Z,21286,0.0014182546,0.081556216,-0.049310584
1734276155495,2024-12-15T15:22:35.495Z,21297,-0.019477276,0.07741832,-0.047537733
1734276155499,2024-12-15T15:22:35.499Z,21301,-0.019477276,0.07741832,-0.047537733
1734276155510,2024-12-15T15:22:35.510Z,21312,-0.02365393,0.07228345,-0.034148242
1734276155514,2024-12-15T15:22:35.514Z,21316,-0.02365393,0.07228345,-0.034148242
1734276155529,2024-12-15T15:22:35.529Z,21331,-0.01812525,0.079815865,-0.026765708
1734276155533,2024-12-15T15:22:35.533Z,21335,-0.01812525,0.079815865,-0.026765708
1734276155544,2024-12-15T15:22:35.544Z,21346,-0.013993673,0.07610451,-0.03458739
1734276155548,2024-12-15T15:22:35.548Z,21350,-0.013993673,0.07610451,-0.03458739
1734276155559,2024-12-15T15:22:35.559Z,21361,0.0018182329,0.07678475,-0.037547756
1734276155562,2024-12-15T15:22:35.562Z,21364,0.0018182329,0.07678475,-0.037547756
1734276155571,2024-12-15T15:22:35.571Z,21373,-0.006756461,0.07891837,-0.035195954
1734276155574,2024-12-15T15:22:35.574Z,21376,-0.006756461,0.07891837,-0.035195954
1734276155583,2024-12-15T15:22:35.583Z,21385,-0.010886489,0.07908165,-0.028044624
1734276155586,2024-12-15T15:22:35.586Z,21388,-0.010886489,0.07908165,-0.028044624
1734276155595,2024-12-15T15:22:35.595Z,21397,-0.018443963,0.076313004,-0.021885647
1734276155600,2024-12-15T15:22:35.600Z,21402,-0.018443963,0.076313004,-0.021885647
1734276155610,2024-12-15T15:22:35.610Z,21412,-0.012288212,0.06965115,-0.034219574
1734276155613,2024-12-15T15:22:35.613Z,21415,-0.012288212,0.06965115,-0.034219574
1734276155623,2024-12-15T15:22:35.623Z,21425,0.011394435,0.06739841,-0.05235151
1734276155627,2024-12-15T15:22:35.627Z,21429,0.011394435,0.06739841,-0.05235151
1734276155639,2024-12-15T15:22:35.639Z,21441,0.008694156,0.057339296,-0.0655762
1734276155642,2024-12-15T15:22:35.642Z,21444,0.008694156,0.057339296,-0.0655762
1734276155652,2024-12-15T15:22:35.652Z,21454,0.0027264575,0.04278569,-0.06266718
1734276155656,2024-12-15T15:22:35.656Z,21458,0.0027264575,0.04278569,-0.06266718
1734276155665,2024-12-15T15:22:35.665Z,21467,0.010392018,0.04240156,-0.052881412
1734276155668,2024-12-15T15:22:35.668Z,21470,0.010392018,0.04240156,-0.052881412
1734276155679,2024-12-15T15:22:35.679Z,21481,0.007720388,0.03859402,-0.038734008
1734276155684,2024-12-15T15:22:35.684Z,21486,0.007720388,0.03859402,-0.038734008
1734276155694,2024-12-15T15:22:35.694Z,21496,-0.015817387,0.025492515,-0.021728957
1734276155698,2024-12-15T15:22:35.698Z,21500,-0.015817387,0.025492515,-0.021728957
1734276155709,2024-12-15T15:22:35.709Z,21511,-0.02272491,0.029022511,-0.014351332
1734276155711,2024-12-15T15:22:35.711Z,21513,-0.02272491,0.029022511,-0.014351332
1734276155721,2024-12-15T15:22:35.721Z,21523,-0.010159217,0.026242198,-0.03658819
1734276155724,2024-12-15T15:22:35.724Z,21526,-0.010159217,0.026242198,-0.03658819
1734276155732,2024-12-15T15:22:35.732Z,21534,0.018402604,0.011763084,-0.0528818
1734276155735,2024-12-15T15:22:35.735Z,21537,0.018402604,0.011763084,-0.0528818
1734276155746,2024-12-15T15:22:35.746Z,21548,0.01839336,0.0032205526,-0.04685927
1734276155750,2024-12-15T15:22:35.750Z,21552,0.01839336,0.0032205526,-0.04685927
1734276155761,2024-12-15T15:22:35.761Z,21563,-0.009133592,0.0024848736,-0.040856246
1734276155764,2024-12-15T15:22:35.764Z,21566,-0.009133592,0.0024848736,-0.040856246
1734276155775,2024-12-15T15:22:35.775Z,21577,-0.024822636,0.0027575563,-0.044476584
1734276155777,2024-12-15T15:22:35.777Z,21579,-0.024822636,0.0027575563,-0.044476584
1734276155787,2024-12-15T15:22:35.787Z,21589,-0.024946755,-0.0027592094,-0.05804507
1734276155790,2024-12-15T15:22:35.790Z,21592,-0.024946755,-0.0027592094,-0.05804507
1734276155798,2024-12-15T15:22:35.798Z,21600,-0.0036216674,-0.0058232904,-0.053023003
1734276155801,2024-12-15T15:22:35.801Z,21603,-0.0036216674,-0.0058232904,-0.053023003
1734276155810,2024-12-15T15:22:35.810Z,21612,0.020368597,-0.005046767,-0.029269228
1734276155813,2024-12-15T15:22:35.813Z,21615,0.020368597,-0.005046767,-0.029269228
1734276155823,2024-12-15T15:22:35.823Z,21625,0.024814576,-0.001833314,-0.015799131
1734276155826,2024-12-15T15:22:35.826Z,21628,0.024814576,-0.001833314,-0.015799131
1734276155838,2024-12-15T15:22:35.838Z,21640,0.0045526177,0.0013727488,-0.032148175
1734276155841,2024-12-15T15:22:35.841Z,21643,0.0045526177,0.0013727488,-0.032148175
1734276155850,2024-12-15T15:22:35.850Z,21652,-0.0034293458,0.007034219,-0.04697624
1734276155853,2024-12-15T15:22:35.853Z,21655,-0.0034293458,0.007034219,-0.04697624
1734276155863,2024-12-15T15:22:35.863Z,21665,0.0025597664,0.008316139,-0.04417339
1734276155867,2024-12-15T15:22:35.867Z,21669,0.0025597664,0.008316139,-0.04417339
1734276155876,2024-12-15T15:22:35.876Z,21678,0.012973323,0.0032404882,-0.03116952
1734276155879,2024-12-15T15:22:35.879Z,21681,0.012973323,0.0032404882,-0.03116952
1734276155888,2024-12-15T15:22:35.888Z,21690,0.019093886,0.0030470625,-0.016706575
1734276155891,2024-12-15T15:22:35.891Z,21693,0.019093886,0.0030470625,-0.016706575
1734276155901,2024-12-15T15:22:35.901Z,21703,3.1047282E-4,0.006745977,-0.013053512
1734276155903,2024-12-15T15:22:35.903Z,21705,3.1047282E-4,0.006745977,-0.013053512
1734276155913,2024-12-15T15:22:35.913Z,21715,-0.013600625,0.010458408,-0.015698358
1734276155916,2024-12-15T15:22:35.916Z,21718,-0.013600625,0.010458408,-0.015698358
1734276155927,2024-12-15T15:22:35.927Z,21729,-0.0013029496,0.017124545,-0.021181354
1734276155930,2024-12-15T15:22:35.930Z,21732,-0.0013029496,0.017124545,-0.021181354
1734276155940,2024-12-15T15:22:35.940Z,21742,0.002035357,0.020388275,-0.023683077
1734276155943,2024-12-15T15:22:35.943Z,21745,0.002035357,0.020388275,-0.023683077
1734276155951,2024-12-15T15:22:35.951Z,21753,-0.0068469793,0.027548527,-0.025745798
1734276155954,2024-12-15T15:22:35.954Z,21756,-0.0068469793,0.027548527,-0.025745798
1734276155964,2024-12-15T15:22:35.964Z,21766,-0.0069272593,0.027870612,-0.02929016
1734276155968,2024-12-15T15:22:35.968Z,21770,-0.0069272593,0.027870612,-0.02929016
1734276155980,2024-12-15T15:22:35.980Z,21782,0.0046494827,0.026712975,-0.0250938
1734276155985,2024-12-15T15:22:35.985Z,21787,0.0046494827,0.026712975,-0.0250938
1734276155996,2024-12-15T15:22:35.996Z,21798,-0.0032763705,0.02697321,-0.011819001
1734276156000,2024-12-15T15:22:36Z,21802,-0.0032763705,0.02697321,-0.011819001
1734276156010,2024-12-15T15:22:36.010Z,21812,-0.0058042407,0.034018517,0.001243774
1734276156015,2024-12-15T15:22:36.015Z,21817,-0.0058042407,0.034018517,0.001243774
1734276156025,2024-12-15T15:22:36.025Z,21827,8.992922E-4,0.045441523,0.010327269
1734276156028,2024-12-15T15:22:36.028Z,21830,8.992922E-4,0.045441523,0.010327269
1734276156038,2024-12-15T15:22:36.038Z,21840,-0.004136711,0.05246534,0.019876266
1734276156041,2024-12-15T15:22:36.041Z,21843,-0.004136711,0.05246534,0.019876266
1734276156050,2024-12-15T15:22:36.050Z,21852,-0.010724917,0.05018974,0.015172346
1734276156052,2024-12-15T15:22:36.052Z,21854,-0.010724917,0.05018974,0.015172346
1734276156063,2024-12-15T15:22:36.063Z,21865,-0.006162636,0.040586624,0.013866697
1734276156066,2024-12-15T15:22:36.066Z,21868,-0.006162636,0.040586624,0.013866697
1734276156081,2024-12-15T15:22:36.081Z,21883,-0.011280037,0.038281854,-0.0051201163
1734276156085,2024-12-15T15:22:36.085Z,21887,-0.011280037,0.038281854,-0.0051201163
1734276156096,2024-12-15T15:22:36.096Z,21898,-0.017233782,0.041297603,-0.028213775
1734276156100,2024-12-15T15:22:36.100Z,21902,-0.017233782,0.041297603,-0.028213775
1734276156111,2024-12-15T15:22:36.111Z,21913,0.0010358614,0.04719354,-0.0324696
1734276156115,2024-12-15T15:22:36.115Z,21917,0.0010358614,0.04719354,-0.0324696
1734276156125,2024-12-15T15:22:36.125Z,21927,0.012525966,0.047168933,-0.03550548
1734276156128,2024-12-15T15:22:36.128Z,21930,0.012525966,0.047168933,-0.03550548
1734276156141,2024-12-15T15:22:36.141Z,21943,0.033137646,0.043177303,-0.04024069
1734276156144,2024-12-15T15:22:36.144Z,21946,0.033137646,0.043177303,-0.04024069
1734276156154,2024-12-15T15:22:36.154Z,21956,0.03113213,0.03618247,-0.05747019
1734276156158,2024-12-15T15:22:36.158Z,21960,0.03113213,0.03618247,-0.05747019
1734276156171,2024-12-15T15:22:36.171Z,21973,-0.0038658231,0.029603275,-0.06668991
1734276156174,2024-12-15T15:22:36.174Z,21976,-0.0038658231,0.029603275,-0.06668991
1734276156185,2024-12-15T15:22:36.185Z,21987,-0.008621894,0.03668923,-0.054459352
1734276156189,2024-12-15T15:22:36.189Z,21991,-0.008621894,0.03668923,-0.054459352
1734276156199,2024-12-15T15:22:36.199Z,22001,0.020000182,0.044756413,-0.03440809
1734276156203,2024-12-15T15:22:36.203Z,22005,0.020000182,0.044756413,-0.03440809
1734276156215,2024-12-15T15:22:36.215Z,22017,0.024121165,0.05045017,-0.032152284
1734276156218,2024-12-15T15:22:36.218Z,22020,0.024121165,0.05045017,-0.032152284
1734276156230,2024-12-15T15:22:36.230Z,22032,-0.0012659058,0.05465983,-0.049991135
1734276156233,2024-12-15T15:22:36.233Z,22035,-0.0012659058,0.05465983,-0.049991135
1734276156243,2024-12-15T15:22:36.243Z,22045,-0.018348016,0.05256725,-0.06862339
1734276156248,2024-12-15T15:22:36.248Z,22050,-0.018348016,0.05256725,-0.06862339
1734276156259,2024-12-15T15:22:36.259Z,22061,-0.021871388,0.051469035,-0.04861107
1734276156262,2024-12-15T15:22:36.262Z,22064,-0.021871388,0.051469035,-0.04861107
1734276156272,2024-12-15T15:22:36.272Z,22074,-0.011422746,0.05178052,-0.0044188877
1734276156275,2024-12-15T15:22:36.275Z,22077,-0.011422746,0.05178052,-0.0044188877
1734276156287,2024-12-15T15:22:36.287Z,22089,0.0068223844,0.05168142,-0.013616115
1734276156290,2024-12-15T15:22:36.290Z,22092,0.0068223844,0.05168142,-0.013616115
1734276156301,2024-12-15T15:22:36.301Z,22103,0.011893108,0.053594965,-0.033797227
1734276156305,2024-12-15T15:22:36.305Z,22107,0.011893108,0.053594965,-0.033797227
1734276156316,2024-12-15T15:22:36.316Z,22118,-0.0036148354,0.056036368,-0.059674457
1734276156320,2024-12-15T15:22:36.320Z,22122,-0.0036148354,0.056036368,-0.059674457
1734276156333,2024-12-15T15:22:36.333Z,22135,-0.019728115,0.054571528,-0.07383462
1734276156336,2024-12-15T15:22:36.336Z,22138,-0.019728115,0.054571528,-0.07383462
1734276156348,2024-12-15T15:22:36.348Z,22150,-0.032468043,0.06287269,-0.06504433
1734276156351,2024-12-15T15:22:36.351Z,22153,-0.032468043,0.06287269,-0.06504433
1734276156362,2024-12-15T15:22:36.362Z,22164,-0.012826978,0.06433802,-0.07041235
1734276156364,2024-12-15T15:22:36.364Z,22166,-0.012826978,0.06433802,-0.07041235
1734276156373,2024-12-15T15:22:36.373Z,22175,0.03177303,0.06632391,-0.07613317
1734276156376,2024-12-15T15:22:36.376Z,22178,0.03177303,0.06632391,-0.07613317
1734276156384,2024-12-15T15:22:36.384Z,22186,0.025198847,0.07173244,-0.08622872
1734276156387,2024-12-15T15:22:36.387Z,22189,0.025198847,0.07173244,-0.08622872
1734276156397,2024-12-15T15:22:36.397Z,22199,-6.940218E-4,0.06733695,-0.09159855
1734276156404,2024-12-15T15:22:36.404Z,22206,-6.940218E-4,0.06733695,-0.09159855
1734276156413,2024-12-15T15:22:36.413Z,22215,-0.010099432,0.07810353,-0.09540083
1734276156416,2024-12-15T15:22:36.416Z,22218,-0.010099432,0.07810353,-0.09540083
1734276156425,2024-12-15T15:22:36.425Z,22227,-0.0052875057,0.09232552,-0.091723606
1734276156428,2024-12-15T15:22:36.428Z,22230,-0.0052875057,0.09232552,-0.091723606
1734276156439,2024-12-15T15:22:36.439Z,22241,-0.0043252106,0.10719703,-0.063942656
1734276156442,2024-12-15T15:22:36.442Z,22244,-0.0043252106,0.10719703,-0.063942656
1734276156452,2024-12-15T15:22:36.452Z,22254,-0.020951062,0.1199498,-0.051497333
1734276156455,2024-12-15T15:22:36.455Z,22257,-0.020951062,0.1199498,-0.051497333
1734276156463,2024-12-15T15:22:36.463Z,22265,-0.009223535,0.13711724,-0.071195856
1734276156466,2024-12-15T15:22:36.466Z,22268,-0.009223535,0.13711724,-0.071195856
1734276156474,2024-12-15T15:22:36.474Z,22276,-0.005297176,0.15624616,-0.10062931
1734276156477,2024-12-15T15:22:36.477Z,22279,-0.005297176,0.15624616,-0.10062931
1734276156485,2024-12-15T15:22:36.485Z,22287,-0.008655041,0.17291597,-0.09986217
1734276156488,2024-12-15T15:22:36.488Z,22290,-0.008655041,0.17291597,-0.09986217
1734276156501,2024-12-15T15:22:36.501Z,22303,-0.004384689,0.19835217,-0.07868038
1734276156505,2024-12-15T15:22:36.505Z,22307,-0.004384689,0.19835217,-0.07868038
1734276156515,2024-12-15T15:22:36.515Z,22317,-0.011829711,0.22667284,-0.07868123
1734276156518,2024-12-15T15:22:36.518Z,22320,-0.011829711,0.22667284,-0.07868123
1734276156526,2024-12-15T15:22:36.526Z,22328,-0.020079352,0.25938883,-0.06305678
1734276156529,2024-12-15T15:22:36.529Z,22331,-0.020079352,0.25938883,-0.06305678
1734276156538,2024-12-15T15:22:36.538Z,22340,-0.03181027,0.29890817,-0.05098423
1734276156541,2024-12-15T15:22:36.541Z,22343,-0.03181027,0.29890817,-0.05098423
1734276156551,2024-12-15T15:22:36.551Z,22353,-0.029518252,0.32234633,-0.061727744
1734276156554,2024-12-15T15:22:36.554Z,22356,-0.029518252,0.32234633,-0.061727744
1734276156565,2024-12-15T15:22:36.565Z,22367,-0.0038169026,0.33357728,-0.055871
1734276156569,2024-12-15T15:22:36.569Z,22371,-0.0038169026,0.33357728,-0.055871
1734276156579,2024-12-15T15:22:36.579Z,22381,-0.009881554,0.33064786,-0.056850016
1734276156582,2024-12-15T15:22:36.582Z,22384,-0.009881554,0.33064786,-0.056850016
1734276156592,2024-12-15T15:22:36.592Z,22394,-0.016151076,0.3223471,-0.06368719
1734276156595,2024-12-15T15:22:36.595Z,22397,-0.016151076,0.3223471,-0.06368719
1734276156606,2024-12-15T15:22:36.606Z,22408,-0.015298713,0.31599885,-0.06466385
1734276156609,2024-12-15T15:22:36.609Z,22411,-0.015298713,0.31599885,-0.06466385
1734276156624,2024-12-15T15:22:36.624Z,22426,-0.01753221,0.29939663,-0.05978014
1734276156628,2024-12-15T15:22:36.628Z,22430,-0.01753221,0.29939663,-0.05978014
1734276156638,2024-12-15T15:22:36.638Z,22440,-0.025261924,0.2852357,-0.060266696
1734276156640,2024-12-15T15:22:36.640Z,22442,-0.025261924,0.2852357,-0.060266696
1734276156648,2024-12-15T15:22:36.648Z,22450,-0.035201006,0.26470187,-0.046694633
1734276156651,2024-12-15T15:22:36.651Z,22453,-0.035201006,0.26470187,-0.046694633
1734276156661,2024-12-15T15:22:36.661Z,22463,-0.035197806,0.2495284,-0.04293105
1734276156665,2024-12-15T15:22:36.665Z,22467,-0.035197806,0.2495284,-0.04293105
1734276156674,2024-12-15T15:22:36.674Z,22476,-0.028467989,0.24317996,-0.033652816
1734276156676,2024-12-15T15:22:36.676Z,22478,-0.028467989,0.24317996,-0.033652816
1734276156685,2024-12-15T15:22:36.685Z,22487,-0.026629915,0.22898978,-0.028405985
1734276156687,2024-12-15T15:22:36.687Z,22489,-0.026629915,0.22898978,-0.028405985
1734276156697,2024-12-15T15:22:36.697Z,22499,-0.007750332,0.20794974,-0.022733841
1734276156700,2024-12-15T15:22:36.700Z,22502,-0.007750332,0.20794974,-0.022733841
1734276156710,2024-12-15T15:22:36.710Z,22512,0.018493434,0.17762586,-0.02929974
1734276156713,2024-12-15T15:22:36.713Z,22515,0.018493434,0.17762586,-0.02929974
1734276156723,2024-12-15T15:22:36.723Z,22525,0.011220283,0.15019482,-0.03553368
1734276156726,2024-12-15T15:22:36.726Z,22528,0.011220283,0.15019482,-0.03553368
1734276156735,2024-12-15T15:22:36.735Z,22537,-0.026633602,0.1344295,-0.047845997
1734276156738,2024-12-15T15:22:36.738Z,22540,-0.026633602,0.1344295,-0.047845997
1734276156745,2024-12-15T15:22:36.745Z,22547,-0.050390758,0.12153494,-0.053084
1734276156748,2024-12-15T15:22:36.748Z,22550,-0.050390758,0.12153494,-0.053084
1734276156757,2024-12-15T15:22:36.757Z,22559,-0.048958324,0.112487406,-0.05711548
1734276156760,2024-12-15T15:22:36.760Z,22562,-0.048958324,0.112487406,-0.05711548
1734276156770,2024-12-15T15:22:36.770Z,22572,-0.02949376,0.115107454,-0.05160788
1734276156773,2024-12-15T15:22:36.773Z,22575,-0.02949376,0.115107454,-0.05160788
1734276156783,2024-12-15T15:22:36.783Z,22585,-0.006989121,0.10836925,-0.04059178
1734276156787,2024-12-15T15:22:36.787Z,22589,-0.006989121,0.10836925,-0.04059178
1734276156795,2024-12-15T15:22:36.795Z,22597,0.011712529,0.084429786,-0.04813003
1734276156797,2024-12-15T15:22:36.797Z,22599,0.011712529,0.084429786,-0.04813003
1734276156807,2024-12-15T15:22:36.807Z,22609,0.018414207,0.061848186,-0.06005321
1734276156811,2024-12-15T15:22:36.811Z,22613,0.018414207,0.061848186,-0.06005321
1734276156821,2024-12-15T15:22:36.821Z,22623,3.5560905E-4,0.05579082,-0.055742536
1734276156824,2024-12-15T15:22:36.824Z,22626,3.5560905E-4,0.05579082,-0.055742536
1734276156833,2024-12-15T15:22:36.833Z,22635,-0.01954776,0.047220573,-0.046906218
1734276156836,2024-12-15T15:22:36.836Z,22638,-0.01954776,0.047220573,-0.046906218
1734276156846,2024-12-15T15:22:36.846Z,22648,-0.01847919,0.04982584,-0.038376864
1734276156849,2024-12-15T15:22:36.849Z,22651,-0.01847919,0.04982584,-0.038376864
1734276156859,2024-12-15T15:22:36.859Z,22661,-0.019874683,0.0543675,-0.033413075
1734276156862,2024-12-15T15:22:36.862Z,22664,-0.019874683,0.0543675,-0.033413075
1734276156871,2024-12-15T15:22:36.871Z,22673,-0.008992293,0.039840445,-0.03401083
1734276156873,2024-12-15T15:22:36.873Z,22675,-0.008992293,0.039840445,-0.03401083
1734276156882,2024-12-15T15:22:36.882Z,22684,-8.1464714E-5,0.019924305,-0.037222438
1734276156885,2024-12-15T15:22:36.885Z,22687,-8.1464714E-5,0.019924305,-0.037222438
1734276156896,2024-12-15T15:22:36.896Z,22698,-0.009760639,0.007817743,-0.021011524
1734276156898,2024-12-15T15:22:36.898Z,22700,-0.009760639,0.007817743,-0.021011524
1734276156907,2024-12-15T15:22:36.907Z,22709,-0.012058683,0.0035443874,-0.024324
1734276156910,2024-12-15T15:22:36.910Z,22712,-0.012058683,0.0035443874,-0.024324
1734276156920,2024-12-15T15:22:36.920Z,22722,-0.004022665,0.008585904,-0.036815554
1734276156923,2024-12-15T15:22:36.923Z,22725,-0.004022665,0.008585904,-0.036815554
1734276156932,2024-12-15T15:22:36.932Z,22734,-0.017997963,-5.3486245E-4,-0.039165154
1734276156935,2024-12-15T15:22:36.935Z,22737,-0.017997963,-5.3486245E-4,-0.039165154
1734276156943,2024-12-15T15:22:36.943Z,22745,-0.040802594,-0.016491171,-0.040646262
1734276156946,2024-12-15T15:22:36.946Z,22748,-0.040802594,-0.016491171,-0.040646262
1734276156954,2024-12-15T15:22:36.954Z,22756,-0.040642276,-0.019241434,-0.05285728
1734276156957,2024-12-15T15:22:36.957Z,22759,-0.040642276,-0.019241434,-0.05285728
1734276156967,2024-12-15T15:22:36.967Z,22769,-0.006846682,-0.01979526,-0.06425514
1734276156970,2024-12-15T15:22:36.970Z,22772,-0.006846682,-0.01979526,-0.06425514
1734276156978,2024-12-15T15:22:36.978Z,22780,0.01426775,-0.032769173,-0.053056847
1734276156981,2024-12-15T15:22:36.981Z,22783,0.01426775,-0.032769173,-0.053056847
1734276156989,2024-12-15T15:22:36.989Z,22791,0.012073091,-0.052095406,-0.066902444
1734276156992,2024-12-15T15:22:36.992Z,22794,0.012073091,-0.052095406,-0.066902444
1734276157000,2024-12-15T15:22:37Z,22802,0.0022571818,-0.06017037,-0.09147725
1734276157003,2024-12-15T15:22:37.003Z,22805,0.0022571818,-0.06017037,-0.09147725
1734276157012,2024-12-15T15:22:37.012Z,22814,6.894924E-4,-0.05209278,-0.080300316
1734276157015,2024-12-15T15:22:37.015Z,22817,6.894924E-4,-0.05209278,-0.080300316
1734276157024,2024-12-15T15:22:37.024Z,22826,-0.0023663484,-0.052297585,-0.07646398
1734276157026,2024-12-15T15:22:37.026Z,22828,-0.0023663484,-0.052297585,-0.07646398
1734276157037,2024-12-15T15:22:37.037Z,22839,-0.007276475,-0.06713088,-0.06725126
1734276157040,2024-12-15T15:22:37.040Z,22842,-0.007276475,-0.06713088,-0.06725126
1734276157051,2024-12-15T15:22:37.051Z,22853,-0.019327685,-0.07623705,-0.064501055
1734276157054,2024-12-15T15:22:37.054Z,22856,-0.019327685,-0.07623705,-0.064501055
1734276157062,2024-12-15T15:22:37.062Z,22864,-0.008419595,-0.07943573,-0.07463038
1734276157065,2024-12-15T15:22:37.065Z,22867,-0.008419595,-0.07943573,-0.07463038
1734276157073,2024-12-15T15:22:37.073Z,22875,-5.7675494E-5,-0.08456,-0.07386338
1734276157076,2024-12-15T15:22:37.076Z,22878,-5.7675494E-5,-0.08456,-0.07386338
1734276157084,2024-12-15T15:22:37.084Z,22886,-0.010379924,-0.093910754,-0.08615852
1734276157086,2024-12-15T15:22:37.086Z,22888,-0.010379924,-0.093910754,-0.08615852
1734276157095,2024-12-15T15:22:37.095Z,22897,-0.020727685,-0.09492748,-0.0988203
1734276157098,2024-12-15T15:22:37.098Z,22900,-0.020727685,-0.09492748,-0.0988203
1734276157109,2024-12-15T15:22:37.109Z,22911,-0.022455497,-0.092981555,-0.103555895
1734276157114,2024-12-15T15:22:37.114Z,22916,-0.022455497,-0.092981555,-0.103555895
1734276157127,2024-12-15T15:22:37.127Z,22929,-0.005371675,-0.093504556,-0.07647727
1734276157129,2024-12-15T15:22:37.129Z,22931,-0.005371675,-0.093504556,-0.07647727
1734276157139,2024-12-15T15:22:37.139Z,22941,-0.0016573594,-0.094062366,-0.06433797
1734276157143,2024-12-15T15:22:37.143Z,22945,-0.0016573594,-0.094062366,-0.06433797
1734276157152,2024-12-15T15:22:37.152Z,22954,-0.008084655,-0.09367367,-0.06365001
1734276157154,2024-12-15T15:22:37.154Z,22956,-0.008084655,-0.09367367,-0.06365001
1734276157163,2024-12-15T15:22:37.163Z,22965,-0.0025259259,-0.09308405,-0.06329779
1734276157166,2024-12-15T15:22:37.166Z,22968,-0.0025259259,-0.09308405,-0.06329779
1734276157176,2024-12-15T15:22:37.176Z,22978,0.0055002123,-0.098315984,-0.06173607
1734276157179,2024-12-15T15:22:37.179Z,22981,0.0055002123,-0.098315984,-0.06173607
1734276157188,2024-12-15T15:22:37.188Z,22990,-0.008741155,-0.09815231,-0.06734097
1734276157191,2024-12-15T15:22:37.191Z,22993,-0.008741155,-0.09815231,-0.06734097
1734276157199,2024-12-15T15:22:37.199Z,23001,-0.02444692,-0.101858035,-0.06488064
1734276157202,2024-12-15T15:22:37.202Z,23004,-0.02444692,-0.101858035,-0.06488064
1734276157211,2024-12-15T15:22:37.211Z,23013,-0.02707123,-0.10476555,-0.059768178
1734276157214,2024-12-15T15:22:37.214Z,23016,-0.02707123,-0.10476555,-0.059768178
1734276157223,2024-12-15T15:22:37.223Z,23025,-0.025759658,-0.10519752,-0.061200976
1734276157226,2024-12-15T15:22:37.226Z,23028,-0.025759658,-0.10519752,-0.061200976
1734276157235,2024-12-15T15:22:37.235Z,23037,-0.028336573,-0.09878559,-0.053782422
1734276157238,2024-12-15T15:22:37.238Z,23040,-0.028336573,-0.09878559,-0.053782422
1734276157247,2024-12-15T15:22:37.247Z,23049,-0.030061526,-0.10312012,-0.046413783
1734276157249,2024-12-15T15:22:37.249Z,23051,-0.030061526,-0.10312012,-0.046413783
1734276157258,2024-12-15T15:22:37.258Z,23060,-0.022125289,-0.103055544,-0.042444397
1734276157262,2024-12-15T15:22:37.262Z,23064,-0.022125289,-0.103055544,-0.042444397
1734276157273,2024-12-15T15:22:37.273Z,23075,-0.009605066,-0.09617128,-0.03132361
1734276157276,2024-12-15T15:22:37.276Z,23078,-0.009605066,-0.09617128,-0.03132361
1734276157287,2024-12-15T15:22:37.287Z,23089,-0.010648146,-0.085487746,-0.015277883
1734276157290,2024-12-15T15:22:37.290Z,23092,-0.010648146,-0.085487746,-0.015277883
1734276157297,2024-12-15T15:22:37.297Z,23099,-0.002860993,-0.078196794,-0.021970386
1734276157300,2024-12-15T15:22:37.300Z,23102,-0.002860993,-0.078196794,-0.021970386
1734276157309,2024-12-15T15:22:37.309Z,23111,-0.012099296,-0.069901854,-0.058213953
1734276157312,2024-12-15T15:22:37.312Z,23114,-0.012099296,-0.069901854,-0.058213953
1734276157320,2024-12-15T15:22:37.320Z,23122,-0.03289263,-0.0640382,-0.081655815
1734276157322,2024-12-15T15:22:37.322Z,23124,-0.03289263,-0.0640382,-0.081655815
1734276157330,2024-12-15T15:22:37.330Z,23132,-0.03817138,-0.060125537,-0.08312293
1734276157332,2024-12-15T15:22:37.332Z,23134,-0.03817138,-0.060125537,-0.08312293
1734276157341,2024-12-15T15:22:37.341Z,23143,-0.03483416,-0.055735387,-0.06420034
1734276157344,2024-12-15T15:22:37.344Z,23146,-0.03483416,-0.055735387,-0.06420034
1734276157354,2024-12-15T15:22:37.354Z,23156,-0.0035939442,-0.053283386,-0.0314729
1734276157357,2024-12-15T15:22:37.357Z,23159,-0.0035939442,-0.053283386,-0.0314729
1734276157366,2024-12-15T15:22:37.366Z,23168,0.008720537,-0.053275216,-0.0099786855
1734276157370,2024-12-15T15:22:37.370Z,23172,0.008720537,-0.053275216,-0.0099786855
1734276157380,2024-12-15T15:22:37.380Z,23182,-0.017396152,-0.05864144,-0.0011853889
1734276157382,2024-12-15T15:22:37.382Z,23184,-0.017396152,-0.05864144,-0.0011853889
1734276157392,2024-12-15T15:22:37.392Z,23194,-0.037658527,-0.07084331,0.0037008226
1734276157395,2024-12-15T15:22:37.395Z,23197,-0.037658527,-0.07084331,0.0037008226
1734276157404,2024-12-15T15:22:37.404Z,23206,-0.031233814,-0.07083475,0.0051709893
1734276157407,2024-12-15T15:22:37.407Z,23209,-0.031233814,-0.07083475,0.0051709893
1734276157415,2024-12-15T15:22:37.415Z,23217,-0.028366638,-0.06494397,-0.0063804104
1734276157418,2024-12-15T15:22:37.418Z,23220,-0.028366638,-0.06494397,-0.0063804104
1734276157426,2024-12-15T15:22:37.426Z,23228,-0.042519838,-0.06296089,-0.049178924
1734276157429,2024-12-15T15:22:37.429Z,23231,-0.042519838,-0.06296089,-0.049178924
1734276157441,2024-12-15T15:22:37.441Z,23243,-0.04940579,-0.05804463,-0.05290278
1734276157443,2024-12-15T15:22:37.443Z,23245,-0.04940579,-0.05804463,-0.05290278
1734276157453,2024-12-15T15:22:37.453Z,23255,-0.0341195,-0.03750047,-0.03712356
1734276157456,2024-12-15T15:22:37.456Z,23258,-0.0341195,-0.03750047,-0.03712356
1734276157464,2024-12-15T15:22:37.464Z,23266,-0.032446876,-0.016484266,-0.013173516
1734276157468,2024-12-15T15:22:37.468Z,23270,-0.032446876,-0.016484266,-0.013173516
1734276157476,2024-12-15T15:22:37.476Z,23278,-0.010602688,-0.0032824993,0.0015068412
1734276157478,2024-12-15T15:22:37.478Z,23280,-0.010602688,-0.0032824993,0.0015068412
1734276157486,2024-12-15T15:22:37.486Z,23288,0.008433275,0.0025928186,0.0034936364
1734276157489,2024-12-15T15:22:37.489Z,23291,0.008433275,0.0025928186,0.0034936364
1734276157497,2024-12-15T15:22:37.497Z,23299,0.013067885,0.008462399,-0.0052605057
1734276157502,2024-12-15T15:22:37.502Z,23304,0.013067885,0.008462399,-0.0052605057
1734276157511,2024-12-15T15:22:37.511Z,23313,-0.0039508725,0.0118614985,-0.011750222
1734276157514,2024-12-15T15:22:37.514Z,23316,-0.0039508725,0.0118614985,-0.011750222
1734276157522,2024-12-15T15:22:37.522Z,23324,-0.003756184,0.012797411,-0.009608147
1734276157525,2024-12-15T15:22:37.525Z,23327,-0.003756184,0.012797411,-0.009608147
1734276157533,2024-12-15T15:22:37.533Z,23335,-0.006879396,0.016154498,-0.024705684
1734276157536,2024-12-15T15:22:37.536Z,23338,-0.006879396,0.016154498,-0.024705684
1734276157546,2024-12-15T15:22:37.546Z,23348,-0.024946868,0.018506533,-0.044400476
1734276157549,2024-12-15T15:22:37.549Z,23351,-0.024946868,0.018506533,-0.044400476
1734276157559,2024-12-15T15:22:37.559Z,23361,-0.033187583,0.026207967,-0.048163183
1734276157562,2024-12-15T15:22:37.562Z,23364,-0.033187583,0.026207967,-0.048163183
1734276157569,2024-12-15T15:22:37.569Z,23371,-0.02445757,0.02215021,-0.03423066
1734276157572,2024-12-15T15:22:37.572Z,23374,-0.02445757,0.02215021,-0.03423066
1734276157581,2024-12-15T15:22:37.581Z,23383,-0.010939023,0.007314195,-0.020157238
1734276157584,2024-12-15T15:22:37.584Z,23386,-0.010939023,0.007314195,-0.020157238
1734276157601,2024-12-15T15:22:37.601Z,23403,0.0031729909,-0.008504702,-0.002234947
1734276157604,2024-12-15T15:22:37.604Z,23406,0.0031729909,-0.008504702,-0.002234947
1734276157612,2024-12-15T15:22:37.612Z,23414,-0.005120147,-0.019950174,0.010600773
1734276157614,2024-12-15T15:22:37.614Z,23416,-0.005120147,-0.019950174,0.010600773
1734276157622,2024-12-15T15:22:37.622Z,23424,-0.022705786,-0.03433136,0.024811083
1734276157625,2024-12-15T15:22:37.625Z,23427,-0.022705786,-0.03433136,0.024811083
1734276157632,2024-12-15T15:22:37.632Z,23434,-0.031715672,-0.04968026,0.026820311
1734276157634,2024-12-15T15:22:37.634Z,23436,-0.031715672,-0.04968026,0.026820311
1734276157643,2024-12-15T15:22:37.643Z,23445,-0.026818516,-0.064032756,0.0225858
1734276157646,2024-12-15T15:22:37.646Z,23448,-0.026818516,-0.064032756,0.0225858
1734276157658,2024-12-15T15:22:37.658Z,23460,-0.026943233,-0.0681088,0.009721161
1734276157661,2024-12-15T15:22:37.661Z,23463,-0.026943233,-0.0681088,0.009721161
1734276157672,2024-12-15T15:22:37.672Z,23474,-0.02030667,-0.067285694,-9.897386E-5
1734276157676,2024-12-15T15:22:37.676Z,23478,-0.02030667,-0.067285694,-9.897386E-5
1734276157684,2024-12-15T15:22:37.684Z,23486,-0.009355095,-0.065477856,-0.00255302
1734276157687,2024-12-15T15:22:37.687Z,23489,-0.009355095,-0.065477856,-0.00255302
1734276157695,2024-12-15T15:22:37.695Z,23497,-0.0027830366,-0.053400762,-0.0043820124
1734276157697,2024-12-15T15:22:37.697Z,23499,-0.0027830366,-0.053400762,-0.0043820124
1734276157705,2024-12-15T15:22:37.705Z,23507,0.005886699,-0.046202097,-0.0056700157
1734276157708,2024-12-15T15:22:37.708Z,23510,0.005886699,-0.046202097,-0.0056700157
1734276157715,2024-12-15T15:22:37.715Z,23517,0.013332671,-0.04144931,-0.004039287
1734276157719,2024-12-15T15:22:37.719Z,23521,0.013332671,-0.04144931,-0.004039287
1734276157729,2024-12-15T15:22:37.729Z,23531,0.011487386,-0.030829374,-0.016507842
1734276157732,2024-12-15T15:22:37.732Z,23534,0.011487386,-0.030829374,-0.016507842
1734276157741,2024-12-15T15:22:37.741Z,23543,0.0030733363,-0.027539775,-0.020698939
1734276157743,2024-12-15T15:22:37.743Z,23545,0.0030733363,-0.027539775,-0.020698939
1734276157751,2024-12-15T15:22:37.751Z,23553,0.00346827,-0.013995016,-0.011706917
1734276157754,2024-12-15T15:22:37.754Z,23556,0.00346827,-0.013995016,-0.011706917
1734276157762,2024-12-15T15:22:37.762Z,23564,4.6659302E-4,-0.014620221,0.008392453
1734276157764,2024-12-15T15:22:37.764Z,23566,4.6659302E-4,-0.014620221,0.008392453
1734276157772,2024-12-15T15:22:37.772Z,23574,-0.0073443465,-0.02063295,-0.0019663244
1734276157775,2024-12-15T15:22:37.775Z,23577,-0.0073443465,-0.02063295,-0.0019663244
1734276157782,2024-12-15T15:22:37.782Z,23584,-0.020038951,-0.022735057,-0.03135371
1734276157784,2024-12-15T15:22:37.784Z,23586,-0.020038951,-0.022735057,-0.03135371
1734276157795,2024-12-15T15:22:37.795Z,23597,-0.029238595,-0.012599511,-0.039409995
1734276157797,2024-12-15T15:22:37.797Z,23599,-0.029238595,-0.012599511,-0.039409995
1734276157806,2024-12-15T15:22:37.806Z,23608,-0.030035056,-5.4653217E-5,-0.037196152
1734276157809,2024-12-15T15:22:37.809Z,23611,-0.030035056,-5.4653217E-5,-0.037196152
1734276157819,2024-12-15T15:22:37.819Z,23621,-0.0119210025,0.017376415,-0.024748346
1734276157823,2024-12-15T15:22:37.823Z,23625,-0.0119210025,0.017376415,-0.024748346
1734276157832,2024-12-15T15:22:37.832Z,23634,0.011450659,0.025529956,-0.02115184
1734276157834,2024-12-15T15:22:37.834Z,23636,0.011450659,0.025529956,-0.02115184
1734276157843,2024-12-15T15:22:37.843Z,23645,0.03822279,0.027826266,0.0029328149
1734276157846,2024-12-15T15:22:37.846Z,23648,0.03822279,0.027826266,0.0029328149
1734276157857,2024-12-15T15:22:37.857Z,23659,0.044238288,0.02914018,0.0015660529
1734276157859,2024-12-15T15:22:37.859Z,23661,0.044238288,0.02914018,0.0015660529
1734276157867,2024-12-15T15:22:37.867Z,23669,0.011418938,0.025565743,-0.01548961
1734276157870,2024-12-15T15:22:37.870Z,23672,0.011418938,0.025565743,-0.01548961
1734276157878,2024-12-15T15:22:37.878Z,23680,-0.011623152,0.029323103,-0.0256589
1734276157880,2024-12-15T15:22:37.880Z,23682,-0.011623152,0.029323103,-0.0256589
1734276157891,2024-12-15T15:22:37.891Z,23693,-0.017719273,0.030153405,-0.0178056
1734276157894,2024-12-15T15:22:37.894Z,23696,-0.017719273,0.030153405,-0.0178056
1734276157902,2024-12-15T15:22:37.902Z,23704,-0.013227995,0.030991778,-0.011883081
1734276157904,2024-12-15T15:22:37.904Z,23706,-0.013227995,0.030991778,-0.011883081
1734276157912,2024-12-15T15:22:37.912Z,23714,-0.011167233,0.0240197,-0.010373444
1734276157915,2024-12-15T15:22:37.915Z,23717,-0.011167233,0.0240197,-0.010373444
1734276157925,2024-12-15T15:22:37.925Z,23727,-0.010255805,0.0038624848,-0.018266318
1734276157928,2024-12-15T15:22:37.928Z,23730,-0.010255805,0.0038624848,-0.018266318
1734276157936,2024-12-15T15:22:37.936Z,23738,-0.010013303,-0.014823761,-0.017379826
1734276157939,2024-12-15T15:22:37.939Z,23741,-0.010013303,-0.014823761,-0.017379826
1734276157948,2024-12-15T15:22:37.948Z,23750,-0.008885544,-0.023733694,-0.005677285
1734276157951,2024-12-15T15:22:37.951Z,23753,-0.008885544,-0.023733694,-0.005677285
1734276157961,2024-12-15T15:22:37.961Z,23763,-0.007887385,-0.037517585,0.0050891615
1734276157964,2024-12-15T15:22:37.964Z,23766,-0.007887385,-0.037517585,0.0050891615
1734276157973,2024-12-15T15:22:37.973Z,23775,-0.012889393,-0.052749883,0.0033278107
1734276157976,2024-12-15T15:22:37.976Z,23778,-0.012889393,-0.052749883,0.0033278107
1734276157986,2024-12-15T15:22:37.986Z,23788,-0.010662722,-0.066010974,-6.5347424E-4
1734276157989,2024-12-15T15:22:37.989Z,23791,-0.010662722,-0.066010974,-6.5347424E-4
1734276157997,2024-12-15T15:22:37.997Z,23799,-0.01045272,-0.07730182,-0.005867751
1734276157999,2024-12-15T15:22:37.999Z,23801,-0.01045272,-0.07730182,-0.005867751
1734276158009,2024-12-15T15:22:38.009Z,23811,0.0023695696,-0.06761497,-0.036480755
1734276158012,2024-12-15T15:22:38.012Z,23814,0.0023695696,-0.06761497,-0.036480755
1734276158023,2024-12-15T15:22:38.023Z,23825,0.009531738,-0.06518378,-0.037420094
1734276158026,2024-12-15T15:22:38.026Z,23828,0.009531738,-0.06518378,-0.037420094
1734276158033,2024-12-15T15:22:38.033Z,23835,0.0195835,-0.06271427,-0.042570587
1734276158036,2024-12-15T15:22:38.036Z,23838,0.0195835,-0.06271427,-0.042570587
1734276158047,2024-12-15T15:22:38.047Z,23849,0.02053147,-0.054867454,-0.038743403
1734276158050,2024-12-15T15:22:38.050Z,23852,0.02053147,-0.054867454,-0.038743403
1734276158063,2024-12-15T15:22:38.063Z,23865,0.011936441,-0.045076456,-0.033529285
1734276158065,2024-12-15T15:22:38.065Z,23867,0.011936441,-0.045076456,-0.033529285
1734276158073,2024-12-15T15:22:38.073Z,23875,-0.0061629293,-0.038228758,-0.032352414
1734276158076,2024-12-15T15:22:38.076Z,23878,-0.0061629293,-0.038228758,-0.032352414
1734276158084,2024-12-15T15:22:38.084Z,23886,-0.012945267,-0.032844443,-0.03550714
1734276158088,2024-12-15T15:22:38.088Z,23890,-0.012945267,-0.032844443,-0.03550714
1734276158097,2024-12-15T15:22:38.097Z,23899,-0.011866928,-0.030384853,-0.038556423
1734276158099,2024-12-15T15:22:38.099Z,23901,-0.011866928,-0.030384853,-0.038556423
1734276158108,2024-12-15T15:22:38.108Z,23910,-0.01706881,-0.027439026,-0.03868282
1734276158111,2024-12-15T15:22:38.111Z,23913,-0.01706881,-0.027439026,-0.03868282
1734276158122,2024-12-15T15:22:38.122Z,23924,-0.016002696,-0.022537936,-0.03490302
1734276158125,2024-12-15T15:22:38.125Z,23927,-0.016002696,-0.022537936,-0.03490302
1734276158134,2024-12-15T15:22:38.134Z,23936,-0.017917076,-0.01666145,-0.031656086
1734276158137,2024-12-15T15:22:38.137Z,23939,-0.017917076,-0.01666145,-0.031656086
1734276158144,2024-12-15T15:22:38.144Z,23946,-0.022849986,-0.01567672,-0.015418741
1734276158146,2024-12-15T15:22:38.146Z,23948,-0.022849986,-0.01567672,-0.015418741
1734276158154,2024-12-15T15:22:38.154Z,23956,-0.022550339,-0.014203806,-0.011935322
1734276158156,2024-12-15T15:22:38.156Z,23958,-0.022550339,-0.014203806,-0.011935322
1734276158164,2024-12-15T15:22:38.164Z,23966,-0.013554782,-0.006373518,-0.017603934
1734276158167,2024-12-15T15:22:38.167Z,23969,-0.013554782,-0.006373518,-0.017603934
1734276158177,2024-12-15T15:22:38.177Z,23979,-0.0066015,0.006829707,-0.02230516
1734276158179,2024-12-15T15:22:38.179Z,23981,-0.0066015,0.006829707,-0.02230516
1734276158187,2024-12-15T15:22:38.187Z,23989,-0.003189792,0.007338507,-0.01776886
1734276158189,2024-12-15T15:22:38.189Z,23991,-0.003189792,0.007338507,-0.01776886
1734276158198,2024-12-15T15:22:38.198Z,24000,-0.002719189,0.0014972258,-0.011330039
1734276158201,2024-12-15T15:22:38.201Z,24003,-0.002719189,0.0014972258,-0.011330039
1734276158209,2024-12-15T15:22:38.209Z,24011,-0.010498526,0.0015126882,-0.0083367545
1734276158212,2024-12-15T15:22:38.212Z,24014,-0.010498526,0.0015126882,-0.0083367545
1734276158221,2024-12-15T15:22:38.221Z,24023,-0.024017764,0.0015282478,-0.018962143
1734276158224,2024-12-15T15:22:38.224Z,24026,-0.024017764,0.0015282478,-0.018962143
1734276158232,2024-12-15T15:22:38.232Z,24034,-0.02775847,0.004971109,-0.017218055
1734276158235,2024-12-15T15:22:38.235Z,24037,-0.02775847,0.004971109,-0.017218055
1734276158243,2024-12-15T15:22:38.243Z,24045,-0.031011894,0.011346183,-0.01738501
1734276158246,2024-12-15T15:22:38.246Z,24048,-0.031011894,0.011346183,-0.01738501
1734276158268,2024-12-15T15:22:38.268Z,24070,-0.029403728,0.014294539,-0.015272255
1734276158271,2024-12-15T15:22:38.271Z,24073,-0.029403728,0.014294539,-0.015272255
1734276158278,2024-12-15T15:22:38.278Z,24080,-0.023036068,0.017244743,-0.011726944
1734276158281,2024-12-15T15:22:38.281Z,24083,-0.023036068,0.017244743,-0.011726944
1734276158289,2024-12-15T15:22:38.289Z,24091,-0.019148083,0.017256217,-5.7728674E-5
1734276158291,2024-12-15T15:22:38.291Z,24093,-0.019148083,0.017256217,-5.7728674E-5
1734276158299,2024-12-15T15:22:38.299Z,24101,-0.022985892,0.027513713,0.007611542
1734276158301,2024-12-15T15:22:38.301Z,24103,-0.022985892,0.027513713,0.007611542
1734276158309,2024-12-15T15:22:38.309Z,24111,-0.03691234,0.03287459,0.012194991
1734276158311,2024-12-15T15:22:38.311Z,24113,-0.03691234,0.03287459,0.012194991
1734276158318,2024-12-15T15:22:38.318Z,24120,-0.041454215,0.03480583,0.011247932
1734276158321,2024-12-15T15:22:38.321Z,24123,-0.041454215,0.03480583,0.011247932
1734276158328,2024-12-15T15:22:38.328Z,24130,-0.032827783,0.03233545,0.017499745
1734276158331,2024-12-15T15:22:38.331Z,24133,-0.032827783,0.03233545,0.017499745
1734276158340,2024-12-15T15:22:38.340Z,24142,-0.038213305,0.03228809,0.027889311
1734276158344,2024-12-15T15:22:38.344Z,24146,-0.038213305,0.03228809,0.027889311
1734276158352,2024-12-15T15:22:38.352Z,24154,-0.0473164,0.03173193,0.033600807
1734276158354,2024-12-15T15:22:38.354Z,24156,-0.0473164,0.03173193,0.033600807
1734276158362,2024-12-15T15:22:38.362Z,24164,-0.050939452,0.028723571,0.03426397
1734276158364,2024-12-15T15:22:38.364Z,24166,-0.050939452,0.028723571,0.03426397
1734276158372,2024-12-15T15:22:38.372Z,24174,-0.051579885,0.023269141,0.03092185
1734276158375,2024-12-15T15:22:38.375Z,24177,-0.051579885,0.023269141,0.03092185
1734276158382,2024-12-15T15:22:38.382Z,24184,-0.042133886,0.019774642,0.026609685
1734276158384,2024-12-15T15:22:38.384Z,24186,-0.042133886,0.019774642,0.026609685
1734276158392,2024-12-15T15:22:38.392Z,24194,-0.035773393,0.015310777,0.02670735
1734276158395,2024-12-15T15:22:38.395Z,24197,-0.035773393,0.015310777,0.02670735
1734276158402,2024-12-15T15:22:38.402Z,24204,-0.027071016,0.008903611,0.019585669
1734276158405,2024-12-15T15:22:38.405Z,24207,-0.027071016,0.008903611,0.019585669
1734276158413,2024-12-15T15:22:38.413Z,24215,-0.018974697,0.009834856,0.017049579
1734276158415,2024-12-15T15:22:38.415Z,24217,-0.018974697,0.009834856,0.017049579
1734276158423,2024-12-15T15:22:38.423Z,24225,-0.013356898,0.009794498,0.018973649
1734276158426,2024-12-15T15:22:38.426Z,24228,-0.013356898,0.009794498,0.018973649
1734276158434,2024-12-15T15:22:38.434Z,24236,-0.0073394994,0.0014641616,0.014211237
1734276158437,2024-12-15T15:22:38.437Z,24239,-0.0073394994,0.0014641616,0.014211237
1734276158446,2024-12-15T15:22:38.446Z,24248,-0.010059647,-0.009795957,0.009462832
1734276158450,2024-12-15T15:22:38.450Z,24252,-0.010059647,-0.009795957,0.009462832
1734276158459,2024-12-15T15:22:38.459Z,24261,-0.021031238,-0.020077957,0.010147303
1734276158461,2024-12-15T15:22:38.461Z,24263,-0.021031238,-0.020077957,0.010147303
1734276158469,2024-12-15T15:22:38.469Z,24271,-0.031949148,-0.033776466,0.014292982
1734276158472,2024-12-15T15:22:38.472Z,24274,-0.031949148,-0.033776466,0.014292982
1734276158481,2024-12-15T15:22:38.481Z,24283,-0.03758939,-0.045512903,0.0014891907
1734276158483,2024-12-15T15:22:38.483Z,24285,-0.03758939,-0.045512903,0.0014891907
1734276158495,2024-12-15T15:22:38.495Z,24297,-0.022774898,-0.051867846,-0.01356405
1734276158497,2024-12-15T15:22:38.497Z,24299,-0.022774898,-0.051867846,-0.01356405
1734276158510,2024-12-15T15:22:38.510Z,24312,-0.018085495,-0.04600828,-0.024932202
1734276158513,2024-12-15T15:22:38.513Z,24315,-0.018085495,-0.04600828,-0.024932202
1734276158523,2024-12-15T15:22:38.523Z,24325,-0.019684933,-0.045522626,-0.0338836
1734276158525,2024-12-15T15:22:38.525Z,24327,-0.019684933,-0.045522626,-0.0338836
1734276158532,2024-12-15T15:22:38.532Z,24334,-0.008164718,-0.051871832,-0.050668802
1734276158534,2024-12-15T15:22:38.534Z,24336,-0.008164718,-0.051871832,-0.050668802
1734276158542,2024-12-15T15:22:38.542Z,24344,-9.5087296E-4,-0.04942615,-0.052600943
1734276158545,2024-12-15T15:22:38.545Z,24347,-9.5087296E-4,-0.04942615,-0.052600943
1734276158554,2024-12-15T15:22:38.554Z,24356,0.0049329055,-0.041125476,-0.05746546
1734276158557,2024-12-15T15:22:38.557Z,24359,0.0049329055,-0.041125476,-0.05746546
1734276158566,2024-12-15T15:22:38.566Z,24368,0.0032165106,-0.03185485,-0.049154874
1734276158569,2024-12-15T15:22:38.569Z,24371,0.0032165106,-0.03185485,-0.049154874
1734276158578,2024-12-15T15:22:38.578Z,24380,-0.01122889,-0.034790564,-0.03303307
1734276158581,2024-12-15T15:22:38.581Z,24383,-0.01122889,-0.034790564,-0.03303307
1734276158591,2024-12-15T15:22:38.591Z,24393,-1.9411252E-4,-0.03919365,-0.040345583
1734276158594,2024-12-15T15:22:38.594Z,24396,-1.9411252E-4,-0.03919365,-0.040345583
1734276158602,2024-12-15T15:22:38.602Z,24404,0.008441433,-0.031355094,-0.0502319
1734276158605,2024-12-15T15:22:38.605Z,24407,0.008441433,-0.031355094,-0.0502319
1734276158615,2024-12-15T15:22:38.615Z,24417,-0.0061652437,-0.024984494,-0.041027606
1734276158618,2024-12-15T15:22:38.618Z,24420,-0.0061652437,-0.024984494,-0.041027606
1734276158627,2024-12-15T15:22:38.627Z,24429,-0.013383485,-0.026421912,-0.04391539
1734276158629,2024-12-15T15:22:38.629Z,24431,-0.013383485,-0.026421912,-0.04391539
1734276158636,2024-12-15T15:22:38.636Z,24438,-0.0075395834,-0.026385736,-0.0345127
1734276158639,2024-12-15T15:22:38.639Z,24441,-0.0075395834,-0.026385736,-0.0345127
1734276158647,2024-12-15T15:22:38.647Z,24449,0.010910376,-0.022437284,-0.031408902
1734276158649,2024-12-15T15:22:38.649Z,24451,0.010910376,-0.022437284,-0.031408902
1734276158658,2024-12-15T15:22:38.658Z,24460,0.026342012,-0.018966027,-0.028646557
1734276158660,2024-12-15T15:22:38.660Z,24462,0.026342012,-0.018966027,-0.028646557
1734276158669,2024-12-15T15:22:38.669Z,24471,0.022699209,-0.019882392,-0.031654235
1734276158671,2024-12-15T15:22:38.671Z,24473,0.022699209,-0.019882392,-0.031654235
1734276158680,2024-12-15T15:22:38.680Z,24482,-0.0041446732,-0.026175778,-0.027371822
1734276158682,2024-12-15T15:22:38.682Z,24484,-0.0041446732,-0.026175778,-0.027371822
1734276158691,2024-12-15T15:22:38.691Z,24493,-0.017229201,-0.02562701,-0.034198847
1734276158693,2024-12-15T15:22:38.693Z,24495,-0.017229201,-0.02562701,-0.034198847
1734276158700,2024-12-15T15:22:38.700Z,24502,-0.010898902,-0.024568468,-0.043653127
1734276158703,2024-12-15T15:22:38.703Z,24505,-0.010898902,-0.024568468,-0.043653127
1734276158711,2024-12-15T15:22:38.711Z,24513,-0.0032759018,-0.02788617,-0.04901686
1734276158713,2024-12-15T15:22:38.713Z,24515,-0.0032759018,-0.02788617,-0.04901686
1734276158723,2024-12-15T15:22:38.723Z,24525,0.0062185084,-0.025826367,-0.046561357
1734276158726,2024-12-15T15:22:38.726Z,24528,0.0062185084,-0.025826367,-0.046561357
1734276158735,2024-12-15T15:22:38.735Z,24537,0.010762084,-0.022298511,-0.039751735
1734276158738,2024-12-15T15:22:38.738Z,24540,0.010762084,-0.022298511,-0.039751735
1734276158747,2024-12-15T15:22:38.747Z,24549,0.0044689276,-0.032444853,-0.03552088
1734276158749,2024-12-15T15:22:38.749Z,24551,0.0044689276,-0.032444853,-0.03552088
1734276158757,2024-12-15T15:22:38.757Z,24559,-0.0057441355,-0.041621145,-0.032913867
1734276158759,2024-12-15T15:22:38.759Z,24561,-0.0057441355,-0.041621145,-0.032913867
1734276158767,2024-12-15T15:22:38.767Z,24569,-0.012642116,-0.054697365,-0.025894994
1734276158770,2024-12-15T15:22:38.770Z,24572,-0.012642116,-0.054697365,-0.025894994
1734276158778,2024-12-15T15:22:38.778Z,24580,-0.007867636,-0.06778856,-0.02697566
1734276158781,2024-12-15T15:22:38.781Z,24583,-0.007867636,-0.06778856,-0.02697566
1734276158788,2024-12-15T15:22:38.788Z,24590,-0.0079790065,-0.07110666,-0.030413123
1734276158790,2024-12-15T15:22:38.790Z,24592,-0.0079790065,-0.07110666,-0.030413123
1734276158799,2024-12-15T15:22:38.799Z,24601,-0.009697278,-0.07441171,-0.023980046
1734276158801,2024-12-15T15:22:38.801Z,24603,-0.009697278,-0.07441171,-0.023980046
1734276158809,2024-12-15T15:22:38.809Z,24611,-0.0031774414,-0.07819397,-0.021844985
1734276158811,2024-12-15T15:22:38.811Z,24613,-0.0031774414,-0.07819397,-0.021844985
1734276158818,2024-12-15T15:22:38.818Z,24620,-0.0010579122,-0.080991395,-0.015731215
1734276158820,2024-12-15T15:22:38.820Z,24622,-0.0010579122,-0.080991395,-0.015731215
1734276158828,2024-12-15T15:22:38.828Z,24630,-0.005724476,-0.08719891,-0.016861496
1734276158831,2024-12-15T15:22:38.831Z,24633,-0.005724476,-0.08719891,-0.016861496
1734276158840,2024-12-15T15:22:38.840Z,24642,-4.357913E-6,-0.09485105,-0.02504587
1734276158843,2024-12-15T15:22:38.843Z,24645,-4.357913E-6,-0.09485105,-0.02504587
1734276158850,2024-12-15T15:22:38.850Z,24652,0.0051839687,-0.098579034,-0.035516895
1734276158852,2024-12-15T15:22:38.852Z,24654,0.0051839687,-0.098579034,-0.035516895
1734276158860,2024-12-15T15:22:38.860Z,24662,-0.0030880724,-0.08812403,-0.0471631
1734276158863,2024-12-15T15:22:38.863Z,24665,-0.0030880724,-0.08812403,-0.0471631
1734276158871,2024-12-15T15:22:38.871Z,24673,-0.014102198,-0.07087238,-0.056852516
1734276158874,2024-12-15T15:22:38.874Z,24676,-0.014102198,-0.07087238,-0.056852516
1734276158882,2024-12-15T15:22:38.882Z,24684,-0.0069579557,-0.052646607,-0.044127014
1734276158885,2024-12-15T15:22:38.885Z,24687,-0.0069579557,-0.052646607,-0.044127014
1734276158892,2024-12-15T15:22:38.892Z,24694,0.01387004,-0.038330674,-0.029047545
1734276158895,2024-12-15T15:22:38.895Z,24697,0.01387004,-0.038330674,-0.029047545
1734276158902,2024-12-15T15:22:38.902Z,24704,0.026066275,-0.043075,-0.017085044
1734276158904,2024-12-15T15:22:38.904Z,24706,0.026066275,-0.043075,-0.017085044
1734276158915,2024-12-15T15:22:38.915Z,24717,0.019844808,-0.058573756,-0.008673044
1734276158917,2024-12-15T15:22:38.917Z,24719,0.019844808,-0.058573756,-0.008673044
1734276158930,2024-12-15T15:22:38.930Z,24732,-0.0068783355,-0.068216935,1.5482443E-4
1734276158933,2024-12-15T15:22:38.933Z,24735,-0.0068783355,-0.068216935,1.5482443E-4
1734276158941,2024-12-15T15:22:38.941Z,24743,-0.03467946,-0.08225377,0.018703287
1734276158944,2024-12-15T15:22:38.944Z,24746,-0.03467946,-0.08225377,0.018703287
1734276158952,2024-12-15T15:22:38.952Z,24754,-0.048083577,-0.10067278,0.02606567
1734276158955,2024-12-15T15:22:38.955Z,24757,-0.048083577,-0.10067278,0.02606567
1734276158963,2024-12-15T15:22:38.963Z,24765,-0.05254545,-0.12053475,0.013527036
1734276158965,2024-12-15T15:22:38.965Z,24767,-0.05254545,-0.12053475,0.013527036
1734276158973,2024-12-15T15:22:38.973Z,24775,-0.053372547,-0.123763956,-0.0075768796
1734276158978,2024-12-15T15:22:38.978Z,24780,-0.053372547,-0.123763956,-0.0075768796
1734276158985,2024-12-15T15:22:38.985Z,24787,-0.043083843,-0.100103974,-0.02304211
1734276158988,2024-12-15T15:22:38.988Z,24790,-0.043083843,-0.100103974,-0.02304211
1734276158996,2024-12-15T15:22:38.996Z,24798,-0.014249681,-0.07055973,-0.019756882
1734276158999,2024-12-15T15:22:38.999Z,24801,-0.014249681,-0.07055973,-0.019756882
1734276159006,2024-12-15T15:22:39.006Z,24808,0.02738382,-0.04588643,-0.0012510918
1734276159009,2024-12-15T15:22:39.009Z,24811,0.02738382,-0.04588643,-0.0012510918
1734276159017,2024-12-15T15:22:39.017Z,24819,0.049670327,-0.0275742,0.005399497
1734276159020,2024-12-15T15:22:39.020Z,24822,0.049670327,-0.0275742,0.005399497
1734276159028,2024-12-15T15:22:39.028Z,24830,0.039092954,-0.030282354,0.002585829
1734276159031,2024-12-15T15:22:39.031Z,24833,0.039092954,-0.030282354,0.002585829
1734276159038,2024-12-15T15:22:39.038Z,24840,0.009762787,-0.038384937,0.00105188
1734276159041,2024-12-15T15:22:39.041Z,24843,0.009762787,-0.038384937,0.00105188
1734276159049,2024-12-15T15:22:39.049Z,24851,-0.029228613,-0.055792667,-0.006594355
1734276159051,2024-12-15T15:22:39.051Z,24853,-0.029228613,-0.055792667,-0.006594355
1734276159060,2024-12-15T15:22:39.060Z,24862,-0.057116207,-0.07760125,-0.012393273
1734276159062,2024-12-15T15:22:39.062Z,24864,-0.057116207,-0.07760125,-0.012393273
1734276159070,2024-12-15T15:22:39.070Z,24872,-0.07542887,-0.089148246,-0.012819826
1734276159073,2024-12-15T15:22:39.073Z,24875,-0.07542887,-0.089148246,-0.012819826
1734276159081,2024-12-15T15:22:39.081Z,24883,-0.08185495,-0.08848219,-0.012788111
1734276159083,2024-12-15T15:22:39.083Z,24885,-0.08185495,-0.08848219,-0.012788111
1734276159092,2024-12-15T15:22:39.092Z,24894,-0.057340384,-0.07606551,-0.0072040865
1734276159094,2024-12-15T15:22:39.094Z,24896,-0.057340384,-0.07606551,-0.0072040865
1734276159102,2024-12-15T15:22:39.102Z,24904,-0.009497444,-0.048472635,0.0025642521
1734276159104,2024-12-15T15:22:39.104Z,24906,-0.009497444,-0.048472635,0.0025642521
1734276159115,2024-12-15T15:22:39.115Z,24917,0.02766585,-0.023804685,0.026020736
1734276159117,2024-12-15T15:22:39.117Z,24919,0.02766585,-0.023804685,0.026020736
1734276159125,2024-12-15T15:22:39.125Z,24927,0.03909792,-0.023082037,0.04785734
1734276159128,2024-12-15T15:22:39.128Z,24930,0.03909792,-0.023082037,0.04785734
1734276159135,2024-12-15T15:22:39.135Z,24937,0.024520434,-0.024806336,0.043814477
1734276159138,2024-12-15T15:22:39.138Z,24940,0.024520434,-0.024806336,0.043814477
1734276159146,2024-12-15T15:22:39.146Z,24948,-0.008276689,-0.016758893,0.028627181
1734276159148,2024-12-15T15:22:39.148Z,24950,-0.008276689,-0.016758893,0.028627181
1734276159164,2024-12-15T15:22:39.164Z,24966,-0.04300906,-0.020444581,0.014769533
1734276159170,2024-12-15T15:22:39.170Z,24972,-0.04300906,-0.020444581,0.014769533
1734276159188,2024-12-15T15:22:39.188Z,24990,-0.0485456,-0.03292584,-0.0025987385
1734276159194,2024-12-15T15:22:39.194Z,24996,-0.0485456,-0.03292584,-0.0025987385
1734276159206,2024-12-15T15:22:39.206Z,25008,-0.010150243,-0.03367095,-8.200292E-4
1734276159209,2024-12-15T15:22:39.209Z,25011,-0.010150243,-0.03367095,-8.200292E-4
1734276159218,2024-12-15T15:22:39.218Z,25020,0.0155781945,-0.006582503,0.0019287139
1734276159221,2024-12-15T15:22:39.221Z,25023,0.0155781945,-0.006582503,0.0019287139
1734276159230,2024-12-15T15:22:39.230Z,25032,-0.01027337,0.012657859,5.176739E-4
1734276159232,2024-12-15T15:22:39.232Z,25034,-0.01027337,0.012657859,5.176739E-4
1734276159241,2024-12-15T15:22:39.241Z,25043,-0.035138093,0.0049923086,-0.006640317
1734276159243,2024-12-15T15:22:39.243Z,25045,-0.035138093,0.0049923086,-0.006640317
1734276159251,2024-12-15T15:22:39.251Z,25053,-0.025043964,0.008549922,-0.0026616214
1734276159253,2024-12-15T15:22:39.253Z,25055,-0.025043964,0.008549922,-0.0026616214
1734276159261,2024-12-15T15:22:39.261Z,25063,-0.030495284,0.025272444,-0.008089247
1734276159263,2024-12-15T15:22:39.263Z,25065,-0.030495284,0.025272444,-0.008089247
1734276159271,2024-12-15T15:22:39.271Z,25073,-0.04846369,0.023396924,-0.01624376
1734276159273,2024-12-15T15:22:39.273Z,25075,-0.04846369,0.023396924,-0.01624376
1734276159282,2024-12-15T15:22:39.282Z,25084,-0.03637591,0.014177744,-0.014803339
1734276159285,2024-12-15T15:22:39.285Z,25087,-0.03637591,0.014177744,-0.014803339
1734276159294,2024-12-15T15:22:39.294Z,25096,-0.02049326,0.0064097913,-0.027152887
1734276159296,2024-12-15T15:22:39.296Z,25098,-0.02049326,0.0064097913,-0.027152887
1734276159303,2024-12-15T15:22:39.303Z,25105,-0.02276647,0.002041813,-0.011735648
1734276159306,2024-12-15T15:22:39.306Z,25108,-0.02276647,0.002041813,-0.011735648
1734276159314,2024-12-15T15:22:39.314Z,25116,-0.028026232,0.0049686776,0.0015097221
1734276159316,2024-12-15T15:22:39.316Z,25118,-0.028026232,0.0049686776,0.0015097221
1734276159324,2024-12-15T15:22:39.324Z,25126,-0.0027136914,0.003962164,-0.007920255
1734276159327,2024-12-15T15:22:39.327Z,25129,-0.0027136914,0.003962164,-0.007920255
1734276159337,2024-12-15T15:22:39.337Z,25139,0.019472618,0.006366516,-0.015475248
1734276159340,2024-12-15T15:22:39.340Z,25142,0.019472618,0.006366516,-0.015475248
1734276159349,2024-12-15T15:22:39.349Z,25151,-0.007039516,-0.0019936755,-0.017797085
1734276159355,2024-12-15T15:22:39.355Z,25157,-0.007039516,-0.0019936755,-0.017797085
1734276159365,2024-12-15T15:22:39.365Z,25167,-0.08054122,-0.019677686,-0.009661852
1734276159367,2024-12-15T15:22:39.367Z,25169,-0.08054122,-0.019677686,-0.009661852
1734276159376,2024-12-15T15:22:39.376Z,25178,-0.09792155,-0.02954444,-0.025914522
1734276159378,2024-12-15T15:22:39.378Z,25180,-0.09792155,-0.02954444,-0.025914522
1734276159386,2024-12-15T15:22:39.386Z,25188,0.0048442506,-0.01736105,-0.031427264
1734276159389,2024-12-15T15:22:39.389Z,25191,0.0048442506,-0.01736105,-0.031427264
1734276159397,2024-12-15T15:22:39.397Z,25199,0.054347042,-0.0046656537,-0.024081063
1734276159399,2024-12-15T15:22:39.399Z,25201,0.054347042,-0.0046656537,-0.024081063
1734276159406,2024-12-15T15:22:39.406Z,25208,0.019001443,-0.0091182375,-0.015610811
1734276159408,2024-12-15T15:22:39.408Z,25210,0.019001443,-0.0091182375,-0.015610811
1734276159416,2024-12-15T15:22:39.416Z,25218,-0.0040010405,-0.0052658664,-0.010033424
1734276159419,2024-12-15T15:22:39.419Z,25221,-0.0040010405,-0.0052658664,-0.010033424
1734276159428,2024-12-15T15:22:39.428Z,25230,0.0042293775,5.8154133E-4,-0.017351301
1734276159431,2024-12-15T15:22:39.431Z,25233,0.0042293775,5.8154133E-4,-0.017351301
1734276159437,2024-12-15T15:22:39.437Z,25239,-0.008909858,-0.008689959,-0.038693722
1734276159440,2024-12-15T15:22:39.440Z,25242,-0.008909858,-0.008689959,-0.038693722
1734276159447,2024-12-15T15:22:39.447Z,25249,-0.036636893,-0.01502662,-0.049753074
1734276159450,2024-12-15T15:22:39.450Z,25252,-0.036636893,-0.01502662,-0.049753074
1734276159457,2024-12-15T15:22:39.457Z,25259,-0.044980694,-0.001818824,-0.044622917
1734276159459,2024-12-15T15:22:39.459Z,25261,-0.044980694,-0.001818824,-0.044622917
1734276159466,2024-12-15T15:22:39.466Z,25268,-0.03781321,0.0026225764,-0.055951204
1734276159468,2024-12-15T15:22:39.468Z,25270,-0.03781321,0.0026225764,-0.055951204
1734276159476,2024-12-15T15:22:39.476Z,25278,-0.030719422,-0.006113672,-0.06968719
1734276159478,2024-12-15T15:22:39.478Z,25280,-0.030719422,-0.006113672,-0.06968719
1734276159484,2024-12-15T15:22:39.484Z,25286,-0.04223561,-0.009979269,-0.07326476
1734276159486,2024-12-15T15:22:39.486Z,25288,-0.04223561,-0.009979269,-0.07326476
1734276159495,2024-12-15T15:22:39.495Z,25297,-0.021696495,-0.0030888792,-0.060645632
1734276159497,2024-12-15T15:22:39.497Z,25299,-0.021696495,-0.0030888792,-0.060645632
1734276159504,2024-12-15T15:22:39.504Z,25306,0.015765833,0.007734986,-0.04638474
1734276159507,2024-12-15T15:22:39.507Z,25309,0.015765833,0.007734986,-0.04638474
1734276159515,2024-12-15T15:22:39.515Z,25317,0.0075031845,0.015624693,-0.049238488
1734276159517,2024-12-15T15:22:39.517Z,25319,0.0075031845,0.015624693,-0.049238488
1734276159524,2024-12-15T15:22:39.524Z,25326,-0.024020724,0.022052962,-0.06231654
1734276159527,2024-12-15T15:22:39.527Z,25329,-0.024020724,0.022052962,-0.06231654
1734276159534,2024-12-15T15:22:39.534Z,25336,-0.02834226,0.029965132,-0.06697848
1734276159536,2024-12-15T15:22:39.536Z,25338,-0.02834226,0.029965132,-0.06697848
1734276159544,2024-12-15T15:22:39.544Z,25346,-0.025010213,0.031545117,-0.07545133
1734276159546,2024-12-15T15:22:39.546Z,25348,-0.025010213,0.031545117,-0.07545133
1734276159554,2024-12-15T15:22:39.554Z,25356,-0.023143822,0.032155346,-0.083393656
1734276159558,2024-12-15T15:22:39.558Z,25360,-0.023143822,0.032155346,-0.083393656
1734276159568,2024-12-15T15:22:39.568Z,25370,-0.02419578,0.037404485,-0.08138738
1734276159570,2024-12-15T15:22:39.570Z,25372,-0.02419578,0.037404485,-0.08138738
1734276159577,2024-12-15T15:22:39.577Z,25379,-0.007026404,0.048000693,-0.07177923
1734276159579,2024-12-15T15:22:39.579Z,25381,-0.007026404,0.048000693,-0.07177923
1734276159586,2024-12-15T15:22:39.586Z,25388,0.012313902,0.05614023,-0.07452208
1734276159588,2024-12-15T15:22:39.588Z,25390,0.012313902,0.05614023,-0.07452208
1734276159597,2024-12-15T15:22:39.597Z,25399,0.0019122809,0.057927545,-0.075857766
1734276159599,2024-12-15T15:22:39.599Z,25401,0.0019122809,0.057927545,-0.075857766
1734276159607,2024-12-15T15:22:39.607Z,25409,-0.02430497,0.04948664,-0.07754398
1734276159610,2024-12-15T15:22:39.610Z,25412,-0.02430497,0.04948664,-0.07754398
1734276159618,2024-12-15T15:22:39.618Z,25420,-0.020698767,0.047909573,-0.07372019
1734276159621,2024-12-15T15:22:39.621Z,25423,-0.020698767,0.047909573,-0.07372019
1734276159629,2024-12-15T15:22:39.629Z,25431,-0.020097446,0.05171186,-0.071839415
1734276159632,2024-12-15T15:22:39.632Z,25434,-0.020097446,0.05171186,-0.071839415
1734276159639,2024-12-15T15:22:39.639Z,25441,-0.013227873,0.050116997,-0.06233756
1734276159641,2024-12-15T15:22:39.641Z,25443,-0.013227873,0.050116997,-0.06233756
1734276159648,2024-12-15T15:22:39.648Z,25450,-0.021110114,0.056321304,-0.050507206
1734276159650,2024-12-15T15:22:39.650Z,25452,-0.021110114,0.056321304,-0.050507206
1734276159658,2024-12-15T15:22:39.658Z,25460,-0.03618472,0.045951586,-0.05953825
1734276159660,2024-12-15T15:22:39.660Z,25462,-0.03618472,0.045951586,-0.05953825
1734276159668,2024-12-15T15:22:39.668Z,25470,-0.03464979,0.041491028,-0.07514759
1734276159670,2024-12-15T15:22:39.670Z,25472,-0.03464979,0.041491028,-0.07514759
1734276159679,2024-12-15T15:22:39.679Z,25481,-0.01710804,0.05023992,-0.072093
1734276159681,2024-12-15T15:22:39.681Z,25483,-0.01710804,0.05023992,-0.072093
1734276159691,2024-12-15T15:22:39.691Z,25493,0.011179573,0.05456365,-0.058501914
1734276159693,2024-12-15T15:22:39.693Z,25495,0.011179573,0.05456365,-0.058501914
1734276159700,2024-12-15T15:22:39.700Z,25502,0.0071875043,0.051045325,-0.05682555
1734276159702,2024-12-15T15:22:39.702Z,25504,0.0071875043,0.051045325,-0.05682555
1734276159709,2024-12-15T15:22:39.709Z,25511,-0.016025167,0.046544217,-0.05130624
1734276159712,2024-12-15T15:22:39.712Z,25514,-0.016025167,0.046544217,-0.05130624
1734276159718,2024-12-15T15:22:39.718Z,25520,-0.02454962,0.042540528,-0.042345326
1734276159720,2024-12-15T15:22:39.720Z,25522,-0.02454962,0.042540528,-0.042345326
1734276159729,2024-12-15T15:22:39.729Z,25531,-0.016064726,0.040487725,-0.034398876
1734276159732,2024-12-15T15:22:39.732Z,25534,-0.016064726,0.040487725,-0.034398876
1734276159739,2024-12-15T15:22:39.739Z,25541,-0.008106384,0.03454015,-0.037155725
1734276159742,2024-12-15T15:22:39.742Z,25544,-0.008106384,0.03454015,-0.037155725
1734276159754,2024-12-15T15:22:39.754Z,25556,-0.0050001964,0.040829454,-0.051991668
1734276159757,2024-12-15T15:22:39.757Z,25559,-0.0050001964,0.040829454,-0.051991668
1734276159766,2024-12-15T15:22:39.766Z,25568,-0.014952295,0.046162225,-0.055034086
1734276159769,2024-12-15T15:22:39.769Z,25571,-0.014952295,0.046162225,-0.055034086
1734276159778,2024-12-15T15:22:39.778Z,25580,-0.017059091,0.04321727,-0.06433764
1734276159781,2024-12-15T15:22:39.781Z,25583,-0.017059091,0.04321727,-0.06433764
1734276159789,2024-12-15T15:22:39.789Z,25591,-0.009099967,0.048930187,-0.075305454
1734276159791,2024-12-15T15:22:39.791Z,25593,-0.009099967,0.048930187,-0.075305454
1734276159798,2024-12-15T15:22:39.798Z,25600,-0.020099996,0.055107556,-0.06297204
1734276159800,2024-12-15T15:22:39.800Z,25602,-0.020099996,0.055107556,-0.06297204
1734276159807,2024-12-15T15:22:39.807Z,25609,-0.018433286,0.04954528,-0.04196545
1734276159809,2024-12-15T15:22:39.809Z,25611,-0.018433286,0.04954528,-0.04196545
1734276159816,2024-12-15T15:22:39.816Z,25618,-0.0071246913,0.04738356,-0.036191005
1734276159819,2024-12-15T15:22:39.819Z,25621,-0.0071246913,0.04738356,-0.036191005
1734276159827,2024-12-15T15:22:39.827Z,25629,-0.007282443,0.051627353,-0.041867547
1734276159830,2024-12-15T15:22:39.830Z,25632,-0.007282443,0.051627353,-0.041867547
1734276159837,2024-12-15T15:22:39.837Z,25639,-0.02391563,0.054426823,-0.057228807
1734276159839,2024-12-15T15:22:39.839Z,25641,-0.02391563,0.054426823,-0.057228807
1734276159848,2024-12-15T15:22:39.848Z,25650,-0.025004515,0.05674929,-0.052529324
1734276159851,2024-12-15T15:22:39.851Z,25653,-0.025004515,0.05674929,-0.052529324
1734276159858,2024-12-15T15:22:39.858Z,25660,-0.015243552,0.05659467,-0.03677724
1734276159860,2024-12-15T15:22:39.860Z,25662,-0.015243552,0.05659467,-0.03677724
1734276159869,2024-12-15T15:22:39.869Z,25671,-0.018065866,0.05396927,-0.04070974
1734276159872,2024-12-15T15:22:39.872Z,25674,-0.018065866,0.05396927,-0.04070974
1734276159880,2024-12-15T15:22:39.880Z,25682,-0.024204653,0.056219973,-0.036873855
1734276159883,2024-12-15T15:22:39.883Z,25685,-0.024204653,0.056219973,-0.036873855
1734276159890,2024-12-15T15:22:39.890Z,25692,-0.03878818,0.056980938,-0.021930307
1734276159892,2024-12-15T15:22:39.892Z,25694,-0.03878818,0.056980938,-0.021930307
1734276159899,2024-12-15T15:22:39.899Z,25701,-0.023222446,0.056763392,-0.022136472
1734276159901,2024-12-15T15:22:39.901Z,25703,-0.023222446,0.056763392,-0.022136472
1734276159908,2024-12-15T15:22:39.908Z,25710,0.0034317707,0.067800134,-0.03835253
1734276159910,2024-12-15T15:22:39.910Z,25712,0.0034317707,0.067800134,-0.03835253
1734276159917,2024-12-15T15:22:39.917Z,25719,0.00424942,0.06075833,-0.03510234
1734276159919,2024-12-15T15:22:39.919Z,25721,0.00424942,0.06075833,-0.03510234
1734276159926,2024-12-15T15:22:39.926Z,25728,-0.0120548,0.046853658,-0.026609916
1734276159928,2024-12-15T15:22:39.928Z,25730,-0.0120548,0.046853658,-0.026609916
1734276159937,2024-12-15T15:22:39.937Z,25739,-0.021494493,0.051988628,-0.029859474
1734276159940,2024-12-15T15:22:39.940Z,25742,-0.021494493,0.051988628,-0.029859474
1734276159948,2024-12-15T15:22:39.948Z,25750,-0.018616555,0.06299707,-0.03207767
1734276159950,2024-12-15T15:22:39.950Z,25752,-0.018616555,0.06299707,-0.03207767
1734276159958,2024-12-15T15:22:39.958Z,25760,-0.0075915745,0.061306905,-0.035290174
1734276159960,2024-12-15T15:22:39.960Z,25762,-0.0075915745,0.061306905,-0.035290174
1734276159968,2024-12-15T15:22:39.968Z,25770,-0.0063782786,0.05667976,-0.044402625
1734276159971,2024-12-15T15:22:39.971Z,25773,-0.0063782786,0.05667976,-0.044402625
1734276159980,2024-12-15T15:22:39.980Z,25782,-0.024940625,0.056455895,-0.055439267
1734276159982,2024-12-15T15:22:39.982Z,25784,-0.024940625,0.056455895,-0.055439267
1734276159990,2024-12-15T15:22:39.990Z,25792,-0.035033368,0.06110103,-0.051408935
1734276159993,2024-12-15T15:22:39.993Z,25795,-0.035033368,0.06110103,-0.051408935
1734276160001,2024-12-15T15:22:40.001Z,25803,-0.02757354,0.068159565,-0.050923377
1734276160004,2024-12-15T15:22:40.004Z,25806,-0.02757354,0.068159565,-0.050923377
1734276160011,2024-12-15T15:22:40.011Z,25813,-0.012972293,0.07176979,-0.04862016
1734276160014,2024-12-15T15:22:40.014Z,25816,-0.012972293,0.07176979,-0.04862016
1734276160020,2024-12-15T15:22:40.020Z,25822,-0.006788454,0.071433604,-0.04404874
1734276160023,2024-12-15T15:22:40.023Z,25825,-0.006788454,0.071433604,-0.04404874
1734276160031,2024-12-15T15:22:40.031Z,25833,-0.020007124,0.065208286,-0.03619426
1734276160033,2024-12-15T15:22:40.033Z,25835,-0.020007124,0.065208286,-0.03619426
1734276160039,2024-12-15T15:22:40.039Z,25841,-0.015824035,0.06091451,-0.025012283
1734276160041,2024-12-15T15:22:40.041Z,25843,-0.015824035,0.06091451,-0.025012283
1734276160049,2024-12-15T15:22:40.049Z,25851,-0.0063514486,0.06395243,-0.030888258
1734276160052,2024-12-15T15:22:40.052Z,25854,-0.0063514486,0.06395243,-0.030888258
1734276160059,2024-12-15T15:22:40.059Z,25861,0.0075243567,0.06552201,-0.023597473
1734276160061,2024-12-15T15:22:40.061Z,25863,0.0075243567,0.06552201,-0.023597473
1734276160069,2024-12-15T15:22:40.069Z,25871,-0.018592587,0.055833608,-0.019843955
1734276160071,2024-12-15T15:22:40.071Z,25873,-0.018592587,0.055833608,-0.019843955
1734276160078,2024-12-15T15:22:40.078Z,25880,-0.032277696,0.049545765,-0.021052403
1734276160081,2024-12-15T15:22:40.081Z,25883,-0.032277696,0.049545765,-0.021052403
1734276160091,2024-12-15T15:22:40.091Z,25893,-0.016872821,0.06181969,-0.016367957
1734276160095,2024-12-15T15:22:40.095Z,25897,-0.016872821,0.06181969,-0.016367957
1734276160103,2024-12-15T15:22:40.103Z,25905,-0.0073584314,0.056024313,-0.0102320155
1734276160105,2024-12-15T15:22:40.105Z,25907,-0.0073584314,0.056024313,-0.0102320155
1734276160115,2024-12-15T15:22:40.115Z,25917,-0.01718272,0.047301386,-0.010924419
1734276160119,2024-12-15T15:22:40.119Z,25921,-0.01718272,0.047301386,-0.010924419
1734276160129,2024-12-15T15:22:40.129Z,25931,-0.0191947,0.051795494,-0.016847437
1734276160133,2024-12-15T15:22:40.133Z,25935,-0.0191947,0.051795494,-0.016847437
1734276160148,2024-12-15T15:22:40.148Z,25950,-0.008045234,0.04897385,-0.023709867
1734276160150,2024-12-15T15:22:40.150Z,25952,-0.008045234,0.04897385,-0.023709867
1734276160158,2024-12-15T15:22:40.158Z,25960,-8.530243E-4,0.046162516,-0.016369563
1734276160160,2024-12-15T15:22:40.160Z,25962,-8.530243E-4,0.046162516,-0.016369563
1734276160167,2024-12-15T15:22:40.167Z,25969,-0.0068434477,0.049707685,-0.015340802
1734276160169,2024-12-15T15:22:40.169Z,25971,-0.0068434477,0.049707685,-0.015340802
1734276160177,2024-12-15T15:22:40.177Z,25979,-0.014547572,0.05324186,-0.027056526
1734276160179,2024-12-15T15:22:40.179Z,25981,-0.014547572,0.05324186,-0.027056526
1734276160187,2024-12-15T15:22:40.187Z,25989,-0.022615565,0.05141117,-0.033867
1734276160191,2024-12-15T15:22:40.191Z,25993,-0.022615565,0.05141117,-0.033867
1734276160199,2024-12-15T15:22:40.199Z,26001,-0.011793733,0.054460566,-0.024086313
1734276160202,2024-12-15T15:22:40.202Z,26004,-0.011793733,0.054460566,-0.024086313
1734276160209,2024-12-15T15:22:40.209Z,26011,-0.0012616965,0.057020515,-0.031403646
1734276160212,2024-12-15T15:22:40.212Z,26014,-0.0012616965,0.057020515,-0.031403646
1734276160221,2024-12-15T15:22:40.221Z,26023,0.013711742,0.05715287,-0.028411381
1734276160225,2024-12-15T15:22:40.225Z,26027,0.013711742,0.05715287,-0.028411381
1734276160233,2024-12-15T15:22:40.233Z,26035,0.014868303,0.06801943,-0.01861652
1734276160235,2024-12-15T15:22:40.235Z,26037,0.014868303,0.06801943,-0.01861652
1734276160242,2024-12-15T15:22:40.242Z,26044,-0.0018815469,0.06519769,-0.024030251
1734276160245,2024-12-15T15:22:40.245Z,26047,-0.0018815469,0.06519769,-0.024030251
1734276160252,2024-12-15T15:22:40.252Z,26054,-0.016084246,0.06041699,-0.02800632
1734276160254,2024-12-15T15:22:40.254Z,26056,-0.016084246,0.06041699,-0.02800632
1734276160262,2024-12-15T15:22:40.262Z,26064,-0.019641206,0.060517643,-0.02661687
1734276160264,2024-12-15T15:22:40.264Z,26066,-0.019641206,0.060517643,-0.02661687
1734276160270,2024-12-15T15:22:40.270Z,26072,-0.007200941,0.06207341,-0.02038577
1734276160273,2024-12-15T15:22:40.273Z,26075,-0.007200941,0.06207341,-0.02038577
1734276160280,2024-12-15T15:22:40.280Z,26082,-0.012287623,0.06215189,-0.01860091
1734276160282,2024-12-15T15:22:40.282Z,26084,-0.012287623,0.06215189,-0.01860091
1734276160288,2024-12-15T15:22:40.288Z,26090,-0.01929465,0.057336766,-0.021256868
1734276160290,2024-12-15T15:22:40.290Z,26092,-0.01929465,0.057336766,-0.021256868
1734276160297,2024-12-15T15:22:40.297Z,26099,-0.0049739406,0.053981625,-0.022954619
1734276160300,2024-12-15T15:22:40.300Z,26102,-0.0049739406,0.053981625,-0.022954619
1734276160306,2024-12-15T15:22:40.306Z,26108,4.536511E-4,0.058917526,-0.017365452
1734276160309,2024-12-15T15:22:40.309Z,26111,4.536511E-4,0.058917526,-0.017365452
1734276160316,2024-12-15T15:22:40.316Z,26118,0.0015897525,0.049693678,-0.019102052
1734276160318,2024-12-15T15:22:40.318Z,26120,0.0015897525,0.049693678,-0.019102052
1734276160327,2024-12-15T15:22:40.327Z,26129,0.0021913871,0.048784025,-0.027617961
1734276160329,2024-12-15T15:22:40.329Z,26131,0.0021913871,0.048784025,-0.027617961
1734276160336,2024-12-15T15:22:40.336Z,26138,-0.014750347,0.055676844,-0.022992471
1734276160338,2024-12-15T15:22:40.338Z,26140,-0.014750347,0.055676844,-0.022992471
1734276160346,2024-12-15T15:22:40.346Z,26148,-0.018599972,0.050360702,-0.02423277
1734276160349,2024-12-15T15:22:40.349Z,26151,-0.018599972,0.050360702,-0.02423277
1734276160358,2024-12-15T15:22:40.358Z,26160,-0.010152153,0.047491018,-0.031315222
1734276160361,2024-12-15T15:22:40.361Z,26163,-0.010152153,0.047491018,-0.031315222
1734276160368,2024-12-15T15:22:40.368Z,26170,-0.0026624426,0.05292279,-0.031558707
1734276160370,2024-12-15T15:22:40.370Z,26172,-0.0026624426,0.05292279,-0.031558707
1734276160377,2024-12-15T15:22:40.377Z,26179,0.0057518184,0.05347049,-0.038153708
1734276160379,2024-12-15T15:22:40.379Z,26181,0.0057518184,0.05347049,-0.038153708
1734276160386,2024-12-15T15:22:40.386Z,26188,-0.0044057514,0.052521545,-0.03511338
1734276160389,2024-12-15T15:22:40.389Z,26191,-0.0044057514,0.052521545,-0.03511338
1734276160397,2024-12-15T15:22:40.397Z,26199,-0.008180155,0.051568422,-0.02769768
1734276160399,2024-12-15T15:22:40.399Z,26201,-0.008180155,0.051568422,-0.02769768
1734276160406,2024-12-15T15:22:40.406Z,26208,0.008899257,0.056503452,-0.026018577
1734276160408,2024-12-15T15:22:40.408Z,26210,0.008899257,0.056503452,-0.026018577
1734276160416,2024-12-15T15:22:40.416Z,26218,0.011802762,0.06730427,-0.028708473
1734276160419,2024-12-15T15:22:40.419Z,26221,0.011802762,0.06730427,-0.028708473
1734276160429,2024-12-15T15:22:40.429Z,26231,0.0014745668,0.07027742,-0.025599489
1734276160431,2024-12-15T15:22:40.431Z,26233,0.0014745668,0.07027742,-0.025599489
1734276160441,2024-12-15T15:22:40.441Z,26243,-0.005417421,0.071300276,-0.021014234
1734276160443,2024-12-15T15:22:40.443Z,26245,-0.005417421,0.071300276,-0.021014234
1734276160452,2024-12-15T15:22:40.452Z,26254,-0.021994859,0.088926226,-0.02033158
1734276160458,2024-12-15T15:22:40.458Z,26260,-0.021994859,0.088926226,-0.02033158
1734276160465,2024-12-15T15:22:40.465Z,26267,-0.03119342,0.11094963,-0.0103612095
1734276160467,2024-12-15T15:22:40.467Z,26269,-0.03119342,0.11094963,-0.0103612095
1734276160475,2024-12-15T15:22:40.475Z,26277,-0.0067367777,0.13152763,-0.022285018
1734276160477,2024-12-15T15:22:40.477Z,26279,-0.0067367777,0.13152763,-0.022285018
1734276160484,2024-12-15T15:22:40.484Z,26286,0.036354072,0.15946525,-0.04480822
1734276160486,2024-12-15T15:22:40.486Z,26288,0.036354072,0.15946525,-0.04480822
1734276160494,2024-12-15T15:22:40.494Z,26296,0.031270135,0.19813435,-0.050289858
1734276160497,2024-12-15T15:22:40.497Z,26299,0.031270135,0.19813435,-0.050289858
1734276160503,2024-12-15T15:22:40.503Z,26305,0.018435128,0.23482697,-0.054894682
1734276160506,2024-12-15T15:22:40.506Z,26308,0.018435128,0.23482697,-0.054894682
1734276160516,2024-12-15T15:22:40.516Z,26318,0.016283264,0.26762074,-0.048725042
1734276160519,2024-12-15T15:22:40.519Z,26321,0.016283264,0.26762074,-0.048725042
1734276160529,2024-12-15T15:22:40.529Z,26331,0.0029732957,0.2901486,-0.04895491
1734276160531,2024-12-15T15:22:40.531Z,26333,0.0029732957,0.2901486,-0.04895491
1734276160537,2024-12-15T15:22:40.537Z,26339,-0.007858686,0.3112063,-0.044813666
1734276160540,2024-12-15T15:22:40.540Z,26342,-0.007858686,0.3112063,-0.044813666
1734276160549,2024-12-15T15:22:40.549Z,26351,-0.027051747,0.33031332,-0.054333247
1734276160551,2024-12-15T15:22:40.551Z,26353,-0.027051747,0.33031332,-0.054333247
1734276160562,2024-12-15T15:22:40.562Z,26364,-0.0412749,0.33817932,-0.07659471
1734276160566,2024-12-15T15:22:40.566Z,26368,-0.0412749,0.33817932,-0.07659471
1734276160575,2024-12-15T15:22:40.575Z,26377,-0.039457798,0.34310326,-0.0798607
1734276160578,2024-12-15T15:22:40.578Z,26380,-0.039457798,0.34310326,-0.0798607
1734276160584,2024-12-15T15:22:40.584Z,26386,-0.0071377377,0.34602964,-0.07157675
1734276160586,2024-12-15T15:22:40.586Z,26388,-0.0071377377,0.34602964,-0.07157675
1734276160593,2024-12-15T15:22:40.593Z,26395,0.020622432,0.34596857,-0.0659597
1734276160596,2024-12-15T15:22:40.596Z,26398,0.020622432,0.34596857,-0.0659597
1734276160603,2024-12-15T15:22:40.603Z,26405,8.936229E-5,0.3399959,-0.06055608
1734276160606,2024-12-15T15:22:40.606Z,26408,8.936229E-5,0.3399959,-0.06055608
1734276160614,2024-12-15T15:22:40.614Z,26416,-0.0063946177,0.32861862,-0.048447717
1734276160616,2024-12-15T15:22:40.616Z,26418,-0.0063946177,0.32861862,-0.048447717
1734276160623,2024-12-15T15:22:40.623Z,26425,0.0014750663,0.30891582,-0.03301266
1734276160625,2024-12-15T15:22:40.625Z,26427,0.0014750663,0.30891582,-0.03301266
1734276160634,2024-12-15T15:22:40.634Z,26436,0.007882333,0.29065612,-0.030853223
1734276160636,2024-12-15T15:22:40.636Z,26438,0.007882333,0.29065612,-0.030853223
1734276160645,2024-12-15T15:22:40.645Z,26447,-0.0017945615,0.27336672,-0.023839645
1734276160648,2024-12-15T15:22:40.648Z,26450,-0.0017945615,0.27336672,-0.023839645
1734276160655,2024-12-15T15:22:40.655Z,26457,-0.024236783,0.25948325,-0.028108018
1734276160657,2024-12-15T15:22:40.657Z,26459,-0.024236783,0.25948325,-0.028108018
1734276160665,2024-12-15T15:22:40.665Z,26467,-0.013074852,0.23827052,-0.035817064
1734276160667,2024-12-15T15:22:40.667Z,26469,-0.013074852,0.23827052,-0.035817064
1734276160676,2024-12-15T15:22:40.676Z,26478,-1.1526134E-5,0.21215269,-0.04801533
1734276160678,2024-12-15T15:22:40.678Z,26480,-1.1526134E-5,0.21215269,-0.04801533
1734276160685,2024-12-15T15:22:40.685Z,26487,-0.0029682368,0.18794034,-0.05358383
1734276160688,2024-12-15T15:22:40.688Z,26490,-0.0029682368,0.18794034,-0.05358383
1734276160696,2024-12-15T15:22:40.696Z,26498,0.0032341478,0.16953953,-0.03543128
1734276160699,2024-12-15T15:22:40.699Z,26501,0.0032341478,0.16953953,-0.03543128
1734276160705,2024-12-15T15:22:40.705Z,26507,0.0067956895,0.14814697,-0.02780108
1734276160708,2024-12-15T15:22:40.708Z,26510,0.0067956895,0.14814697,-0.02780108
1734276160715,2024-12-15T15:22:40.715Z,26517,-0.014843165,0.12669753,-0.029220313
1734276160718,2024-12-15T15:22:40.718Z,26520,-0.014843165,0.12669753,-0.029220313
1734276160726,2024-12-15T15:22:40.726Z,26528,-0.032568343,0.09785483,-0.04364769
1734276160728,2024-12-15T15:22:40.728Z,26530,-0.032568343,0.09785483,-0.04364769
1734276160736,2024-12-15T15:22:40.736Z,26538,-0.025063826,0.07042952,-0.045610104
1734276160737,2024-12-15T15:22:40.737Z,26539,-0.025063826,0.07042952,-0.045610104
1734276160744,2024-12-15T15:22:40.744Z,26546,-0.019538127,0.047346607,-0.04050963
1734276160747,2024-12-15T15:22:40.747Z,26549,-0.019538127,0.047346607,-0.04050963
1734276160754,2024-12-15T15:22:40.754Z,26556,-0.0111458,0.024692653,-0.03668816
1734276160756,2024-12-15T15:22:40.756Z,26558,-0.0111458,0.024692653,-0.03668816
1734276160764,2024-12-15T15:22:40.764Z,26566,-0.004346505,0.0054138773,-0.030665753
1734276160766,2024-12-15T15:22:40.766Z,26568,-0.004346505,0.0054138773,-0.030665753
1734276160774,2024-12-15T15:22:40.774Z,26576,-0.007279172,-0.009989285,-0.035096675
1734276160777,2024-12-15T15:22:40.777Z,26579,-0.007279172,-0.009989285,-0.035096675
1734276160787,2024-12-15T15:22:40.787Z,26589,-0.018465668,-0.016141953,-0.028975466
1734276160790,2024-12-15T15:22:40.790Z,26592,-0.018465668,-0.016141953,-0.028975466
1734276160797,2024-12-15T15:22:40.797Z,26599,-0.028821327,-0.026213996,-0.022503754
1734276160799,2024-12-15T15:22:40.799Z,26601,-0.028821327,-0.026213996,-0.022503754
1734276160806,2024-12-15T15:22:40.806Z,26608,-0.012778267,-0.042142395,-0.028303424
1734276160809,2024-12-15T15:22:40.809Z,26611,-0.012778267,-0.042142395,-0.028303424
1734276160817,2024-12-15T15:22:40.817Z,26619,0.0140467575,-0.04829331,-0.028267698
1734276160820,2024-12-15T15:22:40.820Z,26622,0.0140467575,-0.04829331,-0.028267698
1734276160827,2024-12-15T15:22:40.827Z,26629,0.0061904453,-0.0607982,-0.017119585
1734276160829,2024-12-15T15:22:40.829Z,26631,0.0061904453,-0.0607982,-0.017119585
1734276160835,2024-12-15T15:22:40.835Z,26637,-0.022960633,-0.06597693,-0.02509042
1734276160837,2024-12-15T15:22:40.837Z,26639,-0.022960633,-0.06597693,-0.02509042
1734276160844,2024-12-15T15:22:40.844Z,26646,-0.022193637,-0.053045224,-0.03486998
1734276160847,2024-12-15T15:22:40.847Z,26649,-0.022193637,-0.053045224,-0.03486998
1734276160854,2024-12-15T15:22:40.854Z,26656,-0.012761966,-0.041547336,-0.040672448
1734276160857,2024-12-15T15:22:40.857Z,26659,-0.012761966,-0.041547336,-0.040672448
1734276160864,2024-12-15T15:22:40.864Z,26666,-0.026228884,-0.031992845,-0.040648937
1734276160866,2024-12-15T15:22:40.866Z,26668,-0.026228884,-0.031992845,-0.040648937
1734276160872,2024-12-15T15:22:40.872Z,26674,-0.027464766,-0.0232529,-0.037327707
1734276160874,2024-12-15T15:22:40.874Z,26676,-0.027464766,-0.0232529,-0.037327707
1734276160881,2024-12-15T15:22:40.881Z,26683,-0.010112363,-0.011221608,-0.04800411
1734276160883,2024-12-15T15:22:40.883Z,26685,-0.010112363,-0.011221608,-0.04800411
1734276160892,2024-12-15T15:22:40.892Z,26694,0.0039350726,-6.3522207E-4,-0.045954786
1734276160895,2024-12-15T15:22:40.895Z,26697,0.0039350726,-6.3522207E-4,-0.045954786
1734276160901,2024-12-15T15:22:40.901Z,26703,-4.8361744E-5,6.867634E-4,-0.035129547
1734276160904,2024-12-15T15:22:40.904Z,26706,-4.8361744E-5,6.867634E-4,-0.035129547
1734276160910,2024-12-15T15:22:40.910Z,26712,-0.018545762,0.0054467474,-0.038914073
1734276160912,2024-12-15T15:22:40.912Z,26714,-0.018545762,0.0054467474,-0.038914073
1734276160919,2024-12-15T15:22:40.919Z,26721,-0.024830583,0.0043751746,-0.045546856
1734276160921,2024-12-15T15:22:40.921Z,26723,-0.024830583,0.0043751746,-0.045546856
1734276160928,2024-12-15T15:22:40.928Z,26730,-0.009372081,-0.0069171325,-0.05012348
1734276160931,2024-12-15T15:22:40.931Z,26733,-0.009372081,-0.0069171325,-0.05012348
1734276160938,2024-12-15T15:22:40.938Z,26740,-0.012924808,-0.009897289,-0.055690084
1734276160940,2024-12-15T15:22:40.940Z,26742,-0.012924808,-0.009897289,-0.055690084
1734276160950,2024-12-15T15:22:40.950Z,26752,-0.030067863,-0.01903517,-0.06732421
1734276160952,2024-12-15T15:22:40.952Z,26754,-0.030067863,-0.01903517,-0.06732421
1734276160959,2024-12-15T15:22:40.959Z,26761,-0.03112207,-0.028625837,-0.06654751
1734276160961,2024-12-15T15:22:40.961Z,26763,-0.03112207,-0.028625837,-0.06654751
1734276160969,2024-12-15T15:22:40.969Z,26771,-0.02794762,-0.037719764,-0.053066693
1734276160971,2024-12-15T15:22:40.971Z,26773,-0.02794762,-0.037719764,-0.053066693
1734276160984,2024-12-15T15:22:40.984Z,26786,-0.022548834,-0.04457067,-0.04843923
1734276160987,2024-12-15T15:22:40.987Z,26789,-0.022548834,-0.04457067,-0.04843923
1734276160996,2024-12-15T15:22:40.996Z,26798,-0.017731555,-0.046018884,-0.057860386
1734276160999,2024-12-15T15:22:40.999Z,26801,-0.017731555,-0.046018884,-0.057860386
1734276161007,2024-12-15T15:22:41.007Z,26809,-0.001691817,-0.051336095,-0.06417563
1734276161010,2024-12-15T15:22:41.010Z,26812,-0.001691817,-0.051336095,-0.06417563
1734276161017,2024-12-15T15:22:41.017Z,26819,0.003631304,-0.05906379,-0.06741833
1734276161020,2024-12-15T15:22:41.020Z,26822,0.003631304,-0.05906379,-0.06741833
1734276161029,2024-12-15T15:22:41.029Z,26831,-0.0045110784,-0.06508916,-0.06346753
1734276161033,2024-12-15T15:22:41.033Z,26835,-0.0045110784,-0.06508916,-0.06346753
1734276161043,2024-12-15T15:22:41.043Z,26845,-0.02024862,-0.0696458,-0.057031505
1734276161046,2024-12-15T15:22:41.046Z,26848,-0.02024862,-0.0696458,-0.057031505
1734276161054,2024-12-15T15:22:41.054Z,26856,-0.04183288,-0.06828054,-0.068584435
1734276161056,2024-12-15T15:22:41.056Z,26858,-0.04183288,-0.06828054,-0.068584435
1734276161063,2024-12-15T15:22:41.063Z,26865,-0.047476795,-0.06568344,-0.08214898
1734276161066,2024-12-15T15:22:41.066Z,26868,-0.047476795,-0.06568344,-0.08214898
1734276161073,2024-12-15T15:22:41.073Z,26875,-0.04002639,-0.065508686,-0.08783
1734276161075,2024-12-15T15:22:41.075Z,26877,-0.04002639,-0.065508686,-0.08783
1734276161083,2024-12-15T15:22:41.083Z,26885,-0.019903164,-0.06774616,-0.07673669
1734276161085,2024-12-15T15:22:41.085Z,26887,-0.019903164,-0.06774616,-0.07673669
1734276161092,2024-12-15T15:22:41.092Z,26894,-0.01286435,-0.063621305,-0.06507183
1734276161094,2024-12-15T15:22:41.094Z,26896,-0.01286435,-0.063621305,-0.06507183
1734276161102,2024-12-15T15:22:41.102Z,26904,-0.014446011,-0.062693074,-0.056243327
1734276161104,2024-12-15T15:22:41.104Z,26906,-0.014446011,-0.062693074,-0.056243327
1734276161111,2024-12-15T15:22:41.111Z,26913,-0.016464341,-0.07174003,-0.053287663
1734276161114,2024-12-15T15:22:41.114Z,26916,-0.016464341,-0.07174003,-0.053287663
1734276161120,2024-12-15T15:22:41.120Z,26922,-0.018471781,-0.081259415,-0.04730946
1734276161122,2024-12-15T15:22:41.122Z,26924,-0.018471781,-0.081259415,-0.04730946
1734276161130,2024-12-15T15:22:41.130Z,26932,-0.028664272,-0.08735218,-0.056415454
1734276161132,2024-12-15T15:22:41.132Z,26934,-0.028664272,-0.08735218,-0.056415454
1734276161139,2024-12-15T15:22:41.139Z,26941,-0.039797775,-0.09391212,-0.05754941
1734276161142,2024-12-15T15:22:41.142Z,26944,-0.039797775,-0.09391212,-0.05754941
1734276161149,2024-12-15T15:22:41.149Z,26951,-0.04605143,-0.09246128,-0.044849064
1734276161152,2024-12-15T15:22:41.152Z,26954,-0.04605143,-0.09246128,-0.044849064
1734276161160,2024-12-15T15:22:41.160Z,26962,-0.047916908,-0.08516002,-0.041027572
1734276161163,2024-12-15T15:22:41.163Z,26965,-0.047916908,-0.08516002,-0.041027572
1734276161169,2024-12-15T15:22:41.169Z,26971,-0.04539298,-0.086137354,-0.04578968
1734276161172,2024-12-15T15:22:41.172Z,26974,-0.04539298,-0.086137354,-0.04578968
1734276161181,2024-12-15T15:22:41.181Z,26983,-0.046847112,-0.08661543,-0.040207263
1734276161184,2024-12-15T15:22:41.184Z,26986,-0.046847112,-0.08661543,-0.040207263
1734276161190,2024-12-15T15:22:41.190Z,26992,-0.04566653,-0.09345078,-0.030389875
1734276161192,2024-12-15T15:22:41.192Z,26994,-0.04566653,-0.09345078,-0.030389875
1734276161200,2024-12-15T15:22:41.200Z,27002,-0.029683126,-0.09734963,-0.033767942
1734276161202,2024-12-15T15:22:41.202Z,27004,-0.029683126,-0.09734963,-0.033767942
1734276161209,2024-12-15T15:22:41.209Z,27011,-0.0270194,-0.10025928,-0.031681057
1734276161212,2024-12-15T15:22:41.212Z,27014,-0.0270194,-0.10025928,-0.031681057
1734276161219,2024-12-15T15:22:41.219Z,27021,-0.019816415,-0.10269116,-0.016101632
1734276161221,2024-12-15T15:22:41.221Z,27023,-0.019816415,-0.10269116,-0.016101632
1734276161228,2024-12-15T15:22:41.228Z,27030,-0.014283796,-0.09827971,-0.024917964
1734276161230,2024-12-15T15:22:41.230Z,27032,-0.014283796,-0.09827971,-0.024917964
1734276161236,2024-12-15T15:22:41.236Z,27038,-0.021239324,-0.09335966,-0.031542867
1734276161238,2024-12-15T15:22:41.238Z,27040,-0.021239324,-0.09335966,-0.031542867
1734276161245,2024-12-15T15:22:41.245Z,27047,-0.031428926,-0.09232543,-0.033051886
1734276161247,2024-12-15T15:22:41.247Z,27049,-0.031428926,-0.09232543,-0.033051886
1734276161253,2024-12-15T15:22:41.253Z,27055,-0.03617872,-0.085902214,-0.03047093
1734276161255,2024-12-15T15:22:41.255Z,27057,-0.03617872,-0.085902214,-0.03047093
1734276161266,2024-12-15T15:22:41.266Z,27068,-0.021119403,-0.078980215,-0.023939397
1734276161268,2024-12-15T15:22:41.268Z,27070,-0.021119403,-0.078980215,-0.023939397
1734276161275,2024-12-15T15:22:41.275Z,27077,-0.022719475,-0.07011891,-0.018538928
1734276161277,2024-12-15T15:22:41.277Z,27079,-0.022719475,-0.07011891,-0.018538928
1734276161283,2024-12-15T15:22:41.283Z,27085,-0.022291262,-0.06470678,-0.0134152975
1734276161285,2024-12-15T15:22:41.285Z,27087,-0.022291262,-0.06470678,-0.0134152975
1734276161291,2024-12-15T15:22:41.291Z,27093,-0.02187848,-0.060285416,-0.011846036
1734276161294,2024-12-15T15:22:41.294Z,27096,-0.02187848,-0.060285416,-0.011846036
1734276161301,2024-12-15T15:22:41.301Z,27103,-0.024756752,-0.051471658,-0.013199931
1734276161303,2024-12-15T15:22:41.303Z,27105,-0.024756752,-0.051471658,-0.013199931
1734276161310,2024-12-15T15:22:41.310Z,27112,-0.030877657,-0.0485305,-0.013651063
1734276161314,2024-12-15T15:22:41.314Z,27116,-0.030877657,-0.0485305,-0.013651063
1734276161321,2024-12-15T15:22:41.321Z,27123,-0.031701926,-0.059771653,-0.009445075
1734276161323,2024-12-15T15:22:41.323Z,27125,-0.031701926,-0.059771653,-0.009445075
1734276161329,2024-12-15T15:22:41.329Z,27131,0.008762262,-0.072971575,-0.00926265
1734276161332,2024-12-15T15:22:41.332Z,27134,0.008762262,-0.072971575,-0.00926265
1734276161338,2024-12-15T15:22:41.338Z,27140,0.043957323,-0.06811444,-0.0071890373
1734276161340,2024-12-15T15:22:41.340Z,27142,0.043957323,-0.06811444,-0.0071890373
1734276161347,2024-12-15T15:22:41.347Z,27149,0.02819726,-0.061319448,-0.0032171854
1734276161349,2024-12-15T15:22:41.349Z,27151,0.02819726,-0.061319448,-0.0032171854
1734276161355,2024-12-15T15:22:41.355Z,27157,0.0013563959,-0.05307722,0.0079551
1734276161358,2024-12-15T15:22:41.358Z,27160,0.0013563959,-0.05307722,0.0079551
1734276161365,2024-12-15T15:22:41.365Z,27167,-0.025010798,-0.053625695,0.019590352
1734276161367,2024-12-15T15:22:41.367Z,27169,-0.025010798,-0.053625695,0.019590352
1734276161374,2024-12-15T15:22:41.374Z,27176,-0.048906595,-0.052222997,0.023400512
1734276161377,2024-12-15T15:22:41.377Z,27179,-0.048906595,-0.052222997,0.023400512
1734276161388,2024-12-15T15:22:41.388Z,27190,-0.033842355,-0.051783532,0.0058213756
1734276161393,2024-12-15T15:22:41.393Z,27195,-0.033842355,-0.051783532,0.0058213756
1734276161402,2024-12-15T15:22:41.402Z,27204,-0.0077373898,-0.05378275,0.012623787
1734276161404,2024-12-15T15:22:41.404Z,27206,-0.0077373898,-0.05378275,0.012623787
1734276161412,2024-12-15T15:22:41.412Z,27214,0.0066065537,-0.059697844,0.01882827
1734276161414,2024-12-15T15:22:41.414Z,27216,0.0066065537,-0.059697844,0.01882827
1734276161424,2024-12-15T15:22:41.424Z,27226,0.0054635587,-0.059265774,0.021647098
1734276161427,2024-12-15T15:22:41.427Z,27229,0.0054635587,-0.059265774,0.021647098
1734276161436,2024-12-15T15:22:41.436Z,27238,0.0028714363,-0.055904113,0.02056244
1734276161439,2024-12-15T15:22:41.439Z,27241,0.0028714363,-0.055904113,0.02056244
1734276161448,2024-12-15T15:22:41.448Z,27250,-0.0031470575,-0.05596995,0.0076548783
1734276161451,2024-12-15T15:22:41.451Z,27253,-0.0031470575,-0.05596995,0.0076548783
1734276161459,2024-12-15T15:22:41.459Z,27261,-0.012616861,-0.0599503,0.012718081
1734276161462,2024-12-15T15:22:41.462Z,27264,-0.012616861,-0.0599503,0.012718081
1734276161470,2024-12-15T15:22:41.470Z,27272,-0.009313951,-0.05758329,0.021699514
1734276161473,2024-12-15T15:22:41.473Z,27275,-0.009313951,-0.05758329,0.021699514
1734276161498,2024-12-15T15:22:41.498Z,27300,0.014558093,-0.042018306,0.02498394
1734276161501,2024-12-15T15:22:41.501Z,27303,0.014558093,-0.042018306,0.02498394
1734276161513,2024-12-15T15:22:41.513Z,27315,0.02675797,-0.027431149,0.016546048
1734276161516,2024-12-15T15:22:41.516Z,27318,0.02675797,-0.027431149,0.016546048
1734276161526,2024-12-15T15:22:41.526Z,27328,0.03686992,-0.02603934,-0.007037367
1734276161530,2024-12-15T15:22:41.530Z,27332,0.03686992,-0.02603934,-0.007037367
1734276161538,2024-12-15T15:22:41.538Z,27340,0.04815666,-0.021238998,-0.015035785
1734276161540,2024-12-15T15:22:41.540Z,27342,0.04815666,-0.021238998,-0.015035785
1734276161549,2024-12-15T15:22:41.549Z,27351,0.02740577,-0.0105965,0.013950854
1734276161551,2024-12-15T15:22:41.551Z,27353,0.02740577,-0.0105965,0.013950854
1734276161559,2024-12-15T15:22:41.559Z,27361,0.004391166,-0.009257107,0.025128985
1734276161561,2024-12-15T15:22:41.561Z,27363,0.004391166,-0.009257107,0.025128985
1734276161569,2024-12-15T15:22:41.569Z,27371,0.0077319136,-0.008897096,0.020139867
1734276161570,2024-12-15T15:22:41.570Z,27372,0.0077319136,-0.008897096,0.020139867
1734276161577,2024-12-15T15:22:41.577Z,27379,0.011416125,-0.0012192918,0.0140396645
1734276161580,2024-12-15T15:22:41.580Z,27382,0.011416125,-0.0012192918,0.0140396645
1734276161586,2024-12-15T15:22:41.586Z,27388,-0.013620892,0.0064509274,0.0029770138
1734276161588,2024-12-15T15:22:41.588Z,27390,-0.013620892,0.0064509274,0.0029770138
1734276161594,2024-12-15T15:22:41.594Z,27396,-0.039331615,0.0058088005,-0.006831263
1734276161596,2024-12-15T15:22:41.596Z,27398,-0.039331615,0.0058088005,-0.006831263
1734276161602,2024-12-15T15:22:41.602Z,27404,-0.026248256,0.0046797544,-0.0128282625
1734276161604,2024-12-15T15:22:41.604Z,27406,-0.026248256,0.0046797544,-0.0128282625
1734276161611,2024-12-15T15:22:41.611Z,27413,-0.0022179012,0.0074519953,-0.006788407
1734276161613,2024-12-15T15:22:41.613Z,27415,-0.0022179012,0.0074519953,-0.006788407
1734276161620,2024-12-15T15:22:41.620Z,27422,0.008632889,-0.0010271304,0.0033609844
1734276161622,2024-12-15T15:22:41.622Z,27424,0.008632889,-0.0010271304,0.0033609844
1734276161631,2024-12-15T15:22:41.631Z,27433,0.0028714393,-0.011956509,0.020184157
1734276161633,2024-12-15T15:22:41.633Z,27435,0.0028714393,-0.011956509,0.020184157
1734276161639,2024-12-15T15:22:41.639Z,27441,-0.004954516,-0.02092907,0.03109372
1734276161641,2024-12-15T15:22:41.641Z,27443,-0.004954516,-0.02092907,0.03109372
1734276161650,2024-12-15T15:22:41.650Z,27452,0.004223538,-0.024516538,0.03085774
1734276161652,2024-12-15T15:22:41.652Z,27454,0.004223538,-0.024516538,0.03085774
1734276161660,2024-12-15T15:22:41.660Z,27462,0.010434282,-0.023691878,0.032732934
1734276161663,2024-12-15T15:22:41.663Z,27465,0.010434282,-0.023691878,0.032732934
1734276161671,2024-12-15T15:22:41.671Z,27473,0.0108018145,-0.023341786,0.033276647
1734276161672,2024-12-15T15:22:41.672Z,27474,0.0108018145,-0.023341786,0.033276647
1734276161679,2024-12-15T15:22:41.679Z,27481,0.0023912727,-0.023957558,0.032946736
1734276161681,2024-12-15T15:22:41.681Z,27483,0.0023912727,-0.023957558,0.032946736
1734276161687,2024-12-15T15:22:41.687Z,27489,-0.004505032,-0.02358578,0.010770592
1734276161689,2024-12-15T15:22:41.689Z,27491,-0.004505032,-0.02358578,0.010770592
1734276161695,2024-12-15T15:22:41.695Z,27497,-0.01138195,-0.022713857,-0.005403247
1734276161698,2024-12-15T15:22:41.698Z,27500,-0.01138195,-0.022713857,-0.005403247
1734276161705,2024-12-15T15:22:41.705Z,27507,-0.014395626,-0.020372521,-0.011793194
1734276161707,2024-12-15T15:22:41.707Z,27509,-0.014395626,-0.020372521,-0.011793194
1734276161715,2024-12-15T15:22:41.715Z,27517,9.722948E-5,-0.023398189,-0.013307304
1734276161718,2024-12-15T15:22:41.718Z,27520,9.722948E-5,-0.023398189,-0.013307304
1734276161725,2024-12-15T15:22:41.725Z,27527,0.02045342,-0.019092936,-0.010350044
1734276161728,2024-12-15T15:22:41.728Z,27530,0.02045342,-0.019092936,-0.010350044
1734276161736,2024-12-15T15:22:41.736Z,27538,0.016609041,-0.01772359,-0.0035326448
1734276161738,2024-12-15T15:22:41.738Z,27540,0.016609041,-0.01772359,-0.0035326448
1734276161745,2024-12-15T15:22:41.745Z,27547,0.0034396304,-0.014885318,-0.0015888514
1734276161748,2024-12-15T15:22:41.748Z,27550,0.0034396304,-0.014885318,-0.0015888514
1734276161757,2024-12-15T15:22:41.757Z,27559,-0.009219381,-0.011557405,-0.0064843255
1734276161759,2024-12-15T15:22:41.759Z,27561,-0.009219381,-0.011557405,-0.0064843255
1734276161767,2024-12-15T15:22:41.767Z,27569,-0.015507051,-0.008710867,-0.003961446
1734276161769,2024-12-15T15:22:41.769Z,27571,-0.015507051,-0.008710867,-0.003961446
1734276161775,2024-12-15T15:22:41.775Z,27577,-0.0056901053,-0.0073234336,0.0035016835
1734276161777,2024-12-15T15:22:41.777Z,27579,-0.0056901053,-0.0073234336,0.0035016835
1734276161784,2024-12-15T15:22:41.784Z,27586,0.017619168,-5.524643E-4,0.006191133
1734276161786,2024-12-15T15:22:41.786Z,27588,0.017619168,-5.524643E-4,0.006191133
1734276161794,2024-12-15T15:22:41.794Z,27596,0.015677024,0.004751621,9.2689224E-5
1734276161798,2024-12-15T15:22:41.798Z,27600,0.015677024,0.004751621,9.2689224E-5
1734276161804,2024-12-15T15:22:41.804Z,27606,-0.005617938,0.0041898205,-0.011921433
1734276161806,2024-12-15T15:22:41.806Z,27608,-0.005617938,0.0041898205,-0.011921433
1734276161814,2024-12-15T15:22:41.814Z,27616,-0.019719718,-7.6358905E-4,-0.013236192
1734276161816,2024-12-15T15:22:41.816Z,27618,-0.019719718,-7.6358905E-4,-0.013236192
1734276161826,2024-12-15T15:22:41.826Z,27628,-0.011532936,-0.009617021,-0.00381091
1734276161829,2024-12-15T15:22:41.829Z,27631,-0.011532936,-0.009617021,-0.00381091
1734276161837,2024-12-15T15:22:41.837Z,27639,4.9108575E-4,-0.017001623,0.01343709
1734276161839,2024-12-15T15:22:41.839Z,27641,4.9108575E-4,-0.017001623,0.01343709
1734276161847,2024-12-15T15:22:41.847Z,27649,7.7263004E-4,-0.025358995,0.02045372
1734276161850,2024-12-15T15:22:41.850Z,27652,7.7263004E-4,-0.025358995,0.02045372
1734276161863,2024-12-15T15:22:41.863Z,27665,-0.007244292,-0.03419745,0.017342716
1734276161865,2024-12-15T15:22:41.865Z,27667,-0.007244292,-0.03419745,0.017342716
1734276161872,2024-12-15T15:22:41.872Z,27674,-0.010906711,-0.040096205,0.013904958
1734276161875,2024-12-15T15:22:41.875Z,27677,-0.010906711,-0.040096205,0.013904958
1734276161884,2024-12-15T15:22:41.884Z,27686,-4.4664965E-4,-0.049895663,0.01884615
1734276161886,2024-12-15T15:22:41.886Z,27688,-4.4664965E-4,-0.049895663,0.01884615
1734276161894,2024-12-15T15:22:41.894Z,27696,0.0041805306,-0.057736553,0.018049002
1734276161896,2024-12-15T15:22:41.896Z,27698,0.0041805306,-0.057736553,0.018049002
1734276161903,2024-12-15T15:22:41.903Z,27705,0.003986017,-0.07240987,0.019306658
1734276161905,2024-12-15T15:22:41.905Z,27707,0.003986017,-0.07240987,0.019306658
1734276161915,2024-12-15T15:22:41.915Z,27717,-0.0014751385,-0.09147606,0.0289565
1734276161917,2024-12-15T15:22:41.917Z,27719,-0.0014751385,-0.09147606,0.0289565
1734276161924,2024-12-15T15:22:41.924Z,27726,-0.0010404533,-0.10663066,0.03924745
1734276161926,2024-12-15T15:22:41.926Z,27728,-0.0010404533,-0.10663066,0.03924745
