Timestamp (ms),ISO DateTime,Elapsed Time (ms),Acceleration X,Acceleration Y,Acceleration Z
1732372436658,2024-11-23T14:33:56.658Z,140085,0.2639295,0.6518683,-0.83436227
1732372436664,2024-11-23T14:33:56.664Z,140091,0.2639295,0.6518683,-0.83436227
1732372436685,2024-11-23T14:33:56.685Z,140112,0.2639295,0.6518683,-0.83436227
1732372436692,2024-11-23T14:33:56.692Z,140119,0.2639295,0.6518683,-0.83436227
1732372436710,2024-11-23T14:33:56.710Z,140137,0.228892,0.6890392,-0.8262645
1732372436715,2024-11-23T14:33:56.715Z,140142,0.228892,0.6890392,-0.8262645
1732372436732,2024-11-23T14:33:56.732Z,140159,0.21058932,0.7439357,-0.8538078
1732372436737,2024-11-23T14:33:56.737Z,140164,0.21058932,0.7439357,-0.8538078
1732372436753,2024-11-23T14:33:56.753Z,140180,0.21468544,0.7625461,-0.87812585
1732372436757,2024-11-23T14:33:56.757Z,140184,0.21468544,0.7625461,-0.87812585
1732372436772,2024-11-23T14:33:56.772Z,140199,0.22923373,0.7403573,-0.87178445
1732372436776,2024-11-23T14:33:56.776Z,140203,0.22923373,0.7403573,-0.87178445
1732372436792,2024-11-23T14:33:56.792Z,140219,0.2597834,0.73961496,-0.82078296
1732372436796,2024-11-23T14:33:56.796Z,140223,0.2597834,0.73961496,-0.82078296
1732372436807,2024-11-23T14:33:56.807Z,140234,0.23712043,0.7569297,-0.8502214
1732372436811,2024-11-23T14:33:56.811Z,140238,0.23712043,0.7569297,-0.8502214
1732372436823,2024-11-23T14:33:56.823Z,140250,0.22187316,0.72256416,-0.8469448
1732372436827,2024-11-23T14:33:56.827Z,140254,0.22187316,0.72256416,-0.8469448
1732372436838,2024-11-23T14:33:56.838Z,140265,0.27635628,0.60224676,-0.82381046
1732372436842,2024-11-23T14:33:56.842Z,140269,0.27635628,0.60224676,-0.82381046
1732372436853,2024-11-23T14:33:56.853Z,140280,0.24561612,0.59566295,-0.8209959
1732372436857,2024-11-23T14:33:56.857Z,140284,0.24561612,0.59566295,-0.8209959
1732372436869,2024-11-23T14:33:56.869Z,140296,0.18242715,0.5968814,-0.8318159
1732372436872,2024-11-23T14:33:56.872Z,140299,0.18242715,0.5968814,-0.8318159
1732372436883,2024-11-23T14:33:56.883Z,140310,0.22671248,0.62454754,-0.8078427
1732372436887,2024-11-23T14:33:56.887Z,140314,0.22671248,0.62454754,-0.8078427
1732372436898,2024-11-23T14:33:56.898Z,140325,0.1982194,0.60301477,-0.79905367
1732372436902,2024-11-23T14:33:56.902Z,140329,0.1982194,0.60301477,-0.79905367
1732372436913,2024-11-23T14:33:56.913Z,140340,0.20428881,0.58685094,-0.78832334
1732372436917,2024-11-23T14:33:56.917Z,140344,0.20428881,0.58685094,-0.78832334
1732372436930,2024-11-23T14:33:56.930Z,140357,0.22029072,0.6227484,-0.7609495
1732372436934,2024-11-23T14:33:56.934Z,140361,0.22029072,0.6227484,-0.7609495
1732372436950,2024-11-23T14:33:56.950Z,140377,0.20829135,0.59970504,-0.7629535
1732372436954,2024-11-23T14:33:56.954Z,140381,0.20829135,0.59970504,-0.7629535
1732372436968,2024-11-23T14:33:56.968Z,140395,0.1841408,0.5919372,-0.76360416
1732372436973,2024-11-23T14:33:56.973Z,140400,0.1841408,0.5919372,-0.76360416
1732372437009,2024-11-23T14:33:57.009Z,140436,0.19066092,0.60481805,-0.7590098
1732372437014,2024-11-23T14:33:57.014Z,140441,0.19066092,0.60481805,-0.7590098
1732372437029,2024-11-23T14:33:57.029Z,140456,0.22540024,0.59993154,-0.7554411
1732372437033,2024-11-23T14:33:57.033Z,140460,0.22540024,0.59993154,-0.7554411
1732372437047,2024-11-23T14:33:57.047Z,140474,0.20005122,0.58136034,-0.7496383
1732372437051,2024-11-23T14:33:57.051Z,140478,0.20005122,0.58136034,-0.7496383
1732372437062,2024-11-23T14:33:57.062Z,140489,0.19317475,0.54710966,-0.7270009
1732372437067,2024-11-23T14:33:57.067Z,140494,0.19317475,0.54710966,-0.7270009
1732372437081,2024-11-23T14:33:57.081Z,140508,0.18715355,0.5233783,-0.6818836
1732372437085,2024-11-23T14:33:57.085Z,140512,0.18715355,0.5233783,-0.6818836
1732372437099,2024-11-23T14:33:57.099Z,140526,0.16640434,0.5179616,-0.6737773
1732372437115,2024-11-23T14:33:57.115Z,140542,0.16640434,0.5179616,-0.6737773
1732372437139,2024-11-23T14:33:57.139Z,140566,0.14837664,0.51633376,-0.71880156
1732372437146,2024-11-23T14:33:57.146Z,140573,0.14837664,0.51633376,-0.71880156
1732372437169,2024-11-23T14:33:57.169Z,140596,0.15622155,0.53446287,-0.7390268
1732372437177,2024-11-23T14:33:57.177Z,140604,0.15622155,0.53446287,-0.7390268
1732372437200,2024-11-23T14:33:57.200Z,140627,0.15329935,0.47910136,-0.7476862
1732372437207,2024-11-23T14:33:57.207Z,140634,0.15329935,0.47910136,-0.7476862
1732372437228,2024-11-23T14:33:57.228Z,140655,0.16265514,0.48278058,-0.750121
1732372437232,2024-11-23T14:33:57.232Z,140659,0.16265514,0.48278058,-0.750121
1732372437245,2024-11-23T14:33:57.245Z,140672,0.19113892,0.46607172,-0.72136706
1732372437249,2024-11-23T14:33:57.249Z,140676,0.19113892,0.46607172,-0.72136706
1732372437261,2024-11-23T14:33:57.261Z,140688,0.13885859,0.4558629,-0.75770605
1732372437265,2024-11-23T14:33:57.265Z,140692,0.13885859,0.4558629,-0.75770605
1732372437278,2024-11-23T14:33:57.278Z,140705,0.16999643,0.4510504,-0.7469878
1732372437282,2024-11-23T14:33:57.282Z,140709,0.16999643,0.4510504,-0.7469878
1732372437294,2024-11-23T14:33:57.294Z,140721,0.15828197,0.44429275,-0.7354897
1732372437298,2024-11-23T14:33:57.298Z,140725,0.15828197,0.44429275,-0.7354897
1732372437311,2024-11-23T14:33:57.311Z,140738,0.1696551,0.43110543,-0.6927266
1732372437315,2024-11-23T14:33:57.315Z,140742,0.1696551,0.43110543,-0.6927266
1732372437327,2024-11-23T14:33:57.327Z,140754,0.14711289,0.41629222,-0.68629545
1732372437331,2024-11-23T14:33:57.331Z,140758,0.14711289,0.41629222,-0.68629545
1732372437344,2024-11-23T14:33:57.344Z,140771,0.13354152,0.41413304,-0.70669794
1732372437347,2024-11-23T14:33:57.347Z,140774,0.13354152,0.41413304,-0.70669794
1732372437361,2024-11-23T14:33:57.361Z,140788,0.16261354,0.42372638,-0.7014374
1732372437366,2024-11-23T14:33:57.366Z,140793,0.16261354,0.42372638,-0.7014374
1732372437379,2024-11-23T14:33:57.379Z,140806,0.17189887,0.43400764,-0.72116953
1732372437384,2024-11-23T14:33:57.384Z,140811,0.17189887,0.43400764,-0.72116953
1732372437396,2024-11-23T14:33:57.396Z,140823,0.15610649,0.39607614,-0.7141621
1732372437399,2024-11-23T14:33:57.399Z,140826,0.15610649,0.39607614,-0.7141621
1732372437411,2024-11-23T14:33:57.411Z,140838,0.13157138,0.3302778,-0.6572554
1732372437416,2024-11-23T14:33:57.416Z,140843,0.13157138,0.3302778,-0.6572554
1732372437429,2024-11-23T14:33:57.429Z,140856,0.13316105,0.3270961,-0.6537013
1732372437434,2024-11-23T14:33:57.434Z,140861,0.13316105,0.3270961,-0.6537013
1732372437445,2024-11-23T14:33:57.445Z,140872,0.11905802,0.31772643,-0.6614342
1732372437448,2024-11-23T14:33:57.448Z,140875,0.11905802,0.31772643,-0.6614342
1732372437461,2024-11-23T14:33:57.461Z,140888,0.103347234,0.3124251,-0.6220489
1732372437465,2024-11-23T14:33:57.465Z,140892,0.103347234,0.3124251,-0.6220489
1732372437477,2024-11-23T14:33:57.477Z,140904,0.0900188,0.28830272,-0.6263494
1732372437480,2024-11-23T14:33:57.480Z,140907,0.0900188,0.28830272,-0.6263494
1732372437492,2024-11-23T14:33:57.492Z,140919,0.07798175,0.26794264,-0.6235907
1732372437496,2024-11-23T14:33:57.496Z,140923,0.07798175,0.26794264,-0.6235907
1732372437509,2024-11-23T14:33:57.509Z,140936,0.09602914,0.25419298,-0.5709201
1732372437513,2024-11-23T14:33:57.513Z,140940,0.09602914,0.25419298,-0.5709201
1732372437526,2024-11-23T14:33:57.526Z,140953,0.099185415,0.22912875,-0.550578
1732372437530,2024-11-23T14:33:57.530Z,140957,0.099185415,0.22912875,-0.550578
1732372437542,2024-11-23T14:33:57.542Z,140969,0.09172855,0.2149226,-0.5343141
1732372437545,2024-11-23T14:33:57.545Z,140972,0.09172855,0.2149226,-0.5343141
1732372437555,2024-11-23T14:33:57.555Z,140982,0.06581573,0.20025156,-0.5371821
1732372437559,2024-11-23T14:33:57.559Z,140986,0.06581573,0.20025156,-0.5371821
1732372437572,2024-11-23T14:33:57.572Z,140999,0.0839854,0.18761808,-0.52657026
1732372437576,2024-11-23T14:33:57.576Z,141003,0.0839854,0.18761808,-0.52657026
1732372437588,2024-11-23T14:33:57.588Z,141015,0.077615336,0.18426347,-0.50777954
1732372437592,2024-11-23T14:33:57.592Z,141019,0.077615336,0.18426347,-0.50777954
1732372437603,2024-11-23T14:33:57.603Z,141030,0.027194891,0.14977212,-0.47002456
1732372437607,2024-11-23T14:33:57.607Z,141034,0.027194891,0.14977212,-0.47002456
1732372437618,2024-11-23T14:33:57.618Z,141045,0.012600435,0.12724942,-0.46072295
1732372437621,2024-11-23T14:33:57.621Z,141048,0.012600435,0.12724942,-0.46072295
1732372437634,2024-11-23T14:33:57.634Z,141061,0.018624336,0.11542039,-0.43916094
1732372437638,2024-11-23T14:33:57.638Z,141065,0.018624336,0.11542039,-0.43916094
1732372437651,2024-11-23T14:33:57.651Z,141078,0.0066214995,0.0966829,-0.410175
1732372437654,2024-11-23T14:33:57.654Z,141081,0.0066214995,0.0966829,-0.410175
1732372437665,2024-11-23T14:33:57.665Z,141092,-0.031902842,0.118826985,-0.410624
1732372437669,2024-11-23T14:33:57.669Z,141096,-0.031902842,0.118826985,-0.410624
1732372437681,2024-11-23T14:33:57.681Z,141108,0.01255468,0.109029084,-0.41533375
1732372437685,2024-11-23T14:33:57.685Z,141112,0.01255468,0.109029084,-0.41533375
1732372437701,2024-11-23T14:33:57.701Z,141128,0.007233382,0.10111448,-0.40730017
1732372437707,2024-11-23T14:33:57.707Z,141134,0.007233382,0.10111448,-0.40730017
1732372437733,2024-11-23T14:33:57.733Z,141160,0.045333687,0.09761492,-0.37394494
1732372437741,2024-11-23T14:33:57.741Z,141168,0.045333687,0.09761492,-0.37394494
1732372437772,2024-11-23T14:33:57.772Z,141199,-0.001802456,0.12324106,-0.40448695
1732372437778,2024-11-23T14:33:57.778Z,141205,-0.001802456,0.12324106,-0.40448695
1732372437795,2024-11-23T14:33:57.795Z,141222,0.023068046,0.11542098,-0.4167615
1732372437800,2024-11-23T14:33:57.800Z,141227,0.023068046,0.11542098,-0.4167615
1732372437811,2024-11-23T14:33:57.811Z,141238,0.041736763,0.10378451,-0.38231698
1732372437814,2024-11-23T14:33:57.814Z,141241,0.041736763,0.10378451,-0.38231698
1732372437829,2024-11-23T14:33:57.829Z,141256,0.087253906,0.0833763,-0.36441213
1732372437833,2024-11-23T14:33:57.833Z,141260,0.087253906,0.0833763,-0.36441213
1732372437843,2024-11-23T14:33:57.843Z,141270,0.043719947,0.09647119,-0.37272495
1732372437848,2024-11-23T14:33:57.848Z,141275,0.043719947,0.09647119,-0.37272495
1732372437861,2024-11-23T14:33:57.861Z,141288,0.0048184786,0.11736389,-0.38252878
1732372437865,2024-11-23T14:33:57.865Z,141292,0.0048184786,0.11736389,-0.38252878
1732372437878,2024-11-23T14:33:57.878Z,141305,0.072710134,0.11519848,-0.41056857
1732372437882,2024-11-23T14:33:57.882Z,141309,0.072710134,0.11519848,-0.41056857
1732372437893,2024-11-23T14:33:57.893Z,141320,0.05508056,0.08243514,-0.38996825
1732372437897,2024-11-23T14:33:57.897Z,141324,0.05508056,0.08243514,-0.38996825
1732372437906,2024-11-23T14:33:57.906Z,141333,0.039709195,0.08272124,-0.39857307
1732372437909,2024-11-23T14:33:57.909Z,141336,0.039709195,0.08272124,-0.39857307
1732372437919,2024-11-23T14:33:57.919Z,141346,-0.04977819,0.10962054,-0.43082178
1732372437923,2024-11-23T14:33:57.923Z,141350,-0.04977819,0.10962054,-0.43082178
1732372437932,2024-11-23T14:33:57.932Z,141359,0.083875105,0.10024051,-0.4173981
1732372437935,2024-11-23T14:33:57.935Z,141362,0.083875105,0.10024051,-0.4173981
1732372437944,2024-11-23T14:33:57.944Z,141371,0.058343675,0.09427009,-0.3986781
1732372437947,2024-11-23T14:33:57.947Z,141374,0.058343675,0.09427009,-0.3986781
1732372437959,2024-11-23T14:33:57.959Z,141386,0.021449357,0.13641277,-0.42156646
1732372437961,2024-11-23T14:33:57.961Z,141388,0.021449357,0.13641277,-0.42156646
1732372437970,2024-11-23T14:33:57.970Z,141397,0.04106662,0.128497,-0.42085344
1732372437973,2024-11-23T14:33:57.973Z,141400,0.04106662,0.128497,-0.42085344
1732372437982,2024-11-23T14:33:57.982Z,141409,0.008080562,0.10398426,-0.4240713
1732372437984,2024-11-23T14:33:57.984Z,141411,0.008080562,0.10398426,-0.4240713
1732372437994,2024-11-23T14:33:57.994Z,141421,0.091904655,0.1426866,-0.39299455
1732372437997,2024-11-23T14:33:57.997Z,141424,0.091904655,0.1426866,-0.39299455
1732372438012,2024-11-23T14:33:58.012Z,141439,0.0644671,0.13075121,-0.40139228
1732372438019,2024-11-23T14:33:58.019Z,141446,0.0644671,0.13075121,-0.40139228
1732372438042,2024-11-23T14:33:58.042Z,141469,0.022015357,0.101699226,-0.42147413
1732372438052,2024-11-23T14:33:58.052Z,141479,0.022015357,0.101699226,-0.42147413
1732372438076,2024-11-23T14:33:58.076Z,141503,0.071989745,0.12229114,-0.4132019
1732372438083,2024-11-23T14:33:58.083Z,141510,0.071989745,0.12229114,-0.4132019
1732372438107,2024-11-23T14:33:58.107Z,141534,0.05258728,0.13260894,-0.40841627
1732372438115,2024-11-23T14:33:58.115Z,141542,0.05258728,0.13260894,-0.40841627
1732372438131,2024-11-23T14:33:58.131Z,141558,0.03395119,0.10594613,-0.3865447
1732372438136,2024-11-23T14:33:58.136Z,141563,0.03395119,0.10594613,-0.3865447
1732372438151,2024-11-23T14:33:58.151Z,141578,0.07189863,0.06036516,-0.3460737
1732372438155,2024-11-23T14:33:58.155Z,141582,0.07189863,0.06036516,-0.3460737
1732372438167,2024-11-23T14:33:58.167Z,141594,0.049332034,0.05903549,-0.3496226
1732372438170,2024-11-23T14:33:58.170Z,141597,0.049332034,0.05903549,-0.3496226
1732372438181,2024-11-23T14:33:58.181Z,141608,0.015016755,0.07327858,-0.37209308
1732372438185,2024-11-23T14:33:58.185Z,141612,0.015016755,0.07327858,-0.37209308
1732372438196,2024-11-23T14:33:58.196Z,141623,0.068748444,0.09898291,-0.34774777
1732372438199,2024-11-23T14:33:58.199Z,141626,0.068748444,0.09898291,-0.34774777
1732372438209,2024-11-23T14:33:58.209Z,141636,0.06348075,0.07146706,-0.33253735
1732372438212,2024-11-23T14:33:58.212Z,141639,0.06348075,0.07146706,-0.33253735
1732372438223,2024-11-23T14:33:58.223Z,141650,0.07280386,0.050788008,-0.34123296
1732372438227,2024-11-23T14:33:58.227Z,141654,0.07280386,0.050788008,-0.34123296
1732372438236,2024-11-23T14:33:58.236Z,141663,0.06424661,0.06709733,-0.40805477
1732372438239,2024-11-23T14:33:58.239Z,141666,0.06424661,0.06709733,-0.40805477
1732372438252,2024-11-23T14:33:58.252Z,141679,0.094622076,0.085185595,-0.39355406
1732372438258,2024-11-23T14:33:58.258Z,141685,0.094622076,0.085185595,-0.39355406
1732372438281,2024-11-23T14:33:58.281Z,141708,0.06754416,0.08190338,-0.38321197
1732372438287,2024-11-23T14:33:58.287Z,141714,0.06754416,0.08190338,-0.38321197
1732372438299,2024-11-23T14:33:58.299Z,141726,0.10906026,0.038949072,-0.36391136
1732372438302,2024-11-23T14:33:58.302Z,141729,0.10906026,0.038949072,-0.36391136
1732372438319,2024-11-23T14:33:58.319Z,141746,0.08798488,0.0187161,-0.35527185
1732372438325,2024-11-23T14:33:58.325Z,141752,0.08798488,0.0187161,-0.35527185
1732372438343,2024-11-23T14:33:58.343Z,141770,0.05722864,0.048149385,-0.35416362
1732372438348,2024-11-23T14:33:58.348Z,141775,0.05722864,0.048149385,-0.35416362
1732372438363,2024-11-23T14:33:58.363Z,141790,0.08675875,0.040690582,-0.35647115
1732372438367,2024-11-23T14:33:58.367Z,141794,0.08675875,0.040690582,-0.35647115
1732372438378,2024-11-23T14:33:58.378Z,141805,0.041363668,0.03837152,-0.4105007
1732372438382,2024-11-23T14:33:58.382Z,141809,0.041363668,0.03837152,-0.4105007
1732372438393,2024-11-23T14:33:58.393Z,141820,0.04633821,0.060485452,-0.42301765
1732372438396,2024-11-23T14:33:58.396Z,141823,0.04633821,0.060485452,-0.42301765
1732372438408,2024-11-23T14:33:58.408Z,141835,0.08613945,0.05976047,-0.4161982
1732372438411,2024-11-23T14:33:58.411Z,141838,0.08613945,0.05976047,-0.4161982
1732372438421,2024-11-23T14:33:58.421Z,141848,0.020074159,0.036977082,-0.40622404
1732372438426,2024-11-23T14:33:58.426Z,141853,0.020074159,0.036977082,-0.40622404
1732372438445,2024-11-23T14:33:58.445Z,141872,0.06220329,0.011017777,-0.35957435
1732372438449,2024-11-23T14:33:58.449Z,141876,0.06220329,0.011017777,-0.35957435
1732372438459,2024-11-23T14:33:58.459Z,141886,0.085664056,-0.008643766,-0.339172
1732372438462,2024-11-23T14:33:58.462Z,141889,0.085664056,-0.008643766,-0.339172
1732372438472,2024-11-23T14:33:58.472Z,141899,0.040373936,0.032798737,-0.3641602
1732372438475,2024-11-23T14:33:58.475Z,141902,0.040373936,0.032798737,-0.3641602
1732372438484,2024-11-23T14:33:58.484Z,141911,0.059095703,0.021304445,-0.39078617
1732372438486,2024-11-23T14:33:58.486Z,141913,0.059095703,0.021304445,-0.39078617
1732372438496,2024-11-23T14:33:58.496Z,141923,0.083193004,0.048806876,-0.4060369
1732372438498,2024-11-23T14:33:58.498Z,141925,0.083193004,0.048806876,-0.4060369
1732372438508,2024-11-23T14:33:58.508Z,141935,0.0638219,0.069423586,-0.393504
1732372438511,2024-11-23T14:33:58.511Z,141938,0.0638219,0.069423586,-0.393504
1732372438523,2024-11-23T14:33:58.523Z,141950,0.07447537,0.06721996,-0.37182546
1732372438526,2024-11-23T14:33:58.526Z,141953,0.07447537,0.06721996,-0.37182546
1732372438537,2024-11-23T14:33:58.537Z,141964,0.078394264,0.042631455,-0.35080937
1732372438541,2024-11-23T14:33:58.541Z,141968,0.078394264,0.042631455,-0.35080937
1732372438550,2024-11-23T14:33:58.550Z,141977,0.06549106,0.08320213,-0.38749632
1732372438553,2024-11-23T14:33:58.553Z,141980,0.06549106,0.08320213,-0.38749632
1732372438563,2024-11-23T14:33:58.563Z,141990,0.063020475,0.08474166,-0.37180164
1732372438566,2024-11-23T14:33:58.566Z,141993,0.063020475,0.08474166,-0.37180164
1732372438577,2024-11-23T14:33:58.577Z,142004,0.04114436,0.0344501,-0.33278626
1732372438580,2024-11-23T14:33:58.580Z,142007,0.04114436,0.0344501,-0.33278626
1732372438593,2024-11-23T14:33:58.593Z,142020,0.03315578,0.044492774,-0.3354713
1732372438599,2024-11-23T14:33:58.599Z,142026,0.03315578,0.044492774,-0.3354713
1732372438620,2024-11-23T14:33:58.620Z,142047,0.04802455,0.06638849,-0.36038372
1732372438629,2024-11-23T14:33:58.629Z,142056,0.04802455,0.06638849,-0.36038372
1732372438642,2024-11-23T14:33:58.642Z,142069,0.060934238,0.060985696,-0.3609864
1732372438645,2024-11-23T14:33:58.645Z,142072,0.060934238,0.060985696,-0.3609864
1732372438657,2024-11-23T14:33:58.657Z,142084,0.043565918,0.06782036,-0.33641207
1732372438661,2024-11-23T14:33:58.661Z,142088,0.043565918,0.06782036,-0.33641207
1732372438672,2024-11-23T14:33:58.672Z,142099,0.041183136,0.062975965,-0.3444688
1732372438675,2024-11-23T14:33:58.675Z,142102,0.041183136,0.062975965,-0.3444688
1732372438687,2024-11-23T14:33:58.687Z,142114,0.02741897,0.053752508,-0.33788264
1732372438693,2024-11-23T14:33:58.693Z,142120,0.02741897,0.053752508,-0.33788264
1732372438713,2024-11-23T14:33:58.713Z,142140,0.067626774,0.06321967,-0.3018402
1732372438721,2024-11-23T14:33:58.721Z,142148,0.067626774,0.06321967,-0.3018402
1732372438742,2024-11-23T14:33:58.742Z,142169,0.060753163,0.053996112,-0.29149467
1732372438748,2024-11-23T14:33:58.748Z,142175,0.060753163,0.053996112,-0.29149467
1732372438771,2024-11-23T14:33:58.771Z,142198,0.047867402,0.07078924,-0.28616184
1732372438774,2024-11-23T14:33:58.774Z,142201,0.047867402,0.07078924,-0.28616184
1732372438786,2024-11-23T14:33:58.786Z,142213,0.047142435,0.0682713,-0.2791768
1732372438790,2024-11-23T14:33:58.790Z,142217,0.047142435,0.0682713,-0.2791768
1732372438803,2024-11-23T14:33:58.803Z,142230,0.009014121,0.061064173,-0.29167122
1732372438808,2024-11-23T14:33:58.808Z,142235,0.009014121,0.061064173,-0.29167122
1732372438824,2024-11-23T14:33:58.824Z,142251,0.032101344,0.039849587,-0.28925854
1732372438832,2024-11-23T14:33:58.832Z,142259,0.032101344,0.039849587,-0.28925854
1732372438857,2024-11-23T14:33:58.857Z,142284,0.04993308,0.035708584,-0.27608097
1732372438864,2024-11-23T14:33:58.864Z,142291,0.04993308,0.035708584,-0.27608097
1732372438888,2024-11-23T14:33:58.888Z,142315,0.021421641,0.047531083,-0.26710093
1732372438893,2024-11-23T14:33:58.893Z,142320,0.021421641,0.047531083,-0.26710093
1732372438906,2024-11-23T14:33:58.906Z,142333,0.026212057,0.057845663,-0.25652832
1732372438910,2024-11-23T14:33:58.910Z,142337,0.026212057,0.057845663,-0.25652832
1732372438923,2024-11-23T14:33:58.923Z,142350,0.024096994,0.033220988,-0.25616756
1732372438927,2024-11-23T14:33:58.927Z,142354,0.024096994,0.033220988,-0.25616756
1732372438941,2024-11-23T14:33:58.941Z,142368,0.01803925,0.024207193,-0.21912317
1732372438946,2024-11-23T14:33:58.946Z,142373,0.01803925,0.024207193,-0.21912317
1732372438958,2024-11-23T14:33:58.958Z,142385,0.019793332,0.019186197,-0.21691334
1732372438964,2024-11-23T14:33:58.964Z,142391,0.019793332,0.019186197,-0.21691334
1732372438975,2024-11-23T14:33:58.975Z,142402,0.031185439,0.00600281,-0.20815212
1732372438979,2024-11-23T14:33:58.979Z,142406,0.031185439,0.00600281,-0.20815212
1732372438991,2024-11-23T14:33:58.991Z,142418,0.013493643,0.007152472,-0.20315154
1732372438996,2024-11-23T14:33:58.996Z,142423,0.013493643,0.007152472,-0.20315154
1732372439008,2024-11-23T14:33:59.008Z,142435,0.011161679,-0.015117352,-0.20502128
1732372439012,2024-11-23T14:33:59.012Z,142439,0.011161679,-0.015117352,-0.20502128
1732372439022,2024-11-23T14:33:59.022Z,142449,-0.002862061,0.004968872,-0.18424532
1732372439026,2024-11-23T14:33:59.026Z,142453,-0.002862061,0.004968872,-0.18424532
1732372439039,2024-11-23T14:33:59.039Z,142466,-0.021206342,-0.008767562,-0.17906396
1732372439042,2024-11-23T14:33:59.042Z,142469,-0.021206342,-0.008767562,-0.17906396
1732372439052,2024-11-23T14:33:59.052Z,142479,0.0050153686,-0.03556621,-0.17023687
1732372439056,2024-11-23T14:33:59.056Z,142483,0.0050153686,-0.03556621,-0.17023687
1732372439065,2024-11-23T14:33:59.065Z,142492,0.019019684,-0.017034687,-0.15743704
1732372439069,2024-11-23T14:33:59.069Z,142496,0.019019684,-0.017034687,-0.15743704
1732372439083,2024-11-23T14:33:59.083Z,142510,-0.005251073,-0.01238615,-0.17110118
1732372439086,2024-11-23T14:33:59.086Z,142513,-0.005251073,-0.01238615,-0.17110118
1732372439098,2024-11-23T14:33:59.098Z,142525,-0.023285722,-0.007299608,-0.19042702
1732372439101,2024-11-23T14:33:59.101Z,142528,-0.023285722,-0.007299608,-0.19042702
1732372439120,2024-11-23T14:33:59.120Z,142547,0.043242462,-0.017310191,-0.15140583
1732372439124,2024-11-23T14:33:59.124Z,142551,0.043242462,-0.017310191,-0.15140583
1732372439133,2024-11-23T14:33:59.133Z,142560,0.06333155,-0.007441201,-0.13562757
1732372439137,2024-11-23T14:33:59.137Z,142564,0.06333155,-0.007441201,-0.13562757
1732372439146,2024-11-23T14:33:59.146Z,142573,0.041318573,-0.004922485,-0.12680086
1732372439149,2024-11-23T14:33:59.149Z,142576,0.041318573,-0.004922485,-0.12680086
1732372439161,2024-11-23T14:33:59.161Z,142588,0.017586848,-0.022917883,-0.13666224
1732372439165,2024-11-23T14:33:59.165Z,142592,0.017586848,-0.022917883,-0.13666224
1732372439176,2024-11-23T14:33:59.176Z,142603,0.009139389,0.0010527065,-0.15756403
1732372439180,2024-11-23T14:33:59.180Z,142607,0.009139389,0.0010527065,-0.15756403
1732372439193,2024-11-23T14:33:59.193Z,142620,0.01742182,0.02255301,-0.17948717
1732372439197,2024-11-23T14:33:59.197Z,142624,0.01742182,0.02255301,-0.17948717
1732372439208,2024-11-23T14:33:59.208Z,142635,0.009528306,-0.0042494335,-0.21037681
1732372439211,2024-11-23T14:33:59.211Z,142638,0.009528306,-0.0042494335,-0.21037681
1732372439225,2024-11-23T14:33:59.225Z,142652,0.0048556635,-0.006641727,-0.14379036
1732372439228,2024-11-23T14:33:59.228Z,142655,0.0048556635,-0.006641727,-0.14379036
1732372439241,2024-11-23T14:33:59.241Z,142668,0.02790257,-0.0134176565,-0.13201526
1732372439245,2024-11-23T14:33:59.245Z,142672,0.02790257,-0.0134176565,-0.13201526
1732372439254,2024-11-23T14:33:59.254Z,142681,-0.0023491767,-0.01967827,-0.13988279
1732372439257,2024-11-23T14:33:59.257Z,142684,-0.0023491767,-0.01967827,-0.13988279
1732372439267,2024-11-23T14:33:59.267Z,142694,0.039374422,-0.008204595,-0.15253173
1732372439271,2024-11-23T14:33:59.271Z,142698,0.039374422,-0.008204595,-0.15253173
1732372439281,2024-11-23T14:33:59.281Z,142708,0.03604574,-0.018628286,-0.14642422
1732372439284,2024-11-23T14:33:59.284Z,142711,0.03604574,-0.018628286,-0.14642422
1732372439295,2024-11-23T14:33:59.295Z,142722,0.05093489,-0.026524315,-0.15731299
1732372439298,2024-11-23T14:33:59.298Z,142725,0.05093489,-0.026524315,-0.15731299
1732372439314,2024-11-23T14:33:59.314Z,142741,0.015166887,0.018152453,-0.20657054
1732372439317,2024-11-23T14:33:59.317Z,142744,0.015166887,0.018152453,-0.20657054
1732372439328,2024-11-23T14:33:59.328Z,142755,-0.023168897,0.013216256,-0.1896728
1732372439331,2024-11-23T14:33:59.331Z,142758,-0.023168897,0.013216256,-0.1896728
1732372439341,2024-11-23T14:33:59.341Z,142768,0.0047545866,-0.0048841694,-0.13665456
1732372439344,2024-11-23T14:33:59.344Z,142771,0.0047545866,-0.0048841694,-0.13665456
1732372439354,2024-11-23T14:33:59.354Z,142781,-6.881005E-4,-0.0048512993,-0.15356392
1732372439357,2024-11-23T14:33:59.357Z,142784,-6.881005E-4,-0.0048512993,-0.15356392
1732372439368,2024-11-23T14:33:59.368Z,142795,0.012887182,0.0066250004,-0.14728992
1732372439371,2024-11-23T14:33:59.371Z,142798,0.012887182,0.0066250004,-0.14728992
1732372439383,2024-11-23T14:33:59.383Z,142810,0.040449105,-0.0033458075,-0.13965546
1732372439386,2024-11-23T14:33:59.386Z,142813,0.040449105,-0.0033458075,-0.13965546
1732372439396,2024-11-23T14:33:59.396Z,142823,-0.00870522,-0.013270423,-0.14756565
1732372439399,2024-11-23T14:33:59.399Z,142826,-0.00870522,-0.013270423,-0.14756565
1732372439410,2024-11-23T14:33:59.410Z,142837,0.046658322,0.014309612,-0.14661814
1732372439413,2024-11-23T14:33:59.413Z,142840,0.046658322,0.014309612,-0.14661814
1732372439423,2024-11-23T14:33:59.423Z,142850,0.060537968,0.022986831,-0.12705569
1732372439426,2024-11-23T14:33:59.426Z,142853,0.060537968,0.022986831,-0.12705569
1732372439436,2024-11-23T14:33:59.436Z,142863,0.005845475,-0.0039311415,-0.12082517
1732372439440,2024-11-23T14:33:59.440Z,142867,0.005845475,-0.0039311415,-0.12082517
1732372439450,2024-11-23T14:33:59.450Z,142877,0.0036555417,0.0102115935,-0.1278235
1732372439454,2024-11-23T14:33:59.454Z,142881,0.0036555417,0.0102115935,-0.1278235
1732372439464,2024-11-23T14:33:59.464Z,142891,0.010504504,0.0057569672,-0.13809066
1732372439466,2024-11-23T14:33:59.466Z,142893,0.010504504,0.0057569672,-0.13809066
1732372439476,2024-11-23T14:33:59.476Z,142903,0.023516139,0.027022418,-0.2083198
1732372439479,2024-11-23T14:33:59.479Z,142906,0.023516139,0.027022418,-0.2083198
1732372439490,2024-11-23T14:33:59.490Z,142917,0.026878053,0.054176506,-0.22171584
1732372439494,2024-11-23T14:33:59.494Z,142921,0.026878053,0.054176506,-0.22171584
1732372439504,2024-11-23T14:33:59.504Z,142931,0.05495207,0.02430551,-0.15136553
1732372439507,2024-11-23T14:33:59.507Z,142934,0.05495207,0.02430551,-0.15136553
1732372439520,2024-11-23T14:33:59.520Z,142947,0.021226162,0.018844662,-0.103654854
1732372439523,2024-11-23T14:33:59.523Z,142950,0.021226162,0.018844662,-0.103654854
1732372439534,2024-11-23T14:33:59.534Z,142961,0.06536506,-2.0081653E-4,-0.07306478
1732372439538,2024-11-23T14:33:59.538Z,142965,0.06536506,-2.0081653E-4,-0.07306478
1732372439548,2024-11-23T14:33:59.548Z,142975,0.03683481,-0.003631716,-0.07810946
1732372439551,2024-11-23T14:33:59.551Z,142978,0.03683481,-0.003631716,-0.07810946
1732372439561,2024-11-23T14:33:59.561Z,142988,-0.0082761515,0.050035797,-0.15027656
1732372439564,2024-11-23T14:33:59.564Z,142991,-0.0082761515,0.050035797,-0.15027656
1732372439577,2024-11-23T14:33:59.577Z,143004,0.038313325,-0.028469464,-0.10894446
1732372439581,2024-11-23T14:33:59.581Z,143008,0.038313325,-0.028469464,-0.10894446
1732372439592,2024-11-23T14:33:59.592Z,143019,0.014621862,0.016395284,-0.13844685
1732372439595,2024-11-23T14:33:59.595Z,143022,0.014621862,0.016395284,-0.13844685
1732372439605,2024-11-23T14:33:59.605Z,143032,0.0026152707,0.080281585,-0.15355413
1732372439608,2024-11-23T14:33:59.608Z,143035,0.0026152707,0.080281585,-0.15355413
1732372439618,2024-11-23T14:33:59.618Z,143045,0.03388328,0.010537276,-0.16095535
1732372439621,2024-11-23T14:33:59.621Z,143048,0.03388328,0.010537276,-0.16095535
1732372439632,2024-11-23T14:33:59.632Z,143059,0.030249875,0.025671063,-0.179716
1732372439635,2024-11-23T14:33:59.635Z,143062,0.030249875,0.025671063,-0.179716
1732372439644,2024-11-23T14:33:59.644Z,143071,0.046446543,-0.028944323,-0.14969404
1732372439647,2024-11-23T14:33:59.647Z,143074,0.046446543,-0.028944323,-0.14969404
1732372439656,2024-11-23T14:33:59.656Z,143083,0.009403878,0.0066692485,-0.087447755
1732372439660,2024-11-23T14:33:59.660Z,143087,0.009403878,0.0066692485,-0.087447755
1732372439673,2024-11-23T14:33:59.673Z,143100,-0.019074507,0.0085968925,-0.10165363
1732372439676,2024-11-23T14:33:59.676Z,143103,-0.019074507,0.0085968925,-0.10165363
1732372439685,2024-11-23T14:33:59.685Z,143112,0.010987387,-0.013402097,-0.1118764
1732372439688,2024-11-23T14:33:59.688Z,143115,0.010987387,-0.013402097,-0.1118764
1732372439698,2024-11-23T14:33:59.698Z,143125,0.070180565,0.0039973673,-0.12970804
1732372439701,2024-11-23T14:33:59.701Z,143128,0.070180565,0.0039973673,-0.12970804
1732372439713,2024-11-23T14:33:59.713Z,143140,0.04208774,-0.018057344,-0.13547872
1732372439716,2024-11-23T14:33:59.716Z,143143,0.04208774,-0.018057344,-0.13547872
1732372439727,2024-11-23T14:33:59.727Z,143154,0.020454282,-0.016195245,-0.11736413
1732372439730,2024-11-23T14:33:59.730Z,143157,0.020454282,-0.016195245,-0.11736413
1732372439741,2024-11-23T14:33:59.741Z,143168,0.01828358,-0.044777613,-0.06425383
1732372439745,2024-11-23T14:33:59.745Z,143172,0.01828358,-0.044777613,-0.06425383
1732372439757,2024-11-23T14:33:59.757Z,143184,0.062364206,-0.02926135,-0.05641636
1732372439760,2024-11-23T14:33:59.760Z,143187,0.062364206,-0.02926135,-0.05641636
1732372439768,2024-11-23T14:33:59.768Z,143195,0.058340423,-0.013770277,-0.08130496
1732372439771,2024-11-23T14:33:59.771Z,143198,0.058340423,-0.013770277,-0.08130496
1732372439782,2024-11-23T14:33:59.782Z,143209,0.0047179363,0.02881936,-0.11130218
1732372439784,2024-11-23T14:33:59.784Z,143211,0.0047179363,0.02881936,-0.11130218
1732372439795,2024-11-23T14:33:59.795Z,143222,0.0014335347,0.03375925,-0.1108418
1732372439798,2024-11-23T14:33:59.798Z,143225,0.0014335347,0.03375925,-0.1108418
1732372439809,2024-11-23T14:33:59.809Z,143236,-0.0027387994,0.046908017,-0.09856095
1732372439812,2024-11-23T14:33:59.812Z,143239,-0.0027387994,0.046908017,-0.09856095
1732372439822,2024-11-23T14:33:59.822Z,143249,0.060797106,0.08154989,-0.108342074
1732372439825,2024-11-23T14:33:59.825Z,143252,0.060797106,0.08154989,-0.108342074
1732372439839,2024-11-23T14:33:59.839Z,143266,0.083306514,0.086400025,-0.11640441
1732372439847,2024-11-23T14:33:59.847Z,143274,0.083306514,0.086400025,-0.11640441
1732372439864,2024-11-23T14:33:59.864Z,143291,0.063031904,0.0809808,-0.12205398
1732372439867,2024-11-23T14:33:59.867Z,143294,0.063031904,0.0809808,-0.12205398
1732372439878,2024-11-23T14:33:59.878Z,143305,0.012353529,0.05359069,-0.102320425
1732372439881,2024-11-23T14:33:59.881Z,143308,0.012353529,0.05359069,-0.102320425
1732372439892,2024-11-23T14:33:59.892Z,143319,0.009304139,0.06234104,-0.09990587
1732372439896,2024-11-23T14:33:59.896Z,143323,0.009304139,0.06234104,-0.09990587
1732372439905,2024-11-23T14:33:59.905Z,143332,0.045699522,0.100853756,-0.11076745
1732372439908,2024-11-23T14:33:59.908Z,143335,0.045699522,0.100853756,-0.11076745
1732372439919,2024-11-23T14:33:59.919Z,143346,0.024353562,0.07976462,-0.12067618
1732372439923,2024-11-23T14:33:59.923Z,143350,0.024353562,0.07976462,-0.12067618
1732372439934,2024-11-23T14:33:59.934Z,143361,0.020040402,0.0707377,-0.11934186
1732372439937,2024-11-23T14:33:59.937Z,143364,0.020040402,0.0707377,-0.11934186
1732372439950,2024-11-23T14:33:59.950Z,143377,0.009083502,0.06901894,-0.13693672
1732372439955,2024-11-23T14:33:59.955Z,143382,0.009083502,0.06901894,-0.13693672
1732372439966,2024-11-23T14:33:59.966Z,143393,0.05744214,0.05509005,-0.08009844
1732372439968,2024-11-23T14:33:59.968Z,143395,0.05744214,0.05509005,-0.08009844
1732372439981,2024-11-23T14:33:59.981Z,143408,0.05806769,0.06345851,-0.084428184
1732372439984,2024-11-23T14:33:59.984Z,143411,0.05806769,0.06345851,-0.084428184
1732372439995,2024-11-23T14:33:59.995Z,143422,0.060875423,0.094727635,-0.0947754
1732372440002,2024-11-23T14:34:00.002Z,143429,0.060875423,0.094727635,-0.0947754
1732372440027,2024-11-23T14:34:00.027Z,143454,0.048282616,0.051308673,-0.07827156
1732372440034,2024-11-23T14:34:00.034Z,143461,0.048282616,0.051308673,-0.07827156
1732372440054,2024-11-23T14:34:00.054Z,143481,0.013759251,0.029823735,-0.06720319
1732372440060,2024-11-23T14:34:00.060Z,143487,0.013759251,0.029823735,-0.06720319
1732372440081,2024-11-23T14:34:00.081Z,143508,0.010947351,0.03274311,-0.080400996
1732372440087,2024-11-23T14:34:00.087Z,143514,0.010947351,0.03274311,-0.080400996
1732372440105,2024-11-23T14:34:00.105Z,143532,0.0525644,0.067289,-0.11272362
1732372440108,2024-11-23T14:34:00.108Z,143535,0.0525644,0.067289,-0.11272362
1732372440121,2024-11-23T14:34:00.121Z,143548,0.04864287,0.04626492,-0.09136056
1732372440125,2024-11-23T14:34:00.125Z,143552,0.04864287,0.04626492,-0.09136056
1732372440137,2024-11-23T14:34:00.137Z,143564,0.046795435,0.047694948,-0.088608764
1732372440141,2024-11-23T14:34:00.141Z,143568,0.046795435,0.047694948,-0.088608764
1732372440153,2024-11-23T14:34:00.153Z,143580,-5.804959E-4,0.014003574,-0.08761703
1732372440156,2024-11-23T14:34:00.156Z,143583,-5.804959E-4,0.014003574,-0.08761703
1732372440167,2024-11-23T14:34:00.167Z,143594,-0.004994442,0.038905893,-0.09442975
1732372440170,2024-11-23T14:34:00.170Z,143597,-0.004994442,0.038905893,-0.09442975
1732372440180,2024-11-23T14:34:00.180Z,143607,-0.0035060658,0.013585992,-0.11770751
1732372440182,2024-11-23T14:34:00.182Z,143609,-0.0035060658,0.013585992,-0.11770751
1732372440191,2024-11-23T14:34:00.191Z,143618,0.0033157703,0.011808401,-0.11615899
1732372440194,2024-11-23T14:34:00.194Z,143621,0.0033157703,0.011808401,-0.11615899
1732372440202,2024-11-23T14:34:00.202Z,143629,0.054067772,-0.0041938075,-0.07725078
1732372440205,2024-11-23T14:34:00.205Z,143632,0.054067772,-0.0041938075,-0.07725078
1732372440214,2024-11-23T14:34:00.214Z,143641,0.072675526,-0.020692466,-0.06957977
1732372440217,2024-11-23T14:34:00.217Z,143644,0.072675526,-0.020692466,-0.06957977
1732372440226,2024-11-23T14:34:00.226Z,143653,0.047120802,-0.004996782,-0.08332088
1732372440229,2024-11-23T14:34:00.229Z,143656,0.047120802,-0.004996782,-0.08332088
1732372440237,2024-11-23T14:34:00.237Z,143664,0.055206478,-0.025434555,-0.08282488
1732372440240,2024-11-23T14:34:00.240Z,143667,0.055206478,-0.025434555,-0.08282488
1732372440249,2024-11-23T14:34:00.249Z,143676,0.06581518,-0.037142307,-0.042757004
1732372440252,2024-11-23T14:34:00.252Z,143679,0.06581518,-0.037142307,-0.042757004
1732372440262,2024-11-23T14:34:00.262Z,143689,0.03475839,-0.049867265,-0.037746307
1732372440266,2024-11-23T14:34:00.266Z,143693,0.03475839,-0.049867265,-0.037746307
1732372440275,2024-11-23T14:34:00.275Z,143702,0.040665887,-0.005593008,-0.08587013
1732372440278,2024-11-23T14:34:00.278Z,143705,0.040665887,-0.005593008,-0.08587013
1732372440287,2024-11-23T14:34:00.287Z,143714,0.039928246,0.01286704,-0.10561215
1732372440291,2024-11-23T14:34:00.291Z,143718,0.039928246,0.01286704,-0.10561215
1732372440302,2024-11-23T14:34:00.302Z,143729,0.039811093,0.032300536,-0.12400122
1732372440307,2024-11-23T14:34:00.307Z,143734,0.039811093,0.032300536,-0.12400122
1732372440320,2024-11-23T14:34:00.320Z,143747,0.08476707,0.0695858,-0.120349005
1732372440324,2024-11-23T14:34:00.324Z,143751,0.08476707,0.0695858,-0.120349005
1732372440333,2024-11-23T14:34:00.333Z,143760,0.06568607,0.025580816,-0.08123266
1732372440339,2024-11-23T14:34:00.339Z,143766,0.06568607,0.025580816,-0.08123266
1732372440350,2024-11-23T14:34:00.350Z,143777,0.015842382,-0.019377677,-0.057989717
1732372440352,2024-11-23T14:34:00.352Z,143779,0.015842382,-0.019377677,-0.057989717
1732372440362,2024-11-23T14:34:00.362Z,143789,-0.02980152,-0.0013749854,-0.094301604
1732372440365,2024-11-23T14:34:00.365Z,143792,-0.02980152,-0.0013749854,-0.094301604
1732372440374,2024-11-23T14:34:00.374Z,143801,0.0028084593,-0.01209285,-0.098903954
1732372440377,2024-11-23T14:34:00.377Z,143804,0.0028084593,-0.01209285,-0.098903954
1732372440386,2024-11-23T14:34:00.386Z,143813,0.011190215,-0.014979065,-0.10975867
1732372440390,2024-11-23T14:34:00.390Z,143817,0.011190215,-0.014979065,-0.10975867
1732372440399,2024-11-23T14:34:00.399Z,143826,0.08591977,-0.024098957,-0.1179484
1732372440404,2024-11-23T14:34:00.404Z,143831,0.08591977,-0.024098957,-0.1179484
1732372440414,2024-11-23T14:34:00.414Z,143841,0.08397622,-0.047961697,-0.091827504
1732372440416,2024-11-23T14:34:00.416Z,143843,0.08397622,-0.047961697,-0.091827504
1732372440424,2024-11-23T14:34:00.424Z,143851,0.060796335,-0.055739764,-0.08564838
1732372440427,2024-11-23T14:34:00.427Z,143854,0.060796335,-0.055739764,-0.08564838
1732372440435,2024-11-23T14:34:00.435Z,143862,0.060319547,-0.0542898,-0.077687494
1732372440438,2024-11-23T14:34:00.438Z,143865,0.060319547,-0.0542898,-0.077687494
1732372440447,2024-11-23T14:34:00.447Z,143874,0.015102856,-0.04458545,-0.08597254
1732372440450,2024-11-23T14:34:00.450Z,143877,0.015102856,-0.04458545,-0.08597254
1732372440460,2024-11-23T14:34:00.460Z,143887,-0.0101834955,-0.03293333,-0.08336299
1732372440463,2024-11-23T14:34:00.463Z,143890,-0.0101834955,-0.03293333,-0.08336299
1732372440472,2024-11-23T14:34:00.472Z,143899,0.04609143,-0.028171107,-0.110424064
1732372440476,2024-11-23T14:34:00.476Z,143903,0.04609143,-0.028171107,-0.110424064
1732372440485,2024-11-23T14:34:00.485Z,143912,0.014230835,-0.01701514,-0.14362629
1732372440487,2024-11-23T14:34:00.487Z,143914,0.014230835,-0.01701514,-0.14362629
1732372440498,2024-11-23T14:34:00.498Z,143925,0.031205283,-0.00437887,-0.14233722
1732372440501,2024-11-23T14:34:00.501Z,143928,0.031205283,-0.00437887,-0.14233722
1732372440510,2024-11-23T14:34:00.510Z,143937,0.0612108,-0.049789272,-0.10788202
1732372440513,2024-11-23T14:34:00.513Z,143940,0.0612108,-0.049789272,-0.10788202
1732372440522,2024-11-23T14:34:00.522Z,143949,0.012509989,-0.011744218,-0.0860437
1732372440525,2024-11-23T14:34:00.525Z,143952,0.012509989,-0.011744218,-0.0860437
1732372440534,2024-11-23T14:34:00.534Z,143961,0.0154870385,0.0019402864,-0.097951554
1732372440537,2024-11-23T14:34:00.537Z,143964,0.0154870385,0.0019402864,-0.097951554
1732372440547,2024-11-23T14:34:00.547Z,143974,0.02851526,-9.5049915E-4,-0.09140923
1732372440550,2024-11-23T14:34:00.550Z,143977,0.02851526,-9.5049915E-4,-0.09140923
1732372440564,2024-11-23T14:34:00.564Z,143991,0.03508328,-0.01795854,-0.11161249
1732372440567,2024-11-23T14:34:00.567Z,143994,0.03508328,-0.01795854,-0.11161249
1732372440577,2024-11-23T14:34:00.577Z,144004,0.019844137,0.0074479105,-0.11120309
1732372440580,2024-11-23T14:34:00.580Z,144007,0.019844137,0.0074479105,-0.11120309
1732372440588,2024-11-23T14:34:00.588Z,144015,-0.0133359255,0.03070869,-0.11096896
1732372440591,2024-11-23T14:34:00.591Z,144018,-0.0133359255,0.03070869,-0.11096896
1732372440599,2024-11-23T14:34:00.599Z,144026,0.002270722,0.034676395,-0.09797244
1732372440603,2024-11-23T14:34:00.603Z,144030,0.002270722,0.034676395,-0.09797244
1732372440612,2024-11-23T14:34:00.612Z,144039,0.023649562,0.060122427,-0.06862565
1732372440615,2024-11-23T14:34:00.615Z,144042,0.023649562,0.060122427,-0.06862565
1732372440624,2024-11-23T14:34:00.624Z,144051,0.042793084,0.06415811,-0.08855649
1732372440627,2024-11-23T14:34:00.627Z,144054,0.042793084,0.06415811,-0.08855649
1732372440637,2024-11-23T14:34:00.637Z,144064,0.050503,0.099851035,-0.10596855
1732372440640,2024-11-23T14:34:00.640Z,144067,0.050503,0.099851035,-0.10596855
1732372440653,2024-11-23T14:34:00.653Z,144080,0.014218218,0.08040354,-0.10382169
1732372440656,2024-11-23T14:34:00.656Z,144083,0.014218218,0.08040354,-0.10382169
1732372440665,2024-11-23T14:34:00.665Z,144092,0.019125763,0.049368776,-0.065308325
1732372440667,2024-11-23T14:34:00.667Z,144094,0.019125763,0.049368776,-0.065308325
1732372440677,2024-11-23T14:34:00.677Z,144104,0.05640703,0.061603606,-0.07346171
1732372440680,2024-11-23T14:34:00.680Z,144107,0.05640703,0.061603606,-0.07346171
1732372440690,2024-11-23T14:34:00.690Z,144117,0.051935337,0.060650192,-0.09618574
1732372440692,2024-11-23T14:34:00.692Z,144119,0.051935337,0.060650192,-0.09618574
1732372440700,2024-11-23T14:34:00.700Z,144127,0.039229315,0.0694974,-0.12898675
1732372440703,2024-11-23T14:34:00.703Z,144130,0.039229315,0.0694974,-0.12898675
1732372440711,2024-11-23T14:34:00.711Z,144138,-0.021725778,0.03449639,-0.10015147
1732372440714,2024-11-23T14:34:00.714Z,144141,-0.021725778,0.03449639,-0.10015147
1732372440743,2024-11-23T14:34:00.743Z,144170,-0.004745482,0.013123385,-0.09161116
1732372440746,2024-11-23T14:34:00.746Z,144173,-0.004745482,0.013123385,-0.09161116
1732372440754,2024-11-23T14:34:00.754Z,144181,0.0429413,5.477964E-4,-0.058192812
1732372440757,2024-11-23T14:34:00.757Z,144184,0.0429413,5.477964E-4,-0.058192812
1732372440766,2024-11-23T14:34:00.766Z,144193,0.0013273826,-0.0085145235,-0.07284902
1732372440768,2024-11-23T14:34:00.768Z,144195,0.0013273826,-0.0085145235,-0.07284902
1732372440789,2024-11-23T14:34:00.789Z,144216,0.019906424,-0.010380805,-0.09341021
1732372440791,2024-11-23T14:34:00.791Z,144218,0.019906424,-0.010380805,-0.09341021
1732372440800,2024-11-23T14:34:00.800Z,144227,0.04203152,0.013605053,-0.10449724
1732372440803,2024-11-23T14:34:00.803Z,144230,0.04203152,0.013605053,-0.10449724
1732372440812,2024-11-23T14:34:00.812Z,144239,0.01645909,0.0050267344,-0.07231491
1732372440815,2024-11-23T14:34:00.815Z,144242,0.01645909,0.0050267344,-0.07231491
1732372440842,2024-11-23T14:34:00.842Z,144269,0.006470267,-0.018799733,-0.06409978
1732372440849,2024-11-23T14:34:00.849Z,144276,0.006470267,-0.018799733,-0.06409978
1732372440873,2024-11-23T14:34:00.873Z,144300,-0.00952418,0.017561382,-0.10990357
1732372440880,2024-11-23T14:34:00.880Z,144307,-0.00952418,0.017561382,-0.10990357
1732372440896,2024-11-23T14:34:00.896Z,144323,0.0021383679,-0.004478452,-0.08857717
1732372440900,2024-11-23T14:34:00.900Z,144327,0.0021383679,-0.004478452,-0.08857717
1732372440920,2024-11-23T14:34:00.920Z,144347,0.0368364,0.009184658,-0.07080534
1732372440924,2024-11-23T14:34:00.924Z,144351,0.0368364,0.009184658,-0.07080534
1732372440936,2024-11-23T14:34:00.936Z,144363,-7.5503124E-4,-0.03996317,-0.042180855
1732372440939,2024-11-23T14:34:00.939Z,144366,-7.5503124E-4,-0.03996317,-0.042180855
1732372440949,2024-11-23T14:34:00.949Z,144376,4.633489E-4,-0.040415857,-0.056930624
1732372440952,2024-11-23T14:34:00.952Z,144379,4.633489E-4,-0.040415857,-0.056930624
1732372440960,2024-11-23T14:34:00.960Z,144387,-0.00303143,-0.022832207,-0.092530094
1732372440963,2024-11-23T14:34:00.963Z,144390,-0.00303143,-0.022832207,-0.092530094
1732372440974,2024-11-23T14:34:00.974Z,144401,0.0013732228,-0.0033124518,-0.13095249
1732372440977,2024-11-23T14:34:00.977Z,144404,0.0013732228,-0.0033124518,-0.13095249
1732372440985,2024-11-23T14:34:00.985Z,144412,0.03028475,-0.026257467,-0.06624442
1732372440988,2024-11-23T14:34:00.988Z,144415,0.03028475,-0.026257467,-0.06624442
1732372440998,2024-11-23T14:34:00.998Z,144425,0.0075131394,-0.07852218,-0.049514677
1732372441001,2024-11-23T14:34:01.001Z,144428,0.0075131394,-0.07852218,-0.049514677
1732372441010,2024-11-23T14:34:01.010Z,144437,-0.0032432235,-0.048299633,-0.07983902
1732372441013,2024-11-23T14:34:01.013Z,144440,-0.0032432235,-0.048299633,-0.07983902
1732372441021,2024-11-23T14:34:01.021Z,144448,-0.0032005925,0.007306415,-0.10819923
1732372441024,2024-11-23T14:34:01.024Z,144451,-0.0032005925,0.007306415,-0.10819923
1732372441032,2024-11-23T14:34:01.032Z,144459,-0.013583774,-0.012228901,-0.12337567
1732372441035,2024-11-23T14:34:01.035Z,144462,-0.013583774,-0.012228901,-0.12337567
1732372441044,2024-11-23T14:34:01.044Z,144471,-0.001095374,-0.035172943,-0.060231976
1732372441047,2024-11-23T14:34:01.047Z,144474,-0.001095374,-0.035172943,-0.060231976
1732372441058,2024-11-23T14:34:01.058Z,144485,0.030992117,-0.06055839,-0.024236318
1732372441061,2024-11-23T14:34:01.061Z,144488,0.030992117,-0.06055839,-0.024236318
1732372441070,2024-11-23T14:34:01.070Z,144497,0.050960682,-0.06301506,-0.0041988464
1732372441073,2024-11-23T14:34:01.073Z,144500,0.050960682,-0.06301506,-0.0041988464
1732372441082,2024-11-23T14:34:01.082Z,144509,-0.002418879,-0.06312689,-0.047633786
1732372441085,2024-11-23T14:34:01.085Z,144512,-0.002418879,-0.06312689,-0.047633786
1732372441104,2024-11-23T14:34:01.104Z,144531,0.007421046,-0.060542926,-0.06178501
1732372441106,2024-11-23T14:34:01.106Z,144533,0.007421046,-0.060542926,-0.06178501
1732372441118,2024-11-23T14:34:01.118Z,144545,0.027525565,-0.06887871,-0.024057627
1732372441123,2024-11-23T14:34:01.123Z,144550,0.027525565,-0.06887871,-0.024057627
1732372441151,2024-11-23T14:34:01.151Z,144578,0.0056043616,-0.060620822,-0.038412895
1732372441158,2024-11-23T14:34:01.158Z,144585,0.0056043616,-0.060620822,-0.038412895
1732372441179,2024-11-23T14:34:01.179Z,144606,0.012750439,0.012519671,-0.05966371
1732372441185,2024-11-23T14:34:01.185Z,144612,0.012750439,0.012519671,-0.05966371
1732372441202,2024-11-23T14:34:01.202Z,144629,0.011422765,-0.006522404,-0.048642956
1732372441206,2024-11-23T14:34:01.206Z,144633,0.011422765,-0.006522404,-0.048642956
1732372441219,2024-11-23T14:34:01.219Z,144646,0.00813375,0.020810427,-0.06332468
1732372441223,2024-11-23T14:34:01.223Z,144650,0.00813375,0.020810427,-0.06332468
1732372441237,2024-11-23T14:34:01.237Z,144664,0.0071579423,0.04428087,-0.07451206
1732372441241,2024-11-23T14:34:01.241Z,144668,0.0071579423,0.04428087,-0.07451206
1732372441252,2024-11-23T14:34:01.252Z,144679,0.010410976,0.032613575,-0.07692482
1732372441255,2024-11-23T14:34:01.255Z,144682,0.010410976,0.032613575,-0.07692482
1732372441265,2024-11-23T14:34:01.265Z,144692,0.042588614,0.072184645,-0.075665854
1732372441267,2024-11-23T14:34:01.267Z,144694,0.042588614,0.072184645,-0.075665854
1732372441281,2024-11-23T14:34:01.281Z,144708,0.0507477,0.06093717,-0.03197542
1732372441288,2024-11-23T14:34:01.288Z,144715,0.0507477,0.06093717,-0.03197542
1732372441303,2024-11-23T14:34:01.303Z,144730,0.033073217,0.08822468,-0.05569982
1732372441305,2024-11-23T14:34:01.305Z,144732,0.033073217,0.08822468,-0.05569982
1732372441317,2024-11-23T14:34:01.317Z,144744,0.0066192267,0.100878164,-0.042516164
1732372441319,2024-11-23T14:34:01.319Z,144746,0.0066192267,0.100878164,-0.042516164
1732372441329,2024-11-23T14:34:01.329Z,144756,0.020259507,0.08327021,-0.09206691
1732372441333,2024-11-23T14:34:01.333Z,144760,0.020259507,0.08327021,-0.09206691
1732372441342,2024-11-23T14:34:01.342Z,144769,0.03321897,0.14281324,-0.13161771
1732372441345,2024-11-23T14:34:01.345Z,144772,0.03321897,0.14281324,-0.13161771
1732372441354,2024-11-23T14:34:01.354Z,144781,0.008789006,0.12769948,-0.1270196
1732372441356,2024-11-23T14:34:01.356Z,144783,0.008789006,0.12769948,-0.1270196
1732372441364,2024-11-23T14:34:01.364Z,144791,0.008148702,0.0740485,-0.09244466
1732372441367,2024-11-23T14:34:01.367Z,144794,0.008148702,0.0740485,-0.09244466
1732372441375,2024-11-23T14:34:01.375Z,144802,0.03398014,0.11363444,-0.04694673
1732372441379,2024-11-23T14:34:01.379Z,144806,0.03398014,0.11363444,-0.04694673
1732372441388,2024-11-23T14:34:01.388Z,144815,0.043736078,0.08534664,-0.03954383
1732372441394,2024-11-23T14:34:01.394Z,144821,0.043736078,0.08534664,-0.03954383
1732372441408,2024-11-23T14:34:01.408Z,144835,0.03701632,0.08242911,-0.058903866
1732372441410,2024-11-23T14:34:01.410Z,144837,0.03701632,0.08242911,-0.058903866
1732372441419,2024-11-23T14:34:01.419Z,144846,0.012097628,0.087304525,-0.08971169
1732372441422,2024-11-23T14:34:01.422Z,144849,0.012097628,0.087304525,-0.08971169
1732372441431,2024-11-23T14:34:01.431Z,144858,0.012329412,0.08680477,-0.08791842
1732372441434,2024-11-23T14:34:01.434Z,144861,0.012329412,0.08680477,-0.08791842
1732372441443,2024-11-23T14:34:01.443Z,144870,-0.009069164,0.071182996,-0.07049044
1732372441446,2024-11-23T14:34:01.446Z,144873,-0.009069164,0.071182996,-0.07049044
1732372441454,2024-11-23T14:34:01.454Z,144881,0.027055567,0.061015744,-0.05565407
1732372441457,2024-11-23T14:34:01.457Z,144884,0.027055567,0.061015744,-0.05565407
1732372441466,2024-11-23T14:34:01.466Z,144893,0.04725133,0.065860525,-0.06091338
1732372441469,2024-11-23T14:34:01.469Z,144896,0.04725133,0.065860525,-0.06091338
1732372441476,2024-11-23T14:34:01.476Z,144903,0.056264512,0.066839814,-0.057656273
1732372441479,2024-11-23T14:34:01.479Z,144906,0.056264512,0.066839814,-0.057656273
1732372441511,2024-11-23T14:34:01.511Z,144938,0.016336996,0.047280964,-0.084789
1732372441517,2024-11-23T14:34:01.517Z,144944,0.016336996,0.047280964,-0.084789
1732372441539,2024-11-23T14:34:01.539Z,144966,0.01988706,0.041404966,-0.069615774
1732372441548,2024-11-23T14:34:01.548Z,144975,0.01988706,0.041404966,-0.069615774
1732372441563,2024-11-23T14:34:01.563Z,144990,0.0320757,0.011151493,-0.0571593
1732372441566,2024-11-23T14:34:01.566Z,144993,0.0320757,0.011151493,-0.0571593
1732372441575,2024-11-23T14:34:01.575Z,145002,0.02329451,8.280643E-4,-0.034461636
1732372441578,2024-11-23T14:34:01.578Z,145005,0.02329451,8.280643E-4,-0.034461636
1732372441586,2024-11-23T14:34:01.586Z,145013,0.016753143,0.009947955,-0.0728006
1732372441588,2024-11-23T14:34:01.588Z,145015,0.016753143,0.009947955,-0.0728006
1732372441596,2024-11-23T14:34:01.596Z,145023,0.026042221,0.008993955,-0.06872904
1732372441599,2024-11-23T14:34:01.599Z,145026,0.026042221,0.008993955,-0.06872904
1732372441607,2024-11-23T14:34:01.607Z,145034,0.017417904,0.007500619,-0.066209905
1732372441610,2024-11-23T14:34:01.610Z,145037,0.017417904,0.007500619,-0.066209905
1732372441619,2024-11-23T14:34:01.619Z,145046,-0.008629932,0.008440129,-0.06838464
1732372441621,2024-11-23T14:34:01.621Z,145048,-0.008629932,0.008440129,-0.06838464
1732372441632,2024-11-23T14:34:01.632Z,145059,0.018978316,0.003532815,-0.06283363
1732372441635,2024-11-23T14:34:01.635Z,145062,0.018978316,0.003532815,-0.06283363
1732372441645,2024-11-23T14:34:01.645Z,145072,0.050592806,0.0098934965,-0.047946684
1732372441648,2024-11-23T14:34:01.648Z,145075,0.050592806,0.0098934965,-0.047946684
1732372441691,2024-11-23T14:34:01.691Z,145118,0.0040863366,-0.0120466575,-0.038706325
1732372441694,2024-11-23T14:34:01.694Z,145121,0.0040863366,-0.0120466575,-0.038706325
1732372441707,2024-11-23T14:34:01.707Z,145134,0.027221981,0.01480966,-0.05583607
1732372441710,2024-11-23T14:34:01.710Z,145137,0.027221981,0.01480966,-0.05583607
1732372441720,2024-11-23T14:34:01.720Z,145147,0.032613516,0.021629643,-0.08222466
1732372441723,2024-11-23T14:34:01.723Z,145150,0.032613516,0.021629643,-0.08222466
1732372441740,2024-11-23T14:34:01.740Z,145167,-0.001439181,0.010365342,-0.05332931
1732372441746,2024-11-23T14:34:01.746Z,145173,-0.001439181,0.010365342,-0.05332931
1732372441768,2024-11-23T14:34:01.768Z,145195,0.0055620708,-0.0096163405,-0.043611467
1732372441776,2024-11-23T14:34:01.776Z,145203,0.0055620708,-0.0096163405,-0.043611467
1732372441795,2024-11-23T14:34:01.795Z,145222,0.006697523,-0.010564991,-0.05521702
1732372441799,2024-11-23T14:34:01.799Z,145226,0.006697523,-0.010564991,-0.05521702
1732372441812,2024-11-23T14:34:01.812Z,145239,0.044632424,0.0076346262,-0.062020265
1732372441817,2024-11-23T14:34:01.817Z,145244,0.044632424,0.0076346262,-0.062020265
1732372441830,2024-11-23T14:34:01.830Z,145257,0.0044311895,0.010254382,-0.059701964
1732372441833,2024-11-23T14:34:01.833Z,145260,0.0044311895,0.010254382,-0.059701964
1732372441845,2024-11-23T14:34:01.845Z,145272,0.008391372,0.030814592,-0.06588321
1732372441848,2024-11-23T14:34:01.848Z,145275,0.008391372,0.030814592,-0.06588321
1732372441858,2024-11-23T14:34:01.858Z,145285,-0.00675978,0.01682726,-0.05383076
1732372441861,2024-11-23T14:34:01.861Z,145288,-0.00675978,0.01682726,-0.05383076
1732372441871,2024-11-23T14:34:01.871Z,145298,0.032407813,0.016869659,-0.058233403
1732372441874,2024-11-23T14:34:01.874Z,145301,0.032407813,0.016869659,-0.058233403
1732372441884,2024-11-23T14:34:01.884Z,145311,0.06650449,0.010610017,-0.061756786
1732372441886,2024-11-23T14:34:01.886Z,145313,0.06650449,0.010610017,-0.061756786
1732372441895,2024-11-23T14:34:01.895Z,145322,-0.010649311,0.010172111,-0.056817945
1732372441898,2024-11-23T14:34:01.898Z,145325,-0.010649311,0.010172111,-0.056817945
1732372441907,2024-11-23T14:34:01.907Z,145334,0.015596041,0.013606706,-0.048563298
1732372441910,2024-11-23T14:34:01.910Z,145337,0.015596041,0.013606706,-0.048563298
1732372441919,2024-11-23T14:34:01.919Z,145346,0.025178418,0.031701103,-0.034995463
1732372441922,2024-11-23T14:34:01.922Z,145349,0.025178418,0.031701103,-0.034995463
1732372441930,2024-11-23T14:34:01.930Z,145357,-0.020280434,0.008800627,-0.056087278
1732372441933,2024-11-23T14:34:01.933Z,145360,-0.020280434,0.008800627,-0.056087278
1732372441941,2024-11-23T14:34:01.941Z,145368,0.010791943,0.02250069,-0.056199636
1732372441943,2024-11-23T14:34:01.943Z,145370,0.010791943,0.02250069,-0.056199636
1732372441957,2024-11-23T14:34:01.957Z,145384,0.031195559,-0.004277246,-0.04365962
1732372441960,2024-11-23T14:34:01.960Z,145387,0.031195559,-0.004277246,-0.04365962
1732372441969,2024-11-23T14:34:01.969Z,145396,0.017816462,0.018858861,-0.057579126
1732372441971,2024-11-23T14:34:01.971Z,145398,0.017816462,0.018858861,-0.057579126
1732372442004,2024-11-23T14:34:02.004Z,145431,-0.0049991645,0.0062332866,-0.05211216
1732372442008,2024-11-23T14:34:02.008Z,145435,-0.0049991645,0.0062332866,-0.05211216
1732372442017,2024-11-23T14:34:02.017Z,145444,-0.00960602,4.1106608E-4,-0.05960607
1732372442019,2024-11-23T14:34:02.019Z,145446,-0.00960602,4.1106608E-4,-0.05960607
1732372442028,2024-11-23T14:34:02.028Z,145455,0.015111967,-0.032603074,-0.028606825
1732372442031,2024-11-23T14:34:02.031Z,145458,0.015111967,-0.032603074,-0.028606825
1732372442051,2024-11-23T14:34:02.051Z,145478,4.5995737E-4,-0.02515001,-0.038824257
1732372442058,2024-11-23T14:34:02.058Z,145485,4.5995737E-4,-0.02515001,-0.038824257
1732372442075,2024-11-23T14:34:02.075Z,145502,0.031249994,-0.07051976,-0.019485822
1732372442077,2024-11-23T14:34:02.077Z,145504,0.031249994,-0.07051976,-0.019485822
1732372442086,2024-11-23T14:34:02.086Z,145513,5.4737093E-4,-0.043606944,-0.03053212
1732372442089,2024-11-23T14:34:02.089Z,145516,5.4737093E-4,-0.043606944,-0.03053212
1732372442100,2024-11-23T14:34:02.100Z,145527,-0.014251488,-0.03866433,-0.055380244
1732372442103,2024-11-23T14:34:02.103Z,145530,-0.014251488,-0.03866433,-0.055380244
1732372442111,2024-11-23T14:34:02.111Z,145538,0.0065168003,-0.04987981,-0.055922203
1732372442115,2024-11-23T14:34:02.115Z,145542,0.0065168003,-0.04987981,-0.055922203
1732372442126,2024-11-23T14:34:02.126Z,145553,0.017596621,-0.046947014,-0.05105536
1732372442129,2024-11-23T14:34:02.129Z,145556,0.017596621,-0.046947014,-0.05105536
1732372442139,2024-11-23T14:34:02.139Z,145566,-0.012142981,-0.049964707,-0.040979683
1732372442142,2024-11-23T14:34:02.142Z,145569,-0.012142981,-0.049964707,-0.040979683
1732372442151,2024-11-23T14:34:02.151Z,145578,-0.008210807,-0.041677453,-0.051107343
1732372442153,2024-11-23T14:34:02.153Z,145580,-0.008210807,-0.041677453,-0.051107343
1732372442189,2024-11-23T14:34:02.189Z,145616,0.010766854,-0.013870831,-0.057550333
1732372442198,2024-11-23T14:34:02.198Z,145625,0.010766854,-0.013870831,-0.057550333
1732372442218,2024-11-23T14:34:02.218Z,145645,0.0083400365,-0.025596183,-0.04412004
1732372442220,2024-11-23T14:34:02.220Z,145647,0.0083400365,-0.025596183,-0.04412004
1732372442238,2024-11-23T14:34:02.238Z,145665,-0.0061072293,-0.0060636867,-0.04880675
1732372442243,2024-11-23T14:34:02.243Z,145670,-0.0061072293,-0.0060636867,-0.04880675
1732372442254,2024-11-23T14:34:02.254Z,145681,0.009157768,-0.0045825066,-0.0330693
1732372442257,2024-11-23T14:34:02.257Z,145684,0.009157768,-0.0045825066,-0.0330693
1732372442268,2024-11-23T14:34:02.268Z,145695,0.004695764,-0.01722325,-0.026790706
1732372442272,2024-11-23T14:34:02.272Z,145699,0.004695764,-0.01722325,-0.026790706
1732372442283,2024-11-23T14:34:02.283Z,145710,-0.0031193907,3.435762E-4,-0.043254428
1732372442286,2024-11-23T14:34:02.286Z,145713,-0.0031193907,3.435762E-4,-0.043254428
1732372442295,2024-11-23T14:34:02.295Z,145722,-0.0055338326,0.0027537635,-0.055126093
1732372442298,2024-11-23T14:34:02.298Z,145725,-0.0055338326,0.0027537635,-0.055126093
1732372442310,2024-11-23T14:34:02.310Z,145737,0.01245849,0.007604188,-0.06342631
1732372442317,2024-11-23T14:34:02.317Z,145744,0.01245849,0.007604188,-0.06342631
1732372442336,2024-11-23T14:34:02.336Z,145763,0.02625687,-0.0011403267,-0.03141814
1732372442343,2024-11-23T14:34:02.343Z,145770,0.02625687,-0.0011403267,-0.03141814
1732372442365,2024-11-23T14:34:02.365Z,145792,0.021102972,-0.017739248,0.001944067
1732372442371,2024-11-23T14:34:02.371Z,145798,0.021102972,-0.017739248,0.001944067
1732372442390,2024-11-23T14:34:02.390Z,145817,0.015984425,-0.021182885,9.2480145E-4
1732372442397,2024-11-23T14:34:02.397Z,145824,0.015984425,-0.021182885,9.2480145E-4
1732372442416,2024-11-23T14:34:02.416Z,145843,0.008428933,0.04171995,-0.070857786
1732372442420,2024-11-23T14:34:02.420Z,145847,0.008428933,0.04171995,-0.070857786
1732372442434,2024-11-23T14:34:02.434Z,145861,-0.011306275,0.016818993,-0.09274324
1732372442438,2024-11-23T14:34:02.438Z,145865,-0.011306275,0.016818993,-0.09274324
1732372442450,2024-11-23T14:34:02.450Z,145877,0.010462796,-0.0031883635,-0.08106359
1732372442454,2024-11-23T14:34:02.454Z,145881,0.010462796,-0.0031883635,-0.08106359
1732372442466,2024-11-23T14:34:02.466Z,145893,0.0028506587,-0.02753005,0.0011731721
1732372442470,2024-11-23T14:34:02.470Z,145897,0.0028506587,-0.02753005,0.0011731721
1732372442480,2024-11-23T14:34:02.480Z,145907,-0.023878198,-0.009920629,-0.008139251
1732372442484,2024-11-23T14:34:02.484Z,145911,-0.023878198,-0.009920629,-0.008139251
1732372442494,2024-11-23T14:34:02.494Z,145921,0.010799967,0.009638318,-0.027511865
1732372442497,2024-11-23T14:34:02.497Z,145924,0.010799967,0.009638318,-0.027511865
1732372442506,2024-11-23T14:34:02.506Z,145933,0.039850265,0.017017085,-0.048456755
1732372442508,2024-11-23T14:34:02.508Z,145935,0.039850265,0.017017085,-0.048456755
1732372442516,2024-11-23T14:34:02.516Z,145943,0.00557633,-5.4400373E-4,-0.044751044
1732372442518,2024-11-23T14:34:02.518Z,145945,0.00557633,-5.4400373E-4,-0.044751044
1732372442526,2024-11-23T14:34:02.526Z,145953,0.0024505574,0.005278314,-0.049587924
1732372442528,2024-11-23T14:34:02.528Z,145955,0.0024505574,0.005278314,-0.049587924
1732372442539,2024-11-23T14:34:02.539Z,145966,0.003114431,-0.0019258937,-0.04001405
1732372442544,2024-11-23T14:34:02.544Z,145971,0.003114431,-0.0019258937,-0.04001405
1732372442561,2024-11-23T14:34:02.561Z,145988,0.0050675543,-0.016502548,-0.033470117
1732372442566,2024-11-23T14:34:02.566Z,145993,0.0050675543,-0.016502548,-0.033470117
1732372442585,2024-11-23T14:34:02.585Z,146012,0.009280106,-0.0101116225,-0.032253828
1732372442591,2024-11-23T14:34:02.591Z,146018,0.009280106,-0.0101116225,-0.032253828
1732372442604,2024-11-23T14:34:02.604Z,146031,0.030742628,-0.019294823,-0.038022485
1732372442607,2024-11-23T14:34:02.607Z,146034,0.030742628,-0.019294823,-0.038022485
1732372442618,2024-11-23T14:34:02.618Z,146045,0.029025562,-0.02656827,-0.031913836
1732372442622,2024-11-23T14:34:02.622Z,146049,0.029025562,-0.02656827,-0.031913836
1732372442632,2024-11-23T14:34:02.632Z,146059,0.009911547,-0.04264108,-0.038118776
1732372442636,2024-11-23T14:34:02.636Z,146063,0.009911547,-0.04264108,-0.038118776
1732372442644,2024-11-23T14:34:02.644Z,146071,-0.0041690217,-0.045964815,-0.021721955
1732372442647,2024-11-23T14:34:02.647Z,146074,-0.0041690217,-0.045964815,-0.021721955
1732372442655,2024-11-23T14:34:02.655Z,146082,0.014891165,-0.044921927,-0.020971743
1732372442657,2024-11-23T14:34:02.657Z,146084,0.014891165,-0.044921927,-0.020971743
1732372442665,2024-11-23T14:34:02.665Z,146092,0.020726064,-0.022908645,-0.034058653
1732372442668,2024-11-23T14:34:02.668Z,146095,0.020726064,-0.022908645,-0.034058653
1732372442678,2024-11-23T14:34:02.678Z,146105,-0.019040288,-0.027760819,-0.055688825
1732372442680,2024-11-23T14:34:02.680Z,146107,-0.019040288,-0.027760819,-0.055688825
1732372442689,2024-11-23T14:34:02.689Z,146116,-0.007627953,-0.036038835,-0.038065255
1732372442691,2024-11-23T14:34:02.691Z,146118,-0.007627953,-0.036038835,-0.038065255
1732372442699,2024-11-23T14:34:02.699Z,146126,0.0016992337,-0.04868055,-0.046967804
1732372442702,2024-11-23T14:34:02.702Z,146129,0.0016992337,-0.04868055,-0.046967804
1732372442710,2024-11-23T14:34:02.710Z,146137,0.0039635007,-0.04068786,-0.01294121
1732372442712,2024-11-23T14:34:02.712Z,146139,0.0039635007,-0.04068786,-0.01294121
1732372442722,2024-11-23T14:34:02.722Z,146149,-0.0030696485,-0.044961315,-0.02808582
1732372442725,2024-11-23T14:34:02.725Z,146152,-0.0030696485,-0.044961315,-0.02808582
1732372442734,2024-11-23T14:34:02.734Z,146161,-0.0012648402,-0.01852073,-0.05062174
1732372442737,2024-11-23T14:34:02.737Z,146164,-0.0012648402,-0.01852073,-0.05062174
1732372442745,2024-11-23T14:34:02.745Z,146172,0.014597624,-0.02701843,-0.035071038
1732372442748,2024-11-23T14:34:02.748Z,146175,0.014597624,-0.02701843,-0.035071038
1732372442757,2024-11-23T14:34:02.757Z,146184,0.006058812,-0.077635475,-0.009042882
1732372442760,2024-11-23T14:34:02.760Z,146187,0.006058812,-0.077635475,-0.009042882
1732372442768,2024-11-23T14:34:02.768Z,146195,0.008470932,-0.065784775,-0.0044015106
1732372442770,2024-11-23T14:34:02.770Z,146197,0.008470932,-0.065784775,-0.0044015106
1732372442778,2024-11-23T14:34:02.778Z,146205,-0.018595733,-0.035286527,-0.02387821
1732372442782,2024-11-23T14:34:02.782Z,146209,-0.018595733,-0.035286527,-0.02387821
1732372442791,2024-11-23T14:34:02.791Z,146218,-0.0048307315,-0.003440235,-0.03277516
1732372442793,2024-11-23T14:34:02.793Z,146220,-0.0048307315,-0.003440235,-0.03277516
1732372442802,2024-11-23T14:34:02.802Z,146229,0.022566454,-0.01941074,-0.04486646
1732372442804,2024-11-23T14:34:02.804Z,146231,0.022566454,-0.01941074,-0.04486646
1732372442815,2024-11-23T14:34:02.815Z,146242,0.0074871257,-0.024951916,-0.056529306
1732372442818,2024-11-23T14:34:02.818Z,146245,0.0074871257,-0.024951916,-0.056529306
1732372442825,2024-11-23T14:34:02.825Z,146252,0.016833458,-0.04097114,-0.031537615
1732372442828,2024-11-23T14:34:02.828Z,146255,0.016833458,-0.04097114,-0.031537615
1732372442837,2024-11-23T14:34:02.837Z,146264,-9.1690006E-4,-0.04574873,-0.004428746
1732372442840,2024-11-23T14:34:02.840Z,146267,-9.1690006E-4,-0.04574873,-0.004428746
1732372442863,2024-11-23T14:34:02.863Z,146290,0.018317275,-0.054782946,-0.029591829
1732372442872,2024-11-23T14:34:02.872Z,146299,0.018317275,-0.054782946,-0.029591829
1732372442892,2024-11-23T14:34:02.892Z,146319,0.010541737,-0.036136277,-0.047444783
1732372442898,2024-11-23T14:34:02.898Z,146325,0.010541737,-0.036136277,-0.047444783
1732372442921,2024-11-23T14:34:02.921Z,146348,-8.9577305E-5,-0.03213784,-0.05363124
1732372442927,2024-11-23T14:34:02.927Z,146354,-8.9577305E-5,-0.03213784,-0.05363124
1732372442943,2024-11-23T14:34:02.943Z,146370,0.0015157637,-0.041692723,-0.012814137
1732372442947,2024-11-23T14:34:02.947Z,146374,0.0015157637,-0.041692723,-0.012814137
1732372442957,2024-11-23T14:34:02.957Z,146384,0.020102039,-0.05671234,0.010223664
1732372442960,2024-11-23T14:34:02.960Z,146387,0.020102039,-0.05671234,0.010223664
1732372442969,2024-11-23T14:34:02.969Z,146396,0.01910999,-0.080024175,0.018113919
1732372442972,2024-11-23T14:34:02.972Z,146399,0.01910999,-0.080024175,0.018113919
1732372442980,2024-11-23T14:34:02.980Z,146407,-0.004640545,-0.031033885,-0.050013952
1732372442983,2024-11-23T14:34:02.983Z,146410,-0.004640545,-0.031033885,-0.050013952
1732372442991,2024-11-23T14:34:02.991Z,146418,0.0047583305,-0.022177633,-0.059812546
1732372442994,2024-11-23T14:34:02.994Z,146421,0.0047583305,-0.022177633,-0.059812546
1732372443001,2024-11-23T14:34:03.001Z,146428,0.00689541,-0.026994215,-0.07257123
1732372443003,2024-11-23T14:34:03.003Z,146430,0.00689541,-0.026994215,-0.07257123
1732372443010,2024-11-23T14:34:03.010Z,146437,0.030450812,-0.061517835,-0.009459395
1732372443013,2024-11-23T14:34:03.013Z,146440,0.030450812,-0.061517835,-0.009459395
1732372443020,2024-11-23T14:34:03.020Z,146447,0.03866764,-0.07611336,-0.0071126977
1732372443023,2024-11-23T14:34:03.023Z,146450,0.03866764,-0.07611336,-0.0071126977
1732372443031,2024-11-23T14:34:03.031Z,146458,0.04020082,-0.055105805,-0.019699287
1732372443033,2024-11-23T14:34:03.033Z,146460,0.04020082,-0.055105805,-0.019699287
1732372443044,2024-11-23T14:34:03.044Z,146471,0.043609284,-0.0039390186,-0.08266502
1732372443047,2024-11-23T14:34:03.047Z,146474,0.043609284,-0.0039390186,-0.08266502
1732372443054,2024-11-23T14:34:03.054Z,146481,0.03211078,-0.016643265,-0.05886104
1732372443056,2024-11-23T14:34:03.056Z,146483,0.03211078,-0.016643265,-0.05886104
1732372443064,2024-11-23T14:34:03.064Z,146491,0.010730167,-0.046888568,-0.030330006
1732372443066,2024-11-23T14:34:03.066Z,146493,0.010730167,-0.046888568,-0.030330006
1732372443074,2024-11-23T14:34:03.074Z,146501,0.037183933,-0.010289781,0.008395978
1732372443078,2024-11-23T14:34:03.078Z,146505,0.037183933,-0.010289781,0.008395978
1732372443086,2024-11-23T14:34:03.086Z,146513,0.0496101,-0.014185525,7.364813E-4
1732372443089,2024-11-23T14:34:03.089Z,146516,0.0496101,-0.014185525,7.364813E-4
1732372443096,2024-11-23T14:34:03.096Z,146523,0.0111860335,-0.0058736647,-0.049352083
1732372443098,2024-11-23T14:34:03.098Z,146525,0.0111860335,-0.0058736647,-0.049352083
1732372443105,2024-11-23T14:34:03.105Z,146532,-0.008859042,-0.043634564,-0.07273543
1732372443107,2024-11-23T14:34:03.107Z,146534,-0.008859042,-0.043634564,-0.07273543
1732372443114,2024-11-23T14:34:03.114Z,146541,0.050481915,-0.045916382,-0.046124354
1732372443116,2024-11-23T14:34:03.116Z,146543,0.050481915,-0.045916382,-0.046124354
1732372443130,2024-11-23T14:34:03.130Z,146557,0.025724871,-0.06479187,-0.016558697
1732372443135,2024-11-23T14:34:03.135Z,146562,0.025724871,-0.06479187,-0.016558697
1732372443151,2024-11-23T14:34:03.151Z,146578,0.015641693,-0.05221687,-0.026393406
1732372443156,2024-11-23T14:34:03.156Z,146583,0.015641693,-0.05221687,-0.026393406
1732372443172,2024-11-23T14:34:03.172Z,146599,0.015957182,-0.035877112,-0.057548963
1732372443175,2024-11-23T14:34:03.175Z,146602,0.015957182,-0.035877112,-0.057548963
1732372443184,2024-11-23T14:34:03.184Z,146611,-0.005273786,-0.062459677,-0.06991111
1732372443187,2024-11-23T14:34:03.187Z,146614,-0.005273786,-0.062459677,-0.06991111
1732372443195,2024-11-23T14:34:03.195Z,146622,-0.026175948,-0.08403982,-0.029055672
1732372443198,2024-11-23T14:34:03.198Z,146625,-0.026175948,-0.08403982,-0.029055672
1732372443206,2024-11-23T14:34:03.206Z,146633,-0.036004554,-0.10372713,-0.041538402
1732372443209,2024-11-23T14:34:03.209Z,146636,-0.036004554,-0.10372713,-0.041538402
1732372443217,2024-11-23T14:34:03.217Z,146644,0.007792411,-0.07218717,-0.040027257
1732372443220,2024-11-23T14:34:03.220Z,146647,0.007792411,-0.07218717,-0.040027257
1732372443227,2024-11-23T14:34:03.227Z,146654,0.045876883,-0.038841322,-0.01030421
1732372443230,2024-11-23T14:34:03.230Z,146657,0.045876883,-0.038841322,-0.01030421
1732372443237,2024-11-23T14:34:03.237Z,146664,0.016321601,-0.046333674,8.9949276E-4
1732372443240,2024-11-23T14:34:03.240Z,146667,0.016321601,-0.046333674,8.9949276E-4
1732372443250,2024-11-23T14:34:03.250Z,146677,-0.0020856718,-0.049944386,-0.009663518
1732372443253,2024-11-23T14:34:03.253Z,146680,-0.0020856718,-0.049944386,-0.009663518
1732372443316,2024-11-23T14:34:03.316Z,146743,-0.0013097018,-0.02604469,-0.04855457
1732372443322,2024-11-23T14:34:03.322Z,146749,-0.0013097018,-0.02604469,-0.04855457
1732372443347,2024-11-23T14:34:03.347Z,146774,0.06197509,0.03706869,-0.034747057
1732372443353,2024-11-23T14:34:03.353Z,146780,0.06197509,0.03706869,-0.034747057
1732372443371,2024-11-23T14:34:03.371Z,146798,0.040586352,0.052799188,9.933489E-4
1732372443375,2024-11-23T14:34:03.375Z,146802,0.040586352,0.052799188,9.933489E-4
1732372443402,2024-11-23T14:34:03.402Z,146829,-0.011358138,0.017343352,-0.027329804
1732372443406,2024-11-23T14:34:03.406Z,146833,-0.011358138,0.017343352,-0.027329804
1732372443419,2024-11-23T14:34:03.419Z,146846,-0.04921562,0.020245224,-0.06977554
1732372443422,2024-11-23T14:34:03.422Z,146849,-0.04921562,0.020245224,-0.06977554
1732372443435,2024-11-23T14:34:03.435Z,146862,-0.034541026,0.03531823,-0.10653301
1732372443438,2024-11-23T14:34:03.438Z,146865,-0.034541026,0.03531823,-0.10653301
1732372443450,2024-11-23T14:34:03.450Z,146877,0.0052495287,0.010137393,-0.0033335788
1732372443453,2024-11-23T14:34:03.453Z,146880,0.0052495287,0.010137393,-0.0033335788
1732372443464,2024-11-23T14:34:03.464Z,146891,-0.0042934017,-0.0011512184,-0.0033296403
1732372443467,2024-11-23T14:34:03.467Z,146894,-0.0042934017,-0.0011512184,-0.0033296403
1732372443477,2024-11-23T14:34:03.477Z,146904,-0.0020866927,-0.049040854,4.443856E-4
1732372443480,2024-11-23T14:34:03.480Z,146907,-0.0020866927,-0.049040854,4.443856E-4
1732372443493,2024-11-23T14:34:03.493Z,146920,0.013129912,-0.040957335,0.01171074
1732372443496,2024-11-23T14:34:03.496Z,146923,0.013129912,-0.040957335,0.01171074
1732372443504,2024-11-23T14:34:03.504Z,146931,-0.00672984,-0.04933892,0.011614295
1732372443506,2024-11-23T14:34:03.506Z,146933,-0.00672984,-0.04933892,0.011614295
1732372443532,2024-11-23T14:34:03.532Z,146959,-0.014388237,-0.042105827,0.010121044
1732372443535,2024-11-23T14:34:03.535Z,146962,-0.014388237,-0.042105827,0.010121044
1732372443543,2024-11-23T14:34:03.543Z,146970,0.009905719,-0.029111005,-0.0016482759
1732372443546,2024-11-23T14:34:03.546Z,146973,0.009905719,-0.029111005,-0.0016482759
1732372443555,2024-11-23T14:34:03.555Z,146982,0.00974678,-0.028246474,-0.021179702
1732372443558,2024-11-23T14:34:03.558Z,146985,0.00974678,-0.028246474,-0.021179702
1732372443567,2024-11-23T14:34:03.567Z,146994,0.0044200365,-0.014243192,-0.027859354
1732372443570,2024-11-23T14:34:03.570Z,146997,0.0044200365,-0.014243192,-0.027859354
1732372443581,2024-11-23T14:34:03.581Z,147008,-0.030761002,0.011366021,-0.028229019
1732372443584,2024-11-23T14:34:03.584Z,147011,-0.030761002,0.011366021,-0.028229019
1732372443591,2024-11-23T14:34:03.591Z,147018,0.0074672326,0.020599788,-0.032438397
1732372443593,2024-11-23T14:34:03.593Z,147020,0.0074672326,0.020599788,-0.032438397
1732372443624,2024-11-23T14:34:03.624Z,147051,0.012029822,0.041552003,-0.042519145
1732372443626,2024-11-23T14:34:03.626Z,147053,0.012029822,0.041552003,-0.042519145
1732372443635,2024-11-23T14:34:03.635Z,147062,-0.009932905,0.025386808,-0.014460468
1732372443637,2024-11-23T14:34:03.637Z,147064,-0.009932905,0.025386808,-0.014460468
1732372443646,2024-11-23T14:34:03.646Z,147073,0.020695262,0.014089832,-0.034273267
1732372443649,2024-11-23T14:34:03.649Z,147076,0.020695262,0.014089832,-0.034273267
1732372443657,2024-11-23T14:34:03.657Z,147084,0.039829995,0.003722059,-0.029225966
1732372443659,2024-11-23T14:34:03.659Z,147086,0.039829995,0.003722059,-0.029225966
1732372443669,2024-11-23T14:34:03.669Z,147096,0.025089728,-0.017615937,-0.044896863
1732372443671,2024-11-23T14:34:03.671Z,147098,0.025089728,-0.017615937,-0.044896863
1732372443679,2024-11-23T14:34:03.679Z,147106,-0.0028134007,-0.004667112,-0.03242928
1732372443681,2024-11-23T14:34:03.681Z,147108,-0.0028134007,-0.004667112,-0.03242928
1732372443713,2024-11-23T14:34:03.713Z,147140,-0.0080897035,0.0023937526,-0.040859066
1732372443716,2024-11-23T14:34:03.716Z,147143,-0.0080897035,0.0023937526,-0.040859066
1732372443724,2024-11-23T14:34:03.724Z,147151,0.031190764,-0.010685579,-0.02356886
1732372443727,2024-11-23T14:34:03.727Z,147154,0.031190764,-0.010685579,-0.02356886
1732372443735,2024-11-23T14:34:03.735Z,147162,0.043847583,-0.006875511,-0.015103835
1732372443737,2024-11-23T14:34:03.737Z,147164,0.043847583,-0.006875511,-0.015103835
1732372443759,2024-11-23T14:34:03.759Z,147186,0.07558588,-0.004504417,-0.013177637
1732372443762,2024-11-23T14:34:03.762Z,147189,0.07558588,-0.004504417,-0.013177637
1732372443771,2024-11-23T14:34:03.771Z,147198,-0.022588395,2.5877616E-4,-0.0488023
1732372443773,2024-11-23T14:34:03.773Z,147200,-0.022588395,2.5877616E-4,-0.0488023
1732372443782,2024-11-23T14:34:03.782Z,147209,-0.0210488,2.3485323E-4,-0.055526428
1732372443785,2024-11-23T14:34:03.785Z,147212,-0.0210488,2.3485323E-4,-0.055526428
1732372443803,2024-11-23T14:34:03.803Z,147230,-0.0020630434,-0.00806592,-0.05793309
1732372443806,2024-11-23T14:34:03.806Z,147233,-0.0020630434,-0.00806592,-0.05793309
1732372443815,2024-11-23T14:34:03.815Z,147242,0.014534784,-0.011356296,-0.027711004
1732372443818,2024-11-23T14:34:03.818Z,147245,0.014534784,-0.011356296,-0.027711004
1732372443826,2024-11-23T14:34:03.826Z,147253,0.024721,-0.012299794,-0.026125671
1732372443828,2024-11-23T14:34:03.828Z,147255,0.024721,-0.012299794,-0.026125671
1732372443851,2024-11-23T14:34:03.851Z,147278,0.021220248,-0.0018479984,-0.041419357
1732372443853,2024-11-23T14:34:03.853Z,147280,0.021220248,-0.0018479984,-0.041419357
1732372443862,2024-11-23T14:34:03.862Z,147289,0.047611155,-0.00670416,-0.0400234
1732372443865,2024-11-23T14:34:03.865Z,147292,0.047611155,-0.00670416,-0.0400234
1732372443874,2024-11-23T14:34:03.874Z,147301,0.021137308,5.817358E-4,-0.056487672
1732372443876,2024-11-23T14:34:03.876Z,147303,0.021137308,5.817358E-4,-0.056487672
1732372443895,2024-11-23T14:34:03.895Z,147322,0.011279124,0.019708805,-0.051610548
1732372443897,2024-11-23T14:34:03.897Z,147324,0.011279124,0.019708805,-0.051610548
1732372443908,2024-11-23T14:34:03.908Z,147335,0.014090683,0.025625745,-0.039706316
1732372443911,2024-11-23T14:34:03.911Z,147338,0.014090683,0.025625745,-0.039706316
1732372443919,2024-11-23T14:34:03.919Z,147346,-0.0076468065,0.018373594,-0.024883807
1732372443922,2024-11-23T14:34:03.922Z,147349,-0.0076468065,0.018373594,-0.024883807
1732372443941,2024-11-23T14:34:03.941Z,147368,0.019511124,0.01322705,-0.0013737698
1732372443943,2024-11-23T14:34:03.943Z,147370,0.019511124,0.01322705,-0.0013737698
1732372443953,2024-11-23T14:34:03.953Z,147380,0.0033186998,0.01034881,-0.039431784
1732372443956,2024-11-23T14:34:03.956Z,147383,0.0033186998,0.01034881,-0.039431784
1732372443983,2024-11-23T14:34:03.983Z,147410,-0.007947527,0.009424081,-0.04187325
1732372443985,2024-11-23T14:34:03.985Z,147412,-0.007947527,0.009424081,-0.04187325
1732372443994,2024-11-23T14:34:03.994Z,147421,0.008143967,0.0022351416,-0.043568812
1732372443997,2024-11-23T14:34:03.997Z,147424,0.008143967,0.0022351416,-0.043568812
1732372444005,2024-11-23T14:34:04.005Z,147432,0.0026843166,-0.003057857,-0.031491984
1732372444007,2024-11-23T14:34:04.007Z,147434,0.0026843166,-0.003057857,-0.031491984
1732372444034,2024-11-23T14:34:04.034Z,147461,-0.0032918958,-0.008345312,-0.029685315
1732372444041,2024-11-23T14:34:04.041Z,147468,-0.0032918958,-0.008345312,-0.029685315
1732372444065,2024-11-23T14:34:04.065Z,147492,0.0032904372,-0.024310956,-0.008015145
1732372444072,2024-11-23T14:34:04.072Z,147499,0.0032904372,-0.024310956,-0.008015145
1732372444093,2024-11-23T14:34:04.093Z,147520,0.012121466,-0.02621954,-0.011422267
1732372444099,2024-11-23T14:34:04.099Z,147526,0.012121466,-0.02621954,-0.011422267
1732372444117,2024-11-23T14:34:04.117Z,147544,-0.014507019,-0.014013785,-0.027349984
1732372444123,2024-11-23T14:34:04.123Z,147550,-0.014507019,-0.014013785,-0.027349984
1732372444142,2024-11-23T14:34:04.142Z,147569,0.0071339463,-0.011131071,-0.039025582
1732372444146,2024-11-23T14:34:04.146Z,147573,0.0071339463,-0.011131071,-0.039025582
1732372444159,2024-11-23T14:34:04.159Z,147586,0.008046531,0.004909551,-0.05412944
1732372444173,2024-11-23T14:34:04.173Z,147600,0.008046531,0.004909551,-0.05412944
1732372444187,2024-11-23T14:34:04.187Z,147614,-0.005079157,-0.005830487,-0.053694595
1732372444191,2024-11-23T14:34:04.191Z,147618,-0.005079157,-0.005830487,-0.053694595
1732372444200,2024-11-23T14:34:04.200Z,147627,-0.02679704,-0.017089633,-0.028779294
1732372444204,2024-11-23T14:34:04.204Z,147631,-0.02679704,-0.017089633,-0.028779294
1732372444212,2024-11-23T14:34:04.212Z,147639,-0.008261764,-0.012759387,-0.02101838
1732372444214,2024-11-23T14:34:04.214Z,147641,-0.008261764,-0.012759387,-0.02101838
1732372444222,2024-11-23T14:34:04.222Z,147649,0.013108785,-0.01279673,-0.019718396
1732372444224,2024-11-23T14:34:04.224Z,147651,0.013108785,-0.01279673,-0.019718396
1732372444233,2024-11-23T14:34:04.233Z,147660,-0.0026519026,-0.026585191,-0.040337864
1732372444235,2024-11-23T14:34:04.235Z,147662,-0.0026519026,-0.026585191,-0.040337864
1732372444243,2024-11-23T14:34:04.243Z,147670,0.012518018,-3.7275048E-4,-0.057885528
1732372444246,2024-11-23T14:34:04.246Z,147673,0.012518018,-3.7275048E-4,-0.057885528
1732372444254,2024-11-23T14:34:04.254Z,147681,-0.0039140685,0.0029650829,-0.06430151
1732372444257,2024-11-23T14:34:04.257Z,147684,-0.0039140685,0.0029650829,-0.06430151
1732372444264,2024-11-23T14:34:04.264Z,147691,0.02942593,-0.03374379,-0.00960946
1732372444266,2024-11-23T14:34:04.266Z,147693,0.02942593,-0.03374379,-0.00960946
1732372444273,2024-11-23T14:34:04.273Z,147700,-0.012389268,-0.00844363,-0.010100136
1732372444275,2024-11-23T14:34:04.275Z,147702,-0.012389268,-0.00844363,-0.010100136
1732372444282,2024-11-23T14:34:04.282Z,147709,-0.032464642,-0.00556218,-0.026825892
1732372444284,2024-11-23T14:34:04.284Z,147711,-0.032464642,-0.00556218,-0.026825892
1732372444295,2024-11-23T14:34:04.295Z,147722,0.012031475,-0.0012584827,-0.054714676
1732372444304,2024-11-23T14:34:04.304Z,147731,0.012031475,-0.0012584827,-0.054714676
1732372444323,2024-11-23T14:34:04.323Z,147750,0.026481306,-0.0022152057,-0.0683817
1732372444331,2024-11-23T14:34:04.331Z,147758,0.026481306,-0.0022152057,-0.0683817
1732372444354,2024-11-23T14:34:04.354Z,147781,0.015759138,-0.0022151084,-0.05960759
1732372444360,2024-11-23T14:34:04.360Z,147787,0.015759138,-0.0022151084,-0.05960759
1732372444379,2024-11-23T14:34:04.379Z,147806,0.03664728,0.01722928,-0.008991901
1732372444386,2024-11-23T14:34:04.386Z,147813,0.03664728,0.01722928,-0.008991901
1732372444410,2024-11-23T14:34:04.410Z,147837,0.035914373,0.017652405,6.721033E-5
1732372444417,2024-11-23T14:34:04.417Z,147844,0.035914373,0.017652405,6.721033E-5
1732372444437,2024-11-23T14:34:04.437Z,147864,0.016127925,-0.017537361,-0.0091448715
1732372444441,2024-11-23T14:34:04.441Z,147868,0.016127925,-0.017537361,-0.0091448715
1732372444454,2024-11-23T14:34:04.454Z,147881,0.006684522,-0.005430896,-0.05555888
1732372444459,2024-11-23T14:34:04.459Z,147886,0.006684522,-0.005430896,-0.05555888
1732372444472,2024-11-23T14:34:04.472Z,147899,0.021651736,-0.011290362,-0.0442081
1732372444476,2024-11-23T14:34:04.476Z,147903,0.021651736,-0.011290362,-0.0442081
1732372444488,2024-11-23T14:34:04.488Z,147915,0.034802914,-6.097432E-5,-0.020041345
1732372444491,2024-11-23T14:34:04.491Z,147918,0.034802914,-6.097432E-5,-0.020041345
1732372444501,2024-11-23T14:34:04.501Z,147928,0.030775668,-0.016669912,-0.023942132
1732372444504,2024-11-23T14:34:04.504Z,147931,0.030775668,-0.016669912,-0.023942132
1732372444513,2024-11-23T14:34:04.513Z,147940,0.014706018,-0.011841952,-0.032513887
1732372444516,2024-11-23T14:34:04.516Z,147943,0.014706018,-0.011841952,-0.032513887
1732372444524,2024-11-23T14:34:04.524Z,147951,0.014199394,-0.007763285,-0.044076893
1732372444527,2024-11-23T14:34:04.527Z,147954,0.014199394,-0.007763285,-0.044076893
1732372444535,2024-11-23T14:34:04.535Z,147962,0.002558879,0.0023340425,-0.03813779
1732372444537,2024-11-23T14:34:04.537Z,147964,0.002558879,0.0023340425,-0.03813779
1732372444544,2024-11-23T14:34:04.544Z,147971,0.009727676,-0.023624485,-0.0052203545
1732372444547,2024-11-23T14:34:04.547Z,147974,0.009727676,-0.023624485,-0.0052203545
1732372444555,2024-11-23T14:34:04.555Z,147982,0.019118803,-0.0051721195,-0.042799503
1732372444557,2024-11-23T14:34:04.557Z,147984,0.019118803,-0.0051721195,-0.042799503
1732372444564,2024-11-23T14:34:04.564Z,147991,0.019966573,-0.007694434,-0.029881932
1732372444566,2024-11-23T14:34:04.566Z,147993,0.019966573,-0.007694434,-0.029881932
1732372444574,2024-11-23T14:34:04.574Z,148001,0.011549345,-0.012655915,-0.037493527
1732372444576,2024-11-23T14:34:04.576Z,148003,0.011549345,-0.012655915,-0.037493527
1732372444584,2024-11-23T14:34:04.584Z,148011,-0.0062608016,-0.039820023,-0.01646895
1732372444587,2024-11-23T14:34:04.587Z,148014,-0.0062608016,-0.039820023,-0.01646895
1732372444594,2024-11-23T14:34:04.594Z,148021,0.0022439668,-0.018931115,-0.029553914
1732372444596,2024-11-23T14:34:04.596Z,148023,0.0022439668,-0.018931115,-0.029553914
1732372444604,2024-11-23T14:34:04.604Z,148031,-0.0029585916,-0.0068451692,-0.049325336
1732372444606,2024-11-23T14:34:04.606Z,148033,-0.0029585916,-0.0068451692,-0.049325336
1732372444615,2024-11-23T14:34:04.615Z,148042,0.016708482,-0.02454435,-0.058375884
1732372444620,2024-11-23T14:34:04.620Z,148047,0.016708482,-0.02454435,-0.058375884
1732372444634,2024-11-23T14:34:04.634Z,148061,0.003178031,-0.03437551,-0.043873865
1732372444637,2024-11-23T14:34:04.637Z,148064,0.003178031,-0.03437551,-0.043873865
1732372444643,2024-11-23T14:34:04.643Z,148070,0.02334953,-0.030547451,-0.028778432
1732372444646,2024-11-23T14:34:04.646Z,148073,0.02334953,-0.030547451,-0.028778432
1732372444659,2024-11-23T14:34:04.659Z,148086,0.005875634,-0.050748527,3.5542823E-4
1732372444661,2024-11-23T14:34:04.661Z,148088,0.005875634,-0.050748527,3.5542823E-4
1732372444670,2024-11-23T14:34:04.670Z,148097,0.010531514,-0.022032151,-0.0045265164
1732372444673,2024-11-23T14:34:04.673Z,148100,0.010531514,-0.022032151,-0.0045265164
1732372444680,2024-11-23T14:34:04.680Z,148107,0.005430762,0.013014078,-0.014630189
1732372444683,2024-11-23T14:34:04.683Z,148110,0.005430762,0.013014078,-0.014630189
1732372444706,2024-11-23T14:34:04.706Z,148133,0.008831174,-0.022301137,-0.011332568
1732372444713,2024-11-23T14:34:04.713Z,148140,0.008831174,-0.022301137,-0.011332568
1732372444732,2024-11-23T14:34:04.732Z,148159,-0.011367194,-0.035559017,-0.025171362
1732372444737,2024-11-23T14:34:04.737Z,148164,-0.011367194,-0.035559017,-0.025171362
1732372444755,2024-11-23T14:34:04.755Z,148182,0.003144517,-0.012214119,-0.035465915
1732372444758,2024-11-23T14:34:04.758Z,148185,0.003144517,-0.012214119,-0.035465915
1732372444768,2024-11-23T14:34:04.768Z,148195,-0.0011834925,-0.020757038,-0.0236392
1732372444775,2024-11-23T14:34:04.775Z,148202,-0.0011834925,-0.020757038,-0.0236392
1732372444785,2024-11-23T14:34:04.785Z,148212,0.036010742,-0.024237534,-0.020713951
1732372444787,2024-11-23T14:34:04.787Z,148214,0.036010742,-0.024237534,-0.020713951
1732372444795,2024-11-23T14:34:04.795Z,148222,0.020851636,-0.01699112,-0.018013231
1732372444798,2024-11-23T14:34:04.798Z,148225,0.020851636,-0.01699112,-0.018013231
1732372444806,2024-11-23T14:34:04.806Z,148233,0.02285506,-0.0024847763,-0.009867459
1732372444809,2024-11-23T14:34:04.809Z,148236,0.02285506,-0.0024847763,-0.009867459
1732372444819,2024-11-23T14:34:04.819Z,148246,0.032108046,-0.024484446,0.010470722
1732372444821,2024-11-23T14:34:04.821Z,148248,0.032108046,-0.024484446,0.010470722
1732372444837,2024-11-23T14:34:04.837Z,148264,0.018081596,-0.029903673,0.015219426
1732372444840,2024-11-23T14:34:04.840Z,148267,0.018081596,-0.029903673,0.015219426
1732372444847,2024-11-23T14:34:04.847Z,148274,-0.010939881,-0.0017785635,-0.011485125
1732372444850,2024-11-23T14:34:04.850Z,148277,-0.010939881,-0.0017785635,-0.011485125
1732372444857,2024-11-23T14:34:04.857Z,148284,0.0060114283,0.0064352704,-0.017809886
1732372444860,2024-11-23T14:34:04.860Z,148287,0.0060114283,0.0064352704,-0.017809886
1732372444883,2024-11-23T14:34:04.883Z,148310,0.015629118,9.812295E-4,-0.023173084
1732372444885,2024-11-23T14:34:04.885Z,148312,0.015629118,9.812295E-4,-0.023173084
1732372444893,2024-11-23T14:34:04.893Z,148320,0.005266499,-0.036391456,0.0044863652
1732372444896,2024-11-23T14:34:04.896Z,148323,0.005266499,-0.036391456,0.0044863652
1732372444904,2024-11-23T14:34:04.904Z,148331,0.0013386513,-0.02575382,0.002158018
1732372444907,2024-11-23T14:34:04.907Z,148334,0.0013386513,-0.02575382,0.002158018
1732372444928,2024-11-23T14:34:04.928Z,148355,-0.011853549,-0.009748111,-0.0040439004
1732372444932,2024-11-23T14:34:04.932Z,148359,-0.011853549,-0.009748111,-0.0040439004
1732372444942,2024-11-23T14:34:04.942Z,148369,0.013105867,-0.0011884643,-0.018794026
1732372444945,2024-11-23T14:34:04.945Z,148372,0.013105867,-0.0011884643,-0.018794026
1732372444954,2024-11-23T14:34:04.954Z,148381,0.016085975,0.0011302129,-0.020959515
1732372444957,2024-11-23T14:34:04.957Z,148384,0.016085975,0.0011302129,-0.020959515
1732372444973,2024-11-23T14:34:04.973Z,148400,-0.010961337,-0.009751709,-0.034467902
1732372444975,2024-11-23T14:34:04.975Z,148402,-0.010961337,-0.009751709,-0.034467902
1732372444984,2024-11-23T14:34:04.984Z,148411,0.023792371,-0.033626996,0.021778522
1732372444987,2024-11-23T14:34:04.987Z,148414,0.023792371,-0.033626996,0.021778522
1732372444995,2024-11-23T14:34:04.995Z,148422,-0.029534897,-0.012785059,0.021571968
1732372444998,2024-11-23T14:34:04.998Z,148425,-0.029534897,-0.012785059,0.021571968
1732372445018,2024-11-23T14:34:05.018Z,148445,-0.029930683,0.019310964,0.008807008
1732372445021,2024-11-23T14:34:05.021Z,148448,-0.029930683,0.019310964,0.008807008
1732372445030,2024-11-23T14:34:05.030Z,148457,-0.0060610613,0.011787784,-0.010721913
1732372445033,2024-11-23T14:34:05.033Z,148460,-0.0060610613,0.011787784,-0.010721913
1732372445043,2024-11-23T14:34:05.043Z,148470,-0.028952159,0.005342206,-0.04086079
1732372445046,2024-11-23T14:34:05.046Z,148473,-0.028952159,0.005342206,-0.04086079
1732372445108,2024-11-23T14:34:05.108Z,148535,-0.014771472,8.586001E-4,-0.04955828
1732372445111,2024-11-23T14:34:05.111Z,148538,-0.014771472,8.586001E-4,-0.04955828
1732372445119,2024-11-23T14:34:05.119Z,148546,-0.0065958505,0.025572842,-0.041143026
1732372445121,2024-11-23T14:34:05.121Z,148548,-0.0065958505,0.025572842,-0.041143026
1732372445131,2024-11-23T14:34:05.131Z,148558,0.0093296785,0.0069979457,0.0038247465
1732372445134,2024-11-23T14:34:05.134Z,148561,0.0093296785,0.0069979457,0.0038247465
1732372445154,2024-11-23T14:34:05.154Z,148581,0.02322516,-0.018400824,0.056573
1732372445158,2024-11-23T14:34:05.158Z,148585,0.02322516,-0.018400824,0.056573
1732372445173,2024-11-23T14:34:05.173Z,148600,-0.022927037,5.6675967E-4,3.2660645E-4
1732372445178,2024-11-23T14:34:05.178Z,148605,-0.022927037,5.6675967E-4,3.2660645E-4
1732372445198,2024-11-23T14:34:05.198Z,148625,-0.022382632,0.029789308,-0.03636431
1732372445203,2024-11-23T14:34:05.203Z,148630,-0.022382632,0.029789308,-0.03636431
1732372445215,2024-11-23T14:34:05.215Z,148642,-0.0044182795,0.0038711398,-0.05081588
1732372445218,2024-11-23T14:34:05.218Z,148645,-0.0044182795,0.0038711398,-0.05081588
1732372445247,2024-11-23T14:34:05.247Z,148674,-0.020203894,-0.05176992,0.012501601
1732372445252,2024-11-23T14:34:05.252Z,148679,-0.020203894,-0.05176992,0.012501601
1732372445271,2024-11-23T14:34:05.271Z,148698,-0.0102482075,-0.014272172,-0.034199055
1732372445275,2024-11-23T14:34:05.275Z,148702,-0.0102482075,-0.014272172,-0.034199055
1732372445293,2024-11-23T14:34:05.293Z,148720,0.0089320205,0.02665025,-0.06526401
1732372445299,2024-11-23T14:34:05.299Z,148726,0.0089320205,0.02665025,-0.06526401
1732372445315,2024-11-23T14:34:05.315Z,148742,-0.0063058822,-0.033062667,-0.04423206
1732372445319,2024-11-23T14:34:05.319Z,148746,-0.0063058822,-0.033062667,-0.04423206
1732372445333,2024-11-23T14:34:05.333Z,148760,0.0016656346,-0.06241475,2.9362124E-4
1732372445337,2024-11-23T14:34:05.337Z,148764,0.0016656346,-0.06241475,2.9362124E-4
1732372445348,2024-11-23T14:34:05.348Z,148775,0.021459835,-0.056628413,0.020501532
1732372445352,2024-11-23T14:34:05.352Z,148779,0.021459835,-0.056628413,0.020501532
1732372445363,2024-11-23T14:34:05.363Z,148790,0.009786135,-0.03096338,9.978102E-4
1732372445366,2024-11-23T14:34:05.366Z,148793,0.009786135,-0.03096338,9.978102E-4
1732372445377,2024-11-23T14:34:05.377Z,148804,-0.009825599,-0.017539112,-0.02437311
1732372445380,2024-11-23T14:34:05.380Z,148807,-0.009825599,-0.017539112,-0.02437311
1732372445389,2024-11-23T14:34:05.389Z,148816,5.785753E-4,-0.034669783,-0.0034521783
1732372445392,2024-11-23T14:34:05.392Z,148819,5.785753E-4,-0.034669783,-0.0034521783
1732372445400,2024-11-23T14:34:05.400Z,148827,0.030711047,0.011561197,-0.03118303
1732372445403,2024-11-23T14:34:05.403Z,148830,0.030711047,0.011561197,-0.03118303
1732372445414,2024-11-23T14:34:05.414Z,148841,-0.009610086,-0.003132738,-0.05958995
1732372445421,2024-11-23T14:34:05.421Z,148848,-0.009610086,-0.003132738,-0.05958995
1732372445441,2024-11-23T14:34:05.441Z,148868,-5.678902E-4,-0.022216046,-0.040812336
1732372445448,2024-11-23T14:34:05.448Z,148875,-5.678902E-4,-0.022216046,-0.040812336
1732372445475,2024-11-23T14:34:05.475Z,148902,-0.0043746154,-0.042310245,0.0140525745
1732372445480,2024-11-23T14:34:05.480Z,148907,-0.0043746154,-0.042310245,0.0140525745
1732372445498,2024-11-23T14:34:05.498Z,148925,0.0090971105,-0.02038419,0.008951336
1732372445503,2024-11-23T14:34:05.503Z,148930,0.0090971105,-0.02038419,0.008951336
1732372445519,2024-11-23T14:34:05.519Z,148946,0.017152758,-0.0048085107,-0.015050376
1732372445522,2024-11-23T14:34:05.522Z,148949,0.017152758,-0.0048085107,-0.015050376
1732372445533,2024-11-23T14:34:05.533Z,148960,0.0039241156,0.0019314368,-0.035655733
1732372445536,2024-11-23T14:34:05.536Z,148963,0.0039241156,0.0019314368,-0.035655733
1732372445549,2024-11-23T14:34:05.549Z,148976,0.004576477,-0.012261964,-0.03390151
1732372445552,2024-11-23T14:34:05.552Z,148979,0.004576477,-0.012261964,-0.03390151
1732372445561,2024-11-23T14:34:05.561Z,148988,0.017880414,-0.018146424,-0.013655837
1732372445564,2024-11-23T14:34:05.564Z,148991,0.017880414,-0.018146424,-0.013655837
1732372445572,2024-11-23T14:34:05.572Z,148999,0.0071907025,0.018899802,-0.014027263
1732372445575,2024-11-23T14:34:05.575Z,149002,0.0071907025,0.018899802,-0.014027263
1732372445583,2024-11-23T14:34:05.583Z,149010,3.371943E-4,0.021311447,-0.028055219
1732372445586,2024-11-23T14:34:05.586Z,149013,3.371943E-4,0.021311447,-0.028055219
1732372445595,2024-11-23T14:34:05.595Z,149022,0.007966496,-0.016774258,-0.011070157
1732372445597,2024-11-23T14:34:05.597Z,149024,0.007966496,-0.016774258,-0.011070157
1732372445606,2024-11-23T14:34:05.606Z,149033,-0.003824084,-0.0353476,1.9264773E-4
1732372445608,2024-11-23T14:34:05.608Z,149035,-0.003824084,-0.0353476,1.9264773E-4
1732372445615,2024-11-23T14:34:05.615Z,149042,-0.0028569677,-0.048053887,0.009709838
1732372445618,2024-11-23T14:34:05.618Z,149045,-0.0028569677,-0.048053887,0.009709838
1732372445628,2024-11-23T14:34:05.628Z,149055,-0.0057866643,-0.03049912,-0.02302807
1732372445634,2024-11-23T14:34:05.634Z,149061,-0.0057866643,-0.03049912,-0.02302807
1732372445654,2024-11-23T14:34:05.654Z,149081,0.011737665,-0.022757716,-0.024875963
1732372445659,2024-11-23T14:34:05.659Z,149086,0.011737665,-0.022757716,-0.024875963
1732372445695,2024-11-23T14:34:05.695Z,149122,0.026343009,-0.050110776,0.031575415
1732372445701,2024-11-23T14:34:05.701Z,149128,0.026343009,-0.050110776,0.031575415
1732372445721,2024-11-23T14:34:05.721Z,149148,-0.049707312,-0.037452914,-0.03172248
1732372445727,2024-11-23T14:34:05.727Z,149154,-0.049707312,-0.037452914,-0.03172248
1732372445745,2024-11-23T14:34:05.745Z,149172,-0.042697266,0.004047158,-0.06554987
1732372445750,2024-11-23T14:34:05.750Z,149177,-0.042697266,0.004047158,-0.06554987
1732372445769,2024-11-23T14:34:05.769Z,149196,0.04272216,-0.08758576,0.05191326
1732372445773,2024-11-23T14:34:05.773Z,149200,0.04272216,-0.08758576,0.05191326
1732372445786,2024-11-23T14:34:05.786Z,149213,0.014994151,-0.05484664,0.031827778
1732372445790,2024-11-23T14:34:05.790Z,149217,0.014994151,-0.05484664,0.031827778
1732372445802,2024-11-23T14:34:05.802Z,149229,-0.0023453718,0.001308468,-0.004210054
1732372445806,2024-11-23T14:34:05.806Z,149233,-0.0023453718,0.001308468,-0.004210054
1732372445817,2024-11-23T14:34:05.817Z,149244,0.021543931,-0.014816759,-0.008979763
1732372445820,2024-11-23T14:34:05.820Z,149247,0.021543931,-0.014816759,-0.008979763
1732372445828,2024-11-23T14:34:05.828Z,149255,0.01547436,0.0061699785,-0.015466506
1732372445831,2024-11-23T14:34:05.831Z,149258,0.01547436,0.0061699785,-0.015466506
1732372445839,2024-11-23T14:34:05.839Z,149266,-0.007483406,0.02127605,-0.01707887
1732372445841,2024-11-23T14:34:05.841Z,149268,-0.007483406,0.02127605,-0.01707887
1732372445850,2024-11-23T14:34:05.850Z,149277,0.034951765,-0.009991813,0.0050461628
1732372445852,2024-11-23T14:34:05.852Z,149279,0.034951765,-0.009991813,0.0050461628
1732372445860,2024-11-23T14:34:05.860Z,149287,0.0029867205,-0.01096857,0.0033322598
1732372445863,2024-11-23T14:34:05.863Z,149290,0.0029867205,-0.01096857,0.0033322598
1732372445871,2024-11-23T14:34:05.871Z,149298,-0.031031612,-0.01681802,-0.0027116765
1732372445873,2024-11-23T14:34:05.873Z,149300,-0.031031612,-0.01681802,-0.0027116765
1732372445880,2024-11-23T14:34:05.880Z,149307,-0.0034637933,-0.027972333,-0.009999507
1732372445883,2024-11-23T14:34:05.883Z,149310,-0.0034637933,-0.027972333,-0.009999507
1732372445890,2024-11-23T14:34:05.890Z,149317,6.8580307E-4,-0.015718536,-0.024908924
1732372445894,2024-11-23T14:34:05.894Z,149321,6.8580307E-4,-0.015718536,-0.024908924
1732372445901,2024-11-23T14:34:05.901Z,149328,0.025871878,0.024849124,-0.03725102
1732372445905,2024-11-23T14:34:05.905Z,149332,0.025871878,0.024849124,-0.03725102
1732372445918,2024-11-23T14:34:05.918Z,149345,-0.01954061,0.020969428,-0.024853732
1732372445921,2024-11-23T14:34:05.921Z,149348,-0.01954061,0.020969428,-0.024853732
1732372445928,2024-11-23T14:34:05.928Z,149355,0.0077690715,0.024849903,0.0011744546
1732372445930,2024-11-23T14:34:05.930Z,149357,0.0077690715,0.024849903,0.0011744546
1732372445970,2024-11-23T14:34:05.970Z,149397,0.033130217,-0.008861114,0.028939698
1732372445976,2024-11-23T14:34:05.976Z,149403,0.033130217,-0.008861114,0.028939698
1732372445999,2024-11-23T14:34:05.999Z,149426,-0.030189028,0.04965692,-0.022354895
1732372446005,2024-11-23T14:34:06.005Z,149432,-0.030189028,0.04965692,-0.022354895
1732372446024,2024-11-23T14:34:06.024Z,149451,-0.006889101,0.04476283,-0.024524922
1732372446030,2024-11-23T14:34:06.030Z,149457,-0.006889101,0.04476283,-0.024524922
1732372446049,2024-11-23T14:34:06.049Z,149476,0.002153101,0.013029638,-0.014149275
1732372446056,2024-11-23T14:34:06.056Z,149483,0.002153101,0.013029638,-0.014149275
1732372446075,2024-11-23T14:34:06.075Z,149502,2.6878054E-4,-0.0010845065,-0.03515669
1732372446080,2024-11-23T14:34:06.080Z,149507,2.6878054E-4,-0.0010845065,-0.03515669
1732372446093,2024-11-23T14:34:06.093Z,149520,0.03226142,3.9044957E-4,-0.025260592
1732372446096,2024-11-23T14:34:06.096Z,149523,0.03226142,3.9044957E-4,-0.025260592
1732372446108,2024-11-23T14:34:06.108Z,149535,0.00958386,-0.018639956,-0.007284935
1732372446111,2024-11-23T14:34:06.111Z,149538,0.00958386,-0.018639956,-0.007284935
1732372446122,2024-11-23T14:34:06.122Z,149549,0.026870212,0.007248067,0.004847202
1732372446126,2024-11-23T14:34:06.126Z,149553,0.026870212,0.007248067,0.004847202
1732372446136,2024-11-23T14:34:06.136Z,149563,0.04752424,0.012650761,-0.0065927156
1732372446139,2024-11-23T14:34:06.139Z,149566,0.04752424,0.012650761,-0.0065927156
1732372446148,2024-11-23T14:34:06.148Z,149575,0.012208758,-0.016633054,-0.016302701
1732372446151,2024-11-23T14:34:06.151Z,149578,0.012208758,-0.016633054,-0.016302701
1732372446160,2024-11-23T14:34:06.160Z,149587,-0.018914808,-0.028374063,-0.010779376
1732372446162,2024-11-23T14:34:06.162Z,149589,-0.018914808,-0.028374063,-0.010779376
1732372446172,2024-11-23T14:34:06.172Z,149599,2.3126721E-4,-0.007393063,-0.0076088556
1732372446176,2024-11-23T14:34:06.176Z,149603,2.3126721E-4,-0.007393063,-0.0076088556
1732372446186,2024-11-23T14:34:06.186Z,149613,0.022688184,0.012138071,-0.0056097764
1732372446189,2024-11-23T14:34:06.189Z,149616,0.022688184,0.012138071,-0.0056097764
1732372446198,2024-11-23T14:34:06.198Z,149625,-0.034995373,-0.0029892975,-0.031125778
1732372446201,2024-11-23T14:34:06.201Z,149628,-0.034995373,-0.0029892975,-0.031125778
1732372446213,2024-11-23T14:34:06.213Z,149640,-0.0130451005,0.02044925,-0.02705639
1732372446217,2024-11-23T14:34:06.217Z,149644,-0.0130451005,0.02044925,-0.02705639
1732372446226,2024-11-23T14:34:06.226Z,149653,0.022412242,-0.01809887,-0.00588667
1732372446228,2024-11-23T14:34:06.228Z,149655,0.022412242,-0.01809887,-0.00588667
1732372446285,2024-11-23T14:34:06.285Z,149712,-0.019799884,-0.04199837,-0.023943866
1732372446291,2024-11-23T14:34:06.291Z,149718,-0.019799884,-0.04199837,-0.023943866
1732372446312,2024-11-23T14:34:06.312Z,149739,-0.024077173,-0.024923617,-0.011627938
1732372446318,2024-11-23T14:34:06.318Z,149745,-0.024077173,-0.024923617,-0.011627938
1732372446334,2024-11-23T14:34:06.334Z,149761,0.01009396,-0.014669818,0.017277928
1732372446338,2024-11-23T14:34:06.338Z,149765,0.01009396,-0.014669818,0.017277928
1732372446350,2024-11-23T14:34:06.350Z,149777,0.021232385,-0.043959178,0.015677067
1732372446353,2024-11-23T14:34:06.353Z,149780,0.021232385,-0.043959178,0.015677067
1732372446365,2024-11-23T14:34:06.365Z,149792,-0.012452144,-0.04738181,0.011643354
1732372446368,2024-11-23T14:34:06.368Z,149795,-0.012452144,-0.04738181,0.011643354
1732372446379,2024-11-23T14:34:06.379Z,149806,-0.01293442,-0.019556029,-0.015576984
1732372446382,2024-11-23T14:34:06.382Z,149809,-0.01293442,-0.019556029,-0.015576984
1732372446392,2024-11-23T14:34:06.392Z,149819,0.0058186348,-0.014219852,-0.029478755
1732372446395,2024-11-23T14:34:06.395Z,149822,0.0058186348,-0.014219852,-0.029478755
1732372446406,2024-11-23T14:34:06.406Z,149833,0.014185099,-0.005502859,0.0034322776
1732372446413,2024-11-23T14:34:06.413Z,149840,0.014185099,-0.005502859,0.0034322776
1732372446434,2024-11-23T14:34:06.434Z,149861,0.024249824,0.049144715,-0.049689047
1732372446439,2024-11-23T14:34:06.439Z,149866,0.024249824,0.049144715,-0.049689047
1732372446459,2024-11-23T14:34:06.459Z,149886,0.019772394,-0.021703161,-0.003550972
1732372446463,2024-11-23T14:34:06.463Z,149890,0.019772394,-0.021703161,-0.003550972
1732372446475,2024-11-23T14:34:06.475Z,149902,-0.0031726703,-0.018773574,0.011026505
1732372446479,2024-11-23T14:34:06.479Z,149906,-0.0031726703,-0.018773574,0.011026505
1732372446492,2024-11-23T14:34:06.492Z,149919,-0.008049011,0.0012462295,0.004569952
1732372446498,2024-11-23T14:34:06.498Z,149925,-0.008049011,0.0012462295,0.004569952
1732372446518,2024-11-23T14:34:06.518Z,149945,0.009200655,0.014359306,-0.07786884
1732372446523,2024-11-23T14:34:06.523Z,149950,0.009200655,0.014359306,-0.07786884
1732372446540,2024-11-23T14:34:06.540Z,149967,0.023285989,-0.012539412,-0.047341548
1732372446544,2024-11-23T14:34:06.544Z,149971,0.023285989,-0.012539412,-0.047341548
1732372446555,2024-11-23T14:34:06.555Z,149982,0.015570599,-0.013091001,-0.012824055
1732372446558,2024-11-23T14:34:06.558Z,149985,0.015570599,-0.013091001,-0.012824055
1732372446571,2024-11-23T14:34:06.571Z,149998,-0.0038601751,-0.0063751712,0.008972738
1732372446577,2024-11-23T14:34:06.577Z,150004,-0.0038601751,-0.0063751712,0.008972738
1732372446597,2024-11-23T14:34:06.597Z,150024,-0.010780626,-0.01569792,-0.014144297
1732372446602,2024-11-23T14:34:06.602Z,150029,-0.010780626,-0.01569792,-0.014144297
1732372446614,2024-11-23T14:34:06.614Z,150041,-0.010428018,-0.017203413,-0.04885166
1732372446618,2024-11-23T14:34:06.618Z,150045,-0.010428018,-0.017203413,-0.04885166
1732372446629,2024-11-23T14:34:06.629Z,150056,0.0242604,-0.022158183,-0.012324925
1732372446633,2024-11-23T14:34:06.633Z,150060,0.0242604,-0.022158183,-0.012324925
1732372446644,2024-11-23T14:34:06.644Z,150071,-0.0041859793,-0.032459732,-0.036044147
1732372446647,2024-11-23T14:34:06.647Z,150074,-0.0041859793,-0.032459732,-0.036044147
1732372446657,2024-11-23T14:34:06.657Z,150084,-0.006053573,-0.021304348,-0.060732
1732372446660,2024-11-23T14:34:06.660Z,150087,-0.006053573,-0.021304348,-0.060732
1732372446669,2024-11-23T14:34:06.669Z,150096,0.0136903385,-0.040491227,-0.050637208
1732372446673,2024-11-23T14:34:06.673Z,150100,0.0136903385,-0.040491227,-0.050637208
1732372446681,2024-11-23T14:34:06.681Z,150108,0.0011794203,-0.0034620187,-0.0020070332
1732372446684,2024-11-23T14:34:06.684Z,150111,0.0011794203,-0.0034620187,-0.0020070332
1732372446693,2024-11-23T14:34:06.693Z,150120,-0.0046783444,-0.0015675359,0.016312215
1732372446695,2024-11-23T14:34:06.695Z,150122,-0.0046783444,-0.0015675359,0.016312215
1732372446703,2024-11-23T14:34:06.703Z,150130,0.0037546614,0.0051912777,-0.04924231
1732372446705,2024-11-23T14:34:06.705Z,150132,0.0037546614,0.0051912777,-0.04924231
1732372446712,2024-11-23T14:34:06.712Z,150139,0.00191843,0.029591506,-0.05685302
1732372446714,2024-11-23T14:34:06.714Z,150141,0.00191843,0.029591506,-0.05685302
1732372446721,2024-11-23T14:34:06.721Z,150148,-0.0034527802,0.02568526,-0.048572566
1732372446723,2024-11-23T14:34:06.723Z,150150,-0.0034527802,0.02568526,-0.048572566
1732372446732,2024-11-23T14:34:06.732Z,150159,0.01803161,-0.009957097,-0.023737693
1732372446735,2024-11-23T14:34:06.735Z,150162,0.01803161,-0.009957097,-0.023737693
1732372446745,2024-11-23T14:34:06.745Z,150172,0.007777714,-0.021674376,0.002277557
1732372446750,2024-11-23T14:34:06.750Z,150177,0.007777714,-0.021674376,0.002277557
1732372446766,2024-11-23T14:34:06.766Z,150193,0.019007053,-0.023625165,0.005398605
1732372446773,2024-11-23T14:34:06.773Z,150200,0.019007053,-0.023625165,0.005398605
1732372446791,2024-11-23T14:34:06.791Z,150218,0.03374046,-0.012826293,-0.02832302
1732372446795,2024-11-23T14:34:06.795Z,150222,0.03374046,-0.012826293,-0.02832302
1732372446805,2024-11-23T14:34:06.805Z,150232,0.01349763,0.012613126,-0.05345791
1732372446809,2024-11-23T14:34:06.809Z,150236,0.01349763,0.012613126,-0.05345791
1732372446818,2024-11-23T14:34:06.818Z,150245,-0.0076630954,0.029240346,-0.03318947
1732372446821,2024-11-23T14:34:06.821Z,150248,-0.0076630954,0.029240346,-0.03318947
1732372446829,2024-11-23T14:34:06.829Z,150256,2.4486973E-4,-0.0024520038,0.0031234962
1732372446832,2024-11-23T14:34:06.832Z,150259,2.4486973E-4,-0.0024520038,0.0031234962
1732372446865,2024-11-23T14:34:06.865Z,150292,0.0047629136,0.06747727,-0.037560873
1732372446869,2024-11-23T14:34:06.869Z,150296,0.0047629136,0.06747727,-0.037560873
1732372446881,2024-11-23T14:34:06.881Z,150308,-0.0055682827,0.027015027,-0.04190477
1732372446884,2024-11-23T14:34:06.884Z,150311,-0.0055682827,0.027015027,-0.04190477
1732372446893,2024-11-23T14:34:06.893Z,150320,-7.883872E-4,-0.006608566,-0.02722385
1732372446899,2024-11-23T14:34:06.899Z,150326,-7.883872E-4,-0.006608566,-0.02722385
1732372446910,2024-11-23T14:34:06.910Z,150337,0.006386926,0.0077438354,-0.008175756
1732372446913,2024-11-23T14:34:06.913Z,150340,0.006386926,0.0077438354,-0.008175756
1732372446959,2024-11-23T14:34:06.959Z,150386,0.00733187,0.026361132,-0.05292245
1732372446964,2024-11-23T14:34:06.964Z,150391,0.00733187,0.026361132,-0.05292245
1732372446979,2024-11-23T14:34:06.979Z,150406,5.1666494E-4,0.008349786,-0.08170956
1732372446983,2024-11-23T14:34:06.983Z,150410,5.1666494E-4,0.008349786,-0.08170956
1732372446994,2024-11-23T14:34:06.994Z,150421,0.0073928684,-0.02378329,-0.044694927
1732372446998,2024-11-23T14:34:06.998Z,150425,0.0073928684,-0.02378329,-0.044694927
1732372447008,2024-11-23T14:34:07.008Z,150435,0.0050684293,-0.021300653,-0.047399722
1732372447011,2024-11-23T14:34:07.011Z,150438,0.0050684293,-0.021300653,-0.047399722
1732372447021,2024-11-23T14:34:07.021Z,150448,-0.03549758,-0.019285778,-0.010874088
1732372447023,2024-11-23T14:34:07.023Z,150450,-0.03549758,-0.019285778,-0.010874088
1732372447032,2024-11-23T14:34:07.032Z,150459,0.04699547,0.010133406,8.1334794E-5
1732372447034,2024-11-23T14:34:07.034Z,150461,0.04699547,0.010133406,8.1334794E-5
1732372447044,2024-11-23T14:34:07.044Z,150471,-0.015509089,-0.043520104,-0.0020944728
1732372447046,2024-11-23T14:34:07.046Z,150473,-0.015509089,-0.043520104,-0.0020944728
1732372447054,2024-11-23T14:34:07.054Z,150481,-0.009864225,-0.018647347,-0.01835256
1732372447056,2024-11-23T14:34:07.056Z,150483,-0.009864225,-0.018647347,-0.01835256
1732372447066,2024-11-23T14:34:07.066Z,150493,0.02077221,-0.014782917,-0.013756541
1732372447072,2024-11-23T14:34:07.072Z,150499,0.02077221,-0.014782917,-0.013756541
1732372447091,2024-11-23T14:34:07.091Z,150518,-0.03812796,0.007552063,-0.042377584
1732372447097,2024-11-23T14:34:07.097Z,150524,-0.03812796,0.007552063,-0.042377584
1732372447115,2024-11-23T14:34:07.115Z,150542,-0.036243763,0.051454738,-0.07059031
1732372447121,2024-11-23T14:34:07.121Z,150548,-0.036243763,0.051454738,-0.07059031
1732372447131,2024-11-23T14:34:07.131Z,150558,0.005748422,-0.007139052,-0.054965314
1732372447134,2024-11-23T14:34:07.134Z,150561,0.005748422,-0.007139052,-0.054965314
1732372447145,2024-11-23T14:34:07.145Z,150572,0.01856234,-0.04524022,0.0137883155
1732372447148,2024-11-23T14:34:07.148Z,150575,0.01856234,-0.04524022,0.0137883155
1732372447157,2024-11-23T14:34:07.157Z,150584,0.023435764,-0.043770906,0.011631522
1732372447160,2024-11-23T14:34:07.160Z,150587,0.023435764,-0.043770906,0.011631522
1732372447168,2024-11-23T14:34:07.168Z,150595,0.0077938936,0.008972949,-0.0063206805
1732372447170,2024-11-23T14:34:07.170Z,150597,0.0077938936,0.008972949,-0.0063206805
1732372447182,2024-11-23T14:34:07.182Z,150609,-0.008265958,-0.029105658,0.0034785015
1732372447187,2024-11-23T14:34:07.187Z,150614,-0.008265958,-0.029105658,0.0034785015
1732372447203,2024-11-23T14:34:07.203Z,150630,-0.015835896,0.023121908,-0.05684956
1732372447207,2024-11-23T14:34:07.207Z,150634,-0.015835896,0.023121908,-0.05684956
1732372447224,2024-11-23T14:34:07.224Z,150651,0.014227353,0.053862203,-0.07024237
1732372447229,2024-11-23T14:34:07.229Z,150656,0.014227353,0.053862203,-0.07024237
1732372447245,2024-11-23T14:34:07.245Z,150672,0.037618846,0.01524922,0.039494187
1732372447248,2024-11-23T14:34:07.248Z,150675,0.037618846,0.01524922,0.039494187
1732372447259,2024-11-23T14:34:07.259Z,150686,0.019044008,-0.010133795,0.041265875
1732372447262,2024-11-23T14:34:07.262Z,150689,0.019044008,-0.010133795,0.041265875
1732372447273,2024-11-23T14:34:07.273Z,150700,-0.023953997,0.04652146,-5.5098126E-4
1732372447276,2024-11-23T14:34:07.276Z,150703,-0.023953997,0.04652146,-5.5098126E-4
1732372447283,2024-11-23T14:34:07.283Z,150710,0.028786223,0.03543444,0.0015407837
1732372447286,2024-11-23T14:34:07.286Z,150713,0.028786223,0.03543444,0.0015407837
1732372447296,2024-11-23T14:34:07.296Z,150723,-0.0115378825,3.189725E-4,0.004358682
1732372447299,2024-11-23T14:34:07.299Z,150726,-0.0115378825,3.189725E-4,0.004358682
1732372447307,2024-11-23T14:34:07.307Z,150734,-0.0032665022,0.03988897,0.0017246654
1732372447310,2024-11-23T14:34:07.310Z,150737,-0.0032665022,0.03988897,0.0017246654
1732372447319,2024-11-23T14:34:07.319Z,150746,0.029065518,0.0014335286,0.0024775907
1732372447322,2024-11-23T14:34:07.322Z,150749,0.029065518,0.0014335286,0.0024775907
1732372447333,2024-11-23T14:34:07.333Z,150760,-0.01480402,0.0019786994,-0.012794461
1732372447337,2024-11-23T14:34:07.337Z,150764,-0.01480402,0.0019786994,-0.012794461
1732372447361,2024-11-23T14:34:07.361Z,150788,0.002007898,0.058182724,-0.043201767
1732372447366,2024-11-23T14:34:07.366Z,150793,0.002007898,0.058182724,-0.043201767
1732372447386,2024-11-23T14:34:07.386Z,150813,0.021275345,0.057318777,-0.04662281
1732372447391,2024-11-23T14:34:07.391Z,150818,0.021275345,0.057318777,-0.04662281
1732372447407,2024-11-23T14:34:07.407Z,150834,-0.0117926225,0.034416646,-0.004941073
1732372447410,2024-11-23T14:34:07.410Z,150837,-0.0117926225,0.034416646,-0.004941073
1732372447418,2024-11-23T14:34:07.418Z,150845,-0.0054344335,-0.011913428,0.0360131
1732372447421,2024-11-23T14:34:07.421Z,150848,-0.0054344335,-0.011913428,0.0360131
1732372447430,2024-11-23T14:34:07.430Z,150857,0.02132685,0.05366576,-0.012032594
1732372447433,2024-11-23T14:34:07.433Z,150860,0.02132685,0.05366576,-0.012032594
1732372447443,2024-11-23T14:34:07.443Z,150870,0.018906098,0.0068471143,-0.022827294
1732372447446,2024-11-23T14:34:07.446Z,150873,0.018906098,0.0068471143,-0.022827294
1732372447459,2024-11-23T14:34:07.459Z,150886,0.005064114,0.034706347,-0.023063567
1732372447467,2024-11-23T14:34:07.467Z,150894,0.005064114,0.034706347,-0.023063567
1732372447499,2024-11-23T14:34:07.499Z,150926,0.01072663,0.022522278,-0.025568899
1732372447506,2024-11-23T14:34:07.506Z,150933,0.01072663,0.022522278,-0.025568899
1732372447527,2024-11-23T14:34:07.527Z,150954,0.022856325,0.04401957,-0.024932886
1732372447533,2024-11-23T14:34:07.533Z,150960,0.022856325,0.04401957,-0.024932886
1732372447552,2024-11-23T14:34:07.552Z,150979,0.010700275,0.024479195,-0.020654703
1732372447558,2024-11-23T14:34:07.558Z,150985,0.010700275,0.024479195,-0.020654703
1732372447575,2024-11-23T14:34:07.575Z,151002,0.02982946,-0.0038627766,0.07799694
1732372447581,2024-11-23T14:34:07.581Z,151008,0.02982946,-0.0038627766,0.07799694
1732372447599,2024-11-23T14:34:07.599Z,151026,0.023272192,-0.020440886,0.060310815
1732372447606,2024-11-23T14:34:07.606Z,151033,0.023272192,-0.020440886,0.060310815
1732372447625,2024-11-23T14:34:07.625Z,151052,0.018106565,-0.015034788,0.019292686
1732372447631,2024-11-23T14:34:07.631Z,151058,0.018106565,-0.015034788,0.019292686
1732372447649,2024-11-23T14:34:07.649Z,151076,0.050294634,-0.028886752,0.067658365
1732372447653,2024-11-23T14:34:07.653Z,151080,0.050294634,-0.028886752,0.067658365
1732372447676,2024-11-23T14:34:07.676Z,151103,-0.004219384,-0.036787353,0.041933924
1732372447680,2024-11-23T14:34:07.680Z,151107,-0.004219384,-0.036787353,0.041933924
1732372447693,2024-11-23T14:34:07.693Z,151120,-0.023878472,0.03294305,0.01068968
1732372447696,2024-11-23T14:34:07.696Z,151123,-0.023878472,0.03294305,0.01068968
1732372447708,2024-11-23T14:34:07.708Z,151135,-0.064351514,0.0040171086,-0.06217321
1732372447711,2024-11-23T14:34:07.711Z,151138,-0.064351514,0.0040171086,-0.06217321
1732372447722,2024-11-23T14:34:07.722Z,151149,-0.021015625,0.025949191,-0.10496827
1732372447726,2024-11-23T14:34:07.726Z,151153,-0.021015625,0.025949191,-0.10496827
1732372447736,2024-11-23T14:34:07.736Z,151163,0.013405901,-0.003450446,-0.026100332
1732372447739,2024-11-23T14:34:07.739Z,151166,0.013405901,-0.003450446,-0.026100332
1732372447749,2024-11-23T14:34:07.749Z,151176,0.031746347,-0.001045413,9.113934E-5
1732372447751,2024-11-23T14:34:07.751Z,151178,0.031746347,-0.001045413,9.113934E-5
1732372447760,2024-11-23T14:34:07.760Z,151187,0.008094754,-0.014265948,0.041876916
1732372447763,2024-11-23T14:34:07.763Z,151190,0.008094754,-0.014265948,0.041876916
1732372447771,2024-11-23T14:34:07.771Z,151198,0.0494002,0.049081992,-0.021552797
1732372447773,2024-11-23T14:34:07.773Z,151200,0.0494002,0.049081992,-0.021552797
1732372447780,2024-11-23T14:34:07.780Z,151207,0.0016242921,0.013864801,-0.04032391
1732372447782,2024-11-23T14:34:07.782Z,151209,0.0016242921,0.013864801,-0.04032391
1732372447790,2024-11-23T14:34:07.790Z,151217,-0.016776707,0.007935802,-0.05717193
1732372447792,2024-11-23T14:34:07.792Z,151219,-0.016776707,0.007935802,-0.05717193
1732372447810,2024-11-23T14:34:07.810Z,151237,0.036784314,0.031717535,-0.027003132
1732372447815,2024-11-23T14:34:07.815Z,151242,0.036784314,0.031717535,-0.027003132
1732372447829,2024-11-23T14:34:07.829Z,151256,0.023843681,0.030991582,-0.023490753
1732372447833,2024-11-23T14:34:07.833Z,151260,0.023843681,0.030991582,-0.023490753
1732372447845,2024-11-23T14:34:07.845Z,151272,0.014897523,0.0133796325,-0.028209738
1732372447847,2024-11-23T14:34:07.847Z,151274,0.014897523,0.0133796325,-0.028209738
1732372447857,2024-11-23T14:34:07.857Z,151284,-0.003301949,0.005529213,-0.018840754
1732372447860,2024-11-23T14:34:07.860Z,151287,-0.003301949,0.005529213,-0.018840754
1732372447873,2024-11-23T14:34:07.873Z,151300,0.024640005,-0.039950043,0.011829171
1732372447879,2024-11-23T14:34:07.879Z,151306,0.024640005,-0.039950043,0.011829171
1732372447897,2024-11-23T14:34:07.897Z,151324,0.044045728,0.011781172,-0.0056343926
1732372447903,2024-11-23T14:34:07.903Z,151330,0.044045728,0.011781172,-0.0056343926
1732372447918,2024-11-23T14:34:07.918Z,151345,0.031833068,0.059103273,-0.012913014
1732372447922,2024-11-23T14:34:07.922Z,151349,0.031833068,0.059103273,-0.012913014
1732372447933,2024-11-23T14:34:07.933Z,151360,0.0077881804,-0.0390859,-3.9031586E-4
1732372447937,2024-11-23T14:34:07.937Z,151364,0.0077881804,-0.0390859,-3.9031586E-4
1732372447948,2024-11-23T14:34:07.948Z,151375,-0.019916885,-0.016150802,0.011816653
1732372447951,2024-11-23T14:34:07.951Z,151378,-0.019916885,-0.016150802,0.011816653
1732372447961,2024-11-23T14:34:07.961Z,151388,-0.01649416,-0.006876483,-0.010738576
1732372447964,2024-11-23T14:34:07.964Z,151391,-0.01649416,-0.006876483,-0.010738576
1732372447974,2024-11-23T14:34:07.974Z,151401,0.050221067,0.024883065,-0.0043383497
1732372447977,2024-11-23T14:34:07.977Z,151404,0.050221067,0.024883065,-0.0043383497
1732372447985,2024-11-23T14:34:07.985Z,151412,0.0087171635,0.027808081,-0.028953575
1732372447988,2024-11-23T14:34:07.988Z,151415,0.0087171635,0.027808081,-0.028953575
1732372447996,2024-11-23T14:34:07.996Z,151423,0.020575246,0.023878593,-0.0668847
1732372447999,2024-11-23T14:34:07.999Z,151426,0.020575246,0.023878593,-0.0668847
1732372448007,2024-11-23T14:34:08.007Z,151434,0.008568083,0.014499245,-0.013356947
1732372448009,2024-11-23T14:34:08.009Z,151436,0.008568083,0.014499245,-0.013356947
1732372448017,2024-11-23T14:34:08.017Z,151444,0.010214949,-0.028996935,0.03458369
1732372448020,2024-11-23T14:34:08.020Z,151447,0.010214949,-0.028996935,0.03458369
1732372448031,2024-11-23T14:34:08.031Z,151458,0.0209708,-0.014362223,0.037884116
1732372448033,2024-11-23T14:34:08.033Z,151460,0.0209708,-0.014362223,0.037884116
1732372448039,2024-11-23T14:34:08.039Z,151466,-0.009299683,0.035044964,-0.04006555
1732372448041,2024-11-23T14:34:08.041Z,151468,-0.009299683,0.035044964,-0.04006555
1732372448049,2024-11-23T14:34:08.049Z,151476,-0.010356194,0.016057251,-0.0438908
1732372448053,2024-11-23T14:34:08.053Z,151480,-0.010356194,0.016057251,-0.0438908
1732372448081,2024-11-23T14:34:08.081Z,151508,0.007628415,0.021483187,-0.041410167
1732372448086,2024-11-23T14:34:08.086Z,151513,0.007628415,0.021483187,-0.041410167
1732372448101,2024-11-23T14:34:08.101Z,151528,0.018099198,-0.018927615,0.016382756
1732372448105,2024-11-23T14:34:08.105Z,151532,0.018099198,-0.018927615,0.016382756
1732372448123,2024-11-23T14:34:08.123Z,151550,0.025837222,-8.013212E-4,0.016164992
1732372448128,2024-11-23T14:34:08.128Z,151555,0.025837222,-8.013212E-4,0.016164992
1732372448139,2024-11-23T14:34:08.139Z,151566,0.035108164,0.03441159,0.010323648
1732372448142,2024-11-23T14:34:08.142Z,151569,0.035108164,0.03441159,0.010323648
1732372448151,2024-11-23T14:34:08.151Z,151578,-0.0029433966,0.009177364,-0.031142797
1732372448155,2024-11-23T14:34:08.155Z,151582,-0.0029433966,0.009177364,-0.031142797
1732372448166,2024-11-23T14:34:08.166Z,151593,0.0053799623,-0.01177028,-0.022684298
1732372448169,2024-11-23T14:34:08.169Z,151596,0.0053799623,-0.01177028,-0.022684298
1732372448178,2024-11-23T14:34:08.178Z,151605,0.017627947,-0.007815409,-0.032160573
1732372448181,2024-11-23T14:34:08.181Z,151608,0.017627947,-0.007815409,-0.032160573
1732372448187,2024-11-23T14:34:08.187Z,151614,0.021165648,0.002047648,-0.014741416
1732372448190,2024-11-23T14:34:08.190Z,151617,0.021165648,0.002047648,-0.014741416
1732372448197,2024-11-23T14:34:08.197Z,151624,0.020659,-0.0061948737,-0.017755087
1732372448199,2024-11-23T14:34:08.199Z,151626,0.020659,-0.0061948737,-0.017755087
1732372448212,2024-11-23T14:34:08.212Z,151639,0.011486341,-0.011036351,-0.0067789815
1732372448214,2024-11-23T14:34:08.214Z,151641,0.011486341,-0.011036351,-0.0067789815
1732372448222,2024-11-23T14:34:08.222Z,151649,-0.0023351242,0.008560425,-0.013758743
1732372448224,2024-11-23T14:34:08.224Z,151651,-0.0023351242,0.008560425,-0.013758743
1732372448231,2024-11-23T14:34:08.231Z,151658,0.0014062992,0.0027235195,-0.033596657
1732372448233,2024-11-23T14:34:08.233Z,151660,0.0014062992,0.0027235195,-0.033596657
1732372448242,2024-11-23T14:34:08.242Z,151669,0.0051909126,0.024714729,-0.03189191
1732372448243,2024-11-23T14:34:08.243Z,151670,0.0051909126,0.024714729,-0.03189191
1732372448261,2024-11-23T14:34:08.261Z,151688,-1.6860322E-4,-0.042614337,0.0123572685
1732372448266,2024-11-23T14:34:08.266Z,151693,-1.6860322E-4,-0.042614337,0.0123572685
1732372448282,2024-11-23T14:34:08.282Z,151709,0.002452478,-0.026953274,0.018641654
1732372448286,2024-11-23T14:34:08.286Z,151713,0.002452478,-0.026953274,0.018641654
1732372448305,2024-11-23T14:34:08.305Z,151732,0.007199151,0.009818907,-0.061817102
1732372448309,2024-11-23T14:34:08.309Z,151736,0.007199151,0.009818907,-0.061817102
1732372448321,2024-11-23T14:34:08.321Z,151748,0.016850391,0.003486525,-0.06027131
1732372448326,2024-11-23T14:34:08.326Z,151753,0.016850391,0.003486525,-0.06027131
1732372448342,2024-11-23T14:34:08.342Z,151769,0.012472056,-0.013114827,-0.032321356
1732372448348,2024-11-23T14:34:08.348Z,151775,0.012472056,-0.013114827,-0.032321356
1732372448360,2024-11-23T14:34:08.360Z,151787,0.0032169786,-0.04144085,0.013390664
1732372448363,2024-11-23T14:34:08.363Z,151790,0.0032169786,-0.04144085,0.013390664
1732372448370,2024-11-23T14:34:08.370Z,151797,-0.0021114545,0.011289584,0.0046932735
1732372448373,2024-11-23T14:34:08.373Z,151800,-0.0021114545,0.011289584,0.0046932735
1732372448381,2024-11-23T14:34:08.381Z,151808,0.016801598,7.740918E-5,0.00970811
1732372448383,2024-11-23T14:34:08.383Z,151810,0.016801598,7.740918E-5,0.00970811
1732372448391,2024-11-23T14:34:08.391Z,151818,0.019638957,-0.016023116,0.0015047838
1732372448393,2024-11-23T14:34:08.393Z,151820,0.019638957,-0.016023116,0.0015047838
1732372448401,2024-11-23T14:34:08.401Z,151828,-8.5223035E-4,0.014747713,-0.053491555
1732372448403,2024-11-23T14:34:08.403Z,151830,-8.5223035E-4,0.014747713,-0.053491555
1732372448410,2024-11-23T14:34:08.410Z,151837,-0.015000277,0.015238619,-0.05277195
1732372448412,2024-11-23T14:34:08.412Z,151839,-0.015000277,0.015238619,-0.05277195
1732372448418,2024-11-23T14:34:08.418Z,151845,-0.0052148965,0.0010787689,-0.026270056
1732372448420,2024-11-23T14:34:08.420Z,151847,-0.0052148965,0.0010787689,-0.026270056
1732372448439,2024-11-23T14:34:08.439Z,151866,0.03196687,0.002119514,0.02135563
1732372448441,2024-11-23T14:34:08.441Z,151868,0.03196687,0.002119514,0.02135563
1732372448452,2024-11-23T14:34:08.452Z,151879,0.009406662,-0.0017703946,-0.0023375114
1732372448457,2024-11-23T14:34:08.457Z,151884,0.009406662,-0.0017703946,-0.0023375114
1732372448474,2024-11-23T14:34:08.474Z,151901,-0.008654755,1.8564588E-4,-0.037791368
1732372448480,2024-11-23T14:34:08.480Z,151907,-0.008654755,1.8564588E-4,-0.037791368
1732372448499,2024-11-23T14:34:08.499Z,151926,-0.005218592,0.002627147,-0.055741966
1732372448503,2024-11-23T14:34:08.503Z,151930,-0.005218592,0.002627147,-0.055741966
1732372448521,2024-11-23T14:34:08.521Z,151948,-0.00923925,0.014849337,-0.041023485
1732372448526,2024-11-23T14:34:08.526Z,151953,-0.00923925,0.014849337,-0.041023485
1732372448543,2024-11-23T14:34:08.543Z,151970,0.0012127641,-2.5226056E-4,-0.003448334
1732372448547,2024-11-23T14:34:08.547Z,151974,0.0012127641,-2.5226056E-4,-0.003448334
1732372448559,2024-11-23T14:34:08.559Z,151986,0.007747227,-0.0059572007,0.017417464
1732372448562,2024-11-23T14:34:08.562Z,151989,0.007747227,-0.0059572007,0.017417464
1732372448573,2024-11-23T14:34:08.573Z,152000,-0.0121226935,0.0058069527,-0.024391765
1732372448577,2024-11-23T14:34:08.577Z,152004,-0.0121226935,0.0058069527,-0.024391765
1732372448591,2024-11-23T14:34:08.591Z,152018,-0.0063816747,0.022916522,-0.05440363
1732372448596,2024-11-23T14:34:08.596Z,152023,-0.0063816747,0.022916522,-0.05440363
1732372448614,2024-11-23T14:34:08.614Z,152041,0.016927471,0.01457364,-0.044500522
1732372448620,2024-11-23T14:34:08.620Z,152047,0.016927471,0.01457364,-0.044500522
1732372448641,2024-11-23T14:34:08.641Z,152068,0.012496903,0.009636082,-0.025405342
1732372448647,2024-11-23T14:34:08.647Z,152074,0.012496903,0.009636082,-0.025405342
1732372448666,2024-11-23T14:34:08.666Z,152093,0.0207076,0.006170076,-0.008759524
1732372448671,2024-11-23T14:34:08.671Z,152098,0.0207076,0.006170076,-0.008759524
