Timestamp (ms),ISO DateTime,Elapsed Time (ms),Acceleration X,Acceleration Y,Acceleration Z
1732202467381,2024-11-21T15:21:07.381Z,75519,0.44781405,0.85397273,-0.91011566
1732202467387,2024-11-21T15:21:07.387Z,75525,0.44781405,0.85397273,-0.91011566
1732202467408,2024-11-21T15:21:07.408Z,75546,0.4732827,0.86581594,-0.8487547
1732202467415,2024-11-21T15:21:07.415Z,75553,0.4732827,0.86581594,-0.8487547
1732202467436,2024-11-21T15:21:07.436Z,75574,0.29400867,0.885495,-0.7737542
1732202467441,2024-11-21T15:21:07.441Z,75579,0.29400867,0.885495,-0.7737542
1732202467458,2024-11-21T15:21:07.458Z,75596,0.10576878,0.8168211,-0.80965453
1732202467464,2024-11-21T15:21:07.464Z,75602,0.10576878,0.8168211,-0.80965453
1732202467480,2024-11-21T15:21:07.480Z,75618,0.16764028,0.7723934,-0.8230681
1732202467485,2024-11-21T15:21:07.485Z,75623,0.16764028,0.7723934,-0.8230681
1732202467501,2024-11-21T15:21:07.501Z,75639,0.3313854,0.8473479,-0.79147094
1732202467505,2024-11-21T15:21:07.505Z,75643,0.3313854,0.8473479,-0.79147094
1732202467519,2024-11-21T15:21:07.519Z,75657,0.37758398,0.9495074,-0.79888785
1732202467522,2024-11-21T15:21:07.522Z,75660,0.37758398,0.9495074,-0.79888785
1732202467536,2024-11-21T15:21:07.536Z,75674,0.32584625,0.99062574,-0.8463624
1732202467541,2024-11-21T15:21:07.541Z,75679,0.32584625,0.99062574,-0.8463624
1732202467552,2024-11-21T15:21:07.552Z,75690,0.3236111,0.9758853,-0.87824965
1732202467559,2024-11-21T15:21:07.559Z,75697,0.3236111,0.9758853,-0.87824965
1732202467571,2024-11-21T15:21:07.571Z,75709,0.3209703,0.95787287,-0.869641
1732202467575,2024-11-21T15:21:07.575Z,75713,0.3209703,0.95787287,-0.869641
1732202467588,2024-11-21T15:21:07.588Z,75726,0.2901094,0.9080225,-0.81272686
1732202467591,2024-11-21T15:21:07.591Z,75729,0.2901094,0.9080225,-0.81272686
1732202467606,2024-11-21T15:21:07.606Z,75744,0.25767496,0.8270202,-0.7968365
1732202467609,2024-11-21T15:21:07.609Z,75747,0.25767496,0.8270202,-0.7968365
1732202467621,2024-11-21T15:21:07.621Z,75759,0.24553525,0.83060616,-0.8477838
1732202467625,2024-11-21T15:21:07.625Z,75763,0.24553525,0.83060616,-0.8477838
1732202467636,2024-11-21T15:21:07.636Z,75774,0.29037717,0.95673245,-0.8522744
1732202467641,2024-11-21T15:21:07.641Z,75779,0.29037717,0.95673245,-0.8522744
1732202467653,2024-11-21T15:21:07.653Z,75791,0.33662015,1.039603,-0.8259976
1732202467656,2024-11-21T15:21:07.656Z,75794,0.33662015,1.039603,-0.8259976
1732202467669,2024-11-21T15:21:07.669Z,75807,0.29625127,0.98380303,-0.8539455
1732202467673,2024-11-21T15:21:07.673Z,75811,0.29625127,0.98380303,-0.8539455
1732202467685,2024-11-21T15:21:07.685Z,75823,0.2455123,0.9044305,-0.87894624
1732202467689,2024-11-21T15:21:07.689Z,75827,0.2455123,0.9044305,-0.87894624
1732202467700,2024-11-21T15:21:07.700Z,75838,0.28877175,0.925202,-0.87217665
1732202467704,2024-11-21T15:21:07.704Z,75842,0.28877175,0.925202,-0.87217665
1732202467718,2024-11-21T15:21:07.718Z,75856,0.31548387,0.9955583,-0.8654149
1732202467722,2024-11-21T15:21:07.722Z,75860,0.31548387,0.9955583,-0.8654149
1732202467735,2024-11-21T15:21:07.735Z,75873,0.29247132,0.99968576,-0.8943034
1732202467738,2024-11-21T15:21:07.738Z,75876,0.29247132,0.99968576,-0.8943034
1732202467752,2024-11-21T15:21:07.752Z,75890,0.31099924,0.983199,-0.79133356
1732202467755,2024-11-21T15:21:07.755Z,75893,0.31099924,0.983199,-0.79133356
1732202467768,2024-11-21T15:21:07.768Z,75906,0.2585145,1.0224094,-0.81615895
1732202467772,2024-11-21T15:21:07.772Z,75910,0.2585145,1.0224094,-0.81615895
1732202467786,2024-11-21T15:21:07.786Z,75924,0.2024481,1.0112027,-0.8653849
1732202467790,2024-11-21T15:21:07.790Z,75928,0.2024481,1.0112027,-0.8653849
1732202467803,2024-11-21T15:21:07.803Z,75941,0.2863987,1.0012455,-0.9848486
1732202467807,2024-11-21T15:21:07.807Z,75945,0.2863987,1.0012455,-0.9848486
1732202467818,2024-11-21T15:21:07.818Z,75956,0.34907696,1.04318,-1.0028709
1732202467822,2024-11-21T15:21:07.822Z,75960,0.34907696,1.04318,-1.0028709
1732202467836,2024-11-21T15:21:07.836Z,75974,0.36877534,1.0312153,-0.92759687
1732202467841,2024-11-21T15:21:07.841Z,75979,0.36877534,1.0312153,-0.92759687
1732202467853,2024-11-21T15:21:07.853Z,75991,0.30869406,1.0228395,-0.9300631
1732202467856,2024-11-21T15:21:07.856Z,75994,0.30869406,1.0228395,-0.9300631
1732202467868,2024-11-21T15:21:07.868Z,76006,0.36938712,0.9904563,-0.94315326
1732202467872,2024-11-21T15:21:07.872Z,76010,0.36938712,0.9904563,-0.94315326
1732202467885,2024-11-21T15:21:07.885Z,76023,0.39153054,0.9477754,-0.9225597
1732202467889,2024-11-21T15:21:07.889Z,76027,0.39153054,0.9477754,-0.9225597
1732202467903,2024-11-21T15:21:07.903Z,76041,0.26718953,0.9332061,-0.7725267
1732202467908,2024-11-21T15:21:07.908Z,76046,0.26718953,0.9332061,-0.7725267
1732202467922,2024-11-21T15:21:07.922Z,76060,0.20092241,0.9550308,-0.77834165
1732202467927,2024-11-21T15:21:07.927Z,76065,0.20092241,0.9550308,-0.77834165
1732202467941,2024-11-21T15:21:07.941Z,76079,0.21828581,0.96960914,-0.8095431
1732202467945,2024-11-21T15:21:07.945Z,76083,0.21828581,0.96960914,-0.8095431
1732202467958,2024-11-21T15:21:07.958Z,76096,0.3980797,0.95775753,-0.86112833
1732202467962,2024-11-21T15:21:07.962Z,76100,0.3980797,0.95775753,-0.86112833
1732202467974,2024-11-21T15:21:07.974Z,76112,0.35206103,0.9307105,-0.8508292
1732202467978,2024-11-21T15:21:07.978Z,76116,0.35206103,0.9307105,-0.8508292
1732202467990,2024-11-21T15:21:07.990Z,76128,0.31839523,0.9269457,-0.8049106
1732202467994,2024-11-21T15:21:07.994Z,76132,0.31839523,0.9269457,-0.8049106
1732202468015,2024-11-21T15:21:08.015Z,76153,0.32533303,0.9279295,-0.8063824
1732202468019,2024-11-21T15:21:08.019Z,76157,0.32533303,0.9279295,-0.8063824
1732202468032,2024-11-21T15:21:08.032Z,76170,0.29052457,0.9019108,-0.80489767
1732202468036,2024-11-21T15:21:08.036Z,76174,0.29052457,0.9019108,-0.80489767
1732202468050,2024-11-21T15:21:08.050Z,76188,0.26980802,0.9362183,-0.78436047
1732202468057,2024-11-21T15:21:08.057Z,76195,0.26980802,0.9362183,-0.78436047
1732202468071,2024-11-21T15:21:08.071Z,76209,0.34878057,1.0215278,-0.8423698
1732202468075,2024-11-21T15:21:08.075Z,76213,0.34878057,1.0215278,-0.8423698
1732202468088,2024-11-21T15:21:08.088Z,76226,0.3543642,0.9734078,-0.77494574
1732202468091,2024-11-21T15:21:08.091Z,76229,0.3543642,0.9734078,-0.77494574
1732202468103,2024-11-21T15:21:08.103Z,76241,0.30349717,0.9450597,-0.7499704
1732202468107,2024-11-21T15:21:08.107Z,76245,0.30349717,0.9450597,-0.7499704
1732202468119,2024-11-21T15:21:08.119Z,76257,0.34471694,0.9637472,-0.71722376
1732202468124,2024-11-21T15:21:08.124Z,76262,0.34471694,0.9637472,-0.71722376
1732202468138,2024-11-21T15:21:08.138Z,76276,0.36540225,0.9595424,-0.711846
1732202468142,2024-11-21T15:21:08.142Z,76280,0.36540225,0.9595424,-0.711846
1732202468155,2024-11-21T15:21:08.155Z,76293,0.28743204,0.93786746,-0.81585824
1732202468158,2024-11-21T15:21:08.158Z,76296,0.28743204,0.93786746,-0.81585824
1732202468171,2024-11-21T15:21:08.171Z,76309,0.3303234,0.919209,-0.7890342
1732202468176,2024-11-21T15:21:08.176Z,76314,0.3303234,0.919209,-0.7890342
1732202468189,2024-11-21T15:21:08.189Z,76327,0.41779846,0.9132747,-0.7143803
1732202468193,2024-11-21T15:21:08.193Z,76331,0.41779846,0.9132747,-0.7143803
1732202468204,2024-11-21T15:21:08.204Z,76342,0.3609796,0.89088094,-0.6577634
1732202468207,2024-11-21T15:21:08.207Z,76345,0.3609796,0.89088094,-0.6577634
1732202468219,2024-11-21T15:21:08.219Z,76357,0.32065377,0.8658607,-0.6987576
1732202468222,2024-11-21T15:21:08.222Z,76360,0.32065377,0.8658607,-0.6987576
1732202468234,2024-11-21T15:21:08.234Z,76372,0.2835977,0.9013423,-0.7622666
1732202468237,2024-11-21T15:21:08.237Z,76375,0.2835977,0.9013423,-0.7622666
1732202468248,2024-11-21T15:21:08.248Z,76386,0.3548164,0.9941174,-0.80434793
1732202468251,2024-11-21T15:21:08.251Z,76389,0.3548164,0.9941174,-0.80434793
1732202468263,2024-11-21T15:21:08.263Z,76401,0.31535476,0.97769964,-0.7042825
1732202468267,2024-11-21T15:21:08.267Z,76405,0.31535476,0.97769964,-0.7042825
1732202468281,2024-11-21T15:21:08.281Z,76419,0.31373706,0.98962826,-0.78684914
1732202468285,2024-11-21T15:21:08.285Z,76423,0.31373706,0.98962826,-0.78684914
1732202468296,2024-11-21T15:21:08.296Z,76434,0.31877935,0.9660371,-0.8215412
1732202468300,2024-11-21T15:21:08.300Z,76438,0.31877935,0.9660371,-0.8215412
1732202468311,2024-11-21T15:21:08.311Z,76449,0.34369823,0.9472566,-0.7834678
1732202468315,2024-11-21T15:21:08.315Z,76453,0.34369823,0.9472566,-0.7834678
1732202468327,2024-11-21T15:21:08.327Z,76465,0.32039604,0.95865667,-0.74589866
1732202468330,2024-11-21T15:21:08.330Z,76468,0.32039604,0.95865667,-0.74589866
1732202468341,2024-11-21T15:21:08.341Z,76479,0.30754402,0.92183363,-0.7058952
1732202468346,2024-11-21T15:21:08.346Z,76484,0.30754402,0.92183363,-0.7058952
1732202468357,2024-11-21T15:21:08.357Z,76495,0.3038258,0.88263845,-0.76467305
1732202468361,2024-11-21T15:21:08.361Z,76499,0.3038258,0.88263845,-0.76467305
1732202468372,2024-11-21T15:21:08.372Z,76510,0.29610828,0.8910595,-0.7398064
1732202468375,2024-11-21T15:21:08.375Z,76513,0.29610828,0.8910595,-0.7398064
1732202468387,2024-11-21T15:21:08.387Z,76525,0.2862321,0.89347273,-0.7833649
1732202468390,2024-11-21T15:21:08.390Z,76528,0.2862321,0.89347273,-0.7833649
1732202468409,2024-11-21T15:21:08.409Z,76547,0.31325644,0.9272147,-0.8426719
1732202468412,2024-11-21T15:21:08.412Z,76550,0.31325644,0.9272147,-0.8426719
1732202468425,2024-11-21T15:21:08.425Z,76563,0.325147,0.9155255,-0.8758778
1732202468428,2024-11-21T15:21:08.428Z,76566,0.325147,0.9155255,-0.8758778
1732202468439,2024-11-21T15:21:08.439Z,76577,0.2904403,0.9136514,-0.8201705
1732202468442,2024-11-21T15:21:08.442Z,76580,0.2904403,0.9136514,-0.8201705
1732202468455,2024-11-21T15:21:08.455Z,76593,0.3331373,0.8760926,-0.76211655
1732202468458,2024-11-21T15:21:08.458Z,76596,0.3331373,0.8760926,-0.76211655
1732202468473,2024-11-21T15:21:08.473Z,76611,0.35725108,0.8815661,-0.7934664
1732202468477,2024-11-21T15:21:08.477Z,76615,0.35725108,0.8815661,-0.7934664
1732202468497,2024-11-21T15:21:08.497Z,76635,0.28195626,0.9062113,-0.875097
1732202468501,2024-11-21T15:21:08.501Z,76639,0.28195626,0.9062113,-0.875097
1732202468513,2024-11-21T15:21:08.513Z,76651,0.36524466,0.91785663,-0.8449907
1732202468516,2024-11-21T15:21:08.516Z,76654,0.36524466,0.91785663,-0.8449907
1732202468528,2024-11-21T15:21:08.528Z,76666,0.3381169,0.9882307,-0.8625618
1732202468531,2024-11-21T15:21:08.531Z,76669,0.3381169,0.9882307,-0.8625618
1732202468543,2024-11-21T15:21:08.543Z,76681,0.29110685,0.97374135,-0.8952643
1732202468546,2024-11-21T15:21:08.546Z,76684,0.29110685,0.97374135,-0.8952643
1732202468557,2024-11-21T15:21:08.557Z,76695,0.31875804,0.86743695,-0.88254195
1732202468560,2024-11-21T15:21:08.560Z,76698,0.31875804,0.86743695,-0.88254195
1732202468575,2024-11-21T15:21:08.575Z,76713,0.3311429,0.9218432,-0.8219756
1732202468579,2024-11-21T15:21:08.579Z,76717,0.3311429,0.9218432,-0.8219756
1732202468592,2024-11-21T15:21:08.592Z,76730,0.29330832,0.96125114,-0.80339557
1732202468597,2024-11-21T15:21:08.597Z,76735,0.29330832,0.96125114,-0.80339557
1732202468611,2024-11-21T15:21:08.611Z,76749,0.37560514,0.93803376,-0.80142486
1732202468615,2024-11-21T15:21:08.615Z,76753,0.37560514,0.93803376,-0.80142486
1732202468633,2024-11-21T15:21:08.633Z,76771,0.43303692,0.9425641,-0.8355691
1732202468636,2024-11-21T15:21:08.636Z,76774,0.43303692,0.9425641,-0.8355691
1732202468647,2024-11-21T15:21:08.647Z,76785,0.3837065,0.95602995,-0.8716232
1732202468651,2024-11-21T15:21:08.651Z,76789,0.3837065,0.95602995,-0.8716232
1732202468662,2024-11-21T15:21:08.662Z,76800,0.2675321,0.88299924,-0.9164508
1732202468666,2024-11-21T15:21:08.666Z,76804,0.2675321,0.88299924,-0.9164508
1732202468677,2024-11-21T15:21:08.677Z,76815,0.36958233,0.89023846,-0.90084505
1732202468680,2024-11-21T15:21:08.680Z,76818,0.36958233,0.89023846,-0.90084505
1732202468690,2024-11-21T15:21:08.690Z,76828,0.34611258,0.9295208,-0.86081606
1732202468693,2024-11-21T15:21:08.693Z,76831,0.34611258,0.9295208,-0.86081606
1732202468703,2024-11-21T15:21:08.703Z,76841,0.29823238,0.9057584,-0.8054918
1732202468706,2024-11-21T15:21:08.706Z,76844,0.29823238,0.9057584,-0.8054918
1732202468717,2024-11-21T15:21:08.717Z,76855,0.30327246,0.9309599,-0.89278126
1732202468720,2024-11-21T15:21:08.720Z,76858,0.30327246,0.9309599,-0.89278126
1732202468730,2024-11-21T15:21:08.730Z,76868,0.26999062,0.9010472,-0.8960931
1732202468733,2024-11-21T15:21:08.733Z,76871,0.26999062,0.9010472,-0.8960931
1732202468744,2024-11-21T15:21:08.744Z,76882,0.36810622,0.80868566,-0.87210274
1732202468749,2024-11-21T15:21:08.749Z,76887,0.36810622,0.80868566,-0.87210274
1732202468771,2024-11-21T15:21:08.771Z,76909,0.409583,0.82540756,-0.8393503
1732202468777,2024-11-21T15:21:08.777Z,76915,0.409583,0.82540756,-0.8393503
1732202468818,2024-11-21T15:21:08.818Z,76956,0.28182462,0.90434974,-0.88199973
1732202468825,2024-11-21T15:21:08.825Z,76963,0.28182462,0.90434974,-0.88199973
1732202468846,2024-11-21T15:21:08.846Z,76984,0.34366626,0.88635457,-0.85117346
1732202468850,2024-11-21T15:21:08.850Z,76988,0.34366626,0.88635457,-0.85117346
1732202468864,2024-11-21T15:21:08.864Z,77002,0.37874496,0.86438614,-0.80224884
1732202468868,2024-11-21T15:21:08.868Z,77006,0.37874496,0.86438614,-0.80224884
1732202468879,2024-11-21T15:21:08.879Z,77017,0.27867234,0.8617626,-0.9122446
1732202468883,2024-11-21T15:21:08.883Z,77021,0.27867234,0.8617626,-0.9122446
1732202468894,2024-11-21T15:21:08.894Z,77032,0.32280362,0.8937992,-0.95417446
1732202468898,2024-11-21T15:21:08.898Z,77036,0.32280362,0.8937992,-0.95417446
1732202468909,2024-11-21T15:21:08.909Z,77047,0.35110033,0.9099073,-0.9555723
1732202468913,2024-11-21T15:21:08.913Z,77051,0.35110033,0.9099073,-0.9555723
1732202468926,2024-11-21T15:21:08.926Z,77064,0.38963515,0.878836,-0.86854774
1732202468929,2024-11-21T15:21:08.929Z,77067,0.38963515,0.878836,-0.86854774
1732202468939,2024-11-21T15:21:08.939Z,77077,0.33515272,0.911362,-0.9269052
1732202468942,2024-11-21T15:21:08.942Z,77080,0.33515272,0.911362,-0.9269052
1732202468952,2024-11-21T15:21:08.952Z,77090,0.32969004,0.9096699,-0.93412876
1732202468955,2024-11-21T15:21:08.955Z,77093,0.32969004,0.9096699,-0.93412876
1732202468964,2024-11-21T15:21:08.964Z,77102,0.328323,0.8836124,-0.9252096
1732202468968,2024-11-21T15:21:08.968Z,77106,0.328323,0.8836124,-0.9252096
1732202468977,2024-11-21T15:21:08.977Z,77115,0.3488258,0.90039897,-0.84829533
1732202468980,2024-11-21T15:21:08.980Z,77118,0.3488258,0.90039897,-0.84829533
1732202468990,2024-11-21T15:21:08.990Z,77128,0.34448454,0.90202004,-0.8477208
1732202468993,2024-11-21T15:21:08.993Z,77131,0.34448454,0.90202004,-0.8477208
1732202469003,2024-11-21T15:21:09.003Z,77141,0.34449625,0.8920858,-0.86083114
1732202469006,2024-11-21T15:21:09.006Z,77144,0.34449625,0.8920858,-0.86083114
1732202469015,2024-11-21T15:21:09.015Z,77153,0.32679898,0.8902522,-0.9188283
1732202469019,2024-11-21T15:21:09.019Z,77157,0.32679898,0.8902522,-0.9188283
1732202469028,2024-11-21T15:21:09.028Z,77166,0.30492166,0.881177,-0.897744
1732202469031,2024-11-21T15:21:09.031Z,77169,0.30492166,0.881177,-0.897744
1732202469043,2024-11-21T15:21:09.043Z,77181,0.3052396,0.85747844,-0.8287984
1732202469047,2024-11-21T15:21:09.047Z,77185,0.3052396,0.85747844,-0.8287984
1732202469056,2024-11-21T15:21:09.056Z,77194,0.32416657,0.8835827,-0.8847571
1732202469060,2024-11-21T15:21:09.060Z,77198,0.32416657,0.8835827,-0.8847571
1732202469074,2024-11-21T15:21:09.074Z,77212,0.30463535,0.9150462,-0.90809363
1732202469077,2024-11-21T15:21:09.077Z,77215,0.30463535,0.9150462,-0.90809363
1732202469089,2024-11-21T15:21:09.089Z,77227,0.34676933,0.8999846,-0.93682134
1732202469092,2024-11-21T15:21:09.092Z,77230,0.34676933,0.8999846,-0.93682134
1732202469103,2024-11-21T15:21:09.103Z,77241,0.28263026,0.89713097,-0.9488214
1732202469106,2024-11-21T15:21:09.106Z,77244,0.28263026,0.89713097,-0.9488214
1732202469117,2024-11-21T15:21:09.117Z,77255,0.26616764,0.874651,-0.8726149
1732202469121,2024-11-21T15:21:09.121Z,77259,0.26616764,0.874651,-0.8726149
1732202469132,2024-11-21T15:21:09.132Z,77270,0.310669,0.8528725,-0.8267549
1732202469135,2024-11-21T15:21:09.135Z,77273,0.310669,0.8528725,-0.8267549
1732202469148,2024-11-21T15:21:09.148Z,77286,0.33058622,0.895147,-0.8988594
1732202469154,2024-11-21T15:21:09.154Z,77292,0.33058622,0.895147,-0.8988594
1732202469176,2024-11-21T15:21:09.176Z,77314,0.29545966,0.8732501,-0.93874097
1732202469183,2024-11-21T15:21:09.183Z,77321,0.29545966,0.8732501,-0.93874097
1732202469196,2024-11-21T15:21:09.196Z,77334,0.32471097,0.8657687,-0.9229115
1732202469200,2024-11-21T15:21:09.200Z,77338,0.32471097,0.8657687,-0.9229115
1732202469212,2024-11-21T15:21:09.212Z,77350,0.30663326,0.8616254,-0.9079438
1732202469216,2024-11-21T15:21:09.216Z,77354,0.30663326,0.8616254,-0.9079438
1732202469226,2024-11-21T15:21:09.226Z,77364,0.30581075,0.8563216,-0.9293523
1732202469229,2024-11-21T15:21:09.229Z,77367,0.30581075,0.8563216,-0.9293523
1732202469247,2024-11-21T15:21:09.247Z,77385,0.3291308,0.8820533,-0.91218317
1732202469252,2024-11-21T15:21:09.252Z,77390,0.3291308,0.8820533,-0.91218317
1732202469263,2024-11-21T15:21:09.263Z,77401,0.30315366,0.8066168,-0.88118845
1732202469266,2024-11-21T15:21:09.266Z,77404,0.30315366,0.8066168,-0.88118845
1732202469276,2024-11-21T15:21:09.276Z,77414,0.24555545,0.83536273,-0.89514226
1732202469279,2024-11-21T15:21:09.279Z,77417,0.24555545,0.83536273,-0.89514226
1732202469289,2024-11-21T15:21:09.289Z,77427,0.25740835,0.8765752,-0.89641845
1732202469292,2024-11-21T15:21:09.292Z,77430,0.25740835,0.8765752,-0.89641845
1732202469302,2024-11-21T15:21:09.302Z,77440,0.4217028,0.8503022,-0.9134089
1732202469306,2024-11-21T15:21:09.306Z,77444,0.4217028,0.8503022,-0.9134089
1732202469314,2024-11-21T15:21:09.314Z,77452,0.430816,0.88429177,-0.91715264
1732202469317,2024-11-21T15:21:09.317Z,77455,0.430816,0.88429177,-0.91715264
1732202469326,2024-11-21T15:21:09.326Z,77464,0.3629435,0.8943951,-0.9106093
1732202469328,2024-11-21T15:21:09.328Z,77466,0.3629435,0.8943951,-0.9106093
1732202469338,2024-11-21T15:21:09.338Z,77476,0.2585944,0.8474132,-0.923286
1732202469341,2024-11-21T15:21:09.341Z,77479,0.2585944,0.8474132,-0.923286
1732202469352,2024-11-21T15:21:09.352Z,77490,0.26759857,0.9056227,-0.8745716
1732202469356,2024-11-21T15:21:09.356Z,77494,0.26759857,0.9056227,-0.8745716
1732202469366,2024-11-21T15:21:09.366Z,77504,0.375752,0.90755534,-0.9335238
1732202469370,2024-11-21T15:21:09.370Z,77508,0.375752,0.90755534,-0.9335238
1732202469383,2024-11-21T15:21:09.383Z,77521,0.37328556,0.88511777,-0.9718378
1732202469386,2024-11-21T15:21:09.386Z,77524,0.37328556,0.88511777,-0.9718378
1732202469402,2024-11-21T15:21:09.402Z,77540,0.39508137,0.8805475,-0.97022647
1732202469409,2024-11-21T15:21:09.409Z,77547,0.39508137,0.8805475,-0.97022647
1732202469451,2024-11-21T15:21:09.451Z,77589,0.27693447,0.88638353,-0.9015909
1732202469459,2024-11-21T15:21:09.459Z,77597,0.27693447,0.88638353,-0.9015909
1732202469487,2024-11-21T15:21:09.487Z,77625,0.274525,0.8695474,-0.8564277
1732202469494,2024-11-21T15:21:09.494Z,77632,0.274525,0.8695474,-0.8564277
1732202469513,2024-11-21T15:21:09.513Z,77651,0.33849758,0.89105225,-0.8233674
1732202469519,2024-11-21T15:21:09.519Z,77657,0.33849758,0.89105225,-0.8233674
1732202469534,2024-11-21T15:21:09.534Z,77672,0.3521898,0.8445256,-0.90437615
1732202469539,2024-11-21T15:21:09.539Z,77677,0.3521898,0.8445256,-0.90437615
1732202469549,2024-11-21T15:21:09.549Z,77687,0.3887549,0.80758643,-0.9388537
1732202469552,2024-11-21T15:21:09.552Z,77690,0.3887549,0.80758643,-0.9388537
1732202469562,2024-11-21T15:21:09.562Z,77700,0.4237821,0.82523245,-0.9737714
1732202469565,2024-11-21T15:21:09.565Z,77703,0.4237821,0.82523245,-0.9737714
1732202469575,2024-11-21T15:21:09.575Z,77713,0.2973491,0.88397026,-0.92778295
1732202469578,2024-11-21T15:21:09.578Z,77716,0.2973491,0.88397026,-0.92778295
1732202469587,2024-11-21T15:21:09.587Z,77725,0.34537014,0.8297318,-0.8715358
1732202469589,2024-11-21T15:21:09.589Z,77727,0.34537014,0.8297318,-0.8715358
1732202469600,2024-11-21T15:21:09.600Z,77738,0.40268156,0.8221915,-0.80898607
1732202469603,2024-11-21T15:21:09.603Z,77741,0.40268156,0.8221915,-0.80898607
1732202469613,2024-11-21T15:21:09.613Z,77751,0.27208233,0.8732595,-0.9206192
1732202469616,2024-11-21T15:21:09.616Z,77754,0.27208233,0.8732595,-0.9206192
1732202469628,2024-11-21T15:21:09.628Z,77766,0.26858923,0.85650575,-0.9662245
1732202469631,2024-11-21T15:21:09.631Z,77769,0.26858923,0.85650575,-0.9662245
1732202469640,2024-11-21T15:21:09.640Z,77778,0.33527645,0.8509813,-0.964023
1732202469643,2024-11-21T15:21:09.643Z,77781,0.33527645,0.8509813,-0.964023
1732202469652,2024-11-21T15:21:09.652Z,77790,0.2704163,0.8569251,-0.85893404
1732202469655,2024-11-21T15:21:09.655Z,77793,0.2704163,0.8569251,-0.85893404
1732202469668,2024-11-21T15:21:09.668Z,77806,0.340911,0.8230516,-0.903203
1732202469675,2024-11-21T15:21:09.675Z,77813,0.340911,0.8230516,-0.903203
1732202469695,2024-11-21T15:21:09.695Z,77833,0.37423337,0.8471332,-0.9092819
1732202469702,2024-11-21T15:21:09.702Z,77840,0.37423337,0.8471332,-0.9092819
1732202469719,2024-11-21T15:21:09.719Z,77857,0.38981003,0.83953226,-0.92636675
1732202469722,2024-11-21T15:21:09.722Z,77860,0.38981003,0.83953226,-0.92636675
1732202469734,2024-11-21T15:21:09.734Z,77872,0.39749599,0.8352237,-0.90368384
1732202469737,2024-11-21T15:21:09.737Z,77875,0.39749599,0.8352237,-0.90368384
1732202469747,2024-11-21T15:21:09.747Z,77885,0.35344115,0.8549601,-0.8976206
1732202469750,2024-11-21T15:21:09.750Z,77888,0.35344115,0.8549601,-0.8976206
1732202469761,2024-11-21T15:21:09.761Z,77899,0.2981476,0.784005,-0.8380379
1732202469764,2024-11-21T15:21:09.764Z,77902,0.2981476,0.784005,-0.8380379
1732202469780,2024-11-21T15:21:09.780Z,77918,0.31820706,0.8111899,-0.8931827
1732202469789,2024-11-21T15:21:09.789Z,77927,0.31820706,0.8111899,-0.8931827
1732202469812,2024-11-21T15:21:09.812Z,77950,0.41465613,0.8692204,-0.95800495
1732202469817,2024-11-21T15:21:09.817Z,77955,0.41465613,0.8692204,-0.95800495
1732202469827,2024-11-21T15:21:09.827Z,77965,0.43121707,0.8568633,-0.9004095
1732202469831,2024-11-21T15:21:09.831Z,77969,0.43121707,0.8568633,-0.9004095
1732202469841,2024-11-21T15:21:09.841Z,77979,0.3480652,0.8221272,-0.8634289
1732202469845,2024-11-21T15:21:09.845Z,77983,0.3480652,0.8221272,-0.8634289
1732202469857,2024-11-21T15:21:09.857Z,77995,0.32301596,0.8601056,-0.91140187
1732202469861,2024-11-21T15:21:09.861Z,77999,0.32301596,0.8601056,-0.91140187
1732202469871,2024-11-21T15:21:09.871Z,78009,0.36959323,0.91921866,-0.902155
1732202469874,2024-11-21T15:21:09.874Z,78012,0.36959323,0.91921866,-0.902155
1732202469884,2024-11-21T15:21:09.884Z,78022,0.36625078,0.90746695,-0.9295707
1732202469888,2024-11-21T15:21:09.888Z,78026,0.36625078,0.90746695,-0.9295707
1732202469897,2024-11-21T15:21:09.897Z,78035,0.39159203,0.9038821,-0.91819125
1732202469900,2024-11-21T15:21:09.900Z,78038,0.39159203,0.9038821,-0.91819125
1732202469912,2024-11-21T15:21:09.912Z,78050,0.35405368,0.9220253,-0.8840171
1732202469915,2024-11-21T15:21:09.915Z,78053,0.35405368,0.9220253,-0.8840171
1732202469931,2024-11-21T15:21:09.931Z,78069,0.2866431,0.90648067,-0.8841558
1732202469936,2024-11-21T15:21:09.936Z,78074,0.2866431,0.90648067,-0.8841558
1732202469949,2024-11-21T15:21:09.949Z,78087,0.34538305,0.9157622,-0.9212218
1732202469956,2024-11-21T15:21:09.956Z,78094,0.34538305,0.9157622,-0.9212218
1732202469974,2024-11-21T15:21:09.974Z,78112,0.38749716,0.94562453,-0.92183626
1732202469979,2024-11-21T15:21:09.979Z,78117,0.38749716,0.94562453,-0.92183626
1732202469994,2024-11-21T15:21:09.994Z,78132,0.38050812,0.95119846,-0.9370589
1732202469997,2024-11-21T15:21:09.997Z,78135,0.38050812,0.95119846,-0.9370589
1732202470007,2024-11-21T15:21:10.007Z,78145,0.34762183,0.92657477,-0.90690845
1732202470011,2024-11-21T15:21:10.011Z,78149,0.34762183,0.92657477,-0.90690845
1732202470020,2024-11-21T15:21:10.020Z,78158,0.37007117,0.89366555,-0.8939486
1732202470024,2024-11-21T15:21:10.024Z,78162,0.37007117,0.89366555,-0.8939486
1732202470033,2024-11-21T15:21:10.033Z,78171,0.34075904,0.86515224,-0.89931566
1732202470036,2024-11-21T15:21:10.036Z,78174,0.34075904,0.86515224,-0.89931566
1732202470046,2024-11-21T15:21:10.046Z,78184,0.30962265,0.84799385,-0.918079
1732202470049,2024-11-21T15:21:10.049Z,78187,0.30962265,0.84799385,-0.918079
1732202470058,2024-11-21T15:21:10.058Z,78196,0.30499855,0.7233611,-0.8628194
1732202470062,2024-11-21T15:21:10.062Z,78200,0.30499855,0.7233611,-0.8628194
1732202470072,2024-11-21T15:21:10.072Z,78210,0.2753697,0.72868335,-0.9115707
1732202470076,2024-11-21T15:21:10.076Z,78214,0.2753697,0.72868335,-0.9115707
1732202470084,2024-11-21T15:21:10.084Z,78222,0.2607538,0.8107491,-0.9009277
1732202470087,2024-11-21T15:21:10.087Z,78225,0.2607538,0.8107491,-0.9009277
1732202470096,2024-11-21T15:21:10.096Z,78234,0.30621755,0.7177454,-0.8759165
1732202470098,2024-11-21T15:21:10.098Z,78236,0.30621755,0.7177454,-0.8759165
1732202470108,2024-11-21T15:21:10.108Z,78246,0.2733278,0.689623,-0.8634293
1732202470110,2024-11-21T15:21:10.110Z,78248,0.2733278,0.689623,-0.8634293
1732202470119,2024-11-21T15:21:10.119Z,78257,0.30459633,0.70112157,-0.87328047
1732202470122,2024-11-21T15:21:10.122Z,78260,0.30459633,0.70112157,-0.87328047
1732202470132,2024-11-21T15:21:10.132Z,78270,0.31044117,0.69501925,-0.8874382
1732202470136,2024-11-21T15:21:10.136Z,78274,0.31044117,0.69501925,-0.8874382
1732202470146,2024-11-21T15:21:10.146Z,78284,0.282524,0.69854724,-0.8876799
1732202470149,2024-11-21T15:21:10.149Z,78287,0.282524,0.69854724,-0.8876799
1732202470160,2024-11-21T15:21:10.160Z,78298,0.34899342,0.74564946,-0.87216806
1732202470163,2024-11-21T15:21:10.163Z,78301,0.34899342,0.74564946,-0.87216806
1732202470173,2024-11-21T15:21:10.173Z,78311,0.25435624,0.6625803,-0.8556547
1732202470177,2024-11-21T15:21:10.177Z,78315,0.25435624,0.6625803,-0.8556547
1732202470189,2024-11-21T15:21:10.189Z,78327,0.24992162,0.65627706,-0.8577269
1732202470192,2024-11-21T15:21:10.192Z,78330,0.24992162,0.65627706,-0.8577269
1732202470207,2024-11-21T15:21:10.207Z,78345,0.30585638,0.70221144,-0.8577318
1732202470211,2024-11-21T15:21:10.211Z,78349,0.30585638,0.70221144,-0.8577318
1732202470219,2024-11-21T15:21:10.219Z,78357,0.30042052,0.7523482,-0.89696383
1732202470222,2024-11-21T15:21:10.222Z,78360,0.30042052,0.7523482,-0.89696383
1732202470233,2024-11-21T15:21:10.233Z,78371,0.32700744,0.7005376,-0.8826631
1732202470236,2024-11-21T15:21:10.236Z,78374,0.32700744,0.7005376,-0.8826631
1732202470253,2024-11-21T15:21:10.253Z,78391,0.37082732,0.66517514,-0.8663515
1732202470257,2024-11-21T15:21:10.257Z,78395,0.37082732,0.66517514,-0.8663515
1732202470269,2024-11-21T15:21:10.269Z,78407,0.29812962,0.6410541,-0.84102196
1732202470275,2024-11-21T15:21:10.275Z,78413,0.29812962,0.6410541,-0.84102196
1732202470299,2024-11-21T15:21:10.299Z,78437,0.30589572,0.6816714,-0.8416498
1732202470305,2024-11-21T15:21:10.305Z,78443,0.30589572,0.6816714,-0.8416498
1732202470328,2024-11-21T15:21:10.328Z,78466,0.29811877,0.69998264,-0.8565085
1732202470332,2024-11-21T15:21:10.332Z,78470,0.29811877,0.69998264,-0.8565085
1732202470347,2024-11-21T15:21:10.347Z,78485,0.31856483,0.6182674,-0.9201988
1732202470352,2024-11-21T15:21:10.352Z,78490,0.31856483,0.6182674,-0.9201988
1732202470365,2024-11-21T15:21:10.365Z,78503,0.3203725,0.6488352,-0.88974357
1732202470369,2024-11-21T15:21:10.369Z,78507,0.3203725,0.6488352,-0.88974357
1732202470383,2024-11-21T15:21:10.383Z,78521,0.3511253,0.6403348,-0.8263493
1732202470387,2024-11-21T15:21:10.387Z,78525,0.3511253,0.6403348,-0.8263493
1732202470397,2024-11-21T15:21:10.397Z,78535,0.30564767,0.6178063,-0.83484286
1732202470400,2024-11-21T15:21:10.400Z,78538,0.30564767,0.6178063,-0.83484286
1732202470414,2024-11-21T15:21:10.414Z,78552,0.2555772,0.6480022,-0.8705511
1732202470421,2024-11-21T15:21:10.421Z,78559,0.2555772,0.6480022,-0.8705511
1732202470442,2024-11-21T15:21:10.442Z,78580,0.27107596,0.6968397,-0.88615125
1732202470446,2024-11-21T15:21:10.446Z,78584,0.27107596,0.6968397,-0.88615125
1732202470458,2024-11-21T15:21:10.458Z,78596,0.39287683,0.67636687,-0.8760937
1732202470462,2024-11-21T15:21:10.462Z,78600,0.39287683,0.67636687,-0.8760937
1732202470478,2024-11-21T15:21:10.478Z,78616,0.35681996,0.6649568,-0.8401051
1732202470482,2024-11-21T15:21:10.482Z,78620,0.35681996,0.6649568,-0.8401051
1732202470493,2024-11-21T15:21:10.493Z,78631,0.29979998,0.6573204,-0.8211251
1732202470496,2024-11-21T15:21:10.496Z,78634,0.29979998,0.6573204,-0.8211251
1732202470506,2024-11-21T15:21:10.506Z,78644,0.29042628,0.6791863,-0.88717824
1732202470509,2024-11-21T15:21:10.509Z,78647,0.29042628,0.6791863,-0.88717824
1732202470518,2024-11-21T15:21:10.518Z,78656,0.33730125,0.7166614,-0.8832372
1732202470521,2024-11-21T15:21:10.521Z,78659,0.33730125,0.7166614,-0.8832372
1732202470530,2024-11-21T15:21:10.530Z,78668,0.36018133,0.7303333,-0.8768553
1732202470533,2024-11-21T15:21:10.533Z,78671,0.36018133,0.7303333,-0.8768553
1732202470543,2024-11-21T15:21:10.543Z,78681,0.35311946,0.66962445,-0.7890955
1732202470547,2024-11-21T15:21:10.547Z,78685,0.35311946,0.66962445,-0.7890955
1732202470562,2024-11-21T15:21:10.562Z,78700,0.31887695,0.6440515,-0.831763
1732202470566,2024-11-21T15:21:10.566Z,78704,0.31887695,0.6440515,-0.831763
1732202470575,2024-11-21T15:21:10.575Z,78713,0.26530692,0.67554444,-0.8711104
1732202470578,2024-11-21T15:21:10.578Z,78716,0.26530692,0.67554444,-0.8711104
1732202470589,2024-11-21T15:21:10.589Z,78727,0.3440029,0.77251333,-0.8644384
1732202470592,2024-11-21T15:21:10.592Z,78730,0.3440029,0.77251333,-0.8644384
1732202470603,2024-11-21T15:21:10.603Z,78741,0.40689912,0.75030184,-0.8595466
1732202470606,2024-11-21T15:21:10.606Z,78744,0.40689912,0.75030184,-0.8595466
1732202470616,2024-11-21T15:21:10.616Z,78754,0.37343127,0.7046367,-0.7954127
1732202470620,2024-11-21T15:21:10.620Z,78758,0.37343127,0.7046367,-0.7954127
1732202470710,2024-11-21T15:21:10.710Z,78848,0.27955928,0.6748076,-0.85037124
1732202470718,2024-11-21T15:21:10.718Z,78856,0.27955928,0.6748076,-0.85037124
1732202470743,2024-11-21T15:21:10.743Z,78881,0.39882573,0.71401346,-0.8327245
1732202470752,2024-11-21T15:21:10.752Z,78890,0.39882573,0.71401346,-0.8327245
1732202470776,2024-11-21T15:21:10.776Z,78914,0.44102383,0.74986446,-0.8641053
1732202470781,2024-11-21T15:21:10.781Z,78919,0.44102383,0.74986446,-0.8641053
1732202470799,2024-11-21T15:21:10.799Z,78937,0.28990147,0.73760945,-0.8007423
1732202470803,2024-11-21T15:21:10.803Z,78941,0.28990147,0.73760945,-0.8007423
1732202470817,2024-11-21T15:21:10.817Z,78955,0.2781026,0.6886335,-0.75573766
1732202470821,2024-11-21T15:21:10.821Z,78959,0.2781026,0.6886335,-0.75573766
1732202470834,2024-11-21T15:21:10.834Z,78972,0.34802637,0.65324545,-0.7012303
1732202470838,2024-11-21T15:21:10.838Z,78976,0.34802637,0.65324545,-0.7012303
1732202470850,2024-11-21T15:21:10.850Z,78988,0.28287986,0.6674039,-0.81419957
1732202470853,2024-11-21T15:21:10.853Z,78991,0.28287986,0.6674039,-0.81419957
1732202470863,2024-11-21T15:21:10.863Z,79001,0.3297963,0.6793193,-0.82829916
1732202470866,2024-11-21T15:21:10.866Z,79004,0.3297963,0.6793193,-0.82829916
1732202470877,2024-11-21T15:21:10.877Z,79015,0.3814313,0.6782942,-0.824827
1732202470880,2024-11-21T15:21:10.880Z,79018,0.3814313,0.6782942,-0.824827
1732202470892,2024-11-21T15:21:10.892Z,79030,0.30358848,0.6223881,-0.7795552
1732202470895,2024-11-21T15:21:10.895Z,79033,0.30358848,0.6223881,-0.7795552
1732202470904,2024-11-21T15:21:10.904Z,79042,0.3479305,0.61711437,-0.74942183
1732202470908,2024-11-21T15:21:10.908Z,79046,0.3479305,0.61711437,-0.74942183
1732202470918,2024-11-21T15:21:10.918Z,79056,0.35334083,0.66605586,-0.74606997
1732202470921,2024-11-21T15:21:10.921Z,79059,0.35334083,0.66605586,-0.74606997
1732202470933,2024-11-21T15:21:10.933Z,79071,0.2847216,0.7561193,-0.8162606
1732202470936,2024-11-21T15:21:10.936Z,79074,0.2847216,0.7561193,-0.8162606
1732202470948,2024-11-21T15:21:10.948Z,79086,0.31976125,0.72719115,-0.8448501
1732202470952,2024-11-21T15:21:10.952Z,79090,0.31976125,0.72719115,-0.8448501
1732202470964,2024-11-21T15:21:10.964Z,79102,0.4033355,0.64700586,-0.8150339
1732202470966,2024-11-21T15:21:10.966Z,79104,0.4033355,0.64700586,-0.8150339
1732202470977,2024-11-21T15:21:10.977Z,79115,0.3686283,0.7030499,-0.8683523
1732202470980,2024-11-21T15:21:10.980Z,79118,0.3686283,0.7030499,-0.8683523
1732202470991,2024-11-21T15:21:10.991Z,79129,0.3160624,0.7631718,-0.8401125
1732202470994,2024-11-21T15:21:10.994Z,79132,0.3160624,0.7631718,-0.8401125
1732202471003,2024-11-21T15:21:11.003Z,79141,0.2819851,0.7163342,-0.6151818
1732202471007,2024-11-21T15:21:11.007Z,79145,0.2819851,0.7163342,-0.6151818
1732202471017,2024-11-21T15:21:11.017Z,79155,0.30258372,0.75582033,-0.7179094
1732202471021,2024-11-21T15:21:11.021Z,79159,0.30258372,0.75582033,-0.7179094
1732202471035,2024-11-21T15:21:11.035Z,79173,0.35230348,0.7506429,-0.833646
1732202471042,2024-11-21T15:21:11.042Z,79180,0.35230348,0.7506429,-0.833646
1732202471065,2024-11-21T15:21:11.065Z,79203,0.35055488,0.67233044,-0.8437874
1732202471072,2024-11-21T15:21:11.072Z,79210,0.35055488,0.67233044,-0.8437874
1732202471092,2024-11-21T15:21:11.092Z,79230,0.32260764,0.74373645,-0.7613604
1732202471100,2024-11-21T15:21:11.100Z,79238,0.32260764,0.74373645,-0.7613604
1732202471118,2024-11-21T15:21:11.118Z,79256,0.29575208,0.74030113,-0.63550943
1732202471123,2024-11-21T15:21:11.123Z,79261,0.29575208,0.74030113,-0.63550943
1732202471137,2024-11-21T15:21:11.137Z,79275,0.40408662,0.6925115,-0.65960604
1732202471141,2024-11-21T15:21:11.141Z,79279,0.40408662,0.6925115,-0.65960604
1732202471154,2024-11-21T15:21:11.154Z,79292,0.44855508,0.7165855,-0.7704788
1732202471158,2024-11-21T15:21:11.158Z,79296,0.44855508,0.7165855,-0.7704788
1732202471169,2024-11-21T15:21:11.169Z,79307,0.40749106,0.73306185,-0.796377
1732202471173,2024-11-21T15:21:11.173Z,79311,0.40749106,0.73306185,-0.796377
1732202471184,2024-11-21T15:21:11.184Z,79322,0.3667583,0.79563636,-0.6704377
1732202471188,2024-11-21T15:21:11.188Z,79326,0.3667583,0.79563636,-0.6704377
1732202471198,2024-11-21T15:21:11.198Z,79336,0.3425529,0.7481397,-0.63646024
1732202471201,2024-11-21T15:21:11.201Z,79339,0.3425529,0.7481397,-0.63646024
1732202471211,2024-11-21T15:21:11.211Z,79349,0.42081654,0.93058324,-0.66320306
1732202471214,2024-11-21T15:21:11.214Z,79352,0.42081654,0.93058324,-0.66320306
1732202471225,2024-11-21T15:21:11.225Z,79363,0.41334566,0.934552,-0.6594799
1732202471228,2024-11-21T15:21:11.228Z,79366,0.41334566,0.934552,-0.6594799
1732202471237,2024-11-21T15:21:11.237Z,79375,0.33207917,0.783451,-0.69943047
1732202471239,2024-11-21T15:21:11.239Z,79377,0.33207917,0.783451,-0.69943047
1732202471248,2024-11-21T15:21:11.248Z,79386,0.38997242,0.8106694,-0.6903191
1732202471251,2024-11-21T15:21:11.251Z,79389,0.38997242,0.8106694,-0.6903191
1732202471264,2024-11-21T15:21:11.264Z,79402,0.3073753,0.8307343,-0.77082115
1732202471272,2024-11-21T15:21:11.272Z,79410,0.3073753,0.8307343,-0.77082115
1732202471298,2024-11-21T15:21:11.298Z,79436,0.28022835,0.76278347,-0.7078049
1732202471304,2024-11-21T15:21:11.304Z,79442,0.28022835,0.76278347,-0.7078049
1732202471325,2024-11-21T15:21:11.325Z,79463,0.4010631,0.77999824,-0.6722986
1732202471332,2024-11-21T15:21:11.332Z,79470,0.4010631,0.77999824,-0.6722986
1732202471351,2024-11-21T15:21:11.351Z,79489,0.38991266,0.7827122,-0.6592109
1732202471355,2024-11-21T15:21:11.355Z,79493,0.38991266,0.7827122,-0.6592109
1732202471369,2024-11-21T15:21:11.369Z,79507,0.2733845,0.74693877,-0.71702945
1732202471373,2024-11-21T15:21:11.373Z,79511,0.2733845,0.74693877,-0.71702945
1732202471386,2024-11-21T15:21:11.386Z,79524,0.32786337,0.75271046,-0.7653758
1732202471390,2024-11-21T15:21:11.390Z,79528,0.32786337,0.75271046,-0.7653758
1732202471400,2024-11-21T15:21:11.400Z,79538,0.4156417,0.7404352,-0.65131104
1732202471403,2024-11-21T15:21:11.403Z,79541,0.4156417,0.7404352,-0.65131104
1732202471413,2024-11-21T15:21:11.413Z,79551,0.40583265,0.7009585,-0.6205754
1732202471416,2024-11-21T15:21:11.416Z,79554,0.40583265,0.7009585,-0.6205754
1732202471425,2024-11-21T15:21:11.425Z,79563,0.32458842,0.7225486,-0.68291634
1732202471427,2024-11-21T15:21:11.427Z,79565,0.32458842,0.7225486,-0.68291634
1732202471437,2024-11-21T15:21:11.437Z,79575,0.30280668,0.9084467,-0.7763088
1732202471440,2024-11-21T15:21:11.440Z,79578,0.30280668,0.9084467,-0.7763088
1732202471449,2024-11-21T15:21:11.449Z,79587,0.38163716,0.91397446,-0.75390154
1732202471451,2024-11-21T15:21:11.451Z,79589,0.38163716,0.91397446,-0.75390154
1732202471460,2024-11-21T15:21:11.460Z,79598,0.38949624,0.8162514,-0.6964757
1732202471463,2024-11-21T15:21:11.463Z,79601,0.38949624,0.8162514,-0.6964757
1732202471474,2024-11-21T15:21:11.474Z,79612,0.3488478,0.711248,-0.6102559
1732202471478,2024-11-21T15:21:11.478Z,79616,0.3488478,0.711248,-0.6102559
1732202471487,2024-11-21T15:21:11.487Z,79625,0.3692009,0.8278787,-0.61204535
1732202471491,2024-11-21T15:21:11.491Z,79629,0.3692009,0.8278787,-0.61204535
1732202471499,2024-11-21T15:21:11.499Z,79637,0.3514777,0.8968268,-0.66362417
1732202471502,2024-11-21T15:21:11.502Z,79640,0.3514777,0.8968268,-0.66362417
1732202471511,2024-11-21T15:21:11.511Z,79649,0.30042565,0.7474854,-0.66571826
1732202471514,2024-11-21T15:21:11.514Z,79652,0.30042565,0.7474854,-0.66571826
1732202471524,2024-11-21T15:21:11.524Z,79662,0.33332342,0.7655602,-0.6477459
1732202471528,2024-11-21T15:21:11.528Z,79666,0.33332342,0.7655602,-0.6477459
1732202471536,2024-11-21T15:21:11.536Z,79674,0.38127288,0.76702505,-0.6678598
1732202471539,2024-11-21T15:21:11.539Z,79677,0.38127288,0.76702505,-0.6678598
1732202471547,2024-11-21T15:21:11.547Z,79685,0.31395787,0.8121177,-0.76915437
1732202471550,2024-11-21T15:21:11.550Z,79688,0.31395787,0.8121177,-0.76915437
1732202471559,2024-11-21T15:21:11.559Z,79697,0.38068634,0.80509496,-0.76911557
1732202471562,2024-11-21T15:21:11.562Z,79700,0.38068634,0.80509496,-0.76911557
1732202471572,2024-11-21T15:21:11.572Z,79710,0.41099665,0.7780625,-0.71300536
1732202471576,2024-11-21T15:21:11.576Z,79714,0.41099665,0.7780625,-0.71300536
1732202471586,2024-11-21T15:21:11.586Z,79724,0.3138529,0.7531331,-0.6890512
1732202471589,2024-11-21T15:21:11.589Z,79727,0.3138529,0.7531331,-0.6890512
1732202471599,2024-11-21T15:21:11.599Z,79737,0.25778565,0.79652154,-0.73479855
1732202471602,2024-11-21T15:21:11.602Z,79740,0.25778565,0.79652154,-0.73479855
1732202471613,2024-11-21T15:21:11.613Z,79751,0.2695044,0.8347553,-0.7800215
1732202471616,2024-11-21T15:21:11.616Z,79754,0.2695044,0.8347553,-0.7800215
1732202471625,2024-11-21T15:21:11.625Z,79763,0.36328855,0.80464685,-0.74223596
1732202471628,2024-11-21T15:21:11.628Z,79766,0.36328855,0.80464685,-0.74223596
1732202471636,2024-11-21T15:21:11.636Z,79774,0.34140873,0.7765339,-0.758815
1732202471641,2024-11-21T15:21:11.641Z,79779,0.34140873,0.7765339,-0.758815
1732202471651,2024-11-21T15:21:11.651Z,79789,0.34120193,0.78047556,-0.726554
1732202471655,2024-11-21T15:21:11.655Z,79793,0.34120193,0.78047556,-0.726554
1732202471665,2024-11-21T15:21:11.665Z,79803,0.3518369,0.78485763,-0.67695564
1732202471668,2024-11-21T15:21:11.668Z,79806,0.3518369,0.78485763,-0.67695564
1732202471679,2024-11-21T15:21:11.679Z,79817,0.3162943,0.7759672,-0.7338771
1732202471681,2024-11-21T15:21:11.681Z,79819,0.3162943,0.7759672,-0.7338771
1732202471690,2024-11-21T15:21:11.690Z,79828,0.26770023,0.7829207,-0.77073026
1732202471694,2024-11-21T15:21:11.694Z,79832,0.26770023,0.7829207,-0.77073026
1732202471703,2024-11-21T15:21:11.703Z,79841,0.2972432,0.7981601,-0.77962095
1732202471706,2024-11-21T15:21:11.706Z,79844,0.2972432,0.7981601,-0.77962095
1732202471714,2024-11-21T15:21:11.714Z,79852,0.29797792,0.7707892,-0.7439093
1732202471716,2024-11-21T15:21:11.716Z,79854,0.29797792,0.7707892,-0.7439093
1732202471724,2024-11-21T15:21:11.724Z,79862,0.32128298,0.7415305,-0.7140619
1732202471726,2024-11-21T15:21:11.726Z,79864,0.32128298,0.7415305,-0.7140619
1732202471784,2024-11-21T15:21:11.784Z,79922,0.29649675,0.75623024,-0.7117805
1732202471787,2024-11-21T15:21:11.787Z,79925,0.29649675,0.75623024,-0.7117805
1732202471832,2024-11-21T15:21:11.832Z,79970,0.25314173,0.75904673,-0.78780025
1732202471836,2024-11-21T15:21:11.836Z,79974,0.25314173,0.75904673,-0.78780025
1732202471845,2024-11-21T15:21:11.845Z,79983,0.22582904,0.78992295,-0.772494
1732202471849,2024-11-21T15:21:11.849Z,79987,0.22582904,0.78992295,-0.772494
1732202471863,2024-11-21T15:21:11.863Z,80001,0.36085424,0.80561805,-0.6679969
1732202471866,2024-11-21T15:21:11.866Z,80004,0.36085424,0.80561805,-0.6679969
1732202471880,2024-11-21T15:21:11.880Z,80018,0.41350156,0.7601879,-0.66713214
1732202471883,2024-11-21T15:21:11.883Z,80021,0.41350156,0.7601879,-0.66713214
1732202471896,2024-11-21T15:21:11.896Z,80034,0.35144982,0.72896427,-0.680296
1732202471899,2024-11-21T15:21:11.899Z,80037,0.35144982,0.72896427,-0.680296
1732202471912,2024-11-21T15:21:11.912Z,80050,0.27157366,0.8168499,-0.79691076
1732202471920,2024-11-21T15:21:11.920Z,80058,0.27157366,0.8168499,-0.79691076
1732202471931,2024-11-21T15:21:11.931Z,80069,0.32772833,0.75092626,-0.6716384
1732202471934,2024-11-21T15:21:11.934Z,80072,0.32772833,0.75092626,-0.6716384
1732202471943,2024-11-21T15:21:11.943Z,80081,0.33424228,0.8006588,-0.73836935
1732202471945,2024-11-21T15:21:11.945Z,80083,0.33424228,0.8006588,-0.73836935
1732202471957,2024-11-21T15:21:11.957Z,80095,0.30496672,0.7920668,-0.8084669
1732202471963,2024-11-21T15:21:11.963Z,80101,0.30496672,0.7920668,-0.8084669
1732202471980,2024-11-21T15:21:11.980Z,80118,0.24499743,0.75577176,-0.79566973
1732202471986,2024-11-21T15:21:11.986Z,80124,0.24499743,0.75577176,-0.79566973
1732202472001,2024-11-21T15:21:12.001Z,80139,0.3604659,0.74810797,-0.69526845
1732202472004,2024-11-21T15:21:12.004Z,80142,0.3604659,0.74810797,-0.69526845
1732202472016,2024-11-21T15:21:12.016Z,80154,0.3353007,0.8093857,-0.7017926
1732202472020,2024-11-21T15:21:12.020Z,80158,0.3353007,0.8093857,-0.7017926
1732202472030,2024-11-21T15:21:12.030Z,80168,0.2720065,0.8061318,-0.75474983
1732202472032,2024-11-21T15:21:12.032Z,80170,0.2720065,0.8061318,-0.75474983
1732202472041,2024-11-21T15:21:12.041Z,80179,0.27346155,0.7701493,-0.8151277
1732202472044,2024-11-21T15:21:12.044Z,80182,0.27346155,0.7701493,-0.8151277
1732202472054,2024-11-21T15:21:12.054Z,80192,0.31502712,0.7502703,-0.76438195
1732202472057,2024-11-21T15:21:12.057Z,80195,0.31502712,0.7502703,-0.76438195
1732202472066,2024-11-21T15:21:12.066Z,80204,0.34851626,0.7186337,-0.7268069
1732202472069,2024-11-21T15:21:12.069Z,80207,0.34851626,0.7186337,-0.7268069
1732202472079,2024-11-21T15:21:12.079Z,80217,0.27288556,0.7269245,-0.76199985
1732202472081,2024-11-21T15:21:12.081Z,80219,0.27288556,0.7269245,-0.76199985
1732202472096,2024-11-21T15:21:12.096Z,80234,0.22234151,0.74174106,-0.78329027
1732202472098,2024-11-21T15:21:12.098Z,80236,0.22234151,0.74174106,-0.78329027
1732202472107,2024-11-21T15:21:12.107Z,80245,0.2795788,0.7624649,-0.79923385
1732202472109,2024-11-21T15:21:12.109Z,80247,0.2795788,0.7624649,-0.79923385
1732202472117,2024-11-21T15:21:12.117Z,80255,0.36739478,0.74692535,-0.7248104
1732202472120,2024-11-21T15:21:12.120Z,80258,0.36739478,0.74692535,-0.7248104
1732202472142,2024-11-21T15:21:12.142Z,80280,0.337235,0.68689114,-0.6295473
1732202472145,2024-11-21T15:21:12.145Z,80283,0.337235,0.68689114,-0.6295473
1732202472154,2024-11-21T15:21:12.154Z,80292,0.2301405,0.81266505,-0.8669417
1732202472157,2024-11-21T15:21:12.157Z,80295,0.2301405,0.81266505,-0.8669417
1732202472166,2024-11-21T15:21:12.166Z,80304,0.24701221,0.7712404,-0.85121197
1732202472169,2024-11-21T15:21:12.169Z,80307,0.24701221,0.7712404,-0.85121197
1732202472187,2024-11-21T15:21:12.187Z,80325,0.33222845,0.69055605,-0.76775545
1732202472191,2024-11-21T15:21:12.191Z,80329,0.33222845,0.69055605,-0.76775545
1732202472200,2024-11-21T15:21:12.200Z,80338,0.3611555,0.7456829,-0.6972992
1732202472203,2024-11-21T15:21:12.203Z,80341,0.3611555,0.7456829,-0.6972992
1732202472212,2024-11-21T15:21:12.212Z,80350,0.2668808,0.76962435,-0.7123095
1732202472215,2024-11-21T15:21:12.215Z,80353,0.2668808,0.76962435,-0.7123095
1732202472232,2024-11-21T15:21:12.232Z,80370,0.2754808,0.7345831,-0.73369133
1732202472235,2024-11-21T15:21:12.235Z,80373,0.2754808,0.7345831,-0.73369133
1732202472245,2024-11-21T15:21:12.245Z,80383,0.32309443,0.7543128,-0.77224165
1732202472248,2024-11-21T15:21:12.248Z,80386,0.32309443,0.7543128,-0.77224165
1732202472258,2024-11-21T15:21:12.258Z,80396,0.25589147,0.77322775,-0.8099189
1732202472261,2024-11-21T15:21:12.261Z,80399,0.25589147,0.77322775,-0.8099189
1732202472277,2024-11-21T15:21:12.277Z,80415,0.24072525,0.76398253,-0.79699373
1732202472280,2024-11-21T15:21:12.280Z,80418,0.24072525,0.76398253,-0.79699373
1732202472288,2024-11-21T15:21:12.288Z,80426,0.35950333,0.7246876,-0.8162588
1732202472291,2024-11-21T15:21:12.291Z,80429,0.35950333,0.7246876,-0.8162588
1732202472299,2024-11-21T15:21:12.299Z,80437,0.39492956,0.7875301,-0.7753516
1732202472301,2024-11-21T15:21:12.301Z,80439,0.39492956,0.7875301,-0.7753516
1732202472321,2024-11-21T15:21:12.321Z,80459,0.35547778,0.80460984,-0.698902
1732202472324,2024-11-21T15:21:12.324Z,80462,0.35547778,0.80460984,-0.698902
1732202472333,2024-11-21T15:21:12.333Z,80471,0.26409847,0.67791027,-0.8076116
1732202472335,2024-11-21T15:21:12.335Z,80473,0.26409847,0.67791027,-0.8076116
1732202472344,2024-11-21T15:21:12.344Z,80482,0.25208622,0.7235452,-0.8185568
1732202472347,2024-11-21T15:21:12.347Z,80485,0.25208622,0.7235452,-0.8185568
1732202472367,2024-11-21T15:21:12.367Z,80505,0.34806067,0.7598884,-0.81194264
1732202472369,2024-11-21T15:21:12.369Z,80507,0.34806067,0.7598884,-0.81194264
1732202472378,2024-11-21T15:21:12.378Z,80516,0.2931829,0.7341535,-0.7913675
1732202472381,2024-11-21T15:21:12.381Z,80519,0.2931829,0.7341535,-0.7913675
1732202472389,2024-11-21T15:21:12.389Z,80527,0.31537443,0.7511554,-0.7221997
1732202472392,2024-11-21T15:21:12.392Z,80530,0.31537443,0.7511554,-0.7221997
1732202472400,2024-11-21T15:21:12.400Z,80538,0.35369107,0.7416065,-0.7078082
1732202472402,2024-11-21T15:21:12.402Z,80540,0.35369107,0.7416065,-0.7078082
1732202472415,2024-11-21T15:21:12.415Z,80553,0.25891373,0.67937475,-0.79943204
1732202472417,2024-11-21T15:21:12.417Z,80555,0.25891373,0.67937475,-0.79943204
1732202472427,2024-11-21T15:21:12.427Z,80565,0.2642938,0.71920216,-0.88222533
1732202472429,2024-11-21T15:21:12.429Z,80567,0.2642938,0.71920216,-0.88222533
1732202472504,2024-11-21T15:21:12.504Z,80642,0.31551188,0.7845729,-0.88682604
1732202472507,2024-11-21T15:21:12.507Z,80645,0.31551188,0.7845729,-0.88682604
1732202472519,2024-11-21T15:21:12.519Z,80657,0.32091135,0.6800276,-0.7987271
1732202472524,2024-11-21T15:21:12.524Z,80662,0.32091135,0.6800276,-0.7987271
1732202472537,2024-11-21T15:21:12.537Z,80675,0.2789189,0.6874812,-0.72925264
1732202472541,2024-11-21T15:21:12.541Z,80679,0.2789189,0.6874812,-0.72925264
1732202472555,2024-11-21T15:21:12.555Z,80693,0.2628449,0.6909108,-0.7179197
1732202472559,2024-11-21T15:21:12.559Z,80697,0.2628449,0.6909108,-0.7179197
1732202472579,2024-11-21T15:21:12.579Z,80717,0.36067984,0.6931532,-0.7793726
1732202472587,2024-11-21T15:21:12.587Z,80725,0.36067984,0.6931532,-0.7793726
1732202472609,2024-11-21T15:21:12.609Z,80747,0.35075915,0.69570065,-0.8105088
1732202472616,2024-11-21T15:21:12.616Z,80754,0.35075915,0.69570065,-0.8105088
1732202472639,2024-11-21T15:21:12.639Z,80777,0.30674896,0.6879701,-0.8684584
1732202472646,2024-11-21T15:21:12.646Z,80784,0.30674896,0.6879701,-0.8684584
1732202472673,2024-11-21T15:21:12.673Z,80811,0.3269553,0.6930045,-0.76135004
1732202472680,2024-11-21T15:21:12.680Z,80818,0.3269553,0.6930045,-0.76135004
1732202472704,2024-11-21T15:21:12.704Z,80842,0.2898875,0.72467995,-0.8205015
1732202472714,2024-11-21T15:21:12.714Z,80852,0.2898875,0.72467995,-0.8205015
1732202472736,2024-11-21T15:21:12.736Z,80874,0.26670876,0.7380851,-0.86445475
1732202472742,2024-11-21T15:21:12.742Z,80880,0.26670876,0.7380851,-0.86445475
1732202472762,2024-11-21T15:21:12.762Z,80900,0.3419789,0.73057085,-0.8637396
1732202472769,2024-11-21T15:21:12.769Z,80907,0.3419789,0.73057085,-0.8637396
1732202472782,2024-11-21T15:21:12.782Z,80920,0.3404221,0.7229264,-0.84494317
1732202472786,2024-11-21T15:21:12.786Z,80924,0.3404221,0.7229264,-0.84494317
1732202472798,2024-11-21T15:21:12.798Z,80936,0.29250988,0.7081862,-0.81935865
1732202472802,2024-11-21T15:21:12.802Z,80940,0.29250988,0.7081862,-0.81935865
1732202472814,2024-11-21T15:21:12.814Z,80952,0.36385602,0.7343157,-0.815533
1732202472818,2024-11-21T15:21:12.818Z,80956,0.36385602,0.7343157,-0.815533
1732202472828,2024-11-21T15:21:12.828Z,80966,0.34940833,0.7445264,-0.80970466
1732202472832,2024-11-21T15:21:12.832Z,80970,0.34940833,0.7445264,-0.80970466
1732202472841,2024-11-21T15:21:12.841Z,80979,0.2901513,0.7348099,-0.8302346
1732202472844,2024-11-21T15:21:12.844Z,80982,0.2901513,0.7348099,-0.8302346
1732202472854,2024-11-21T15:21:12.854Z,80992,0.2371423,0.6831817,-0.8716301
1732202472857,2024-11-21T15:21:12.857Z,80995,0.2371423,0.6831817,-0.8716301
1732202472866,2024-11-21T15:21:12.866Z,81004,0.30094218,0.690155,-0.8674902
1732202472869,2024-11-21T15:21:12.869Z,81007,0.30094218,0.690155,-0.8674902
1732202472877,2024-11-21T15:21:12.877Z,81015,0.35194668,0.7152326,-0.86872786
1732202472881,2024-11-21T15:21:12.881Z,81019,0.35194668,0.7152326,-0.86872786
1732202472888,2024-11-21T15:21:12.888Z,81026,0.28025982,0.6574379,-0.8031085
1732202472891,2024-11-21T15:21:12.891Z,81029,0.28025982,0.6574379,-0.8031085
1732202472899,2024-11-21T15:21:12.899Z,81037,0.26071927,0.6760417,-0.76712996
1732202472901,2024-11-21T15:21:12.901Z,81039,0.26071927,0.6760417,-0.76712996
1732202472909,2024-11-21T15:21:12.909Z,81047,0.2644476,0.69025147,-0.7912132
1732202472912,2024-11-21T15:21:12.912Z,81050,0.2644476,0.69025147,-0.7912132
1732202472919,2024-11-21T15:21:12.919Z,81057,0.2949266,0.68636006,-0.77267444
1732202472921,2024-11-21T15:21:12.921Z,81059,0.2949266,0.68636006,-0.77267444
1732202472929,2024-11-21T15:21:12.929Z,81067,0.26713192,0.6906841,-0.7815362
1732202472932,2024-11-21T15:21:12.932Z,81070,0.26713192,0.6906841,-0.7815362
1732202472954,2024-11-21T15:21:12.954Z,81092,0.23550594,0.66489756,-0.89237165
1732202472960,2024-11-21T15:21:12.960Z,81098,0.23550594,0.66489756,-0.89237165
1732202472979,2024-11-21T15:21:12.979Z,81117,0.2720944,0.69755507,-0.9175285
1732202472982,2024-11-21T15:21:12.982Z,81120,0.2720944,0.69755507,-0.9175285
1732202472992,2024-11-21T15:21:12.992Z,81130,0.2990133,0.7200245,-0.91403127
1732202472996,2024-11-21T15:21:12.996Z,81134,0.2990133,0.7200245,-0.91403127
1732202473007,2024-11-21T15:21:13.007Z,81145,0.28031427,0.64465415,-0.8428764
1732202473010,2024-11-21T15:21:13.010Z,81148,0.28031427,0.64465415,-0.8428764
1732202473021,2024-11-21T15:21:13.021Z,81159,0.23017025,0.69655097,-0.8687466
1732202473024,2024-11-21T15:21:13.024Z,81162,0.23017025,0.69655097,-0.8687466
1732202473033,2024-11-21T15:21:13.033Z,81171,0.27404445,0.6748723,-0.8768737
1732202473035,2024-11-21T15:21:13.035Z,81173,0.27404445,0.6748723,-0.8768737
1732202473044,2024-11-21T15:21:13.044Z,81182,0.27625465,0.679904,-0.86482996
1732202473047,2024-11-21T15:21:13.047Z,81185,0.27625465,0.679904,-0.86482996
1732202473055,2024-11-21T15:21:13.055Z,81193,0.25249863,0.66281205,-0.857023
1732202473057,2024-11-21T15:21:13.057Z,81195,0.25249863,0.66281205,-0.857023
1732202473065,2024-11-21T15:21:13.065Z,81203,0.26940367,0.668353,-0.86328703
1732202473067,2024-11-21T15:21:13.067Z,81205,0.26940367,0.668353,-0.86328703
1732202473089,2024-11-21T15:21:13.089Z,81227,0.2771583,0.66313195,-0.8164807
1732202473092,2024-11-21T15:21:13.092Z,81230,0.2771583,0.66313195,-0.8164807
1732202473101,2024-11-21T15:21:13.101Z,81239,0.29010114,0.6567972,-0.8221978
1732202473104,2024-11-21T15:21:13.104Z,81242,0.29010114,0.6567972,-0.8221978
1732202473112,2024-11-21T15:21:13.112Z,81250,0.30709234,0.6822105,-0.8385086
1732202473115,2024-11-21T15:21:13.115Z,81253,0.30709234,0.6822105,-0.8385086
1732202473134,2024-11-21T15:21:13.134Z,81272,0.24818219,0.64813405,-0.8507774
1732202473137,2024-11-21T15:21:13.137Z,81275,0.24818219,0.64813405,-0.8507774
1732202473147,2024-11-21T15:21:13.147Z,81285,0.2567589,0.6539648,-0.84359884
1732202473149,2024-11-21T15:21:13.149Z,81287,0.2567589,0.6539648,-0.84359884
1732202473178,2024-11-21T15:21:13.178Z,81316,0.2559555,0.66519487,-0.86474884
1732202473181,2024-11-21T15:21:13.181Z,81319,0.2559555,0.66519487,-0.86474884
1732202473189,2024-11-21T15:21:13.189Z,81327,0.23383522,0.6661223,-0.9068786
1732202473193,2024-11-21T15:21:13.193Z,81331,0.23383522,0.6661223,-0.9068786
1732202473202,2024-11-21T15:21:13.202Z,81340,0.27289206,0.6548918,-0.88588464
1732202473205,2024-11-21T15:21:13.205Z,81343,0.27289206,0.6548918,-0.88588464
1732202473214,2024-11-21T15:21:13.214Z,81352,0.30043426,0.6364478,-0.8385602
1732202473217,2024-11-21T15:21:13.217Z,81355,0.30043426,0.6364478,-0.8385602
1732202473228,2024-11-21T15:21:13.228Z,81366,0.28995433,0.62558466,-0.7950609
1732202473234,2024-11-21T15:21:13.234Z,81372,0.28995433,0.62558466,-0.7950609
1732202473246,2024-11-21T15:21:13.246Z,81384,0.24094164,0.6467537,-0.779476
1732202473248,2024-11-21T15:21:13.248Z,81386,0.24094164,0.6467537,-0.779476
1732202473256,2024-11-21T15:21:13.256Z,81394,0.22257952,0.6465455,-0.8446655
1732202473258,2024-11-21T15:21:13.258Z,81396,0.22257952,0.6465455,-0.8446655
1732202473268,2024-11-21T15:21:13.268Z,81406,0.23668183,0.6217879,-0.90656227
1732202473270,2024-11-21T15:21:13.270Z,81408,0.23668183,0.6217879,-0.90656227
1732202473278,2024-11-21T15:21:13.278Z,81416,0.3425628,0.64993185,-0.8853438
1732202473280,2024-11-21T15:21:13.280Z,81418,0.3425628,0.64993185,-0.8853438
1732202473287,2024-11-21T15:21:13.287Z,81425,0.3511822,0.67645025,-0.88766754
1732202473290,2024-11-21T15:21:13.290Z,81428,0.3511822,0.67645025,-0.88766754
1732202473312,2024-11-21T15:21:13.312Z,81450,0.29333627,0.671761,-0.84622735
1732202473314,2024-11-21T15:21:13.314Z,81452,0.29333627,0.671761,-0.84622735
1732202473323,2024-11-21T15:21:13.323Z,81461,0.2331122,0.59710425,-0.80719393
1732202473327,2024-11-21T15:21:13.327Z,81465,0.2331122,0.59710425,-0.80719393
1732202473336,2024-11-21T15:21:13.336Z,81474,0.2615327,0.6563246,-0.8371787
1732202473339,2024-11-21T15:21:13.339Z,81477,0.2615327,0.6563246,-0.8371787
1732202473348,2024-11-21T15:21:13.348Z,81486,0.26239023,0.67248535,-0.87005615
1732202473350,2024-11-21T15:21:13.350Z,81488,0.26239023,0.67248535,-0.87005615
1732202473359,2024-11-21T15:21:13.359Z,81497,0.32807377,0.67932093,-0.9056607
1732202473362,2024-11-21T15:21:13.362Z,81500,0.32807377,0.67932093,-0.9056607
1732202473369,2024-11-21T15:21:13.369Z,81507,0.38952667,0.6943583,-0.8816963
1732202473372,2024-11-21T15:21:13.372Z,81510,0.38952667,0.6943583,-0.8816963
1732202473380,2024-11-21T15:21:13.380Z,81518,0.36665022,0.65193456,-0.83469045
1732202473383,2024-11-21T15:21:13.383Z,81521,0.36665022,0.65193456,-0.83469045
1732202473402,2024-11-21T15:21:13.402Z,81540,0.22461924,0.6377166,-0.8379574
1732202473404,2024-11-21T15:21:13.404Z,81542,0.22461924,0.6377166,-0.8379574
1732202473413,2024-11-21T15:21:13.413Z,81551,0.18570317,0.6687028,-0.854467
1732202473415,2024-11-21T15:21:13.415Z,81553,0.18570317,0.6687028,-0.854467
1732202473446,2024-11-21T15:21:13.446Z,81584,0.22375233,0.66491354,-0.84456944
1732202473448,2024-11-21T15:21:13.448Z,81586,0.22375233,0.66491354,-0.84456944
1732202473457,2024-11-21T15:21:13.457Z,81595,0.35247654,0.65536654,-0.8489709
1732202473460,2024-11-21T15:21:13.460Z,81598,0.35247654,0.65536654,-0.8489709
1732202473468,2024-11-21T15:21:13.468Z,81606,0.27734226,0.6324144,-0.8440558
1732202473470,2024-11-21T15:21:13.470Z,81608,0.27734226,0.6324144,-0.8440558
1732202473497,2024-11-21T15:21:13.497Z,81635,0.27675635,0.59915006,-0.8524891
1732202473505,2024-11-21T15:21:13.505Z,81643,0.27675635,0.59915006,-0.8524891
1732202473531,2024-11-21T15:21:13.531Z,81669,0.34756726,0.6682723,-0.86335033
1732202473539,2024-11-21T15:21:13.539Z,81677,0.34756726,0.6682723,-0.86335033
1732202473561,2024-11-21T15:21:13.561Z,81699,0.36795074,0.68508875,-0.85300416
1732202473568,2024-11-21T15:21:13.568Z,81706,0.36795074,0.68508875,-0.85300416
1732202473584,2024-11-21T15:21:13.584Z,81722,0.3481278,0.6783818,-0.82113063
1732202473588,2024-11-21T15:21:13.588Z,81726,0.3481278,0.6783818,-0.82113063
1732202473601,2024-11-21T15:21:13.601Z,81739,0.2775322,0.66533345,-0.80181503
1732202473605,2024-11-21T15:21:13.605Z,81743,0.2775322,0.66533345,-0.80181503
1732202473617,2024-11-21T15:21:13.617Z,81755,0.25783092,0.66848594,-0.8573194
1732202473621,2024-11-21T15:21:13.621Z,81759,0.25783092,0.66848594,-0.8573194
1732202473632,2024-11-21T15:21:13.632Z,81770,0.24184473,0.69468534,-0.9322149
1732202473635,2024-11-21T15:21:13.635Z,81773,0.24184473,0.69468534,-0.9322149
1732202473645,2024-11-21T15:21:13.645Z,81783,0.3534859,0.7186342,-0.9009704
1732202473648,2024-11-21T15:21:13.648Z,81786,0.3534859,0.7186342,-0.9009704
1732202473656,2024-11-21T15:21:13.656Z,81794,0.34882265,0.672552,-0.85528344
1732202473659,2024-11-21T15:21:13.659Z,81797,0.34882265,0.672552,-0.85528344
1732202473669,2024-11-21T15:21:13.669Z,81807,0.3066529,0.64817333,-0.82140446
1732202473671,2024-11-21T15:21:13.671Z,81809,0.3066529,0.64817333,-0.82140446
1732202473681,2024-11-21T15:21:13.681Z,81819,0.30225056,0.65259653,-0.8801031
1732202473684,2024-11-21T15:21:13.684Z,81822,0.30225056,0.65259653,-0.8801031
1732202473716,2024-11-21T15:21:13.716Z,81854,0.3255542,0.6542534,-0.8721112
1732202473719,2024-11-21T15:21:13.719Z,81857,0.3255542,0.6542534,-0.8721112
1732202473729,2024-11-21T15:21:13.729Z,81867,0.3507278,0.6746059,-0.83418876
1732202473733,2024-11-21T15:21:13.733Z,81871,0.3507278,0.6746059,-0.83418876
1732202473746,2024-11-21T15:21:13.746Z,81884,0.31433785,0.6609034,-0.88989884
1732202473753,2024-11-21T15:21:13.753Z,81891,0.31433785,0.6609034,-0.88989884
1732202473777,2024-11-21T15:21:13.777Z,81915,0.20173322,0.6579773,-0.90858966
1732202473784,2024-11-21T15:21:13.784Z,81922,0.20173322,0.6579773,-0.90858966
1732202473808,2024-11-21T15:21:13.808Z,81946,0.181904,0.64165163,-0.89711404
1732202473814,2024-11-21T15:21:13.814Z,81952,0.181904,0.64165163,-0.89711404
1732202473836,2024-11-21T15:21:13.836Z,81974,0.2544687,0.69092005,-0.8362927
1732202473841,2024-11-21T15:21:13.841Z,81979,0.2544687,0.69092005,-0.8362927
1732202473857,2024-11-21T15:21:13.857Z,81995,0.25646633,0.7033374,-0.8196344
1732202473861,2024-11-21T15:21:13.861Z,81999,0.25646633,0.7033374,-0.8196344
1732202473874,2024-11-21T15:21:13.874Z,82012,0.3600816,0.6721831,-0.8777447
1732202473877,2024-11-21T15:21:13.877Z,82015,0.3600816,0.6721831,-0.8777447
1732202473889,2024-11-21T15:21:13.889Z,82027,0.24548447,0.6773954,-0.8579072
1732202473892,2024-11-21T15:21:13.892Z,82030,0.24548447,0.6773954,-0.8579072
1732202473906,2024-11-21T15:21:13.906Z,82044,0.29861522,0.6878975,-0.8232045
1732202473909,2024-11-21T15:21:13.909Z,82047,0.29861522,0.6878975,-0.8232045
1732202473919,2024-11-21T15:21:13.919Z,82057,0.27510786,0.67155254,-0.8775587
1732202473922,2024-11-21T15:21:13.922Z,82060,0.27510786,0.67155254,-0.8775587
1732202473932,2024-11-21T15:21:13.932Z,82070,0.26893282,0.6768192,-0.88486457
1732202473935,2024-11-21T15:21:13.935Z,82073,0.26893282,0.6768192,-0.88486457
1732202473945,2024-11-21T15:21:13.945Z,82083,0.29536644,0.72028714,-0.84782124
1732202473948,2024-11-21T15:21:13.948Z,82086,0.29536644,0.72028714,-0.84782124
1732202473957,2024-11-21T15:21:13.957Z,82095,0.30068076,0.6660002,-0.8369823
1732202473961,2024-11-21T15:21:13.961Z,82099,0.30068076,0.6660002,-0.8369823
1732202473970,2024-11-21T15:21:13.970Z,82108,0.31231767,0.63170916,-0.8359177
1732202473975,2024-11-21T15:21:13.975Z,82113,0.31231767,0.63170916,-0.8359177
1732202473985,2024-11-21T15:21:13.985Z,82123,0.3135171,0.68742543,-0.8389838
1732202473987,2024-11-21T15:21:13.987Z,82125,0.3135171,0.68742543,-0.8389838
1732202473994,2024-11-21T15:21:13.994Z,82132,0.26212543,0.6568018,-0.86418414
1732202473997,2024-11-21T15:21:13.997Z,82135,0.26212543,0.6568018,-0.86418414
1732202474005,2024-11-21T15:21:14.005Z,82143,0.26313254,0.65866774,-0.8692879
1732202474009,2024-11-21T15:21:14.009Z,82147,0.26313254,0.65866774,-0.8692879
1732202474033,2024-11-21T15:21:14.033Z,82171,0.23025022,0.6777664,-0.86984736
1732202474035,2024-11-21T15:21:14.035Z,82173,0.23025022,0.6777664,-0.86984736
1732202474043,2024-11-21T15:21:14.043Z,82181,0.21727328,0.6881962,-0.8960826
1732202474046,2024-11-21T15:21:14.046Z,82184,0.21727328,0.6881962,-0.8960826
1732202474054,2024-11-21T15:21:14.054Z,82192,0.31025213,0.717267,-0.90579146
1732202474056,2024-11-21T15:21:14.056Z,82194,0.31025213,0.717267,-0.90579146
1732202474078,2024-11-21T15:21:14.078Z,82216,0.2930467,0.62214833,-0.84562886
1732202474081,2024-11-21T15:21:14.081Z,82219,0.2930467,0.62214833,-0.84562886
1732202474089,2024-11-21T15:21:14.089Z,82227,0.26463765,0.64802045,-0.8236375
1732202474092,2024-11-21T15:21:14.092Z,82230,0.26463765,0.64802045,-0.8236375
1732202474100,2024-11-21T15:21:14.100Z,82238,0.24969634,0.65816545,-0.84798074
1732202474102,2024-11-21T15:21:14.102Z,82240,0.24969634,0.65816545,-0.84798074
1732202474122,2024-11-21T15:21:14.122Z,82260,0.29778865,0.7137704,-0.89490587
1732202474125,2024-11-21T15:21:14.125Z,82263,0.29778865,0.7137704,-0.89490587
1732202474135,2024-11-21T15:21:14.135Z,82273,0.23232824,0.6497902,-0.8900385
1732202474138,2024-11-21T15:21:14.138Z,82276,0.23232824,0.6497902,-0.8900385
1732202474146,2024-11-21T15:21:14.146Z,82284,0.27983487,0.6839955,-0.86934185
1732202474149,2024-11-21T15:21:14.149Z,82287,0.27983487,0.6839955,-0.86934185
1732202474169,2024-11-21T15:21:14.169Z,82307,0.27453634,0.70189124,-0.88731784
1732202474172,2024-11-21T15:21:14.172Z,82310,0.27453634,0.70189124,-0.88731784
1732202474181,2024-11-21T15:21:14.181Z,82319,0.327129,0.6786618,-0.87127167
1732202474184,2024-11-21T15:21:14.184Z,82322,0.327129,0.6786618,-0.87127167
1732202474193,2024-11-21T15:21:14.193Z,82331,0.36584786,0.6667774,-0.84307265
1732202474196,2024-11-21T15:21:14.196Z,82334,0.36584786,0.6667774,-0.84307265
1732202474213,2024-11-21T15:21:14.213Z,82351,0.25992215,0.71956843,-0.83721334
1732202474216,2024-11-21T15:21:14.216Z,82354,0.25992215,0.71956843,-0.83721334
1732202474224,2024-11-21T15:21:14.224Z,82362,0.24475254,0.70754564,-0.8519358
1732202474227,2024-11-21T15:21:14.227Z,82365,0.24475254,0.70754564,-0.8519358
1732202474235,2024-11-21T15:21:14.235Z,82373,0.2509321,0.71517426,-0.86163616
1732202474237,2024-11-21T15:21:14.237Z,82375,0.2509321,0.71517426,-0.86163616
1732202474259,2024-11-21T15:21:14.259Z,82397,0.29766926,0.7345432,-0.8982152
1732202474263,2024-11-21T15:21:14.263Z,82401,0.29766926,0.7345432,-0.8982152
1732202474272,2024-11-21T15:21:14.272Z,82410,0.27331945,0.724997,-0.89093035
1732202474275,2024-11-21T15:21:14.275Z,82413,0.27331945,0.724997,-0.89093035
1732202474347,2024-11-21T15:21:14.347Z,82485,0.2666169,0.7366814,-0.8705733
1732202474350,2024-11-21T15:21:14.350Z,82488,0.2666169,0.7366814,-0.8705733
1732202474358,2024-11-21T15:21:14.358Z,82496,0.35823694,0.73074585,-0.8298398
1732202474361,2024-11-21T15:21:14.361Z,82499,0.35823694,0.73074585,-0.8298398
1732202474368,2024-11-21T15:21:14.368Z,82506,0.37532678,0.7073029,-0.8160606
1732202474371,2024-11-21T15:21:14.371Z,82509,0.37532678,0.7073029,-0.8160606
1732202474396,2024-11-21T15:21:14.396Z,82534,0.32913485,0.69566554,-0.81722826
1732202474402,2024-11-21T15:21:14.402Z,82540,0.32913485,0.69566554,-0.81722826
1732202474441,2024-11-21T15:21:14.441Z,82579,0.2974727,0.8152664,-0.9162241
1732202474448,2024-11-21T15:21:14.448Z,82586,0.2974727,0.8152664,-0.9162241
1732202474468,2024-11-21T15:21:14.468Z,82606,0.26825428,0.77198225,-0.9252173
1732202474474,2024-11-21T15:21:14.474Z,82612,0.26825428,0.77198225,-0.9252173
1732202474487,2024-11-21T15:21:14.487Z,82625,0.28202266,0.72289836,-0.90710413
1732202474491,2024-11-21T15:21:14.491Z,82629,0.28202266,0.72289836,-0.90710413
1732202474504,2024-11-21T15:21:14.504Z,82642,0.3349701,0.745045,-0.8886112
1732202474507,2024-11-21T15:21:14.507Z,82645,0.3349701,0.745045,-0.8886112
1732202474522,2024-11-21T15:21:14.522Z,82660,0.3593882,0.7011433,-0.88180476
1732202474529,2024-11-21T15:21:14.529Z,82667,0.3593882,0.7011433,-0.88180476
1732202474549,2024-11-21T15:21:14.549Z,82687,0.3442029,0.7185166,-0.8338876
1732202474554,2024-11-21T15:21:14.554Z,82692,0.3442029,0.7185166,-0.8338876
1732202474569,2024-11-21T15:21:14.569Z,82707,0.30828664,0.73159266,-0.8182449
1732202474572,2024-11-21T15:21:14.572Z,82710,0.30828664,0.73159266,-0.8182449
1732202474584,2024-11-21T15:21:14.584Z,82722,0.3532924,0.6503781,-0.844738
1732202474588,2024-11-21T15:21:14.588Z,82726,0.3532924,0.6503781,-0.844738
1732202474599,2024-11-21T15:21:14.599Z,82737,0.32209066,0.6484851,-0.83131516
1732202474602,2024-11-21T15:21:14.602Z,82740,0.32209066,0.6484851,-0.83131516
1732202474613,2024-11-21T15:21:14.613Z,82751,0.29356477,0.673798,-0.82517815
1732202474616,2024-11-21T15:21:14.616Z,82754,0.29356477,0.673798,-0.82517815
1732202474625,2024-11-21T15:21:14.625Z,82763,0.3101936,0.6413933,-0.8115686
1732202474628,2024-11-21T15:21:14.628Z,82766,0.3101936,0.6413933,-0.8115686
1732202474637,2024-11-21T15:21:14.637Z,82775,0.34838757,0.6127455,-0.8131572
1732202474640,2024-11-21T15:21:14.640Z,82778,0.34838757,0.6127455,-0.8131572
1732202474649,2024-11-21T15:21:14.649Z,82787,0.328576,0.60190004,-0.8482986
1732202474652,2024-11-21T15:21:14.652Z,82790,0.328576,0.60190004,-0.8482986
1732202474660,2024-11-21T15:21:14.660Z,82798,0.26604837,0.62109566,-0.9067728
1732202474664,2024-11-21T15:21:14.664Z,82802,0.26604837,0.62109566,-0.9067728
1732202474677,2024-11-21T15:21:14.677Z,82815,0.2707428,0.64640856,-0.9321416
1732202474682,2024-11-21T15:21:14.682Z,82820,0.2707428,0.64640856,-0.9321416
1732202474691,2024-11-21T15:21:14.691Z,82829,0.29188752,0.68299675,-0.90333354
1732202474693,2024-11-21T15:21:14.693Z,82831,0.29188752,0.68299675,-0.90333354
1732202474702,2024-11-21T15:21:14.702Z,82840,0.33554476,0.5757525,-0.7978227
1732202474704,2024-11-21T15:21:14.704Z,82842,0.33554476,0.5757525,-0.7978227
1732202474712,2024-11-21T15:21:14.712Z,82850,0.27433482,0.5372426,-0.77966136
1732202474715,2024-11-21T15:21:14.715Z,82853,0.27433482,0.5372426,-0.77966136
1732202474723,2024-11-21T15:21:14.723Z,82861,0.28166467,0.54836214,-0.8259856
1732202474725,2024-11-21T15:21:14.725Z,82863,0.28166467,0.54836214,-0.8259856
1732202474755,2024-11-21T15:21:14.755Z,82893,0.29541478,0.6704632,-0.86843705
1732202474758,2024-11-21T15:21:14.758Z,82896,0.29541478,0.6704632,-0.86843705
1732202474767,2024-11-21T15:21:14.767Z,82905,0.2817618,0.6536139,-0.9002582
1732202474770,2024-11-21T15:21:14.770Z,82908,0.2817618,0.6536139,-0.9002582
1732202474778,2024-11-21T15:21:14.778Z,82916,0.27041322,0.6238012,-0.8801242
1732202474781,2024-11-21T15:21:14.781Z,82919,0.27041322,0.6238012,-0.8801242
1732202474797,2024-11-21T15:21:14.797Z,82935,0.3305554,0.59672725,-0.8295629
1732202474801,2024-11-21T15:21:14.801Z,82939,0.3305554,0.59672725,-0.8295629
1732202474809,2024-11-21T15:21:14.809Z,82947,0.28888047,0.58413285,-0.80682755
1732202474812,2024-11-21T15:21:14.812Z,82950,0.28888047,0.58413285,-0.80682755
1732202474820,2024-11-21T15:21:14.820Z,82958,0.27764997,0.53649443,-0.8314728
1732202474822,2024-11-21T15:21:14.822Z,82960,0.27764997,0.53649443,-0.8314728
1732202474830,2024-11-21T15:21:14.830Z,82968,0.318621,0.5382935,-0.8338196
1732202474833,2024-11-21T15:21:14.833Z,82971,0.318621,0.5382935,-0.8338196
1732202474844,2024-11-21T15:21:14.844Z,82982,0.24630123,0.586712,-0.93834746
1732202474847,2024-11-21T15:21:14.847Z,82985,0.24630123,0.586712,-0.93834746
1732202474855,2024-11-21T15:21:14.855Z,82993,0.3548519,0.52681583,-0.87358576
1732202474857,2024-11-21T15:21:14.857Z,82995,0.3548519,0.52681583,-0.87358576
1732202474864,2024-11-21T15:21:14.864Z,83002,0.4450987,0.5334399,-0.8269823
1732202474867,2024-11-21T15:21:14.867Z,83005,0.4450987,0.5334399,-0.8269823
1732202474888,2024-11-21T15:21:14.888Z,83026,0.22874676,0.60454595,-0.7817245
1732202474890,2024-11-21T15:21:14.890Z,83028,0.22874676,0.60454595,-0.7817245
1732202474935,2024-11-21T15:21:14.935Z,83073,0.20114142,0.63231087,-0.7844341
1732202474938,2024-11-21T15:21:14.938Z,83076,0.20114142,0.63231087,-0.7844341
1732202474947,2024-11-21T15:21:14.947Z,83085,0.21964622,0.6278199,-0.8333039
1732202474950,2024-11-21T15:21:14.950Z,83088,0.21964622,0.6278199,-0.8333039
1732202474960,2024-11-21T15:21:14.960Z,83098,0.42628536,0.54422146,-0.82791626
1732202474963,2024-11-21T15:21:14.963Z,83101,0.42628536,0.54422146,-0.82791626
1732202474979,2024-11-21T15:21:14.979Z,83117,0.39100724,0.5140769,-0.8146839
1732202474982,2024-11-21T15:21:14.982Z,83120,0.39100724,0.5140769,-0.8146839
1732202474991,2024-11-21T15:21:14.991Z,83129,0.3083733,0.5196024,-0.8405193
1732202474994,2024-11-21T15:21:14.994Z,83132,0.3083733,0.5196024,-0.8405193
1732202475003,2024-11-21T15:21:15.003Z,83141,0.29870322,0.56831086,-0.78914607
1732202475006,2024-11-21T15:21:15.006Z,83144,0.29870322,0.56831086,-0.78914607
1732202475026,2024-11-21T15:21:15.026Z,83164,0.2651062,0.5597584,-0.81475306
1732202475029,2024-11-21T15:21:15.029Z,83167,0.2651062,0.5597584,-0.81475306
1732202475038,2024-11-21T15:21:15.038Z,83176,0.37013686,0.57074237,-0.81138927
1732202475041,2024-11-21T15:21:15.041Z,83179,0.37013686,0.57074237,-0.81138927
1732202475051,2024-11-21T15:21:15.051Z,83189,0.40740898,0.4897417,-0.75966406
1732202475053,2024-11-21T15:21:15.053Z,83191,0.40740898,0.4897417,-0.75966406
1732202475072,2024-11-21T15:21:15.072Z,83210,0.20766951,0.50834763,-0.71977246
1732202475079,2024-11-21T15:21:15.079Z,83217,0.20766951,0.50834763,-0.71977246
1732202475095,2024-11-21T15:21:15.095Z,83233,0.19143091,0.5884647,-0.8012134
1732202475098,2024-11-21T15:21:15.098Z,83236,0.19143091,0.5884647,-0.8012134
1732202475109,2024-11-21T15:21:15.109Z,83247,0.2480078,0.64668036,-0.8567309
1732202475113,2024-11-21T15:21:15.113Z,83251,0.2480078,0.64668036,-0.8567309
1732202475123,2024-11-21T15:21:15.123Z,83261,0.3778604,0.5867341,-0.8451532
1732202475126,2024-11-21T15:21:15.126Z,83264,0.3778604,0.5867341,-0.8451532
1732202475137,2024-11-21T15:21:15.137Z,83275,0.38798788,0.48535895,-0.79959595
1732202475140,2024-11-21T15:21:15.140Z,83278,0.38798788,0.48535895,-0.79959595
1732202475150,2024-11-21T15:21:15.150Z,83288,0.29645166,0.55840325,-0.7555746
1732202475153,2024-11-21T15:21:15.153Z,83291,0.29645166,0.55840325,-0.7555746
1732202475162,2024-11-21T15:21:15.162Z,83300,0.30380705,0.5926362,-0.71096265
1732202475164,2024-11-21T15:21:15.164Z,83302,0.30380705,0.5926362,-0.71096265
1732202475172,2024-11-21T15:21:15.172Z,83310,0.3478953,0.6325073,-0.72570544
1732202475175,2024-11-21T15:21:15.175Z,83313,0.3478953,0.6325073,-0.72570544
1732202475182,2024-11-21T15:21:15.182Z,83320,0.30012435,0.6332305,-0.77961946
1732202475184,2024-11-21T15:21:15.184Z,83322,0.30012435,0.6332305,-0.77961946
1732202475201,2024-11-21T15:21:15.201Z,83339,0.268403,0.6469025,-0.8545388
1732202475203,2024-11-21T15:21:15.203Z,83341,0.268403,0.6469025,-0.8545388
1732202475213,2024-11-21T15:21:15.213Z,83351,0.452616,0.7176205,-0.7636455
1732202475219,2024-11-21T15:21:15.219Z,83357,0.452616,0.7176205,-0.7636455
1732202475237,2024-11-21T15:21:15.237Z,83375,0.38507816,0.6997227,-0.72275805
1732202475242,2024-11-21T15:21:15.242Z,83380,0.38507816,0.6997227,-0.72275805
1732202475259,2024-11-21T15:21:15.259Z,83397,0.3189192,0.66366184,-0.707167
1732202475265,2024-11-21T15:21:15.265Z,83403,0.3189192,0.66366184,-0.707167
1732202475278,2024-11-21T15:21:15.278Z,83416,0.37768877,0.7305498,-0.75184894
1732202475281,2024-11-21T15:21:15.281Z,83419,0.37768877,0.7305498,-0.75184894
1732202475290,2024-11-21T15:21:15.290Z,83428,0.37736654,0.7329654,-0.77224654
1732202475294,2024-11-21T15:21:15.294Z,83432,0.37736654,0.7329654,-0.77224654
1732202475304,2024-11-21T15:21:15.304Z,83442,0.3885158,0.72985315,-0.7798622
1732202475308,2024-11-21T15:21:15.308Z,83446,0.3885158,0.72985315,-0.7798622
1732202475320,2024-11-21T15:21:15.320Z,83458,0.40045115,0.67011243,-0.7903982
1732202475323,2024-11-21T15:21:15.323Z,83461,0.40045115,0.67011243,-0.7903982
1732202475333,2024-11-21T15:21:15.333Z,83471,0.36020815,0.654273,-0.7917787
1732202475336,2024-11-21T15:21:15.336Z,83474,0.36020815,0.654273,-0.7917787
1732202475348,2024-11-21T15:21:15.348Z,83486,0.3208763,0.66746193,-0.78585184
1732202475351,2024-11-21T15:21:15.351Z,83489,0.3208763,0.66746193,-0.78585184
1732202475361,2024-11-21T15:21:15.361Z,83499,0.4189277,0.69934195,-0.712322
1732202475367,2024-11-21T15:21:15.367Z,83505,0.4189277,0.69934195,-0.712322
1732202475376,2024-11-21T15:21:15.376Z,83514,0.46945736,0.712005,-0.6818187
1732202475379,2024-11-21T15:21:15.379Z,83517,0.46945736,0.712005,-0.6818187
1732202475387,2024-11-21T15:21:15.387Z,83525,0.41841015,0.67819065,-0.7118819
1732202475389,2024-11-21T15:21:15.389Z,83527,0.41841015,0.67819065,-0.7118819
1732202475399,2024-11-21T15:21:15.399Z,83537,0.38525912,0.6893818,-0.7762476
1732202475402,2024-11-21T15:21:15.402Z,83540,0.38525912,0.6893818,-0.7762476
1732202475408,2024-11-21T15:21:15.408Z,83546,0.4110924,0.67808646,-0.76607335
1732202475410,2024-11-21T15:21:15.410Z,83548,0.4110924,0.67808646,-0.76607335
1732202475480,2024-11-21T15:21:15.480Z,83618,0.3682078,0.6686872,-0.735262
1732202475487,2024-11-21T15:21:15.487Z,83625,0.3682078,0.6686872,-0.735262
1732202475514,2024-11-21T15:21:15.514Z,83652,0.35662922,0.6959034,-0.6537787
1732202475520,2024-11-21T15:21:15.520Z,83658,0.35662922,0.6959034,-0.6537787
1732202475540,2024-11-21T15:21:15.540Z,83678,0.39192078,0.6802179,-0.6487145
1732202475547,2024-11-21T15:21:15.547Z,83685,0.39192078,0.6802179,-0.6487145
1732202475567,2024-11-21T15:21:15.567Z,83705,0.3993289,0.6661134,-0.65745497
1732202475570,2024-11-21T15:21:15.570Z,83708,0.3993289,0.6661134,-0.65745497
1732202475584,2024-11-21T15:21:15.584Z,83722,0.41457984,0.7028962,-0.6799344
1732202475590,2024-11-21T15:21:15.590Z,83728,0.41457984,0.7028962,-0.6799344
1732202475613,2024-11-21T15:21:15.613Z,83751,0.41881767,0.70841867,-0.70086294
1732202475618,2024-11-21T15:21:15.618Z,83756,0.41881767,0.70841867,-0.70086294
1732202475638,2024-11-21T15:21:15.638Z,83776,0.4184309,0.67940474,-0.7236456
1732202475643,2024-11-21T15:21:15.643Z,83781,0.4184309,0.67940474,-0.7236456
1732202475662,2024-11-21T15:21:15.662Z,83800,0.4210081,0.632657,-0.71420753
1732202475668,2024-11-21T15:21:15.668Z,83806,0.4210081,0.632657,-0.71420753
1732202475682,2024-11-21T15:21:15.682Z,83820,0.41447064,0.62111825,-0.7201502
1732202475685,2024-11-21T15:21:15.685Z,83823,0.41447064,0.62111825,-0.7201502
1732202475697,2024-11-21T15:21:15.697Z,83835,0.3451949,0.67677057,-0.74783033
1732202475701,2024-11-21T15:21:15.701Z,83839,0.3451949,0.67677057,-0.74783033
1732202475712,2024-11-21T15:21:15.712Z,83850,0.3792145,0.68172973,-0.73792934
1732202475715,2024-11-21T15:21:15.715Z,83853,0.3792145,0.68172973,-0.73792934
1732202475726,2024-11-21T15:21:15.726Z,83864,0.38543943,0.6392309,-0.7130702
1732202475729,2024-11-21T15:21:15.729Z,83867,0.38543943,0.6392309,-0.7130702
1732202475741,2024-11-21T15:21:15.741Z,83879,0.37743923,0.65583616,-0.71933675
1732202475744,2024-11-21T15:21:15.744Z,83882,0.37743923,0.65583616,-0.71933675
1732202475754,2024-11-21T15:21:15.754Z,83892,0.35757935,0.69373757,-0.7398857
1732202475757,2024-11-21T15:21:15.757Z,83895,0.35757935,0.69373757,-0.7398857
1732202475765,2024-11-21T15:21:15.765Z,83903,0.37630206,0.6991514,-0.75523937
1732202475768,2024-11-21T15:21:15.768Z,83906,0.37630206,0.6991514,-0.75523937
1732202475789,2024-11-21T15:21:15.789Z,83927,0.41171244,0.6992229,-0.7598438
1732202475796,2024-11-21T15:21:15.796Z,83934,0.41171244,0.6992229,-0.7598438
1732202475815,2024-11-21T15:21:15.815Z,83953,0.3819039,0.68435884,-0.7694505
1732202475821,2024-11-21T15:21:15.821Z,83959,0.3819039,0.68435884,-0.7694505
1732202475838,2024-11-21T15:21:15.838Z,83976,0.34704223,0.69034857,-0.71302336
1732202475841,2024-11-21T15:21:15.841Z,83979,0.34704223,0.69034857,-0.71302336
1732202475853,2024-11-21T15:21:15.853Z,83991,0.35614,0.66920394,-0.6610453
1732202475857,2024-11-21T15:21:15.857Z,83995,0.35614,0.66920394,-0.6610453
1732202475877,2024-11-21T15:21:15.877Z,84015,0.4201074,0.7213885,-0.73810357
1732202475882,2024-11-21T15:21:15.882Z,84020,0.4201074,0.7213885,-0.73810357
1732202475893,2024-11-21T15:21:15.893Z,84031,0.40852118,0.7053475,-0.7075331
1732202475897,2024-11-21T15:21:15.897Z,84035,0.40852118,0.7053475,-0.7075331
1732202475907,2024-11-21T15:21:15.907Z,84045,0.36417362,0.6759002,-0.70047796
1732202475910,2024-11-21T15:21:15.910Z,84048,0.36417362,0.6759002,-0.70047796
1732202475922,2024-11-21T15:21:15.922Z,84060,0.28717396,0.67659146,-0.72522134
1732202475925,2024-11-21T15:21:15.925Z,84063,0.28717396,0.67659146,-0.72522134
1732202475935,2024-11-21T15:21:15.935Z,84073,0.30261052,0.7173598,-0.7453573
1732202475937,2024-11-21T15:21:15.937Z,84075,0.30261052,0.7173598,-0.7453573
1732202475946,2024-11-21T15:21:15.946Z,84084,0.33713692,0.70173484,-0.770681
1732202475949,2024-11-21T15:21:15.949Z,84087,0.33713692,0.70173484,-0.770681
1732202475967,2024-11-21T15:21:15.967Z,84105,0.4053468,0.66386145,-0.7252579
1732202475969,2024-11-21T15:21:15.969Z,84107,0.4053468,0.66386145,-0.7252579
1732202475976,2024-11-21T15:21:15.976Z,84114,0.2836583,0.7069044,-0.76841193
1732202475979,2024-11-21T15:21:15.979Z,84117,0.2836583,0.7069044,-0.76841193
1732202475988,2024-11-21T15:21:15.988Z,84126,0.32188934,0.7142547,-0.8198607
1732202475991,2024-11-21T15:21:15.991Z,84129,0.32188934,0.7142547,-0.8198607
1732202476013,2024-11-21T15:21:16.013Z,84151,0.2924104,0.6548724,-0.7269555
1732202476016,2024-11-21T15:21:16.016Z,84154,0.2924104,0.6548724,-0.7269555
1732202476025,2024-11-21T15:21:16.025Z,84163,0.28131092,0.7029656,-0.73275703
1732202476027,2024-11-21T15:21:16.027Z,84165,0.28131092,0.7029656,-0.73275703
1732202476058,2024-11-21T15:21:16.058Z,84196,0.33053455,0.72188306,-0.71809834
1732202476060,2024-11-21T15:21:16.060Z,84198,0.33053455,0.72188306,-0.71809834
1732202476071,2024-11-21T15:21:16.071Z,84209,0.2973765,0.6873019,-0.76689696
1732202476074,2024-11-21T15:21:16.074Z,84212,0.2973765,0.6873019,-0.76689696
1732202476083,2024-11-21T15:21:16.083Z,84221,0.26889357,0.6868774,-0.8040072
1732202476086,2024-11-21T15:21:16.086Z,84224,0.26889357,0.6868774,-0.8040072
1732202476096,2024-11-21T15:21:16.096Z,84234,0.28339866,0.6944034,-0.799683
1732202476098,2024-11-21T15:21:16.098Z,84236,0.28339866,0.6944034,-0.799683
1732202476115,2024-11-21T15:21:16.115Z,84253,0.36935332,0.67090976,-0.7470302
1732202476118,2024-11-21T15:21:16.118Z,84256,0.36935332,0.67090976,-0.7470302
1732202476128,2024-11-21T15:21:16.128Z,84266,0.35804477,0.6488238,-0.7566311
1732202476132,2024-11-21T15:21:16.132Z,84270,0.35804477,0.6488238,-0.7566311
1732202476148,2024-11-21T15:21:16.148Z,84286,0.2923958,0.6729877,-0.76648587
1732202476151,2024-11-21T15:21:16.151Z,84289,0.2923958,0.6729877,-0.76648587
1732202476159,2024-11-21T15:21:16.159Z,84297,0.3577447,0.6945737,-0.73147017
1732202476161,2024-11-21T15:21:16.161Z,84299,0.3577447,0.6945737,-0.73147017
1732202476170,2024-11-21T15:21:16.170Z,84308,0.3734434,0.65750325,-0.71225935
1732202476172,2024-11-21T15:21:16.172Z,84310,0.3734434,0.65750325,-0.71225935
1732202476192,2024-11-21T15:21:16.192Z,84330,0.33505455,0.63473815,-0.7598011
1732202476196,2024-11-21T15:21:16.196Z,84334,0.33505455,0.63473815,-0.7598011
1732202476205,2024-11-21T15:21:16.205Z,84343,0.25713202,0.6715044,-0.8119893
1732202476208,2024-11-21T15:21:16.208Z,84346,0.25713202,0.6715044,-0.8119893
1732202476216,2024-11-21T15:21:16.216Z,84354,0.28758386,0.69310355,-0.8095546
1732202476219,2024-11-21T15:21:16.219Z,84357,0.28758386,0.69310355,-0.8095546
1732202476239,2024-11-21T15:21:16.239Z,84377,0.33518943,0.6283843,-0.7414608
1732202476242,2024-11-21T15:21:16.242Z,84380,0.33518943,0.6283843,-0.7414608
1732202476251,2024-11-21T15:21:16.251Z,84389,0.28491572,0.6358534,-0.7410467
1732202476255,2024-11-21T15:21:16.255Z,84393,0.28491572,0.6358534,-0.7410467
1732202476282,2024-11-21T15:21:16.282Z,84420,0.25691214,0.6691169,-0.7597043
1732202476284,2024-11-21T15:21:16.284Z,84422,0.25691214,0.6691169,-0.7597043
1732202476294,2024-11-21T15:21:16.294Z,84432,0.33488998,0.7196659,-0.8289025
1732202476297,2024-11-21T15:21:16.297Z,84435,0.33488998,0.7196659,-0.8289025
1732202476307,2024-11-21T15:21:16.307Z,84445,0.34556413,0.72333384,-0.8212346
1732202476309,2024-11-21T15:21:16.309Z,84447,0.34556413,0.72333384,-0.8212346
1732202476318,2024-11-21T15:21:16.318Z,84456,0.33840385,0.6678911,-0.8146144
1732202476321,2024-11-21T15:21:16.321Z,84459,0.33840385,0.6678911,-0.8146144
1732202476330,2024-11-21T15:21:16.330Z,84468,0.281689,0.66585237,-0.74459714
1732202476333,2024-11-21T15:21:16.333Z,84471,0.281689,0.66585237,-0.74459714
1732202476341,2024-11-21T15:21:16.341Z,84479,0.28687304,0.6823265,-0.7812421
1732202476343,2024-11-21T15:21:16.343Z,84481,0.28687304,0.6823265,-0.7812421
1732202476352,2024-11-21T15:21:16.352Z,84490,0.34038544,0.70300394,-0.792924
1732202476354,2024-11-21T15:21:16.354Z,84492,0.34038544,0.70300394,-0.792924
1732202476373,2024-11-21T15:21:16.373Z,84511,0.41195625,0.674646,-0.8182943
1732202476376,2024-11-21T15:21:16.376Z,84514,0.41195625,0.674646,-0.8182943
1732202476385,2024-11-21T15:21:16.385Z,84523,0.34883013,0.62353534,-0.8418736
1732202476388,2024-11-21T15:21:16.388Z,84526,0.34883013,0.62353534,-0.8418736
1732202476402,2024-11-21T15:21:16.402Z,84540,0.29426536,0.6403127,-0.8262622
1732202476408,2024-11-21T15:21:16.408Z,84546,0.29426536,0.6403127,-0.8262622
1732202476426,2024-11-21T15:21:16.426Z,84564,0.25800762,0.66001093,-0.8048832
1732202476432,2024-11-21T15:21:16.432Z,84570,0.25800762,0.66001093,-0.8048832
1732202476452,2024-11-21T15:21:16.452Z,84590,0.28945905,0.6303739,-0.7956997
1732202476458,2024-11-21T15:21:16.458Z,84596,0.28945905,0.6303739,-0.7956997
1732202476479,2024-11-21T15:21:16.479Z,84617,0.32701576,0.63443565,-0.78779805
1732202476484,2024-11-21T15:21:16.484Z,84622,0.32701576,0.63443565,-0.78779805
1732202476498,2024-11-21T15:21:16.498Z,84636,0.3469466,0.6515926,-0.82027864
1732202476502,2024-11-21T15:21:16.502Z,84640,0.3469466,0.6515926,-0.82027864
1732202476514,2024-11-21T15:21:16.514Z,84652,0.33957082,0.6255535,-0.8325899
1732202476517,2024-11-21T15:21:16.517Z,84655,0.33957082,0.6255535,-0.8325899
1732202476528,2024-11-21T15:21:16.528Z,84666,0.3626518,0.60499805,-0.8352077
1732202476532,2024-11-21T15:21:16.532Z,84670,0.3626518,0.60499805,-0.8352077
1732202476546,2024-11-21T15:21:16.546Z,84684,0.31920955,0.6486048,-0.8123995
1732202476553,2024-11-21T15:21:16.553Z,84691,0.31920955,0.6486048,-0.8123995
1732202476576,2024-11-21T15:21:16.576Z,84714,0.2690824,0.6293351,-0.780281
1732202476582,2024-11-21T15:21:16.582Z,84720,0.2690824,0.6293351,-0.780281
1732202476603,2024-11-21T15:21:16.603Z,84741,0.27811468,0.6055836,-0.7813885
1732202476609,2024-11-21T15:21:16.609Z,84747,0.27811468,0.6055836,-0.7813885
1732202476625,2024-11-21T15:21:16.625Z,84763,0.37493953,0.6460428,-0.80177265
1732202476629,2024-11-21T15:21:16.629Z,84767,0.37493953,0.6460428,-0.80177265
1732202476641,2024-11-21T15:21:16.641Z,84779,0.37304875,0.6272391,-0.798719
1732202476644,2024-11-21T15:21:16.644Z,84782,0.37304875,0.6272391,-0.798719
1732202476656,2024-11-21T15:21:16.656Z,84794,0.38307038,0.6212442,-0.81917655
1732202476659,2024-11-21T15:21:16.659Z,84797,0.38307038,0.6212442,-0.81917655
1732202476669,2024-11-21T15:21:16.669Z,84807,0.33211595,0.61763054,-0.82485586
1732202476672,2024-11-21T15:21:16.672Z,84810,0.33211595,0.61763054,-0.82485586
1732202476681,2024-11-21T15:21:16.681Z,84819,0.31607035,0.6109179,-0.84164757
1732202476687,2024-11-21T15:21:16.687Z,84825,0.31607035,0.6109179,-0.84164757
1732202476694,2024-11-21T15:21:16.694Z,84832,0.2970817,0.616217,-0.85104984
1732202476697,2024-11-21T15:21:16.697Z,84835,0.2970817,0.616217,-0.85104984
1732202476705,2024-11-21T15:21:16.705Z,84843,0.39969885,0.6435484,-0.8754035
1732202476708,2024-11-21T15:21:16.708Z,84846,0.39969885,0.6435484,-0.8754035
1732202476716,2024-11-21T15:21:16.716Z,84854,0.38496703,0.6124251,-0.8403028
1732202476718,2024-11-21T15:21:16.718Z,84856,0.38496703,0.6124251,-0.8403028
1732202476725,2024-11-21T15:21:16.725Z,84863,0.3409592,0.5744742,-0.8144796
1732202476727,2024-11-21T15:21:16.727Z,84865,0.3409592,0.5744742,-0.8144796
1732202476735,2024-11-21T15:21:16.735Z,84873,0.296273,0.551727,-0.74448746
1732202476737,2024-11-21T15:21:16.737Z,84875,0.296273,0.551727,-0.74448746
1732202476745,2024-11-21T15:21:16.745Z,84883,0.284484,0.56945235,-0.7787042
1732202476748,2024-11-21T15:21:16.748Z,84886,0.284484,0.56945235,-0.7787042
1732202476782,2024-11-21T15:21:16.782Z,84920,0.29839462,0.6288548,-0.83065975
1732202476789,2024-11-21T15:21:16.789Z,84927,0.29839462,0.6288548,-0.83065975
1732202476813,2024-11-21T15:21:16.813Z,84951,0.40356743,0.5918902,-0.8693303
1732202476818,2024-11-21T15:21:16.818Z,84956,0.40356743,0.5918902,-0.8693303
1732202476832,2024-11-21T15:21:16.832Z,84970,0.3614603,0.56509715,-0.83671993
1732202476834,2024-11-21T15:21:16.834Z,84972,0.3614603,0.56509715,-0.83671993
1732202476842,2024-11-21T15:21:16.842Z,84980,0.37223604,0.57888335,-0.79521036
1732202476845,2024-11-21T15:21:16.845Z,84983,0.37223604,0.57888335,-0.79521036
1732202476855,2024-11-21T15:21:16.855Z,84993,0.31456053,0.63132155,-0.7695764
1732202476857,2024-11-21T15:21:16.857Z,84995,0.31456053,0.63132155,-0.7695764
1732202476866,2024-11-21T15:21:16.866Z,85004,0.32693753,0.6578289,-0.79966193
1732202476869,2024-11-21T15:21:16.869Z,85007,0.32693753,0.6578289,-0.79966193
1732202476876,2024-11-21T15:21:16.876Z,85014,0.3264225,0.6600914,-0.81811255
1732202476879,2024-11-21T15:21:16.879Z,85017,0.3264225,0.6600914,-0.81811255
1732202476913,2024-11-21T15:21:16.913Z,85051,0.35323414,0.6124864,-0.86227226
1732202476917,2024-11-21T15:21:16.917Z,85055,0.35323414,0.6124864,-0.86227226
1732202476928,2024-11-21T15:21:16.928Z,85066,0.36647666,0.56582093,-0.8740092
1732202476932,2024-11-21T15:21:16.932Z,85070,0.36647666,0.56582093,-0.8740092
1732202476943,2024-11-21T15:21:16.943Z,85081,0.33377892,0.5855294,-0.8649875
1732202476946,2024-11-21T15:21:16.946Z,85084,0.33377892,0.5855294,-0.8649875
1732202476961,2024-11-21T15:21:16.961Z,85099,0.29914966,0.6163375,-0.793422
1732202476967,2024-11-21T15:21:16.967Z,85105,0.29914966,0.6163375,-0.793422
1732202477002,2024-11-21T15:21:17.002Z,85140,0.34501442,0.5744429,-0.80860513
1732202477005,2024-11-21T15:21:17.005Z,85143,0.34501442,0.5744429,-0.80860513
1732202477016,2024-11-21T15:21:17.016Z,85154,0.3630975,0.54665285,-0.8247354
1732202477019,2024-11-21T15:21:17.019Z,85157,0.3630975,0.54665285,-0.8247354
1732202477031,2024-11-21T15:21:17.031Z,85169,0.26640034,0.5631576,-0.8544384
1732202477036,2024-11-21T15:21:17.036Z,85174,0.26640034,0.5631576,-0.8544384
1732202477052,2024-11-21T15:21:17.052Z,85190,0.2505856,0.56956244,-0.8207177
1732202477056,2024-11-21T15:21:17.056Z,85194,0.2505856,0.56956244,-0.8207177
1732202477070,2024-11-21T15:21:17.070Z,85208,0.2616306,0.5464257,-0.79007053
1732202477074,2024-11-21T15:21:17.074Z,85212,0.2616306,0.5464257,-0.79007053
1732202477083,2024-11-21T15:21:17.083Z,85221,0.3422784,0.55451494,-0.8811914
1732202477086,2024-11-21T15:21:17.086Z,85224,0.3422784,0.55451494,-0.8811914
1732202477095,2024-11-21T15:21:17.095Z,85233,0.33936337,0.5614921,-0.91778564
1732202477098,2024-11-21T15:21:17.098Z,85236,0.33936337,0.5614921,-0.91778564
1732202477107,2024-11-21T15:21:17.107Z,85245,0.32574365,0.5624053,-0.78881603
1732202477110,2024-11-21T15:21:17.110Z,85248,0.32574365,0.5624053,-0.78881603
1732202477119,2024-11-21T15:21:17.119Z,85257,0.30911884,0.545255,-0.7913817
1732202477121,2024-11-21T15:21:17.121Z,85259,0.30911884,0.545255,-0.7913817
1732202477138,2024-11-21T15:21:17.138Z,85276,0.2981413,0.5543249,-0.83411145
1732202477142,2024-11-21T15:21:17.142Z,85280,0.2981413,0.5543249,-0.83411145
1732202477154,2024-11-21T15:21:17.154Z,85292,0.27431926,0.6213234,-0.8805797
1732202477157,2024-11-21T15:21:17.157Z,85295,0.27431926,0.6213234,-0.8805797
1732202477167,2024-11-21T15:21:17.167Z,85305,0.30283552,0.60771906,-0.9044216
1732202477170,2024-11-21T15:21:17.170Z,85308,0.30283552,0.60771906,-0.9044216
1732202477180,2024-11-21T15:21:17.180Z,85318,0.33059025,0.5837571,-0.9323416
1732202477183,2024-11-21T15:21:17.183Z,85321,0.33059025,0.5837571,-0.9323416
1732202477192,2024-11-21T15:21:17.192Z,85330,0.34265238,0.5949485,-0.88823205
1732202477194,2024-11-21T15:21:17.194Z,85332,0.34265238,0.5949485,-0.88823205
1732202477203,2024-11-21T15:21:17.203Z,85341,0.3193476,0.63749456,-0.85060036
1732202477205,2024-11-21T15:21:17.205Z,85343,0.3193476,0.63749456,-0.85060036
1732202477226,2024-11-21T15:21:17.226Z,85364,0.30930078,0.6642708,-0.85757214
1732202477229,2024-11-21T15:21:17.229Z,85367,0.30930078,0.6642708,-0.85757214
1732202477238,2024-11-21T15:21:17.238Z,85376,0.28670257,0.6770696,-0.89777553
1732202477241,2024-11-21T15:21:17.241Z,85379,0.28670257,0.6770696,-0.89777553
1732202477249,2024-11-21T15:21:17.249Z,85387,0.29597995,0.67275596,-0.86136913
1732202477251,2024-11-21T15:21:17.251Z,85389,0.29597995,0.67275596,-0.86136913
1732202477259,2024-11-21T15:21:17.259Z,85397,0.3675968,0.6622522,-0.83408433
1732202477261,2024-11-21T15:21:17.261Z,85399,0.3675968,0.6622522,-0.83408433
1732202477272,2024-11-21T15:21:17.272Z,85410,0.2823295,0.6713084,-0.9122283
1732202477275,2024-11-21T15:21:17.275Z,85413,0.2823295,0.6713084,-0.9122283
1732202477282,2024-11-21T15:21:17.282Z,85420,0.27607894,0.68777287,-0.936092
1732202477285,2024-11-21T15:21:17.285Z,85423,0.27607894,0.68777287,-0.936092
1732202477320,2024-11-21T15:21:17.320Z,85458,0.26470926,0.6884121,-0.9166692
1732202477322,2024-11-21T15:21:17.322Z,85460,0.26470926,0.6884121,-0.9166692
1732202477331,2024-11-21T15:21:17.331Z,85469,0.34766942,0.6371026,-0.85698557
1732202477334,2024-11-21T15:21:17.334Z,85472,0.34766942,0.6371026,-0.85698557
1732202477344,2024-11-21T15:21:17.344Z,85482,0.3741253,0.6420801,-0.7973824
1732202477346,2024-11-21T15:21:17.346Z,85484,0.3741253,0.6420801,-0.7973824
1732202477356,2024-11-21T15:21:17.356Z,85494,0.40560544,0.6344157,-0.79464835
1732202477359,2024-11-21T15:21:17.359Z,85497,0.40560544,0.6344157,-0.79464835
1732202477369,2024-11-21T15:21:17.369Z,85507,0.32422775,0.6686063,-0.7842419
1732202477371,2024-11-21T15:21:17.371Z,85509,0.32422775,0.6686063,-0.7842419
1732202477379,2024-11-21T15:21:17.379Z,85517,0.24068087,0.709018,-0.8840762
1732202477381,2024-11-21T15:21:17.381Z,85519,0.24068087,0.709018,-0.8840762
1732202477453,2024-11-21T15:21:17.453Z,85591,0.25127938,0.71883976,-0.92302465
1732202477456,2024-11-21T15:21:17.456Z,85594,0.25127938,0.71883976,-0.92302465
1732202477463,2024-11-21T15:21:17.463Z,85601,0.39648604,0.6508713,-0.87522244
1732202477465,2024-11-21T15:21:17.465Z,85603,0.39648604,0.6508713,-0.87522244
1732202477473,2024-11-21T15:21:17.473Z,85611,0.29985887,0.6386491,-0.902919
1732202477476,2024-11-21T15:21:17.476Z,85614,0.29985887,0.6386491,-0.902919
1732202477493,2024-11-21T15:21:17.493Z,85631,0.20324658,0.6653786,-0.89371437
1732202477501,2024-11-21T15:21:17.501Z,85639,0.20324658,0.6653786,-0.89371437
1732202477518,2024-11-21T15:21:17.518Z,85656,0.3927068,0.73362887,-0.8388474
1732202477523,2024-11-21T15:21:17.523Z,85661,0.3927068,0.73362887,-0.8388474
1732202477531,2024-11-21T15:21:17.531Z,85669,0.42381206,0.75875026,-0.87497777
1732202477534,2024-11-21T15:21:17.534Z,85672,0.42381206,0.75875026,-0.87497777
1732202477544,2024-11-21T15:21:17.544Z,85682,0.34188038,0.72571,-0.8870455
1732202477546,2024-11-21T15:21:17.546Z,85684,0.34188038,0.72571,-0.8870455
1732202477591,2024-11-21T15:21:17.591Z,85729,0.26442102,0.72501945,-0.8689704
1732202477594,2024-11-21T15:21:17.594Z,85732,0.26442102,0.72501945,-0.8689704
1732202477603,2024-11-21T15:21:17.603Z,85741,0.3950239,0.71293795,-0.85769516
1732202477606,2024-11-21T15:21:17.606Z,85744,0.3950239,0.71293795,-0.85769516
1732202477632,2024-11-21T15:21:17.632Z,85770,0.38809505,0.6903354,-0.894589
1732202477636,2024-11-21T15:21:17.636Z,85774,0.38809505,0.6903354,-0.894589
1732202477646,2024-11-21T15:21:17.646Z,85784,0.3707424,0.675994,-0.85408926
1732202477649,2024-11-21T15:21:17.649Z,85787,0.3707424,0.675994,-0.85408926
1732202477660,2024-11-21T15:21:17.660Z,85798,0.35084948,0.7028806,-0.8670729
1732202477663,2024-11-21T15:21:17.663Z,85801,0.35084948,0.7028806,-0.8670729
1732202477678,2024-11-21T15:21:17.678Z,85816,0.26280087,0.7031261,-0.8425321
1732202477681,2024-11-21T15:21:17.681Z,85819,0.26280087,0.7031261,-0.8425321
1732202477727,2024-11-21T15:21:17.727Z,85865,0.30452213,0.65329194,-0.9561443
1732202477733,2024-11-21T15:21:17.733Z,85871,0.30452213,0.65329194,-0.9561443
1732202477748,2024-11-21T15:21:17.748Z,85886,0.36405134,0.6889109,-0.9131681
1732202477752,2024-11-21T15:21:17.752Z,85890,0.36405134,0.6889109,-0.9131681
1732202477763,2024-11-21T15:21:17.763Z,85901,0.36010802,0.68396163,-0.8801061
1732202477767,2024-11-21T15:21:17.767Z,85905,0.36010802,0.68396163,-0.8801061
1732202477778,2024-11-21T15:21:17.778Z,85916,0.24549568,0.65689963,-0.7928939
1732202477781,2024-11-21T15:21:17.781Z,85919,0.24549568,0.65689963,-0.7928939
1732202477813,2024-11-21T15:21:17.813Z,85951,0.31646997,0.66345507,-0.8423958
1732202477817,2024-11-21T15:21:17.817Z,85955,0.31646997,0.66345507,-0.8423958
1732202477829,2024-11-21T15:21:17.829Z,85967,0.36332482,0.67985964,-0.86090755
1732202477832,2024-11-21T15:21:17.832Z,85970,0.36332482,0.67985964,-0.86090755
1732202477859,2024-11-21T15:21:17.859Z,85997,0.28265938,0.6761209,-0.88435495
1732202477863,2024-11-21T15:21:17.863Z,86001,0.28265938,0.6761209,-0.88435495
1732202477876,2024-11-21T15:21:17.876Z,86014,0.30882788,0.66405094,-0.8781174
1732202477880,2024-11-21T15:21:17.880Z,86018,0.30882788,0.66405094,-0.8781174
1732202477895,2024-11-21T15:21:17.895Z,86033,0.34081385,0.660316,-0.86551183
1732202477903,2024-11-21T15:21:17.903Z,86041,0.34081385,0.660316,-0.86551183
1732202477926,2024-11-21T15:21:17.926Z,86064,0.30001664,0.66161907,-0.870716
1732202477932,2024-11-21T15:21:17.932Z,86070,0.30001664,0.66161907,-0.870716
1732202477951,2024-11-21T15:21:17.951Z,86089,0.28662467,0.59822303,-0.8456963
1732202477956,2024-11-21T15:21:17.956Z,86094,0.28662467,0.59822303,-0.8456963
1732202477973,2024-11-21T15:21:17.973Z,86111,0.27628064,0.5715414,-0.8560506
1732202477977,2024-11-21T15:21:17.977Z,86115,0.27628064,0.5715414,-0.8560506
1732202477989,2024-11-21T15:21:17.989Z,86127,0.2638173,0.5644294,-0.8405083
1732202477993,2024-11-21T15:21:17.993Z,86131,0.2638173,0.5644294,-0.8405083
1732202478006,2024-11-21T15:21:18.006Z,86144,0.2768324,0.618488,-0.82758474
1732202478009,2024-11-21T15:21:18.009Z,86147,0.2768324,0.618488,-0.82758474
1732202478019,2024-11-21T15:21:18.019Z,86157,0.27744484,0.6304756,-0.7861819
1732202478023,2024-11-21T15:21:18.023Z,86161,0.27744484,0.6304756,-0.7861819
1732202478033,2024-11-21T15:21:18.033Z,86171,0.24029164,0.57974976,-0.8082355
1732202478037,2024-11-21T15:21:18.037Z,86175,0.24029164,0.57974976,-0.8082355
1732202478046,2024-11-21T15:21:18.046Z,86184,0.22431566,0.59413433,-0.85274374
1732202478049,2024-11-21T15:21:18.049Z,86187,0.22431566,0.59413433,-0.85274374
1732202478057,2024-11-21T15:21:18.057Z,86195,0.27552727,0.588781,-0.8158031
1732202478060,2024-11-21T15:21:18.060Z,86198,0.27552727,0.588781,-0.8158031
1732202478068,2024-11-21T15:21:18.068Z,86206,0.33932826,0.57219195,-0.79983306
1732202478071,2024-11-21T15:21:18.071Z,86209,0.33932826,0.57219195,-0.79983306
1732202478079,2024-11-21T15:21:18.079Z,86217,0.38515595,0.6857738,-0.8692568
1732202478082,2024-11-21T15:21:18.082Z,86220,0.38515595,0.6857738,-0.8692568
1732202478090,2024-11-21T15:21:18.090Z,86228,0.28393188,0.6777874,-0.8165945
1732202478092,2024-11-21T15:21:18.092Z,86230,0.28393188,0.6777874,-0.8165945
1732202478099,2024-11-21T15:21:18.099Z,86237,0.22202067,0.62046826,-0.83844703
1732202478101,2024-11-21T15:21:18.101Z,86239,0.22202067,0.62046826,-0.83844703
1732202478109,2024-11-21T15:21:18.109Z,86247,0.25746605,0.67059124,-0.8713356
1732202478111,2024-11-21T15:21:18.111Z,86249,0.25746605,0.67059124,-0.8713356
1732202478129,2024-11-21T15:21:18.129Z,86267,0.3253986,0.66176164,-0.84235775
1732202478131,2024-11-21T15:21:18.131Z,86269,0.3253986,0.66176164,-0.84235775
1732202478141,2024-11-21T15:21:18.141Z,86279,0.33438197,0.6276916,-0.8302882
1732202478143,2024-11-21T15:21:18.143Z,86281,0.33438197,0.6276916,-0.8302882
1732202478172,2024-11-21T15:21:18.172Z,86310,0.31417334,0.5642396,-0.80427766
1732202478174,2024-11-21T15:21:18.174Z,86312,0.31417334,0.5642396,-0.80427766
1732202478222,2024-11-21T15:21:18.222Z,86360,0.25135902,0.5851843,-0.8008588
1732202478227,2024-11-21T15:21:18.227Z,86365,0.25135902,0.5851843,-0.8008588
1732202478245,2024-11-21T15:21:18.245Z,86383,0.29516917,0.59446156,-0.791565
1732202478248,2024-11-21T15:21:18.248Z,86386,0.29516917,0.59446156,-0.791565
1732202478260,2024-11-21T15:21:18.260Z,86398,0.31536534,0.6003209,-0.8091348
1732202478264,2024-11-21T15:21:18.264Z,86402,0.31536534,0.6003209,-0.8091348
1732202478276,2024-11-21T15:21:18.276Z,86414,0.29817617,0.6311708,-0.84383386
1732202478279,2024-11-21T15:21:18.279Z,86417,0.29817617,0.6311708,-0.84383386
1732202478290,2024-11-21T15:21:18.290Z,86428,0.30475026,0.592379,-0.8086255
1732202478294,2024-11-21T15:21:18.294Z,86432,0.30475026,0.592379,-0.8086255
1732202478305,2024-11-21T15:21:18.305Z,86443,0.28022468,0.52926975,-0.7710212
1732202478309,2024-11-21T15:21:18.309Z,86447,0.28022468,0.52926975,-0.7710212
1732202478319,2024-11-21T15:21:18.319Z,86457,0.28943703,0.6067532,-0.8199373
1732202478323,2024-11-21T15:21:18.323Z,86461,0.28943703,0.6067532,-0.8199373
1732202478337,2024-11-21T15:21:18.337Z,86475,0.33276019,0.60935324,-0.78567165
1732202478340,2024-11-21T15:21:18.340Z,86478,0.33276019,0.60935324,-0.78567165
1732202478346,2024-11-21T15:21:18.346Z,86484,0.30813593,0.5653722,-0.78671026
1732202478348,2024-11-21T15:21:18.348Z,86486,0.30813593,0.5653722,-0.78671026
1732202478356,2024-11-21T15:21:18.356Z,86494,0.24397178,0.52592033,-0.80069447
1732202478359,2024-11-21T15:21:18.359Z,86497,0.24397178,0.52592033,-0.80069447
1732202478366,2024-11-21T15:21:18.366Z,86504,0.25952992,0.60741484,-0.81647235
1732202478368,2024-11-21T15:21:18.368Z,86506,0.25952992,0.60741484,-0.81647235
1732202478376,2024-11-21T15:21:18.376Z,86514,0.33540708,0.58774537,-0.8488842
1732202478378,2024-11-21T15:21:18.378Z,86516,0.33540708,0.58774537,-0.8488842
1732202478444,2024-11-21T15:21:18.444Z,86582,0.37562335,0.5708945,-0.85904294
1732202478447,2024-11-21T15:21:18.447Z,86585,0.37562335,0.5708945,-0.85904294
1732202478454,2024-11-21T15:21:18.454Z,86592,0.27016854,0.56417185,-0.85263294
1732202478456,2024-11-21T15:21:18.456Z,86594,0.27016854,0.56417185,-0.85263294
1732202478462,2024-11-21T15:21:18.462Z,86600,0.22616133,0.50652856,-0.7950939
1732202478465,2024-11-21T15:21:18.465Z,86603,0.22616133,0.50652856,-0.7950939
1732202478489,2024-11-21T15:21:18.489Z,86627,0.21818055,0.46867102,-0.76818895
1732202478495,2024-11-21T15:21:18.495Z,86633,0.21818055,0.46867102,-0.76818895
1732202478512,2024-11-21T15:21:18.512Z,86650,0.300082,0.5583705,-0.8248366
1732202478515,2024-11-21T15:21:18.515Z,86653,0.300082,0.5583705,-0.8248366
1732202478525,2024-11-21T15:21:18.525Z,86663,0.29050398,0.5050305,-0.84801483
1732202478528,2024-11-21T15:21:18.528Z,86666,0.29050398,0.5050305,-0.84801483
1732202478539,2024-11-21T15:21:18.539Z,86677,0.28490636,0.5276694,-0.8452261
1732202478541,2024-11-21T15:21:18.541Z,86679,0.28490636,0.5276694,-0.8452261
1732202478550,2024-11-21T15:21:18.550Z,86688,0.2318003,0.5173855,-0.83987844
1732202478553,2024-11-21T15:21:18.553Z,86691,0.2318003,0.5173855,-0.83987844
1732202478561,2024-11-21T15:21:18.561Z,86699,0.26641017,0.5028623,-0.8265409
1732202478563,2024-11-21T15:21:18.563Z,86701,0.26641017,0.5028623,-0.8265409
1732202478570,2024-11-21T15:21:18.570Z,86708,0.3023058,0.49715468,-0.7907534
1732202478573,2024-11-21T15:21:18.573Z,86711,0.3023058,0.49715468,-0.7907534
1732202478580,2024-11-21T15:21:18.580Z,86718,0.2903521,0.46155646,-0.79640424
1732202478582,2024-11-21T15:21:18.582Z,86720,0.2903521,0.46155646,-0.79640424
1732202478590,2024-11-21T15:21:18.590Z,86728,0.3008297,0.46491736,-0.8254268
1732202478592,2024-11-21T15:21:18.592Z,86730,0.3008297,0.46491736,-0.8254268
1732202478597,2024-11-21T15:21:18.597Z,86735,0.29487157,0.50144047,-0.83025
1732202478600,2024-11-21T15:21:18.600Z,86738,0.29487157,0.50144047,-0.83025
1732202478623,2024-11-21T15:21:18.623Z,86761,0.30465218,0.46342227,-0.77840346
1732202478626,2024-11-21T15:21:18.626Z,86764,0.30465218,0.46342227,-0.77840346
1732202478635,2024-11-21T15:21:18.635Z,86773,0.20638795,0.45561975,-0.8061551
1732202478638,2024-11-21T15:21:18.638Z,86776,0.20638795,0.45561975,-0.8061551
1732202478646,2024-11-21T15:21:18.646Z,86784,0.15860285,0.50641936,-0.8200303
1732202478649,2024-11-21T15:21:18.649Z,86787,0.15860285,0.50641936,-0.8200303
1732202478671,2024-11-21T15:21:18.671Z,86809,0.26113015,0.4583061,-0.8362049
1732202478674,2024-11-21T15:21:18.674Z,86812,0.26113015,0.4583061,-0.8362049
1732202478683,2024-11-21T15:21:18.683Z,86821,0.28895423,0.48266783,-0.8322156
1732202478686,2024-11-21T15:21:18.686Z,86824,0.28895423,0.48266783,-0.8322156
1732202478712,2024-11-21T15:21:18.712Z,86850,0.3061439,0.48518834,-0.8419315
1732202478715,2024-11-21T15:21:18.715Z,86853,0.3061439,0.48518834,-0.8419315
1732202478725,2024-11-21T15:21:18.725Z,86863,0.2351078,0.4481756,-0.7921238
1732202478728,2024-11-21T15:21:18.728Z,86866,0.2351078,0.4481756,-0.7921238
1732202478737,2024-11-21T15:21:18.737Z,86875,0.19307406,0.4721817,-0.7915515
1732202478740,2024-11-21T15:21:18.740Z,86878,0.19307406,0.4721817,-0.7915515
1732202478757,2024-11-21T15:21:18.757Z,86895,0.20248528,0.49787766,-0.78771317
1732202478759,2024-11-21T15:21:18.759Z,86897,0.20248528,0.49787766,-0.78771317
1732202478767,2024-11-21T15:21:18.767Z,86905,0.30392238,0.48976508,-0.78484637
1732202478770,2024-11-21T15:21:18.770Z,86908,0.30392238,0.48976508,-0.78484637
1732202478778,2024-11-21T15:21:18.778Z,86916,0.26734355,0.47484016,-0.7852759
1732202478781,2024-11-21T15:21:18.781Z,86919,0.26734355,0.47484016,-0.7852759
1732202478803,2024-11-21T15:21:18.803Z,86941,0.21339041,0.4638255,-0.7598124
1732202478805,2024-11-21T15:21:18.805Z,86943,0.21339041,0.4638255,-0.7598124
1732202478855,2024-11-21T15:21:18.855Z,86993,0.22923005,0.4590877,-0.7893384
1732202478862,2024-11-21T15:21:18.862Z,87000,0.22923005,0.4590877,-0.7893384
1732202478885,2024-11-21T15:21:18.885Z,87023,0.2734453,0.49222067,-0.8101816
1732202478890,2024-11-21T15:21:18.890Z,87028,0.2734453,0.49222067,-0.8101816
1732202478907,2024-11-21T15:21:18.907Z,87045,0.29074186,0.5108476,-0.8452437
1732202478911,2024-11-21T15:21:18.911Z,87049,0.29074186,0.5108476,-0.8452437
1732202478924,2024-11-21T15:21:18.924Z,87062,0.21510524,0.4393396,-0.6863183
1732202478927,2024-11-21T15:21:18.927Z,87065,0.21510524,0.4393396,-0.6863183
1732202478940,2024-11-21T15:21:18.940Z,87078,0.21224989,0.47598633,-0.66396755
1732202478943,2024-11-21T15:21:18.943Z,87081,0.21224989,0.47598633,-0.66396755
1732202478957,2024-11-21T15:21:18.957Z,87095,0.20429464,0.42923436,-0.85841316
1732202478960,2024-11-21T15:21:18.960Z,87098,0.20429464,0.42923436,-0.85841316
1732202478970,2024-11-21T15:21:18.970Z,87108,0.29425144,0.48412362,-0.70908445
1732202478973,2024-11-21T15:21:18.973Z,87111,0.29425144,0.48412362,-0.70908445
1732202478983,2024-11-21T15:21:18.983Z,87121,0.15577082,0.42462087,-0.68632156
1732202478986,2024-11-21T15:21:18.986Z,87124,0.15577082,0.42462087,-0.68632156
1732202478995,2024-11-21T15:21:18.995Z,87133,0.17631516,0.41668686,-0.6440529
1732202478998,2024-11-21T15:21:18.998Z,87136,0.17631516,0.41668686,-0.6440529
1732202479010,2024-11-21T15:21:19.010Z,87148,0.3181709,0.5264619,-0.8199905
1732202479013,2024-11-21T15:21:19.013Z,87151,0.3181709,0.5264619,-0.8199905
1732202479022,2024-11-21T15:21:19.022Z,87160,0.28465563,0.5459849,-0.8801064
1732202479024,2024-11-21T15:21:19.024Z,87162,0.28465563,0.5459849,-0.8801064
1732202479033,2024-11-21T15:21:19.033Z,87171,0.27264747,0.59819627,-0.86015147
1732202479036,2024-11-21T15:21:19.036Z,87174,0.27264747,0.59819627,-0.86015147
1732202479044,2024-11-21T15:21:19.044Z,87182,0.29258478,0.5353074,-0.68213695
1732202479046,2024-11-21T15:21:19.046Z,87184,0.29258478,0.5353074,-0.68213695
1732202479053,2024-11-21T15:21:19.053Z,87191,0.2652768,0.45628276,-0.6537246
1732202479055,2024-11-21T15:21:19.055Z,87193,0.2652768,0.45628276,-0.6537246
1732202479062,2024-11-21T15:21:19.062Z,87200,0.21985713,0.4872159,-0.68630487
1732202479064,2024-11-21T15:21:19.064Z,87202,0.21985713,0.4872159,-0.68630487
1732202479077,2024-11-21T15:21:19.077Z,87215,0.4316244,0.55205226,-0.66834545
1732202479082,2024-11-21T15:21:19.082Z,87220,0.4316244,0.55205226,-0.66834545
1732202479117,2024-11-21T15:21:19.117Z,87255,0.27447194,0.5086145,-0.73977417
1732202479121,2024-11-21T15:21:19.121Z,87259,0.27447194,0.5086145,-0.73977417
1732202479129,2024-11-21T15:21:19.129Z,87267,0.17831025,0.53296125,-0.835901
1732202479131,2024-11-21T15:21:19.131Z,87269,0.17831025,0.53296125,-0.835901
1732202479139,2024-11-21T15:21:19.139Z,87277,0.30124056,0.60207427,-0.7659513
1732202479142,2024-11-21T15:21:19.142Z,87280,0.30124056,0.60207427,-0.7659513
1732202479149,2024-11-21T15:21:19.149Z,87287,0.34074962,0.50300425,-0.65339893
1732202479152,2024-11-21T15:21:19.152Z,87290,0.34074962,0.50300425,-0.65339893
1732202479166,2024-11-21T15:21:19.166Z,87304,0.34035528,0.4341314,-0.6010815
1732202479168,2024-11-21T15:21:19.168Z,87306,0.34035528,0.4341314,-0.6010815
1732202479176,2024-11-21T15:21:19.176Z,87314,0.35735983,0.5288715,-0.77683425
1732202479179,2024-11-21T15:21:19.179Z,87317,0.35735983,0.5288715,-0.77683425
1732202479186,2024-11-21T15:21:19.186Z,87324,0.3402617,0.5661994,-0.7632959
1732202479189,2024-11-21T15:21:19.189Z,87327,0.3402617,0.5661994,-0.7632959
1732202479208,2024-11-21T15:21:19.208Z,87346,0.3170403,0.5620449,-0.64498
1732202479210,2024-11-21T15:21:19.210Z,87348,0.3170403,0.5620449,-0.64498
1732202479217,2024-11-21T15:21:19.217Z,87355,0.32680506,0.46961904,-0.64500123
1732202479220,2024-11-21T15:21:19.220Z,87358,0.32680506,0.46961904,-0.64500123
1732202479228,2024-11-21T15:21:19.228Z,87366,0.3025894,0.5145947,-0.6850404
1732202479231,2024-11-21T15:21:19.231Z,87369,0.3025894,0.5145947,-0.6850404
1732202479251,2024-11-21T15:21:19.251Z,87389,0.27915812,0.5612562,-0.71718436
1732202479254,2024-11-21T15:21:19.254Z,87392,0.27915812,0.5612562,-0.71718436
1732202479262,2024-11-21T15:21:19.262Z,87400,0.38775998,0.56228095,-0.6445236
1732202479264,2024-11-21T15:21:19.264Z,87402,0.38775998,0.56228095,-0.6445236
1732202479272,2024-11-21T15:21:19.272Z,87410,0.39336735,0.5643749,-0.61832935
1732202479274,2024-11-21T15:21:19.274Z,87412,0.39336735,0.5643749,-0.61832935
1732202479281,2024-11-21T15:21:19.281Z,87419,0.3802462,0.56853205,-0.65084016
1732202479283,2024-11-21T15:21:19.283Z,87421,0.3802462,0.56853205,-0.65084016
1732202479298,2024-11-21T15:21:19.298Z,87436,0.2979412,0.57933956,-0.75272024
1732202479300,2024-11-21T15:21:19.300Z,87438,0.2979412,0.57933956,-0.75272024
1732202479309,2024-11-21T15:21:19.309Z,87447,0.3328499,0.5848527,-0.742951
1732202479311,2024-11-21T15:21:19.311Z,87449,0.3328499,0.5848527,-0.742951
1732202479317,2024-11-21T15:21:19.317Z,87455,0.3294616,0.62592375,-0.71583986
1732202479320,2024-11-21T15:21:19.320Z,87458,0.3294616,0.62592375,-0.71583986
1732202479342,2024-11-21T15:21:19.342Z,87480,0.3520955,0.6248538,-0.67083657
1732202479344,2024-11-21T15:21:19.344Z,87482,0.3520955,0.6248538,-0.67083657
1732202479351,2024-11-21T15:21:19.351Z,87489,0.39575806,0.60201985,-0.65450156
1732202479354,2024-11-21T15:21:19.354Z,87492,0.39575806,0.60201985,-0.65450156
1732202479388,2024-11-21T15:21:19.388Z,87526,0.39029816,0.5810237,-0.6810198
1732202479391,2024-11-21T15:21:19.391Z,87529,0.39029816,0.5810237,-0.6810198
1732202479400,2024-11-21T15:21:19.400Z,87538,0.35067472,0.63373154,-0.7906582
1732202479402,2024-11-21T15:21:19.402Z,87540,0.35067472,0.63373154,-0.7906582
1732202479409,2024-11-21T15:21:19.409Z,87547,0.31493795,0.58970064,-0.7830107
1732202479411,2024-11-21T15:21:19.411Z,87549,0.31493795,0.58970064,-0.7830107
1732202479432,2024-11-21T15:21:19.432Z,87570,0.2659563,0.5545129,-0.75585896
1732202479434,2024-11-21T15:21:19.434Z,87572,0.2659563,0.5545129,-0.75585896
1732202479447,2024-11-21T15:21:19.447Z,87585,0.32843202,0.6225894,-0.7009672
1732202479453,2024-11-21T15:21:19.453Z,87591,0.32843202,0.6225894,-0.7009672
1732202479474,2024-11-21T15:21:19.474Z,87612,0.37675634,0.62072563,-0.6720508
1732202479480,2024-11-21T15:21:19.480Z,87618,0.37675634,0.62072563,-0.6720508
1732202479500,2024-11-21T15:21:19.500Z,87638,0.31483817,0.60581124,-0.63509494
1732202479505,2024-11-21T15:21:19.505Z,87643,0.31483817,0.60581124,-0.63509494
1732202479523,2024-11-21T15:21:19.523Z,87661,0.3451253,0.5697566,-0.59196466
1732202479529,2024-11-21T15:21:19.529Z,87667,0.3451253,0.5697566,-0.59196466
1732202479547,2024-11-21T15:21:19.547Z,87685,0.33999345,0.5295729,-0.6507754
1732202479553,2024-11-21T15:21:19.553Z,87691,0.33999345,0.5295729,-0.6507754
1732202479621,2024-11-21T15:21:19.621Z,87759,0.29430297,0.61501825,-0.7217214
1732202479627,2024-11-21T15:21:19.627Z,87765,0.29430297,0.61501825,-0.7217214
1732202479648,2024-11-21T15:21:19.648Z,87786,0.28151542,0.617022,-0.7760027
1732202479654,2024-11-21T15:21:19.654Z,87792,0.28151542,0.617022,-0.7760027
1732202479665,2024-11-21T15:21:19.665Z,87803,0.29661167,0.5889067,-0.75587463
1732202479668,2024-11-21T15:21:19.668Z,87806,0.29661167,0.5889067,-0.75587463
1732202479679,2024-11-21T15:21:19.679Z,87817,0.36230233,0.5846111,-0.64983267
1732202479683,2024-11-21T15:21:19.683Z,87821,0.36230233,0.5846111,-0.64983267
1732202479752,2024-11-21T15:21:19.752Z,87890,0.34462577,0.5567791,-0.62640494
1732202479758,2024-11-21T15:21:19.758Z,87896,0.34462577,0.5567791,-0.62640494
1732202479775,2024-11-21T15:21:19.775Z,87913,0.29005212,0.5245525,-0.6362069
1732202479781,2024-11-21T15:21:19.781Z,87919,0.29005212,0.5245525,-0.6362069
1732202479792,2024-11-21T15:21:19.792Z,87930,0.2586769,0.59626067,-0.80225784
1732202479795,2024-11-21T15:21:19.795Z,87933,0.2586769,0.59626067,-0.80225784
1732202479805,2024-11-21T15:21:19.805Z,87943,0.27843136,0.60211563,-0.80045646
1732202479808,2024-11-21T15:21:19.808Z,87946,0.27843136,0.60211563,-0.80045646
1732202479820,2024-11-21T15:21:19.820Z,87958,0.3640302,0.5375173,-0.5927685
1732202479825,2024-11-21T15:21:19.825Z,87963,0.3640302,0.5375173,-0.5927685
1732202479842,2024-11-21T15:21:19.842Z,87980,0.27407366,0.55425715,-0.7504137
1732202479845,2024-11-21T15:21:19.845Z,87983,0.27407366,0.55425715,-0.7504137
1732202479863,2024-11-21T15:21:19.863Z,88001,0.35010037,0.5887213,-0.7964979
1732202479870,2024-11-21T15:21:19.870Z,88008,0.35010037,0.5887213,-0.7964979
1732202479888,2024-11-21T15:21:19.888Z,88026,0.39309672,0.5919868,-0.733586
1732202479894,2024-11-21T15:21:19.894Z,88032,0.39309672,0.5919868,-0.733586
1732202479910,2024-11-21T15:21:19.910Z,88048,0.27404264,0.54666287,-0.696853
1732202479915,2024-11-21T15:21:19.915Z,88053,0.27404264,0.54666287,-0.696853
1732202479932,2024-11-21T15:21:19.932Z,88070,0.22004172,0.5809689,-0.701911
1732202479947,2024-11-21T15:21:19.947Z,88085,0.22004172,0.5809689,-0.701911
1732202479956,2024-11-21T15:21:19.956Z,88094,0.25012803,0.6313704,-0.67823875
1732202479959,2024-11-21T15:21:19.959Z,88097,0.25012803,0.6313704,-0.67823875
1732202479970,2024-11-21T15:21:19.970Z,88108,0.3033557,0.62842023,-0.66354454
1732202479974,2024-11-21T15:21:19.974Z,88112,0.3033557,0.62842023,-0.66354454
1732202479984,2024-11-21T15:21:19.984Z,88122,0.38488913,0.46383563,-0.67201334
1732202479987,2024-11-21T15:21:19.987Z,88125,0.38488913,0.46383563,-0.67201334
1732202479997,2024-11-21T15:21:19.997Z,88135,0.3290452,0.51527053,-0.6739188
1732202480000,2024-11-21T15:21:20Z,88138,0.3290452,0.51527053,-0.6739188
1732202480009,2024-11-21T15:21:20.009Z,88147,0.25704482,0.6006545,-0.75508577
1732202480012,2024-11-21T15:21:20.012Z,88150,0.25704482,0.6006545,-0.75508577
1732202480021,2024-11-21T15:21:20.021Z,88159,0.2764878,0.6013391,-0.7514411
1732202480024,2024-11-21T15:21:20.024Z,88162,0.2764878,0.6013391,-0.7514411
1732202480032,2024-11-21T15:21:20.032Z,88170,0.297443,0.5432289,-0.70944893
1732202480035,2024-11-21T15:21:20.035Z,88173,0.297443,0.5432289,-0.70944893
1732202480043,2024-11-21T15:21:20.043Z,88181,0.2897279,0.5173615,-0.68115276
1732202480045,2024-11-21T15:21:20.045Z,88183,0.2897279,0.5173615,-0.68115276
1732202480063,2024-11-21T15:21:20.063Z,88201,0.28004596,0.59274614,-0.71371216
1732202480065,2024-11-21T15:21:20.065Z,88203,0.28004596,0.59274614,-0.71371216
1732202480073,2024-11-21T15:21:20.073Z,88211,0.2281737,0.59592813,-0.7450885
1732202480076,2024-11-21T15:21:20.076Z,88214,0.2281737,0.59592813,-0.7450885
1732202480153,2024-11-21T15:21:20.153Z,88291,0.28404433,0.61185443,-0.74551034
1732202480156,2024-11-21T15:21:20.156Z,88294,0.28404433,0.61185443,-0.74551034
1732202480165,2024-11-21T15:21:20.165Z,88303,0.26680556,0.51516265,-0.70360714
1732202480168,2024-11-21T15:21:20.168Z,88306,0.26680556,0.51516265,-0.70360714
1732202480177,2024-11-21T15:21:20.177Z,88315,0.30414727,0.5568515,-0.72762674
1732202480180,2024-11-21T15:21:20.180Z,88318,0.30414727,0.5568515,-0.72762674
1732202480197,2024-11-21T15:21:20.197Z,88335,0.32471663,0.5627583,-0.74203616
1732202480200,2024-11-21T15:21:20.200Z,88338,0.32471663,0.5627583,-0.74203616
1732202480209,2024-11-21T15:21:20.209Z,88347,0.24752855,0.5269262,-0.7623135
1732202480212,2024-11-21T15:21:20.212Z,88350,0.24752855,0.5269262,-0.7623135
1732202480220,2024-11-21T15:21:20.220Z,88358,0.2632118,0.56123203,-0.785541
1732202480223,2024-11-21T15:21:20.223Z,88361,0.2632118,0.56123203,-0.785541
1732202480242,2024-11-21T15:21:20.242Z,88380,0.28643554,0.58827156,-0.7799979
1732202480245,2024-11-21T15:21:20.245Z,88383,0.28643554,0.58827156,-0.7799979
1732202480255,2024-11-21T15:21:20.255Z,88393,0.28955156,0.5607595,-0.7781459
1732202480259,2024-11-21T15:21:20.259Z,88397,0.28955156,0.5607595,-0.7781459
1732202480269,2024-11-21T15:21:20.269Z,88407,0.34503162,0.5359937,-0.8021109
1732202480272,2024-11-21T15:21:20.272Z,88410,0.34503162,0.5359937,-0.8021109
1732202480286,2024-11-21T15:21:20.286Z,88424,0.38536406,0.5063586,-0.76403934
1732202480289,2024-11-21T15:21:20.289Z,88427,0.38536406,0.5063586,-0.76403934
1732202480297,2024-11-21T15:21:20.297Z,88435,0.31477886,0.49334154,-0.748591
1732202480300,2024-11-21T15:21:20.300Z,88438,0.31477886,0.49334154,-0.748591
1732202480308,2024-11-21T15:21:20.308Z,88446,0.24602456,0.5156301,-0.75015557
1732202480311,2024-11-21T15:21:20.311Z,88449,0.24602456,0.5156301,-0.75015557
1732202480331,2024-11-21T15:21:20.331Z,88469,0.2074576,0.5228138,-0.775208
1732202480334,2024-11-21T15:21:20.334Z,88472,0.2074576,0.5228138,-0.775208
1732202480344,2024-11-21T15:21:20.344Z,88482,0.30231133,0.5779566,-0.82139105
1732202480347,2024-11-21T15:21:20.347Z,88485,0.30231133,0.5779566,-0.82139105
1732202480354,2024-11-21T15:21:20.354Z,88492,0.3735212,0.57465637,-0.807982
1732202480357,2024-11-21T15:21:20.357Z,88495,0.3735212,0.57465637,-0.807982
1732202480366,2024-11-21T15:21:20.366Z,88504,0.37042898,0.5334121,-0.77430785
1732202480369,2024-11-21T15:21:20.369Z,88507,0.37042898,0.5334121,-0.77430785
1732202480383,2024-11-21T15:21:20.383Z,88521,0.21867488,0.50314885,-0.7678104
1732202480388,2024-11-21T15:21:20.388Z,88526,0.21867488,0.50314885,-0.7678104
1732202480404,2024-11-21T15:21:20.404Z,88542,0.24500231,0.52409047,-0.76859164
1732202480409,2024-11-21T15:21:20.409Z,88547,0.24500231,0.52409047,-0.76859164
1732202480426,2024-11-21T15:21:20.426Z,88564,0.30107865,0.54239273,-0.7532121
1732202480431,2024-11-21T15:21:20.431Z,88569,0.30107865,0.54239273,-0.7532121
1732202480447,2024-11-21T15:21:20.447Z,88585,0.33647093,0.5700929,-0.8013726
1732202480451,2024-11-21T15:21:20.451Z,88589,0.33647093,0.5700929,-0.8013726
1732202480469,2024-11-21T15:21:20.469Z,88607,0.343351,0.5464455,-0.77999103
1732202480474,2024-11-21T15:21:20.474Z,88612,0.343351,0.5464455,-0.77999103
1732202480489,2024-11-21T15:21:20.489Z,88627,0.3028893,0.5288595,-0.79974884
1732202480493,2024-11-21T15:21:20.493Z,88631,0.3028893,0.5288595,-0.79974884
1732202480510,2024-11-21T15:21:20.510Z,88648,0.23645915,0.5355939,-0.82587516
1732202480516,2024-11-21T15:21:20.516Z,88654,0.23645915,0.5355939,-0.82587516
1732202480532,2024-11-21T15:21:20.532Z,88670,0.25185117,0.51229787,-0.8055029
1732202480537,2024-11-21T15:21:20.537Z,88675,0.25185117,0.51229787,-0.8055029
1732202480561,2024-11-21T15:21:20.561Z,88699,0.27593106,0.55759037,-0.78607494
1732202480565,2024-11-21T15:21:20.565Z,88703,0.27593106,0.55759037,-0.78607494
1732202480575,2024-11-21T15:21:20.575Z,88713,0.30533,0.5509931,-0.8106753
1732202480579,2024-11-21T15:21:20.579Z,88717,0.30533,0.5509931,-0.8106753
1732202480588,2024-11-21T15:21:20.588Z,88726,0.3310298,0.53452975,-0.8110581
1732202480591,2024-11-21T15:21:20.591Z,88729,0.3310298,0.53452975,-0.8110581
1732202480697,2024-11-21T15:21:20.697Z,88835,0.32343206,0.5169156,-0.8159837
1732202480703,2024-11-21T15:21:20.703Z,88841,0.32343206,0.5169156,-0.8159837
1732202480723,2024-11-21T15:21:20.723Z,88861,0.31308913,0.5043418,-0.8183406
1732202480729,2024-11-21T15:21:20.729Z,88867,0.31308913,0.5043418,-0.8183406
1732202480756,2024-11-21T15:21:20.756Z,88894,0.26254997,0.48539636,-0.7986145
1732202480761,2024-11-21T15:21:20.761Z,88899,0.26254997,0.48539636,-0.7986145
1732202480772,2024-11-21T15:21:20.772Z,88910,0.2221801,0.4894297,-0.76107097
1732202480775,2024-11-21T15:21:20.775Z,88913,0.2221801,0.4894297,-0.76107097
1732202480789,2024-11-21T15:21:20.789Z,88927,0.30222565,0.4805504,-0.8103185
1732202480793,2024-11-21T15:21:20.793Z,88931,0.30222565,0.4805504,-0.8103185
1732202480804,2024-11-21T15:21:20.804Z,88942,0.2519327,0.48926717,-0.82519877
1732202480808,2024-11-21T15:21:20.808Z,88946,0.2519327,0.48926717,-0.82519877
1732202480819,2024-11-21T15:21:20.819Z,88957,0.3160498,0.5372701,-0.78748727
1732202480822,2024-11-21T15:21:20.822Z,88960,0.3160498,0.5372701,-0.78748727
1732202480832,2024-11-21T15:21:20.832Z,88970,0.32536066,0.552611,-0.7815747
1732202480835,2024-11-21T15:21:20.835Z,88973,0.32536066,0.552611,-0.7815747
1732202480843,2024-11-21T15:21:20.843Z,88981,0.28520945,0.53712916,-0.77879906
1732202480846,2024-11-21T15:21:20.846Z,88984,0.28520945,0.53712916,-0.77879906
1732202480854,2024-11-21T15:21:20.854Z,88992,0.20934945,0.51422226,-0.79465675
1732202480856,2024-11-21T15:21:20.856Z,88994,0.20934945,0.51422226,-0.79465675
1732202480864,2024-11-21T15:21:20.864Z,89002,0.22503133,0.5495899,-0.81052196
1732202480866,2024-11-21T15:21:20.866Z,89004,0.22503133,0.5495899,-0.81052196
1732202480873,2024-11-21T15:21:20.873Z,89011,0.27197134,0.57548565,-0.8277501
1732202480876,2024-11-21T15:21:20.876Z,89014,0.27197134,0.57548565,-0.8277501
1732202480884,2024-11-21T15:21:20.884Z,89022,0.30295888,0.56084913,-0.8072404
1732202480887,2024-11-21T15:21:20.887Z,89025,0.30295888,0.56084913,-0.8072404
1732202480894,2024-11-21T15:21:20.894Z,89032,0.27114162,0.56327206,-0.7775031
1732202480896,2024-11-21T15:21:20.896Z,89034,0.27114162,0.56327206,-0.7775031
1732202480915,2024-11-21T15:21:20.915Z,89053,0.26036862,0.5457536,-0.78588545
1732202480918,2024-11-21T15:21:20.918Z,89056,0.26036862,0.5457536,-0.78588545
1732202480926,2024-11-21T15:21:20.926Z,89064,0.22683297,0.55609375,-0.8390181
1732202480928,2024-11-21T15:21:20.928Z,89066,0.22683297,0.55609375,-0.8390181
1732202480935,2024-11-21T15:21:20.935Z,89073,0.21008226,0.6019435,-0.8563798
1732202480937,2024-11-21T15:21:20.937Z,89075,0.21008226,0.6019435,-0.8563798
1732202480963,2024-11-21T15:21:20.963Z,89101,0.2063425,0.61133003,-0.8467369
1732202480966,2024-11-21T15:21:20.966Z,89104,0.2063425,0.61133003,-0.8467369
1732202480975,2024-11-21T15:21:20.975Z,89113,0.30547568,0.52590054,-0.80082995
