Timestamp (ms),ISO DateTime,Elapsed Time (ms),Acceleration X,Acceleration Y,Acceleration Z
1734276412386,2024-12-15T15:26:52.386Z,19863,-0.012686803,-0.05205388,-0.37461683
1734276412392,2024-12-15T15:26:52.392Z,19869,-0.012686803,-0.05205388,-0.37461683
1734276412413,2024-12-15T15:26:52.413Z,19890,-0.01630296,-0.04459926,-0.36540493
1734276412422,2024-12-15T15:26:52.422Z,19899,-0.01630296,-0.04459926,-0.36540493
1734276412438,2024-12-15T15:26:52.438Z,19915,-0.015549156,-0.04175117,-0.35438564
1734276412443,2024-12-15T15:26:52.443Z,19920,-0.015549156,-0.04175117,-0.35438564
1734276412459,2024-12-15T15:26:52.459Z,19936,-0.014694798,-0.03568155,-0.34881538
1734276412464,2024-12-15T15:26:52.464Z,19941,-0.014694798,-0.03568155,-0.34881538
1734276412477,2024-12-15T15:26:52.477Z,19954,-0.017681884,-0.032266792,-0.3394908
1734276412482,2024-12-15T15:26:52.482Z,19959,-0.017681884,-0.032266792,-0.3394908
1734276412494,2024-12-15T15:26:52.494Z,19971,-0.02492358,-0.029567681,-0.32888064
1734276412498,2024-12-15T15:26:52.498Z,19975,-0.02492358,-0.029567681,-0.32888064
1734276412510,2024-12-15T15:26:52.510Z,19987,-0.018493306,-0.024602601,-0.3252229
1734276412513,2024-12-15T15:26:52.513Z,19990,-0.018493306,-0.024602601,-0.3252229
1734276412525,2024-12-15T15:26:52.525Z,20002,-0.016030144,-0.02326428,-0.31108522
1734276412528,2024-12-15T15:26:52.528Z,20005,-0.016030144,-0.02326428,-0.31108522
1734276412539,2024-12-15T15:26:52.539Z,20016,-0.027595084,-0.024656866,-0.29691663
1734276412544,2024-12-15T15:26:52.544Z,20021,-0.027595084,-0.024656866,-0.29691663
1734276412557,2024-12-15T15:26:52.557Z,20034,-0.022612866,-0.02045343,-0.28814822
1734276412560,2024-12-15T15:26:52.560Z,20037,-0.022612866,-0.02045343,-0.28814822
1734276412574,2024-12-15T15:26:52.574Z,20051,-0.02062731,-0.019915555,-0.27600646
1734276412578,2024-12-15T15:26:52.578Z,20055,-0.02062731,-0.019915555,-0.27600646
1734276412591,2024-12-15T15:26:52.591Z,20068,-0.018753225,-0.01862216,-0.2687807
1734276412596,2024-12-15T15:26:52.596Z,20073,-0.018753225,-0.01862216,-0.2687807
1734276412607,2024-12-15T15:26:52.607Z,20084,-0.02619969,-0.013622751,-0.261531
1734276412612,2024-12-15T15:26:52.612Z,20089,-0.02619969,-0.013622751,-0.261531
1734276412622,2024-12-15T15:26:52.622Z,20099,-0.02717032,-0.011733228,-0.25364318
1734276412627,2024-12-15T15:26:52.627Z,20104,-0.02717032,-0.011733228,-0.25364318
1734276412640,2024-12-15T15:26:52.640Z,20117,-0.019543812,-0.009963514,-0.24804175
1734276412643,2024-12-15T15:26:52.643Z,20120,-0.019543812,-0.009963514,-0.24804175
1734276412655,2024-12-15T15:26:52.655Z,20132,-0.017375942,-0.01076328,-0.24082276
1734276412659,2024-12-15T15:26:52.659Z,20136,-0.017375942,-0.01076328,-0.24082276
1734276412672,2024-12-15T15:26:52.672Z,20149,-0.0066162725,-0.008249329,-0.23345646
1734276412677,2024-12-15T15:26:52.677Z,20154,-0.0066162725,-0.008249329,-0.23345646
1734276412688,2024-12-15T15:26:52.688Z,20165,-0.0038150034,-0.0039031343,-0.2230776
1734276412692,2024-12-15T15:26:52.692Z,20169,-0.0038150034,-0.0039031343,-0.2230776
1734276412703,2024-12-15T15:26:52.703Z,20180,-0.0036744198,-0.002094035,-0.21552458
1734276412707,2024-12-15T15:26:52.707Z,20184,-0.0036744198,-0.002094035,-0.21552458
1734276412720,2024-12-15T15:26:52.720Z,20197,0.0016832486,-0.0013466864,-0.21171615
1734276412724,2024-12-15T15:26:52.724Z,20201,0.0016832486,-0.0013466864,-0.21171615
1734276412736,2024-12-15T15:26:52.736Z,20213,-0.0013437202,-0.0026543764,-0.20095904
1734276412740,2024-12-15T15:26:52.740Z,20217,-0.0013437202,-0.0026543764,-0.20095904
1734276412754,2024-12-15T15:26:52.754Z,20231,4.5063376E-4,3.5086976E-4,-0.19440247
1734276412757,2024-12-15T15:26:52.757Z,20234,4.5063376E-4,3.5086976E-4,-0.19440247
1734276412769,2024-12-15T15:26:52.769Z,20246,0.0074669346,0.0042890133,-0.19000278
1734276412773,2024-12-15T15:26:52.773Z,20250,0.0074669346,0.0042890133,-0.19000278
1734276412784,2024-12-15T15:26:52.784Z,20261,0.006559261,0.0047723344,-0.18380761
1734276412789,2024-12-15T15:26:52.789Z,20266,0.006559261,0.0047723344,-0.18380761
1734276412801,2024-12-15T15:26:52.801Z,20278,0.014202701,0.008652129,-0.17242907
1734276412805,2024-12-15T15:26:52.805Z,20282,0.014202701,0.008652129,-0.17242907
1734276412816,2024-12-15T15:26:52.816Z,20293,0.012464046,0.007104043,-0.16376038
1734276412820,2024-12-15T15:26:52.820Z,20297,0.012464046,0.007104043,-0.16376038
1734276412832,2024-12-15T15:26:52.832Z,20309,0.010162836,0.011360284,-0.15925142
1734276412836,2024-12-15T15:26:52.836Z,20313,0.010162836,0.011360284,-0.15925142
1734276412851,2024-12-15T15:26:52.851Z,20328,0.018396508,0.010229487,-0.15491244
1734276412855,2024-12-15T15:26:52.855Z,20332,0.018396508,0.010229487,-0.15491244
1734276412869,2024-12-15T15:26:52.869Z,20346,0.015839294,0.009534166,-0.14691068
1734276412874,2024-12-15T15:26:52.874Z,20351,0.015839294,0.009534166,-0.14691068
1734276412890,2024-12-15T15:26:52.890Z,20367,0.009386715,0.010739746,-0.1454625
1734276412895,2024-12-15T15:26:52.895Z,20372,0.009386715,0.010739746,-0.1454625
1734276412907,2024-12-15T15:26:52.907Z,20384,0.0077948663,0.010949995,-0.1435865
1734276412912,2024-12-15T15:26:52.912Z,20389,0.0077948663,0.010949995,-0.1435865
1734276412926,2024-12-15T15:26:52.926Z,20403,0.01728459,0.01358677,-0.13502209
1734276412931,2024-12-15T15:26:52.931Z,20408,0.01728459,0.01358677,-0.13502209
1734276412944,2024-12-15T15:26:52.944Z,20421,0.013046948,0.012780392,-0.13196097
1734276412948,2024-12-15T15:26:52.948Z,20425,0.013046948,0.012780392,-0.13196097
1734276412962,2024-12-15T15:26:52.962Z,20439,0.011193102,0.0060867346,-0.12709983
1734276412966,2024-12-15T15:26:52.966Z,20443,0.011193102,0.0060867346,-0.12709983
1734276412978,2024-12-15T15:26:52.978Z,20455,0.010810542,0.004239514,-0.12288203
1734276412983,2024-12-15T15:26:52.983Z,20460,0.010810542,0.004239514,-0.12288203
1734276413000,2024-12-15T15:26:53Z,20477,0.0051713903,0.0018595709,-0.12024876
1734276413004,2024-12-15T15:26:53.004Z,20481,0.0051713903,0.0018595709,-0.12024876
1734276413017,2024-12-15T15:26:53.017Z,20494,-0.00225312,-5.4789364E-4,-0.122972175
1734276413021,2024-12-15T15:26:53.021Z,20498,-0.00225312,-5.4789364E-4,-0.122972175
1734276413035,2024-12-15T15:26:53.035Z,20512,0.004480117,-0.0019540957,-0.12599963
1734276413038,2024-12-15T15:26:53.038Z,20515,0.004480117,-0.0019540957,-0.12599963
1734276413050,2024-12-15T15:26:53.050Z,20527,0.007741453,-0.0028409946,-0.12591432
1734276413054,2024-12-15T15:26:53.054Z,20531,0.007741453,-0.0028409946,-0.12591432
1734276413075,2024-12-15T15:26:53.075Z,20552,-0.0016332511,-0.007142456,-0.12326501
1734276413081,2024-12-15T15:26:53.081Z,20558,-0.0016332511,-0.007142456,-0.12326501
1734276413094,2024-12-15T15:26:53.094Z,20571,-0.0026333465,-0.008507327,-0.123386584
1734276413098,2024-12-15T15:26:53.098Z,20575,-0.0026333465,-0.008507327,-0.123386584
1734276413110,2024-12-15T15:26:53.110Z,20587,-0.0040308936,-0.010366703,-0.119502
1734276413115,2024-12-15T15:26:53.115Z,20592,-0.0040308936,-0.010366703,-0.119502
1734276413128,2024-12-15T15:26:53.128Z,20605,-0.0072572078,-0.012738673,-0.11755452
1734276413133,2024-12-15T15:26:53.133Z,20610,-0.0072572078,-0.012738673,-0.11755452
1734276413145,2024-12-15T15:26:53.145Z,20622,-0.008829059,-0.013687324,-0.114191644
1734276413149,2024-12-15T15:26:53.149Z,20626,-0.008829059,-0.013687324,-0.114191644
1734276413160,2024-12-15T15:26:53.160Z,20637,-0.010652333,-0.013204294,-0.11565987
1734276413163,2024-12-15T15:26:53.163Z,20640,-0.010652333,-0.013204294,-0.11565987
1734276413175,2024-12-15T15:26:53.175Z,20652,-0.012762279,-0.013233469,-0.112161785
1734276413178,2024-12-15T15:26:53.178Z,20655,-0.012762279,-0.013233469,-0.112161785
1734276413190,2024-12-15T15:26:53.190Z,20667,-0.009379555,-0.009377792,-0.10863782
1734276413193,2024-12-15T15:26:53.193Z,20670,-0.009379555,-0.009377792,-0.10863782
1734276413205,2024-12-15T15:26:53.205Z,20682,-0.013621888,-0.008985203,-0.103236645
1734276413210,2024-12-15T15:26:53.210Z,20687,-0.013621888,-0.008985203,-0.103236645
1734276413223,2024-12-15T15:26:53.223Z,20700,-0.008435279,-0.011084878,-0.09750649
1734276413228,2024-12-15T15:26:53.228Z,20705,-0.008435279,-0.011084878,-0.09750649
1734276413240,2024-12-15T15:26:53.240Z,20717,-0.008835648,-0.0064095,-0.098739825
1734276413244,2024-12-15T15:26:53.244Z,20721,-0.008835648,-0.0064095,-0.098739825
1734276413255,2024-12-15T15:26:53.255Z,20732,-0.00730306,-0.0017456937,-0.10002186
1734276413258,2024-12-15T15:26:53.258Z,20735,-0.00730306,-0.0017456937,-0.10002186
1734276413270,2024-12-15T15:26:53.270Z,20747,-0.0046307417,-0.001038411,-0.095122576
1734276413275,2024-12-15T15:26:53.275Z,20752,-0.0046307417,-0.001038411,-0.095122576
1734276413287,2024-12-15T15:26:53.287Z,20764,-0.0076707173,0.0030458956,-0.09375635
1734276413291,2024-12-15T15:26:53.291Z,20768,-0.0076707173,0.0030458956,-0.09375635
1734276413303,2024-12-15T15:26:53.303Z,20780,-0.006631905,0.011500612,-0.097226635
1734276413307,2024-12-15T15:26:53.307Z,20784,-0.006631905,0.011500612,-0.097226635
1734276413318,2024-12-15T15:26:53.318Z,20795,0.007104067,0.018478135,-0.096343525
1734276413321,2024-12-15T15:26:53.321Z,20798,0.007104067,0.018478135,-0.096343525
1734276413333,2024-12-15T15:26:53.333Z,20810,0.0037860116,0.020563126,-0.0944692
1734276413337,2024-12-15T15:26:53.337Z,20814,0.0037860116,0.020563126,-0.0944692
1734276413351,2024-12-15T15:26:53.351Z,20828,0.0073157633,0.024106735,-0.094527304
1734276413356,2024-12-15T15:26:53.356Z,20833,0.0073157633,0.024106735,-0.094527304
1734276413371,2024-12-15T15:26:53.371Z,20848,0.009873318,0.02275266,-0.09171911
1734276413375,2024-12-15T15:26:53.375Z,20852,0.009873318,0.02275266,-0.09171911
1734276413389,2024-12-15T15:26:53.389Z,20866,8.742205E-4,0.026759945,-0.0950802
1734276413393,2024-12-15T15:26:53.393Z,20870,8.742205E-4,0.026759945,-0.0950802
1734276413407,2024-12-15T15:26:53.407Z,20884,0.008966908,0.028806426,-0.09110996
1734276413410,2024-12-15T15:26:53.410Z,20887,0.008966908,0.028806426,-0.09110996
1734276413423,2024-12-15T15:26:53.423Z,20900,0.0068531074,0.026444474,-0.08908462
1734276413427,2024-12-15T15:26:53.427Z,20904,0.0068531074,0.026444474,-0.08908462
1734276413438,2024-12-15T15:26:53.438Z,20915,0.0052604205,0.025051497,-0.092864834
1734276413442,2024-12-15T15:26:53.442Z,20919,0.0052604205,0.025051497,-0.092864834
1734276413455,2024-12-15T15:26:53.455Z,20932,0.010471123,0.024646655,-0.09502786
1734276413459,2024-12-15T15:26:53.459Z,20936,0.010471123,0.024646655,-0.09502786
1734276413472,2024-12-15T15:26:53.472Z,20949,-0.0023175953,0.019356672,-0.09262302
1734276413477,2024-12-15T15:26:53.477Z,20954,-0.0023175953,0.019356672,-0.09262302
1734276413490,2024-12-15T15:26:53.490Z,20967,0.005388958,0.014549133,-0.09604692
1734276413494,2024-12-15T15:26:53.494Z,20971,0.005388958,0.014549133,-0.09604692
1734276413505,2024-12-15T15:26:53.505Z,20982,-0.005927078,0.007788861,-0.09736298
1734276413509,2024-12-15T15:26:53.509Z,20986,-0.005927078,0.007788861,-0.09736298
1734276413520,2024-12-15T15:26:53.520Z,20997,-0.019472882,5.0053396E-4,-0.095703624
1734276413523,2024-12-15T15:26:53.523Z,21000,-0.019472882,5.0053396E-4,-0.095703624
1734276413534,2024-12-15T15:26:53.534Z,21011,-0.02497438,0.00147058,-0.11008813
1734276413538,2024-12-15T15:26:53.538Z,21015,-0.02497438,0.00147058,-0.11008813
1734276413550,2024-12-15T15:26:53.550Z,21027,-0.036431424,0.0032526443,-0.13327047
1734276413553,2024-12-15T15:26:53.553Z,21030,-0.036431424,0.0032526443,-0.13327047
1734276413565,2024-12-15T15:26:53.565Z,21042,-0.06502085,-0.017916627,-0.1311495
1734276413569,2024-12-15T15:26:53.569Z,21046,-0.06502085,-0.017916627,-0.1311495
1734276413581,2024-12-15T15:26:53.581Z,21058,-0.05193462,-0.023999471,-0.1366117
1734276413585,2024-12-15T15:26:53.585Z,21062,-0.05193462,-0.023999471,-0.1366117
1734276413597,2024-12-15T15:26:53.597Z,21074,-0.04460342,-0.023756644,-0.15188035
1734276413601,2024-12-15T15:26:53.601Z,21078,-0.04460342,-0.023756644,-0.15188035
1734276413613,2024-12-15T15:26:53.613Z,21090,-0.06116277,-0.028405864,-0.15788475
1734276413617,2024-12-15T15:26:53.617Z,21094,-0.06116277,-0.028405864,-0.15788475
1734276413629,2024-12-15T15:26:53.629Z,21106,-0.063438974,-0.028708983,-0.16224371
1734276413638,2024-12-15T15:26:53.638Z,21115,-0.063438974,-0.028708983,-0.16224371
1734276413650,2024-12-15T15:26:53.650Z,21127,-0.06566525,-0.017809946,-0.16241024
1734276413654,2024-12-15T15:26:53.654Z,21131,-0.06566525,-0.017809946,-0.16241024
1734276413665,2024-12-15T15:26:53.665Z,21142,-0.062481828,-0.0035227984,-0.15255713
1734276413670,2024-12-15T15:26:53.670Z,21147,-0.062481828,-0.0035227984,-0.15255713
1734276413681,2024-12-15T15:26:53.681Z,21158,-0.07054624,0.016605727,-0.16291146
1734276413686,2024-12-15T15:26:53.686Z,21163,-0.07054624,0.016605727,-0.16291146
1734276413699,2024-12-15T15:26:53.699Z,21176,-0.068396665,0.04064974,-0.16342916
1734276413706,2024-12-15T15:26:53.706Z,21183,-0.068396665,0.04064974,-0.16342916
1734276413721,2024-12-15T15:26:53.721Z,21198,-0.05159362,0.05737693,-0.14183582
1734276413726,2024-12-15T15:26:53.726Z,21203,-0.05159362,0.05737693,-0.14183582
1734276413737,2024-12-15T15:26:53.737Z,21214,-0.0538914,0.07654922,-0.13492002
1734276413740,2024-12-15T15:26:53.740Z,21217,-0.0538914,0.07654922,-0.13492002
1734276413752,2024-12-15T15:26:53.752Z,21229,-0.04992068,0.0971845,-0.1369267
1734276413755,2024-12-15T15:26:53.755Z,21232,-0.04992068,0.0971845,-0.1369267
1734276413765,2024-12-15T15:26:53.765Z,21242,-0.021179859,0.12466709,-0.11851733
1734276413769,2024-12-15T15:26:53.769Z,21246,-0.021179859,0.12466709,-0.11851733
1734276413781,2024-12-15T15:26:53.781Z,21258,-0.014113172,0.14923605,-0.09391481
1734276413785,2024-12-15T15:26:53.785Z,21262,-0.014113172,0.14923605,-0.09391481
1734276413797,2024-12-15T15:26:53.797Z,21274,-0.012986873,0.17672618,-0.08172702
1734276413800,2024-12-15T15:26:53.800Z,21277,-0.012986873,0.17672618,-0.08172702
1734276413811,2024-12-15T15:26:53.811Z,21288,-0.008469692,0.20518261,-0.080399215
1734276413816,2024-12-15T15:26:53.816Z,21293,-0.008469692,0.20518261,-0.080399215
1734276413826,2024-12-15T15:26:53.826Z,21303,0.006732982,0.23756197,-0.08238453
1734276413831,2024-12-15T15:26:53.831Z,21308,0.006732982,0.23756197,-0.08238453
1734276413842,2024-12-15T15:26:53.842Z,21319,0.012510943,0.2533651,-0.07214415
1734276413847,2024-12-15T15:26:53.847Z,21324,0.012510943,0.2533651,-0.07214415
1734276413858,2024-12-15T15:26:53.858Z,21335,0.010296138,0.2706606,-0.050696313
1734276413862,2024-12-15T15:26:53.862Z,21339,0.010296138,0.2706606,-0.050696313
1734276413874,2024-12-15T15:26:53.874Z,21351,0.026638616,0.28891727,-0.029854326
1734276413877,2024-12-15T15:26:53.877Z,21354,0.026638616,0.28891727,-0.029854326
1734276413890,2024-12-15T15:26:53.890Z,21367,0.059924114,0.3101199,-0.015920904
1734276413894,2024-12-15T15:26:53.894Z,21371,0.059924114,0.3101199,-0.015920904
1734276413907,2024-12-15T15:26:53.907Z,21384,0.07533682,0.3269904,-0.012139347
1734276413911,2024-12-15T15:26:53.911Z,21388,0.07533682,0.3269904,-0.012139347
1734276413924,2024-12-15T15:26:53.924Z,21401,0.054856878,0.3390448,-0.0066729863
1734276413928,2024-12-15T15:26:53.928Z,21405,0.054856878,0.3390448,-0.0066729863
1734276413942,2024-12-15T15:26:53.942Z,21419,0.06310733,0.34674188,-4.9593905E-4
1734276413947,2024-12-15T15:26:53.947Z,21424,0.06310733,0.34674188,-4.9593905E-4
1734276413958,2024-12-15T15:26:53.958Z,21435,0.06394906,0.3505533,0.006225616
1734276413964,2024-12-15T15:26:53.964Z,21441,0.06394906,0.3505533,0.006225616
1734276413976,2024-12-15T15:26:53.976Z,21453,0.06566404,0.36074233,0.010616327
1734276413980,2024-12-15T15:26:53.980Z,21457,0.06566404,0.36074233,0.010616327
1734276413990,2024-12-15T15:26:53.990Z,21467,0.08035938,0.35973573,0.024268836
1734276413994,2024-12-15T15:26:53.994Z,21471,0.08035938,0.35973573,0.024268836
1734276414005,2024-12-15T15:26:54.005Z,21482,0.07910966,0.35485867,0.028451497
1734276414008,2024-12-15T15:26:54.008Z,21485,0.07910966,0.35485867,0.028451497
1734276414017,2024-12-15T15:26:54.017Z,21494,0.06981265,0.3553806,0.021777654
1734276414020,2024-12-15T15:26:54.020Z,21497,0.06981265,0.3553806,0.021777654
1734276414030,2024-12-15T15:26:54.030Z,21507,0.049227767,0.3583763,0.0021318886
1734276414034,2024-12-15T15:26:54.034Z,21511,0.049227767,0.3583763,0.0021318886
1734276414044,2024-12-15T15:26:54.044Z,21521,0.05413943,0.35602933,-0.004878845
1734276414047,2024-12-15T15:26:54.047Z,21524,0.05413943,0.35602933,-0.004878845
1734276414057,2024-12-15T15:26:54.057Z,21534,0.052363943,0.34979537,-0.007580253
1734276414061,2024-12-15T15:26:54.061Z,21538,0.052363943,0.34979537,-0.007580253
1734276414071,2024-12-15T15:26:54.071Z,21548,0.037057675,0.33622795,-0.023319334
1734276414075,2024-12-15T15:26:54.075Z,21552,0.037057675,0.33622795,-0.023319334
1734276414086,2024-12-15T15:26:54.086Z,21563,0.028284108,0.31385517,-0.013524854
1734276414089,2024-12-15T15:26:54.089Z,21566,0.028284108,0.31385517,-0.013524854
1734276414097,2024-12-15T15:26:54.097Z,21574,0.037777808,0.3104916,-0.02861201
1734276414100,2024-12-15T15:26:54.100Z,21577,0.037777808,0.3104916,-0.02861201
1734276414109,2024-12-15T15:26:54.109Z,21586,0.032205187,0.2992927,-0.032555453
1734276414112,2024-12-15T15:26:54.112Z,21589,0.032205187,0.2992927,-0.032555453
1734276414122,2024-12-15T15:26:54.122Z,21599,-0.015805561,0.2900644,-0.052397788
1734276414125,2024-12-15T15:26:54.125Z,21602,-0.015805561,0.2900644,-0.052397788
1734276414135,2024-12-15T15:26:54.135Z,21612,-0.011241325,0.28425425,-0.08687407
1734276414139,2024-12-15T15:26:54.139Z,21616,-0.011241325,0.28425425,-0.08687407
1734276414149,2024-12-15T15:26:54.149Z,21626,0.03929323,0.2731385,-0.078183435
1734276414152,2024-12-15T15:26:54.152Z,21629,0.03929323,0.2731385,-0.078183435
1734276414162,2024-12-15T15:26:54.162Z,21639,0.030629225,0.25523877,-0.05113581
1734276414166,2024-12-15T15:26:54.166Z,21643,0.030629225,0.25523877,-0.05113581
1734276414177,2024-12-15T15:26:54.177Z,21654,0.017978393,0.25200325,-0.084595375
1734276414181,2024-12-15T15:26:54.181Z,21658,0.017978393,0.25200325,-0.084595375
1734276414191,2024-12-15T15:26:54.191Z,21668,-0.0014722818,0.24243797,-0.1056002
1734276414194,2024-12-15T15:26:54.194Z,21671,-0.0014722818,0.24243797,-0.1056002
1734276414205,2024-12-15T15:26:54.205Z,21682,-0.012017653,0.22995098,-0.09114435
1734276414208,2024-12-15T15:26:54.208Z,21685,-0.012017653,0.22995098,-0.09114435
1734276414217,2024-12-15T15:26:54.217Z,21694,0.01947975,0.22675902,-0.09981892
1734276414220,2024-12-15T15:26:54.220Z,21697,0.01947975,0.22675902,-0.09981892
1734276414230,2024-12-15T15:26:54.230Z,21707,0.08777145,0.2133978,-0.08715224
1734276414233,2024-12-15T15:26:54.233Z,21710,0.08777145,0.2133978,-0.08715224
1734276414245,2024-12-15T15:26:54.245Z,21722,0.055923358,0.18498728,-0.05347523
1734276414249,2024-12-15T15:26:54.249Z,21726,0.055923358,0.18498728,-0.05347523
1734276414264,2024-12-15T15:26:54.264Z,21741,0.047353107,0.17852652,-0.06173965
1734276414269,2024-12-15T15:26:54.269Z,21746,0.047353107,0.17852652,-0.06173965
1734276414280,2024-12-15T15:26:54.280Z,21757,0.038134,0.16278908,-0.04727977
1734276414283,2024-12-15T15:26:54.283Z,21760,0.038134,0.16278908,-0.04727977
1734276414293,2024-12-15T15:26:54.293Z,21770,0.040593505,0.14360464,-0.029238468
1734276414296,2024-12-15T15:26:54.296Z,21773,0.040593505,0.14360464,-0.029238468
1734276414305,2024-12-15T15:26:54.305Z,21782,0.04603799,0.12635152,-0.03716064
1734276414308,2024-12-15T15:26:54.308Z,21785,0.04603799,0.12635152,-0.03716064
1734276414317,2024-12-15T15:26:54.317Z,21794,0.04272812,0.10030596,-0.026443781
1734276414320,2024-12-15T15:26:54.320Z,21797,0.04272812,0.10030596,-0.026443781
1734276414332,2024-12-15T15:26:54.332Z,21809,0.06482694,0.07180519,-0.021659521
1734276414336,2024-12-15T15:26:54.336Z,21813,0.06482694,0.07180519,-0.021659521
1734276414346,2024-12-15T15:26:54.346Z,21823,0.095403284,0.04772237,-0.014249179
1734276414349,2024-12-15T15:26:54.349Z,21826,0.095403284,0.04772237,-0.014249179
1734276414358,2024-12-15T15:26:54.358Z,21835,0.080562055,0.01586723,-0.0034175764
1734276414360,2024-12-15T15:26:54.360Z,21837,0.080562055,0.01586723,-0.0034175764
1734276414370,2024-12-15T15:26:54.370Z,21847,0.052226327,-0.011118526,-0.0011452438
1734276414373,2024-12-15T15:26:54.373Z,21850,0.052226327,-0.011118526,-0.0011452438
1734276414386,2024-12-15T15:26:54.386Z,21863,0.05797092,-0.02300492,-9.368359E-4
1734276414390,2024-12-15T15:26:54.390Z,21867,0.05797092,-0.02300492,-9.368359E-4
1734276414400,2024-12-15T15:26:54.400Z,21877,0.020867476,-0.039832663,-0.010906605
1734276414403,2024-12-15T15:26:54.403Z,21880,0.020867476,-0.039832663,-0.010906605
1734276414412,2024-12-15T15:26:54.412Z,21889,0.037231192,-0.04597347,-0.027846245
1734276414415,2024-12-15T15:26:54.415Z,21892,0.037231192,-0.04597347,-0.027846245
1734276414424,2024-12-15T15:26:54.424Z,21901,0.019630497,-0.06486034,-0.004410445
1734276414428,2024-12-15T15:26:54.428Z,21905,0.019630497,-0.06486034,-0.004410445
1734276414439,2024-12-15T15:26:54.439Z,21916,0.022387493,-0.073579565,-0.009631
1734276414443,2024-12-15T15:26:54.443Z,21920,0.022387493,-0.073579565,-0.009631
1734276414455,2024-12-15T15:26:54.455Z,21932,0.025850387,-0.076989554,-0.018063094
1734276414459,2024-12-15T15:26:54.459Z,21936,0.025850387,-0.076989554,-0.018063094
1734276414471,2024-12-15T15:26:54.471Z,21948,0.015271465,-0.088734455,-0.025650738
1734276414474,2024-12-15T15:26:54.474Z,21951,0.015271465,-0.088734455,-0.025650738
1734276414485,2024-12-15T15:26:54.485Z,21962,0.018464934,-0.094638556,-0.031761996
1734276414488,2024-12-15T15:26:54.488Z,21965,0.018464934,-0.094638556,-0.031761996
1734276414496,2024-12-15T15:26:54.496Z,21973,0.049954936,-0.10688681,-0.024656769
1734276414500,2024-12-15T15:26:54.500Z,21977,0.049954936,-0.10688681,-0.024656769
1734276414510,2024-12-15T15:26:54.510Z,21987,0.020017153,-0.1147491,-0.028191894
1734276414513,2024-12-15T15:26:54.513Z,21990,0.020017153,-0.1147491,-0.028191894
1734276414528,2024-12-15T15:26:54.528Z,22005,-0.035378538,-0.12412183,-0.051027358
1734276414531,2024-12-15T15:26:54.531Z,22008,-0.035378538,-0.12412183,-0.051027358
1734276414541,2024-12-15T15:26:54.541Z,22018,-0.0039648623,-0.13546947,-0.034393433
1734276414543,2024-12-15T15:26:54.543Z,22020,-0.0039648623,-0.13546947,-0.034393433
1734276414553,2024-12-15T15:26:54.553Z,22030,-0.009903172,-0.14633788,-0.0135495365
1734276414556,2024-12-15T15:26:54.556Z,22033,-0.009903172,-0.14633788,-0.0135495365
1734276414567,2024-12-15T15:26:54.567Z,22044,-0.009347815,-0.15232377,-0.026653739
1734276414570,2024-12-15T15:26:54.570Z,22047,-0.009347815,-0.15232377,-0.026653739
1734276414581,2024-12-15T15:26:54.581Z,22058,-0.009667894,-0.16464631,0.0029985239
1734276414585,2024-12-15T15:26:54.585Z,22062,-0.009667894,-0.16464631,0.0029985239
1734276414595,2024-12-15T15:26:54.595Z,22072,-0.009804588,-0.16136177,0.008843215
1734276414598,2024-12-15T15:26:54.598Z,22075,-0.009804588,-0.16136177,0.008843215
1734276414608,2024-12-15T15:26:54.608Z,22085,0.014473864,-0.14829703,-0.001271842
1734276414611,2024-12-15T15:26:54.611Z,22088,0.014473864,-0.14829703,-0.001271842
1734276414622,2024-12-15T15:26:54.622Z,22099,0.01911782,-0.1439802,0.009870704
1734276414625,2024-12-15T15:26:54.625Z,22102,0.01911782,-0.1439802,0.009870704
1734276414635,2024-12-15T15:26:54.635Z,22112,-0.018116362,-0.14213552,0.017472867
1734276414639,2024-12-15T15:26:54.639Z,22116,-0.018116362,-0.14213552,0.017472867
1734276414650,2024-12-15T15:26:54.650Z,22127,-0.019053988,-0.13253307,0.00819546
1734276414656,2024-12-15T15:26:54.656Z,22133,-0.019053988,-0.13253307,0.00819546
1734276414666,2024-12-15T15:26:54.666Z,22143,0.020032555,-0.12489699,0.02562352
1734276414669,2024-12-15T15:26:54.669Z,22146,0.020032555,-0.12489699,0.02562352
1734276414680,2024-12-15T15:26:54.680Z,22157,0.017720211,-0.12707107,0.036433097
1734276414683,2024-12-15T15:26:54.683Z,22160,0.017720211,-0.12707107,0.036433097
1734276414694,2024-12-15T15:26:54.694Z,22171,0.0046975263,-0.12591216,0.047265258
1734276414698,2024-12-15T15:26:54.698Z,22175,0.0046975263,-0.12591216,0.047265258
1734276414710,2024-12-15T15:26:54.710Z,22187,0.026223017,-0.12531593,0.06093105
1734276414714,2024-12-15T15:26:54.714Z,22191,0.026223017,-0.12531593,0.06093105
1734276414723,2024-12-15T15:26:54.723Z,22200,0.011936185,-0.12381871,0.061240695
1734276414727,2024-12-15T15:26:54.727Z,22204,0.011936185,-0.12381871,0.061240695
1734276414739,2024-12-15T15:26:54.739Z,22216,0.0061258157,-0.121404044,0.059859987
1734276414742,2024-12-15T15:26:54.742Z,22219,0.0061258157,-0.121404044,0.059859987
1734276414753,2024-12-15T15:26:54.753Z,22230,0.0028383327,-0.11950694,0.037898753
1734276414756,2024-12-15T15:26:54.756Z,22233,0.0028383327,-0.11950694,0.037898753
1734276414770,2024-12-15T15:26:54.770Z,22247,0.02723573,-0.119547784,0.0354408
1734276414773,2024-12-15T15:26:54.773Z,22250,0.02723573,-0.119547784,0.0354408
1734276414784,2024-12-15T15:26:54.784Z,22261,0.03507228,-0.12629804,0.035585344
1734276414788,2024-12-15T15:26:54.788Z,22265,0.03507228,-0.12629804,0.035585344
1734276414798,2024-12-15T15:26:54.798Z,22275,0.035257306,-0.12956741,0.033364963
1734276414802,2024-12-15T15:26:54.802Z,22279,0.035257306,-0.12956741,0.033364963
1734276414815,2024-12-15T15:26:54.815Z,22292,0.022642769,-0.12501116,0.033072416
1734276414820,2024-12-15T15:26:54.820Z,22297,0.022642769,-0.12501116,0.033072416
1734276414835,2024-12-15T15:26:54.835Z,22312,0.01684943,-0.12339636,0.039023224
1734276414838,2024-12-15T15:26:54.838Z,22315,0.01684943,-0.12339636,0.039023224
1734276414848,2024-12-15T15:26:54.848Z,22325,0.020287648,-0.112038605,0.053994823
1734276414851,2024-12-15T15:26:54.851Z,22328,0.020287648,-0.112038605,0.053994823
1734276414861,2024-12-15T15:26:54.861Z,22338,0.016775085,-0.09531521,0.052654617
1734276414864,2024-12-15T15:26:54.864Z,22341,0.016775085,-0.09531521,0.052654617
1734276414875,2024-12-15T15:26:54.875Z,22352,0.0048832456,-0.09320289,0.026646445
1734276414877,2024-12-15T15:26:54.877Z,22354,0.0048832456,-0.09320289,0.026646445
1734276414888,2024-12-15T15:26:54.888Z,22365,0.034019537,-0.090060815,0.018728584
1734276414891,2024-12-15T15:26:54.891Z,22368,0.034019537,-0.090060815,0.018728584
1734276414902,2024-12-15T15:26:54.902Z,22379,0.0499911,-0.0994956,0.027690437
1734276414905,2024-12-15T15:26:54.905Z,22382,0.0499911,-0.0994956,0.027690437
1734276414916,2024-12-15T15:26:54.916Z,22393,0.04873083,-0.11369347,0.039120737
1734276414920,2024-12-15T15:26:54.920Z,22397,0.04873083,-0.11369347,0.039120737
1734276414930,2024-12-15T15:26:54.930Z,22407,0.029219244,-0.10915414,0.025862398
1734276414933,2024-12-15T15:26:54.933Z,22410,0.029219244,-0.10915414,0.025862398
1734276414942,2024-12-15T15:26:54.942Z,22419,0.011573329,-0.10557348,0.026319474
1734276414946,2024-12-15T15:26:54.946Z,22423,0.011573329,-0.10557348,0.026319474
1734276414957,2024-12-15T15:26:54.957Z,22434,-0.009804612,-0.09861152,0.031645477
1734276414961,2024-12-15T15:26:54.961Z,22438,-0.009804612,-0.09861152,0.031645477
1734276414972,2024-12-15T15:26:54.972Z,22449,-0.0060406635,-0.09362913,0.02639365
1734276414975,2024-12-15T15:26:54.975Z,22452,-0.0060406635,-0.09362913,0.02639365
1734276414983,2024-12-15T15:26:54.983Z,22460,0.007998625,-0.09646458,0.027983833
1734276414986,2024-12-15T15:26:54.986Z,22463,0.007998625,-0.09646458,0.027983833
1734276414996,2024-12-15T15:26:54.996Z,22473,0.00695619,-0.104700096,0.029920362
1734276414999,2024-12-15T15:26:54.999Z,22476,0.00695619,-0.104700096,0.029920362
1734276415009,2024-12-15T15:26:55.009Z,22486,0.027446065,-0.11345269,0.016575642
1734276415012,2024-12-15T15:26:55.012Z,22489,0.027446065,-0.11345269,0.016575642
1734276415024,2024-12-15T15:26:55.024Z,22501,0.019821223,-0.123644054,0.013310331
1734276415027,2024-12-15T15:26:55.027Z,22504,0.019821223,-0.123644054,0.013310331
1734276415036,2024-12-15T15:26:55.036Z,22513,0.008919682,-0.12950478,0.024414524
1734276415039,2024-12-15T15:26:55.039Z,22516,0.008919682,-0.12950478,0.024414524
1734276415049,2024-12-15T15:26:55.049Z,22526,-0.0021924132,-0.12274247,0.007529708
1734276415052,2024-12-15T15:26:55.052Z,22529,-0.0021924132,-0.12274247,0.007529708
1734276415064,2024-12-15T15:26:55.064Z,22541,0.003017876,-0.112610325,-0.0055121463
1734276415067,2024-12-15T15:26:55.067Z,22544,0.003017876,-0.112610325,-0.0055121463
1734276415078,2024-12-15T15:26:55.078Z,22555,0.017646814,-0.10104417,-9.942607E-4
1734276415082,2024-12-15T15:26:55.082Z,22559,0.017646814,-0.10104417,-9.942607E-4
1734276415092,2024-12-15T15:26:55.092Z,22569,-0.011846024,-0.09394557,-0.011727759
1734276415095,2024-12-15T15:26:55.095Z,22572,-0.011846024,-0.09394557,-0.011727759
1734276415105,2024-12-15T15:26:55.105Z,22582,-0.0063697495,-0.09081614,-0.036670808
1734276415108,2024-12-15T15:26:55.108Z,22585,-0.0063697495,-0.09081614,-0.036670808
1734276415119,2024-12-15T15:26:55.119Z,22596,0.0163735,-0.09402444,-0.03638896
1734276415123,2024-12-15T15:26:55.123Z,22600,0.0163735,-0.09402444,-0.03638896
1734276415133,2024-12-15T15:26:55.133Z,22610,0.01775646,-0.105039686,-0.021244796
1734276415136,2024-12-15T15:26:55.136Z,22613,0.01775646,-0.105039686,-0.021244796
1734276415147,2024-12-15T15:26:55.147Z,22624,0.024537677,-0.1036649,-0.03025493
1734276415150,2024-12-15T15:26:55.150Z,22627,0.024537677,-0.1036649,-0.03025493
1734276415160,2024-12-15T15:26:55.160Z,22637,0.0084842555,-0.09985765,-0.026488977
1734276415164,2024-12-15T15:26:55.164Z,22641,0.0084842555,-0.09985765,-0.026488977
1734276415173,2024-12-15T15:26:55.173Z,22650,-0.005418837,-0.097040094,-0.030873353
1734276415177,2024-12-15T15:26:55.177Z,22654,-0.005418837,-0.097040094,-0.030873353
1734276415187,2024-12-15T15:26:55.187Z,22664,-0.012258014,-0.08739331,-0.02769689
1734276415190,2024-12-15T15:26:55.190Z,22667,-0.012258014,-0.08739331,-0.02769689
1734276415198,2024-12-15T15:26:55.198Z,22675,-4.2675945E-4,-0.08015584,-0.018779311
1734276415202,2024-12-15T15:26:55.202Z,22679,-4.2675945E-4,-0.08015584,-0.018779311
1734276415211,2024-12-15T15:26:55.211Z,22688,0.002718183,-0.075826764,-0.012508536
1734276415214,2024-12-15T15:26:55.214Z,22691,0.002718183,-0.075826764,-0.012508536
1734276415223,2024-12-15T15:26:55.223Z,22700,0.01030004,-0.072948135,-0.007543712
1734276415227,2024-12-15T15:26:55.227Z,22704,0.01030004,-0.072948135,-0.007543712
1734276415237,2024-12-15T15:26:55.237Z,22714,-0.010248487,-0.07743048,-6.41373E-4
1734276415241,2024-12-15T15:26:55.241Z,22718,-0.010248487,-0.07743048,-6.41373E-4
1734276415250,2024-12-15T15:26:55.250Z,22727,-0.02221663,-0.08245935,-0.001112915
1734276415253,2024-12-15T15:26:55.253Z,22730,-0.02221663,-0.08245935,-0.001112915
1734276415263,2024-12-15T15:26:55.263Z,22740,-0.006727038,-0.086526446,0.0013995284
1734276415267,2024-12-15T15:26:55.267Z,22744,-0.006727038,-0.086526446,0.0013995284
1734276415277,2024-12-15T15:26:55.277Z,22754,8.983136E-4,-0.0969233,0.009848057
1734276415280,2024-12-15T15:26:55.280Z,22757,8.983136E-4,-0.0969233,0.009848057
1734276415293,2024-12-15T15:26:55.293Z,22770,0.0030294852,-0.10241536,0.016355364
1734276415295,2024-12-15T15:26:55.295Z,22772,0.0030294852,-0.10241536,0.016355364
1734276415306,2024-12-15T15:26:55.306Z,22783,0.0016115527,-0.1108162,0.02382812
1734276415310,2024-12-15T15:26:55.310Z,22787,0.0016115527,-0.1108162,0.02382812
1734276415319,2024-12-15T15:26:55.319Z,22796,-0.012994142,-0.116306126,0.023357175
1734276415323,2024-12-15T15:26:55.323Z,22800,-0.012994142,-0.116306126,0.023357175
1734276415332,2024-12-15T15:26:55.332Z,22809,-0.00953199,-0.12132955,0.016879784
1734276415335,2024-12-15T15:26:55.335Z,22812,-0.00953199,-0.12132955,0.016879784
1734276415346,2024-12-15T15:26:55.346Z,22823,-0.02165754,-0.1258821,0.020587742
1734276415351,2024-12-15T15:26:55.351Z,22828,-0.02165754,-0.1258821,0.020587742
1734276415366,2024-12-15T15:26:55.366Z,22843,-0.020992791,-0.1319351,0.032475058
1734276415370,2024-12-15T15:26:55.370Z,22847,-0.020992791,-0.1319351,0.032475058
1734276415380,2024-12-15T15:26:55.380Z,22857,-0.014428023,-0.13899665,0.031988468
1734276415383,2024-12-15T15:26:55.383Z,22860,-0.014428023,-0.13899665,0.031988468
1734276415393,2024-12-15T15:26:55.393Z,22870,2.821521E-4,-0.14652032,0.03002082
1734276415396,2024-12-15T15:26:55.396Z,22873,2.821521E-4,-0.14652032,0.03002082
1734276415405,2024-12-15T15:26:55.405Z,22882,-0.0012098952,-0.16917427,0.046050902
1734276415409,2024-12-15T15:26:55.409Z,22886,-0.0012098952,-0.16917427,0.046050902
1734276415420,2024-12-15T15:26:55.420Z,22897,-0.018466076,-0.18498227,0.045362
1734276415424,2024-12-15T15:26:55.424Z,22901,-0.018466076,-0.18498227,0.045362
1734276415432,2024-12-15T15:26:55.432Z,22909,-0.033830985,-0.19931649,0.042218175
1734276415436,2024-12-15T15:26:55.436Z,22913,-0.033830985,-0.19931649,0.042218175
1734276415445,2024-12-15T15:26:55.445Z,22922,-0.032100935,-0.20970896,0.034948166
1734276415450,2024-12-15T15:26:55.450Z,22927,-0.032100935,-0.20970896,0.034948166
1734276415459,2024-12-15T15:26:55.459Z,22936,-0.046843007,-0.2278901,0.053433243
1734276415463,2024-12-15T15:26:55.463Z,22940,-0.046843007,-0.2278901,0.053433243
1734276415475,2024-12-15T15:26:55.475Z,22952,-0.049123723,-0.2397485,0.047698665
1734276415478,2024-12-15T15:26:55.478Z,22955,-0.049123723,-0.2397485,0.047698665
1734276415489,2024-12-15T15:26:55.489Z,22966,-0.05114284,-0.24772932,0.046539184
1734276415492,2024-12-15T15:26:55.492Z,22969,-0.05114284,-0.24772932,0.046539184
1734276415501,2024-12-15T15:26:55.501Z,22978,-0.04418862,-0.2596369,0.041129023
1734276415504,2024-12-15T15:26:55.504Z,22981,-0.04418862,-0.2596369,0.041129023
1734276415515,2024-12-15T15:26:55.515Z,22992,-0.041633584,-0.26860052,0.040238857
1734276415518,2024-12-15T15:26:55.518Z,22995,-0.041633584,-0.26860052,0.040238857
1734276415527,2024-12-15T15:26:55.527Z,23004,-0.035756696,-0.27557358,0.03609631
1734276415530,2024-12-15T15:26:55.530Z,23007,-0.035756696,-0.27557358,0.03609631
1734276415541,2024-12-15T15:26:55.541Z,23018,-0.050506283,-0.28052738,0.028397208
1734276415545,2024-12-15T15:26:55.545Z,23022,-0.050506283,-0.28052738,0.028397208
1734276415555,2024-12-15T15:26:55.555Z,23032,-0.05015761,-0.276625,0.014359063
1734276415559,2024-12-15T15:26:55.559Z,23036,-0.05015761,-0.276625,0.014359063
1734276415568,2024-12-15T15:26:55.568Z,23045,-0.060946506,-0.27708519,0.023728065
1734276415571,2024-12-15T15:26:55.571Z,23048,-0.060946506,-0.27708519,0.023728065
1734276415581,2024-12-15T15:26:55.581Z,23058,-0.06706658,-0.272212,0.022586133
1734276415585,2024-12-15T15:26:55.585Z,23062,-0.06706658,-0.272212,0.022586133
1734276415594,2024-12-15T15:26:55.594Z,23071,-0.061137717,-0.26691765,0.020089056
1734276415597,2024-12-15T15:26:55.597Z,23074,-0.061137717,-0.26691765,0.020089056
1734276415607,2024-12-15T15:26:55.607Z,23084,-0.054440632,-0.26120368,0.028365882
1734276415611,2024-12-15T15:26:55.611Z,23088,-0.054440632,-0.26120368,0.028365882
1734276415624,2024-12-15T15:26:55.624Z,23101,-0.051007908,-0.2526309,0.034970544
1734276415627,2024-12-15T15:26:55.627Z,23104,-0.051007908,-0.2526309,0.034970544
1734276415639,2024-12-15T15:26:55.639Z,23116,-0.038705416,-0.24361515,0.028756015
1734276415643,2024-12-15T15:26:55.643Z,23120,-0.038705416,-0.24361515,0.028756015
1734276415654,2024-12-15T15:26:55.654Z,23131,-0.041501265,-0.2336458,0.034250498
1734276415658,2024-12-15T15:26:55.658Z,23135,-0.041501265,-0.2336458,0.034250498
1734276415668,2024-12-15T15:26:55.668Z,23145,-0.038864173,-0.22614636,0.034853045
1734276415671,2024-12-15T15:26:55.671Z,23148,-0.038864173,-0.22614636,0.034853045
1734276415682,2024-12-15T15:26:55.682Z,23159,-0.06493818,-0.21135615,0.01595133
1734276415686,2024-12-15T15:26:55.686Z,23163,-0.06493818,-0.21135615,0.01595133
1734276415696,2024-12-15T15:26:55.696Z,23173,-0.047883704,-0.20051205,0.005952478
1734276415699,2024-12-15T15:26:55.699Z,23176,-0.047883704,-0.20051205,0.005952478
1734276415709,2024-12-15T15:26:55.709Z,23186,-0.028014757,-0.19453306,0.006768763
1734276415711,2024-12-15T15:26:55.711Z,23188,-0.028014757,-0.19453306,0.006768763
1734276415721,2024-12-15T15:26:55.721Z,23198,-0.026337987,-0.19000424,-0.002166746
1734276415724,2024-12-15T15:26:55.724Z,23201,-0.026337987,-0.19000424,-0.002166746
1734276415734,2024-12-15T15:26:55.734Z,23211,-0.011614902,-0.19034003,0.0020857446
1734276415738,2024-12-15T15:26:55.738Z,23215,-0.011614902,-0.19034003,0.0020857446
1734276415749,2024-12-15T15:26:55.749Z,23226,-0.020476041,-0.19262478,0.018850625
1734276415752,2024-12-15T15:26:55.752Z,23229,-0.020476041,-0.19262478,0.018850625
1734276415761,2024-12-15T15:26:55.761Z,23238,-0.03918774,-0.18760592,0.01185161
1734276415764,2024-12-15T15:26:55.764Z,23241,-0.03918774,-0.18760592,0.01185161
1734276415776,2024-12-15T15:26:55.776Z,23253,-0.049236517,-0.19088715,0.016832054
1734276415779,2024-12-15T15:26:55.779Z,23256,-0.049236517,-0.19088715,0.016832054
1734276415789,2024-12-15T15:26:55.789Z,23266,-0.048569374,-0.19173884,0.019749813
1734276415792,2024-12-15T15:26:55.792Z,23269,-0.048569374,-0.19173884,0.019749813
1734276415801,2024-12-15T15:26:55.801Z,23278,-0.041666195,-0.196493,0.023941008
1734276415804,2024-12-15T15:26:55.804Z,23281,-0.041666195,-0.196493,0.023941008
1734276415813,2024-12-15T15:26:55.813Z,23290,-0.050505213,-0.20759596,0.03272312
1734276415816,2024-12-15T15:26:55.816Z,23293,-0.050505213,-0.20759596,0.03272312
1734276415826,2024-12-15T15:26:55.826Z,23303,-0.048257574,-0.21382156,0.03079533
1734276415829,2024-12-15T15:26:55.829Z,23306,-0.048257574,-0.21382156,0.03079533
1734276415842,2024-12-15T15:26:55.842Z,23319,-0.05492631,-0.21369933,0.017276196
1734276415845,2024-12-15T15:26:55.845Z,23322,-0.05492631,-0.21369933,0.017276196
1734276415857,2024-12-15T15:26:55.857Z,23334,-0.049457926,-0.2130964,0.006889046
1734276415860,2024-12-15T15:26:55.860Z,23337,-0.049457926,-0.2130964,0.006889046
1734276415870,2024-12-15T15:26:55.870Z,23347,-0.054828018,-0.21005516,0.0127759855
1734276415873,2024-12-15T15:26:55.873Z,23350,-0.054828018,-0.21005516,0.0127759855
1734276415884,2024-12-15T15:26:55.884Z,23361,-0.053913306,-0.20898311,0.008025142
1734276415888,2024-12-15T15:26:55.888Z,23365,-0.053913306,-0.20898311,0.008025142
1734276415898,2024-12-15T15:26:55.898Z,23375,-0.0545054,-0.2040185,0.0020157993
1734276415901,2024-12-15T15:26:55.901Z,23378,-0.0545054,-0.2040185,0.0020157993
1734276415918,2024-12-15T15:26:55.918Z,23395,-0.040003017,-0.20150301,0.00800472
1734276415922,2024-12-15T15:26:55.922Z,23399,-0.040003017,-0.20150301,0.00800472
1734276415931,2024-12-15T15:26:55.931Z,23408,-0.051979534,-0.20044611,0.0073924307
1734276415934,2024-12-15T15:26:55.934Z,23411,-0.051979534,-0.20044611,0.0073924307
1734276415943,2024-12-15T15:26:55.943Z,23420,-0.06206709,-0.19205831,-0.002589494
1734276415945,2024-12-15T15:26:55.945Z,23422,-0.06206709,-0.19205831,-0.002589494
1734276415956,2024-12-15T15:26:55.956Z,23433,-0.031251866,-0.18264891,0.006198101
1734276415959,2024-12-15T15:26:55.959Z,23436,-0.031251866,-0.18264891,0.006198101
1734276415969,2024-12-15T15:26:55.969Z,23446,-0.03715636,-0.17660837,0.010885411
1734276415973,2024-12-15T15:26:55.973Z,23450,-0.03715636,-0.17660837,0.010885411
1734276415982,2024-12-15T15:26:55.982Z,23459,-0.024548702,-0.17443575,0.0022368736
1734276415986,2024-12-15T15:26:55.986Z,23463,-0.024548702,-0.17443575,0.0022368736
1734276415996,2024-12-15T15:26:55.996Z,23473,-0.011432004,-0.17468977,0.010929434
1734276415998,2024-12-15T15:26:55.998Z,23475,-0.011432004,-0.17468977,0.010929434
1734276416007,2024-12-15T15:26:56.007Z,23484,-0.0065989867,-0.17249721,0.021703811
1734276416010,2024-12-15T15:26:56.010Z,23487,-0.0065989867,-0.17249721,0.021703811
1734276416018,2024-12-15T15:26:56.018Z,23495,-2.539867E-4,-0.159573,0.024702756
1734276416021,2024-12-15T15:26:56.021Z,23498,-2.539867E-4,-0.159573,0.024702756
1734276416030,2024-12-15T15:26:56.030Z,23507,0.0012506056,-0.14128235,0.023402693
1734276416035,2024-12-15T15:26:56.035Z,23512,0.0012506056,-0.14128235,0.023402693
1734276416045,2024-12-15T15:26:56.045Z,23522,0.0042151534,-0.114191964,0.026621658
1734276416047,2024-12-15T15:26:56.047Z,23524,0.0042151534,-0.114191964,0.026621658
1734276416060,2024-12-15T15:26:56.060Z,23537,0.0056028785,-0.088039525,0.03287757
1734276416063,2024-12-15T15:26:56.063Z,23540,0.0056028785,-0.088039525,0.03287757
1734276416075,2024-12-15T15:26:56.075Z,23552,0.00736931,-0.07112241,0.03196195
1734276416078,2024-12-15T15:26:56.078Z,23555,0.00736931,-0.07112241,0.03196195
1734276416089,2024-12-15T15:26:56.089Z,23566,0.004690695,-0.060544968,0.018290192
1734276416092,2024-12-15T15:26:56.092Z,23569,0.004690695,-0.060544968,0.018290192
1734276416101,2024-12-15T15:26:56.101Z,23578,0.00887716,-0.0543499,0.02635878
1734276416104,2024-12-15T15:26:56.104Z,23581,0.00887716,-0.0543499,0.02635878
1734276416114,2024-12-15T15:26:56.114Z,23591,0.027841,-0.048675787,0.038877424
1734276416116,2024-12-15T15:26:56.116Z,23593,0.027841,-0.048675787,0.038877424
1734276416127,2024-12-15T15:26:56.127Z,23604,0.030170374,-0.027378442,0.026379792
1734276416129,2024-12-15T15:26:56.129Z,23606,0.030170374,-0.027378442,0.026379792
1734276416138,2024-12-15T15:26:56.138Z,23615,0.035725236,-0.0026096425,0.021212157
1734276416141,2024-12-15T15:26:56.141Z,23618,0.035725236,-0.0026096425,0.021212157
1734276416150,2024-12-15T15:26:56.150Z,23627,0.04100749,0.03297738,0.020440225
1734276416153,2024-12-15T15:26:56.153Z,23630,0.04100749,0.03297738,0.020440225
1734276416163,2024-12-15T15:26:56.163Z,23640,0.05426673,0.075479686,0.021475462
1734276416166,2024-12-15T15:26:56.166Z,23643,0.05426673,0.075479686,0.021475462
1734276416176,2024-12-15T15:26:56.176Z,23653,0.052926995,0.10979228,0.021379739
1734276416179,2024-12-15T15:26:56.179Z,23656,0.052926995,0.10979228,0.021379739
1734276416188,2024-12-15T15:26:56.188Z,23665,0.034220062,0.15345763,-0.0021839465
1734276416191,2024-12-15T15:26:56.191Z,23668,0.034220062,0.15345763,-0.0021839465
1734276416200,2024-12-15T15:26:56.200Z,23677,0.04114743,0.18597366,-0.020688746
1734276416203,2024-12-15T15:26:56.203Z,23680,0.04114743,0.18597366,-0.020688746
1734276416213,2024-12-15T15:26:56.213Z,23690,0.05608069,0.20100407,-0.02439618
1734276416217,2024-12-15T15:26:56.217Z,23694,0.05608069,0.20100407,-0.02439618
1734276416227,2024-12-15T15:26:56.227Z,23704,0.057901606,0.21761112,-0.02959007
1734276416230,2024-12-15T15:26:56.230Z,23707,0.057901606,0.21761112,-0.02959007
1734276416241,2024-12-15T15:26:56.241Z,23718,0.07253584,0.23381901,-0.03636995
1734276416243,2024-12-15T15:26:56.243Z,23720,0.07253584,0.23381901,-0.03636995
1734276416252,2024-12-15T15:26:56.252Z,23729,0.043913737,0.23787811,-0.009176191
1734276416256,2024-12-15T15:26:56.256Z,23733,0.043913737,0.23787811,-0.009176191
1734276416263,2024-12-15T15:26:56.263Z,23740,0.020300703,0.25359803,-0.016897174
1734276416266,2024-12-15T15:26:56.266Z,23743,0.020300703,0.25359803,-0.016897174
1734276416275,2024-12-15T15:26:56.275Z,23752,0.080287814,0.29075816,-0.042833384
1734276416278,2024-12-15T15:26:56.278Z,23755,0.080287814,0.29075816,-0.042833384
1734276416287,2024-12-15T15:26:56.287Z,23764,0.073611856,0.30991432,-0.02923229
1734276416290,2024-12-15T15:26:56.290Z,23767,0.073611856,0.30991432,-0.02923229
1734276416300,2024-12-15T15:26:56.300Z,23777,0.05990509,0.33252844,-0.03132936
1734276416304,2024-12-15T15:26:56.304Z,23781,0.05990509,0.33252844,-0.03132936
1734276416313,2024-12-15T15:26:56.313Z,23790,0.06951665,0.3546799,-0.05196041
1734276416316,2024-12-15T15:26:56.316Z,23793,0.06951665,0.3546799,-0.05196041
1734276416325,2024-12-15T15:26:56.325Z,23802,0.07849071,0.37150353,-0.057288226
1734276416328,2024-12-15T15:26:56.328Z,23805,0.07849071,0.37150353,-0.057288226
1734276416338,2024-12-15T15:26:56.338Z,23815,0.04714607,0.36678168,-0.03917897
1734276416343,2024-12-15T15:26:56.343Z,23820,0.04714607,0.36678168,-0.03917897
1734276416354,2024-12-15T15:26:56.354Z,23831,0.016513975,0.37359115,-0.045989394
1734276416358,2024-12-15T15:26:56.358Z,23835,0.016513975,0.37359115,-0.045989394
1734276416365,2024-12-15T15:26:56.365Z,23842,0.04872406,0.38654348,-0.0659017
1734276416368,2024-12-15T15:26:56.368Z,23845,0.04872406,0.38654348,-0.0659017
1734276416378,2024-12-15T15:26:56.378Z,23855,0.09703983,0.39157555,-0.06658694
1734276416381,2024-12-15T15:26:56.381Z,23858,0.09703983,0.39157555,-0.06658694
1734276416394,2024-12-15T15:26:56.394Z,23871,0.093784735,0.39266658,-0.055883795
1734276416397,2024-12-15T15:26:56.397Z,23874,0.093784735,0.39266658,-0.055883795
1734276416407,2024-12-15T15:26:56.407Z,23884,0.08488111,0.40348023,-0.07482594
1734276416411,2024-12-15T15:26:56.411Z,23888,0.08488111,0.40348023,-0.07482594
1734276416423,2024-12-15T15:26:56.423Z,23900,0.08289765,0.4084352,-0.08125907
1734276416426,2024-12-15T15:26:56.426Z,23903,0.08289765,0.4084352,-0.08125907
1734276416434,2024-12-15T15:26:56.434Z,23911,0.091832295,0.4055597,-0.068267584
1734276416436,2024-12-15T15:26:56.436Z,23913,0.091832295,0.4055597,-0.068267584
1734276416445,2024-12-15T15:26:56.445Z,23922,0.09222952,0.40165898,-0.06237405
1734276416448,2024-12-15T15:26:56.448Z,23925,0.09222952,0.40165898,-0.06237405
1734276416458,2024-12-15T15:26:56.458Z,23935,0.07583614,0.3937892,-0.07677284
1734276416461,2024-12-15T15:26:56.461Z,23938,0.07583614,0.3937892,-0.07677284
1734276416471,2024-12-15T15:26:56.471Z,23948,0.1055088,0.38589036,-0.089452766
1734276416474,2024-12-15T15:26:56.474Z,23951,0.1055088,0.38589036,-0.089452766
1734276416481,2024-12-15T15:26:56.481Z,23958,0.11158324,0.36974275,-0.069644205
1734276416483,2024-12-15T15:26:56.483Z,23960,0.11158324,0.36974275,-0.069644205
1734276416492,2024-12-15T15:26:56.492Z,23969,0.09950395,0.35019952,-0.054622825
1734276416494,2024-12-15T15:26:56.494Z,23971,0.09950395,0.35019952,-0.054622825
1734276416502,2024-12-15T15:26:56.502Z,23979,0.10245998,0.34288368,-0.06742054
1734276416504,2024-12-15T15:26:56.504Z,23981,0.10245998,0.34288368,-0.06742054
1734276416512,2024-12-15T15:26:56.512Z,23989,0.08173397,0.32097465,-0.06314706
1734276416514,2024-12-15T15:26:56.514Z,23991,0.08173397,0.32097465,-0.06314706
1734276416523,2024-12-15T15:26:56.523Z,24000,0.06429953,0.29860216,-0.05548221
1734276416526,2024-12-15T15:26:56.526Z,24003,0.06429953,0.29860216,-0.05548221
1734276416536,2024-12-15T15:26:56.536Z,24013,0.075612664,0.2825918,-0.07019138
1734276416539,2024-12-15T15:26:56.539Z,24016,0.075612664,0.2825918,-0.07019138
1734276416549,2024-12-15T15:26:56.549Z,24026,0.051140398,0.25734165,-0.054957803
1734276416552,2024-12-15T15:26:56.552Z,24029,0.051140398,0.25734165,-0.054957803
1734276416562,2024-12-15T15:26:56.562Z,24039,0.02993292,0.22137675,-0.04226568
1734276416565,2024-12-15T15:26:56.565Z,24042,0.02993292,0.22137675,-0.04226568
1734276416575,2024-12-15T15:26:56.575Z,24052,0.024676243,0.19178304,-0.053764816
1734276416578,2024-12-15T15:26:56.578Z,24055,0.024676243,0.19178304,-0.053764816
1734276416586,2024-12-15T15:26:56.586Z,24063,0.024949314,0.16616829,-0.06392631
1734276416589,2024-12-15T15:26:56.589Z,24066,0.024949314,0.16616829,-0.06392631
1734276416598,2024-12-15T15:26:56.598Z,24075,0.013122801,0.13965744,-0.04016921
1734276416601,2024-12-15T15:26:56.601Z,24078,0.013122801,0.13965744,-0.04016921
1734276416609,2024-12-15T15:26:56.609Z,24086,0.017353173,0.11618204,-0.028311491
1734276416612,2024-12-15T15:26:56.612Z,24089,0.017353173,0.11618204,-0.028311491
1734276416621,2024-12-15T15:26:56.621Z,24098,0.009833908,0.10158739,-0.02464366
1734276416625,2024-12-15T15:26:56.625Z,24102,0.009833908,0.10158739,-0.02464366
1734276416635,2024-12-15T15:26:56.635Z,24112,-0.028330496,0.08704196,-0.020457832
1734276416640,2024-12-15T15:26:56.640Z,24117,-0.028330496,0.08704196,-0.020457832
1734276416649,2024-12-15T15:26:56.649Z,24126,-0.04998046,0.0719882,-0.020538926
1734276416653,2024-12-15T15:26:56.653Z,24130,-0.04998046,0.0719882,-0.020538926
1734276416663,2024-12-15T15:26:56.663Z,24140,-0.054097373,0.0657027,-0.026021415
1734276416666,2024-12-15T15:26:56.666Z,24143,-0.054097373,0.0657027,-0.026021415
1734276416675,2024-12-15T15:26:56.675Z,24152,-0.049422942,0.059385873,-0.019226817
1734276416678,2024-12-15T15:26:56.678Z,24155,-0.049422942,0.059385873,-0.019226817
1734276416687,2024-12-15T15:26:56.687Z,24164,-0.044313304,0.052561127,-0.021115748
1734276416690,2024-12-15T15:26:56.690Z,24167,-0.044313304,0.052561127,-0.021115748
1734276416698,2024-12-15T15:26:56.698Z,24175,-0.040226568,0.052555095,-0.031535562
1734276416701,2024-12-15T15:26:56.701Z,24178,-0.040226568,0.052555095,-0.031535562
1734276416710,2024-12-15T15:26:56.710Z,24187,-0.050762333,0.051066622,-0.042818483
1734276416713,2024-12-15T15:26:56.713Z,24190,-0.050762333,0.051066622,-0.042818483
1734276416722,2024-12-15T15:26:56.722Z,24199,-0.06212787,0.053452402,-0.040116128
1734276416725,2024-12-15T15:26:56.725Z,24202,-0.06212787,0.053452402,-0.040116128
1734276416734,2024-12-15T15:26:56.734Z,24211,-0.033702947,0.052377034,-0.03651899
1734276416738,2024-12-15T15:26:56.738Z,24215,-0.033702947,0.052377034,-0.03651899
1734276416749,2024-12-15T15:26:56.749Z,24226,-0.015006051,0.05552825,-0.030375594
1734276416754,2024-12-15T15:26:56.754Z,24231,-0.015006051,0.05552825,-0.030375594
1734276416766,2024-12-15T15:26:56.766Z,24243,-0.019693464,0.052993685,-0.027557492
1734276416769,2024-12-15T15:26:56.769Z,24246,-0.019693464,0.052993685,-0.027557492
1734276416779,2024-12-15T15:26:56.779Z,24256,-0.031755805,0.05243091,-0.029376924
1734276416783,2024-12-15T15:26:56.783Z,24260,-0.031755805,0.05243091,-0.029376924
1734276416796,2024-12-15T15:26:56.796Z,24273,-0.034501083,0.051380634,-0.01677838
1734276416799,2024-12-15T15:26:56.799Z,24276,-0.034501083,0.051380634,-0.01677838
1734276416809,2024-12-15T15:26:56.809Z,24286,-0.013252578,0.057174556,-0.008127904
1734276416812,2024-12-15T15:26:56.812Z,24289,-0.013252578,0.057174556,-0.008127904
1734276416821,2024-12-15T15:26:56.821Z,24298,-0.008611297,0.059079252,0.009640184
1734276416825,2024-12-15T15:26:56.825Z,24302,-0.008611297,0.059079252,0.009640184
1734276416834,2024-12-15T15:26:56.834Z,24311,-0.019071067,0.06245608,0.016971976
1734276416837,2024-12-15T15:26:56.837Z,24314,-0.019071067,0.06245608,0.016971976
1734276416847,2024-12-15T15:26:56.847Z,24324,-0.014735229,0.07069588,0.014280827
1734276416850,2024-12-15T15:26:56.850Z,24327,-0.014735229,0.07069588,0.014280827
1734276416858,2024-12-15T15:26:56.858Z,24335,-0.008757995,0.0745216,0.013859927
1734276416860,2024-12-15T15:26:56.860Z,24337,-0.008757995,0.0745216,0.013859927
1734276416869,2024-12-15T15:26:56.869Z,24346,-0.007442246,0.07293618,0.010635229
1734276416871,2024-12-15T15:26:56.871Z,24348,-0.007442246,0.07293618,0.010635229
1734276416879,2024-12-15T15:26:56.879Z,24356,-0.019054499,0.074229375,-0.0023065214
1734276416881,2024-12-15T15:26:56.881Z,24358,-0.019054499,0.074229375,-0.0023065214
1734276416890,2024-12-15T15:26:56.890Z,24367,-0.015445125,0.06955633,-0.012177647
1734276416893,2024-12-15T15:26:56.893Z,24370,-0.015445125,0.06955633,-0.012177647
1734276416906,2024-12-15T15:26:56.906Z,24383,0.01158749,0.059531454,-0.008568374
1734276416910,2024-12-15T15:26:56.910Z,24387,0.01158749,0.059531454,-0.008568374
1734276416919,2024-12-15T15:26:56.919Z,24396,0.03267402,0.05539084,-0.0043059587
1734276416922,2024-12-15T15:26:56.922Z,24399,0.03267402,0.05539084,-0.0043059587
1734276416930,2024-12-15T15:26:56.930Z,24407,0.041420404,0.046885166,-0.008230953
1734276416932,2024-12-15T15:26:56.932Z,24409,0.041420404,0.046885166,-0.008230953
1734276416941,2024-12-15T15:26:56.941Z,24418,0.046164718,0.041817103,-0.0072022965
1734276416944,2024-12-15T15:26:56.944Z,24421,0.046164718,0.041817103,-0.0072022965
1734276416954,2024-12-15T15:26:56.954Z,24431,0.035187468,0.035296835,-0.0066956873
1734276416957,2024-12-15T15:26:56.957Z,24434,0.035187468,0.035296835,-0.0066956873
1734276416965,2024-12-15T15:26:56.965Z,24442,0.017925235,0.032662686,-0.006765244
1734276416968,2024-12-15T15:26:56.968Z,24445,0.017925235,0.032662686,-0.006765244
1734276416976,2024-12-15T15:26:56.976Z,24453,0.004806833,0.02851517,-0.0073178723
1734276416978,2024-12-15T15:26:56.978Z,24455,0.004806833,0.02851517,-0.0073178723
1734276416985,2024-12-15T15:26:56.985Z,24462,0.03484494,0.022867702,2.5010897E-6
1734276416988,2024-12-15T15:26:56.988Z,24465,0.03484494,0.022867702,2.5010897E-6
1734276416996,2024-12-15T15:26:56.996Z,24473,0.036689606,0.018168986,0.009259226
1734276416998,2024-12-15T15:26:56.998Z,24475,0.036689606,0.018168986,0.009259226
1734276417006,2024-12-15T15:26:57.006Z,24483,0.03858933,0.0066137197,0.012976106
1734276417009,2024-12-15T15:26:57.009Z,24486,0.03858933,0.0066137197,0.012976106
1734276417017,2024-12-15T15:26:57.017Z,24494,0.04961519,-0.0011042478,0.016617568
1734276417020,2024-12-15T15:26:57.020Z,24497,0.04961519,-0.0011042478,0.016617568
1734276417030,2024-12-15T15:26:57.030Z,24507,0.04113661,-0.004931529,0.01761121
1734276417034,2024-12-15T15:26:57.034Z,24511,0.04113661,-0.004931529,0.01761121
1734276417044,2024-12-15T15:26:57.044Z,24521,0.012816337,-0.0063591255,0.0076953787
1734276417047,2024-12-15T15:26:57.047Z,24524,0.012816337,-0.0063591255,0.0076953787
1734276417055,2024-12-15T15:26:57.055Z,24532,0.025154568,-0.004393263,0.0017153342
1734276417059,2024-12-15T15:26:57.059Z,24536,0.025154568,-0.004393263,0.0017153342
1734276417068,2024-12-15T15:26:57.068Z,24545,0.04058895,-0.0029418406,0.011490134
1734276417070,2024-12-15T15:26:57.070Z,24547,0.04058895,-0.0029418406,0.011490134
1734276417079,2024-12-15T15:26:57.079Z,24556,0.032947052,4.8127893E-4,0.011396497
1734276417082,2024-12-15T15:26:57.082Z,24559,0.032947052,4.8127893E-4,0.011396497
1734276417091,2024-12-15T15:26:57.091Z,24568,0.027003927,-5.3758535E-4,0.012226998
1734276417094,2024-12-15T15:26:57.094Z,24571,0.027003927,-5.3758535E-4,0.012226998
1734276417101,2024-12-15T15:26:57.101Z,24578,0.030994657,-0.0030572736,0.0061345985
1734276417104,2024-12-15T15:26:57.104Z,24581,0.030994657,-0.0030572736,0.0061345985
1734276417112,2024-12-15T15:26:57.112Z,24589,0.012231902,-0.011970707,0.010091037
1734276417114,2024-12-15T15:26:57.114Z,24591,0.012231902,-0.011970707,0.010091037
1734276417123,2024-12-15T15:26:57.123Z,24600,-0.0072407974,-0.018012514,0.0060674855
1734276417126,2024-12-15T15:26:57.126Z,24603,-0.0072407974,-0.018012514,0.0060674855
1734276417134,2024-12-15T15:26:57.134Z,24611,-0.0042175967,-0.013328188,-0.0010842665
1734276417137,2024-12-15T15:26:57.137Z,24614,-0.0042175967,-0.013328188,-0.0010842665
1734276417145,2024-12-15T15:26:57.145Z,24622,-0.011020184,-0.013522294,0.0023539022
1734276417148,2024-12-15T15:26:57.148Z,24625,-0.011020184,-0.013522294,0.0023539022
1734276417158,2024-12-15T15:26:57.158Z,24635,-0.017428273,-0.007356498,-0.008989302
1734276417161,2024-12-15T15:26:57.161Z,24638,-0.017428273,-0.007356498,-0.008989302
1734276417171,2024-12-15T15:26:57.171Z,24648,-0.030314252,-0.00312136,-0.009156914
1734276417173,2024-12-15T15:26:57.173Z,24650,-0.030314252,-0.00312136,-0.009156914
1734276417181,2024-12-15T15:26:57.181Z,24658,-0.0340159,0.0035687967,-0.017723769
1734276417183,2024-12-15T15:26:57.183Z,24660,-0.0340159,0.0035687967,-0.017723769
1734276417191,2024-12-15T15:26:57.191Z,24668,-0.030897008,0.005376826,-0.021930575
1734276417194,2024-12-15T15:26:57.194Z,24671,-0.030897008,0.005376826,-0.021930575
1734276417201,2024-12-15T15:26:57.201Z,24678,-0.04379309,0.008139634,-0.018865317
1734276417204,2024-12-15T15:26:57.204Z,24681,-0.04379309,0.008139634,-0.018865317
1734276417213,2024-12-15T15:26:57.213Z,24690,-0.04434587,0.008917421,-0.027620433
1734276417215,2024-12-15T15:26:57.215Z,24692,-0.04434587,0.008917421,-0.027620433
1734276417223,2024-12-15T15:26:57.223Z,24700,-0.033517677,0.008197885,-0.026640862
1734276417226,2024-12-15T15:26:57.226Z,24703,-0.033517677,0.008197885,-0.026640862
1734276417236,2024-12-15T15:26:57.236Z,24713,-0.048799485,0.006371281,-0.031995058
1734276417239,2024-12-15T15:26:57.239Z,24716,-0.048799485,0.006371281,-0.031995058
1734276417248,2024-12-15T15:26:57.248Z,24725,-0.043395907,0.005004562,-0.03854084
1734276417251,2024-12-15T15:26:57.251Z,24728,-0.043395907,0.005004562,-0.03854084
1734276417260,2024-12-15T15:26:57.260Z,24737,-0.03751898,-0.0012319341,-0.04375794
1734276417263,2024-12-15T15:26:57.263Z,24740,-0.03751898,-0.0012319341,-0.04375794
1734276417270,2024-12-15T15:26:57.270Z,24747,-0.03172094,-0.0069626444,-0.040044338
1734276417273,2024-12-15T15:26:57.273Z,24750,-0.03172094,-0.0069626444,-0.040044338
1734276417283,2024-12-15T15:26:57.283Z,24760,-0.027482593,-0.0141435135,-0.029999912
1734276417286,2024-12-15T15:26:57.286Z,24763,-0.027482593,-0.0141435135,-0.029999912
1734276417295,2024-12-15T15:26:57.295Z,24772,-0.0299866,-0.007192441,-0.035696894
1734276417297,2024-12-15T15:26:57.297Z,24774,-0.0299866,-0.007192441,-0.035696894
1734276417307,2024-12-15T15:26:57.307Z,24784,-0.02078575,-0.0012171523,-0.03499651
1734276417310,2024-12-15T15:26:57.310Z,24787,-0.02078575,-0.0012171523,-0.03499651
1734276417318,2024-12-15T15:26:57.318Z,24795,-0.024188181,0.010100537,-0.030997125
1734276417321,2024-12-15T15:26:57.321Z,24798,-0.024188181,0.010100537,-0.030997125
1734276417331,2024-12-15T15:26:57.331Z,24808,-0.016819844,0.025804292,-0.028405635
1734276417333,2024-12-15T15:26:57.333Z,24810,-0.016819844,0.025804292,-0.028405635
1734276417341,2024-12-15T15:26:57.341Z,24818,-0.0076773423,0.044457667,-0.02329239
1734276417343,2024-12-15T15:26:57.343Z,24820,-0.0076773423,0.044457667,-0.02329239
1734276417350,2024-12-15T15:26:57.350Z,24827,-0.0062949904,0.06748661,-0.020238727
1734276417353,2024-12-15T15:26:57.353Z,24830,-0.0062949904,0.06748661,-0.020238727
1734276417361,2024-12-15T15:26:57.361Z,24838,-0.0062862867,0.09244436,-0.017193196
1734276417364,2024-12-15T15:26:57.364Z,24841,-0.0062862867,0.09244436,-0.017193196
1734276417375,2024-12-15T15:26:57.375Z,24852,-0.014383034,0.121253505,-0.016771732
1734276417384,2024-12-15T15:26:57.384Z,24861,-0.014383034,0.121253505,-0.016771732
1734276417394,2024-12-15T15:26:57.394Z,24871,-0.011557429,0.14903738,-0.023251295
1734276417397,2024-12-15T15:26:57.397Z,24874,-0.011557429,0.14903738,-0.023251295
1734276417407,2024-12-15T15:26:57.407Z,24884,0.0070093237,0.18020882,-0.020882575
1734276417409,2024-12-15T15:26:57.409Z,24886,0.0070093237,0.18020882,-0.020882575
1734276417418,2024-12-15T15:26:57.418Z,24895,0.025008928,0.213836,-0.010140537
1734276417420,2024-12-15T15:26:57.420Z,24897,0.025008928,0.213836,-0.010140537
1734276417431,2024-12-15T15:26:57.431Z,24908,0.04041035,0.24847072,-0.009652137
1734276417434,2024-12-15T15:26:57.434Z,24911,0.04041035,0.24847072,-0.009652137
1734276417444,2024-12-15T15:26:57.444Z,24921,0.045405105,0.28607237,-0.010459093
1734276417447,2024-12-15T15:26:57.447Z,24924,0.045405105,0.28607237,-0.010459093
1734276417455,2024-12-15T15:26:57.455Z,24932,0.020114984,0.3241634,-0.010694801
1734276417458,2024-12-15T15:26:57.458Z,24935,0.020114984,0.3241634,-0.010694801
1734276417466,2024-12-15T15:26:57.466Z,24943,0.004797181,0.36074176,-0.016097726
1734276417468,2024-12-15T15:26:57.468Z,24945,0.004797181,0.36074176,-0.016097726
1734276417476,2024-12-15T15:26:57.476Z,24953,0.025951087,0.39528915,-0.018249094
1734276417479,2024-12-15T15:26:57.479Z,24956,0.025951087,0.39528915,-0.018249094
1734276417487,2024-12-15T15:26:57.487Z,24964,0.004967948,0.42096275,-0.013294905
1734276417490,2024-12-15T15:26:57.490Z,24967,0.004967948,0.42096275,-0.013294905
1734276417499,2024-12-15T15:26:57.499Z,24976,0.0015811019,0.4484589,-0.01591134
1734276417502,2024-12-15T15:26:57.502Z,24979,0.0015811019,0.4484589,-0.01591134
1734276417511,2024-12-15T15:26:57.511Z,24988,0.0299036,0.47388136,-0.026426641
1734276417514,2024-12-15T15:26:57.514Z,24991,0.0299036,0.47388136,-0.026426641
1734276417521,2024-12-15T15:26:57.521Z,24998,0.021854892,0.47726053,-0.027634768
1734276417524,2024-12-15T15:26:57.524Z,25001,0.021854892,0.47726053,-0.027634768
1734276417532,2024-12-15T15:26:57.532Z,25009,0.048528798,0.47670534,-0.023564843
1734276417536,2024-12-15T15:26:57.536Z,25013,0.048528798,0.47670534,-0.023564843
1734276417546,2024-12-15T15:26:57.546Z,25023,0.08267116,0.47475737,-0.020221323
1734276417548,2024-12-15T15:26:57.548Z,25025,0.08267116,0.47475737,-0.020221323
1734276417558,2024-12-15T15:26:57.558Z,25035,0.089804,0.46124446,-0.021157742
1734276417560,2024-12-15T15:26:57.560Z,25037,0.089804,0.46124446,-0.021157742
1734276417567,2024-12-15T15:26:57.567Z,25044,0.101964705,0.4538014,-0.022576064
1734276417570,2024-12-15T15:26:57.570Z,25047,0.101964705,0.4538014,-0.022576064
1734276417577,2024-12-15T15:26:57.577Z,25054,0.07474368,0.4397321,-0.013739884
1734276417580,2024-12-15T15:26:57.580Z,25057,0.07474368,0.4397321,-0.013739884
1734276417587,2024-12-15T15:26:57.587Z,25064,0.058759574,0.42676148,-0.015277803
1734276417589,2024-12-15T15:26:57.589Z,25066,0.058759574,0.42676148,-0.015277803
1734276417599,2024-12-15T15:26:57.599Z,25076,0.053227637,0.4021424,-0.016000062
1734276417602,2024-12-15T15:26:57.602Z,25079,0.053227637,0.4021424,-0.016000062
1734276417611,2024-12-15T15:26:57.611Z,25088,0.025130803,0.36094227,0.0026621816
1734276417614,2024-12-15T15:26:57.614Z,25091,0.025130803,0.36094227,0.0026621816
1734276417624,2024-12-15T15:26:57.624Z,25101,0.030867398,0.3245768,0.015183597
1734276417627,2024-12-15T15:26:57.627Z,25104,0.030867398,0.3245768,0.015183597
1734276417635,2024-12-15T15:26:57.635Z,25112,0.058066126,0.28137553,0.01850298
1734276417637,2024-12-15T15:26:57.637Z,25114,0.058066126,0.28137553,0.01850298
1734276417645,2024-12-15T15:26:57.645Z,25122,0.053237922,0.22995126,0.027222125
1734276417647,2024-12-15T15:26:57.647Z,25124,0.053237922,0.22995126,0.027222125
1734276417655,2024-12-15T15:26:57.655Z,25132,0.053724986,0.18893515,0.025122462
1734276417658,2024-12-15T15:26:57.658Z,25135,0.053724986,0.18893515,0.025122462
1734276417667,2024-12-15T15:26:57.667Z,25144,0.025429646,0.14414406,0.02202469
1734276417670,2024-12-15T15:26:57.670Z,25147,0.025429646,0.14414406,0.02202469
1734276417679,2024-12-15T15:26:57.679Z,25156,0.018320886,0.12385226,0.014067083
1734276417682,2024-12-15T15:26:57.682Z,25159,0.018320886,0.12385226,0.014067083
1734276417689,2024-12-15T15:26:57.689Z,25166,0.003307492,0.10895702,0.014627694
1734276417691,2024-12-15T15:26:57.691Z,25168,0.003307492,0.10895702,0.014627694
1734276417698,2024-12-15T15:26:57.698Z,25175,0.0075428486,0.100351185,0.02777612
1734276417700,2024-12-15T15:26:57.700Z,25177,0.0075428486,0.100351185,0.02777612
1734276417708,2024-12-15T15:26:57.708Z,25185,0.03172021,0.09114095,0.024345545
1734276417711,2024-12-15T15:26:57.711Z,25188,0.03172021,0.09114095,0.024345545
1734276417721,2024-12-15T15:26:57.721Z,25198,0.045982584,0.07011599,0.032825764
1734276417725,2024-12-15T15:26:57.725Z,25202,0.045982584,0.07011599,0.032825764
1734276417734,2024-12-15T15:26:57.734Z,25211,0.05016572,0.04074125,0.035063148
1734276417739,2024-12-15T15:26:57.739Z,25216,0.05016572,0.04074125,0.035063148
1734276417748,2024-12-15T15:26:57.748Z,25225,0.050951555,0.026008999,0.025733082
1734276417750,2024-12-15T15:26:57.750Z,25227,0.050951555,0.026008999,0.025733082
1734276417758,2024-12-15T15:26:57.758Z,25235,0.04815534,0.0074167913,0.01847422
1734276417761,2024-12-15T15:26:57.761Z,25238,0.04815534,0.0074167913,0.01847422
1734276417769,2024-12-15T15:26:57.769Z,25246,0.04620205,-0.009673327,0.017814843
1734276417771,2024-12-15T15:26:57.771Z,25248,0.04620205,-0.009673327,0.017814843
1734276417780,2024-12-15T15:26:57.780Z,25257,0.02813481,-0.022856617,0.03102478
1734276417782,2024-12-15T15:26:57.782Z,25259,0.02813481,-0.022856617,0.03102478
1734276417791,2024-12-15T15:26:57.791Z,25268,0.025804292,-0.02484154,0.032016005
1734276417794,2024-12-15T15:26:57.794Z,25271,0.025804292,-0.02484154,0.032016005
1734276417801,2024-12-15T15:26:57.801Z,25278,0.041296728,-0.026896287,0.035145134
1734276417803,2024-12-15T15:26:57.803Z,25280,0.041296728,-0.026896287,0.035145134
1734276417812,2024-12-15T15:26:57.812Z,25289,0.022904998,-0.035382997,0.06127807
1734276417815,2024-12-15T15:26:57.815Z,25292,0.022904998,-0.035382997,0.06127807
1734276417824,2024-12-15T15:26:57.824Z,25301,0.018644283,-0.0361886,0.05565533
1734276417827,2024-12-15T15:26:57.827Z,25304,0.018644283,-0.0361886,0.05565533
1734276417834,2024-12-15T15:26:57.834Z,25311,0.03867556,-0.03417236,0.055171277
1734276417836,2024-12-15T15:26:57.836Z,25313,0.03867556,-0.03417236,0.055171277
1734276417845,2024-12-15T15:26:57.845Z,25322,0.049122445,-0.047348455,0.0708025
1734276417847,2024-12-15T15:26:57.847Z,25324,0.049122445,-0.047348455,0.0708025
1734276417858,2024-12-15T15:26:57.858Z,25335,0.04746121,-0.04834923,0.07799372
1734276417861,2024-12-15T15:26:57.861Z,25338,0.04746121,-0.04834923,0.07799372
1734276417871,2024-12-15T15:26:57.871Z,25348,0.037680425,-0.04891774,0.0742689
1734276417875,2024-12-15T15:26:57.875Z,25352,0.037680425,-0.04891774,0.0742689
1734276417886,2024-12-15T15:26:57.886Z,25363,0.051289003,-0.045125566,0.07071754
1734276417893,2024-12-15T15:26:57.893Z,25370,0.051289003,-0.045125566,0.07071754
1734276417903,2024-12-15T15:26:57.903Z,25380,0.058596004,-0.03890949,0.04543841
1734276417906,2024-12-15T15:26:57.906Z,25383,0.058596004,-0.03890949,0.04543841
1734276417914,2024-12-15T15:26:57.914Z,25391,0.0672651,-0.040478583,0.033701237
1734276417917,2024-12-15T15:26:57.917Z,25394,0.0672651,-0.040478583,0.033701237
1734276417926,2024-12-15T15:26:57.926Z,25403,0.049219426,-0.05039124,0.045346797
1734276417929,2024-12-15T15:26:57.929Z,25406,0.049219426,-0.05039124,0.045346797
1734276417937,2024-12-15T15:26:57.937Z,25414,0.056088615,-0.051519506,0.051611245
1734276417939,2024-12-15T15:26:57.939Z,25416,0.056088615,-0.051519506,0.051611245
1734276417947,2024-12-15T15:26:57.947Z,25424,0.07390291,-0.04377781,0.039433956
1734276417951,2024-12-15T15:26:57.951Z,25428,0.07390291,-0.04377781,0.039433956
1734276417960,2024-12-15T15:26:57.960Z,25437,0.06190617,-0.041403506,0.029248387
1734276417962,2024-12-15T15:26:57.962Z,25439,0.06190617,-0.041403506,0.029248387
1734276417970,2024-12-15T15:26:57.970Z,25447,0.06479387,-0.040912695,0.044732686
1734276417974,2024-12-15T15:26:57.974Z,25451,0.06479387,-0.040912695,0.044732686
1734276417981,2024-12-15T15:26:57.981Z,25458,0.06122062,-0.0399056,0.042031527
1734276417983,2024-12-15T15:26:57.983Z,25460,0.06122062,-0.0399056,0.042031527
1734276417991,2024-12-15T15:26:57.991Z,25468,0.04807956,-0.043355852,0.03307414
1734276417993,2024-12-15T15:26:57.993Z,25470,0.04807956,-0.043355852,0.03307414
1734276418000,2024-12-15T15:26:58Z,25477,0.029460004,-0.052781004,0.03398788
1734276418003,2024-12-15T15:26:58.003Z,25480,0.029460004,-0.052781004,0.03398788
1734276418013,2024-12-15T15:26:58.013Z,25490,0.028695758,-0.06061985,0.026312916
1734276418015,2024-12-15T15:26:58.015Z,25492,0.028695758,-0.06061985,0.026312916
1734276418022,2024-12-15T15:26:58.022Z,25499,0.017341917,-0.070948236,0.023688287
1734276418025,2024-12-15T15:26:58.025Z,25502,0.017341917,-0.070948236,0.023688287
1734276418032,2024-12-15T15:26:58.032Z,25509,0.016228043,-0.080300644,0.028425483
1734276418035,2024-12-15T15:26:58.035Z,25512,0.016228043,-0.080300644,0.028425483
1734276418043,2024-12-15T15:26:58.043Z,25520,7.922285E-4,-0.08374662,0.021610228
1734276418046,2024-12-15T15:26:58.046Z,25523,7.922285E-4,-0.08374662,0.021610228
1734276418055,2024-12-15T15:26:58.055Z,25532,-0.027113222,-0.09882974,0.008267285
1734276418058,2024-12-15T15:26:58.058Z,25535,-0.027113222,-0.09882974,0.008267285
1734276418066,2024-12-15T15:26:58.066Z,25543,-0.05396407,-0.1123216,0.0053623924
1734276418068,2024-12-15T15:26:58.068Z,25545,-0.05396407,-0.1123216,0.0053623924
1734276418076,2024-12-15T15:26:58.076Z,25553,-0.07442037,-0.11542351,-0.0062346146
1734276418078,2024-12-15T15:26:58.078Z,25555,-0.07442037,-0.11542351,-0.0062346146
1734276418087,2024-12-15T15:26:58.087Z,25564,-0.066010095,-0.1203457,0.0061450317
1734276418092,2024-12-15T15:26:58.092Z,25569,-0.066010095,-0.1203457,0.0061450317
1734276418099,2024-12-15T15:26:58.099Z,25576,-0.082825415,-0.11931225,0.038411826
1734276418101,2024-12-15T15:26:58.101Z,25578,-0.082825415,-0.11931225,0.038411826
1734276418109,2024-12-15T15:26:58.109Z,25586,-0.06996008,-0.10506886,0.030381262
1734276418111,2024-12-15T15:26:58.111Z,25588,-0.06996008,-0.10506886,0.030381262
1734276418119,2024-12-15T15:26:58.119Z,25596,-0.070427306,-0.09859693,0.04608169
1734276418122,2024-12-15T15:26:58.122Z,25599,-0.070427306,-0.09859693,0.04608169
1734276418131,2024-12-15T15:26:58.131Z,25608,-0.080203936,-0.09456426,0.054164857
1734276418133,2024-12-15T15:26:58.133Z,25610,-0.080203936,-0.09456426,0.054164857
1734276418141,2024-12-15T15:26:58.141Z,25618,-0.06747105,-0.087622814,0.04058319
1734276418144,2024-12-15T15:26:58.144Z,25621,-0.06747105,-0.087622814,0.04058319
1734276418152,2024-12-15T15:26:58.152Z,25629,-0.05333196,-0.0875032,0.043052938
1734276418155,2024-12-15T15:26:58.155Z,25632,-0.05333196,-0.0875032,0.043052938
1734276418163,2024-12-15T15:26:58.163Z,25640,-0.06406855,-0.10123536,0.052565537
1734276418165,2024-12-15T15:26:58.165Z,25642,-0.06406855,-0.10123536,0.052565537
1734276418173,2024-12-15T15:26:58.173Z,25650,-0.06572698,-0.103840426,0.054419275
1734276418175,2024-12-15T15:26:58.175Z,25652,-0.06572698,-0.103840426,0.054419275
1734276418183,2024-12-15T15:26:58.183Z,25660,-0.033135142,-0.0913404,0.049332794
1734276418186,2024-12-15T15:26:58.186Z,25663,-0.033135142,-0.0913404,0.049332794
1734276418194,2024-12-15T15:26:58.194Z,25671,-0.044810217,-0.0823199,0.04904601
1734276418197,2024-12-15T15:26:58.197Z,25674,-0.044810217,-0.0823199,0.04904601
1734276418203,2024-12-15T15:26:58.203Z,25680,-0.019881103,-0.0669252,0.026088836
1734276418206,2024-12-15T15:26:58.206Z,25683,-0.019881103,-0.0669252,0.026088836
1734276418213,2024-12-15T15:26:58.213Z,25690,-0.012510238,-0.06763384,0.029522924
1734276418215,2024-12-15T15:26:58.215Z,25692,-0.012510238,-0.06763384,0.029522924
1734276418223,2024-12-15T15:26:58.223Z,25700,-0.0017333676,-0.071743526,0.031391412
1734276418225,2024-12-15T15:26:58.225Z,25702,-0.0017333676,-0.071743526,0.031391412
1734276418233,2024-12-15T15:26:58.233Z,25710,-0.0023353067,-0.075801484,0.036362533
1734276418236,2024-12-15T15:26:58.236Z,25713,-0.0023353067,-0.075801484,0.036362533
1734276418245,2024-12-15T15:26:58.245Z,25722,-0.020557947,-0.07837534,0.0136751225
1734276418248,2024-12-15T15:26:58.248Z,25725,-0.020557947,-0.07837534,0.0136751225
1734276418256,2024-12-15T15:26:58.256Z,25733,-0.014733563,-0.08537046,0.010780125
1734276418258,2024-12-15T15:26:58.258Z,25735,-0.014733563,-0.08537046,0.010780125
1734276418266,2024-12-15T15:26:58.266Z,25743,0.0031967512,-0.08939632,0.016385408
1734276418268,2024-12-15T15:26:58.268Z,25745,0.0031967512,-0.08939632,0.016385408
1734276418278,2024-12-15T15:26:58.278Z,25755,-0.012557938,-0.09537307,0.01721719
1734276418281,2024-12-15T15:26:58.281Z,25758,-0.012557938,-0.09537307,0.01721719
1734276418289,2024-12-15T15:26:58.289Z,25766,0.015420254,-0.09004701,0.019666998
1734276418292,2024-12-15T15:26:58.292Z,25769,0.015420254,-0.09004701,0.019666998
1734276418300,2024-12-15T15:26:58.300Z,25777,0.0030694297,-0.09147256,0.03321993
1734276418303,2024-12-15T15:26:58.303Z,25780,0.0030694297,-0.09147256,0.03321993
1734276418312,2024-12-15T15:26:58.312Z,25789,-0.002596125,-0.092372976,0.04361343
1734276418315,2024-12-15T15:26:58.315Z,25792,-0.002596125,-0.092372976,0.04361343
1734276418329,2024-12-15T15:26:58.329Z,25806,-0.02228429,-0.08112511,0.040954262
1734276418332,2024-12-15T15:26:58.332Z,25809,-0.02228429,-0.08112511,0.040954262
1734276418339,2024-12-15T15:26:58.339Z,25816,-0.012151637,-0.066969834,0.0268299
1734276418342,2024-12-15T15:26:58.342Z,25819,-0.012151637,-0.066969834,0.0268299
1734276418349,2024-12-15T15:26:58.349Z,25826,-0.0044705016,-0.06209208,0.026337085
1734276418351,2024-12-15T15:26:58.351Z,25828,-0.0044705016,-0.06209208,0.026337085
1734276418358,2024-12-15T15:26:58.358Z,25835,0.0043023364,-0.056265973,0.013799785
1734276418361,2024-12-15T15:26:58.361Z,25838,0.0043023364,-0.056265973,0.013799785
1734276418370,2024-12-15T15:26:58.370Z,25847,0.004131326,-0.052344654,0.0017789311
1734276418373,2024-12-15T15:26:58.373Z,25850,0.004131326,-0.052344654,0.0017789311
1734276418381,2024-12-15T15:26:58.381Z,25858,0.008145177,-0.055198193,0.009231422
1734276418383,2024-12-15T15:26:58.383Z,25860,0.008145177,-0.055198193,0.009231422
1734276418391,2024-12-15T15:26:58.391Z,25868,0.0041751363,-0.06239919,0.015130015
1734276418393,2024-12-15T15:26:58.393Z,25870,0.0041751363,-0.06239919,0.015130015
1734276418401,2024-12-15T15:26:58.401Z,25878,-0.014086648,-0.06713525,0.031458583
1734276418403,2024-12-15T15:26:58.403Z,25880,-0.014086648,-0.06713525,0.031458583
1734276418411,2024-12-15T15:26:58.411Z,25888,-0.009761629,-0.062152084,0.016920147
1734276418414,2024-12-15T15:26:58.414Z,25891,-0.009761629,-0.062152084,0.016920147
1734276418421,2024-12-15T15:26:58.421Z,25898,-0.0064686504,-0.06154351,0.021517692
1734276418424,2024-12-15T15:26:58.424Z,25901,-0.0064686504,-0.06154351,0.021517692
1734276418432,2024-12-15T15:26:58.432Z,25909,-0.0042821085,-0.07066107,0.030549884
1734276418435,2024-12-15T15:26:58.435Z,25912,-0.0042821085,-0.07066107,0.030549884
1734276418444,2024-12-15T15:26:58.444Z,25921,-0.017837832,-0.082665615,0.01484284
1734276418447,2024-12-15T15:26:58.447Z,25924,-0.017837832,-0.082665615,0.01484284
1734276418455,2024-12-15T15:26:58.455Z,25932,-0.029013127,-0.09414619,0.007278566
1734276418459,2024-12-15T15:26:58.459Z,25936,-0.029013127,-0.09414619,0.007278566
1734276418466,2024-12-15T15:26:58.466Z,25943,-0.013923101,-0.10607032,0.03074467
1734276418468,2024-12-15T15:26:58.468Z,25945,-0.013923101,-0.10607032,0.03074467
1734276418475,2024-12-15T15:26:58.475Z,25952,-0.0058484776,-0.1091451,0.026516497
1734276418478,2024-12-15T15:26:58.478Z,25955,-0.0058484776,-0.1091451,0.026516497
1734276418487,2024-12-15T15:26:58.487Z,25964,-0.029215936,-0.111675285,0.023278715
1734276418490,2024-12-15T15:26:58.490Z,25967,-0.029215936,-0.111675285,0.023278715
1734276418498,2024-12-15T15:26:58.498Z,25975,-0.02872836,-0.11808673,0.039670795
1734276418500,2024-12-15T15:26:58.500Z,25977,-0.02872836,-0.11808673,0.039670795
1734276418507,2024-12-15T15:26:58.507Z,25984,-0.0195067,-0.12447961,0.040526625
1734276418509,2024-12-15T15:26:58.509Z,25986,-0.0195067,-0.12447961,0.040526625
1734276418517,2024-12-15T15:26:58.517Z,25994,-0.02592274,-0.14111607,0.04983967
1734276418520,2024-12-15T15:26:58.520Z,25997,-0.02592274,-0.14111607,0.04983967
1734276418529,2024-12-15T15:26:58.529Z,26006,-0.034723073,-0.15288323,0.056807734
1734276418532,2024-12-15T15:26:58.532Z,26009,-0.034723073,-0.15288323,0.056807734
1734276418541,2024-12-15T15:26:58.541Z,26018,-0.036212057,-0.16269065,0.052150033
1734276418544,2024-12-15T15:26:58.544Z,26021,-0.036212057,-0.16269065,0.052150033
1734276418552,2024-12-15T15:26:58.552Z,26029,-0.03722234,-0.17346056,0.0428513
1734276418554,2024-12-15T15:26:58.554Z,26031,-0.03722234,-0.17346056,0.0428513
1734276418562,2024-12-15T15:26:58.562Z,26039,-0.031898562,-0.18567117,0.042744964
1734276418566,2024-12-15T15:26:58.566Z,26043,-0.031898562,-0.18567117,0.042744964
1734276418577,2024-12-15T15:26:58.577Z,26054,-0.033534586,-0.19734158,0.049835946
1734276418580,2024-12-15T15:26:58.580Z,26057,-0.033534586,-0.19734158,0.049835946
1734276418587,2024-12-15T15:26:58.587Z,26064,-0.02990608,-0.2055492,0.04703125
1734276418589,2024-12-15T15:26:58.589Z,26066,-0.02990608,-0.2055492,0.04703125
1734276418598,2024-12-15T15:26:58.598Z,26075,-0.04684189,-0.21715045,0.049392518
1734276418600,2024-12-15T15:26:58.600Z,26077,-0.04684189,-0.21715045,0.049392518
1734276418608,2024-12-15T15:26:58.608Z,26085,-0.06470073,-0.23022959,0.050474793
1734276418610,2024-12-15T15:26:58.610Z,26087,-0.06470073,-0.23022959,0.050474793
1734276418617,2024-12-15T15:26:58.617Z,26094,-0.075510636,-0.2448327,0.061000284
1734276418619,2024-12-15T15:26:58.619Z,26096,-0.075510636,-0.2448327,0.061000284
1734276418626,2024-12-15T15:26:58.626Z,26103,-0.08507969,-0.25903076,0.0680492
1734276418628,2024-12-15T15:26:58.628Z,26105,-0.08507969,-0.25903076,0.0680492
1734276418636,2024-12-15T15:26:58.636Z,26113,-0.07237763,-0.26159695,0.06293124
1734276418639,2024-12-15T15:26:58.639Z,26116,-0.07237763,-0.26159695,0.06293124
1734276418649,2024-12-15T15:26:58.649Z,26126,-0.0868124,-0.2744772,0.07789611
1734276418651,2024-12-15T15:26:58.651Z,26128,-0.0868124,-0.2744772,0.07789611
1734276418658,2024-12-15T15:26:58.658Z,26135,-0.08636589,-0.2859639,0.07964315
1734276418660,2024-12-15T15:26:58.660Z,26137,-0.08636589,-0.2859639,0.07964315
1734276418667,2024-12-15T15:26:58.667Z,26144,-0.08233796,-0.29018018,0.077857316
1734276418669,2024-12-15T15:26:58.669Z,26146,-0.08233796,-0.29018018,0.077857316
1734276418676,2024-12-15T15:26:58.676Z,26153,-0.08504405,-0.29931796,0.0763809
1734276418679,2024-12-15T15:26:58.679Z,26156,-0.08504405,-0.29931796,0.0763809
1734276418688,2024-12-15T15:26:58.688Z,26165,-0.088942274,-0.30805168,0.071795456
1734276418690,2024-12-15T15:26:58.690Z,26167,-0.088942274,-0.30805168,0.071795456
1734276418698,2024-12-15T15:26:58.698Z,26175,-0.089244716,-0.31147286,0.06794745
1734276418700,2024-12-15T15:26:58.700Z,26177,-0.089244716,-0.31147286,0.06794745
1734276418707,2024-12-15T15:26:58.707Z,26184,-0.09034189,-0.3100688,0.0609785
1734276418710,2024-12-15T15:26:58.710Z,26187,-0.09034189,-0.3100688,0.0609785
1734276418718,2024-12-15T15:26:58.718Z,26195,-0.075136505,-0.3018817,0.05842983
1734276418721,2024-12-15T15:26:58.721Z,26198,-0.075136505,-0.3018817,0.05842983
1734276418731,2024-12-15T15:26:58.731Z,26208,-0.07831699,-0.2995993,0.067736916
1734276418733,2024-12-15T15:26:58.733Z,26210,-0.07831699,-0.2995993,0.067736916
1734276418742,2024-12-15T15:26:58.742Z,26219,-0.07054456,-0.29200444,0.06101659
1734276418744,2024-12-15T15:26:58.744Z,26221,-0.07054456,-0.29200444,0.06101659
1734276418754,2024-12-15T15:26:58.754Z,26231,-0.06898454,-0.28737742,0.06711131
1734276418756,2024-12-15T15:26:58.756Z,26233,-0.06898454,-0.28737742,0.06711131
1734276418766,2024-12-15T15:26:58.766Z,26243,-0.07656023,-0.27986267,0.067921214
1734276418768,2024-12-15T15:26:58.768Z,26245,-0.07656023,-0.27986267,0.067921214
1734276418782,2024-12-15T15:26:58.782Z,26259,-0.0688391,-0.27679092,0.0702391
1734276418785,2024-12-15T15:26:58.785Z,26262,-0.0688391,-0.27679092,0.0702391
1734276418793,2024-12-15T15:26:58.793Z,26270,-0.07415233,-0.2762084,0.08135608
1734276418796,2024-12-15T15:26:58.796Z,26273,-0.07415233,-0.2762084,0.08135608
1734276418803,2024-12-15T15:26:58.803Z,26280,-0.06367938,-0.27421445,0.08063975
1734276418805,2024-12-15T15:26:58.805Z,26282,-0.06367938,-0.27421445,0.08063975
1734276418812,2024-12-15T15:26:58.812Z,26289,-0.050809063,-0.27172577,0.083319396
1734276418815,2024-12-15T15:26:58.815Z,26292,-0.050809063,-0.27172577,0.083319396
1734276418823,2024-12-15T15:26:58.823Z,26300,-0.05270311,-0.27311796,0.09221503
1734276418826,2024-12-15T15:26:58.826Z,26303,-0.05270311,-0.27311796,0.09221503
1734276418834,2024-12-15T15:26:58.834Z,26311,-0.060551338,-0.27302626,0.09739023
1734276418836,2024-12-15T15:26:58.836Z,26313,-0.060551338,-0.27302626,0.09739023
1734276418843,2024-12-15T15:26:58.843Z,26320,-0.06841345,-0.2719617,0.090439074
1734276418845,2024-12-15T15:26:58.845Z,26322,-0.06841345,-0.2719617,0.090439074
1734276418852,2024-12-15T15:26:58.852Z,26329,-0.06609923,-0.26941654,0.08892488
1734276418854,2024-12-15T15:26:58.854Z,26331,-0.06609923,-0.26941654,0.08892488
1734276418862,2024-12-15T15:26:58.862Z,26339,-0.064411,-0.27757922,0.08844888
1734276418865,2024-12-15T15:26:58.865Z,26342,-0.064411,-0.27757922,0.08844888
1734276418873,2024-12-15T15:26:58.873Z,26350,-0.07452477,-0.27790937,0.07007879
1734276418875,2024-12-15T15:26:58.875Z,26352,-0.07452477,-0.27790937,0.07007879
1734276418883,2024-12-15T15:26:58.883Z,26360,-0.07396926,-0.28505677,0.046700686
1734276418886,2024-12-15T15:26:58.886Z,26363,-0.07396926,-0.28505677,0.046700686
1734276418895,2024-12-15T15:26:58.895Z,26372,-0.07702685,-0.29605335,0.031212749
1734276418898,2024-12-15T15:26:58.898Z,26375,-0.07702685,-0.29605335,0.031212749
1734276418907,2024-12-15T15:26:58.907Z,26384,-0.09054351,-0.3060121,0.016326904
1734276418910,2024-12-15T15:26:58.910Z,26387,-0.09054351,-0.3060121,0.016326904
1734276418918,2024-12-15T15:26:58.918Z,26395,-0.09098924,-0.3017757,0.005031406
1734276418920,2024-12-15T15:26:58.920Z,26397,-0.09098924,-0.3017757,0.005031406
1734276418927,2024-12-15T15:26:58.927Z,26404,-0.07883269,-0.29018486,0.0018715558
1734276418931,2024-12-15T15:26:58.931Z,26408,-0.07883269,-0.29018486,0.0018715558
1734276418942,2024-12-15T15:26:58.942Z,26419,-0.08478447,-0.2736969,0.018402874
1734276418946,2024-12-15T15:26:58.946Z,26423,-0.08478447,-0.2736969,0.018402874
1734276418953,2024-12-15T15:26:58.953Z,26430,-0.07012817,-0.2489384,0.034010112
1734276418955,2024-12-15T15:26:58.955Z,26432,-0.07012817,-0.2489384,0.034010112
1734276418963,2024-12-15T15:26:58.963Z,26440,-0.067037806,-0.2266671,0.048153013
1734276418966,2024-12-15T15:26:58.966Z,26443,-0.067037806,-0.2266671,0.048153013
1734276418972,2024-12-15T15:26:58.972Z,26449,-0.083639845,-0.20449542,0.05542871
1734276418975,2024-12-15T15:26:58.975Z,26452,-0.083639845,-0.20449542,0.05542871
1734276418982,2024-12-15T15:26:58.982Z,26459,-0.0558366,-0.18051179,0.06402776
1734276418984,2024-12-15T15:26:58.984Z,26461,-0.0558366,-0.18051179,0.06402776
1734276418992,2024-12-15T15:26:58.992Z,26469,-0.050187893,-0.17029534,0.066834085
1734276418995,2024-12-15T15:26:58.995Z,26472,-0.050187893,-0.17029534,0.066834085
1734276419003,2024-12-15T15:26:59.003Z,26480,-0.046239782,-0.15283655,0.05730268
1734276419006,2024-12-15T15:26:59.006Z,26483,-0.046239782,-0.15283655,0.05730268
1734276419013,2024-12-15T15:26:59.013Z,26490,-0.018662712,-0.14471821,0.055669308
1734276419015,2024-12-15T15:26:59.015Z,26492,-0.018662712,-0.14471821,0.055669308
1734276419022,2024-12-15T15:26:59.022Z,26499,0.017609421,-0.13559978,0.052066147
1734276419024,2024-12-15T15:26:59.024Z,26501,0.017609421,-0.13559978,0.052066147
1734276419032,2024-12-15T15:26:59.032Z,26509,0.020942442,-0.134228,0.0631578
1734276419035,2024-12-15T15:26:59.035Z,26512,0.020942442,-0.134228,0.0631578
1734276419042,2024-12-15T15:26:59.042Z,26519,0.041151658,-0.13035151,0.05527585
1734276419045,2024-12-15T15:26:59.045Z,26522,0.041151658,-0.13035151,0.05527585
1734276419052,2024-12-15T15:26:59.052Z,26529,0.04350255,-0.13127264,0.061954435
1734276419055,2024-12-15T15:26:59.055Z,26532,0.04350255,-0.13127264,0.061954435
1734276419062,2024-12-15T15:26:59.062Z,26539,0.04906468,-0.13066602,0.057253305
1734276419064,2024-12-15T15:26:59.064Z,26541,0.04906468,-0.13066602,0.057253305
1734276419070,2024-12-15T15:26:59.070Z,26547,0.0416263,-0.13191779,0.067966364
1734276419073,2024-12-15T15:26:59.073Z,26550,0.0416263,-0.13191779,0.067966364
1734276419081,2024-12-15T15:26:59.081Z,26558,0.03402435,-0.12433013,0.0667622
1734276419083,2024-12-15T15:26:59.083Z,26560,0.03402435,-0.12433013,0.0667622
1734276419092,2024-12-15T15:26:59.092Z,26569,0.041904382,-0.12304627,0.061948057
1734276419095,2024-12-15T15:26:59.095Z,26572,0.041904382,-0.12304627,0.061948057
1734276419102,2024-12-15T15:26:59.102Z,26579,0.048877455,-0.111739084,0.062214103
1734276419104,2024-12-15T15:26:59.104Z,26581,0.048877455,-0.111739084,0.062214103
1734276419112,2024-12-15T15:26:59.112Z,26589,0.059758697,-0.10126356,0.058075003
1734276419114,2024-12-15T15:26:59.114Z,26591,0.059758697,-0.10126356,0.058075003
1734276419121,2024-12-15T15:26:59.121Z,26598,0.057767306,-0.08596795,0.038848367
1734276419123,2024-12-15T15:26:59.123Z,26600,0.057767306,-0.08596795,0.038848367
1734276419130,2024-12-15T15:26:59.130Z,26607,0.06415825,-0.07298771,0.043961585
1734276419132,2024-12-15T15:26:59.132Z,26609,0.06415825,-0.07298771,0.043961585
1734276419139,2024-12-15T15:26:59.139Z,26616,0.06727609,-0.05306759,0.058161974
1734276419141,2024-12-15T15:26:59.141Z,26618,0.06727609,-0.05306759,0.058161974
1734276419148,2024-12-15T15:26:59.148Z,26625,0.07052793,-0.02181451,0.044184208
1734276419151,2024-12-15T15:26:59.151Z,26628,0.07052793,-0.02181451,0.044184208
1734276419159,2024-12-15T15:26:59.159Z,26636,0.06548593,0.014459179,0.04399982
1734276419163,2024-12-15T15:26:59.163Z,26640,0.06548593,0.014459179,0.04399982
1734276419172,2024-12-15T15:26:59.172Z,26649,0.0823817,0.06308683,0.04547906
1734276419174,2024-12-15T15:26:59.174Z,26651,0.0823817,0.06308683,0.04547906
1734276419181,2024-12-15T15:26:59.181Z,26658,0.07711387,0.10750871,0.03938734
1734276419183,2024-12-15T15:26:59.183Z,26660,0.07711387,0.10750871,0.03938734
1734276419191,2024-12-15T15:26:59.191Z,26668,0.076100126,0.15062976,0.02426192
1734276419195,2024-12-15T15:26:59.195Z,26672,0.076100126,0.15062976,0.02426192
1734276419205,2024-12-15T15:26:59.205Z,26682,0.0696995,0.18703249,0.027445909
1734276419210,2024-12-15T15:26:59.210Z,26687,0.0696995,0.18703249,0.027445909
1734276419219,2024-12-15T15:26:59.219Z,26696,0.0621348,0.22296636,0.030949593
1734276419221,2024-12-15T15:26:59.221Z,26698,0.0621348,0.22296636,0.030949593
1734276419228,2024-12-15T15:26:59.228Z,26705,0.07166776,0.25251642,0.024640616
1734276419231,2024-12-15T15:26:59.231Z,26708,0.07166776,0.25251642,0.024640616
1734276419238,2024-12-15T15:26:59.238Z,26715,0.057383638,0.2727298,0.0057265167
1734276419240,2024-12-15T15:26:59.240Z,26717,0.057383638,0.2727298,0.0057265167
1734276419248,2024-12-15T15:26:59.248Z,26725,0.061271444,0.29973063,-0.027052758
1734276419251,2024-12-15T15:26:59.251Z,26728,0.061271444,0.29973063,-0.027052758
1734276419259,2024-12-15T15:26:59.259Z,26736,0.058790922,0.3067033,-0.038974494
1734276419261,2024-12-15T15:26:59.261Z,26738,0.058790922,0.3067033,-0.038974494
1734276419270,2024-12-15T15:26:59.270Z,26747,0.051020164,0.3048551,-0.03879863
1734276419272,2024-12-15T15:26:59.272Z,26749,0.051020164,0.3048551,-0.03879863
1734276419279,2024-12-15T15:26:59.279Z,26756,0.06785109,0.31515738,-0.045570966
1734276419282,2024-12-15T15:26:59.282Z,26759,0.06785109,0.31515738,-0.045570966
1734276419291,2024-12-15T15:26:59.291Z,26768,0.076097004,0.32344764,-0.0359123
1734276419294,2024-12-15T15:26:59.294Z,26771,0.076097004,0.32344764,-0.0359123
1734276419301,2024-12-15T15:26:59.301Z,26778,0.045738555,0.33308023,-0.01968518
1734276419304,2024-12-15T15:26:59.304Z,26781,0.045738555,0.33308023,-0.01968518
1734276419310,2024-12-15T15:26:59.310Z,26787,0.057523116,0.36159462,-0.036425054
1734276419313,2024-12-15T15:26:59.313Z,26790,0.057523116,0.36159462,-0.036425054
1734276419320,2024-12-15T15:26:59.320Z,26797,0.066404425,0.38315457,-0.031331833
1734276419322,2024-12-15T15:26:59.322Z,26799,0.066404425,0.38315457,-0.031331833
1734276419330,2024-12-15T15:26:59.330Z,26807,0.037321277,0.4016512,-0.023841975
1734276419333,2024-12-15T15:26:59.333Z,26810,0.037321277,0.4016512,-0.023841975
1734276419342,2024-12-15T15:26:59.342Z,26819,0.040713593,0.43073103,-0.036372095
1734276419344,2024-12-15T15:26:59.344Z,26821,0.040713593,0.43073103,-0.036372095
1734276419351,2024-12-15T15:26:59.351Z,26828,0.059884984,0.44454458,-0.03560525
1734276419353,2024-12-15T15:26:59.353Z,26830,0.059884984,0.44454458,-0.03560525
1734276419360,2024-12-15T15:26:59.360Z,26837,0.0751465,0.44458622,-0.02073023
1734276419362,2024-12-15T15:26:59.362Z,26839,0.0751465,0.44458622,-0.02073023
1734276419371,2024-12-15T15:26:59.371Z,26848,0.074703604,0.43916425,-0.0095296195
1734276419373,2024-12-15T15:26:59.373Z,26850,0.074703604,0.43916425,-0.0095296195
1734276419383,2024-12-15T15:26:59.383Z,26860,0.08493389,0.4434099,-0.012777566
1734276419385,2024-12-15T15:26:59.385Z,26862,0.08493389,0.4434099,-0.012777566
1734276419392,2024-12-15T15:26:59.392Z,26869,0.10526929,0.4378059,-2.76925E-4
1734276419394,2024-12-15T15:26:59.394Z,26871,0.10526929,0.4378059,-2.76925E-4
1734276419402,2024-12-15T15:26:59.402Z,26879,0.09698134,0.4375199,0.0029251291
1734276419404,2024-12-15T15:26:59.404Z,26881,0.09698134,0.4375199,0.0029251291
1734276419414,2024-12-15T15:26:59.414Z,26891,0.07472187,0.4376679,-0.013906806
1734276419416,2024-12-15T15:26:59.416Z,26893,0.07472187,0.4376679,-0.013906806
1734276419422,2024-12-15T15:26:59.422Z,26899,0.062498797,0.4143042,-0.014571516
1734276419424,2024-12-15T15:26:59.424Z,26901,0.062498797,0.4143042,-0.014571516
1734276419432,2024-12-15T15:26:59.432Z,26909,0.069591306,0.39623615,-0.006850629
1734276419434,2024-12-15T15:26:59.434Z,26911,0.069591306,0.39623615,-0.006850629
1734276419441,2024-12-15T15:26:59.441Z,26918,0.07347309,0.37029105,-0.008441359
1734276419445,2024-12-15T15:26:59.445Z,26922,0.07347309,0.37029105,-0.008441359
1734276419453,2024-12-15T15:26:59.453Z,26930,0.09043189,0.341918,-0.006215275
1734276419455,2024-12-15T15:26:59.455Z,26932,0.09043189,0.341918,-0.006215275
1734276419463,2024-12-15T15:26:59.463Z,26940,0.091066115,0.3052863,-6.735012E-4
1734276419466,2024-12-15T15:26:59.466Z,26943,0.091066115,0.3052863,-6.735012E-4
1734276419473,2024-12-15T15:26:59.473Z,26950,0.07965404,0.2667691,0.015607417
1734276419475,2024-12-15T15:26:59.475Z,26952,0.07965404,0.2667691,0.015607417
1734276419482,2024-12-15T15:26:59.482Z,26959,0.060487945,0.23078896,0.005311608
1734276419484,2024-12-15T15:26:59.484Z,26961,0.060487945,0.23078896,0.005311608
1734276419492,2024-12-15T15:26:59.492Z,26969,0.037582085,0.20171748,-2.1815397E-4
1734276419494,2024-12-15T15:26:59.494Z,26971,0.037582085,0.20171748,-2.1815397E-4
1734276419502,2024-12-15T15:26:59.502Z,26979,0.0026548384,0.18394595,0.001984478
1734276419504,2024-12-15T15:26:59.504Z,26981,0.0026548384,0.18394595,0.001984478
1734276419511,2024-12-15T15:26:59.511Z,26988,-0.0070863925,0.17012471,0.0021213298
1734276419513,2024-12-15T15:26:59.513Z,26990,-0.0070863925,0.17012471,0.0021213298
1734276419522,2024-12-15T15:26:59.522Z,26999,-0.023880586,0.16465443,-0.010284095
1734276419525,2024-12-15T15:26:59.525Z,27002,-0.023880586,0.16465443,-0.010284095
1734276419532,2024-12-15T15:26:59.532Z,27009,0.0034693852,0.16462837,-0.014994261
1734276419535,2024-12-15T15:26:59.535Z,27012,0.0034693852,0.16462837,-0.014994261
1734276419542,2024-12-15T15:26:59.542Z,27019,-0.0041490253,0.15149657,-0.011402905
1734276419544,2024-12-15T15:26:59.544Z,27021,-0.0041490253,0.15149657,-0.011402905
1734276419551,2024-12-15T15:26:59.551Z,27028,-0.011117748,0.13502787,-0.0167709
1734276419553,2024-12-15T15:26:59.553Z,27030,-0.011117748,0.13502787,-0.0167709
1734276419560,2024-12-15T15:26:59.560Z,27037,-0.0017868052,0.117657386,-0.013433933
1734276419562,2024-12-15T15:26:59.562Z,27039,-0.0017868052,0.117657386,-0.013433933
1734276419571,2024-12-15T15:26:59.571Z,27048,-0.03664756,0.102300026,1.1116174E-4
1734276419573,2024-12-15T15:26:59.573Z,27050,-0.03664756,0.102300026,1.1116174E-4
1734276419581,2024-12-15T15:26:59.581Z,27058,-0.023708943,0.09769603,-0.012649356
1734276419584,2024-12-15T15:26:59.584Z,27061,-0.023708943,0.09769603,-0.012649356
1734276419591,2024-12-15T15:26:59.591Z,27068,-0.010410684,0.08824919,-0.0050145085
1734276419593,2024-12-15T15:26:59.593Z,27070,-0.010410684,0.08824919,-0.0050145085
1734276419600,2024-12-15T15:26:59.600Z,27077,-0.01186376,0.07932477,0.0083575845
1734276419602,2024-12-15T15:26:59.602Z,27079,-0.01186376,0.07932477,0.0083575845
1734276419608,2024-12-15T15:26:59.608Z,27085,-0.018270584,0.07432935,0.012709319
1734276419611,2024-12-15T15:26:59.611Z,27088,-0.018270584,0.07432935,0.012709319
1734276419619,2024-12-15T15:26:59.619Z,27096,-0.032471646,0.0659182,0.017876893
1734276419622,2024-12-15T15:26:59.622Z,27099,-0.032471646,0.0659182,0.017876893
1734276419631,2024-12-15T15:26:59.631Z,27108,-0.037245825,0.06040892,0.02492636
1734276419634,2024-12-15T15:26:59.634Z,27111,-0.037245825,0.06040892,0.02492636
1734276419643,2024-12-15T15:26:59.643Z,27120,-0.037884865,0.056316733,0.028463066
1734276419646,2024-12-15T15:26:59.646Z,27123,-0.037884865,0.056316733,0.028463066
1734276419656,2024-12-15T15:26:59.656Z,27133,-0.03435791,0.05070136,0.036219865
1734276419661,2024-12-15T15:26:59.661Z,27138,-0.03435791,0.05070136,0.036219865
1734276419670,2024-12-15T15:26:59.670Z,27147,-0.020338558,0.045031525,0.035914958
1734276419673,2024-12-15T15:26:59.673Z,27150,-0.020338558,0.045031525,0.035914958
1734276419682,2024-12-15T15:26:59.682Z,27159,-0.02366895,0.034424037,0.038216177
1734276419684,2024-12-15T15:26:59.684Z,27161,-0.02366895,0.034424037,0.038216177
1734276419690,2024-12-15T15:26:59.690Z,27167,-0.01847974,0.029131914,0.03224695
1734276419692,2024-12-15T15:26:59.692Z,27169,-0.01847974,0.029131914,0.03224695
1734276419700,2024-12-15T15:26:59.700Z,27177,-0.009157817,0.02329287,0.031147506
1734276419702,2024-12-15T15:26:59.702Z,27179,-0.009157817,0.02329287,0.031147506
1734276419712,2024-12-15T15:26:59.712Z,27189,-0.011556505,0.020869652,0.023656577
1734276419714,2024-12-15T15:26:59.714Z,27191,-0.011556505,0.020869652,0.023656577
1734276419721,2024-12-15T15:26:59.721Z,27198,-0.015812283,0.020371646,0.013138235
1734276419723,2024-12-15T15:26:59.723Z,27200,-0.015812283,0.020371646,0.013138235
1734276419730,2024-12-15T15:26:59.730Z,27207,-0.019072367,0.020353558,0.015199391
1734276419732,2024-12-15T15:26:59.732Z,27209,-0.019072367,0.020353558,0.015199391
1734276419740,2024-12-15T15:26:59.740Z,27217,-0.0050611114,0.026630897,0.016962111
1734276419743,2024-12-15T15:26:59.743Z,27220,-0.0050611114,0.026630897,0.016962111
1734276419749,2024-12-15T15:26:59.749Z,27226,0.0039418875,0.027565643,0.027359247
1734276419751,2024-12-15T15:26:59.751Z,27228,0.0039418875,0.027565643,0.027359247
1734276419758,2024-12-15T15:26:59.758Z,27235,0.00157128,0.027066762,0.032657176
1734276419760,2024-12-15T15:26:59.760Z,27237,0.00157128,0.027066762,0.032657176
1734276419768,2024-12-15T15:26:59.768Z,27245,-0.002744987,0.030467903,0.025980651
1734276419770,2024-12-15T15:26:59.770Z,27247,-0.002744987,0.030467903,0.025980651
1734276419778,2024-12-15T15:26:59.778Z,27255,-0.01140672,0.02896776,0.028223515
1734276419780,2024-12-15T15:26:59.780Z,27257,-0.01140672,0.02896776,0.028223515
1734276419787,2024-12-15T15:26:59.787Z,27264,-0.007361895,0.032832675,0.028816996
1734276419789,2024-12-15T15:26:59.789Z,27266,-0.007361895,0.032832675,0.028816996
1734276419796,2024-12-15T15:26:59.796Z,27273,-0.0023583544,0.032302577,0.036000546
1734276419798,2024-12-15T15:26:59.798Z,27275,-0.0023583544,0.032302577,0.036000546
1734276419807,2024-12-15T15:26:59.807Z,27284,-0.0017468364,0.03664829,0.044319425
1734276419810,2024-12-15T15:26:59.810Z,27287,-0.0017468364,0.03664829,0.044319425
1734276419818,2024-12-15T15:26:59.818Z,27295,0.0037152031,0.044416435,0.030050842
1734276419821,2024-12-15T15:26:59.821Z,27298,0.0037152031,0.044416435,0.030050842
1734276419829,2024-12-15T15:26:59.829Z,27306,0.0033066655,0.048767004,0.028900383
1734276419832,2024-12-15T15:26:59.832Z,27309,0.0033066655,0.048767004,0.028900383
1734276419839,2024-12-15T15:26:59.839Z,27316,0.014084751,0.055081688,0.027828753
1734276419841,2024-12-15T15:26:59.841Z,27318,0.014084751,0.055081688,0.027828753
1734276419848,2024-12-15T15:26:59.848Z,27325,0.01750809,0.055544782,0.03167754
1734276419851,2024-12-15T15:26:59.851Z,27328,0.01750809,0.055544782,0.03167754
1734276419857,2024-12-15T15:26:59.857Z,27334,0.017395403,0.058479525,0.028759181
1734276419860,2024-12-15T15:26:59.860Z,27337,0.017395403,0.058479525,0.028759181
1734276419868,2024-12-15T15:26:59.868Z,27345,0.012257418,0.059011664,0.023075968
1734276419870,2024-12-15T15:26:59.870Z,27347,0.012257418,0.059011664,0.023075968
1734276419879,2024-12-15T15:26:59.879Z,27356,0.010433828,0.060062815,0.021506159
1734276419881,2024-12-15T15:26:59.881Z,27358,0.010433828,0.060062815,0.021506159
1734276419890,2024-12-15T15:26:59.890Z,27367,0.012905842,0.055281922,0.02689257
1734276419892,2024-12-15T15:26:59.892Z,27369,0.012905842,0.055281922,0.02689257
1734276419900,2024-12-15T15:26:59.900Z,27377,0.0036242036,0.052467477,0.027577637
1734276419902,2024-12-15T15:26:59.902Z,27379,0.0036242036,0.052467477,0.027577637
1734276419909,2024-12-15T15:26:59.909Z,27386,0.008462375,0.050149772,0.03164357
1734276419911,2024-12-15T15:26:59.911Z,27388,0.008462375,0.050149772,0.03164357
1734276419918,2024-12-15T15:26:59.918Z,27395,0.005952776,0.04490802,0.03229636
1734276419920,2024-12-15T15:26:59.920Z,27397,0.005952776,0.04490802,0.03229636
1734276419927,2024-12-15T15:26:59.927Z,27404,-0.001474324,0.038206488,0.030875681
1734276419929,2024-12-15T15:26:59.929Z,27406,-0.001474324,0.038206488,0.030875681
1734276419936,2024-12-15T15:26:59.936Z,27413,-0.005553574,0.032982048,0.032248136
1734276419938,2024-12-15T15:26:59.938Z,27415,-0.005553574,0.032982048,0.032248136
1734276419948,2024-12-15T15:26:59.948Z,27425,-0.018892702,0.027749343,0.024711516
1734276419950,2024-12-15T15:26:59.950Z,27427,-0.018892702,0.027749343,0.024711516
1734276419956,2024-12-15T15:26:59.956Z,27433,-0.018540569,0.02788335,0.017203182
1734276419958,2024-12-15T15:26:59.958Z,27435,-0.018540569,0.02788335,0.017203182
1734276419965,2024-12-15T15:26:59.965Z,27442,-0.016343962,0.024626622,0.009775012
1734276419967,2024-12-15T15:26:59.967Z,27444,-0.016343962,0.024626622,0.009775012
1734276419974,2024-12-15T15:26:59.974Z,27451,-0.025427943,0.021379618,0.0144810695
1734276419977,2024-12-15T15:26:59.977Z,27454,-0.025427943,0.021379618,0.0144810695
1734276419985,2024-12-15T15:26:59.985Z,27462,-0.028158125,0.017150704,0.004952966
1734276419988,2024-12-15T15:26:59.988Z,27465,-0.028158125,0.017150704,0.004952966
1734276419995,2024-12-15T15:26:59.995Z,27472,-0.04200034,0.0099588465,0.0016741741
1734276419997,2024-12-15T15:26:59.997Z,27474,-0.04200034,0.0099588465,0.0016741741
1734276420005,2024-12-15T15:27:00.005Z,27482,-0.048850276,0.0027238112,-0.0027183015
1734276420007,2024-12-15T15:27:00.007Z,27484,-0.048850276,0.0027238112,-0.0027183015
1734276420014,2024-12-15T15:27:00.014Z,27491,-0.05694194,-0.0074973125,-0.010068206
1734276420018,2024-12-15T15:27:00.018Z,27495,-0.05694194,-0.0074973125,-0.010068206
1734276420025,2024-12-15T15:27:00.025Z,27502,-0.0635128,-0.016153429,-0.01798898
1734276420027,2024-12-15T15:27:00.027Z,27504,-0.0635128,-0.016153429,-0.01798898
1734276420034,2024-12-15T15:27:00.034Z,27511,-0.062585615,-0.02631533,-0.020953894
1734276420036,2024-12-15T15:27:00.036Z,27513,-0.062585615,-0.02631533,-0.020953894
1734276420042,2024-12-15T15:27:00.042Z,27519,-0.06588902,-0.03358479,-0.028726015
1734276420045,2024-12-15T15:27:00.045Z,27522,-0.06588902,-0.03358479,-0.028726015
1734276420053,2024-12-15T15:27:00.053Z,27530,-0.06753394,-0.03650261,-0.032950044
1734276420056,2024-12-15T15:27:00.056Z,27533,-0.06753394,-0.03650261,-0.032950044
1734276420070,2024-12-15T15:27:00.070Z,27547,-0.06267671,-0.031635948,-0.039868023
1734276420072,2024-12-15T15:27:00.072Z,27549,-0.06267671,-0.031635948,-0.039868023
1734276420079,2024-12-15T15:27:00.079Z,27556,-0.067876935,-0.02241268,-0.043130126
1734276420082,2024-12-15T15:27:00.082Z,27559,-0.067876935,-0.02241268,-0.043130126
1734276420089,2024-12-15T15:27:00.089Z,27566,-0.06283189,-0.00861323,-0.043328285
1734276420092,2024-12-15T15:27:00.092Z,27569,-0.06283189,-0.00861323,-0.043328285
1734276420101,2024-12-15T15:27:00.101Z,27578,-0.060464595,0.0017201175,-0.04504576
1734276420103,2024-12-15T15:27:00.103Z,27580,-0.060464595,0.0017201175,-0.04504576
1734276420110,2024-12-15T15:27:00.110Z,27587,-0.044102643,0.021579657,-0.04598093
1734276420112,2024-12-15T15:27:00.112Z,27589,-0.044102643,0.021579657,-0.04598093
1734276420119,2024-12-15T15:27:00.119Z,27596,-0.045270514,0.041436374,-0.038840264
1734276420121,2024-12-15T15:27:00.121Z,27598,-0.045270514,0.041436374,-0.038840264
1734276420128,2024-12-15T15:27:00.128Z,27605,-0.047790736,0.06029436,-0.03296089
1734276420130,2024-12-15T15:27:00.130Z,27607,-0.047790736,0.06029436,-0.03296089
1734276420137,2024-12-15T15:27:00.137Z,27614,-0.044796042,0.088399045,-0.028852284
1734276420139,2024-12-15T15:27:00.139Z,27616,-0.044796042,0.088399045,-0.028852284
1734276420145,2024-12-15T15:27:00.145Z,27622,-0.037253972,0.118421264,-0.02068612
1734276420148,2024-12-15T15:27:00.148Z,27625,-0.037253972,0.118421264,-0.02068612
1734276420156,2024-12-15T15:27:00.156Z,27633,-0.029067803,0.14791737,-0.020181833
1734276420158,2024-12-15T15:27:00.158Z,27635,-0.029067803,0.14791737,-0.020181833
1734276420165,2024-12-15T15:27:00.165Z,27642,-0.014398107,0.17786807,-0.018057348
1734276420168,2024-12-15T15:27:00.168Z,27645,-0.014398107,0.17786807,-0.018057348
1734276420174,2024-12-15T15:27:00.174Z,27651,0.0027577507,0.20585528,-0.011315853
1734276420177,2024-12-15T15:27:00.177Z,27654,0.0027577507,0.20585528,-0.011315853
1734276420184,2024-12-15T15:27:00.184Z,27661,0.022307897,0.2294584,-0.001473666
1734276420186,2024-12-15T15:27:00.186Z,27663,0.022307897,0.2294584,-0.001473666
1734276420192,2024-12-15T15:27:00.192Z,27669,0.03246005,0.2550411,0.005039307
1734276420195,2024-12-15T15:27:00.195Z,27672,0.03246005,0.2550411,0.005039307
1734276420201,2024-12-15T15:27:00.201Z,27678,0.02832984,0.2811364,0.012987136
1734276420203,2024-12-15T15:27:00.203Z,27680,0.02832984,0.2811364,0.012987136
1734276420210,2024-12-15T15:27:00.210Z,27687,0.031970453,0.3101654,0.013598172
1734276420212,2024-12-15T15:27:00.212Z,27689,0.031970453,0.3101654,0.013598172
1734276420218,2024-12-15T15:27:00.218Z,27695,0.053158335,0.3343151,0.0142891975
1734276420220,2024-12-15T15:27:00.220Z,27697,0.053158335,0.3343151,0.0142891975
1734276420227,2024-12-15T15:27:00.227Z,27704,0.047969963,0.3530911,0.03263843
1734276420229,2024-12-15T15:27:00.229Z,27706,0.047969963,0.3530911,0.03263843
1734276420237,2024-12-15T15:27:00.237Z,27714,0.03813878,0.37277436,0.035402954
1734276420239,2024-12-15T15:27:00.239Z,27716,0.03813878,0.37277436,0.035402954
1734276420246,2024-12-15T15:27:00.246Z,27723,0.044814423,0.39136988,0.043600973
1734276420249,2024-12-15T15:27:00.249Z,27726,0.044814423,0.39136988,0.043600973
1734276420257,2024-12-15T15:27:00.257Z,27734,0.042708643,0.40542966,0.048950106
1734276420261,2024-12-15T15:27:00.261Z,27738,0.042708643,0.40542966,0.048950106
1734276420269,2024-12-15T15:27:00.269Z,27746,0.031789426,0.41935334,0.034462452
1734276420272,2024-12-15T15:27:00.272Z,27749,0.031789426,0.41935334,0.034462452
1734276420280,2024-12-15T15:27:00.280Z,27757,0.07340366,0.42341733,0.047989424
1734276420283,2024-12-15T15:27:00.283Z,27760,0.07340366,0.42341733,0.047989424
1734276420292,2024-12-15T15:27:00.292Z,27769,0.07250628,0.4347954,0.039854527
1734276420294,2024-12-15T15:27:00.294Z,27771,0.07250628,0.4347954,0.039854527
1734276420301,2024-12-15T15:27:00.301Z,27778,0.088440575,0.4271823,0.032846153
1734276420303,2024-12-15T15:27:00.303Z,27780,0.088440575,0.4271823,0.032846153
1734276420309,2024-12-15T15:27:00.309Z,27786,0.10481637,0.42409438,0.030425217
1734276420312,2024-12-15T15:27:00.312Z,27789,0.10481637,0.42409438,0.030425217
1734276420319,2024-12-15T15:27:00.319Z,27796,0.08694519,0.4128451,0.03102067
1734276420321,2024-12-15T15:27:00.321Z,27798,0.08694519,0.4128451,0.03102067
1734276420328,2024-12-15T15:27:00.328Z,27805,0.07211426,0.40217897,0.029507576
1734276420330,2024-12-15T15:27:00.330Z,27807,0.07211426,0.40217897,0.029507576
1734276420337,2024-12-15T15:27:00.337Z,27814,0.080027685,0.39351156,0.0250327
1734276420339,2024-12-15T15:27:00.339Z,27816,0.080027685,0.39351156,0.0250327
1734276420348,2024-12-15T15:27:00.348Z,27825,0.07123426,0.37705073,0.04196933
1734276420350,2024-12-15T15:27:00.350Z,27827,0.07123426,0.37705073,0.04196933
1734276420358,2024-12-15T15:27:00.358Z,27835,0.055728313,0.36054674,0.042607274
1734276420360,2024-12-15T15:27:00.360Z,27837,0.055728313,0.36054674,0.042607274
1734276420367,2024-12-15T15:27:00.367Z,27844,0.070573784,0.33523077,0.045300484
1734276420369,2024-12-15T15:27:00.369Z,27846,0.070573784,0.33523077,0.045300484
1734276420375,2024-12-15T15:27:00.375Z,27852,0.07501721,0.30312797,0.05922353
1734276420377,2024-12-15T15:27:00.377Z,27854,0.07501721,0.30312797,0.05922353
1734276420384,2024-12-15T15:27:00.384Z,27861,0.07881139,0.27840713,0.05603978
1734276420386,2024-12-15T15:27:00.386Z,27863,0.07881139,0.27840713,0.05603978
1734276420394,2024-12-15T15:27:00.394Z,27871,0.07842107,0.25231668,0.05234411
1734276420397,2024-12-15T15:27:00.397Z,27874,0.07842107,0.25231668,0.05234411
1734276420404,2024-12-15T15:27:00.404Z,27881,0.07143027,0.23070697,0.049227476
1734276420406,2024-12-15T15:27:00.406Z,27883,0.07143027,0.23070697,0.049227476
1734276420413,2024-12-15T15:27:00.413Z,27890,0.07117913,0.20376566,0.06287652
1734276420415,2024-12-15T15:27:00.415Z,27892,0.07117913,0.20376566,0.06287652
1734276420422,2024-12-15T15:27:00.422Z,27899,0.0666033,0.18950735,0.04600155
1734276420425,2024-12-15T15:27:00.425Z,27902,0.0666033,0.18950735,0.04600155
1734276420433,2024-12-15T15:27:00.433Z,27910,0.08647205,0.16987848,0.04056996
1734276420436,2024-12-15T15:27:00.436Z,27913,0.08647205,0.16987848,0.04056996
1734276420443,2024-12-15T15:27:00.443Z,27920,0.066218354,0.14832912,0.034427818
1734276420446,2024-12-15T15:27:00.446Z,27923,0.066218354,0.14832912,0.034427818
1734276420454,2024-12-15T15:27:00.454Z,27931,0.067004696,0.13214487,0.025142431
1734276420457,2024-12-15T15:27:00.457Z,27934,0.067004696,0.13214487,0.025142431
1734276420467,2024-12-15T15:27:00.467Z,27944,0.063357174,0.12134472,0.013361064
1734276420469,2024-12-15T15:27:00.469Z,27946,0.063357174,0.12134472,0.013361064
1734276420476,2024-12-15T15:27:00.476Z,27953,0.09951597,0.09987194,0.02303782
1734276420478,2024-12-15T15:27:00.478Z,27955,0.09951597,0.09987194,0.02303782
1734276420486,2024-12-15T15:27:00.486Z,27963,0.095960714,0.080394685,0.023617059
1734276420488,2024-12-15T15:27:00.488Z,27965,0.095960714,0.080394685,0.023617059
1734276420495,2024-12-15T15:27:00.495Z,27972,0.07843614,0.053678893,0.033037037
1734276420498,2024-12-15T15:27:00.498Z,27975,0.07843614,0.053678893,0.033037037
1734276420506,2024-12-15T15:27:00.506Z,27983,0.06642469,0.029990612,0.009877711
1734276420508,2024-12-15T15:27:00.508Z,27985,0.06642469,0.029990612,0.009877711
1734276420516,2024-12-15T15:27:00.516Z,27993,0.06722547,0.0049364883,1.8730822E-4
1734276420521,2024-12-15T15:27:00.521Z,27998,0.06722547,0.0049364883,1.8730822E-4
1734276420531,2024-12-15T15:27:00.531Z,28008,0.037367046,-0.03270528,0.02918687
1734276420534,2024-12-15T15:27:00.534Z,28011,0.037367046,-0.03270528,0.02918687
1734276420541,2024-12-15T15:27:00.541Z,28018,0.012811,-0.07032702,0.04345417
1734276420543,2024-12-15T15:27:00.543Z,28020,0.012811,-0.07032702,0.04345417
1734276420551,2024-12-15T15:27:00.551Z,28028,0.0170528,-0.090354696,0.055761665
1734276420553,2024-12-15T15:27:00.553Z,28030,0.0170528,-0.090354696,0.055761665
1734276420559,2024-12-15T15:27:00.559Z,28036,0.011875331,-0.09421281,0.055761006
1734276420561,2024-12-15T15:27:00.561Z,28038,0.011875331,-0.09421281,0.055761006
1734276420568,2024-12-15T15:27:00.568Z,28045,-0.02800953,-0.10879511,0.06855604
1734276420570,2024-12-15T15:27:00.570Z,28047,-0.02800953,-0.10879511,0.06855604
1734276420576,2024-12-15T15:27:00.576Z,28053,-0.043624375,-0.11322075,0.071398914
1734276420578,2024-12-15T15:27:00.578Z,28055,-0.043624375,-0.11322075,0.071398914
1734276420587,2024-12-15T15:27:00.587Z,28064,-0.004658117,-0.11043159,0.07656038
1734276420589,2024-12-15T15:27:00.589Z,28066,-0.004658117,-0.11043159,0.07656038
1734276420596,2024-12-15T15:27:00.596Z,28073,-0.0026444572,-0.11354536,0.079587966
1734276420599,2024-12-15T15:27:00.599Z,28076,-0.0026444572,-0.11354536,0.079587966
1734276420606,2024-12-15T15:27:00.606Z,28083,-0.016598945,-0.119139634,0.074047536
1734276420608,2024-12-15T15:27:00.608Z,28085,-0.016598945,-0.119139634,0.074047536
1734276420615,2024-12-15T15:27:00.615Z,28092,-0.013701523,-0.12041056,0.06977147
1734276420617,2024-12-15T15:27:00.617Z,28094,-0.013701523,-0.12041056,0.06977147
1734276420624,2024-12-15T15:27:00.624Z,28101,0.003117932,-0.10646524,0.05164927
1734276420627,2024-12-15T15:27:00.627Z,28104,0.003117932,-0.10646524,0.05164927
1734276420635,2024-12-15T15:27:00.635Z,28112,0.005177225,-0.10080377,0.06093976
1734276420638,2024-12-15T15:27:00.638Z,28115,0.005177225,-0.10080377,0.06093976
1734276420646,2024-12-15T15:27:00.646Z,28123,0.031499773,-0.092819445,0.05098003
1734276420649,2024-12-15T15:27:00.649Z,28126,0.031499773,-0.092819445,0.05098003
1734276420655,2024-12-15T15:27:00.655Z,28132,0.017580952,-0.094062075,0.06992176
1734276420656,2024-12-15T15:27:00.656Z,28133,0.017580952,-0.094062075,0.06992176
1734276420663,2024-12-15T15:27:00.663Z,28140,0.019217169,-0.09284891,0.07849812
1734276420666,2024-12-15T15:27:00.666Z,28143,0.019217169,-0.09284891,0.07849812
1734276420673,2024-12-15T15:27:00.673Z,28150,0.032491628,-0.09015369,0.080137335
1734276420675,2024-12-15T15:27:00.675Z,28152,0.032491628,-0.09015369,0.080137335
1734276420685,2024-12-15T15:27:00.685Z,28162,0.03491176,-0.088899195,0.08568269
1734276420688,2024-12-15T15:27:00.688Z,28165,0.03491176,-0.088899195,0.08568269
1734276420698,2024-12-15T15:27:00.698Z,28175,0.032367516,-0.08811713,0.07866046
1734276420700,2024-12-15T15:27:00.700Z,28177,0.032367516,-0.08811713,0.07866046
1734276420710,2024-12-15T15:27:00.710Z,28187,0.049252126,-0.09170732,0.087014884
1734276420712,2024-12-15T15:27:00.712Z,28189,0.049252126,-0.09170732,0.087014884
1734276420720,2024-12-15T15:27:00.720Z,28197,0.041345913,-0.094823524,0.09455535
1734276420722,2024-12-15T15:27:00.722Z,28199,0.041345913,-0.094823524,0.09455535
1734276420729,2024-12-15T15:27:00.729Z,28206,0.019910935,-0.09800421,0.082195215
1734276420731,2024-12-15T15:27:00.731Z,28208,0.019910935,-0.09800421,0.082195215
1734276420738,2024-12-15T15:27:00.738Z,28215,0.025428649,-0.103672676,0.0755228
1734276420740,2024-12-15T15:27:00.740Z,28217,0.025428649,-0.103672676,0.0755228
1734276420750,2024-12-15T15:27:00.750Z,28227,0.029415343,-0.11764251,0.076474756
1734276420752,2024-12-15T15:27:00.752Z,28229,0.029415343,-0.11764251,0.076474756
1734276420759,2024-12-15T15:27:00.759Z,28236,0.035211697,-0.12573497,0.07558882
1734276420761,2024-12-15T15:27:00.761Z,28238,0.035211697,-0.12573497,0.07558882
1734276420769,2024-12-15T15:27:00.769Z,28246,0.02141504,-0.1317161,0.07745191
1734276420771,2024-12-15T15:27:00.771Z,28248,0.02141504,-0.1317161,0.07745191
1734276420777,2024-12-15T15:27:00.777Z,28254,0.004702486,-0.13087374,0.063044906
1734276420780,2024-12-15T15:27:00.780Z,28257,0.004702486,-0.13087374,0.063044906
1734276420786,2024-12-15T15:27:00.786Z,28263,0.012502336,-0.13005939,0.06581729
1734276420788,2024-12-15T15:27:00.788Z,28265,0.012502336,-0.13005939,0.06581729
1734276420794,2024-12-15T15:27:00.794Z,28271,0.015034959,-0.13415837,0.079342395
1734276420797,2024-12-15T15:27:00.797Z,28274,0.015034959,-0.13415837,0.079342395
1734276420804,2024-12-15T15:27:00.804Z,28281,0.019148197,-0.12783572,0.0657402
1734276420806,2024-12-15T15:27:00.806Z,28283,0.019148197,-0.12783572,0.0657402
1734276420814,2024-12-15T15:27:00.814Z,28291,0.009685581,-0.1259425,0.08051643
1734276420817,2024-12-15T15:27:00.817Z,28294,0.009685581,-0.1259425,0.08051643
1734276420824,2024-12-15T15:27:00.824Z,28301,0.017367324,-0.1274828,0.07067647
1734276420825,2024-12-15T15:27:00.825Z,28302,0.017367324,-0.1274828,0.07067647
1734276420832,2024-12-15T15:27:00.832Z,28309,0.004845173,-0.13103682,0.05556225
1734276420835,2024-12-15T15:27:00.835Z,28312,0.004845173,-0.13103682,0.05556225
1734276420841,2024-12-15T15:27:00.841Z,28318,0.0023438158,-0.13611072,0.0583218
1734276420844,2024-12-15T15:27:00.844Z,28321,0.0023438158,-0.13611072,0.0583218
1734276420852,2024-12-15T15:27:00.852Z,28329,-0.0013432584,-0.13440791,0.051600367
1734276420854,2024-12-15T15:27:00.854Z,28331,-0.0013432584,-0.13440791,0.051600367
1734276420861,2024-12-15T15:27:00.861Z,28338,-4.223468E-4,-0.13274488,0.04275235
1734276420863,2024-12-15T15:27:00.863Z,28340,-4.223468E-4,-0.13274488,0.04275235
1734276420870,2024-12-15T15:27:00.870Z,28347,0.009840594,-0.12718329,0.040951397
1734276420872,2024-12-15T15:27:00.872Z,28349,0.009840594,-0.12718329,0.040951397
1734276420878,2024-12-15T15:27:00.878Z,28355,-0.003153257,-0.12410238,0.040721353
1734276420880,2024-12-15T15:27:00.880Z,28357,-0.003153257,-0.12410238,0.040721353
1734276420890,2024-12-15T15:27:00.890Z,28367,-0.020700319,-0.12401729,0.03488356
1734276420892,2024-12-15T15:27:00.892Z,28369,-0.020700319,-0.12401729,0.03488356
1734276420901,2024-12-15T15:27:00.901Z,28378,-0.022332791,-0.11716745,0.044098824
1734276420903,2024-12-15T15:27:00.903Z,28380,-0.022332791,-0.11716745,0.044098824
1734276420911,2024-12-15T15:27:00.911Z,28388,-0.012738818,-0.10689168,0.03834507
1734276420914,2024-12-15T15:27:00.914Z,28391,-0.012738818,-0.10689168,0.03834507
1734276420925,2024-12-15T15:27:00.925Z,28402,-0.017600985,-0.106906556,0.031293806
1734276420927,2024-12-15T15:27:00.927Z,28404,-0.017600985,-0.106906556,0.031293806
1734276420935,2024-12-15T15:27:00.935Z,28412,-0.004372452,-0.10447857,0.025853992
1734276420937,2024-12-15T15:27:00.937Z,28414,-0.004372452,-0.10447857,0.025853992
1734276420943,2024-12-15T15:27:00.943Z,28420,-0.002930414,-0.11278032,0.041346665
1734276420945,2024-12-15T15:27:00.945Z,28422,-0.002930414,-0.11278032,0.041346665
1734276420954,2024-12-15T15:27:00.954Z,28431,0.013972333,-0.107867844,0.03617105
1734276420957,2024-12-15T15:27:00.957Z,28434,0.013972333,-0.107867844,0.03617105
1734276420964,2024-12-15T15:27:00.964Z,28441,0.013561802,-0.099977165,0.031417817
1734276420967,2024-12-15T15:27:00.967Z,28444,0.013561802,-0.099977165,0.031417817
1734276420973,2024-12-15T15:27:00.973Z,28450,-5.9109594E-4,-0.09550221,0.04396853
1734276420975,2024-12-15T15:27:00.975Z,28452,-5.9109594E-4,-0.09550221,0.04396853
1734276420982,2024-12-15T15:27:00.982Z,28459,0.003730471,-0.087603174,0.04650443
1734276420984,2024-12-15T15:27:00.984Z,28461,0.003730471,-0.087603174,0.04650443
1734276420990,2024-12-15T15:27:00.990Z,28467,-0.0050832354,-0.07923734,0.047880054
1734276420992,2024-12-15T15:27:00.992Z,28469,-0.0050832354,-0.07923734,0.047880054
1734276421001,2024-12-15T15:27:01.001Z,28478,0.007963226,-0.079158865,0.051485002
1734276421003,2024-12-15T15:27:01.003Z,28480,0.007963226,-0.079158865,0.051485002
1734276421010,2024-12-15T15:27:01.010Z,28487,0.005227794,-0.08590562,0.060027666
1734276421012,2024-12-15T15:27:01.012Z,28489,0.005227794,-0.08590562,0.060027666
1734276421019,2024-12-15T15:27:01.019Z,28496,-0.0028557763,-0.09610243,0.0627799
1734276421021,2024-12-15T15:27:01.021Z,28498,-0.0028557763,-0.09610243,0.0627799
1734276421027,2024-12-15T15:27:01.027Z,28504,-0.0020974143,-0.1029227,0.06657248
1734276421029,2024-12-15T15:27:01.029Z,28506,-0.0020974143,-0.1029227,0.06657248
1734276421036,2024-12-15T15:27:01.036Z,28513,-0.012651806,-0.10590568,0.07623883
1734276421038,2024-12-15T15:27:01.038Z,28515,-0.012651806,-0.10590568,0.07623883
1734276421047,2024-12-15T15:27:01.047Z,28524,-0.020636257,-0.100151435,0.07047083
1734276421049,2024-12-15T15:27:01.049Z,28526,-0.020636257,-0.100151435,0.07047083
1734276421055,2024-12-15T15:27:01.055Z,28532,-0.025092974,-0.09101832,0.06798962
1734276421057,2024-12-15T15:27:01.057Z,28534,-0.025092974,-0.09101832,0.06798962
1734276421064,2024-12-15T15:27:01.064Z,28541,-0.018142145,-0.08149436,0.059877276
1734276421066,2024-12-15T15:27:01.066Z,28543,-0.018142145,-0.08149436,0.059877276
1734276421072,2024-12-15T15:27:01.072Z,28549,-0.013046462,-0.077850975,0.059253003
1734276421074,2024-12-15T15:27:01.074Z,28551,-0.013046462,-0.077850975,0.059253003
1734276421083,2024-12-15T15:27:01.083Z,28560,-0.012740642,-0.076177634,0.057349354
1734276421085,2024-12-15T15:27:01.085Z,28562,-0.012740642,-0.076177634,0.057349354
1734276421091,2024-12-15T15:27:01.091Z,28568,-0.012364633,-0.06962674,0.054720547
1734276421093,2024-12-15T15:27:01.093Z,28570,-0.012364633,-0.06962674,0.054720547
1734276421099,2024-12-15T15:27:01.099Z,28576,-0.006178634,-0.06890341,0.048045337
1734276421101,2024-12-15T15:27:01.101Z,28578,-0.006178634,-0.06890341,0.048045337
1734276421108,2024-12-15T15:27:01.108Z,28585,-0.015173464,-0.068144,0.04419809
1734276421110,2024-12-15T15:27:01.110Z,28587,-0.015173464,-0.068144,0.04419809
1734276421118,2024-12-15T15:27:01.118Z,28595,-0.01932013,-0.06978574,0.040783517
1734276421121,2024-12-15T15:27:01.121Z,28598,-0.01932013,-0.06978574,0.040783517
1734276421128,2024-12-15T15:27:01.128Z,28605,-0.014281192,-0.06893132,0.03437835
1734276421130,2024-12-15T15:27:01.130Z,28607,-0.014281192,-0.06893132,0.03437835
1734276421137,2024-12-15T15:27:01.137Z,28614,-0.01483864,-0.072387405,0.03959882
1734276421139,2024-12-15T15:27:01.139Z,28616,-0.01483864,-0.072387405,0.03959882
1734276421145,2024-12-15T15:27:01.145Z,28622,-0.014074759,-0.07726516,0.05471436
1734276421147,2024-12-15T15:27:01.147Z,28624,-0.014074759,-0.07726516,0.05471436
1734276421155,2024-12-15T15:27:01.155Z,28632,-0.022666838,-0.08356088,0.04966366
1734276421157,2024-12-15T15:27:01.157Z,28634,-0.022666838,-0.08356088,0.04966366
1734276421164,2024-12-15T15:27:01.164Z,28641,-0.02398773,-0.09322895,0.044027984
1734276421166,2024-12-15T15:27:01.166Z,28643,-0.02398773,-0.09322895,0.044027984
1734276421173,2024-12-15T15:27:01.173Z,28650,-0.034147877,-0.108218424,0.045682374
1734276421175,2024-12-15T15:27:01.175Z,28652,-0.034147877,-0.108218424,0.045682374
1734276421184,2024-12-15T15:27:01.184Z,28661,-0.046346147,-0.13583367,0.04159792
1734276421186,2024-12-15T15:27:01.186Z,28663,-0.046346147,-0.13583367,0.04159792
1734276421192,2024-12-15T15:27:01.192Z,28669,-0.057507094,-0.175162,0.0309371
1734276421194,2024-12-15T15:27:01.194Z,28671,-0.057507094,-0.175162,0.0309371
1734276421200,2024-12-15T15:27:01.200Z,28677,-0.08455966,-0.24186994,0.02048802
1734276421203,2024-12-15T15:27:01.203Z,28680,-0.08455966,-0.24186994,0.02048802
1734276421210,2024-12-15T15:27:01.210Z,28687,-0.11588247,-0.31847274,0.019965053
1734276421214,2024-12-15T15:27:01.214Z,28691,-0.11588247,-0.31847274,0.019965053
1734276421222,2024-12-15T15:27:01.222Z,28699,-0.123854496,-0.38405767,0.03644707
1734276421224,2024-12-15T15:27:01.224Z,28701,-0.123854496,-0.38405767,0.03644707
1734276421230,2024-12-15T15:27:01.230Z,28707,-0.107017875,-0.41031292,0.05568099
1734276421232,2024-12-15T15:27:01.232Z,28709,-0.107017875,-0.41031292,0.05568099
1734276421240,2024-12-15T15:27:01.240Z,28717,-0.09070982,-0.39567927,0.053227432
1734276421242,2024-12-15T15:27:01.242Z,28719,-0.09070982,-0.39567927,0.053227432
1734276421250,2024-12-15T15:27:01.250Z,28727,-0.09768574,-0.3708279,0.05139535
1734276421252,2024-12-15T15:27:01.252Z,28729,-0.09768574,-0.3708279,0.05139535
1734276421258,2024-12-15T15:27:01.258Z,28735,-0.08364383,-0.3508538,0.04352819
1734276421259,2024-12-15T15:27:01.259Z,28736,-0.08364383,-0.3508538,0.04352819
1734276421266,2024-12-15T15:27:01.266Z,28743,-0.08053591,-0.35035813,0.046683438
1734276421268,2024-12-15T15:27:01.268Z,28745,-0.08053591,-0.35035813,0.046683438
1734276421276,2024-12-15T15:27:01.276Z,28753,-0.0722745,-0.35421127,0.04892856
1734276421278,2024-12-15T15:27:01.278Z,28755,-0.0722745,-0.35421127,0.04892856
1734276421286,2024-12-15T15:27:01.286Z,28763,-0.07492307,-0.35903284,0.052295063
1734276421288,2024-12-15T15:27:01.288Z,28765,-0.07492307,-0.35903284,0.052295063
1734276421296,2024-12-15T15:27:01.296Z,28773,-0.081058696,-0.35703692,0.051319145
1734276421298,2024-12-15T15:27:01.298Z,28775,-0.081058696,-0.35703692,0.051319145
1734276421305,2024-12-15T15:27:01.305Z,28782,-0.08234229,-0.36044,0.06500753
1734276421306,2024-12-15T15:27:01.306Z,28783,-0.08234229,-0.36044,0.06500753
1734276421312,2024-12-15T15:27:01.312Z,28789,-0.06495163,-0.34927082,0.08144891
1734276421315,2024-12-15T15:27:01.315Z,28792,-0.06495163,-0.34927082,0.08144891
1734276421323,2024-12-15T15:27:01.323Z,28800,-0.05540798,-0.33617583,0.09689307
1734276421326,2024-12-15T15:27:01.326Z,28803,-0.05540798,-0.33617583,0.09689307
1734276421337,2024-12-15T15:27:01.337Z,28814,-0.055194788,-0.31967756,0.11342322
1734276421341,2024-12-15T15:27:01.341Z,28818,-0.055194788,-0.31967756,0.11342322
1734276421352,2024-12-15T15:27:01.352Z,28829,-0.04324382,-0.29490826,0.1159732
1734276421356,2024-12-15T15:27:01.356Z,28833,-0.04324382,-0.29490826,0.1159732
1734276421368,2024-12-15T15:27:01.368Z,28845,-0.042949673,-0.2711414,0.11993113
1734276421371,2024-12-15T15:27:01.371Z,28848,-0.042949673,-0.2711414,0.11993113
1734276421377,2024-12-15T15:27:01.377Z,28854,-0.051748425,-0.25132057,0.11388662
