Timestamp (ms),ISO DateTime,Elapsed Time (ms),Acceleration X,Acceleration Y,Acceleration Z
1734432551013,2024-12-17T10:49:11.013Z,16632,-0.040159173,-0.2160304,-0.86864
1734432551022,2024-12-17T10:49:11.022Z,16641,-0.040159173,-0.2160304,-0.86864
1734432551091,2024-12-17T10:49:11.091Z,16710,-0.05170757,-0.20194553,-0.8552676
1734432551101,2024-12-17T10:49:11.101Z,16720,-0.05170757,-0.20194553,-0.8552676
1734432551128,2024-12-17T10:49:11.128Z,16747,-0.0651911,-0.20985235,-0.8550803
1734432551133,2024-12-17T10:49:11.133Z,16752,-0.0651911,-0.20985235,-0.8550803
1734432551146,2024-12-17T10:49:11.146Z,16765,-0.059411135,-0.22024386,-0.87049145
1734432551150,2024-12-17T10:49:11.150Z,16769,-0.059411135,-0.22024386,-0.87049145
1734432551163,2024-12-17T10:49:11.163Z,16782,-0.040863477,-0.21263985,-0.8761516
1734432551167,2024-12-17T10:49:11.167Z,16786,-0.040863477,-0.21263985,-0.8761516
1734432551179,2024-12-17T10:49:11.179Z,16798,-0.027111702,-0.2059961,-0.8729945
1734432551182,2024-12-17T10:49:11.182Z,16801,-0.027111702,-0.2059961,-0.8729945
1734432551196,2024-12-17T10:49:11.196Z,16815,-0.032545052,-0.19876033,-0.88153285
1734432551200,2024-12-17T10:49:11.200Z,16819,-0.032545052,-0.19876033,-0.88153285
1734432551211,2024-12-17T10:49:11.211Z,16830,-0.046145316,-0.19630297,-0.89253134
1734432551215,2024-12-17T10:49:11.215Z,16834,-0.046145316,-0.19630297,-0.89253134
1734432551227,2024-12-17T10:49:11.227Z,16846,-0.038118538,-0.20986652,-0.88060325
1734432551231,2024-12-17T10:49:11.231Z,16850,-0.038118538,-0.20986652,-0.88060325
1734432551244,2024-12-17T10:49:11.244Z,16863,-0.02556781,-0.22332826,-0.8725067
1734432551248,2024-12-17T10:49:11.248Z,16867,-0.02556781,-0.22332826,-0.8725067
1734432551262,2024-12-17T10:49:11.262Z,16881,-0.019718712,-0.22021411,-0.8849008
1734432551267,2024-12-17T10:49:11.267Z,16886,-0.019718712,-0.22021411,-0.8849008
1734432551279,2024-12-17T10:49:11.279Z,16898,-0.015548961,-0.22040613,-0.88800603
1734432551284,2024-12-17T10:49:11.284Z,16903,-0.015548961,-0.22040613,-0.88800603
1734432551296,2024-12-17T10:49:11.296Z,16915,-0.016015666,-0.23990421,-0.8700582
1734432551300,2024-12-17T10:49:11.300Z,16919,-0.016015666,-0.23990421,-0.8700582
1734432551311,2024-12-17T10:49:11.311Z,16930,-0.035438016,-0.25728163,-0.8568995
1734432551314,2024-12-17T10:49:11.314Z,16933,-0.035438016,-0.25728163,-0.8568995
1734432551328,2024-12-17T10:49:11.328Z,16947,-0.05610098,-0.26964584,-0.86023957
1734432551336,2024-12-17T10:49:11.336Z,16955,-0.05610098,-0.26964584,-0.86023957
1734432551349,2024-12-17T10:49:11.349Z,16968,-0.04989548,-0.2809092,-0.85229045
1734432551353,2024-12-17T10:49:11.353Z,16972,-0.04989548,-0.2809092,-0.85229045
1734432551365,2024-12-17T10:49:11.365Z,16984,-0.06598932,-0.29247552,-0.8578998
1734432551369,2024-12-17T10:49:11.369Z,16988,-0.06598932,-0.29247552,-0.8578998
1734432551380,2024-12-17T10:49:11.380Z,16999,-0.07829329,-0.32177246,-0.87217003
1734432551385,2024-12-17T10:49:11.385Z,17004,-0.07829329,-0.32177246,-0.87217003
1734432551401,2024-12-17T10:49:11.401Z,17020,-0.093355194,-0.36279657,-0.8887273
1734432551406,2024-12-17T10:49:11.406Z,17025,-0.093355194,-0.36279657,-0.8887273
1734432551419,2024-12-17T10:49:11.419Z,17038,-0.10093712,-0.36415732,-0.87209135
1734432551423,2024-12-17T10:49:11.423Z,17042,-0.10093712,-0.36415732,-0.87209135
1734432551435,2024-12-17T10:49:11.435Z,17054,-0.09419026,-0.36459577,-0.8543421
1734432551438,2024-12-17T10:49:11.438Z,17057,-0.09419026,-0.36459577,-0.8543421
1734432551451,2024-12-17T10:49:11.451Z,17070,-0.09737156,-0.3874947,-0.87643844
1734432551457,2024-12-17T10:49:11.457Z,17076,-0.09737156,-0.3874947,-0.87643844
1734432551470,2024-12-17T10:49:11.470Z,17089,-0.31969592,-0.5710536,-0.7407746
1734432551474,2024-12-17T10:49:11.474Z,17093,-0.31969592,-0.5710536,-0.7407746
1734432551488,2024-12-17T10:49:11.488Z,17107,-0.3369976,-0.5916984,-0.7563018
1734432551492,2024-12-17T10:49:11.492Z,17111,-0.3369976,-0.5916984,-0.7563018
1734432551506,2024-12-17T10:49:11.506Z,17125,-0.31434926,-0.5559244,-0.72559094
1734432551511,2024-12-17T10:49:11.511Z,17130,-0.31434926,-0.5559244,-0.72559094
1734432551524,2024-12-17T10:49:11.524Z,17143,-0.3152275,-0.56558174,-0.7367373
1734432551528,2024-12-17T10:49:11.528Z,17147,-0.3152275,-0.56558174,-0.7367373
1734432551539,2024-12-17T10:49:11.539Z,17158,-0.3157906,-0.5627356,-0.74698985
1734432551543,2024-12-17T10:49:11.543Z,17162,-0.3157906,-0.5627356,-0.74698985
1734432551556,2024-12-17T10:49:11.556Z,17175,-0.28905004,-0.53912985,-0.72807205
1734432551560,2024-12-17T10:49:11.560Z,17179,-0.28905004,-0.53912985,-0.72807205
1734432551571,2024-12-17T10:49:11.571Z,17190,-0.29205695,-0.5256263,-0.6922936
1734432551575,2024-12-17T10:49:11.575Z,17194,-0.29205695,-0.5256263,-0.6922936
1734432551587,2024-12-17T10:49:11.587Z,17206,-0.30700725,-0.50628054,-0.66958547
1734432551592,2024-12-17T10:49:11.592Z,17211,-0.30700725,-0.50628054,-0.66958547
1734432551603,2024-12-17T10:49:11.603Z,17222,-0.2882314,-0.4834127,-0.6672636
1734432551607,2024-12-17T10:49:11.607Z,17226,-0.2882314,-0.4834127,-0.6672636
1734432551618,2024-12-17T10:49:11.618Z,17237,-0.2516651,-0.49470574,-0.6899922
1734432551622,2024-12-17T10:49:11.622Z,17241,-0.2516651,-0.49470574,-0.6899922
1734432551634,2024-12-17T10:49:11.634Z,17253,-0.20642044,-0.5076218,-0.7047428
1734432551638,2024-12-17T10:49:11.638Z,17257,-0.20642044,-0.5076218,-0.7047428
1734432551649,2024-12-17T10:49:11.649Z,17268,-0.21116024,-0.50344974,-0.69846493
1734432551653,2024-12-17T10:49:11.653Z,17272,-0.21116024,-0.50344974,-0.69846493
1734432551666,2024-12-17T10:49:11.666Z,17285,-0.2889897,-0.5142789,-0.69401884
1734432551670,2024-12-17T10:49:11.670Z,17289,-0.2889897,-0.5142789,-0.69401884
1734432551682,2024-12-17T10:49:11.682Z,17301,-0.258593,-0.5321369,-0.7026244
1734432551686,2024-12-17T10:49:11.686Z,17305,-0.258593,-0.5321369,-0.7026244
1734432551698,2024-12-17T10:49:11.698Z,17317,-0.28381008,-0.5352783,-0.70315415
1734432551701,2024-12-17T10:49:11.701Z,17320,-0.28381008,-0.5352783,-0.70315415
1734432551712,2024-12-17T10:49:11.712Z,17331,-0.26810852,-0.5293704,-0.702402
1734432551717,2024-12-17T10:49:11.717Z,17336,-0.26810852,-0.5293704,-0.702402
1734432551731,2024-12-17T10:49:11.731Z,17350,-0.24315454,-0.5369659,-0.7004334
1734432551735,2024-12-17T10:49:11.735Z,17354,-0.24315454,-0.5369659,-0.7004334
1734432551748,2024-12-17T10:49:11.748Z,17367,-0.24209294,-0.5355191,-0.7123149
1734432551753,2024-12-17T10:49:11.753Z,17372,-0.24209294,-0.5355191,-0.7123149
1734432551765,2024-12-17T10:49:11.765Z,17384,-0.24193038,-0.53769356,-0.7433891
1734432551770,2024-12-17T10:49:11.770Z,17389,-0.24193038,-0.53769356,-0.7433891
1734432551789,2024-12-17T10:49:11.789Z,17408,-0.22287491,-0.55315906,-0.754053
1734432551794,2024-12-17T10:49:11.794Z,17413,-0.22287491,-0.55315906,-0.754053
1734432551809,2024-12-17T10:49:11.809Z,17428,-0.22587696,-0.56432074,-0.7623536
1734432551813,2024-12-17T10:49:11.813Z,17432,-0.22587696,-0.56432074,-0.7623536
1734432551824,2024-12-17T10:49:11.824Z,17443,-0.24843633,-0.5696203,-0.7545412
1734432551828,2024-12-17T10:49:11.828Z,17447,-0.24843633,-0.5696203,-0.7545412
1734432551838,2024-12-17T10:49:11.838Z,17457,-0.244186,-0.5553837,-0.7184084
1734432551841,2024-12-17T10:49:11.841Z,17460,-0.244186,-0.5553837,-0.7184084
1734432551853,2024-12-17T10:49:11.853Z,17472,-0.23121172,-0.5526388,-0.70006233
1734432551857,2024-12-17T10:49:11.857Z,17476,-0.23121172,-0.5526388,-0.70006233
1734432551871,2024-12-17T10:49:11.871Z,17490,-0.22144504,-0.5477501,-0.7038997
1734432551875,2024-12-17T10:49:11.875Z,17494,-0.22144504,-0.5477501,-0.7038997
1734432551887,2024-12-17T10:49:11.887Z,17506,-0.22550505,-0.55968356,-0.72403455
1734432551891,2024-12-17T10:49:11.891Z,17510,-0.22550505,-0.55968356,-0.72403455
1734432551904,2024-12-17T10:49:11.904Z,17523,-0.23283103,-0.57901305,-0.7506015
1734432551908,2024-12-17T10:49:11.908Z,17527,-0.23283103,-0.57901305,-0.7506015
1734432551920,2024-12-17T10:49:11.920Z,17539,-0.2401581,-0.57382596,-0.7585751
1734432551924,2024-12-17T10:49:11.924Z,17543,-0.2401581,-0.57382596,-0.7585751
1734432551936,2024-12-17T10:49:11.936Z,17555,-0.23859186,-0.59385574,-0.74202985
1734432551939,2024-12-17T10:49:11.939Z,17558,-0.23859186,-0.59385574,-0.74202985
1734432551952,2024-12-17T10:49:11.952Z,17571,-0.24395125,-0.6070288,-0.7308421
1734432551956,2024-12-17T10:49:11.956Z,17575,-0.24395125,-0.6070288,-0.7308421
1734432551969,2024-12-17T10:49:11.969Z,17588,-0.23920098,-0.60417634,-0.7436145
1734432551973,2024-12-17T10:49:11.973Z,17592,-0.23920098,-0.60417634,-0.7436145
1734432551987,2024-12-17T10:49:11.987Z,17606,-0.22996643,-0.60823876,-0.74471736
1734432551994,2024-12-17T10:49:11.994Z,17613,-0.22996643,-0.60823876,-0.74471736
1734432552005,2024-12-17T10:49:12.005Z,17624,-0.24278702,-0.6093843,-0.73069614
1734432552009,2024-12-17T10:49:12.009Z,17628,-0.24278702,-0.6093843,-0.73069614
1734432552021,2024-12-17T10:49:12.021Z,17640,-0.24709453,-0.61443335,-0.72743076
1734432552025,2024-12-17T10:49:12.025Z,17644,-0.24709453,-0.61443335,-0.72743076
1734432552038,2024-12-17T10:49:12.038Z,17657,-0.24677093,-0.6325686,-0.73338157
1734432552043,2024-12-17T10:49:12.043Z,17662,-0.24677093,-0.6325686,-0.73338157
1734432552054,2024-12-17T10:49:12.054Z,17673,-0.2621958,-0.63016045,-0.716358
1734432552057,2024-12-17T10:49:12.057Z,17676,-0.2621958,-0.63016045,-0.716358
1734432552069,2024-12-17T10:49:12.069Z,17688,-0.2484027,-0.6301601,-0.6983305
1734432552074,2024-12-17T10:49:12.074Z,17693,-0.2484027,-0.6301601,-0.6983305
1734432552089,2024-12-17T10:49:12.089Z,17708,-0.23907375,-0.63358784,-0.7042333
1734432552093,2024-12-17T10:49:12.093Z,17712,-0.23907375,-0.63358784,-0.7042333
1734432552105,2024-12-17T10:49:12.105Z,17724,-0.24964398,-0.6429442,-0.7028496
1734432552109,2024-12-17T10:49:12.109Z,17728,-0.24964398,-0.6429442,-0.7028496
1734432552123,2024-12-17T10:49:12.123Z,17742,-0.26020536,-0.6514762,-0.69031453
1734432552128,2024-12-17T10:49:12.128Z,17747,-0.26020536,-0.6514762,-0.69031453
1734432552143,2024-12-17T10:49:12.143Z,17762,-0.25629097,-0.63324004,-0.70223695
1734432552146,2024-12-17T10:49:12.146Z,17765,-0.25629097,-0.63324004,-0.70223695
1734432552159,2024-12-17T10:49:12.159Z,17778,-0.24150223,-0.6330715,-0.69608235
1734432552163,2024-12-17T10:49:12.163Z,17782,-0.24150223,-0.6330715,-0.69608235
1734432552175,2024-12-17T10:49:12.175Z,17794,-0.2400959,-0.63286126,-0.694761
1734432552178,2024-12-17T10:49:12.178Z,17797,-0.2400959,-0.63286126,-0.694761
1734432552191,2024-12-17T10:49:12.191Z,17810,-0.2527242,-0.6310952,-0.7021511
1734432552196,2024-12-17T10:49:12.196Z,17815,-0.2527242,-0.6310952,-0.7021511
1734432552209,2024-12-17T10:49:12.209Z,17828,-0.2551248,-0.6277566,-0.6850458
1734432552213,2024-12-17T10:49:12.213Z,17832,-0.2551248,-0.6277566,-0.6850458
1734432552225,2024-12-17T10:49:12.225Z,17844,-0.2573203,-0.6130853,-0.67566484
1734432552231,2024-12-17T10:49:12.231Z,17850,-0.2573203,-0.6130853,-0.67566484
1734432552244,2024-12-17T10:49:12.244Z,17863,-0.24563922,-0.5814722,-0.6564161
1734432552248,2024-12-17T10:49:12.248Z,17867,-0.24563922,-0.5814722,-0.6564161
1734432552259,2024-12-17T10:49:12.259Z,17878,-0.23271233,-0.5692565,-0.6519219
1734432552263,2024-12-17T10:49:12.263Z,17882,-0.23271233,-0.5692565,-0.6519219
1734432552276,2024-12-17T10:49:12.276Z,17895,-0.20453323,-0.5517189,-0.6562485
1734432552279,2024-12-17T10:49:12.279Z,17898,-0.20453323,-0.5517189,-0.6562485
1734432552292,2024-12-17T10:49:12.292Z,17911,-0.20661561,-0.548823,-0.6610569
1734432552296,2024-12-17T10:49:12.296Z,17915,-0.20661561,-0.548823,-0.6610569
1734432552309,2024-12-17T10:49:12.309Z,17928,-0.21746273,-0.5444045,-0.66630656
1734432552313,2024-12-17T10:49:12.313Z,17932,-0.21746273,-0.5444045,-0.66630656
1734432552325,2024-12-17T10:49:12.325Z,17944,-0.21268505,-0.5354848,-0.66805494
1734432552329,2024-12-17T10:49:12.329Z,17948,-0.21268505,-0.5354848,-0.66805494
1734432552338,2024-12-17T10:49:12.338Z,17957,-0.20248057,-0.52651584,-0.65462506
1734432552341,2024-12-17T10:49:12.341Z,17960,-0.20248057,-0.52651584,-0.65462506
1734432552354,2024-12-17T10:49:12.354Z,17973,-0.21166673,-0.5170532,-0.6504602
1734432552357,2024-12-17T10:49:12.357Z,17976,-0.21166673,-0.5170532,-0.6504602
1734432552368,2024-12-17T10:49:12.368Z,17987,-0.21582776,-0.5071257,-0.6599771
1734432552373,2024-12-17T10:49:12.373Z,17992,-0.21582776,-0.5071257,-0.6599771
1734432552385,2024-12-17T10:49:12.385Z,18004,-0.20773943,-0.50402975,-0.6616754
1734432552389,2024-12-17T10:49:12.389Z,18008,-0.20773943,-0.50402975,-0.6616754
1734432552399,2024-12-17T10:49:12.399Z,18018,-0.20644744,-0.5009281,-0.6677613
1734432552402,2024-12-17T10:49:12.402Z,18021,-0.20644744,-0.5009281,-0.6677613
1734432552412,2024-12-17T10:49:12.412Z,18031,-0.20266959,-0.49530035,-0.67622024
1734432552415,2024-12-17T10:49:12.415Z,18034,-0.20266959,-0.49530035,-0.67622024
1734432552442,2024-12-17T10:49:12.442Z,18061,-0.20273298,-0.49254158,-0.66363204
1734432552451,2024-12-17T10:49:12.451Z,18070,-0.20273298,-0.49254158,-0.66363204
1734432552479,2024-12-17T10:49:12.479Z,18098,-0.20895123,-0.48683816,-0.665181
1734432552489,2024-12-17T10:49:12.489Z,18108,-0.20895123,-0.48683816,-0.665181
1734432552508,2024-12-17T10:49:12.508Z,18127,-0.20870383,-0.46826854,-0.65497065
1734432552512,2024-12-17T10:49:12.512Z,18131,-0.20870383,-0.46826854,-0.65497065
1734432552523,2024-12-17T10:49:12.523Z,18142,-0.18074292,-0.44346794,-0.64758444
1734432552527,2024-12-17T10:49:12.527Z,18146,-0.18074292,-0.44346794,-0.64758444
1734432552539,2024-12-17T10:49:12.539Z,18158,-0.18058363,-0.41927403,-0.6498821
1734432552543,2024-12-17T10:49:12.543Z,18162,-0.18058363,-0.41927403,-0.6498821
1734432552555,2024-12-17T10:49:12.555Z,18174,-0.18475185,-0.41026303,-0.6501065
1734432552559,2024-12-17T10:49:12.559Z,18178,-0.18475185,-0.41026303,-0.6501065
1734432552572,2024-12-17T10:49:12.572Z,18191,-0.1943104,-0.4008589,-0.65031743
1734432552576,2024-12-17T10:49:12.576Z,18195,-0.1943104,-0.4008589,-0.65031743
1734432552587,2024-12-17T10:49:12.587Z,18206,-0.19699462,-0.39729288,-0.64561987
1734432552591,2024-12-17T10:49:12.591Z,18210,-0.19699462,-0.39729288,-0.64561987
1734432552602,2024-12-17T10:49:12.602Z,18221,-0.19120052,-0.3937169,-0.6433341
1734432552606,2024-12-17T10:49:12.606Z,18225,-0.19120052,-0.3937169,-0.6433341
1734432552619,2024-12-17T10:49:12.619Z,18238,-0.1916667,-0.3818092,-0.64051974
1734432552623,2024-12-17T10:49:12.623Z,18242,-0.1916667,-0.3818092,-0.64051974
1734432552636,2024-12-17T10:49:12.636Z,18255,-0.18938984,-0.37238178,-0.6357519
1734432552640,2024-12-17T10:49:12.640Z,18259,-0.18938984,-0.37238178,-0.6357519
1734432552654,2024-12-17T10:49:12.654Z,18273,-0.19269285,-0.3611023,-0.64227057
1734432552659,2024-12-17T10:49:12.659Z,18278,-0.19269285,-0.3611023,-0.64227057
1734432552672,2024-12-17T10:49:12.672Z,18291,-0.1944453,-0.35671774,-0.6605453
1734432552675,2024-12-17T10:49:12.675Z,18294,-0.1944453,-0.35671774,-0.6605453
1734432552686,2024-12-17T10:49:12.686Z,18305,-0.18982437,-0.3406387,-0.65685993
1734432552690,2024-12-17T10:49:12.690Z,18309,-0.18982437,-0.3406387,-0.65685993
1734432552699,2024-12-17T10:49:12.699Z,18318,-0.19634053,-0.33382645,-0.65851784
1734432552702,2024-12-17T10:49:12.702Z,18321,-0.19634053,-0.33382645,-0.65851784
1734432552712,2024-12-17T10:49:12.712Z,18331,-0.1915346,-0.33623576,-0.67573196
1734432552715,2024-12-17T10:49:12.715Z,18334,-0.1915346,-0.33623576,-0.67573196
1734432552724,2024-12-17T10:49:12.724Z,18343,-0.19006944,-0.3263342,-0.6703738
1734432552727,2024-12-17T10:49:12.727Z,18346,-0.19006944,-0.3263342,-0.6703738
1734432552736,2024-12-17T10:49:12.736Z,18355,-0.19627208,-0.3104977,-0.66736174
1734432552739,2024-12-17T10:49:12.739Z,18358,-0.19627208,-0.3104977,-0.66736174
1734432552748,2024-12-17T10:49:12.748Z,18367,-0.20180956,-0.30246374,-0.67700326
1734432552751,2024-12-17T10:49:12.751Z,18370,-0.20180956,-0.30246374,-0.67700326
1734432552760,2024-12-17T10:49:12.760Z,18379,-0.20180868,-0.2988258,-0.6763587
1734432552763,2024-12-17T10:49:12.763Z,18382,-0.20180868,-0.2988258,-0.6763587
1734432552772,2024-12-17T10:49:12.772Z,18391,-0.19774005,-0.28011456,-0.6786666
1734432552775,2024-12-17T10:49:12.775Z,18394,-0.19774005,-0.28011456,-0.6786666
1734432552784,2024-12-17T10:49:12.784Z,18403,-0.1964234,-0.26199523,-0.6780986
1734432552788,2024-12-17T10:49:12.788Z,18407,-0.1964234,-0.26199523,-0.6780986
1734432552798,2024-12-17T10:49:12.798Z,18417,-0.19248635,-0.2556977,-0.6834409
1734432552801,2024-12-17T10:49:12.801Z,18420,-0.19248635,-0.2556977,-0.6834409
1734432552811,2024-12-17T10:49:12.811Z,18430,-0.18793744,-0.25336444,-0.68782324
1734432552814,2024-12-17T10:49:12.814Z,18433,-0.18793744,-0.25336444,-0.68782324
1734432552826,2024-12-17T10:49:12.826Z,18445,-0.17148836,-0.237863,-0.68875456
1734432552829,2024-12-17T10:49:12.829Z,18448,-0.17148836,-0.237863,-0.68875456
1734432552838,2024-12-17T10:49:12.838Z,18457,-0.14118232,-0.22138034,-0.6964671
1734432552841,2024-12-17T10:49:12.841Z,18460,-0.14118232,-0.22138034,-0.6964671
1734432552852,2024-12-17T10:49:12.852Z,18471,-0.12950365,-0.20487264,-0.69145304
1734432552857,2024-12-17T10:49:12.857Z,18476,-0.12950365,-0.20487264,-0.69145304
1734432552868,2024-12-17T10:49:12.868Z,18487,-0.14759873,-0.18446063,-0.67616385
1734432552873,2024-12-17T10:49:12.873Z,18492,-0.14759873,-0.18446063,-0.67616385
1734432552882,2024-12-17T10:49:12.882Z,18501,-0.14224595,-0.16071823,-0.6814382
1734432552885,2024-12-17T10:49:12.885Z,18504,-0.14224595,-0.16071823,-0.6814382
1734432552896,2024-12-17T10:49:12.896Z,18515,-0.11639879,-0.15222394,-0.683864
1734432552899,2024-12-17T10:49:12.899Z,18518,-0.11639879,-0.15222394,-0.683864
1734432552909,2024-12-17T10:49:12.909Z,18528,-0.10178903,-0.13985252,-0.68873745
1734432552913,2024-12-17T10:49:12.913Z,18532,-0.10178903,-0.13985252,-0.68873745
1734432552921,2024-12-17T10:49:12.921Z,18540,-0.09894426,-0.12742348,-0.69745344
1734432552924,2024-12-17T10:49:12.924Z,18543,-0.09894426,-0.12742348,-0.69745344
1734432552935,2024-12-17T10:49:12.935Z,18554,-0.086881205,-0.1173475,-0.6992466
1734432552940,2024-12-17T10:49:12.940Z,18559,-0.086881205,-0.1173475,-0.6992466
1734432552951,2024-12-17T10:49:12.951Z,18570,-0.068569876,-0.10574483,-0.68682516
1734432552954,2024-12-17T10:49:12.954Z,18573,-0.068569876,-0.10574483,-0.68682516
1734432552964,2024-12-17T10:49:12.964Z,18583,-0.039866555,-0.08921758,-0.68017745
1734432552968,2024-12-17T10:49:12.968Z,18587,-0.039866555,-0.08921758,-0.68017745
1734432552978,2024-12-17T10:49:12.978Z,18597,-0.03633035,-0.071232006,-0.67932636
1734432552981,2024-12-17T10:49:12.981Z,18600,-0.03633035,-0.071232006,-0.67932636
1734432552990,2024-12-17T10:49:12.990Z,18609,-0.03801728,-0.05572226,-0.67600816
1734432552993,2024-12-17T10:49:12.993Z,18612,-0.03801728,-0.05572226,-0.67600816
1734432553003,2024-12-17T10:49:13.003Z,18622,-0.027362298,-0.043196123,-0.6790303
1734432553007,2024-12-17T10:49:13.007Z,18626,-0.027362298,-0.043196123,-0.6790303
1734432553017,2024-12-17T10:49:13.017Z,18636,-0.01965234,-0.02830283,-0.6884438
1734432553021,2024-12-17T10:49:13.021Z,18640,-0.01965234,-0.02830283,-0.6884438
1734432553030,2024-12-17T10:49:13.030Z,18649,-0.0061601684,-0.023617774,-0.70415723
1734432553033,2024-12-17T10:49:13.033Z,18652,-0.0061601684,-0.023617774,-0.70415723
1734432553043,2024-12-17T10:49:13.043Z,18662,0.0022441612,-0.013425339,-0.7114746
1734432553046,2024-12-17T10:49:13.046Z,18665,0.0022441612,-0.013425339,-0.7114746
1734432553054,2024-12-17T10:49:13.054Z,18673,0.008937271,0.0052093654,-0.6977099
1734432553058,2024-12-17T10:49:13.058Z,18677,0.008937271,0.0052093654,-0.6977099
1734432553071,2024-12-17T10:49:13.071Z,18690,0.018871842,0.006864084,-0.69315064
1734432553077,2024-12-17T10:49:13.077Z,18696,0.018871842,0.006864084,-0.69315064
1734432553090,2024-12-17T10:49:13.090Z,18709,0.02178638,0.01496229,-0.6987905
1734432553093,2024-12-17T10:49:13.093Z,18712,0.02178638,0.01496229,-0.6987905
1734432553103,2024-12-17T10:49:13.103Z,18722,0.02345892,0.023609363,-0.6844111
1734432553106,2024-12-17T10:49:13.106Z,18725,0.02345892,0.023609363,-0.6844111
1734432553116,2024-12-17T10:49:13.116Z,18735,0.020591632,0.027818099,-0.66619015
1734432553119,2024-12-17T10:49:13.119Z,18738,0.020591632,0.027818099,-0.66619015
1734432553131,2024-12-17T10:49:13.131Z,18750,0.012978012,0.033861946,-0.67390263
1734432553135,2024-12-17T10:49:13.135Z,18754,0.012978012,0.033861946,-0.67390263
1734432553147,2024-12-17T10:49:13.147Z,18766,0.014308774,0.031096708,-0.69427055
1734432553150,2024-12-17T10:49:13.150Z,18769,0.014308774,0.031096708,-0.69427055
1734432553160,2024-12-17T10:49:13.160Z,18779,0.03320911,0.031748656,-0.70144266
1734432553163,2024-12-17T10:49:13.163Z,18782,0.03320911,0.031748656,-0.70144266
1734432553172,2024-12-17T10:49:13.172Z,18791,0.038909238,0.040232643,-0.70175076
1734432553175,2024-12-17T10:49:13.175Z,18794,0.038909238,0.040232643,-0.70175076
1734432553186,2024-12-17T10:49:13.186Z,18805,0.030716177,0.042992387,-0.7010118
1734432553189,2024-12-17T10:49:13.189Z,18808,0.030716177,0.042992387,-0.7010118
1734432553201,2024-12-17T10:49:13.201Z,18820,0.021267114,0.036033586,-0.6929767
1734432553204,2024-12-17T10:49:13.204Z,18823,0.021267114,0.036033586,-0.6929767
1734432553215,2024-12-17T10:49:13.215Z,18834,0.0011100341,0.038252097,-0.6923629
1734432553219,2024-12-17T10:49:13.219Z,18838,0.0011100341,0.038252097,-0.6923629
1734432553230,2024-12-17T10:49:13.230Z,18849,0.0019038185,-0.003637648,-0.7338484
1734432553233,2024-12-17T10:49:13.233Z,18852,0.0019038185,-0.003637648,-0.7338484
1734432553242,2024-12-17T10:49:13.242Z,18861,-0.021649603,-0.0106207635,-0.7295277
1734432553246,2024-12-17T10:49:13.246Z,18865,-0.021649603,-0.0106207635,-0.7295277
1734432553255,2024-12-17T10:49:13.255Z,18874,-0.03293741,-0.016222717,-0.73011684
1734432553259,2024-12-17T10:49:13.259Z,18878,-0.03293741,-0.016222717,-0.73011684
1734432553269,2024-12-17T10:49:13.269Z,18888,-0.030166168,-0.028660506,-0.7258298
1734432553273,2024-12-17T10:49:13.273Z,18892,-0.030166168,-0.028660506,-0.7258298
1734432553285,2024-12-17T10:49:13.285Z,18904,-0.031309996,-0.04358706,-0.70837754
1734432553288,2024-12-17T10:49:13.288Z,18907,-0.031309996,-0.04358706,-0.70837754
1734432553298,2024-12-17T10:49:13.298Z,18917,-0.049851924,-0.058185544,-0.7139245
1734432553301,2024-12-17T10:49:13.301Z,18920,-0.049851924,-0.058185544,-0.7139245
1734432553312,2024-12-17T10:49:13.312Z,18931,-0.05801575,-0.072910406,-0.7204846
1734432553315,2024-12-17T10:49:13.315Z,18934,-0.05801575,-0.072910406,-0.7204846
1734432553326,2024-12-17T10:49:13.326Z,18945,-0.059244547,-0.093557164,-0.72117174
1734432553330,2024-12-17T10:49:13.330Z,18949,-0.059244547,-0.093557164,-0.72117174
1734432553340,2024-12-17T10:49:13.340Z,18959,-0.07659422,-0.108363904,-0.7267286
1734432553344,2024-12-17T10:49:13.344Z,18963,-0.07659422,-0.108363904,-0.7267286
1734432553357,2024-12-17T10:49:13.357Z,18976,-0.14717811,-0.29706985,-0.7439666
1734432553361,2024-12-17T10:49:13.361Z,18980,-0.14717811,-0.29706985,-0.7439666
1734432553372,2024-12-17T10:49:13.372Z,18991,-0.1513203,-0.28351128,-0.66965425
1734432553375,2024-12-17T10:49:13.375Z,18994,-0.1513203,-0.28351128,-0.66965425
1734432553384,2024-12-17T10:49:13.384Z,19003,-0.14987633,-0.26614356,-0.6589197
1734432553387,2024-12-17T10:49:13.387Z,19006,-0.14987633,-0.26614356,-0.6589197
1734432553396,2024-12-17T10:49:13.396Z,19015,-0.13411313,-0.2566714,-0.66186583
1734432553400,2024-12-17T10:49:13.400Z,19019,-0.13411313,-0.2566714,-0.66186583
1734432553411,2024-12-17T10:49:13.411Z,19030,-0.10887759,-0.23942383,-0.6603732
1734432553414,2024-12-17T10:49:13.414Z,19033,-0.10887759,-0.23942383,-0.6603732
1734432553425,2024-12-17T10:49:13.425Z,19044,-0.10255666,-0.22397855,-0.6640715
1734432553429,2024-12-17T10:49:13.429Z,19048,-0.10255666,-0.22397855,-0.6640715
1734432553440,2024-12-17T10:49:13.440Z,19059,-0.09669002,-0.20339637,-0.6558177
1734432553444,2024-12-17T10:49:13.444Z,19063,-0.09669002,-0.20339637,-0.6558177
1734432553455,2024-12-17T10:49:13.455Z,19074,-0.085942835,-0.18551737,-0.6537169
1734432553458,2024-12-17T10:49:13.458Z,19077,-0.085942835,-0.18551737,-0.6537169
1734432553470,2024-12-17T10:49:13.470Z,19089,-0.07908763,-0.17322905,-0.6601687
1734432553474,2024-12-17T10:49:13.474Z,19093,-0.07908763,-0.17322905,-0.6601687
1734432553484,2024-12-17T10:49:13.484Z,19103,-0.08136463,-0.15834238,-0.64885306
1734432553486,2024-12-17T10:49:13.486Z,19105,-0.08136463,-0.15834238,-0.64885306
1734432553495,2024-12-17T10:49:13.495Z,19114,-0.08381608,-0.13513567,-0.6457058
1734432553498,2024-12-17T10:49:13.498Z,19117,-0.08381608,-0.13513567,-0.6457058
1734432553509,2024-12-17T10:49:13.509Z,19128,-0.06302452,-0.12608142,-0.6688098
1734432553513,2024-12-17T10:49:13.513Z,19132,-0.06302452,-0.12608142,-0.6688098
1734432553524,2024-12-17T10:49:13.524Z,19143,-0.052240595,-0.12965469,-0.6697911
1734432553527,2024-12-17T10:49:13.527Z,19146,-0.052240595,-0.12965469,-0.6697911
1734432553539,2024-12-17T10:49:13.539Z,19158,-0.05485104,-0.11356068,-0.67396814
1734432553542,2024-12-17T10:49:13.542Z,19161,-0.05485104,-0.11356068,-0.67396814
1734432553552,2024-12-17T10:49:13.552Z,19171,-0.041224983,-0.10069067,-0.6749997
1734432553555,2024-12-17T10:49:13.555Z,19174,-0.041224983,-0.10069067,-0.6749997
1734432553564,2024-12-17T10:49:13.564Z,19183,-0.030004615,-0.09493152,-0.6719236
1734432553567,2024-12-17T10:49:13.567Z,19186,-0.030004615,-0.09493152,-0.6719236
1734432553576,2024-12-17T10:49:13.576Z,19195,-0.0148988115,-0.08505596,-0.6569493
1734432553580,2024-12-17T10:49:13.580Z,19199,-0.0148988115,-0.08505596,-0.6569493
1734432553591,2024-12-17T10:49:13.591Z,19210,-0.02755949,-0.078967184,-0.65795356
1734432553595,2024-12-17T10:49:13.595Z,19214,-0.02755949,-0.078967184,-0.65795356
1734432553605,2024-12-17T10:49:13.605Z,19224,-0.057857893,-0.07093676,-0.6575195
1734432553614,2024-12-17T10:49:13.614Z,19233,-0.057857893,-0.07093676,-0.6575195
1734432553623,2024-12-17T10:49:13.623Z,19242,-0.045499895,-0.060507674,-0.64307725
1734432553626,2024-12-17T10:49:13.626Z,19245,-0.045499895,-0.060507674,-0.64307725
1734432553637,2024-12-17T10:49:13.637Z,19256,-0.042128876,-0.05843187,-0.647308
1734432553640,2024-12-17T10:49:13.640Z,19259,-0.042128876,-0.05843187,-0.647308
1734432553655,2024-12-17T10:49:13.655Z,19274,-0.031629164,-0.05488068,-0.6550192
1734432553658,2024-12-17T10:49:13.658Z,19277,-0.031629164,-0.05488068,-0.6550192
1734432553668,2024-12-17T10:49:13.668Z,19287,-0.0010112304,-0.049278677,-0.6618141
1734432553672,2024-12-17T10:49:13.672Z,19291,-0.0010112304,-0.049278677,-0.6618141
1734432553681,2024-12-17T10:49:13.681Z,19300,0.006291611,-0.055204123,-0.6676001
1734432553684,2024-12-17T10:49:13.684Z,19303,0.006291611,-0.055204123,-0.6676001
1734432553693,2024-12-17T10:49:13.693Z,19312,-0.016424289,-0.062999696,-0.6636315
1734432553696,2024-12-17T10:49:13.696Z,19315,-0.016424289,-0.062999696,-0.6636315
1734432553705,2024-12-17T10:49:13.705Z,19324,-0.025915032,-0.048789177,-0.65296406
1734432553709,2024-12-17T10:49:13.709Z,19328,-0.025915032,-0.048789177,-0.65296406
1734432553719,2024-12-17T10:49:13.719Z,19338,-0.040124383,-0.043462045,-0.6503121
1734432553723,2024-12-17T10:49:13.723Z,19342,-0.040124383,-0.043462045,-0.6503121
1734432553734,2024-12-17T10:49:13.734Z,19353,-0.040599752,-0.019473175,-0.6398368
1734432553738,2024-12-17T10:49:13.738Z,19357,-0.040599752,-0.019473175,-0.6398368
1734432553749,2024-12-17T10:49:13.749Z,19368,-0.03434274,0.00415204,-0.6335401
1734432553752,2024-12-17T10:49:13.752Z,19371,-0.03434274,0.00415204,-0.6335401
1734432553764,2024-12-17T10:49:13.764Z,19383,-0.03417331,0.0048532933,-0.6472577
1734432553768,2024-12-17T10:49:13.768Z,19387,-0.03417331,0.0048532933,-0.6472577
1734432553778,2024-12-17T10:49:13.778Z,19397,-0.027183484,0.0018347726,-0.65638953
1734432553781,2024-12-17T10:49:13.781Z,19400,-0.027183484,0.0018347726,-0.65638953
1734432553790,2024-12-17T10:49:13.790Z,19409,-0.005525396,0.019412199,-0.655661
1734432553793,2024-12-17T10:49:13.793Z,19412,-0.005525396,0.019412199,-0.655661
1734432553804,2024-12-17T10:49:13.804Z,19423,-0.008980413,0.028756393,-0.64583933
1734432553808,2024-12-17T10:49:13.808Z,19427,-0.008980413,0.028756393,-0.64583933
1734432553818,2024-12-17T10:49:13.818Z,19437,-0.0067271837,0.020939816,-0.6507843
1734432553824,2024-12-17T10:49:13.824Z,19443,-0.0067271837,0.020939816,-0.6507843
1734432553835,2024-12-17T10:49:13.835Z,19454,0.0091057895,0.021321416,-0.6602479
1734432553838,2024-12-17T10:49:13.838Z,19457,0.0091057895,0.021321416,-0.6602479
1734432553848,2024-12-17T10:49:13.848Z,19467,-0.0068412065,0.03817673,-0.656167
1734432553851,2024-12-17T10:49:13.851Z,19470,-0.0068412065,0.03817673,-0.656167
1734432553860,2024-12-17T10:49:13.860Z,19479,-0.022760462,0.035954863,-0.65941995
1734432553863,2024-12-17T10:49:13.863Z,19482,-0.022760462,0.035954863,-0.65941995
1734432553871,2024-12-17T10:49:13.871Z,19490,-0.010238945,0.032217585,-0.6665697
1734432553876,2024-12-17T10:49:13.876Z,19495,-0.010238945,0.032217585,-0.6665697
1734432553886,2024-12-17T10:49:13.886Z,19505,0.005843615,0.026994215,-0.6726983
1734432553889,2024-12-17T10:49:13.889Z,19508,0.005843615,0.026994215,-0.6726983
1734432553897,2024-12-17T10:49:13.897Z,19516,0.012749224,0.02332394,-0.68699497
1734432553900,2024-12-17T10:49:13.900Z,19519,0.012749224,0.02332394,-0.68699497
1734432553909,2024-12-17T10:49:13.909Z,19528,0.016991995,0.027559225,-0.6802759
1734432553911,2024-12-17T10:49:13.911Z,19530,0.016991995,0.027559225,-0.6802759
1734432553923,2024-12-17T10:49:13.923Z,19542,0.022012506,0.013417267,-0.6685628
1734432553927,2024-12-17T10:49:13.927Z,19546,0.022012506,0.013417267,-0.6685628
1734432553936,2024-12-17T10:49:13.936Z,19555,0.02615859,-5.8927253E-4,-0.6762025
1734432553938,2024-12-17T10:49:13.938Z,19557,0.02615859,-5.8927253E-4,-0.6762025
1734432553947,2024-12-17T10:49:13.947Z,19566,0.03430768,-0.0066134767,-0.6816812
1734432553950,2024-12-17T10:49:13.950Z,19569,0.03430768,-0.0066134767,-0.6816812
1734432553960,2024-12-17T10:49:13.960Z,19579,0.01918712,-0.030542735,-0.67424184
1734432553963,2024-12-17T10:49:13.963Z,19582,0.01918712,-0.030542735,-0.67424184
1734432553974,2024-12-17T10:49:13.974Z,19593,0.01134222,-0.042182557,-0.6621704
1734432553978,2024-12-17T10:49:13.978Z,19597,0.01134222,-0.042182557,-0.6621704
1734432553989,2024-12-17T10:49:13.989Z,19608,0.004363675,-0.03472288,-0.6611408
1734432553993,2024-12-17T10:49:13.993Z,19612,0.004363675,-0.03472288,-0.6611408
1734432554002,2024-12-17T10:49:14.002Z,19621,6.552551E-4,-0.048657406,-0.6638115
1734432554006,2024-12-17T10:49:14.006Z,19625,6.552551E-4,-0.048657406,-0.6638115
1734432554018,2024-12-17T10:49:14.018Z,19637,0.010011117,-0.07175505,-0.66673374
1734432554022,2024-12-17T10:49:14.022Z,19641,0.010011117,-0.07175505,-0.66673374
1734432554032,2024-12-17T10:49:14.032Z,19651,-9.693895E-4,-0.08592419,-0.67287904
1734432554035,2024-12-17T10:49:14.035Z,19654,-9.693895E-4,-0.08592419,-0.67287904
1734432554045,2024-12-17T10:49:14.045Z,19664,-0.01081594,-0.10134671,-0.6758342
1734432554049,2024-12-17T10:49:14.049Z,19668,-0.01081594,-0.10134671,-0.6758342
1734432554058,2024-12-17T10:49:14.058Z,19677,0.0050660954,-0.10140408,-0.67861366
1734432554061,2024-12-17T10:49:14.061Z,19680,0.0050660954,-0.10140408,-0.67861366
1734432554071,2024-12-17T10:49:14.071Z,19690,-0.014956334,-0.12802336,-0.67142165
1734432554075,2024-12-17T10:49:14.075Z,19694,-0.014956334,-0.12802336,-0.67142165
1734432554085,2024-12-17T10:49:14.085Z,19704,-0.02632379,-0.14619264,-0.6519127
1734432554088,2024-12-17T10:49:14.088Z,19707,-0.02632379,-0.14619264,-0.6519127
1734432554098,2024-12-17T10:49:14.098Z,19717,-0.03240226,-0.16091399,-0.6323914
1734432554101,2024-12-17T10:49:14.101Z,19720,-0.03240226,-0.16091399,-0.6323914
1734432554109,2024-12-17T10:49:14.109Z,19728,-0.040797703,-0.17471953,-0.6221565
1734432554112,2024-12-17T10:49:14.112Z,19731,-0.040797703,-0.17471953,-0.6221565
1734432554120,2024-12-17T10:49:14.120Z,19739,-0.048690498,-0.18475996,-0.62816143
1734432554123,2024-12-17T10:49:14.123Z,19742,-0.048690498,-0.18475996,-0.62816143
1734432554133,2024-12-17T10:49:14.133Z,19752,-0.058580272,-0.19883224,-0.62306774
1734432554136,2024-12-17T10:49:14.136Z,19755,-0.058580272,-0.19883224,-0.62306774
1734432554146,2024-12-17T10:49:14.146Z,19765,-0.09234383,-0.21935506,-0.64002526
1734432554149,2024-12-17T10:49:14.149Z,19768,-0.09234383,-0.21935506,-0.64002526
1734432554161,2024-12-17T10:49:14.161Z,19780,-0.08584268,-0.2262789,-0.66153044
1734432554166,2024-12-17T10:49:14.166Z,19785,-0.08584268,-0.2262789,-0.66153044
1734432554184,2024-12-17T10:49:14.184Z,19803,-0.09581195,-0.2546382,-0.6660057
1734432554187,2024-12-17T10:49:14.187Z,19806,-0.09581195,-0.2546382,-0.6660057
1734432554196,2024-12-17T10:49:14.196Z,19815,-0.11234552,-0.2756649,-0.66125685
1734432554199,2024-12-17T10:49:14.199Z,19818,-0.11234552,-0.2756649,-0.66125685
1734432554207,2024-12-17T10:49:14.207Z,19826,-0.110075176,-0.2694205,-0.6434653
1734432554210,2024-12-17T10:49:14.210Z,19829,-0.110075176,-0.2694205,-0.6434653
1734432554219,2024-12-17T10:49:14.219Z,19838,-0.13096106,-0.27654132,-0.62429494
1734432554221,2024-12-17T10:49:14.221Z,19840,-0.13096106,-0.27654132,-0.62429494
1734432554230,2024-12-17T10:49:14.230Z,19849,-0.1451596,-0.29215276,-0.64573157
1734432554234,2024-12-17T10:49:14.234Z,19853,-0.1451596,-0.29215276,-0.64573157
1734432554245,2024-12-17T10:49:14.245Z,19864,-0.14324187,-0.29136014,-0.6590639
1734432554248,2024-12-17T10:49:14.248Z,19867,-0.14324187,-0.29136014,-0.6590639
1734432554258,2024-12-17T10:49:14.258Z,19877,-0.1572666,-0.2897849,-0.6520295
1734432554263,2024-12-17T10:49:14.263Z,19882,-0.1572666,-0.2897849,-0.6520295
1734432554274,2024-12-17T10:49:14.274Z,19893,-0.18074681,-0.2913362,-0.6402153
1734432554277,2024-12-17T10:49:14.277Z,19896,-0.18074681,-0.2913362,-0.6402153
1734432554287,2024-12-17T10:49:14.287Z,19906,-0.1727841,-0.29008716,-0.6519099
1734432554290,2024-12-17T10:49:14.290Z,19909,-0.1727841,-0.29008716,-0.6519099
1734432554300,2024-12-17T10:49:14.300Z,19919,-0.17357159,-0.30064827,-0.6592907
1734432554302,2024-12-17T10:49:14.302Z,19921,-0.17357159,-0.30064827,-0.6592907
1734432554312,2024-12-17T10:49:14.312Z,19931,-0.1689656,-0.31075618,-0.64863324
1734432554315,2024-12-17T10:49:14.315Z,19934,-0.1689656,-0.31075618,-0.64863324
1734432554324,2024-12-17T10:49:14.324Z,19943,-0.18572006,-0.3174642,-0.6462565
1734432554327,2024-12-17T10:49:14.327Z,19946,-0.18572006,-0.3174642,-0.6462565
1734432554336,2024-12-17T10:49:14.336Z,19955,-0.16836064,-0.30513215,-0.6307628
1734432554338,2024-12-17T10:49:14.338Z,19957,-0.16836064,-0.30513215,-0.6307628
1734432554347,2024-12-17T10:49:14.347Z,19966,-0.15424015,-0.2933188,-0.5857301
1734432554351,2024-12-17T10:49:14.351Z,19970,-0.15424015,-0.2933188,-0.5857301
1734432554363,2024-12-17T10:49:14.363Z,19982,-0.1848746,-0.30207863,-0.5665572
1734432554366,2024-12-17T10:49:14.366Z,19985,-0.1848746,-0.30207863,-0.5665572
1734432554376,2024-12-17T10:49:14.376Z,19995,-0.19179636,-0.30735195,-0.5756956
1734432554379,2024-12-17T10:49:14.379Z,19998,-0.19179636,-0.30735195,-0.5756956
1734432554389,2024-12-17T10:49:14.389Z,20008,-0.18634225,-0.31788945,-0.5813973
1734432554392,2024-12-17T10:49:14.392Z,20011,-0.18634225,-0.31788945,-0.5813973
1734432554402,2024-12-17T10:49:14.402Z,20021,-0.19907336,-0.3326923,-0.5957764
1734432554404,2024-12-17T10:49:14.404Z,20023,-0.19907336,-0.3326923,-0.5957764
1734432554413,2024-12-17T10:49:14.413Z,20032,-0.20571928,-0.33469847,-0.5954705
1734432554416,2024-12-17T10:49:14.416Z,20035,-0.20571928,-0.33469847,-0.5954705
1734432554424,2024-12-17T10:49:14.424Z,20043,-0.18034005,-0.34103557,-0.58098835
1734432554428,2024-12-17T10:49:14.428Z,20047,-0.18034005,-0.34103557,-0.58098835
1734432554438,2024-12-17T10:49:14.438Z,20057,-0.16568473,-0.33623257,-0.57244986
1734432554442,2024-12-17T10:49:14.442Z,20061,-0.16568473,-0.33623257,-0.57244986
1734432554453,2024-12-17T10:49:14.453Z,20072,-0.1616926,-0.34130606,-0.57034844
1734432554457,2024-12-17T10:49:14.457Z,20076,-0.1616926,-0.34130606,-0.57034844
1734432554467,2024-12-17T10:49:14.467Z,20086,-0.17854694,-0.3523508,-0.5790598
1734432554469,2024-12-17T10:49:14.469Z,20088,-0.17854694,-0.3523508,-0.5790598
1734432554481,2024-12-17T10:49:14.481Z,20100,-0.17483099,-0.36296558,-0.5824383
1734432554485,2024-12-17T10:49:14.485Z,20104,-0.17483099,-0.36296558,-0.5824383
1734432554495,2024-12-17T10:49:14.495Z,20114,-0.17948876,-0.36528808,-0.56142646
1734432554499,2024-12-17T10:49:14.499Z,20118,-0.17948876,-0.36528808,-0.56142646
1734432554512,2024-12-17T10:49:14.512Z,20131,-0.19140412,-0.37111858,-0.5517189
1734432554515,2024-12-17T10:49:14.515Z,20134,-0.19140412,-0.37111858,-0.5517189
1734432554523,2024-12-17T10:49:14.523Z,20142,-0.20461941,-0.38251454,-0.5592639
1734432554527,2024-12-17T10:49:14.527Z,20146,-0.20461941,-0.38251454,-0.5592639
1734432554536,2024-12-17T10:49:14.536Z,20155,-0.19923304,-0.3958971,-0.5614556
1734432554539,2024-12-17T10:49:14.539Z,20158,-0.19923304,-0.3958971,-0.5614556
1734432554549,2024-12-17T10:49:14.549Z,20168,-0.21777055,-0.40785605,-0.56515175
1734432554552,2024-12-17T10:49:14.552Z,20171,-0.21777055,-0.40785605,-0.56515175
1734432554561,2024-12-17T10:49:14.561Z,20180,-0.20703104,-0.41936472,-0.56889075
1734432554564,2024-12-17T10:49:14.564Z,20183,-0.20703104,-0.41936472,-0.56889075
1734432554576,2024-12-17T10:49:14.576Z,20195,-0.17193824,-0.43801615,-0.5695069
1734432554579,2024-12-17T10:49:14.579Z,20198,-0.17193824,-0.43801615,-0.5695069
1734432554589,2024-12-17T10:49:14.589Z,20208,-0.16679655,-0.44861862,-0.5742906
1734432554592,2024-12-17T10:49:14.592Z,20211,-0.16679655,-0.44861862,-0.5742906
1734432554601,2024-12-17T10:49:14.601Z,20220,-0.18195048,-0.47068667,-0.5808097
1734432554604,2024-12-17T10:49:14.604Z,20223,-0.18195048,-0.47068667,-0.5808097
1734432554616,2024-12-17T10:49:14.616Z,20235,-0.19002295,-0.49155506,-0.5734594
1734432554620,2024-12-17T10:49:14.620Z,20239,-0.19002295,-0.49155506,-0.5734594
1734432554631,2024-12-17T10:49:14.631Z,20250,-0.19006085,-0.49715284,-0.5533189
1734432554634,2024-12-17T10:49:14.634Z,20253,-0.19006085,-0.49715284,-0.5533189
1734432554646,2024-12-17T10:49:14.646Z,20265,-0.20145002,-0.5037489,-0.54982
1734432554649,2024-12-17T10:49:14.649Z,20268,-0.20145002,-0.5037489,-0.54982
1734432554660,2024-12-17T10:49:14.660Z,20279,-0.22266051,-0.5207031,-0.5610852
1734432554664,2024-12-17T10:49:14.664Z,20283,-0.22266051,-0.5207031,-0.5610852
1734432554674,2024-12-17T10:49:14.674Z,20293,-0.23215981,-0.5411611,-0.5870813
1734432554679,2024-12-17T10:49:14.679Z,20298,-0.23215981,-0.5411611,-0.5870813
1734432554690,2024-12-17T10:49:14.690Z,20309,-0.21246596,-0.54112536,-0.5857578
1734432554696,2024-12-17T10:49:14.696Z,20315,-0.21246596,-0.54112536,-0.5857578
1734432554711,2024-12-17T10:49:14.711Z,20330,-0.2129539,-0.54887605,-0.5648945
1734432554714,2024-12-17T10:49:14.714Z,20333,-0.2129539,-0.54887605,-0.5648945
1734432554725,2024-12-17T10:49:14.725Z,20344,-0.21962376,-0.54503816,-0.55828184
1734432554729,2024-12-17T10:49:14.729Z,20348,-0.21962376,-0.54503816,-0.55828184
1734432554739,2024-12-17T10:49:14.739Z,20358,-0.19915144,-0.5472209,-0.5786258
1734432554742,2024-12-17T10:49:14.742Z,20361,-0.19915144,-0.5472209,-0.5786258
1734432554752,2024-12-17T10:49:14.752Z,20371,-0.21302623,-0.5627489,-0.5790486
1734432554755,2024-12-17T10:49:14.755Z,20374,-0.21302623,-0.5627489,-0.5790486
1734432554767,2024-12-17T10:49:14.767Z,20386,-0.21214798,-0.5500402,-0.5575603
1734432554769,2024-12-17T10:49:14.769Z,20388,-0.21214798,-0.5500402,-0.5575603
1734432554780,2024-12-17T10:49:14.780Z,20399,-0.22235097,-0.54625607,-0.55083364
1734432554785,2024-12-17T10:49:14.785Z,20404,-0.22235097,-0.54625607,-0.55083364
1734432554793,2024-12-17T10:49:14.793Z,20412,-0.21383706,-0.5445995,-0.5427984
1734432554797,2024-12-17T10:49:14.797Z,20416,-0.21383706,-0.5445995,-0.5427984
1734432554805,2024-12-17T10:49:14.805Z,20424,-0.20372231,-0.5326993,-0.53864485
1734432554808,2024-12-17T10:49:14.808Z,20427,-0.20372231,-0.5326993,-0.53864485
1734432554818,2024-12-17T10:49:14.818Z,20437,-0.20877407,-0.5232316,-0.53985125
1734432554821,2024-12-17T10:49:14.821Z,20440,-0.20877407,-0.5232316,-0.53985125
1734432554832,2024-12-17T10:49:14.832Z,20451,-0.21694133,-0.5199966,-0.5502341
1734432554835,2024-12-17T10:49:14.835Z,20454,-0.21694133,-0.5199966,-0.5502341
1734432554846,2024-12-17T10:49:14.846Z,20465,-0.21213762,-0.5107755,-0.55318135
1734432554849,2024-12-17T10:49:14.849Z,20468,-0.21213762,-0.5107755,-0.55318135
1734432554858,2024-12-17T10:49:14.858Z,20477,-0.20895594,-0.50292057,-0.55359477
1734432554861,2024-12-17T10:49:14.861Z,20480,-0.20895594,-0.50292057,-0.55359477
1734432554870,2024-12-17T10:49:14.870Z,20489,-0.20831472,-0.49252757,-0.55439276
1734432554872,2024-12-17T10:49:14.872Z,20491,-0.20831472,-0.49252757,-0.55439276
1734432554880,2024-12-17T10:49:14.880Z,20499,-0.19788341,-0.48743603,-0.55118686
1734432554884,2024-12-17T10:49:14.884Z,20503,-0.19788341,-0.48743603,-0.55118686
1734432554895,2024-12-17T10:49:14.895Z,20514,-0.19940369,-0.48868304,-0.5523048
1734432554899,2024-12-17T10:49:14.899Z,20518,-0.19940369,-0.48868304,-0.5523048
1734432554910,2024-12-17T10:49:14.910Z,20529,-0.21439376,-0.48457298,-0.55387956
1734432554914,2024-12-17T10:49:14.914Z,20533,-0.21439376,-0.48457298,-0.55387956
1734432554925,2024-12-17T10:49:14.925Z,20544,-0.1995406,-0.4819422,-0.5534989
1734432554927,2024-12-17T10:49:14.927Z,20546,-0.1995406,-0.4819422,-0.5534989
1734432554938,2024-12-17T10:49:14.938Z,20557,-0.19010475,-0.47052795,-0.54677653
1734432554941,2024-12-17T10:49:14.941Z,20560,-0.19010475,-0.47052795,-0.54677653
1734432554952,2024-12-17T10:49:14.952Z,20571,-0.19183181,-0.4659452,-0.5405165
1734432554954,2024-12-17T10:49:14.954Z,20573,-0.19183181,-0.4659452,-0.5405165
1734432554965,2024-12-17T10:49:14.965Z,20584,-0.19296438,-0.4579726,-0.5357278
1734432554968,2024-12-17T10:49:14.968Z,20587,-0.19296438,-0.4579726,-0.5357278
1734432554976,2024-12-17T10:49:14.976Z,20595,-0.18482737,-0.44466105,-0.5373175
1734432554979,2024-12-17T10:49:14.979Z,20598,-0.18482737,-0.44466105,-0.5373175
1734432554988,2024-12-17T10:49:14.988Z,20607,-0.18306094,-0.4445712,-0.5477369
1734432554992,2024-12-17T10:49:14.992Z,20611,-0.18306094,-0.4445712,-0.5477369
1734432555001,2024-12-17T10:49:15.001Z,20620,-0.1749941,-0.43032902,-0.5440049
1734432555004,2024-12-17T10:49:15.004Z,20623,-0.1749941,-0.43032902,-0.5440049
1734432555016,2024-12-17T10:49:15.016Z,20635,-0.17343011,-0.4209529,-0.5456408
1734432555019,2024-12-17T10:49:15.019Z,20638,-0.17343011,-0.4209529,-0.5456408
1734432555029,2024-12-17T10:49:15.029Z,20648,-0.1811666,-0.42968255,-0.5385282
1734432555036,2024-12-17T10:49:15.036Z,20655,-0.1811666,-0.42968255,-0.5385282
1734432555045,2024-12-17T10:49:15.045Z,20664,-0.17014295,-0.4213552,-0.5416681
1734432555048,2024-12-17T10:49:15.048Z,20667,-0.17014295,-0.4213552,-0.5416681
1734432555055,2024-12-17T10:49:15.055Z,20674,-0.15951131,-0.4030824,-0.52090013
1734432555058,2024-12-17T10:49:15.058Z,20677,-0.15951131,-0.4030824,-0.52090013
1734432555066,2024-12-17T10:49:15.066Z,20685,-0.15178758,-0.38845176,-0.506391
1734432555069,2024-12-17T10:49:15.069Z,20688,-0.15178758,-0.38845176,-0.506391
1734432555076,2024-12-17T10:49:15.076Z,20695,-0.15559451,-0.37624714,-0.5105567
1734432555079,2024-12-17T10:49:15.079Z,20698,-0.15559451,-0.37624714,-0.5105567
1734432555089,2024-12-17T10:49:15.089Z,20708,-0.15389603,-0.3799517,-0.52048767
1734432555093,2024-12-17T10:49:15.093Z,20712,-0.15389603,-0.3799517,-0.52048767
1734432555103,2024-12-17T10:49:15.103Z,20722,-0.13422725,-0.35760027,-0.5016019
1734432555105,2024-12-17T10:49:15.105Z,20724,-0.13422725,-0.35760027,-0.5016019
1734432555114,2024-12-17T10:49:15.114Z,20733,-0.13409552,-0.33848196,-0.47927645
1734432555116,2024-12-17T10:49:15.116Z,20735,-0.13409552,-0.33848196,-0.47927645
1734432555123,2024-12-17T10:49:15.123Z,20742,-0.13336964,-0.32913256,-0.45866573
1734432555126,2024-12-17T10:49:15.126Z,20745,-0.13336964,-0.32913256,-0.45866573
1734432555134,2024-12-17T10:49:15.134Z,20753,-0.12322869,-0.31533507,-0.45533812
1734432555137,2024-12-17T10:49:15.137Z,20756,-0.12322869,-0.31533507,-0.45533812
1734432555144,2024-12-17T10:49:15.144Z,20763,-0.106280796,-0.2931797,-0.44445512
1734432555147,2024-12-17T10:49:15.147Z,20766,-0.106280796,-0.2931797,-0.44445512
1734432555158,2024-12-17T10:49:15.158Z,20777,-0.114108294,-0.28233415,-0.43794683
1734432555161,2024-12-17T10:49:15.161Z,20780,-0.114108294,-0.28233415,-0.43794683
1734432555169,2024-12-17T10:49:15.169Z,20788,-0.118706904,-0.26869652,-0.44086647
1734432555171,2024-12-17T10:49:15.171Z,20790,-0.118706904,-0.26869652,-0.44086647
1734432555179,2024-12-17T10:49:15.179Z,20798,-0.098153114,-0.25907063,-0.44682655
1734432555182,2024-12-17T10:49:15.182Z,20801,-0.098153114,-0.25907063,-0.44682655
1734432555192,2024-12-17T10:49:15.192Z,20811,-0.081239656,-0.2558001,-0.4561545
1734432555201,2024-12-17T10:49:15.201Z,20820,-0.081239656,-0.2558001,-0.4561545
1734432555211,2024-12-17T10:49:15.211Z,20830,-0.07630784,-0.2505134,-0.45165798
1734432555214,2024-12-17T10:49:15.214Z,20833,-0.07630784,-0.2505134,-0.45165798
1734432555224,2024-12-17T10:49:15.224Z,20843,-0.073823415,-0.23977134,-0.45142096
1734432555227,2024-12-17T10:49:15.227Z,20846,-0.073823415,-0.23977134,-0.45142096
1734432555236,2024-12-17T10:49:15.236Z,20855,-0.06754025,-0.22943848,-0.4427813
1734432555238,2024-12-17T10:49:15.238Z,20857,-0.06754025,-0.22943848,-0.4427813
1734432555248,2024-12-17T10:49:15.248Z,20867,-0.0687563,-0.22007109,-0.44441718
1734432555250,2024-12-17T10:49:15.250Z,20869,-0.0687563,-0.22007109,-0.44441718
1734432555258,2024-12-17T10:49:15.258Z,20877,-0.07541701,-0.21897084,-0.4523636
1734432555262,2024-12-17T10:49:15.262Z,20881,-0.07541701,-0.21897084,-0.4523636
1734432555270,2024-12-17T10:49:15.270Z,20889,-0.06158158,-0.205181,-0.44518405
1734432555272,2024-12-17T10:49:15.272Z,20891,-0.06158158,-0.205181,-0.44518405
1734432555280,2024-12-17T10:49:15.280Z,20899,-0.066767044,-0.19047083,-0.45566583
1734432555283,2024-12-17T10:49:15.283Z,20902,-0.066767044,-0.19047083,-0.45566583
1734432555290,2024-12-17T10:49:15.290Z,20909,-0.0634942,-0.18658774,-0.4681969
1734432555293,2024-12-17T10:49:15.293Z,20912,-0.0634942,-0.18658774,-0.4681969
1734432555302,2024-12-17T10:49:15.302Z,20921,-0.06359265,-0.18613504,-0.47389907
1734432555304,2024-12-17T10:49:15.304Z,20923,-0.06359265,-0.18613504,-0.47389907
1734432555312,2024-12-17T10:49:15.312Z,20931,-0.05914566,-0.18423833,-0.4810608
1734432555315,2024-12-17T10:49:15.315Z,20934,-0.05914566,-0.18423833,-0.4810608
1734432555323,2024-12-17T10:49:15.323Z,20942,-0.049166646,-0.17259467,-0.48235062
1734432555327,2024-12-17T10:49:15.327Z,20946,-0.049166646,-0.17259467,-0.48235062
1734432555337,2024-12-17T10:49:15.337Z,20956,-0.040442165,-0.16829115,-0.48263425
1734432555340,2024-12-17T10:49:15.340Z,20959,-0.040442165,-0.16829115,-0.48263425
1734432555348,2024-12-17T10:49:15.348Z,20967,-0.048085615,-0.16213284,-0.4761749
1734432555351,2024-12-17T10:49:15.351Z,20970,-0.048085615,-0.16213284,-0.4761749
1734432555359,2024-12-17T10:49:15.359Z,20978,-0.046799198,-0.14775789,-0.46932033
1734432555363,2024-12-17T10:49:15.363Z,20982,-0.046799198,-0.14775789,-0.46932033
1734432555372,2024-12-17T10:49:15.372Z,20991,-0.05125268,-0.14174321,-0.47033608
1734432555374,2024-12-17T10:49:15.374Z,20993,-0.05125268,-0.14174321,-0.47033608
1734432555383,2024-12-17T10:49:15.383Z,21002,-0.048288304,-0.13429433,-0.48015776
1734432555385,2024-12-17T10:49:15.385Z,21004,-0.048288304,-0.13429433,-0.48015776
1734432555394,2024-12-17T10:49:15.394Z,21013,-0.034610074,-0.12830125,-0.4870352
1734432555397,2024-12-17T10:49:15.397Z,21016,-0.034610074,-0.12830125,-0.4870352
1734432555405,2024-12-17T10:49:15.405Z,21024,-0.041935146,-0.12860096,-0.49479604
1734432555407,2024-12-17T10:49:15.407Z,21026,-0.041935146,-0.12860096,-0.49479604
1734432555415,2024-12-17T10:49:15.415Z,21034,-0.044888753,-0.12053669,-0.48438913
1734432555418,2024-12-17T10:49:15.418Z,21037,-0.044888753,-0.12053669,-0.48438913
1734432555428,2024-12-17T10:49:15.428Z,21047,-0.046971656,-0.109961495,-0.47926456
1734432555431,2024-12-17T10:49:15.431Z,21050,-0.046971656,-0.109961495,-0.47926456
1734432555441,2024-12-17T10:49:15.441Z,21060,-0.045509778,-0.11063143,-0.47851554
1734432555444,2024-12-17T10:49:15.444Z,21063,-0.045509778,-0.11063143,-0.47851554
1734432555453,2024-12-17T10:49:15.453Z,21072,-0.040934518,-0.10212089,-0.48811468
1734432555455,2024-12-17T10:49:15.455Z,21074,-0.040934518,-0.10212089,-0.48811468
1734432555463,2024-12-17T10:49:15.463Z,21082,-0.044050723,-0.087316096,-0.48945382
1734432555466,2024-12-17T10:49:15.466Z,21085,-0.044050723,-0.087316096,-0.48945382
1734432555474,2024-12-17T10:49:15.474Z,21093,-0.04606359,-0.074552625,-0.4791672
1734432555477,2024-12-17T10:49:15.477Z,21096,-0.04606359,-0.074552625,-0.4791672
1734432555485,2024-12-17T10:49:15.485Z,21104,-0.040621124,-0.058025282,-0.47833365
1734432555488,2024-12-17T10:49:15.488Z,21107,-0.040621124,-0.058025282,-0.47833365
1734432555496,2024-12-17T10:49:15.496Z,21115,-0.03650745,-0.04021193,-0.47138244
1734432555500,2024-12-17T10:49:15.500Z,21119,-0.03650745,-0.04021193,-0.47138244
1734432555507,2024-12-17T10:49:15.507Z,21126,-0.03322834,-0.02551362,-0.47247857
1734432555510,2024-12-17T10:49:15.510Z,21129,-0.03322834,-0.02551362,-0.47247857
1734432555518,2024-12-17T10:49:15.518Z,21137,-0.028831212,-0.016301733,-0.4849261
1734432555520,2024-12-17T10:49:15.520Z,21139,-0.028831212,-0.016301733,-0.4849261
1734432555528,2024-12-17T10:49:15.528Z,21147,-0.016183624,-0.0022342661,-0.49301845
1734432555531,2024-12-17T10:49:15.531Z,21150,-0.016183624,-0.0022342661,-0.49301845
1734432555540,2024-12-17T10:49:15.540Z,21159,-0.009054565,0.010893786,-0.49619883
1734432555544,2024-12-17T10:49:15.544Z,21163,-0.009054565,0.010893786,-0.49619883
1734432555555,2024-12-17T10:49:15.555Z,21174,-0.010404229,0.015280485,-0.48713946
1734432555558,2024-12-17T10:49:15.558Z,21177,-0.010404229,0.015280485,-0.48713946
1734432555567,2024-12-17T10:49:15.567Z,21186,-0.005001742,0.02798794,-0.46878436
1734432555571,2024-12-17T10:49:15.571Z,21190,-0.005001742,0.02798794,-0.46878436
1734432555583,2024-12-17T10:49:15.583Z,21202,5.055787E-4,0.05037952,-0.4646666
1734432555586,2024-12-17T10:49:15.586Z,21205,5.055787E-4,0.05037952,-0.4646666
1734432555597,2024-12-17T10:49:15.597Z,21216,0.007094853,0.06729007,-0.46555096
1734432555601,2024-12-17T10:49:15.601Z,21220,0.007094853,0.06729007,-0.46555096
1734432555612,2024-12-17T10:49:15.612Z,21231,0.013284305,0.075287625,-0.4709737
1734432555615,2024-12-17T10:49:15.615Z,21234,0.013284305,0.075287625,-0.4709737
1734432555624,2024-12-17T10:49:15.624Z,21243,0.0069405693,0.08075071,-0.48915863
1734432555626,2024-12-17T10:49:15.626Z,21245,0.0069405693,0.08075071,-0.48915863
1734432555634,2024-12-17T10:49:15.634Z,21253,0.01231398,0.07304811,-0.5107131
1734432555636,2024-12-17T10:49:15.636Z,21255,0.01231398,0.07304811,-0.5107131
1734432555644,2024-12-17T10:49:15.644Z,21263,0.024581706,0.07081491,-0.5149837
1734432555647,2024-12-17T10:49:15.647Z,21266,0.024581706,0.07081491,-0.5149837
1734432555657,2024-12-17T10:49:15.657Z,21276,0.029119905,0.07990144,-0.5044183
1734432555661,2024-12-17T10:49:15.661Z,21280,0.029119905,0.07990144,-0.5044183
1734432555670,2024-12-17T10:49:15.670Z,21289,0.030795118,0.096823715,-0.4810757
1734432555673,2024-12-17T10:49:15.673Z,21292,0.030795118,0.096823715,-0.4810757
1734432555685,2024-12-17T10:49:15.685Z,21304,0.03992354,0.11027419,-0.46555758
1734432555687,2024-12-17T10:49:15.687Z,21306,0.03992354,0.11027419,-0.46555758
1734432555700,2024-12-17T10:49:15.700Z,21319,0.0458001,0.121160686,-0.46722826
1734432555702,2024-12-17T10:49:15.702Z,21321,0.0458001,0.121160686,-0.46722826
1734432555711,2024-12-17T10:49:15.711Z,21330,0.047969185,0.12852938,-0.48505944
1734432555714,2024-12-17T10:49:15.714Z,21333,0.047969185,0.12852938,-0.48505944
1734432555723,2024-12-17T10:49:15.723Z,21342,0.0575865,0.13102145,-0.48766583
1734432555726,2024-12-17T10:49:15.726Z,21345,0.0575865,0.13102145,-0.48766583
1734432555734,2024-12-17T10:49:15.734Z,21353,0.05369055,0.14281775,-0.49550793
1734432555737,2024-12-17T10:49:15.737Z,21356,0.05369055,0.14281775,-0.49550793
1734432555745,2024-12-17T10:49:15.745Z,21364,0.05280197,0.15905963,-0.5017447
1734432555748,2024-12-17T10:49:15.748Z,21367,0.05280197,0.15905963,-0.5017447
1734432555756,2024-12-17T10:49:15.756Z,21375,0.059842803,0.16318686,-0.49604157
1734432555759,2024-12-17T10:49:15.759Z,21378,0.059842803,0.16318686,-0.49604157
1734432555767,2024-12-17T10:49:15.767Z,21386,0.06567543,0.16593237,-0.49544153
1734432555770,2024-12-17T10:49:15.770Z,21389,0.06567543,0.16593237,-0.49544153
1734432555777,2024-12-17T10:49:15.777Z,21396,0.06565674,0.1770772,-0.49465317
1734432555780,2024-12-17T10:49:15.780Z,21399,0.06565674,0.1770772,-0.49465317
1734432555790,2024-12-17T10:49:15.790Z,21409,0.07871969,0.18781199,-0.50254434
1734432555792,2024-12-17T10:49:15.792Z,21411,0.07871969,0.18781199,-0.50254434
1734432555801,2024-12-17T10:49:15.801Z,21420,0.069222346,0.1893287,-0.51475
1734432555804,2024-12-17T10:49:15.804Z,21423,0.069222346,0.1893287,-0.51475
1734432555816,2024-12-17T10:49:15.816Z,21435,0.048869032,0.19088492,-0.5044541
1734432555819,2024-12-17T10:49:15.819Z,21438,0.048869032,0.19088492,-0.5044541
1734432555830,2024-12-17T10:49:15.830Z,21449,0.04860763,0.19138826,-0.49225247
1734432555833,2024-12-17T10:49:15.833Z,21452,0.04860763,0.19138826,-0.49225247
1734432555840,2024-12-17T10:49:15.840Z,21459,0.04711032,0.1888749,-0.48247874
1734432555842,2024-12-17T10:49:15.842Z,21461,0.04711032,0.1888749,-0.48247874
1734432555850,2024-12-17T10:49:15.850Z,21469,0.04383815,0.1876291,-0.47703272
1734432555853,2024-12-17T10:49:15.853Z,21472,0.04383815,0.1876291,-0.47703272
1734432555860,2024-12-17T10:49:15.860Z,21479,0.049501397,0.18858753,-0.46717918
1734432555862,2024-12-17T10:49:15.862Z,21481,0.049501397,0.18858753,-0.46717918
1734432555870,2024-12-17T10:49:15.870Z,21489,0.049292315,0.193712,-0.4886097
1734432555872,2024-12-17T10:49:15.872Z,21491,0.049292315,0.193712,-0.4886097
1734432555880,2024-12-17T10:49:15.880Z,21499,0.02348615,0.18067035,-0.51435906
1734432555882,2024-12-17T10:49:15.882Z,21501,0.02348615,0.18067035,-0.51435906
1734432555890,2024-12-17T10:49:15.890Z,21509,0.01779959,0.16757832,-0.52393305
1734432555894,2024-12-17T10:49:15.894Z,21513,0.01779959,0.16757832,-0.52393305
1734432555904,2024-12-17T10:49:15.904Z,21523,0.0052374215,0.16418545,-0.50131375
1734432555906,2024-12-17T10:49:15.906Z,21525,0.0052374215,0.16418545,-0.50131375
1734432555916,2024-12-17T10:49:15.916Z,21535,-0.0104806535,0.14900693,-0.49565017
1734432555919,2024-12-17T10:49:15.919Z,21538,-0.0104806535,0.14900693,-0.49565017
1734432555930,2024-12-17T10:49:15.930Z,21549,-0.00199387,0.13365926,-0.49584183
1734432555932,2024-12-17T10:49:15.932Z,21551,-0.00199387,0.13365926,-0.49584183
1734432555941,2024-12-17T10:49:15.941Z,21560,-2.3903488E-4,0.1288736,-0.48930013
1734432555943,2024-12-17T10:49:15.943Z,21562,-2.3903488E-4,0.1288736,-0.48930013
1734432555952,2024-12-17T10:49:15.952Z,21571,-0.012106149,0.11867245,-0.4953822
1734432555954,2024-12-17T10:49:15.954Z,21573,-0.012106149,0.11867245,-0.4953822
1734432555962,2024-12-17T10:49:15.962Z,21581,-0.026123703,0.09730689,-0.51114553
1734432555964,2024-12-17T10:49:15.964Z,21583,-0.026123703,0.09730689,-0.51114553
1734432555972,2024-12-17T10:49:15.972Z,21591,-0.022932056,0.07220589,-0.52874047
1734432555974,2024-12-17T10:49:15.974Z,21593,-0.022932056,0.07220589,-0.52874047
1734432555982,2024-12-17T10:49:15.982Z,21601,-0.029966615,0.047329832,-0.5359539
1734432555985,2024-12-17T10:49:15.985Z,21604,-0.029966615,0.047329832,-0.5359539
1734432555994,2024-12-17T10:49:15.994Z,21613,-0.043373235,0.024645975,-0.51670456
1734432555996,2024-12-17T10:49:15.996Z,21615,-0.043373235,0.024645975,-0.51670456
1734432556006,2024-12-17T10:49:16.006Z,21625,-0.07104984,0.01684204,-0.48767987
1734432556010,2024-12-17T10:49:16.010Z,21629,-0.07104984,0.01684204,-0.48767987
1734432556019,2024-12-17T10:49:16.019Z,21638,-0.09052165,-0.0055575124,-0.47073632
1734432556022,2024-12-17T10:49:16.022Z,21641,-0.09052165,-0.0055575124,-0.47073632
1734432556030,2024-12-17T10:49:16.030Z,21649,-0.12022416,-0.034179702,-0.4494452
1734432556033,2024-12-17T10:49:16.033Z,21652,-0.12022416,-0.034179702,-0.4494452
1734432556040,2024-12-17T10:49:16.040Z,21659,-0.13011831,-0.05937464,-0.45605177
1734432556043,2024-12-17T10:49:16.043Z,21662,-0.13011831,-0.05937464,-0.45605177
1734432556051,2024-12-17T10:49:16.051Z,21670,-0.15149173,-0.080873,-0.4852081
1734432556055,2024-12-17T10:49:16.055Z,21674,-0.15149173,-0.080873,-0.4852081
1734432556065,2024-12-17T10:49:16.065Z,21684,-0.1611313,-0.10274362,-0.51988727
1734432556068,2024-12-17T10:49:16.068Z,21687,-0.1611313,-0.10274362,-0.51988727
1734432556077,2024-12-17T10:49:16.077Z,21696,-0.14243837,-0.12310506,-0.55238634
1734432556080,2024-12-17T10:49:16.080Z,21699,-0.14243837,-0.12310506,-0.55238634
1734432556088,2024-12-17T10:49:16.088Z,21707,-0.12795638,-0.15367506,-0.5679363
1734432556090,2024-12-17T10:49:16.090Z,21709,-0.12795638,-0.15367506,-0.5679363
1734432556099,2024-12-17T10:49:16.099Z,21718,-0.14041495,-0.15808973,-0.56725866
1734432556102,2024-12-17T10:49:16.102Z,21721,-0.14041495,-0.15808973,-0.56725866
1734432556109,2024-12-17T10:49:16.109Z,21728,-0.1622999,-0.15771002,-0.5409358
1734432556112,2024-12-17T10:49:16.112Z,21731,-0.1622999,-0.15771002,-0.5409358
1734432556120,2024-12-17T10:49:16.120Z,21739,-0.1602566,-0.17403792,-0.5030492
1734432556122,2024-12-17T10:49:16.122Z,21741,-0.1602566,-0.17403792,-0.5030492
1734432556130,2024-12-17T10:49:16.130Z,21749,-0.14160097,-0.18467759,-0.48836008
1734432556133,2024-12-17T10:49:16.133Z,21752,-0.14160097,-0.18467759,-0.48836008
1734432556141,2024-12-17T10:49:16.141Z,21760,-0.14644699,-0.16764748,-0.47297764
1734432556143,2024-12-17T10:49:16.143Z,21762,-0.14644699,-0.16764748,-0.47297764
1734432556153,2024-12-17T10:49:16.153Z,21772,-0.14101993,-0.1424552,-0.45583373
1734432556159,2024-12-17T10:49:16.159Z,21778,-0.14101993,-0.1424552,-0.45583373
1734432556171,2024-12-17T10:49:16.171Z,21790,-0.14442664,-0.12566121,-0.45741674
1734432556174,2024-12-17T10:49:16.174Z,21793,-0.14442664,-0.12566121,-0.45741674
1734432556183,2024-12-17T10:49:16.183Z,21802,-0.12812255,-0.12397951,-0.45721343
1734432556185,2024-12-17T10:49:16.185Z,21804,-0.12812255,-0.12397951,-0.45721343
1734432556192,2024-12-17T10:49:16.192Z,21811,-0.11588735,-0.11160868,-0.45572555
1734432556195,2024-12-17T10:49:16.195Z,21814,-0.11588735,-0.11160868,-0.45572555
1734432556203,2024-12-17T10:49:16.203Z,21822,-0.120753944,-0.09295476,-0.46507496
1734432556205,2024-12-17T10:49:16.205Z,21824,-0.120753944,-0.09295476,-0.46507496
1734432556214,2024-12-17T10:49:16.214Z,21833,-0.11012601,-0.07761826,-0.45579946
1734432556218,2024-12-17T10:49:16.218Z,21837,-0.11012601,-0.07761826,-0.45579946
1734432556225,2024-12-17T10:49:16.225Z,21844,-0.092598006,-0.054923177,-0.44495758
1734432556228,2024-12-17T10:49:16.228Z,21847,-0.092598006,-0.054923177,-0.44495758
1734432556238,2024-12-17T10:49:16.238Z,21857,-0.082552396,-0.027855782,-0.43880913
1734432556240,2024-12-17T10:49:16.240Z,21859,-0.082552396,-0.027855782,-0.43880913
1734432556249,2024-12-17T10:49:16.249Z,21868,-0.08454546,-0.018699326,-0.44940946
1734432556252,2024-12-17T10:49:16.252Z,21871,-0.08454546,-0.018699326,-0.44940946
1734432556260,2024-12-17T10:49:16.260Z,21879,-0.073575065,-0.017730787,-0.4679704
1734432556264,2024-12-17T10:49:16.264Z,21883,-0.073575065,-0.017730787,-0.4679704
1734432556273,2024-12-17T10:49:16.273Z,21892,-0.06344322,-0.010762405,-0.46865803
1734432556275,2024-12-17T10:49:16.275Z,21894,-0.06344322,-0.010762405,-0.46865803
1734432556283,2024-12-17T10:49:16.283Z,21902,-0.042024434,0.01099259,-0.4490883
1734432556286,2024-12-17T10:49:16.286Z,21905,-0.042024434,0.01099259,-0.4490883
1734432556293,2024-12-17T10:49:16.293Z,21912,-0.0119736735,0.047617637,-0.41659948
1734432556296,2024-12-17T10:49:16.296Z,21915,-0.0119736735,0.047617637,-0.41659948
1734432556305,2024-12-17T10:49:16.305Z,21924,-0.023869427,0.07368605,-0.4048052
1734432556308,2024-12-17T10:49:16.308Z,21927,-0.023869427,0.07368605,-0.4048052
1734432556318,2024-12-17T10:49:16.318Z,21937,-0.004341284,0.07886478,-0.4127603
1734432556320,2024-12-17T10:49:16.320Z,21939,-0.004341284,0.07886478,-0.4127603
1734432556328,2024-12-17T10:49:16.328Z,21947,0.040101163,0.07444658,-0.42778155
1734432556331,2024-12-17T10:49:16.331Z,21950,0.040101163,0.07444658,-0.42778155
1734432556338,2024-12-17T10:49:16.338Z,21957,0.020797493,0.073066294,-0.4361504
1734432556340,2024-12-17T10:49:16.340Z,21959,0.020797493,0.073066294,-0.4361504
1734432556348,2024-12-17T10:49:16.348Z,21967,-0.0074921586,0.080999374,-0.45745543
1734432556350,2024-12-17T10:49:16.350Z,21969,-0.0074921586,0.080999374,-0.45745543
1734432556358,2024-12-17T10:49:16.358Z,21977,0.026222773,0.087514825,-0.45769244
1734432556362,2024-12-17T10:49:16.362Z,21981,0.026222773,0.087514825,-0.45769244
1734432556370,2024-12-17T10:49:16.370Z,21989,0.04384,0.081901535,-0.45779264
1734432556373,2024-12-17T10:49:16.373Z,21992,0.04384,0.081901535,-0.45779264
1734432556380,2024-12-17T10:49:16.380Z,21999,0.046380594,0.09879444,-0.4450813
1734432556383,2024-12-17T10:49:16.383Z,22002,0.046380594,0.09879444,-0.4450813
1734432556391,2024-12-17T10:49:16.391Z,22010,0.036064584,0.10603186,-0.43913382
1734432556394,2024-12-17T10:49:16.394Z,22013,0.036064584,0.10603186,-0.43913382
1734432556403,2024-12-17T10:49:16.403Z,22022,0.044149272,0.11185252,-0.43759698
1734432556406,2024-12-17T10:49:16.406Z,22025,0.044149272,0.11185252,-0.43759698
1734432556413,2024-12-17T10:49:16.413Z,22032,0.06856555,0.11286215,-0.44099835
1734432556416,2024-12-17T10:49:16.416Z,22035,0.06856555,0.11286215,-0.44099835
1734432556424,2024-12-17T10:49:16.424Z,22043,0.060536947,0.110539146,-0.45563024
1734432556426,2024-12-17T10:49:16.426Z,22045,0.060536947,0.110539146,-0.45563024
1734432556436,2024-12-17T10:49:16.436Z,22055,0.07873545,0.11892787,-0.4518333
1734432556439,2024-12-17T10:49:16.439Z,22058,0.07873545,0.11892787,-0.4518333
1734432556447,2024-12-17T10:49:16.447Z,22066,0.07006506,0.1174641,-0.45451534
1734432556450,2024-12-17T10:49:16.450Z,22069,0.07006506,0.1174641,-0.45451534
1734432556458,2024-12-17T10:49:16.458Z,22077,0.080235444,0.121813074,-0.46618158
1734432556462,2024-12-17T10:49:16.462Z,22081,0.080235444,0.121813074,-0.46618158
1734432556471,2024-12-17T10:49:16.471Z,22090,0.09848196,0.12029946,-0.4511347
1734432556473,2024-12-17T10:49:16.473Z,22092,0.09848196,0.12029946,-0.4511347
1734432556481,2024-12-17T10:49:16.481Z,22100,0.081940606,0.12364799,-0.44741905
1734432556484,2024-12-17T10:49:16.484Z,22103,0.081940606,0.12364799,-0.44741905
1734432556493,2024-12-17T10:49:16.493Z,22112,0.086620726,0.13866211,-0.44834343
1734432556495,2024-12-17T10:49:16.495Z,22114,0.086620726,0.13866211,-0.44834343
1734432556503,2024-12-17T10:49:16.503Z,22122,0.11149961,0.1356008,-0.44605502
1734432556505,2024-12-17T10:49:16.505Z,22124,0.11149961,0.1356008,-0.44605502
1734432556516,2024-12-17T10:49:16.516Z,22135,0.09919729,0.13538335,-0.45516765
1734432556519,2024-12-17T10:49:16.519Z,22138,0.09919729,0.13538335,-0.45516765
1734432556527,2024-12-17T10:49:16.527Z,22146,0.07539482,0.15023775,-0.45380414
1734432556530,2024-12-17T10:49:16.530Z,22149,0.07539482,0.15023775,-0.45380414
1734432556538,2024-12-17T10:49:16.538Z,22157,0.0839638,0.14844377,-0.45662776
1734432556540,2024-12-17T10:49:16.540Z,22159,0.0839638,0.14844377,-0.45662776
1734432556549,2024-12-17T10:49:16.549Z,22168,0.066184,0.13822177,-0.476229
1734432556552,2024-12-17T10:49:16.552Z,22171,0.066184,0.13822177,-0.476229
1734432556559,2024-12-17T10:49:16.559Z,22178,0.08941235,0.14448419,-0.48575276
1734432556561,2024-12-17T10:49:16.561Z,22180,0.08941235,0.14448419,-0.48575276
1734432556570,2024-12-17T10:49:16.570Z,22189,0.09936348,0.13703467,-0.4807351
1734432556572,2024-12-17T10:49:16.572Z,22191,0.09936348,0.13703467,-0.4807351
1734432556579,2024-12-17T10:49:16.579Z,22198,0.09022813,0.14078858,-0.48211882
1734432556582,2024-12-17T10:49:16.582Z,22201,0.09022813,0.14078858,-0.48211882
1734432556590,2024-12-17T10:49:16.590Z,22209,0.0963925,0.1426285,-0.48459762
1734432556592,2024-12-17T10:49:16.592Z,22211,0.0963925,0.1426285,-0.48459762
1734432556603,2024-12-17T10:49:16.603Z,22222,0.08848015,0.13914189,-0.47306755
1734432556606,2024-12-17T10:49:16.606Z,22225,0.08848015,0.13914189,-0.47306755
1734432556618,2024-12-17T10:49:16.618Z,22237,0.08607395,0.13468808,-0.46951854
1734432556621,2024-12-17T10:49:16.621Z,22240,0.08607395,0.13468808,-0.46951854
1734432556629,2024-12-17T10:49:16.629Z,22248,0.084196925,0.12584476,-0.4832799
1734432556632,2024-12-17T10:49:16.632Z,22251,0.084196925,0.12584476,-0.4832799
1734432556641,2024-12-17T10:49:16.641Z,22260,0.0844797,0.114561014,-0.48641893
1734432556644,2024-12-17T10:49:16.644Z,22263,0.0844797,0.114561014,-0.48641893
1734432556651,2024-12-17T10:49:16.651Z,22270,0.08464654,0.11253175,-0.47984725
1734432556654,2024-12-17T10:49:16.654Z,22273,0.08464654,0.11253175,-0.47984725
1734432556662,2024-12-17T10:49:16.662Z,22281,0.06717123,0.10512716,-0.48645377
1734432556665,2024-12-17T10:49:16.665Z,22284,0.06717123,0.10512716,-0.48645377
1734432556672,2024-12-17T10:49:16.672Z,22291,0.07319737,0.10112367,-0.48274893
1734432556675,2024-12-17T10:49:16.675Z,22294,0.07319737,0.10112367,-0.48274893
1734432556684,2024-12-17T10:49:16.684Z,22303,0.07832799,0.08784663,-0.4691819
1734432556686,2024-12-17T10:49:16.686Z,22305,0.07832799,0.08784663,-0.4691819
1734432556695,2024-12-17T10:49:16.695Z,22314,0.06514623,0.0750181,-0.48870924
1734432556697,2024-12-17T10:49:16.697Z,22316,0.06514623,0.0750181,-0.48870924
1734432556705,2024-12-17T10:49:16.705Z,22324,0.05312932,0.061199736,-0.49933103
1734432556708,2024-12-17T10:49:16.708Z,22327,0.05312932,0.061199736,-0.49933103
1734432556715,2024-12-17T10:49:16.715Z,22334,0.052055,0.040101215,-0.5053501
1734432556718,2024-12-17T10:49:16.718Z,22337,0.052055,0.040101215,-0.5053501
1734432556726,2024-12-17T10:49:16.726Z,22345,0.0351974,0.031636383,-0.48392588
1734432556728,2024-12-17T10:49:16.728Z,22347,0.0351974,0.031636383,-0.48392588
1734432556738,2024-12-17T10:49:16.738Z,22357,0.010261749,0.02934552,-0.47216702
1734432556740,2024-12-17T10:49:16.740Z,22359,0.010261749,0.02934552,-0.47216702
1734432556750,2024-12-17T10:49:16.750Z,22369,0.016202295,0.016133152,-0.4760075
1734432556753,2024-12-17T10:49:16.753Z,22372,0.016202295,0.016133152,-0.4760075
1734432556760,2024-12-17T10:49:16.760Z,22379,0.016442133,0.0046819425,-0.48324737
1734432556762,2024-12-17T10:49:16.762Z,22381,0.016442133,0.0046819425,-0.48324737
1734432556772,2024-12-17T10:49:16.772Z,22391,0.026575005,-0.015659994,-0.49962568
1734432556774,2024-12-17T10:49:16.774Z,22393,0.026575005,-0.015659994,-0.49962568
1734432556781,2024-12-17T10:49:16.781Z,22400,0.052642655,-0.023256693,-0.5108903
1734432556784,2024-12-17T10:49:16.784Z,22403,0.052642655,-0.023256693,-0.5108903
1734432556792,2024-12-17T10:49:16.792Z,22411,0.022568155,-0.023340814,-0.49841243
1734432556795,2024-12-17T10:49:16.795Z,22414,0.022568155,-0.023340814,-0.49841243
1734432556805,2024-12-17T10:49:16.805Z,22424,0.022661708,-0.038300138,-0.5036335
1734432556808,2024-12-17T10:49:16.808Z,22427,0.022661708,-0.038300138,-0.5036335
1734432556820,2024-12-17T10:49:16.820Z,22439,0.033176713,-0.06272312,-0.49777892
1734432556823,2024-12-17T10:49:16.823Z,22442,0.033176713,-0.06272312,-0.49777892
1734432556832,2024-12-17T10:49:16.832Z,22451,0.014190994,-0.07568634,-0.475533
1734432556836,2024-12-17T10:49:16.836Z,22455,0.014190994,-0.07568634,-0.475533
1734432556846,2024-12-17T10:49:16.846Z,22465,-0.020064464,-0.0831042,-0.45257145
1734432556849,2024-12-17T10:49:16.849Z,22468,-0.020064464,-0.0831042,-0.45257145
1734432556859,2024-12-17T10:49:16.859Z,22478,-0.03808996,-0.0792707,-0.43878582
1734432556862,2024-12-17T10:49:16.862Z,22481,-0.03808996,-0.0792707,-0.43878582
1734432556871,2024-12-17T10:49:16.871Z,22490,-0.033157777,-0.085209034,-0.43573588
1734432556874,2024-12-17T10:49:16.874Z,22493,-0.033157777,-0.085209034,-0.43573588
1734432556884,2024-12-17T10:49:16.884Z,22503,-0.047346096,-0.10871662,-0.43611306
1734432556888,2024-12-17T10:49:16.888Z,22507,-0.047346096,-0.10871662,-0.43611306
1734432556896,2024-12-17T10:49:16.896Z,22515,-0.07715818,-0.12244071,-0.43595868
1734432556898,2024-12-17T10:49:16.898Z,22517,-0.07715818,-0.12244071,-0.43595868
1734432556906,2024-12-17T10:49:16.906Z,22525,-0.09033656,-0.13859832,-0.43185657
1734432556910,2024-12-17T10:49:16.910Z,22529,-0.09033656,-0.13859832,-0.43185657
1734432556919,2024-12-17T10:49:16.919Z,22538,-0.08829526,-0.14704205,-0.4449557
1734432556922,2024-12-17T10:49:16.922Z,22541,-0.08829526,-0.14704205,-0.4449557
1734432556929,2024-12-17T10:49:16.929Z,22548,-0.105287574,-0.16731508,-0.46457037
1734432556932,2024-12-17T10:49:16.932Z,22551,-0.105287574,-0.16731508,-0.46457037
1734432556940,2024-12-17T10:49:16.940Z,22559,-0.1404114,-0.19247618,-0.48274836
1734432556942,2024-12-17T10:49:16.942Z,22561,-0.1404114,-0.19247618,-0.48274836
1734432556950,2024-12-17T10:49:16.950Z,22569,-0.15223138,-0.20981,-0.46335405
1734432556952,2024-12-17T10:49:16.952Z,22571,-0.15223138,-0.20981,-0.46335405
1734432556961,2024-12-17T10:49:16.961Z,22580,-0.17180927,-0.228678,-0.4328104
1734432556963,2024-12-17T10:49:16.963Z,22582,-0.17180927,-0.228678,-0.4328104
1734432556971,2024-12-17T10:49:16.971Z,22590,-0.18522726,-0.24092159,-0.4307977
1734432556974,2024-12-17T10:49:16.974Z,22593,-0.18522726,-0.24092159,-0.4307977
1734432556981,2024-12-17T10:49:16.981Z,22600,-0.18960774,-0.25438416,-0.4476315
1734432556983,2024-12-17T10:49:16.983Z,22602,-0.18960774,-0.25438416,-0.4476315
1734432556992,2024-12-17T10:49:16.992Z,22611,-0.17285159,-0.27536255,-0.4573989
1734432556994,2024-12-17T10:49:16.994Z,22613,-0.17285159,-0.27536255,-0.4573989
1734432557003,2024-12-17T10:49:17.003Z,22622,-0.17229968,-0.27781823,-0.46335313
1734432557006,2024-12-17T10:49:17.006Z,22625,-0.17229968,-0.27781823,-0.46335313
1734432557018,2024-12-17T10:49:17.018Z,22637,-0.16727667,-0.2923699,-0.4746717
1734432557020,2024-12-17T10:49:17.020Z,22639,-0.16727667,-0.2923699,-0.4746717
1734432557027,2024-12-17T10:49:17.027Z,22646,-0.16970518,-0.30620554,-0.4770821
1734432557029,2024-12-17T10:49:17.029Z,22648,-0.16970518,-0.30620554,-0.4770821
1734432557036,2024-12-17T10:49:17.036Z,22655,-0.1702407,-0.3256191,-0.4562943
1734432557039,2024-12-17T10:49:17.039Z,22658,-0.1702407,-0.3256191,-0.4562943
1734432557048,2024-12-17T10:49:17.048Z,22667,-0.16737802,-0.3341062,-0.43246558
1734432557052,2024-12-17T10:49:17.052Z,22671,-0.16737802,-0.3341062,-0.43246558
1734432557064,2024-12-17T10:49:17.064Z,22683,-0.17259072,-0.35079846,-0.4305342
1734432557068,2024-12-17T10:49:17.068Z,22687,-0.17259072,-0.35079846,-0.4305342
1734432557076,2024-12-17T10:49:17.076Z,22695,-0.15849212,-0.35230047,-0.41783386
1734432557078,2024-12-17T10:49:17.078Z,22697,-0.15849212,-0.35230047,-0.41783386
1734432557089,2024-12-17T10:49:17.089Z,22708,-0.16118754,-0.36453772,-0.41249514
1734432557091,2024-12-17T10:49:17.091Z,22710,-0.16118754,-0.36453772,-0.41249514
1734432557100,2024-12-17T10:49:17.100Z,22719,-0.15535721,-0.368051,-0.41466776
1734432557102,2024-12-17T10:49:17.102Z,22721,-0.15535721,-0.368051,-0.41466776
1734432557110,2024-12-17T10:49:17.110Z,22729,-0.1532573,-0.37508374,-0.4151532
1734432557113,2024-12-17T10:49:17.113Z,22732,-0.1532573,-0.37508374,-0.4151532
1734432557121,2024-12-17T10:49:17.121Z,22740,-0.16144617,-0.3774175,-0.42081586
1734432557124,2024-12-17T10:49:17.124Z,22743,-0.16144617,-0.3774175,-0.42081586
1734432557134,2024-12-17T10:49:17.134Z,22753,-0.13720152,-0.37214813,-0.40914738
1734432557137,2024-12-17T10:49:17.137Z,22756,-0.13720152,-0.37214813,-0.40914738
1734432557144,2024-12-17T10:49:17.144Z,22763,-0.11531936,-0.3778589,-0.40741277
1734432557146,2024-12-17T10:49:17.146Z,22765,-0.11531936,-0.3778589,-0.40741277
1734432557153,2024-12-17T10:49:17.153Z,22772,-0.09464928,-0.37751943,-0.42542958
1734432557156,2024-12-17T10:49:17.156Z,22775,-0.09464928,-0.37751943,-0.42542958
1734432557162,2024-12-17T10:49:17.162Z,22781,-0.085520394,-0.3740538,-0.41342425
1734432557165,2024-12-17T10:49:17.165Z,22784,-0.085520394,-0.3740538,-0.41342425
1734432557172,2024-12-17T10:49:17.172Z,22791,-0.099282905,-0.35424715,-0.40020084
1734432557174,2024-12-17T10:49:17.174Z,22793,-0.099282905,-0.35424715,-0.40020084
1734432557181,2024-12-17T10:49:17.181Z,22800,-0.1142179,-0.35418686,-0.42141992
1734432557184,2024-12-17T10:49:17.184Z,22803,-0.1142179,-0.35418686,-0.42141992
1734432557192,2024-12-17T10:49:17.192Z,22811,-0.09678988,-0.35525778,-0.40623102
1734432557194,2024-12-17T10:49:17.194Z,22813,-0.09678988,-0.35525778,-0.40623102
1734432557202,2024-12-17T10:49:17.202Z,22821,-0.097543456,-0.35934013,-0.39104477
1734432557205,2024-12-17T10:49:17.205Z,22824,-0.097543456,-0.35934013,-0.39104477
1734432557214,2024-12-17T10:49:17.214Z,22833,-0.09821894,-0.34720245,-0.3850476
1734432557217,2024-12-17T10:49:17.217Z,22836,-0.09821894,-0.34720245,-0.3850476
1734432557226,2024-12-17T10:49:17.226Z,22845,-0.065171055,-0.33522698,-0.378572
1734432557229,2024-12-17T10:49:17.229Z,22848,-0.065171055,-0.33522698,-0.378572
1734432557237,2024-12-17T10:49:17.237Z,22856,-0.07496139,-0.3245172,-0.35522193
1734432557240,2024-12-17T10:49:17.240Z,22859,-0.07496139,-0.3245172,-0.35522193
1734432557247,2024-12-17T10:49:17.247Z,22866,-0.077191465,-0.318909,-0.35097438
1734432557250,2024-12-17T10:49:17.250Z,22869,-0.077191465,-0.318909,-0.35097438
1734432557258,2024-12-17T10:49:17.258Z,22877,-0.052284844,-0.32229808,-0.38222435
1734432557261,2024-12-17T10:49:17.261Z,22880,-0.052284844,-0.32229808,-0.38222435
1734432557270,2024-12-17T10:49:17.270Z,22889,-0.012786045,-0.3298348,-0.4183921
1734432557273,2024-12-17T10:49:17.273Z,22892,-0.012786045,-0.3298348,-0.4183921
1734432557281,2024-12-17T10:49:17.281Z,22900,-0.048428938,-0.3374984,-0.41644424
1734432557283,2024-12-17T10:49:17.283Z,22902,-0.048428938,-0.3374984,-0.41644424
1734432557291,2024-12-17T10:49:17.291Z,22910,-0.09472234,-0.34777457,-0.39549226
1734432557293,2024-12-17T10:49:17.293Z,22912,-0.09472234,-0.34777457,-0.39549226
1734432557303,2024-12-17T10:49:17.303Z,22922,-0.0625629,-0.34515917,-0.3747137
1734432557306,2024-12-17T10:49:17.306Z,22925,-0.0625629,-0.34515917,-0.3747137
1734432557313,2024-12-17T10:49:17.313Z,22932,-0.05653199,-0.35415915,-0.3606674
1734432557316,2024-12-17T10:49:17.316Z,22935,-0.05653199,-0.35415915,-0.3606674
1734432557324,2024-12-17T10:49:17.324Z,22943,-0.08531795,-0.3651078,-0.34276128
1734432557327,2024-12-17T10:49:17.327Z,22946,-0.08531795,-0.3651078,-0.34276128
1734432557336,2024-12-17T10:49:17.336Z,22955,-0.095018625,-0.35470647,-0.3285129
1734432557339,2024-12-17T10:49:17.339Z,22958,-0.095018625,-0.35470647,-0.3285129
1734432557346,2024-12-17T10:49:17.346Z,22965,-0.11007905,-0.35669586,-0.33072796
1734432557349,2024-12-17T10:49:17.349Z,22968,-0.11007905,-0.35669586,-0.33072796
1734432557356,2024-12-17T10:49:17.356Z,22975,-0.10031006,-0.3676059,-0.34250605
1734432557358,2024-12-17T10:49:17.358Z,22977,-0.10031006,-0.3676059,-0.34250605
1734432557366,2024-12-17T10:49:17.366Z,22985,-0.08932015,-0.37414035,-0.36076686
1734432557369,2024-12-17T10:49:17.369Z,22988,-0.08932015,-0.37414035,-0.36076686
1734432557375,2024-12-17T10:49:17.375Z,22994,-0.106594786,-0.39863044,-0.38825956
1734432557377,2024-12-17T10:49:17.377Z,22996,-0.106594786,-0.39863044,-0.38825956
1734432557385,2024-12-17T10:49:17.385Z,23004,-0.1143402,-0.40733966,-0.3867295
1734432557387,2024-12-17T10:49:17.387Z,23006,-0.1143402,-0.40733966,-0.3867295
1734432557394,2024-12-17T10:49:17.394Z,23013,-0.14061797,-0.42282936,-0.3674966
1734432557396,2024-12-17T10:49:17.396Z,23015,-0.14061797,-0.42282936,-0.3674966
1734432557406,2024-12-17T10:49:17.406Z,23025,-0.14747667,-0.41986534,-0.36198053
1734432557408,2024-12-17T10:49:17.408Z,23027,-0.14747667,-0.41986534,-0.36198053
1734432557415,2024-12-17T10:49:17.415Z,23034,-0.15797783,-0.40389758,-0.35378262
1734432557418,2024-12-17T10:49:17.418Z,23037,-0.15797783,-0.40389758,-0.35378262
1734432557425,2024-12-17T10:49:17.425Z,23044,-0.17547809,-0.39109966,-0.3439759
1734432557428,2024-12-17T10:49:17.428Z,23047,-0.17547809,-0.39109966,-0.3439759
1734432557436,2024-12-17T10:49:17.436Z,23055,-0.17944147,-0.38693962,-0.3561797
1734432557439,2024-12-17T10:49:17.439Z,23058,-0.17944147,-0.38693962,-0.3561797
1734432557446,2024-12-17T10:49:17.446Z,23065,-0.173953,-0.37319326,-0.37745675
1734432557449,2024-12-17T10:49:17.449Z,23068,-0.173953,-0.37319326,-0.37745675
1734432557458,2024-12-17T10:49:17.458Z,23077,-0.17438947,-0.36975187,-0.38909298
1734432557460,2024-12-17T10:49:17.460Z,23079,-0.17438947,-0.36975187,-0.38909298
1734432557467,2024-12-17T10:49:17.467Z,23086,-0.1612623,-0.3710963,-0.39618456
1734432557472,2024-12-17T10:49:17.472Z,23091,-0.1612623,-0.3710963,-0.39618456
1734432557483,2024-12-17T10:49:17.483Z,23102,-0.15668556,-0.35761458,-0.3888635
1734432557490,2024-12-17T10:49:17.490Z,23109,-0.15668556,-0.35761458,-0.3888635
1734432557498,2024-12-17T10:49:17.498Z,23117,-0.14365813,-0.34884506,-0.3788992
1734432557500,2024-12-17T10:49:17.500Z,23119,-0.14365813,-0.34884506,-0.3788992
1734432557508,2024-12-17T10:49:17.508Z,23127,-0.13232306,-0.33751073,-0.37756893
1734432557510,2024-12-17T10:49:17.510Z,23129,-0.13232306,-0.33751073,-0.37756893
1734432557517,2024-12-17T10:49:17.517Z,23136,-0.13442288,-0.32755482,-0.37811765
1734432557520,2024-12-17T10:49:17.520Z,23139,-0.13442288,-0.32755482,-0.37811765
1734432557527,2024-12-17T10:49:17.527Z,23146,-0.1225194,-0.3131502,-0.3849648
1734432557530,2024-12-17T10:49:17.530Z,23149,-0.1225194,-0.3131502,-0.3849648
1734432557538,2024-12-17T10:49:17.538Z,23157,-0.116638,-0.29914477,-0.3921839
1734432557541,2024-12-17T10:49:17.541Z,23160,-0.116638,-0.29914477,-0.3921839
1734432557548,2024-12-17T10:49:17.548Z,23167,-0.11687041,-0.29682335,-0.40137857
1734432557552,2024-12-17T10:49:17.552Z,23171,-0.11687041,-0.29682335,-0.40137857
1734432557560,2024-12-17T10:49:17.560Z,23179,-0.10852727,-0.29293385,-0.399701
1734432557562,2024-12-17T10:49:17.562Z,23181,-0.10852727,-0.29293385,-0.399701
1734432557569,2024-12-17T10:49:17.569Z,23188,-0.102252096,-0.28652707,-0.3900954
1734432557572,2024-12-17T10:49:17.572Z,23191,-0.102252096,-0.28652707,-0.3900954
1734432557579,2024-12-17T10:49:17.579Z,23198,-0.08910972,-0.28060633,-0.38632292
1734432557582,2024-12-17T10:49:17.582Z,23201,-0.08910972,-0.28060633,-0.38632292
1734432557590,2024-12-17T10:49:17.590Z,23209,-0.08528416,-0.274237,-0.37628552
1734432557592,2024-12-17T10:49:17.592Z,23211,-0.08528416,-0.274237,-0.37628552
1734432557598,2024-12-17T10:49:17.598Z,23217,-0.09502835,-0.26900586,-0.37286764
1734432557601,2024-12-17T10:49:17.601Z,23220,-0.09502835,-0.26900586,-0.37286764
1734432557609,2024-12-17T10:49:17.609Z,23228,-0.08265122,-0.25801638,-0.38033023
1734432557612,2024-12-17T10:49:17.612Z,23231,-0.08265122,-0.25801638,-0.38033023
1734432557621,2024-12-17T10:49:17.621Z,23240,-0.07887614,-0.24519417,-0.3742873
1734432557624,2024-12-17T10:49:17.624Z,23243,-0.07887614,-0.24519417,-0.3742873
1734432557632,2024-12-17T10:49:17.632Z,23251,-0.08024746,-0.24078971,-0.37571555
1734432557634,2024-12-17T10:49:17.634Z,23253,-0.08024746,-0.24078971,-0.37571555
1734432557642,2024-12-17T10:49:17.642Z,23261,-0.064426854,-0.22716658,-0.38307875
1734432557644,2024-12-17T10:49:17.644Z,23263,-0.064426854,-0.22716658,-0.38307875
1734432557652,2024-12-17T10:49:17.652Z,23271,-0.054912783,-0.22722375,-0.39288184
1734432557655,2024-12-17T10:49:17.655Z,23274,-0.054912783,-0.22722375,-0.39288184
1734432557661,2024-12-17T10:49:17.661Z,23280,-0.059612423,-0.22289439,-0.3919725
1734432557664,2024-12-17T10:49:17.664Z,23283,-0.059612423,-0.22289439,-0.3919725
1734432557673,2024-12-17T10:49:17.673Z,23292,-0.07256728,-0.22295798,-0.39055246
1734432557676,2024-12-17T10:49:17.676Z,23295,-0.07256728,-0.22295798,-0.39055246
1734432557684,2024-12-17T10:49:17.684Z,23303,-0.06929246,-0.22103111,-0.40122432
1734432557686,2024-12-17T10:49:17.686Z,23305,-0.06929246,-0.22103111,-0.40122432
1734432557694,2024-12-17T10:49:17.694Z,23313,-0.05700496,-0.20208755,-0.38618678
1734432557697,2024-12-17T10:49:17.697Z,23316,-0.05700496,-0.20208755,-0.38618678
1734432557705,2024-12-17T10:49:17.705Z,23324,-0.058503654,-0.19605431,-0.3688638
1734432557708,2024-12-17T10:49:17.708Z,23327,-0.058503654,-0.19605431,-0.3688638
1734432557714,2024-12-17T10:49:17.714Z,23333,-0.062888175,-0.1887616,-0.3658009
1734432557717,2024-12-17T10:49:17.717Z,23336,-0.062888175,-0.1887616,-0.3658009
1734432557724,2024-12-17T10:49:17.724Z,23343,-0.052699715,-0.1747662,-0.35785344
1734432557726,2024-12-17T10:49:17.726Z,23345,-0.052699715,-0.1747662,-0.35785344
1734432557733,2024-12-17T10:49:17.733Z,23352,-0.06244035,-0.17412496,-0.34651476
1734432557735,2024-12-17T10:49:17.735Z,23354,-0.06244035,-0.17412496,-0.34651476
1734432557743,2024-12-17T10:49:17.743Z,23362,-0.060824968,-0.16440834,-0.3372244
1734432557745,2024-12-17T10:49:17.745Z,23364,-0.060824968,-0.16440834,-0.3372244
1734432557753,2024-12-17T10:49:17.753Z,23372,-0.053806126,-0.1559087,-0.31986982
1734432557756,2024-12-17T10:49:17.756Z,23375,-0.053806126,-0.1559087,-0.31986982
1734432557765,2024-12-17T10:49:17.765Z,23384,-0.05598838,-0.14429373,-0.3024305
1734432557768,2024-12-17T10:49:17.768Z,23387,-0.05598838,-0.14429373,-0.3024305
1734432557776,2024-12-17T10:49:17.776Z,23395,-0.057013225,-0.12660223,-0.2950747
1734432557778,2024-12-17T10:49:17.778Z,23397,-0.057013225,-0.12660223,-0.2950747
1734432557786,2024-12-17T10:49:17.786Z,23405,-0.060319316,-0.115099184,-0.3033236
1734432557788,2024-12-17T10:49:17.788Z,23407,-0.060319316,-0.115099184,-0.3033236
1734432557794,2024-12-17T10:49:17.794Z,23413,-0.058991875,-0.11189468,-0.30365187
1734432557796,2024-12-17T10:49:17.796Z,23415,-0.058991875,-0.11189468,-0.30365187
1734432557804,2024-12-17T10:49:17.804Z,23423,-0.052626487,-0.09645845,-0.29310694
1734432557806,2024-12-17T10:49:17.806Z,23425,-0.052626487,-0.09645845,-0.29310694
1734432557813,2024-12-17T10:49:17.813Z,23432,-0.055830643,-0.08393625,-0.28829512
1734432557815,2024-12-17T10:49:17.815Z,23434,-0.055830643,-0.08393625,-0.28829512
1734432557824,2024-12-17T10:49:17.824Z,23443,-0.049100164,-0.063113764,-0.28292125
1734432557827,2024-12-17T10:49:17.827Z,23446,-0.049100164,-0.063113764,-0.28292125
1734432557837,2024-12-17T10:49:17.837Z,23456,-0.057772133,-0.05065303,-0.27955934
1734432557840,2024-12-17T10:49:17.840Z,23459,-0.057772133,-0.05065303,-0.27955934
1734432557846,2024-12-17T10:49:17.846Z,23465,-0.06756096,-0.040710423,-0.28161433
1734432557849,2024-12-17T10:49:17.849Z,23468,-0.06756096,-0.040710423,-0.28161433
1734432557858,2024-12-17T10:49:17.858Z,23477,-0.060843203,-0.02889035,-0.2885716
1734432557861,2024-12-17T10:49:17.861Z,23480,-0.060843203,-0.02889035,-0.2885716
1734432557870,2024-12-17T10:49:17.870Z,23489,-0.058652323,-0.01860271,-0.28235632
1734432557873,2024-12-17T10:49:17.873Z,23492,-0.058652323,-0.01860271,-0.28235632
1734432557880,2024-12-17T10:49:17.880Z,23499,-0.057174534,-0.005454138,-0.2791226
1734432557883,2024-12-17T10:49:17.883Z,23502,-0.057174534,-0.005454138,-0.2791226
1734432557893,2024-12-17T10:49:17.893Z,23512,-0.048109066,0.0066300575,-0.27305582
1734432557895,2024-12-17T10:49:17.895Z,23514,-0.048109066,0.0066300575,-0.27305582
1734432557906,2024-12-17T10:49:17.906Z,23525,-0.039859746,0.027403628,-0.2622796
1734432557909,2024-12-17T10:49:17.909Z,23528,-0.039859746,0.027403628,-0.2622796
1734432557917,2024-12-17T10:49:17.917Z,23536,-0.044652138,0.043681435,-0.26877484
1734432557919,2024-12-17T10:49:17.919Z,23538,-0.044652138,0.043681435,-0.26877484
1734432557930,2024-12-17T10:49:17.930Z,23549,-0.038574643,0.058430705,-0.2812166
1734432557933,2024-12-17T10:49:17.933Z,23552,-0.038574643,0.058430705,-0.2812166
1734432557941,2024-12-17T10:49:17.941Z,23560,-0.020240325,0.075089626,-0.28689185
1734432557944,2024-12-17T10:49:17.944Z,23563,-0.020240325,0.075089626,-0.28689185
1734432557955,2024-12-17T10:49:17.955Z,23574,-0.009773043,0.08930277,-0.28867823
1734432557958,2024-12-17T10:49:17.958Z,23577,-0.009773043,0.08930277,-0.28867823
1734432557965,2024-12-17T10:49:17.965Z,23584,-0.0057483977,0.10011856,-0.28994942
1734432557967,2024-12-17T10:49:17.967Z,23586,-0.0057483977,0.10011856,-0.28994942
1734432557975,2024-12-17T10:49:17.975Z,23594,0.007452214,0.11438145,-0.29166487
1734432557977,2024-12-17T10:49:17.977Z,23596,0.007452214,0.11438145,-0.29166487
1734432557983,2024-12-17T10:49:17.983Z,23602,0.008840425,0.12623109,-0.2835708
1734432557986,2024-12-17T10:49:17.986Z,23605,0.008840425,0.12623109,-0.2835708
1734432557994,2024-12-17T10:49:17.994Z,23613,0.0111290645,0.14540868,-0.2730496
1734432557997,2024-12-17T10:49:17.997Z,23616,0.0111290645,0.14540868,-0.2730496
1734432558005,2024-12-17T10:49:18.005Z,23624,0.02950746,0.16359311,-0.2781935
1734432558008,2024-12-17T10:49:18.008Z,23627,0.02950746,0.16359311,-0.2781935
1734432558017,2024-12-17T10:49:18.017Z,23636,0.03325839,0.17396799,-0.28916267
1734432558019,2024-12-17T10:49:18.019Z,23638,0.03325839,0.17396799,-0.28916267
1734432558025,2024-12-17T10:49:18.025Z,23644,0.038950905,0.18781811,-0.2989941
1734432558027,2024-12-17T10:49:18.027Z,23646,0.038950905,0.18781811,-0.2989941
1734432558034,2024-12-17T10:49:18.034Z,23653,0.04937123,0.19589525,-0.32233995
1734432558037,2024-12-17T10:49:18.037Z,23656,0.04937123,0.19589525,-0.32233995
1734432558044,2024-12-17T10:49:18.044Z,23663,0.0561466,0.20215538,-0.33469537
1734432558046,2024-12-17T10:49:18.046Z,23665,0.0561466,0.20215538,-0.33469537
1734432558053,2024-12-17T10:49:18.053Z,23672,0.05879068,0.21586052,-0.32877842
1734432558056,2024-12-17T10:49:18.056Z,23675,0.05879068,0.21586052,-0.32877842
1734432558063,2024-12-17T10:49:18.063Z,23682,0.061716683,0.23011634,-0.3174321
1734432558066,2024-12-17T10:49:18.066Z,23685,0.061716683,0.23011634,-0.3174321
1734432558074,2024-12-17T10:49:18.074Z,23693,0.075337514,0.24385501,-0.2920199
1734432558077,2024-12-17T10:49:18.077Z,23696,0.075337514,0.24385501,-0.2920199
1734432558084,2024-12-17T10:49:18.084Z,23703,0.074976064,0.252094,-0.24828584
1734432558086,2024-12-17T10:49:18.086Z,23705,0.074976064,0.252094,-0.24828584
1734432558093,2024-12-17T10:49:18.093Z,23712,0.060001973,0.27276915,-0.25961572
1734432558095,2024-12-17T10:49:18.095Z,23714,0.060001973,0.27276915,-0.25961572
1734432558102,2024-12-17T10:49:18.102Z,23721,0.0678729,0.28981608,-0.30007464
1734432558104,2024-12-17T10:49:18.104Z,23723,0.0678729,0.28981608,-0.30007464
1734432558112,2024-12-17T10:49:18.112Z,23731,0.07397322,0.2930873,-0.32896334
1734432558115,2024-12-17T10:49:18.115Z,23734,0.07397322,0.2930873,-0.32896334
1734432558122,2024-12-17T10:49:18.122Z,23741,0.071414135,0.29974034,-0.332456
1734432558125,2024-12-17T10:49:18.125Z,23744,0.071414135,0.29974034,-0.332456
1734432558131,2024-12-17T10:49:18.131Z,23750,0.06993894,0.31469715,-0.33096692
1734432558134,2024-12-17T10:49:18.134Z,23753,0.06993894,0.31469715,-0.33096692
1734432558142,2024-12-17T10:49:18.142Z,23761,0.07786446,0.3257648,-0.33616304
1734432558144,2024-12-17T10:49:18.144Z,23763,0.07786446,0.3257648,-0.33616304
1734432558152,2024-12-17T10:49:18.152Z,23771,0.09949075,0.33344662,-0.34269044
1734432558156,2024-12-17T10:49:18.156Z,23775,0.09949075,0.33344662,-0.34269044
1734432558163,2024-12-17T10:49:18.163Z,23782,0.09953239,0.34992373,-0.33410046
1734432558166,2024-12-17T10:49:18.166Z,23785,0.09953239,0.34992373,-0.33410046
1734432558173,2024-12-17T10:49:18.173Z,23792,0.09983978,0.35857886,-0.32370374
1734432558175,2024-12-17T10:49:18.175Z,23794,0.09983978,0.35857886,-0.32370374
1734432558183,2024-12-17T10:49:18.183Z,23802,0.09179396,0.34766594,-0.30121008
1734432558186,2024-12-17T10:49:18.186Z,23805,0.09179396,0.34766594,-0.30121008
1734432558192,2024-12-17T10:49:18.192Z,23811,0.08908925,0.33377987,-0.2999829
1734432558194,2024-12-17T10:49:18.194Z,23813,0.08908925,0.33377987,-0.2999829
1734432558201,2024-12-17T10:49:18.201Z,23820,0.092273675,0.33499616,-0.33507997
1734432558203,2024-12-17T10:49:18.203Z,23822,0.092273675,0.33499616,-0.33507997
1734432558211,2024-12-17T10:49:18.211Z,23830,0.11409045,0.34163535,-0.3425966
1734432558213,2024-12-17T10:49:18.213Z,23832,0.11409045,0.34163535,-0.3425966
1734432558222,2024-12-17T10:49:18.222Z,23841,0.12102744,0.33666444,-0.33968842
1734432558224,2024-12-17T10:49:18.224Z,23843,0.12102744,0.33666444,-0.33968842
1734432558230,2024-12-17T10:49:18.230Z,23849,0.101375505,0.32544205,-0.34689617
1734432558233,2024-12-17T10:49:18.233Z,23852,0.101375505,0.32544205,-0.34689617
1734432558240,2024-12-17T10:49:18.240Z,23859,0.06841403,0.30547312,-0.3491634
1734432558242,2024-12-17T10:49:18.242Z,23861,0.06841403,0.30547312,-0.3491634
1734432558250,2024-12-17T10:49:18.250Z,23869,0.05008064,0.27478305,-0.33914626
1734432558253,2024-12-17T10:49:18.253Z,23872,0.05008064,0.27478305,-0.33914626
1734432558260,2024-12-17T10:49:18.260Z,23879,0.06371299,0.26793516,-0.3213358
1734432558262,2024-12-17T10:49:18.262Z,23881,0.06371299,0.26793516,-0.3213358
1734432558269,2024-12-17T10:49:18.269Z,23888,0.068730064,0.2590293,-0.31437805
1734432558272,2024-12-17T10:49:18.272Z,23891,0.068730064,0.2590293,-0.31437805
1734432558279,2024-12-17T10:49:18.279Z,23898,0.04750784,0.22854774,-0.3231522
1734432558282,2024-12-17T10:49:18.282Z,23901,0.04750784,0.22854774,-0.3231522
1734432558291,2024-12-17T10:49:18.291Z,23910,0.0420008,0.20872593,-0.3183615
1734432558293,2024-12-17T10:49:18.293Z,23912,0.0420008,0.20872593,-0.3183615
1734432558302,2024-12-17T10:49:18.302Z,23921,0.040992707,0.17858103,-0.3297406
1734432558304,2024-12-17T10:49:18.304Z,23923,0.040992707,0.17858103,-0.3297406
1734432558312,2024-12-17T10:49:18.312Z,23931,0.02672574,0.14111412,-0.34747517
1734432558314,2024-12-17T10:49:18.314Z,23933,0.02672574,0.14111412,-0.34747517
1734432558321,2024-12-17T10:49:18.321Z,23940,0.02205126,0.10664354,-0.3675658
1734432558323,2024-12-17T10:49:18.323Z,23942,0.02205126,0.10664354,-0.3675658
1734432558331,2024-12-17T10:49:18.331Z,23950,0.012660948,0.07572679,-0.37481782
1734432558334,2024-12-17T10:49:18.334Z,23953,0.012660948,0.07572679,-0.37481782
1734432558346,2024-12-17T10:49:18.346Z,23965,0.003956256,0.04447391,-0.35500848
1734432558349,2024-12-17T10:49:18.349Z,23968,0.003956256,0.04447391,-0.35500848
1734432558358,2024-12-17T10:49:18.358Z,23977,-0.019139007,0.0070101987,-0.3296176
1734432558360,2024-12-17T10:49:18.360Z,23979,-0.019139007,0.0070101987,-0.3296176
1734432558367,2024-12-17T10:49:18.367Z,23986,-0.04620791,-0.028899979,-0.3250048
1734432558370,2024-12-17T10:49:18.370Z,23989,-0.04620791,-0.028899979,-0.3250048
1734432558378,2024-12-17T10:49:18.378Z,23997,-0.05978471,-0.046678513,-0.30422723
1734432558380,2024-12-17T10:49:18.380Z,23999,-0.05978471,-0.046678513,-0.30422723
1734432558389,2024-12-17T10:49:18.389Z,24008,-0.069453955,-0.07518415,-0.29997724
1734432558391,2024-12-17T10:49:18.391Z,24010,-0.069453955,-0.07518415,-0.29997724
1734432558397,2024-12-17T10:49:18.397Z,24016,-0.08838268,-0.10126103,-0.30890006
1734432558399,2024-12-17T10:49:18.399Z,24018,-0.08838268,-0.10126103,-0.30890006
1734432558406,2024-12-17T10:49:18.406Z,24025,-0.09033868,-0.12246483,-0.30376956
1734432558408,2024-12-17T10:49:18.408Z,24027,-0.09033868,-0.12246483,-0.30376956
1734432558414,2024-12-17T10:49:18.414Z,24033,-0.09913174,-0.14223938,-0.30799183
1734432558417,2024-12-17T10:49:18.417Z,24036,-0.09913174,-0.14223938,-0.30799183
1734432558425,2024-12-17T10:49:18.425Z,24044,-0.11417093,-0.1611239,-0.3201492
1734432558428,2024-12-17T10:49:18.428Z,24047,-0.11417093,-0.1611239,-0.3201492
1734432558438,2024-12-17T10:49:18.438Z,24057,-0.11837709,-0.16842176,-0.32280558
1734432558441,2024-12-17T10:49:18.441Z,24060,-0.11837709,-0.16842176,-0.32280558
1734432558447,2024-12-17T10:49:18.447Z,24066,-0.12837836,-0.17001137,-0.32092464
1734432558450,2024-12-17T10:49:18.450Z,24069,-0.12837836,-0.17001137,-0.32092464
1734432558458,2024-12-17T10:49:18.458Z,24077,-0.13149345,-0.16979665,-0.3081675
1734432558460,2024-12-17T10:49:18.460Z,24079,-0.13149345,-0.16979665,-0.3081675
1734432558469,2024-12-17T10:49:18.469Z,24088,-0.12732892,-0.15654276,-0.29633743
1734432558471,2024-12-17T10:49:18.471Z,24090,-0.12732892,-0.15654276,-0.29633743
1734432558478,2024-12-17T10:49:18.478Z,24097,-0.12224142,-0.14195162,-0.2966232
1734432558480,2024-12-17T10:49:18.480Z,24099,-0.12224142,-0.14195162,-0.2966232
1734432558487,2024-12-17T10:49:18.487Z,24106,-0.1138251,-0.12547716,-0.2869242
1734432558489,2024-12-17T10:49:18.489Z,24108,-0.1138251,-0.12547716,-0.2869242
1734432558495,2024-12-17T10:49:18.495Z,24114,-0.10844411,-0.11102878,-0.26872993
1734432558497,2024-12-17T10:49:18.497Z,24116,-0.10844411,-0.11102878,-0.26872993
1734432558504,2024-12-17T10:49:18.504Z,24123,-0.09739278,-0.08685349,-0.2596061
1734432558507,2024-12-17T10:49:18.507Z,24126,-0.09739278,-0.08685349,-0.2596061
1734432558515,2024-12-17T10:49:18.515Z,24134,-0.07927782,-0.058274332,-0.25949243
1734432558518,2024-12-17T10:49:18.518Z,24137,-0.07927782,-0.058274332,-0.25949243
1734432558526,2024-12-17T10:49:18.526Z,24145,-0.061443876,-0.04038707,-0.2697617
1734432558529,2024-12-17T10:49:18.529Z,24148,-0.061443876,-0.04038707,-0.2697617
1734432558538,2024-12-17T10:49:18.538Z,24157,-0.045835692,-0.024860114,-0.27030066
1734432558541,2024-12-17T10:49:18.541Z,24160,-0.045835692,-0.024860114,-0.27030066
1734432558549,2024-12-17T10:49:18.549Z,24168,-0.034868218,-0.0023804295,-0.268313
1734432558552,2024-12-17T10:49:18.552Z,24171,-0.034868218,-0.0023804295,-0.268313
1734432558558,2024-12-17T10:49:18.558Z,24177,-0.022573553,0.020718042,-0.26267338
1734432558560,2024-12-17T10:49:18.560Z,24179,-0.022573553,0.020718042,-0.26267338
1734432558568,2024-12-17T10:49:18.568Z,24187,-0.01909848,0.036582258,-0.25875935
1734432558570,2024-12-17T10:49:18.570Z,24189,-0.01909848,0.036582258,-0.25875935
1734432558578,2024-12-17T10:49:18.578Z,24197,-0.010265736,0.052045226,-0.26681796
1734432558581,2024-12-17T10:49:18.581Z,24200,-0.010265736,0.052045226,-0.26681796
1734432558590,2024-12-17T10:49:18.590Z,24209,0.0014873794,0.060759887,-0.27561525
1734432558593,2024-12-17T10:49:18.593Z,24212,0.0014873794,0.060759887,-0.27561525
1734432558601,2024-12-17T10:49:18.601Z,24220,5.109881E-4,0.068097904,-0.27785298
1734432558603,2024-12-17T10:49:18.603Z,24222,5.109881E-4,0.068097904,-0.27785298
1734432558610,2024-12-17T10:49:18.610Z,24229,0.005308048,0.07650502,-0.27699313
1734432558612,2024-12-17T10:49:18.612Z,24231,0.005308048,0.07650502,-0.27699313
1734432558621,2024-12-17T10:49:18.621Z,24240,0.017781185,0.08842399,-0.2706444
1734432558623,2024-12-17T10:49:18.623Z,24242,0.017781185,0.08842399,-0.2706444
1734432558629,2024-12-17T10:49:18.629Z,24248,0.020379158,0.098450325,-0.26424286
1734432558631,2024-12-17T10:49:18.631Z,24250,0.020379158,0.098450325,-0.26424286
1734432558640,2024-12-17T10:49:18.640Z,24259,0.027714238,0.09974596,-0.26613447
1734432558642,2024-12-17T10:49:18.642Z,24261,0.027714238,0.09974596,-0.26613447
1734432558649,2024-12-17T10:49:18.649Z,24268,0.0412642,0.10158219,-0.26704505
1734432558652,2024-12-17T10:49:18.652Z,24271,0.0412642,0.10158219,-0.26704505
1734432558661,2024-12-17T10:49:18.661Z,24280,0.041061874,0.1049386,-0.2683761
1734432558664,2024-12-17T10:49:18.664Z,24283,0.041061874,0.1049386,-0.2683761
1734432558671,2024-12-17T10:49:18.671Z,24290,0.026700187,0.10829773,-0.26091003
1734432558674,2024-12-17T10:49:18.674Z,24293,0.026700187,0.10829773,-0.26091003
1734432558680,2024-12-17T10:49:18.680Z,24299,0.025545953,0.10280683,-0.26139817
1734432558683,2024-12-17T10:49:18.683Z,24302,0.025545953,0.10280683,-0.26139817
1734432558690,2024-12-17T10:49:18.690Z,24309,0.03100189,0.10682258,-0.26374584
1734432558693,2024-12-17T10:49:18.693Z,24312,0.03100189,0.10682258,-0.26374584
1734432558699,2024-12-17T10:49:18.699Z,24318,0.044420056,0.10747297,-0.2666079
1734432558702,2024-12-17T10:49:18.702Z,24321,0.044420056,0.10747297,-0.2666079
1734432558709,2024-12-17T10:49:18.709Z,24328,0.039978996,0.109557085,-0.25015378
1734432558711,2024-12-17T10:49:18.711Z,24330,0.039978996,0.109557085,-0.25015378
1734432558719,2024-12-17T10:49:18.719Z,24338,0.03061538,0.11589229,-0.23740791
1734432558722,2024-12-17T10:49:18.722Z,24341,0.03061538,0.11589229,-0.23740791
1734432558729,2024-12-17T10:49:18.729Z,24348,0.040045004,0.11532952,-0.23522943
1734432558731,2024-12-17T10:49:18.731Z,24350,0.040045004,0.11532952,-0.23522943
1734432558738,2024-12-17T10:49:18.738Z,24357,0.03560183,0.11467543,-0.22610147
1734432558740,2024-12-17T10:49:18.740Z,24359,0.03560183,0.11467543,-0.22610147
1734432558747,2024-12-17T10:49:18.747Z,24366,0.01708409,0.1109345,-0.22211084
1734432558749,2024-12-17T10:49:18.749Z,24368,0.01708409,0.1109345,-0.22211084
1734432558759,2024-12-17T10:49:18.759Z,24378,0.0045783008,0.123441145,-0.23514993
1734432558762,2024-12-17T10:49:18.762Z,24381,0.0045783008,0.123441145,-0.23514993
1734432558770,2024-12-17T10:49:18.770Z,24389,0.036139924,0.12570989,-0.2546341
1734432558773,2024-12-17T10:49:18.773Z,24392,0.036139924,0.12570989,-0.2546341
1734432558783,2024-12-17T10:49:18.783Z,24402,0.044672854,0.12796612,-0.26106477
1734432558786,2024-12-17T10:49:18.786Z,24405,0.044672854,0.12796612,-0.26106477
1734432558795,2024-12-17T10:49:18.795Z,24414,0.019494642,0.13460349,-0.2582763
1734432558800,2024-12-17T10:49:18.800Z,24419,0.019494642,0.13460349,-0.2582763
1734432558812,2024-12-17T10:49:18.812Z,24431,0.014764489,0.14269118,-0.26194608
1734432558814,2024-12-17T10:49:18.814Z,24433,0.014764489,0.14269118,-0.26194608
1734432558821,2024-12-17T10:49:18.821Z,24440,0.027126715,0.14732961,-0.25886357
1734432558823,2024-12-17T10:49:18.823Z,24442,0.027126715,0.14732961,-0.25886357
1734432558830,2024-12-17T10:49:18.830Z,24449,0.03248791,0.14862582,-0.24661551
1734432558832,2024-12-17T10:49:18.832Z,24451,0.03248791,0.14862582,-0.24661551
1734432558839,2024-12-17T10:49:18.839Z,24458,0.044559512,0.1630142,-0.24301791
1734432558841,2024-12-17T10:49:18.841Z,24460,0.044559512,0.1630142,-0.24301791
1734432558849,2024-12-17T10:49:18.849Z,24468,0.04092427,0.16661957,-0.24444334
1734432558852,2024-12-17T10:49:18.852Z,24471,0.04092427,0.16661957,-0.24444334
1734432558860,2024-12-17T10:49:18.860Z,24479,0.06519564,0.17909148,-0.23823762
1734432558863,2024-12-17T10:49:18.863Z,24482,0.06519564,0.17909148,-0.23823762
1734432558872,2024-12-17T10:49:18.872Z,24491,0.08210284,0.18667443,-0.2332455
1734432558875,2024-12-17T10:49:18.875Z,24494,0.08210284,0.18667443,-0.2332455
1734432558881,2024-12-17T10:49:18.881Z,24500,0.13271263,0.23135003,-0.253184
1734432558883,2024-12-17T10:49:18.883Z,24502,0.13271263,0.23135003,-0.253184
1734432558890,2024-12-17T10:49:18.890Z,24509,0.12351848,0.241331,-0.25023374
1734432558893,2024-12-17T10:49:18.893Z,24512,0.12351848,0.241331,-0.25023374
1734432558900,2024-12-17T10:49:18.900Z,24519,0.16456547,0.24896534,-0.2620759
1734432558903,2024-12-17T10:49:18.903Z,24522,0.16456547,0.24896534,-0.2620759
1734432558910,2024-12-17T10:49:18.910Z,24529,0.13803664,0.24786012,-0.2530398
1734432558913,2024-12-17T10:49:18.913Z,24532,0.13803664,0.24786012,-0.2530398
1734432558921,2024-12-17T10:49:18.921Z,24540,0.10601977,0.2516692,-0.24548972
1734432558924,2024-12-17T10:49:18.924Z,24543,0.10601977,0.2516692,-0.24548972
1734432558930,2024-12-17T10:49:18.930Z,24549,0.1086644,0.24667972,-0.25505513
1734432558932,2024-12-17T10:49:18.932Z,24551,0.1086644,0.24667972,-0.25505513
1734432558939,2024-12-17T10:49:18.939Z,24558,0.13076669,0.24999373,-0.2651689
1734432558942,2024-12-17T10:49:18.942Z,24561,0.13076669,0.24999373,-0.2651689
1734432558949,2024-12-17T10:49:18.949Z,24568,0.13748746,0.24117939,-0.2547826
1734432558951,2024-12-17T10:49:18.951Z,24570,0.13748746,0.24117939,-0.2547826
1734432558958,2024-12-17T10:49:18.958Z,24577,0.1280643,0.22653675,-0.2531005
1734432558960,2024-12-17T10:49:18.960Z,24579,0.1280643,0.22653675,-0.2531005
1734432558966,2024-12-17T10:49:18.966Z,24585,0.120198816,0.22601755,-0.2592276
1734432558968,2024-12-17T10:49:18.968Z,24587,0.120198816,0.22601755,-0.2592276
1734432558976,2024-12-17T10:49:18.976Z,24595,0.14399624,0.22113512,-0.25213686
1734432558978,2024-12-17T10:49:18.978Z,24597,0.14399624,0.22113512,-0.25213686
1734432558986,2024-12-17T10:49:18.986Z,24605,0.14633828,0.20603178,-0.2385433
1734432558988,2024-12-17T10:49:18.988Z,24607,0.14633828,0.20603178,-0.2385433
1734432558997,2024-12-17T10:49:18.997Z,24616,0.09369416,0.19869775,-0.21851856
1734432558999,2024-12-17T10:49:18.999Z,24618,0.09369416,0.19869775,-0.21851856
1734432559005,2024-12-17T10:49:19.005Z,24624,0.079874314,0.1912581,-0.21710594
1734432559008,2024-12-17T10:49:19.008Z,24627,0.079874314,0.1912581,-0.21710594
1734432559017,2024-12-17T10:49:19.017Z,24636,0.098999076,0.1749394,-0.22207241
1734432559020,2024-12-17T10:49:19.020Z,24639,0.098999076,0.1749394,-0.22207241
1734432559027,2024-12-17T10:49:19.027Z,24646,0.09239977,0.15809396,-0.23284893
1734432559030,2024-12-17T10:49:19.030Z,24649,0.09239977,0.15809396,-0.23284893
1734432559038,2024-12-17T10:49:19.038Z,24657,0.06937613,0.13687606,-0.25312847
1734432559041,2024-12-17T10:49:19.041Z,24660,0.06937613,0.13687606,-0.25312847
1734432559048,2024-12-17T10:49:19.048Z,24667,0.08162861,0.10886079,-0.26143566
1734432559050,2024-12-17T10:49:19.050Z,24669,0.08162861,0.10886079,-0.26143566
1734432559057,2024-12-17T10:49:19.057Z,24676,0.07681628,0.08487732,-0.26540738
1734432559059,2024-12-17T10:49:19.059Z,24678,0.07681628,0.08487732,-0.26540738
1734432559066,2024-12-17T10:49:19.066Z,24685,0.051865365,0.062048223,-0.2552597
1734432559068,2024-12-17T10:49:19.068Z,24687,0.051865365,0.062048223,-0.2552597
1734432559075,2024-12-17T10:49:19.075Z,24694,0.050243955,0.049595166,-0.22968823
1734432559077,2024-12-17T10:49:19.077Z,24696,0.050243955,0.049595166,-0.22968823
1734432559084,2024-12-17T10:49:19.084Z,24703,0.04083322,0.021567306,-0.21905446
1734432559086,2024-12-17T10:49:19.086Z,24705,0.04083322,0.021567306,-0.21905446
1734432559094,2024-12-17T10:49:19.094Z,24713,0.010600074,0.010099856,-0.20201229
1734432559096,2024-12-17T10:49:19.096Z,24715,0.010600074,0.010099856,-0.20201229
1734432559103,2024-12-17T10:49:19.103Z,24722,0.005056735,-0.003416993,-0.21183781
1734432559105,2024-12-17T10:49:19.105Z,24724,0.005056735,-0.003416993,-0.21183781
1734432559113,2024-12-17T10:49:19.113Z,24732,-0.026934553,-0.020003272,-0.21631135
1734432559115,2024-12-17T10:49:19.115Z,24734,-0.026934553,-0.020003272,-0.21631135
1734432559122,2024-12-17T10:49:19.122Z,24741,-0.032717,-0.024523832,-0.20185171
1734432559125,2024-12-17T10:49:19.125Z,24744,-0.032717,-0.024523832,-0.20185171
1734432559135,2024-12-17T10:49:19.135Z,24754,-0.032473344,-0.03794849,-0.20907323
1734432559138,2024-12-17T10:49:19.138Z,24757,-0.032473344,-0.03794849,-0.20907323
1734432559144,2024-12-17T10:49:19.144Z,24763,-0.052652612,-0.049009543,-0.21694759
1734432559146,2024-12-17T10:49:19.146Z,24765,-0.052652612,-0.049009543,-0.21694759
1734432559152,2024-12-17T10:49:19.152Z,24771,-0.052287083,-0.06744586,-0.20444134
1734432559155,2024-12-17T10:49:19.155Z,24774,-0.052287083,-0.06744586,-0.20444134
1734432559162,2024-12-17T10:49:19.162Z,24781,-0.08362844,-0.07954416,-0.1968131
1734432559164,2024-12-17T10:49:19.164Z,24783,-0.08362844,-0.07954416,-0.1968131
1734432559172,2024-12-17T10:49:19.172Z,24791,-0.08370762,-0.088212624,-0.2062192
1734432559174,2024-12-17T10:49:19.174Z,24793,-0.08370762,-0.088212624,-0.2062192
1734432559180,2024-12-17T10:49:19.180Z,24799,-0.06397013,-0.109964505,-0.21648031
1734432559182,2024-12-17T10:49:19.182Z,24801,-0.06397013,-0.109964505,-0.21648031
1734432559189,2024-12-17T10:49:19.189Z,24808,-0.07334685,-0.12277145,-0.20359555
1734432559192,2024-12-17T10:49:19.192Z,24811,-0.07334685,-0.12277145,-0.20359555
1734432559207,2024-12-17T10:49:19.207Z,24826,-0.10315123,-0.13006638,-0.16723534
1734432559210,2024-12-17T10:49:19.210Z,24829,-0.10315123,-0.13006638,-0.16723534
1734432559218,2024-12-17T10:49:19.218Z,24837,-0.09619413,-0.12896496,-0.16266182
1734432559221,2024-12-17T10:49:19.221Z,24840,-0.09619413,-0.12896496,-0.16266182
1734432559228,2024-12-17T10:49:19.228Z,24847,-0.08959155,-0.12384759,-0.17078634
1734432559231,2024-12-17T10:49:19.231Z,24850,-0.08959155,-0.12384759,-0.17078634
1734432559239,2024-12-17T10:49:19.239Z,24858,-0.09708684,-0.13567592,-0.17837912
1734432559241,2024-12-17T10:49:19.241Z,24860,-0.09708684,-0.13567592,-0.17837912
1734432559248,2024-12-17T10:49:19.248Z,24867,-0.12151664,-0.14837386,-0.18399404
1734432559250,2024-12-17T10:49:19.250Z,24869,-0.12151664,-0.14837386,-0.18399404
1734432559257,2024-12-17T10:49:19.257Z,24876,-0.12037069,-0.15267211,-0.1934754
1734432559259,2024-12-17T10:49:19.259Z,24878,-0.12037069,-0.15267211,-0.1934754
1734432559266,2024-12-17T10:49:19.266Z,24885,-0.11458511,-0.1617987,-0.17370234
1734432559268,2024-12-17T10:49:19.268Z,24887,-0.11458511,-0.1617987,-0.17370234
1734432559275,2024-12-17T10:49:19.275Z,24894,-0.100197114,-0.1660002,-0.1695723
1734432559277,2024-12-17T10:49:19.277Z,24896,-0.100197114,-0.1660002,-0.1695723
1734432559283,2024-12-17T10:49:19.283Z,24902,-0.080790676,-0.17010191,-0.17665723
1734432559286,2024-12-17T10:49:19.286Z,24905,-0.080790676,-0.17010191,-0.17665723
1734432559293,2024-12-17T10:49:19.293Z,24912,-0.082290016,-0.18532342,-0.16126134
1734432559295,2024-12-17T10:49:19.295Z,24914,-0.082290016,-0.18532342,-0.16126134
1734432559302,2024-12-17T10:49:19.302Z,24921,-0.08992744,-0.19901434,-0.14586325
1734432559304,2024-12-17T10:49:19.304Z,24923,-0.08992744,-0.19901434,-0.14586325
1734432559312,2024-12-17T10:49:19.312Z,24931,-0.0767558,-0.20388499,-0.16124111
1734432559314,2024-12-17T10:49:19.314Z,24933,-0.0767558,-0.20388499,-0.16124111
1734432559322,2024-12-17T10:49:19.322Z,24941,-0.06531524,-0.21359362,-0.16103089
1734432559325,2024-12-17T10:49:19.325Z,24944,-0.06531524,-0.21359362,-0.16103089
1734432559333,2024-12-17T10:49:19.333Z,24952,-0.06826998,-0.2237598,-0.15500627
1734432559337,2024-12-17T10:49:19.337Z,24956,-0.06826998,-0.2237598,-0.15500627
1734432559345,2024-12-17T10:49:19.345Z,24964,-0.047789328,-0.21926618,-0.15031353
1734432559347,2024-12-17T10:49:19.347Z,24966,-0.047789328,-0.21926618,-0.15031353
1734432559356,2024-12-17T10:49:19.356Z,24975,-0.03655685,-0.22355616,-0.15621956
1734432559359,2024-12-17T10:49:19.359Z,24978,-0.03655685,-0.22355616,-0.15621956
1734432559367,2024-12-17T10:49:19.367Z,24986,-0.016953778,-0.2380871,-0.17070137
1734432559370,2024-12-17T10:49:19.370Z,24989,-0.016953778,-0.2380871,-0.17070137
1734432559379,2024-12-17T10:49:19.379Z,24998,0.014375911,-0.24523121,-0.18581808
1734432559382,2024-12-17T10:49:19.382Z,25001,0.014375911,-0.24523121,-0.18581808
1734432559390,2024-12-17T10:49:19.390Z,25009,-0.010380732,-0.25868776,-0.17670695
1734432559393,2024-12-17T10:49:19.393Z,25012,-0.010380732,-0.25868776,-0.17670695
1734432559400,2024-12-17T10:49:19.400Z,25019,-0.0460077,-0.2634528,-0.15482391
1734432559402,2024-12-17T10:49:19.402Z,25021,-0.0460077,-0.2634528,-0.15482391
1734432559410,2024-12-17T10:49:19.410Z,25029,-0.023046322,-0.26937628,-0.12674862
1734432559412,2024-12-17T10:49:19.412Z,25031,-0.023046322,-0.26937628,-0.12674862
1734432559419,2024-12-17T10:49:19.419Z,25038,-0.024516221,-0.27508414,-0.09874089
1734432559421,2024-12-17T10:49:19.421Z,25040,-0.024516221,-0.27508414,-0.09874089
1734432559429,2024-12-17T10:49:19.429Z,25048,-0.018980518,-0.26694214,-0.08691724
1734432559431,2024-12-17T10:49:19.431Z,25050,-0.018980518,-0.26694214,-0.08691724
1734432559438,2024-12-17T10:49:19.438Z,25057,-0.012382089,-0.25467095,-0.11610995
1734432559441,2024-12-17T10:49:19.441Z,25060,-0.012382089,-0.25467095,-0.11610995
1734432559448,2024-12-17T10:49:19.448Z,25067,0.0017617639,-0.2645412,-0.14624424
1734432559452,2024-12-17T10:49:19.452Z,25071,0.0017617639,-0.2645412,-0.14624424
1734432559459,2024-12-17T10:49:19.459Z,25078,0.031439383,-0.2739152,-0.18960428
1734432559461,2024-12-17T10:49:19.461Z,25080,0.031439383,-0.2739152,-0.18960428
1734432559468,2024-12-17T10:49:19.468Z,25087,0.07646956,-0.26893342,-0.21044935
1734432559471,2024-12-17T10:49:19.471Z,25090,0.07646956,-0.26893342,-0.21044935
1734432559478,2024-12-17T10:49:19.478Z,25097,0.056850065,-0.26569942,-0.16764222
1734432559480,2024-12-17T10:49:19.480Z,25099,0.056850065,-0.26569942,-0.16764222
1734432559488,2024-12-17T10:49:19.488Z,25107,0.019705608,-0.27752367,-0.15031633
1734432559490,2024-12-17T10:49:19.490Z,25109,0.019705608,-0.27752367,-0.15031633
1734432559496,2024-12-17T10:49:19.496Z,25115,0.017461617,-0.27911428,-0.14161654
1734432559498,2024-12-17T10:49:19.498Z,25117,0.017461617,-0.27911428,-0.14161654
1734432559507,2024-12-17T10:49:19.507Z,25126,3.6163995E-4,-0.2714945,-0.11435017
1734432559509,2024-12-17T10:49:19.509Z,25128,3.6163995E-4,-0.2714945,-0.11435017
1734432559515,2024-12-17T10:49:19.515Z,25134,-0.004769903,-0.2664429,-0.12544097
1734432559518,2024-12-17T10:49:19.518Z,25137,-0.004769903,-0.2664429,-0.12544097
1734432559525,2024-12-17T10:49:19.525Z,25144,0.025143445,-0.2829107,-0.17289487
1734432559527,2024-12-17T10:49:19.527Z,25146,0.025143445,-0.2829107,-0.17289487
1734432559533,2024-12-17T10:49:19.533Z,25152,-3.203826E-4,-0.30761126,-0.20216142
1734432559535,2024-12-17T10:49:19.535Z,25154,-3.203826E-4,-0.30761126,-0.20216142
1734432559543,2024-12-17T10:49:19.543Z,25162,-0.009714293,-0.31462136,-0.19581002
1734432559545,2024-12-17T10:49:19.545Z,25164,-0.009714293,-0.31462136,-0.19581002
1734432559551,2024-12-17T10:49:19.551Z,25170,-0.034965027,-0.32455453,-0.1603513
1734432559553,2024-12-17T10:49:19.553Z,25172,-0.034965027,-0.32455453,-0.1603513
1734432559561,2024-12-17T10:49:19.561Z,25180,-0.03632838,-0.32725734,-0.153171
1734432559563,2024-12-17T10:49:19.563Z,25182,-0.03632838,-0.32725734,-0.153171
1734432559570,2024-12-17T10:49:19.570Z,25189,-0.028493265,-0.33450598,-0.15356952
1734432559572,2024-12-17T10:49:19.572Z,25191,-0.028493265,-0.33450598,-0.15356952
1734432559579,2024-12-17T10:49:19.579Z,25198,-0.036269058,-0.33997324,-0.14398226
1734432559581,2024-12-17T10:49:19.581Z,25200,-0.036269058,-0.33997324,-0.14398226
1734432559589,2024-12-17T10:49:19.589Z,25208,-0.0534856,-0.34361508,-0.14196795
1734432559591,2024-12-17T10:49:19.591Z,25210,-0.0534856,-0.34361508,-0.14196795
1734432559599,2024-12-17T10:49:19.599Z,25218,-0.036397766,-0.3453732,-0.14648128
1734432559602,2024-12-17T10:49:19.602Z,25221,-0.036397766,-0.3453732,-0.14648128
1734432559610,2024-12-17T10:49:19.610Z,25229,-0.04038092,-0.349097,-0.14721124
1734432559612,2024-12-17T10:49:19.612Z,25231,-0.04038092,-0.349097,-0.14721124
1734432559620,2024-12-17T10:49:19.620Z,25239,-0.057514656,-0.34211144,-0.12705229
1734432559622,2024-12-17T10:49:19.622Z,25241,-0.057514656,-0.34211144,-0.12705229
1734432559629,2024-12-17T10:49:19.629Z,25248,-0.06713695,-0.34348708,-0.13188268
1734432559632,2024-12-17T10:49:19.632Z,25251,-0.06713695,-0.34348708,-0.13188268
1734432559640,2024-12-17T10:49:19.640Z,25259,-0.056017116,-0.32688165,-0.13295968
1734432559642,2024-12-17T10:49:19.642Z,25261,-0.056017116,-0.32688165,-0.13295968
1734432559651,2024-12-17T10:49:19.651Z,25270,-0.069626495,-0.31087604,-0.11923602
1734432559657,2024-12-17T10:49:19.657Z,25276,-0.069626495,-0.31087604,-0.11923602
1734432559664,2024-12-17T10:49:19.664Z,25283,-0.06585384,-0.2906207,-0.11760065
1734432559667,2024-12-17T10:49:19.667Z,25286,-0.06585384,-0.2906207,-0.11760065
1734432559674,2024-12-17T10:49:19.674Z,25293,-0.04778755,-0.27734903,-0.13066262
1734432559676,2024-12-17T10:49:19.676Z,25295,-0.04778755,-0.27734903,-0.13066262
1734432559683,2024-12-17T10:49:19.683Z,25302,-0.024874993,-0.2675946,-0.13932502
1734432559685,2024-12-17T10:49:19.685Z,25304,-0.024874993,-0.2675946,-0.13932502
1734432559692,2024-12-17T10:49:19.692Z,25311,-0.027033163,-0.25346994,-0.14776823
1734432559694,2024-12-17T10:49:19.694Z,25313,-0.027033163,-0.25346994,-0.14776823
1734432559701,2024-12-17T10:49:19.701Z,25320,-0.0040369714,-0.24223462,-0.14844078
1734432559704,2024-12-17T10:49:19.704Z,25323,-0.0040369714,-0.24223462,-0.14844078
1734432559712,2024-12-17T10:49:19.712Z,25331,-0.005265575,-0.23385186,-0.1534507
1734432559714,2024-12-17T10:49:19.714Z,25333,-0.005265575,-0.23385186,-0.1534507
1734432559721,2024-12-17T10:49:19.721Z,25340,0.002973519,-0.23173207,-0.15348972
1734432559723,2024-12-17T10:49:19.723Z,25342,0.002973519,-0.23173207,-0.15348972
1734432559729,2024-12-17T10:49:19.729Z,25348,0.007123468,-0.21879365,-0.15238954
1734432559731,2024-12-17T10:49:19.731Z,25350,0.007123468,-0.21879365,-0.15238954
1734432559737,2024-12-17T10:49:19.737Z,25356,0.008588335,-0.20089987,-0.13314158
1734432559740,2024-12-17T10:49:19.740Z,25359,0.008588335,-0.20089987,-0.13314158
1734432559747,2024-12-17T10:49:19.747Z,25366,3.6059454E-4,-0.18940257,-0.1252637
1734432559749,2024-12-17T10:49:19.749Z,25368,3.6059454E-4,-0.18940257,-0.1252637
1734432559757,2024-12-17T10:49:19.757Z,25376,0.009203086,-0.18084039,-0.14818747
1734432559760,2024-12-17T10:49:19.760Z,25379,0.009203086,-0.18084039,-0.14818747
1734432559767,2024-12-17T10:49:19.767Z,25386,0.024339838,-0.16736692,-0.15980288
1734432559769,2024-12-17T10:49:19.769Z,25388,0.024339838,-0.16736692,-0.15980288
1734432559777,2024-12-17T10:49:19.777Z,25396,0.018291116,-0.16361159,-0.15918867
1734432559779,2024-12-17T10:49:19.779Z,25398,0.018291116,-0.16361159,-0.15918867
1734432559786,2024-12-17T10:49:19.786Z,25405,0.005283663,-0.16277109,-0.16643919
1734432559788,2024-12-17T10:49:19.788Z,25407,0.005283663,-0.16277109,-0.16643919
1734432559796,2024-12-17T10:49:19.796Z,25415,0.0024790145,-0.16778643,-0.16786088
1734432559798,2024-12-17T10:49:19.798Z,25417,0.0024790145,-0.16778643,-0.16786088
1734432559806,2024-12-17T10:49:19.806Z,25425,0.010400728,-0.16105856,-0.17016377
1734432559808,2024-12-17T10:49:19.808Z,25427,0.010400728,-0.16105856,-0.17016377
1734432559813,2024-12-17T10:49:19.813Z,25432,0.0071277227,-0.15186475,-0.14937249
1734432559816,2024-12-17T10:49:19.816Z,25435,0.0071277227,-0.15186475,-0.14937249
1734432559823,2024-12-17T10:49:19.823Z,25442,-0.010421721,-0.1464182,-0.12081798
1734432559825,2024-12-17T10:49:19.825Z,25444,-0.010421721,-0.1464182,-0.12081798
1734432559831,2024-12-17T10:49:19.831Z,25450,-0.023575569,-0.14849356,-0.1321381
1734432559833,2024-12-17T10:49:19.833Z,25452,-0.023575569,-0.14849356,-0.1321381
1734432559840,2024-12-17T10:49:19.840Z,25459,-0.010345455,-0.13851187,-0.13476829
1734432559842,2024-12-17T10:49:19.842Z,25461,-0.010345455,-0.13851187,-0.13476829
1734432559848,2024-12-17T10:49:19.848Z,25467,-0.023448272,-0.13589308,-0.13557447
1734432559850,2024-12-17T10:49:19.850Z,25469,-0.023448272,-0.13589308,-0.13557447
1734432559856,2024-12-17T10:49:19.856Z,25475,-0.03640539,-0.13577454,-0.14723057
1734432559858,2024-12-17T10:49:19.858Z,25477,-0.03640539,-0.13577454,-0.14723057
1734432559864,2024-12-17T10:49:19.864Z,25483,-0.037488,-0.13606569,-0.16043131
1734432559866,2024-12-17T10:49:19.866Z,25485,-0.037488,-0.13606569,-0.16043131
1734432559873,2024-12-17T10:49:19.873Z,25492,-0.030119708,-0.13781995,-0.15876484
1734432559876,2024-12-17T10:49:19.876Z,25495,-0.030119708,-0.13781995,-0.15876484
1734432559883,2024-12-17T10:49:19.883Z,25502,-0.036382753,-0.13517793,-0.15307651
1734432559886,2024-12-17T10:49:19.886Z,25505,-0.036382753,-0.13517793,-0.15307651
1734432559894,2024-12-17T10:49:19.894Z,25513,-0.055910215,-0.13068761,-0.14542255
1734432559896,2024-12-17T10:49:19.896Z,25515,-0.055910215,-0.13068761,-0.14542255
1734432559903,2024-12-17T10:49:19.903Z,25522,-0.061288062,-0.13557984,-0.1459813
1734432559905,2024-12-17T10:49:19.905Z,25524,-0.061288062,-0.13557984,-0.1459813
1734432559911,2024-12-17T10:49:19.911Z,25530,-0.043502696,-0.13123472,-0.14298809
1734432559913,2024-12-17T10:49:19.913Z,25532,-0.043502696,-0.13123472,-0.14298809
1734432559919,2024-12-17T10:49:19.919Z,25538,-0.037431594,-0.120092176,-0.12983261
1734432559922,2024-12-17T10:49:19.922Z,25541,-0.037431594,-0.120092176,-0.12983261
1734432559930,2024-12-17T10:49:19.930Z,25549,-0.04349878,-0.10998629,-0.12413049
1734432559933,2024-12-17T10:49:19.933Z,25552,-0.04349878,-0.10998629,-0.12413049
1734432559942,2024-12-17T10:49:19.942Z,25561,-0.03931156,-0.1028063,-0.13540375
1734432559945,2024-12-17T10:49:19.945Z,25564,-0.03931156,-0.1028063,-0.13540375
1734432559951,2024-12-17T10:49:19.951Z,25570,-0.023147022,-0.10044862,-0.13482335
1734432559953,2024-12-17T10:49:19.953Z,25572,-0.023147022,-0.10044862,-0.13482335
1734432559960,2024-12-17T10:49:19.960Z,25579,-0.025657935,-0.094650134,-0.13123888
1734432559962,2024-12-17T10:49:19.962Z,25581,-0.025657935,-0.094650134,-0.13123888
1734432559968,2024-12-17T10:49:19.968Z,25587,-0.025300257,-0.09080603,-0.11884427
1734432559970,2024-12-17T10:49:19.970Z,25589,-0.025300257,-0.09080603,-0.11884427
1734432559979,2024-12-17T10:49:19.979Z,25598,-0.015318339,-0.07914165,-0.11332286
1734432559980,2024-12-17T10:49:19.980Z,25599,-0.015318339,-0.07914165,-0.11332286
1734432559987,2024-12-17T10:49:19.987Z,25606,-0.01130619,-0.06563599,-0.1040026
1734432559990,2024-12-17T10:49:19.990Z,25609,-0.01130619,-0.06563599,-0.1040026
1734432559997,2024-12-17T10:49:19.997Z,25616,-0.0057487744,-0.059956424,-0.10342929
1734432559999,2024-12-17T10:49:19.999Z,25618,-0.0057487744,-0.059956424,-0.10342929
1734432560006,2024-12-17T10:49:20.006Z,25625,-0.0015607043,-0.04111896,-0.105791606
1734432560009,2024-12-17T10:49:20.009Z,25628,-0.0015607043,-0.04111896,-0.105791606
1734432560018,2024-12-17T10:49:20.018Z,25637,3.2599864E-4,-0.028673878,-0.09599418
1734432560021,2024-12-17T10:49:20.021Z,25640,3.2599864E-4,-0.028673878,-0.09599418
1734432560029,2024-12-17T10:49:20.029Z,25648,0.0028657443,-0.018733509,-0.099500865
1734432560032,2024-12-17T10:49:20.032Z,25651,0.0028657443,-0.018733509,-0.099500865
1734432560044,2024-12-17T10:49:20.044Z,25663,0.013328991,-0.0034773839,-0.108033486
1734432560047,2024-12-17T10:49:20.047Z,25666,0.013328991,-0.0034773839,-0.108033486
1734432560054,2024-12-17T10:49:20.054Z,25673,0.015054359,0.004902257,-0.10401675
1734432560056,2024-12-17T10:49:20.056Z,25675,0.015054359,0.004902257,-0.10401675
1734432560063,2024-12-17T10:49:20.063Z,25682,0.011490766,0.012751315,-0.092781454
1734432560065,2024-12-17T10:49:20.065Z,25684,0.011490766,0.012751315,-0.092781454
1734432560071,2024-12-17T10:49:20.071Z,25690,0.012914448,0.027867207,-0.08805296
1734432560073,2024-12-17T10:49:20.073Z,25692,0.012914448,0.027867207,-0.08805296
1734432560079,2024-12-17T10:49:20.079Z,25698,0.025564237,0.04102842,-0.07940907
1734432560081,2024-12-17T10:49:20.081Z,25700,0.025564237,0.04102842,-0.07940907
1734432560087,2024-12-17T10:49:20.087Z,25706,0.026000975,0.057090633,-0.07433472
1734432560090,2024-12-17T10:49:20.090Z,25709,0.026000975,0.057090633,-0.07433472
1734432560098,2024-12-17T10:49:20.098Z,25717,0.01614351,0.06727879,-0.07621655
1734432560101,2024-12-17T10:49:20.101Z,25720,0.01614351,0.06727879,-0.07621655
1734432560110,2024-12-17T10:49:20.110Z,25729,0.019909088,0.0789279,-0.09184158
1734432560112,2024-12-17T10:49:20.112Z,25731,0.019909088,0.0789279,-0.09184158
1734432560119,2024-12-17T10:49:20.119Z,25738,0.014378902,0.09156621,-0.104471214
1734432560121,2024-12-17T10:49:20.121Z,25740,0.014378902,0.09156621,-0.104471214
1734432560130,2024-12-17T10:49:20.130Z,25749,0.025391476,0.10569183,-0.10190282
1734432560132,2024-12-17T10:49:20.132Z,25751,0.025391476,0.10569183,-0.10190282
1734432560142,2024-12-17T10:49:20.142Z,25761,0.030004615,0.11837089,-0.099775895
1734432560144,2024-12-17T10:49:20.144Z,25763,0.030004615,0.11837089,-0.099775895
1734432560150,2024-12-17T10:49:20.150Z,25769,0.027272975,0.12912941,-0.10187267
1734432560153,2024-12-17T10:49:20.153Z,25772,0.027272975,0.12912941,-0.10187267
1734432560160,2024-12-17T10:49:20.160Z,25779,0.029384928,0.14432763,-0.10521856
