Timestamp (ms),ISO DateTime,Elapsed Time (ms),Acceleration X,Acceleration Y,Acceleration Z
1732440782763,2024-11-24T09:33:02.763Z,90732,-0.29920176,-0.5879895,-0.98986006
1732440782770,2024-11-24T09:33:02.770Z,90739,-0.29920176,-0.5879895,-0.98986006
1732440782793,2024-11-24T09:33:02.793Z,90762,-0.28918663,-0.5976031,-1.0345966
1732440782801,2024-11-24T09:33:02.801Z,90770,-0.28918663,-0.5976031,-1.0345966
1732440782830,2024-11-24T09:33:02.830Z,90799,-0.28939208,-0.5965648,-1.0230448
1732440782837,2024-11-24T09:33:02.837Z,90806,-0.28939208,-0.5965648,-1.0230448
1732440782854,2024-11-24T09:33:02.854Z,90823,-0.24311967,-0.5907054,-1.0011489
1732440782858,2024-11-24T09:33:02.858Z,90827,-0.24311967,-0.5907054,-1.0011489
1732440782871,2024-11-24T09:33:02.871Z,90840,-0.20789959,-0.60204834,-0.9942427
1732440782874,2024-11-24T09:33:02.874Z,90843,-0.20789959,-0.60204834,-0.9942427
1732440782887,2024-11-24T09:33:02.887Z,90856,-0.21485151,-0.5966187,-1.0746436
1732440782892,2024-11-24T09:33:02.892Z,90861,-0.21485151,-0.5966187,-1.0746436
1732440782904,2024-11-24T09:33:02.904Z,90873,-0.28836685,-0.60260916,-1.0206872
1732440782910,2024-11-24T09:33:02.910Z,90879,-0.28836685,-0.60260916,-1.0206872
1732440782925,2024-11-24T09:33:02.925Z,90894,-0.29129615,-0.60340005,-0.9367033
1732440782929,2024-11-24T09:33:02.929Z,90898,-0.29129615,-0.60340005,-0.9367033
1732440782940,2024-11-24T09:33:02.940Z,90909,-0.30606228,-0.599306,-0.94528055
1732440782943,2024-11-24T09:33:02.943Z,90912,-0.30606228,-0.599306,-0.94528055
1732440782956,2024-11-24T09:33:02.956Z,90925,-0.29709005,-0.59247667,-0.9583405
1732440782959,2024-11-24T09:33:02.959Z,90928,-0.29709005,-0.59247667,-0.9583405
1732440782972,2024-11-24T09:33:02.972Z,90941,-0.28544986,-0.59190035,-0.98914367
1732440782975,2024-11-24T09:33:02.975Z,90944,-0.28544986,-0.59190035,-0.98914367
1732440782988,2024-11-24T09:33:02.988Z,90957,-0.27989206,-0.59311,-1.0092794
1732440782992,2024-11-24T09:33:02.992Z,90961,-0.27989206,-0.59311,-1.0092794
1732440783002,2024-11-24T09:33:03.002Z,90971,-0.25397366,-0.5951699,-1.0171834
1732440783006,2024-11-24T09:33:03.006Z,90975,-0.25397366,-0.5951699,-1.0171834
1732440783017,2024-11-24T09:33:03.017Z,90986,-0.28342423,-0.5882288,-0.94681084
1732440783022,2024-11-24T09:33:03.022Z,90991,-0.28342423,-0.5882288,-0.94681084
1732440783034,2024-11-24T09:33:03.034Z,91003,-0.27621472,-0.60039395,-0.980014
1732440783037,2024-11-24T09:33:03.037Z,91006,-0.27621472,-0.60039395,-0.980014
1732440783050,2024-11-24T09:33:03.050Z,91019,-0.2694936,-0.6003521,-1.0005219
1732440783054,2024-11-24T09:33:03.054Z,91023,-0.2694936,-0.6003521,-1.0005219
1732440783065,2024-11-24T09:33:03.065Z,91034,-0.20900556,-0.5967324,-1.0227709
1732440783069,2024-11-24T09:33:03.069Z,91038,-0.20900556,-0.5967324,-1.0227709
1732440783082,2024-11-24T09:33:03.082Z,91051,-0.2558018,-0.5908969,-1.0005839
1732440783086,2024-11-24T09:33:03.086Z,91055,-0.2558018,-0.5908969,-1.0005839
1732440783098,2024-11-24T09:33:03.098Z,91067,-0.2545895,-0.5948851,-1.0238062
1732440783103,2024-11-24T09:33:03.103Z,91072,-0.2545895,-0.5948851,-1.0238062
1732440783116,2024-11-24T09:33:03.116Z,91085,-0.31290114,-0.60087055,-0.9682567
1732440783119,2024-11-24T09:33:03.119Z,91088,-0.31290114,-0.60087055,-0.9682567
1732440783130,2024-11-24T09:33:03.130Z,91099,-0.28980836,-0.602739,-0.93294555
1732440783135,2024-11-24T09:33:03.135Z,91104,-0.28980836,-0.602739,-0.93294555
1732440783147,2024-11-24T09:33:03.147Z,91116,-0.25850344,-0.6094136,-0.9494852
1732440783151,2024-11-24T09:33:03.151Z,91120,-0.25850344,-0.6094136,-0.9494852
1732440783162,2024-11-24T09:33:03.162Z,91131,-0.24048224,-0.604714,-1.0333751
1732440783166,2024-11-24T09:33:03.166Z,91135,-0.24048224,-0.604714,-1.0333751
1732440783179,2024-11-24T09:33:03.179Z,91148,-0.25574914,-0.5942624,-1.0085874
1732440783184,2024-11-24T09:33:03.184Z,91153,-0.25574914,-0.5942624,-1.0085874
1732440783198,2024-11-24T09:33:03.198Z,91167,-0.24006794,-0.59589595,-1.0155323
1732440783202,2024-11-24T09:33:03.202Z,91171,-0.24006794,-0.59589595,-1.0155323
1732440783216,2024-11-24T09:33:03.216Z,91185,-0.27846488,-0.5999942,-0.98791015
1732440783221,2024-11-24T09:33:03.221Z,91190,-0.27846488,-0.5999942,-0.98791015
1732440783233,2024-11-24T09:33:03.233Z,91202,-0.2987743,-0.5946095,-0.9635748
1732440783236,2024-11-24T09:33:03.236Z,91205,-0.2987743,-0.5946095,-0.9635748
1732440783245,2024-11-24T09:33:03.245Z,91214,-0.26896086,-0.59161335,-0.9846517
1732440783249,2024-11-24T09:33:03.249Z,91218,-0.26896086,-0.59161335,-0.9846517
1732440783260,2024-11-24T09:33:03.260Z,91229,-0.2431514,-0.60929483,-1.044041
1732440783264,2024-11-24T09:33:03.264Z,91233,-0.2431514,-0.60929483,-1.044041
1732440783275,2024-11-24T09:33:03.275Z,91244,-0.23717713,-0.60688704,-1.0389308
1732440783278,2024-11-24T09:33:03.278Z,91247,-0.23717713,-0.60688704,-1.0389308
1732440783292,2024-11-24T09:33:03.292Z,91261,-0.2687067,-0.5977287,-0.99623984
1732440783297,2024-11-24T09:33:03.297Z,91266,-0.2687067,-0.5977287,-0.99623984
1732440783309,2024-11-24T09:33:03.309Z,91278,-0.29721364,-0.60087216,-0.9761958
1732440783313,2024-11-24T09:33:03.313Z,91282,-0.29721364,-0.60087216,-0.9761958
1732440783324,2024-11-24T09:33:03.324Z,91293,-0.29518142,-0.60136276,-0.9758638
1732440783328,2024-11-24T09:33:03.328Z,91297,-0.29518142,-0.60136276,-0.9758638
1732440783339,2024-11-24T09:33:03.339Z,91308,-0.28911164,-0.60497034,-0.9672786
1732440783343,2024-11-24T09:33:03.343Z,91312,-0.28911164,-0.60497034,-0.9672786
1732440783356,2024-11-24T09:33:03.356Z,91325,-0.27083007,-0.60277045,-1.0453635
1732440783360,2024-11-24T09:33:03.360Z,91329,-0.27083007,-0.60277045,-1.0453635
1732440783375,2024-11-24T09:33:03.375Z,91344,-0.28135738,-0.60581267,-1.0075125
1732440783387,2024-11-24T09:33:03.387Z,91356,-0.28135738,-0.60581267,-1.0075125
1732440783412,2024-11-24T09:33:03.412Z,91381,-0.26576206,-0.6028452,-1.0027839
1732440783419,2024-11-24T09:33:03.419Z,91388,-0.26576206,-0.6028452,-1.0027839
1732440783438,2024-11-24T09:33:03.438Z,91407,-0.274795,-0.599718,-0.9676946
1732440783447,2024-11-24T09:33:03.447Z,91416,-0.274795,-0.599718,-0.9676946
1732440783475,2024-11-24T09:33:03.475Z,91444,-0.2644177,-0.5972248,-0.96863866
1732440783483,2024-11-24T09:33:03.483Z,91452,-0.2644177,-0.5972248,-0.96863866
1732440783507,2024-11-24T09:33:03.507Z,91476,-0.26468185,-0.5956061,-1.0023112
1732440783516,2024-11-24T09:33:03.516Z,91485,-0.26468185,-0.5956061,-1.0023112
1732440783543,2024-11-24T09:33:03.543Z,91512,-0.24506794,-0.5764167,-1.0146064
1732440783551,2024-11-24T09:33:03.551Z,91520,-0.24506794,-0.5764167,-1.0146064
1732440783577,2024-11-24T09:33:03.577Z,91546,-0.23744045,-0.54800206,-0.96957296
1732440783585,2024-11-24T09:33:03.585Z,91554,-0.23744045,-0.54800206,-0.96957296
1732440783610,2024-11-24T09:33:03.610Z,91579,-0.22316585,-0.5174034,-0.9663755
1732440783619,2024-11-24T09:33:03.619Z,91588,-0.22316585,-0.5174034,-0.9663755
1732440783649,2024-11-24T09:33:03.649Z,91618,-0.25240868,-0.48625836,-0.9335441
1732440783661,2024-11-24T09:33:03.661Z,91630,-0.25240868,-0.48625836,-0.9335441
1732440783695,2024-11-24T09:33:03.695Z,91664,-0.26584426,-0.4843397,-0.95166945
1732440783701,2024-11-24T09:33:03.701Z,91670,-0.26584426,-0.4843397,-0.95166945
1732440783715,2024-11-24T09:33:03.715Z,91684,-0.25667334,-0.48980588,-0.9515905
1732440783719,2024-11-24T09:33:03.719Z,91688,-0.25667334,-0.48980588,-0.9515905
1732440783731,2024-11-24T09:33:03.731Z,91700,-0.18230282,-0.49135095,-1.0007999
1732440783735,2024-11-24T09:33:03.735Z,91704,-0.18230282,-0.49135095,-1.0007999
1732440783747,2024-11-24T09:33:03.747Z,91716,-0.240303,-0.4979361,-0.9758461
1732440783751,2024-11-24T09:33:03.751Z,91720,-0.240303,-0.4979361,-0.9758461
1732440783762,2024-11-24T09:33:03.762Z,91731,-0.24300465,-0.48598856,-0.98603815
1732440783766,2024-11-24T09:33:03.766Z,91735,-0.24300465,-0.48598856,-0.98603815
1732440783777,2024-11-24T09:33:03.777Z,91746,-0.25944892,-0.4955702,-0.91176397
1732440783780,2024-11-24T09:33:03.780Z,91749,-0.25944892,-0.4955702,-0.91176397
1732440783795,2024-11-24T09:33:03.795Z,91764,-0.2698102,-0.49870253,-0.91345686
1732440783799,2024-11-24T09:33:03.799Z,91768,-0.2698102,-0.49870253,-0.91345686
1732440783811,2024-11-24T09:33:03.811Z,91780,-0.2698424,-0.50062156,-0.93380797
1732440783814,2024-11-24T09:33:03.814Z,91783,-0.2698424,-0.50062156,-0.93380797
1732440783825,2024-11-24T09:33:03.825Z,91794,-0.25444686,-0.50919914,-0.9929902
1732440783828,2024-11-24T09:33:03.828Z,91797,-0.25444686,-0.50919914,-0.9929902
1732440783838,2024-11-24T09:33:03.838Z,91807,-0.2637686,-0.5024049,-1.0028625
1732440783842,2024-11-24T09:33:03.842Z,91811,-0.2637686,-0.5024049,-1.0028625
1732440783854,2024-11-24T09:33:03.854Z,91823,-0.21410611,-0.49295554,-0.9706588
1732440783858,2024-11-24T09:33:03.858Z,91827,-0.21410611,-0.49295554,-0.9706588
1732440783872,2024-11-24T09:33:03.872Z,91841,-0.2956289,-0.49381793,-0.9561984
1732440783876,2024-11-24T09:33:03.876Z,91845,-0.2956289,-0.49381793,-0.9561984
1732440783887,2024-11-24T09:33:03.887Z,91856,-0.31022474,-0.49261278,-0.95451295
1732440783890,2024-11-24T09:33:03.890Z,91859,-0.31022474,-0.49261278,-0.95451295
1732440783900,2024-11-24T09:33:03.900Z,91869,-0.31410038,-0.48043215,-0.9412297
1732440783904,2024-11-24T09:33:03.904Z,91873,-0.31410038,-0.48043215,-0.9412297
1732440783915,2024-11-24T09:33:03.915Z,91884,-0.26347563,-0.4815775,-0.9789374
1732440783918,2024-11-24T09:33:03.918Z,91887,-0.26347563,-0.4815775,-0.9789374
1732440783930,2024-11-24T09:33:03.930Z,91899,-0.26704904,-0.4696382,-0.9921561
1732440783934,2024-11-24T09:33:03.934Z,91903,-0.26704904,-0.4696382,-0.9921561
1732440783945,2024-11-24T09:33:03.945Z,91914,-0.22919177,-0.45347753,-0.9808247
1732440783949,2024-11-24T09:33:03.949Z,91918,-0.22919177,-0.45347753,-0.9808247
1732440783961,2024-11-24T09:33:03.961Z,91930,-0.26013884,-0.40873775,-0.9310106
1732440783964,2024-11-24T09:33:03.964Z,91933,-0.26013884,-0.40873775,-0.9310106
1732440783975,2024-11-24T09:33:03.975Z,91944,-0.23995884,-0.4037635,-0.91309565
1732440783979,2024-11-24T09:33:03.979Z,91948,-0.23995884,-0.4037635,-0.91309565
1732440783992,2024-11-24T09:33:03.992Z,91961,-0.20902058,-0.39110073,-0.9537554
1732440783995,2024-11-24T09:33:03.995Z,91964,-0.20902058,-0.39110073,-0.9537554
1732440784009,2024-11-24T09:33:04.009Z,91978,-0.20152646,-0.3583097,-0.9617528
1732440784013,2024-11-24T09:33:04.013Z,91982,-0.20152646,-0.3583097,-0.9617528
1732440784024,2024-11-24T09:33:04.024Z,91993,-0.21625708,-0.3593446,-0.94150764
1732440784027,2024-11-24T09:33:04.027Z,91996,-0.21625708,-0.3593446,-0.94150764
1732440784040,2024-11-24T09:33:04.040Z,92009,-0.23587273,-0.34971038,-0.93106097
1732440784043,2024-11-24T09:33:04.043Z,92012,-0.23587273,-0.34971038,-0.93106097
1732440784058,2024-11-24T09:33:04.058Z,92027,-0.24696006,-0.35082692,-0.9561162
1732440784061,2024-11-24T09:33:04.061Z,92030,-0.24696006,-0.35082692,-0.9561162
1732440784074,2024-11-24T09:33:04.074Z,92043,-0.22706114,-0.35924095,-0.97482
1732440784078,2024-11-24T09:33:04.078Z,92047,-0.22706114,-0.35924095,-0.97482
1732440784090,2024-11-24T09:33:04.090Z,92059,-0.15728337,-0.3337195,-0.94776136
1732440784093,2024-11-24T09:33:04.093Z,92062,-0.15728337,-0.3337195,-0.94776136
1732440784104,2024-11-24T09:33:04.104Z,92073,-0.17002335,-0.35686132,-0.9429195
1732440784107,2024-11-24T09:33:04.107Z,92076,-0.17002335,-0.35686132,-0.9429195
1732440784116,2024-11-24T09:33:04.116Z,92085,-0.16848467,-0.37511146,-0.91720515
1732440784119,2024-11-24T09:33:04.119Z,92088,-0.16848467,-0.37511146,-0.91720515
1732440784129,2024-11-24T09:33:04.129Z,92098,-0.18831883,-0.36091614,-0.9172421
1732440784133,2024-11-24T09:33:04.133Z,92102,-0.18831883,-0.36091614,-0.9172421
1732440784145,2024-11-24T09:33:04.145Z,92114,-0.22999017,-0.4018013,-0.9109281
1732440784148,2024-11-24T09:33:04.148Z,92117,-0.22999017,-0.4018013,-0.9109281
1732440784159,2024-11-24T09:33:04.159Z,92128,-0.23356684,-0.40878627,-0.8885434
1732440784162,2024-11-24T09:33:04.162Z,92131,-0.23356684,-0.40878627,-0.8885434
1732440784173,2024-11-24T09:33:04.173Z,92142,-0.21518196,-0.39201376,-0.90383166
1732440784176,2024-11-24T09:33:04.176Z,92145,-0.21518196,-0.39201376,-0.90383166
1732440784186,2024-11-24T09:33:04.186Z,92155,-0.1797185,-0.39042503,-0.93246895
1732440784189,2024-11-24T09:33:04.189Z,92158,-0.1797185,-0.39042503,-0.93246895
1732440784198,2024-11-24T09:33:04.198Z,92167,-0.18641867,-0.3844155,-0.96523416
1732440784201,2024-11-24T09:33:04.201Z,92170,-0.18641867,-0.3844155,-0.96523416
1732440784211,2024-11-24T09:33:04.211Z,92180,-0.18632686,-0.39119682,-0.9323855
1732440784213,2024-11-24T09:33:04.213Z,92182,-0.18632686,-0.39119682,-0.9323855
1732440784223,2024-11-24T09:33:04.223Z,92192,-0.15770583,-0.3851293,-0.8207853
1732440784226,2024-11-24T09:33:04.226Z,92195,-0.15770583,-0.3851293,-0.8207853
1732440784238,2024-11-24T09:33:04.238Z,92207,-0.16183203,-0.38924792,-0.8682281
1732440784242,2024-11-24T09:33:04.242Z,92211,-0.16183203,-0.38924792,-0.8682281
1732440784255,2024-11-24T09:33:04.255Z,92224,-0.13663134,-0.37875587,-0.9784817
1732440784258,2024-11-24T09:33:04.258Z,92227,-0.13663134,-0.37875587,-0.9784817
1732440784272,2024-11-24T09:33:04.272Z,92241,-0.14345302,-0.37379813,-0.91927236
1732440784278,2024-11-24T09:33:04.278Z,92247,-0.14345302,-0.37379813,-0.91927236
1732440784290,2024-11-24T09:33:04.290Z,92259,-0.14121315,-0.37336388,-0.8965483
1732440784294,2024-11-24T09:33:04.294Z,92263,-0.14121315,-0.37336388,-0.8965483
1732440784305,2024-11-24T09:33:04.305Z,92274,-0.20544523,-0.38184553,-0.9074906
1732440784308,2024-11-24T09:33:04.308Z,92277,-0.20544523,-0.38184553,-0.9074906
1732440784317,2024-11-24T09:33:04.317Z,92286,-0.19241285,-0.3857484,-0.95962197
1732440784320,2024-11-24T09:33:04.320Z,92289,-0.19241285,-0.3857484,-0.95962197
1732440784330,2024-11-24T09:33:04.330Z,92299,-0.23025446,-0.37719718,-0.8992899
1732440784334,2024-11-24T09:33:04.334Z,92303,-0.23025446,-0.37719718,-0.8992899
1732440784345,2024-11-24T09:33:04.345Z,92314,-0.19716848,-0.35635403,-0.913939
1732440784348,2024-11-24T09:33:04.348Z,92317,-0.19716848,-0.35635403,-0.913939
1732440784360,2024-11-24T09:33:04.360Z,92329,-0.21312508,-0.36987352,-0.919295
1732440784364,2024-11-24T09:33:04.364Z,92333,-0.21312508,-0.36987352,-0.919295
1732440784373,2024-11-24T09:33:04.373Z,92342,-0.15767707,-0.3257138,-0.93469095
1732440784376,2024-11-24T09:33:04.376Z,92345,-0.15767707,-0.3257138,-0.93469095
1732440784385,2024-11-24T09:33:04.385Z,92354,-0.19140293,-0.31018618,-0.87685627
1732440784388,2024-11-24T09:33:04.388Z,92357,-0.19140293,-0.31018618,-0.87685627
1732440784400,2024-11-24T09:33:04.400Z,92369,-0.17695522,-0.3168896,-1.0047969
1732440784404,2024-11-24T09:33:04.404Z,92373,-0.17695522,-0.3168896,-1.0047969
1732440784414,2024-11-24T09:33:04.414Z,92383,-0.1866818,-0.32208532,-0.96849096
1732440784417,2024-11-24T09:33:04.417Z,92386,-0.1866818,-0.32208532,-0.96849096
1732440784428,2024-11-24T09:33:04.428Z,92397,-0.18005529,-0.32592207,-0.9086982
1732440784431,2024-11-24T09:33:04.431Z,92400,-0.18005529,-0.32592207,-0.9086982
1732440784443,2024-11-24T09:33:04.443Z,92412,-0.25424835,-0.34280384,-0.90200484
1732440784447,2024-11-24T09:33:04.447Z,92416,-0.25424835,-0.34280384,-0.90200484
1732440784458,2024-11-24T09:33:04.458Z,92427,-0.263551,-0.3580676,-0.9339404
1732440784462,2024-11-24T09:33:04.462Z,92431,-0.263551,-0.3580676,-0.9339404
1732440784472,2024-11-24T09:33:04.472Z,92441,-0.2515052,-0.37212688,-0.96225446
1732440784477,2024-11-24T09:33:04.477Z,92446,-0.2515052,-0.37212688,-0.96225446
1732440784487,2024-11-24T09:33:04.487Z,92456,-0.11714903,-0.38053435,-0.97713435
1732440784491,2024-11-24T09:33:04.491Z,92460,-0.11714903,-0.38053435,-0.97713435
1732440784500,2024-11-24T09:33:04.500Z,92469,-0.19551218,-0.41553167,-0.94338393
1732440784503,2024-11-24T09:33:04.503Z,92472,-0.19551218,-0.41553167,-0.94338393
1732440784513,2024-11-24T09:33:04.513Z,92482,-0.27433875,-0.43092394,-0.91750133
1732440784516,2024-11-24T09:33:04.516Z,92485,-0.27433875,-0.43092394,-0.91750133
1732440784527,2024-11-24T09:33:04.527Z,92496,-0.27911097,-0.4416466,-0.8976878
1732440784530,2024-11-24T09:33:04.530Z,92499,-0.27911097,-0.4416466,-0.8976878
1732440784540,2024-11-24T09:33:04.540Z,92509,-0.2527895,-0.46370605,-0.8735491
1732440784543,2024-11-24T09:33:04.543Z,92512,-0.2527895,-0.46370605,-0.8735491
1732440784554,2024-11-24T09:33:04.554Z,92523,-0.2198363,-0.4516039,-0.90908533
1732440784557,2024-11-24T09:33:04.557Z,92526,-0.2198363,-0.4516039,-0.90908533
1732440784567,2024-11-24T09:33:04.567Z,92536,-0.15848418,-0.46366456,-1.0178446
1732440784570,2024-11-24T09:33:04.570Z,92539,-0.15848418,-0.46366456,-1.0178446
1732440784579,2024-11-24T09:33:04.579Z,92548,-0.13926879,-0.46104884,-0.94332016
1732440784582,2024-11-24T09:33:04.582Z,92551,-0.13926879,-0.46104884,-0.94332016
1732440784591,2024-11-24T09:33:04.591Z,92560,-0.2264972,-0.46243417,-0.79202664
1732440784595,2024-11-24T09:33:04.595Z,92564,-0.2264972,-0.46243417,-0.79202664
1732440784607,2024-11-24T09:33:04.607Z,92576,-0.2125147,-0.44820192,-0.7993977
1732440784611,2024-11-24T09:33:04.611Z,92580,-0.2125147,-0.44820192,-0.7993977
1732440784623,2024-11-24T09:33:04.623Z,92592,-0.20133395,-0.4786645,-0.97195554
1732440784627,2024-11-24T09:33:04.627Z,92596,-0.20133395,-0.4786645,-0.97195554
1732440784635,2024-11-24T09:33:04.635Z,92604,-0.17432465,-0.48288348,-0.87357545
1732440784638,2024-11-24T09:33:04.638Z,92607,-0.17432465,-0.48288348,-0.87357545
1732440784649,2024-11-24T09:33:04.649Z,92618,-0.17820968,-0.4723233,-0.8569976
1732440784652,2024-11-24T09:33:04.652Z,92621,-0.17820968,-0.4723233,-0.8569976
1732440784663,2024-11-24T09:33:04.663Z,92632,-0.15153801,-0.49798122,-0.91251713
1732440784666,2024-11-24T09:33:04.666Z,92635,-0.15153801,-0.49798122,-0.91251713
1732440784678,2024-11-24T09:33:04.678Z,92647,-0.22108874,-0.49699694,-0.8774762
1732440784681,2024-11-24T09:33:04.681Z,92650,-0.22108874,-0.49699694,-0.8774762
1732440784693,2024-11-24T09:33:04.693Z,92662,-0.17773789,-0.49418527,-0.9266995
1732440784696,2024-11-24T09:33:04.696Z,92665,-0.17773789,-0.49418527,-0.9266995
1732440784707,2024-11-24T09:33:04.707Z,92676,-0.24264015,-0.4966223,-0.9010469
1732440784711,2024-11-24T09:33:04.711Z,92680,-0.24264015,-0.4966223,-0.9010469
1732440784721,2024-11-24T09:33:04.721Z,92690,-0.2083357,-0.49985656,-0.88590974
1732440784725,2024-11-24T09:33:04.725Z,92694,-0.2083357,-0.49985656,-0.88590974
1732440784736,2024-11-24T09:33:04.736Z,92705,-0.14000483,-0.49204507,-0.8796831
1732440784739,2024-11-24T09:33:04.739Z,92708,-0.14000483,-0.49204507,-0.8796831
1732440784749,2024-11-24T09:33:04.749Z,92718,-0.19340624,-0.48238412,-0.8925031
1732440784752,2024-11-24T09:33:04.752Z,92721,-0.19340624,-0.48238412,-0.8925031
1732440784762,2024-11-24T09:33:04.762Z,92731,-0.24567507,-0.47516513,-0.8386842
1732440784765,2024-11-24T09:33:04.765Z,92734,-0.24567507,-0.47516513,-0.8386842
1732440784776,2024-11-24T09:33:04.776Z,92745,-0.22955745,-0.467755,-0.8615872
1732440784781,2024-11-24T09:33:04.781Z,92750,-0.22955745,-0.467755,-0.8615872
1732440784793,2024-11-24T09:33:04.793Z,92762,-0.16742428,-0.49882233,-0.90414417
1732440784796,2024-11-24T09:33:04.796Z,92765,-0.16742428,-0.49882233,-0.90414417
1732440784813,2024-11-24T09:33:04.813Z,92782,-0.1715001,-0.48399654,-0.9048286
1732440784816,2024-11-24T09:33:04.816Z,92785,-0.1715001,-0.48399654,-0.9048286
1732440784828,2024-11-24T09:33:04.828Z,92797,-0.18426624,-0.48208264,-0.8751681
1732440784831,2024-11-24T09:33:04.831Z,92800,-0.18426624,-0.48208264,-0.8751681
1732440784842,2024-11-24T09:33:04.842Z,92811,-0.2131757,-0.48449177,-0.8557409
1732440784846,2024-11-24T09:33:04.846Z,92815,-0.2131757,-0.48449177,-0.8557409
1732440784856,2024-11-24T09:33:04.856Z,92825,-0.26804295,-0.47857758,-0.8846429
1732440784859,2024-11-24T09:33:04.859Z,92828,-0.26804295,-0.47857758,-0.8846429
1732440784869,2024-11-24T09:33:04.869Z,92838,-0.2107706,-0.4876704,-0.9017868
1732440784872,2024-11-24T09:33:04.872Z,92841,-0.2107706,-0.4876704,-0.9017868
1732440784881,2024-11-24T09:33:04.881Z,92850,-0.08567813,-0.49740213,-0.90078264
1732440784884,2024-11-24T09:33:04.884Z,92853,-0.08567813,-0.49740213,-0.90078264
1732440784893,2024-11-24T09:33:04.893Z,92862,-0.12861685,-0.49315318,-0.8632565
1732440784898,2024-11-24T09:33:04.898Z,92867,-0.12861685,-0.49315318,-0.8632565
1732440784912,2024-11-24T09:33:04.912Z,92881,-0.16736501,-0.48718512,-0.8555879
1732440784915,2024-11-24T09:33:04.915Z,92884,-0.16736501,-0.48718512,-0.8555879
1732440784925,2024-11-24T09:33:04.925Z,92894,-0.15184829,-0.4975832,-0.88778615
1732440784928,2024-11-24T09:33:04.928Z,92897,-0.15184829,-0.4975832,-0.88778615
1732440784939,2024-11-24T09:33:04.939Z,92908,-0.15784456,-0.49527684,-0.87397784
1732440784943,2024-11-24T09:33:04.943Z,92912,-0.15784456,-0.49527684,-0.87397784
1732440784956,2024-11-24T09:33:04.956Z,92925,-0.12119764,-0.49596977,-0.88361394
1732440784960,2024-11-24T09:33:04.960Z,92929,-0.12119764,-0.49596977,-0.88361394
1732440784971,2024-11-24T09:33:04.971Z,92940,-0.049448274,-0.52134717,-0.9329394
1732440784974,2024-11-24T09:33:04.974Z,92943,-0.049448274,-0.52134717,-0.9329394
1732440784984,2024-11-24T09:33:04.984Z,92953,-0.12588175,-0.5209309,-0.8710889
1732440784987,2024-11-24T09:33:04.987Z,92956,-0.12588175,-0.5209309,-0.8710889
1732440784998,2024-11-24T09:33:04.998Z,92967,-0.1575757,-0.5096117,-0.81171846
1732440785002,2024-11-24T09:33:05.002Z,92971,-0.1575757,-0.5096117,-0.81171846
1732440785017,2024-11-24T09:33:05.017Z,92986,-0.16202393,-0.5325738,-0.86767095
1732440785024,2024-11-24T09:33:05.024Z,92993,-0.16202393,-0.5325738,-0.86767095
1732440785045,2024-11-24T09:33:05.045Z,93014,-0.154054,-0.5485643,-0.890113
1732440785053,2024-11-24T09:33:05.053Z,93022,-0.154054,-0.5485643,-0.890113
1732440785076,2024-11-24T09:33:05.076Z,93045,-0.11878195,-0.5491303,-0.8602567
1732440785084,2024-11-24T09:33:05.084Z,93053,-0.11878195,-0.5491303,-0.8602567
1732440785110,2024-11-24T09:33:05.110Z,93079,-0.08002533,-0.5550658,-0.89071596
1732440785117,2024-11-24T09:33:05.117Z,93086,-0.08002533,-0.5550658,-0.89071596
1732440785140,2024-11-24T09:33:05.140Z,93109,-0.13953048,-0.55522794,-0.9250571
1732440785148,2024-11-24T09:33:05.148Z,93117,-0.13953048,-0.55522794,-0.9250571
1732440785171,2024-11-24T09:33:05.171Z,93140,-0.20121494,-0.56120026,-0.8831531
1732440785179,2024-11-24T09:33:05.179Z,93148,-0.20121494,-0.56120026,-0.8831531
1732440785207,2024-11-24T09:33:05.207Z,93176,-0.16822632,-0.5661358,-0.8544094
1732440785212,2024-11-24T09:33:05.212Z,93181,-0.16822632,-0.5661358,-0.8544094
1732440785228,2024-11-24T09:33:05.228Z,93197,-0.12836482,-0.54990613,-0.8832045
1732440785233,2024-11-24T09:33:05.233Z,93202,-0.12836482,-0.54990613,-0.8832045
1732440785248,2024-11-24T09:33:05.248Z,93217,-0.12457262,-0.56317943,-0.9569245
1732440785252,2024-11-24T09:33:05.252Z,93221,-0.12457262,-0.56317943,-0.9569245
1732440785265,2024-11-24T09:33:05.265Z,93234,-0.10565415,-0.544918,-0.8866153
1732440785269,2024-11-24T09:33:05.269Z,93238,-0.10565415,-0.544918,-0.8866153
1732440785280,2024-11-24T09:33:05.280Z,93249,-0.12100684,-0.54362386,-0.86834615
1732440785284,2024-11-24T09:33:05.284Z,93253,-0.12100684,-0.54362386,-0.86834615
1732440785295,2024-11-24T09:33:05.295Z,93264,-0.14611888,-0.55243707,-0.9050268
1732440785298,2024-11-24T09:33:05.298Z,93267,-0.14611888,-0.55243707,-0.9050268
1732440785309,2024-11-24T09:33:05.309Z,93278,-0.16076921,-0.56825453,-0.90736073
1732440785312,2024-11-24T09:33:05.312Z,93281,-0.16076921,-0.56825453,-0.90736073
1732440785323,2024-11-24T09:33:05.323Z,93292,-0.11772552,-0.5705469,-0.886947
1732440785326,2024-11-24T09:33:05.326Z,93295,-0.11772552,-0.5705469,-0.886947
1732440785335,2024-11-24T09:33:05.335Z,93304,-0.079003274,-0.5709032,-0.89387
1732440785338,2024-11-24T09:33:05.338Z,93307,-0.079003274,-0.5709032,-0.89387
1732440785347,2024-11-24T09:33:05.347Z,93316,-0.15043585,-0.5715831,-0.8953897
1732440785350,2024-11-24T09:33:05.350Z,93319,-0.15043585,-0.5715831,-0.8953897
1732440785361,2024-11-24T09:33:05.361Z,93330,-0.18310678,-0.5677392,-0.880293
1732440785365,2024-11-24T09:33:05.365Z,93334,-0.18310678,-0.5677392,-0.880293
1732440785377,2024-11-24T09:33:05.377Z,93346,-0.17748614,-0.5796008,-0.8564082
1732440785380,2024-11-24T09:33:05.380Z,93349,-0.17748614,-0.5796008,-0.8564082
1732440785389,2024-11-24T09:33:05.389Z,93358,-0.15294696,-0.569266,-0.83777523
1732440785392,2024-11-24T09:33:05.392Z,93361,-0.15294696,-0.569266,-0.83777523
1732440785400,2024-11-24T09:33:05.400Z,93369,-0.17819397,-0.57283574,-0.8817523
1732440785403,2024-11-24T09:33:05.403Z,93372,-0.17819397,-0.57283574,-0.8817523
1732440785412,2024-11-24T09:33:05.412Z,93381,-0.082887836,-0.5703085,-0.9746166
1732440785415,2024-11-24T09:33:05.415Z,93384,-0.082887836,-0.5703085,-0.9746166
1732440785425,2024-11-24T09:33:05.425Z,93394,-0.1405814,-0.5831925,-0.8416947
1732440785428,2024-11-24T09:33:05.428Z,93397,-0.1405814,-0.5831925,-0.8416947
1732440785446,2024-11-24T09:33:05.446Z,93415,-0.14944535,-0.58292234,-0.8464201
1732440785456,2024-11-24T09:33:05.456Z,93425,-0.14944535,-0.58292234,-0.8464201
1732440785477,2024-11-24T09:33:05.477Z,93446,-0.17294191,-0.5845788,-0.8423368
1732440785481,2024-11-24T09:33:05.481Z,93450,-0.17294191,-0.5845788,-0.8423368
1732440785493,2024-11-24T09:33:05.493Z,93462,-0.1595331,-0.588869,-0.91027313
1732440785498,2024-11-24T09:33:05.498Z,93467,-0.1595331,-0.588869,-0.91027313
1732440785513,2024-11-24T09:33:05.513Z,93482,-0.10044435,-0.5846743,-0.9489114
1732440785517,2024-11-24T09:33:05.517Z,93486,-0.10044435,-0.5846743,-0.9489114
1732440785532,2024-11-24T09:33:05.532Z,93501,-0.07805746,-0.5713838,-0.9374668
1732440785536,2024-11-24T09:33:05.536Z,93505,-0.07805746,-0.5713838,-0.9374668
1732440785549,2024-11-24T09:33:05.549Z,93518,-0.18591003,-0.57699615,-0.8567548
1732440785553,2024-11-24T09:33:05.553Z,93522,-0.18591003,-0.57699615,-0.8567548
1732440785564,2024-11-24T09:33:05.564Z,93533,-0.1929274,-0.57985985,-0.8593717
1732440785568,2024-11-24T09:33:05.568Z,93537,-0.1929274,-0.57985985,-0.8593717
1732440785581,2024-11-24T09:33:05.581Z,93550,-0.20727555,-0.5727241,-0.872199
1732440785584,2024-11-24T09:33:05.584Z,93553,-0.20727555,-0.5727241,-0.872199
1732440785597,2024-11-24T09:33:05.597Z,93566,-0.1117311,-0.57707775,-0.8810104
1732440785601,2024-11-24T09:33:05.601Z,93570,-0.1117311,-0.57707775,-0.8810104
1732440785610,2024-11-24T09:33:05.610Z,93579,-0.13954002,-0.57350826,-0.871386
1732440785613,2024-11-24T09:33:05.613Z,93582,-0.13954002,-0.57350826,-0.871386
1732440785622,2024-11-24T09:33:05.622Z,93591,-0.073912434,-0.5548377,-0.8743939
1732440785625,2024-11-24T09:33:05.625Z,93594,-0.073912434,-0.5548377,-0.8743939
1732440785637,2024-11-24T09:33:05.637Z,93606,-0.08155611,-0.5715016,-0.8842017
1732440785643,2024-11-24T09:33:05.643Z,93612,-0.08155611,-0.5715016,-0.8842017
1732440785661,2024-11-24T09:33:05.661Z,93630,-0.14407827,-0.5614106,-0.82358
1732440785666,2024-11-24T09:33:05.666Z,93635,-0.14407827,-0.5614106,-0.82358
1732440785677,2024-11-24T09:33:05.677Z,93646,-0.19404201,-0.56348306,-0.81541866
1732440785681,2024-11-24T09:33:05.681Z,93650,-0.19404201,-0.56348306,-0.81541866
1732440785693,2024-11-24T09:33:05.693Z,93662,-0.20620053,-0.5729661,-0.84436804
1732440785698,2024-11-24T09:33:05.698Z,93667,-0.20620053,-0.5729661,-0.84436804
1732440785708,2024-11-24T09:33:05.708Z,93677,-0.19362059,-0.5775876,-0.8556119
1732440785712,2024-11-24T09:33:05.712Z,93681,-0.19362059,-0.5775876,-0.8556119
1732440785727,2024-11-24T09:33:05.727Z,93696,-0.15344352,-0.5872426,-0.84945166
1732440785734,2024-11-24T09:33:05.734Z,93703,-0.15344352,-0.5872426,-0.84945166
1732440785755,2024-11-24T09:33:05.755Z,93724,-0.115122736,-0.57421035,-0.85815156
1732440785758,2024-11-24T09:33:05.758Z,93727,-0.115122736,-0.57421035,-0.85815156
1732440785769,2024-11-24T09:33:05.769Z,93738,-0.20240535,-0.55826944,-0.8502402
1732440785774,2024-11-24T09:33:05.774Z,93743,-0.20240535,-0.55826944,-0.8502402
1732440785787,2024-11-24T09:33:05.787Z,93756,-0.2020467,-0.54843247,-0.852929
1732440785791,2024-11-24T09:33:05.791Z,93760,-0.2020467,-0.54843247,-0.852929
1732440785802,2024-11-24T09:33:05.802Z,93771,-0.18628246,-0.54694164,-0.84445316
1732440785805,2024-11-24T09:33:05.805Z,93774,-0.18628246,-0.54694164,-0.84445316
1732440785816,2024-11-24T09:33:05.816Z,93785,-0.105281934,-0.5446709,-0.9364751
1732440785818,2024-11-24T09:33:05.818Z,93787,-0.105281934,-0.5446709,-0.9364751
1732440785828,2024-11-24T09:33:05.828Z,93797,-0.10128633,-0.53357035,-0.8882793
1732440785830,2024-11-24T09:33:05.830Z,93799,-0.10128633,-0.53357035,-0.8882793
1732440785838,2024-11-24T09:33:05.838Z,93807,-0.09192042,-0.5200977,-0.85655427
1732440785841,2024-11-24T09:33:05.841Z,93810,-0.09192042,-0.5200977,-0.85655427
1732440785852,2024-11-24T09:33:05.852Z,93821,-0.1608309,-0.52005327,-0.87267923
1732440785855,2024-11-24T09:33:05.855Z,93824,-0.1608309,-0.52005327,-0.87267923
1732440785865,2024-11-24T09:33:05.865Z,93834,-0.16890542,-0.5277753,-0.88928086
1732440785867,2024-11-24T09:33:05.867Z,93836,-0.16890542,-0.5277753,-0.88928086
1732440785876,2024-11-24T09:33:05.876Z,93845,-0.14663236,-0.51721895,-0.90503925
1732440785879,2024-11-24T09:33:05.879Z,93848,-0.14663236,-0.51721895,-0.90503925
1732440785887,2024-11-24T09:33:05.887Z,93856,-0.08379792,-0.50086504,-0.8988822
1732440785890,2024-11-24T09:33:05.890Z,93859,-0.08379792,-0.50086504,-0.8988822
1732440785900,2024-11-24T09:33:05.900Z,93869,-0.12330928,-0.5082926,-0.9048183
1732440785905,2024-11-24T09:33:05.905Z,93874,-0.12330928,-0.5082926,-0.9048183
1732440785915,2024-11-24T09:33:05.915Z,93884,-0.16456072,-0.50047255,-0.87607694
1732440785917,2024-11-24T09:33:05.917Z,93886,-0.16456072,-0.50047255,-0.87607694
1732440785926,2024-11-24T09:33:05.926Z,93895,-0.16942745,-0.50503236,-0.8641024
1732440785929,2024-11-24T09:33:05.929Z,93898,-0.16942745,-0.50503236,-0.8641024
1732440785938,2024-11-24T09:33:05.938Z,93907,-0.16038248,-0.50296074,-0.8799059
1732440785941,2024-11-24T09:33:05.941Z,93910,-0.16038248,-0.50296074,-0.8799059
1732440785954,2024-11-24T09:33:05.954Z,93923,-0.15819375,-0.504359,-0.87074816
1732440785959,2024-11-24T09:33:05.959Z,93928,-0.15819375,-0.504359,-0.87074816
1732440785978,2024-11-24T09:33:05.978Z,93947,-0.11569554,-0.4943661,-0.87024575
1732440785982,2024-11-24T09:33:05.982Z,93951,-0.11569554,-0.4943661,-0.87024575
1732440785993,2024-11-24T09:33:05.993Z,93962,-0.11251585,-0.49981984,-0.87589395
1732440785997,2024-11-24T09:33:05.997Z,93966,-0.11251585,-0.49981984,-0.87589395
1732440786006,2024-11-24T09:33:06.006Z,93975,-0.123765565,-0.50796807,-0.8601291
1732440786009,2024-11-24T09:33:06.009Z,93978,-0.123765565,-0.50796807,-0.8601291
1732440786019,2024-11-24T09:33:06.019Z,93988,-0.15170869,-0.51665646,-0.8551479
1732440786022,2024-11-24T09:33:06.022Z,93991,-0.15170869,-0.51665646,-0.8551479
1732440786033,2024-11-24T09:33:06.033Z,94002,-0.12988044,-0.50907606,-0.86297834
1732440786036,2024-11-24T09:33:06.036Z,94005,-0.12988044,-0.50907606,-0.86297834
1732440786049,2024-11-24T09:33:06.049Z,94018,-0.11286527,-0.48852682,-0.84344655
1732440786057,2024-11-24T09:33:06.057Z,94026,-0.11286527,-0.48852682,-0.84344655
1732440786078,2024-11-24T09:33:06.078Z,94047,-0.09173554,-0.48060724,-0.81962943
1732440786081,2024-11-24T09:33:06.081Z,94050,-0.09173554,-0.48060724,-0.81962943
1732440786093,2024-11-24T09:33:06.093Z,94062,-0.11258853,-0.49347132,-0.8097254
1732440786098,2024-11-24T09:33:06.098Z,94067,-0.11258853,-0.49347132,-0.8097254
1732440786112,2024-11-24T09:33:06.112Z,94081,-0.14452645,-0.4984175,-0.81742966
1732440786116,2024-11-24T09:33:06.116Z,94085,-0.14452645,-0.4984175,-0.81742966
1732440786128,2024-11-24T09:33:06.128Z,94097,-0.15575182,-0.5089066,-0.8559608
1732440786133,2024-11-24T09:33:06.133Z,94102,-0.15575182,-0.5089066,-0.8559608
1732440786146,2024-11-24T09:33:06.146Z,94115,-0.15292725,-0.52665097,-0.87122196
1732440786150,2024-11-24T09:33:06.150Z,94119,-0.15292725,-0.52665097,-0.87122196
1732440786162,2024-11-24T09:33:06.162Z,94131,-0.14343137,-0.5350717,-0.8394029
1732440786168,2024-11-24T09:33:06.168Z,94137,-0.14343137,-0.5350717,-0.8394029
1732440786184,2024-11-24T09:33:06.184Z,94153,-0.13972603,-0.53343034,-0.8092466
1732440786188,2024-11-24T09:33:06.188Z,94157,-0.13972603,-0.53343034,-0.8092466
1732440786198,2024-11-24T09:33:06.198Z,94167,-0.17017953,-0.5316746,-0.82129353
1732440786201,2024-11-24T09:33:06.201Z,94170,-0.17017953,-0.5316746,-0.82129353
1732440786211,2024-11-24T09:33:06.211Z,94180,-0.1513202,-0.5344023,-0.8225639
1732440786214,2024-11-24T09:33:06.214Z,94183,-0.1513202,-0.5344023,-0.8225639
1732440786225,2024-11-24T09:33:06.225Z,94194,-0.13081121,-0.52924156,-0.85900104
1732440786229,2024-11-24T09:33:06.229Z,94198,-0.13081121,-0.52924156,-0.85900104
1732440786238,2024-11-24T09:33:06.238Z,94207,-0.13264807,-0.54913056,-0.80797964
1732440786242,2024-11-24T09:33:06.242Z,94211,-0.13264807,-0.54913056,-0.80797964
1732440786257,2024-11-24T09:33:06.257Z,94226,-0.1646077,-0.54253924,-0.7795359
1732440786265,2024-11-24T09:33:06.265Z,94234,-0.1646077,-0.54253924,-0.7795359
1732440786284,2024-11-24T09:33:06.284Z,94253,-0.1559352,-0.536653,-0.79798084
1732440786291,2024-11-24T09:33:06.291Z,94260,-0.1559352,-0.536653,-0.79798084
1732440786304,2024-11-24T09:33:06.304Z,94273,-0.17244878,-0.554127,-0.809861
1732440786308,2024-11-24T09:33:06.308Z,94277,-0.17244878,-0.554127,-0.809861
1732440786321,2024-11-24T09:33:06.321Z,94290,-0.17776842,-0.55087745,-0.8164594
1732440786324,2024-11-24T09:33:06.324Z,94293,-0.17776842,-0.55087745,-0.8164594
1732440786333,2024-11-24T09:33:06.333Z,94302,-0.14244339,-0.5557217,-0.7731976
1732440786335,2024-11-24T09:33:06.335Z,94304,-0.14244339,-0.5557217,-0.7731976
1732440786348,2024-11-24T09:33:06.348Z,94317,-0.121568576,-0.55765766,-0.79045165
1732440786357,2024-11-24T09:33:06.357Z,94326,-0.121568576,-0.55765766,-0.79045165
1732440786377,2024-11-24T09:33:06.377Z,94346,-0.14541917,-0.51719195,-0.78204924
1732440786381,2024-11-24T09:33:06.381Z,94350,-0.14541917,-0.51719195,-0.78204924
1732440786404,2024-11-24T09:33:06.404Z,94373,-0.1596378,-0.48977357,-0.76257837
1732440786410,2024-11-24T09:33:06.410Z,94379,-0.1596378,-0.48977357,-0.76257837
1732440786422,2024-11-24T09:33:06.422Z,94391,-0.18711028,-0.4900696,-0.7657651
1732440786426,2024-11-24T09:33:06.426Z,94395,-0.18711028,-0.4900696,-0.7657651
1732440786439,2024-11-24T09:33:06.439Z,94408,-0.15748534,-0.49119237,-0.79459655
1732440786444,2024-11-24T09:33:06.444Z,94413,-0.15748534,-0.49119237,-0.79459655
1732440786455,2024-11-24T09:33:06.455Z,94424,-0.112991415,-0.49920353,-0.80936414
1732440786458,2024-11-24T09:33:06.458Z,94427,-0.112991415,-0.49920353,-0.80936414
1732440786468,2024-11-24T09:33:06.468Z,94437,-0.12121622,-0.47855562,-0.79664683
1732440786471,2024-11-24T09:33:06.471Z,94440,-0.12121622,-0.47855562,-0.79664683
1732440786481,2024-11-24T09:33:06.481Z,94450,-0.19369885,-0.4690176,-0.7985428
1732440786483,2024-11-24T09:33:06.483Z,94452,-0.19369885,-0.4690176,-0.7985428
1732440786493,2024-11-24T09:33:06.493Z,94462,-0.1813724,-0.4829527,-0.7892968
1732440786495,2024-11-24T09:33:06.495Z,94464,-0.1813724,-0.4829527,-0.7892968
1732440786504,2024-11-24T09:33:06.504Z,94473,-0.15983085,-0.4812292,-0.7717375
1732440786507,2024-11-24T09:33:06.507Z,94476,-0.15983085,-0.4812292,-0.7717375
1732440786517,2024-11-24T09:33:06.517Z,94486,-0.1516608,-0.4920229,-0.77008474
1732440786520,2024-11-24T09:33:06.520Z,94489,-0.1516608,-0.4920229,-0.77008474
1732440786530,2024-11-24T09:33:06.530Z,94499,-0.17066565,-0.47081038,-0.7755209
1732440786532,2024-11-24T09:33:06.532Z,94501,-0.17066565,-0.47081038,-0.7755209
1732440786541,2024-11-24T09:33:06.541Z,94510,-0.13902694,-0.4536692,-0.751159
1732440786543,2024-11-24T09:33:06.543Z,94512,-0.13902694,-0.4536692,-0.751159
1732440786553,2024-11-24T09:33:06.553Z,94522,-0.1830971,-0.46075398,-0.73585427
1732440786556,2024-11-24T09:33:06.556Z,94525,-0.1830971,-0.46075398,-0.73585427
1732440786566,2024-11-24T09:33:06.566Z,94535,-0.15977862,-0.45600095,-0.7132369
1732440786569,2024-11-24T09:33:06.569Z,94538,-0.15977862,-0.45600095,-0.7132369
1732440786577,2024-11-24T09:33:06.577Z,94546,-0.13706715,-0.42661625,-0.7141573
1732440786581,2024-11-24T09:33:06.581Z,94550,-0.13706715,-0.42661625,-0.7141573
1732440786589,2024-11-24T09:33:06.589Z,94558,-0.13802779,-0.39910686,-0.6921658
1732440786592,2024-11-24T09:33:06.592Z,94561,-0.13802779,-0.39910686,-0.6921658
1732440786601,2024-11-24T09:33:06.601Z,94570,-0.10821281,-0.38068834,-0.69207734
1732440786604,2024-11-24T09:33:06.604Z,94573,-0.10821281,-0.38068834,-0.69207734
1732440786616,2024-11-24T09:33:06.616Z,94585,-0.085204825,-0.37555024,-0.68367046
1732440786619,2024-11-24T09:33:06.619Z,94588,-0.085204825,-0.37555024,-0.68367046
1732440786633,2024-11-24T09:33:06.633Z,94602,-0.06172711,-0.36080575,-0.7081009
1732440786637,2024-11-24T09:33:06.637Z,94606,-0.06172711,-0.36080575,-0.7081009
1732440786650,2024-11-24T09:33:06.650Z,94619,-0.13046041,-0.36404788,-0.6759504
1732440786654,2024-11-24T09:33:06.654Z,94623,-0.13046041,-0.36404788,-0.6759504
1732440786665,2024-11-24T09:33:06.665Z,94634,-0.11908593,-0.35072112,-0.67149353
1732440786669,2024-11-24T09:33:06.669Z,94638,-0.11908593,-0.35072112,-0.67149353
1732440786679,2024-11-24T09:33:06.679Z,94648,-0.13637716,-0.35479483,-0.6451819
1732440786682,2024-11-24T09:33:06.682Z,94651,-0.13637716,-0.35479483,-0.6451819
1732440786690,2024-11-24T09:33:06.690Z,94659,-0.11677518,-0.34652176,-0.67025495
1732440786693,2024-11-24T09:33:06.693Z,94662,-0.11677518,-0.34652176,-0.67025495
1732440786702,2024-11-24T09:33:06.702Z,94671,-0.05047443,-0.339598,-0.68629926
1732440786704,2024-11-24T09:33:06.704Z,94673,-0.05047443,-0.339598,-0.68629926
1732440786713,2024-11-24T09:33:06.713Z,94682,-0.044371556,-0.337062,-0.6707812
1732440786717,2024-11-24T09:33:06.717Z,94686,-0.044371556,-0.337062,-0.6707812
1732440786730,2024-11-24T09:33:06.730Z,94699,-0.17152652,-0.33246714,-0.62531495
1732440786735,2024-11-24T09:33:06.735Z,94704,-0.17152652,-0.33246714,-0.62531495
1732440786746,2024-11-24T09:33:06.746Z,94715,-0.18112475,-0.33643687,-0.66747975
1732440786749,2024-11-24T09:33:06.749Z,94718,-0.18112475,-0.33643687,-0.66747975
1732440786758,2024-11-24T09:33:06.758Z,94727,-0.12969293,-0.3262408,-0.65577793
1732440786761,2024-11-24T09:33:06.761Z,94730,-0.12969293,-0.3262408,-0.65577793
1732440786771,2024-11-24T09:33:06.771Z,94740,-0.10158964,-0.3096538,-0.6983195
1732440786773,2024-11-24T09:33:06.773Z,94742,-0.10158964,-0.3096538,-0.6983195
1732440786782,2024-11-24T09:33:06.782Z,94751,-0.11365174,-0.30381417,-0.66229504
1732440786785,2024-11-24T09:33:06.785Z,94754,-0.11365174,-0.30381417,-0.66229504
1732440786795,2024-11-24T09:33:06.795Z,94764,-0.09134188,-0.29977083,-0.6426586
1732440786798,2024-11-24T09:33:06.798Z,94767,-0.09134188,-0.29977083,-0.6426586
1732440786807,2024-11-24T09:33:06.807Z,94776,-0.13996263,-0.2901195,-0.62816775
1732440786809,2024-11-24T09:33:06.809Z,94778,-0.13996263,-0.2901195,-0.62816775
1732440786818,2024-11-24T09:33:06.818Z,94787,-0.12576798,-0.27963307,-0.6675887
1732440786820,2024-11-24T09:33:06.820Z,94789,-0.12576798,-0.27963307,-0.6675887
1732440786829,2024-11-24T09:33:06.829Z,94798,-0.10060236,-0.29227087,-0.6973429
1732440786833,2024-11-24T09:33:06.833Z,94802,-0.10060236,-0.29227087,-0.6973429
1732440786842,2024-11-24T09:33:06.842Z,94811,-0.12545794,-0.2878224,-0.64919776
1732440786845,2024-11-24T09:33:06.845Z,94814,-0.12545794,-0.2878224,-0.64919776
1732440786856,2024-11-24T09:33:06.856Z,94825,-0.11297403,-0.29070666,-0.6493592
1732440786860,2024-11-24T09:33:06.860Z,94829,-0.11297403,-0.29070666,-0.6493592
1732440786871,2024-11-24T09:33:06.871Z,94840,-0.10561321,-0.30725387,-0.6735021
1732440786877,2024-11-24T09:33:06.877Z,94846,-0.10561321,-0.30725387,-0.6735021
1732440786898,2024-11-24T09:33:06.898Z,94867,-0.10582764,-0.3040425,-0.6818214
1732440786904,2024-11-24T09:33:06.904Z,94873,-0.10582764,-0.3040425,-0.6818214
1732440786917,2024-11-24T09:33:06.917Z,94886,-0.12671342,-0.30881497,-0.7250894
1732440786921,2024-11-24T09:33:06.921Z,94890,-0.12671342,-0.30881497,-0.7250894
1732440786936,2024-11-24T09:33:06.936Z,94905,-0.093634844,-0.31824756,-0.7407277
1732440786945,2024-11-24T09:33:06.945Z,94914,-0.093634844,-0.31824756,-0.7407277
1732440786967,2024-11-24T09:33:06.967Z,94936,-0.13507722,-0.3183809,-0.6240279
1732440786974,2024-11-24T09:33:06.974Z,94943,-0.13507722,-0.3183809,-0.6240279
1732440786992,2024-11-24T09:33:06.992Z,94961,-0.1311093,-0.32174325,-0.6444947
1732440786996,2024-11-24T09:33:06.996Z,94965,-0.1311093,-0.32174325,-0.6444947
1732440787006,2024-11-24T09:33:07.006Z,94975,-0.12518866,-0.31630796,-0.6669033
1732440787009,2024-11-24T09:33:07.009Z,94978,-0.12518866,-0.31630796,-0.6669033
1732440787019,2024-11-24T09:33:07.019Z,94988,-0.089007966,-0.30675903,-0.6813047
1732440787021,2024-11-24T09:33:07.021Z,94990,-0.089007966,-0.30675903,-0.6813047
1732440787031,2024-11-24T09:33:07.031Z,95000,-0.07372636,-0.287436,-0.7071595
1732440787034,2024-11-24T09:33:07.034Z,95003,-0.07372636,-0.287436,-0.7071595
1732440787042,2024-11-24T09:33:07.042Z,95011,-0.12429775,-0.27874568,-0.71037036
1732440787044,2024-11-24T09:33:07.044Z,95013,-0.12429775,-0.27874568,-0.71037036
1732440787054,2024-11-24T09:33:07.054Z,95023,-0.15027425,-0.26685604,-0.7010497
1732440787056,2024-11-24T09:33:07.056Z,95025,-0.15027425,-0.26685604,-0.7010497
1732440787066,2024-11-24T09:33:07.066Z,95035,-0.15016139,-0.24723865,-0.6522552
1732440787069,2024-11-24T09:33:07.069Z,95038,-0.15016139,-0.24723865,-0.6522552
1732440787080,2024-11-24T09:33:07.080Z,95049,-0.11324154,-0.23238868,-0.6515151
1732440787083,2024-11-24T09:33:07.083Z,95052,-0.11324154,-0.23238868,-0.6515151
1732440787092,2024-11-24T09:33:07.092Z,95061,-0.088782474,-0.21370833,-0.6756525
1732440787096,2024-11-24T09:33:07.096Z,95065,-0.088782474,-0.21370833,-0.6756525
1732440787105,2024-11-24T09:33:07.105Z,95074,-0.03530622,-0.16982791,-0.72328573
1732440787107,2024-11-24T09:33:07.107Z,95076,-0.03530622,-0.16982791,-0.72328573
1732440787118,2024-11-24T09:33:07.118Z,95087,-0.016566124,-0.15806906,-0.696463
1732440787121,2024-11-24T09:33:07.121Z,95090,-0.016566124,-0.15806906,-0.696463
1732440787129,2024-11-24T09:33:07.129Z,95098,-0.051122297,-0.13583294,-0.6552709
1732440787132,2024-11-24T09:33:07.132Z,95101,-0.051122297,-0.13583294,-0.6552709
1732440787141,2024-11-24T09:33:07.141Z,95110,-0.039668802,-0.13269484,-0.667386
1732440787145,2024-11-24T09:33:07.145Z,95114,-0.039668802,-0.13269484,-0.667386
1732440787154,2024-11-24T09:33:07.154Z,95123,-0.044166483,-0.13392994,-0.6880796
1732440787157,2024-11-24T09:33:07.157Z,95126,-0.044166483,-0.13392994,-0.6880796
1732440787167,2024-11-24T09:33:07.167Z,95136,-0.035462912,-0.13478553,-0.7112994
1732440787169,2024-11-24T09:33:07.169Z,95138,-0.035462912,-0.13478553,-0.7112994
1732440787179,2024-11-24T09:33:07.179Z,95148,0.03926571,-0.10925372,-0.67333895
1732440787181,2024-11-24T09:33:07.181Z,95150,0.03926571,-0.10925372,-0.67333895
1732440787188,2024-11-24T09:33:07.188Z,95157,-0.009739383,-0.10732963,-0.6555657
1732440787191,2024-11-24T09:33:07.191Z,95160,-0.009739383,-0.10732963,-0.6555657
1732440787200,2024-11-24T09:33:07.200Z,95169,-0.04726436,-0.107359044,-0.6632691
1732440787203,2024-11-24T09:33:07.203Z,95172,-0.04726436,-0.107359044,-0.6632691
1732440787213,2024-11-24T09:33:07.213Z,95182,-0.037001174,-0.107448176,-0.6989547
1732440787216,2024-11-24T09:33:07.216Z,95185,-0.037001174,-0.107448176,-0.6989547
1732440787225,2024-11-24T09:33:07.225Z,95194,-0.030493503,-0.116572686,-0.7051466
1732440787228,2024-11-24T09:33:07.228Z,95197,-0.030493503,-0.116572686,-0.7051466
1732440787237,2024-11-24T09:33:07.237Z,95206,-0.0091700945,-0.1128514,-0.7272198
1732440787240,2024-11-24T09:33:07.240Z,95209,-0.0091700945,-0.1128514,-0.7272198
1732440787250,2024-11-24T09:33:07.250Z,95219,-0.0056212097,-0.09746409,-0.682425
1732440787253,2024-11-24T09:33:07.253Z,95222,-0.0056212097,-0.09746409,-0.682425
1732440787261,2024-11-24T09:33:07.261Z,95230,-0.023803493,-0.08784921,-0.66709286
1732440787263,2024-11-24T09:33:07.263Z,95232,-0.023803493,-0.08784921,-0.66709286
1732440787272,2024-11-24T09:33:07.272Z,95241,-0.038750976,-0.08533171,-0.6516114
1732440787274,2024-11-24T09:33:07.274Z,95243,-0.038750976,-0.08533171,-0.6516114
1732440787288,2024-11-24T09:33:07.288Z,95257,-0.024743782,-0.0760605,-0.665162
1732440787301,2024-11-24T09:33:07.301Z,95270,-0.024743782,-0.0760605,-0.665162
1732440787319,2024-11-24T09:33:07.319Z,95288,-0.022719594,-0.06977222,-0.700364
1732440787325,2024-11-24T09:33:07.325Z,95294,-0.022719594,-0.06977222,-0.700364
1732440787340,2024-11-24T09:33:07.340Z,95309,-0.0011895341,-0.06103116,-0.72724795
1732440787344,2024-11-24T09:33:07.344Z,95313,-0.0011895341,-0.06103116,-0.72724795
1732440787355,2024-11-24T09:33:07.355Z,95324,-0.017731808,-0.0654552,-0.7018541
1732440787359,2024-11-24T09:33:07.359Z,95328,-0.017731808,-0.0654552,-0.7018541
1732440787368,2024-11-24T09:33:07.368Z,95337,0.028936325,-0.05749494,-0.6991301
1732440787370,2024-11-24T09:33:07.370Z,95339,0.028936325,-0.05749494,-0.6991301
1732440787379,2024-11-24T09:33:07.379Z,95348,0.04571423,-0.0540266,-0.71902907
1732440787382,2024-11-24T09:33:07.382Z,95351,0.04571423,-0.0540266,-0.71902907
1732440787390,2024-11-24T09:33:07.390Z,95359,0.0138749145,-0.045717414,-0.67268765
1732440787393,2024-11-24T09:33:07.393Z,95362,0.0138749145,-0.045717414,-0.67268765
1732440787401,2024-11-24T09:33:07.401Z,95370,0.024009805,-0.031924285,-0.6701323
1732440787404,2024-11-24T09:33:07.404Z,95373,0.024009805,-0.031924285,-0.6701323
1732440787412,2024-11-24T09:33:07.412Z,95381,0.01714859,-0.023277652,-0.67025554
1732440787415,2024-11-24T09:33:07.415Z,95384,0.01714859,-0.023277652,-0.67025554
1732440787424,2024-11-24T09:33:07.424Z,95393,0.04174273,-0.02351017,-0.6952861
1732440787427,2024-11-24T09:33:07.427Z,95396,0.04174273,-0.02351017,-0.6952861
1732440787435,2024-11-24T09:33:07.435Z,95404,0.033273913,0.01165757,-0.6586381
1732440787438,2024-11-24T09:33:07.438Z,95407,0.033273913,0.01165757,-0.6586381
1732440787446,2024-11-24T09:33:07.446Z,95415,0.08338535,0.017414974,-0.62472934
1732440787449,2024-11-24T09:33:07.449Z,95418,0.08338535,0.017414974,-0.62472934
1732440787460,2024-11-24T09:33:07.460Z,95429,0.089901425,0.02321264,-0.6191575
1732440787463,2024-11-24T09:33:07.463Z,95432,0.089901425,0.02321264,-0.6191575
1732440787471,2024-11-24T09:33:07.471Z,95440,0.012531219,0.020300461,-0.6630441
1732440787474,2024-11-24T09:33:07.474Z,95443,0.012531219,0.020300461,-0.6630441
1732440787484,2024-11-24T09:33:07.484Z,95453,0.042997323,0.014970556,-0.6686529
1732440787486,2024-11-24T09:33:07.486Z,95455,0.042997323,0.014970556,-0.6686529
1732440787495,2024-11-24T09:33:07.495Z,95464,0.060625877,0.011710472,-0.6558739
1732440787498,2024-11-24T09:33:07.498Z,95467,0.060625877,0.011710472,-0.6558739
1732440787506,2024-11-24T09:33:07.506Z,95475,0.050718717,-0.0013164423,-0.6226874
1732440787509,2024-11-24T09:33:07.509Z,95478,0.050718717,-0.0013164423,-0.6226874
1732440787517,2024-11-24T09:33:07.517Z,95486,0.037476424,-3.7168077E-4,-0.6001891
1732440787520,2024-11-24T09:33:07.520Z,95489,0.037476424,-3.7168077E-4,-0.6001891
1732440787531,2024-11-24T09:33:07.531Z,95500,0.006105066,-0.019485185,-0.6335999
1732440787537,2024-11-24T09:33:07.537Z,95506,0.006105066,-0.019485185,-0.6335999
1732440787556,2024-11-24T09:33:07.556Z,95525,-0.022510026,-0.07583741,-0.6805829
1732440787563,2024-11-24T09:33:07.563Z,95532,-0.022510026,-0.07583741,-0.6805829
1732440787577,2024-11-24T09:33:07.577Z,95546,-0.011115365,-0.09658196,-0.71815586
1732440787580,2024-11-24T09:33:07.580Z,95549,-0.011115365,-0.09658196,-0.71815586
1732440787590,2024-11-24T09:33:07.590Z,95559,-0.03307526,-0.13028981,-0.70571166
1732440787594,2024-11-24T09:33:07.594Z,95563,-0.03307526,-0.13028981,-0.70571166
1732440787604,2024-11-24T09:33:07.604Z,95573,-0.07451195,-0.1235169,-0.6543504
1732440787607,2024-11-24T09:33:07.607Z,95576,-0.07451195,-0.1235169,-0.6543504
1732440787617,2024-11-24T09:33:07.617Z,95586,-0.112999804,-0.15685852,-0.64029
1732440787620,2024-11-24T09:33:07.620Z,95589,-0.112999804,-0.15685852,-0.64029
1732440787632,2024-11-24T09:33:07.632Z,95601,-0.13091101,-0.1821138,-0.664212
1732440787638,2024-11-24T09:33:07.638Z,95607,-0.13091101,-0.1821138,-0.664212
1732440787661,2024-11-24T09:33:07.661Z,95630,-0.16056208,-0.18992202,-0.6961254
1732440787667,2024-11-24T09:33:07.667Z,95636,-0.16056208,-0.18992202,-0.6961254
1732440787687,2024-11-24T09:33:07.687Z,95656,-0.10548246,-0.21983722,-0.71882874
1732440787692,2024-11-24T09:33:07.692Z,95661,-0.10548246,-0.21983722,-0.71882874
1732440787705,2024-11-24T09:33:07.705Z,95674,-0.088228256,-0.22791466,-0.7066341
1732440787710,2024-11-24T09:33:07.710Z,95679,-0.088228256,-0.22791466,-0.7066341
1732440787722,2024-11-24T09:33:07.722Z,95691,-0.08333135,-0.21790154,-0.61783206
1732440787725,2024-11-24T09:33:07.725Z,95694,-0.08333135,-0.21790154,-0.61783206
1732440787736,2024-11-24T09:33:07.736Z,95705,-0.08771688,-0.19741996,-0.66228175
1732440787739,2024-11-24T09:33:07.739Z,95708,-0.08771688,-0.19741996,-0.66228175
1732440787748,2024-11-24T09:33:07.748Z,95717,-0.10135599,-0.1868504,-0.6781177
1732440787751,2024-11-24T09:33:07.751Z,95720,-0.10135599,-0.1868504,-0.6781177
1732440787760,2024-11-24T09:33:07.760Z,95729,-0.04893099,-0.18788964,-0.66979426
1732440787763,2024-11-24T09:33:07.763Z,95732,-0.04893099,-0.18788964,-0.66979426
1732440787771,2024-11-24T09:33:07.771Z,95740,-0.019247146,-0.17641343,-0.678097
1732440787774,2024-11-24T09:33:07.774Z,95743,-0.019247146,-0.17641343,-0.678097
1732440787783,2024-11-24T09:33:07.783Z,95752,-0.030160941,-0.16922016,-0.6582603
1732440787786,2024-11-24T09:33:07.786Z,95755,-0.030160941,-0.16922016,-0.6582603
1732440787794,2024-11-24T09:33:07.794Z,95763,-0.028109793,-0.14768183,-0.6490483
1732440787797,2024-11-24T09:33:07.797Z,95766,-0.028109793,-0.14768183,-0.6490483
1732440787806,2024-11-24T09:33:07.806Z,95775,-0.041363414,-0.12512474,-0.6522438
1732440787809,2024-11-24T09:33:07.809Z,95778,-0.041363414,-0.12512474,-0.6522438
1732440787818,2024-11-24T09:33:07.818Z,95787,-0.049473293,-0.11840619,-0.644307
1732440787821,2024-11-24T09:33:07.821Z,95790,-0.049473293,-0.11840619,-0.644307
1732440787830,2024-11-24T09:33:07.830Z,95799,-0.043510403,-0.12019623,-0.6635566
1732440787833,2024-11-24T09:33:07.833Z,95802,-0.043510403,-0.12019623,-0.6635566
1732440787841,2024-11-24T09:33:07.841Z,95810,0.0097397715,-0.10525227,-0.68528366
1732440787844,2024-11-24T09:33:07.844Z,95813,0.0097397715,-0.10525227,-0.68528366
1732440787855,2024-11-24T09:33:07.855Z,95824,-0.033483505,-0.1038343,-0.63471854
1732440787861,2024-11-24T09:33:07.861Z,95830,-0.033483505,-0.1038343,-0.63471854
1732440787882,2024-11-24T09:33:07.882Z,95851,-0.04479458,-0.10103634,-0.61277634
1732440787889,2024-11-24T09:33:07.889Z,95858,-0.04479458,-0.10103634,-0.61277634
1732440787915,2024-11-24T09:33:07.915Z,95884,-0.10207305,-0.12361113,-0.65029705
1732440787921,2024-11-24T09:33:07.921Z,95890,-0.10207305,-0.12361113,-0.65029705
1732440787943,2024-11-24T09:33:07.943Z,95912,-0.082247496,-0.12660655,-0.6969164
1732440787949,2024-11-24T09:33:07.949Z,95918,-0.082247496,-0.12660655,-0.6969164
1732440787960,2024-11-24T09:33:07.960Z,95929,-0.025802858,-0.13131228,-0.6990686
1732440787963,2024-11-24T09:33:07.963Z,95932,-0.025802858,-0.13131228,-0.6990686
1732440787980,2024-11-24T09:33:07.980Z,95949,-0.05202286,-0.13523132,-0.64910847
1732440787986,2024-11-24T09:33:07.986Z,95955,-0.05202286,-0.13523132,-0.64910847
1732440788008,2024-11-24T09:33:08.008Z,95977,-0.06470481,-0.14005193,-0.6309065
1732440788016,2024-11-24T09:33:08.016Z,95985,-0.06470481,-0.14005193,-0.6309065
1732440788034,2024-11-24T09:33:08.034Z,96003,-0.083107896,-0.15717842,-0.665485
1732440788038,2024-11-24T09:33:08.038Z,96007,-0.083107896,-0.15717842,-0.665485
1732440788051,2024-11-24T09:33:08.051Z,96020,-0.12509868,-0.17804827,-0.6859269
1732440788055,2024-11-24T09:33:08.055Z,96024,-0.12509868,-0.17804827,-0.6859269
1732440788067,2024-11-24T09:33:08.067Z,96036,-0.10709937,-0.18648319,-0.66514546
1732440788071,2024-11-24T09:33:08.071Z,96040,-0.10709937,-0.18648319,-0.66514546
1732440788082,2024-11-24T09:33:08.082Z,96051,-0.081960954,-0.18261988,-0.6479733
1732440788085,2024-11-24T09:33:08.085Z,96054,-0.081960954,-0.18261988,-0.6479733
1732440788098,2024-11-24T09:33:08.098Z,96067,-0.14213063,-0.20769379,-0.6902405
1732440788103,2024-11-24T09:33:08.103Z,96072,-0.14213063,-0.20769379,-0.6902405
1732440788124,2024-11-24T09:33:08.124Z,96093,-0.12721498,-0.19285758,-0.640039
1732440788129,2024-11-24T09:33:08.129Z,96098,-0.12721498,-0.19285758,-0.640039
1732440788149,2024-11-24T09:33:08.149Z,96118,-0.09849168,-0.19240724,-0.60323095
1732440788156,2024-11-24T09:33:08.156Z,96125,-0.09849168,-0.19240724,-0.60323095
1732440788170,2024-11-24T09:33:08.170Z,96139,-0.09267095,-0.19079642,-0.6267338
1732440788174,2024-11-24T09:33:08.174Z,96143,-0.09267095,-0.19079642,-0.6267338
1732440788185,2024-11-24T09:33:08.185Z,96154,-0.10283992,-0.2037692,-0.6967371
1732440788188,2024-11-24T09:33:08.188Z,96157,-0.10283992,-0.2037692,-0.6967371
1732440788198,2024-11-24T09:33:08.198Z,96167,-0.11440304,-0.19728118,-0.69938433
1732440788201,2024-11-24T09:33:08.201Z,96170,-0.11440304,-0.19728118,-0.69938433
1732440788211,2024-11-24T09:33:08.211Z,96180,-0.02118646,-0.17580219,-0.6571648
1732440788214,2024-11-24T09:33:08.214Z,96183,-0.02118646,-0.17580219,-0.6571648
1732440788223,2024-11-24T09:33:08.223Z,96192,-0.020290468,-0.16624546,-0.6446291
1732440788225,2024-11-24T09:33:08.225Z,96194,-0.020290468,-0.16624546,-0.6446291
1732440788234,2024-11-24T09:33:08.234Z,96203,-0.03652736,-0.15643515,-0.63130975
1732440788237,2024-11-24T09:33:08.237Z,96206,-0.03652736,-0.15643515,-0.63130975
1732440788246,2024-11-24T09:33:08.246Z,96215,-0.05438029,-0.15487997,-0.6253583
1732440788249,2024-11-24T09:33:08.249Z,96218,-0.05438029,-0.15487997,-0.6253583
1732440788256,2024-11-24T09:33:08.256Z,96225,-0.06747866,-0.16483347,-0.6402003
1732440788259,2024-11-24T09:33:08.259Z,96228,-0.06747866,-0.16483347,-0.6402003
1732440788267,2024-11-24T09:33:08.267Z,96236,-0.021459896,-0.16112433,-0.6545412
1732440788269,2024-11-24T09:33:08.269Z,96238,-0.021459896,-0.16112433,-0.6545412
1732440788278,2024-11-24T09:33:08.278Z,96247,9.263088E-4,-0.114644796,-0.6159808
1732440788281,2024-11-24T09:33:08.281Z,96250,9.263088E-4,-0.114644796,-0.6159808
1732440788291,2024-11-24T09:33:08.291Z,96260,-0.03783972,-0.12985896,-0.6249964
1732440788294,2024-11-24T09:33:08.294Z,96263,-0.03783972,-0.12985896,-0.6249964
1732440788303,2024-11-24T09:33:08.303Z,96272,-0.07122138,-0.124598004,-0.61304736
1732440788305,2024-11-24T09:33:08.305Z,96274,-0.07122138,-0.124598004,-0.61304736
1732440788316,2024-11-24T09:33:08.316Z,96285,-0.019381931,-0.11865636,-0.61724645
1732440788319,2024-11-24T09:33:08.319Z,96288,-0.019381931,-0.11865636,-0.61724645
1732440788326,2024-11-24T09:33:08.326Z,96295,-0.008858222,-0.11741796,-0.6424004
1732440788328,2024-11-24T09:33:08.328Z,96297,-0.008858222,-0.11741796,-0.6424004
1732440788337,2024-11-24T09:33:08.337Z,96306,-0.032916844,-0.10318911,-0.6462629
1732440788340,2024-11-24T09:33:08.340Z,96309,-0.032916844,-0.10318911,-0.6462629
1732440788349,2024-11-24T09:33:08.349Z,96318,-0.016604537,-0.10525407,-0.6393522
1732440788351,2024-11-24T09:33:08.351Z,96320,-0.016604537,-0.10525407,-0.6393522
1732440788361,2024-11-24T09:33:08.361Z,96330,-0.010551741,-0.11201556,-0.6893761
1732440788364,2024-11-24T09:33:08.364Z,96333,-0.010551741,-0.11201556,-0.6893761
1732440788372,2024-11-24T09:33:08.372Z,96341,-0.07381123,-0.12835477,-0.6414872
1732440788375,2024-11-24T09:33:08.375Z,96344,-0.07381123,-0.12835477,-0.6414872
1732440788384,2024-11-24T09:33:08.384Z,96353,-0.09393354,-0.13009629,-0.5866828
1732440788386,2024-11-24T09:33:08.386Z,96355,-0.09393354,-0.13009629,-0.5866828
1732440788394,2024-11-24T09:33:08.394Z,96363,-0.12963095,-0.14646488,-0.67299616
1732440788396,2024-11-24T09:33:08.396Z,96365,-0.12963095,-0.14646488,-0.67299616
1732440788404,2024-11-24T09:33:08.404Z,96373,-0.092770115,-0.13901089,-0.6335404
1732440788406,2024-11-24T09:33:08.406Z,96375,-0.092770115,-0.13901089,-0.6335404
1732440788415,2024-11-24T09:33:08.415Z,96384,-0.06383065,-0.134444,-0.6312027
1732440788419,2024-11-24T09:33:08.419Z,96388,-0.06383065,-0.134444,-0.6312027
1732440788427,2024-11-24T09:33:08.427Z,96396,-0.078798875,-0.12660335,-0.633218
1732440788429,2024-11-24T09:33:08.429Z,96398,-0.078798875,-0.12660335,-0.633218
1732440788438,2024-11-24T09:33:08.438Z,96407,-0.07906706,-0.12754232,-0.65177804
1732440788440,2024-11-24T09:33:08.440Z,96409,-0.07906706,-0.12754232,-0.65177804
1732440788449,2024-11-24T09:33:08.449Z,96418,-0.052262478,-0.13467641,-0.67176455
1732440788452,2024-11-24T09:33:08.452Z,96421,-0.052262478,-0.13467641,-0.67176455
1732440788462,2024-11-24T09:33:08.462Z,96431,-0.016795265,-0.114669986,-0.6384177
1732440788465,2024-11-24T09:33:08.465Z,96434,-0.016795265,-0.114669986,-0.6384177
1732440788473,2024-11-24T09:33:08.473Z,96442,0.008960575,-0.11335782,-0.63835007
1732440788476,2024-11-24T09:33:08.476Z,96445,0.008960575,-0.11335782,-0.63835007
1732440788485,2024-11-24T09:33:08.485Z,96454,-0.0075670877,-0.1010695,-0.6239905
1732440788487,2024-11-24T09:33:08.487Z,96456,-0.0075670877,-0.1010695,-0.6239905
1732440788497,2024-11-24T09:33:08.497Z,96466,-0.02849684,-0.096927136,-0.60572875
1732440788499,2024-11-24T09:33:08.499Z,96468,-0.02849684,-0.096927136,-0.60572875
1732440788507,2024-11-24T09:33:08.507Z,96476,-0.018741434,-0.09321451,-0.60590595
1732440788510,2024-11-24T09:33:08.510Z,96479,-0.018741434,-0.09321451,-0.60590595
1732440788520,2024-11-24T09:33:08.520Z,96489,-0.0151246935,-0.09406475,-0.6107684
1732440788524,2024-11-24T09:33:08.524Z,96493,-0.0151246935,-0.09406475,-0.6107684
1732440788534,2024-11-24T09:33:08.534Z,96503,-0.022753559,-0.071051076,-0.581876
1732440788536,2024-11-24T09:33:08.536Z,96505,-0.022753559,-0.071051076,-0.581876
1732440788549,2024-11-24T09:33:08.549Z,96518,-0.012265198,-0.057174604,-0.60443294
1732440788554,2024-11-24T09:33:08.554Z,96523,-0.012265198,-0.057174604,-0.60443294
1732440788563,2024-11-24T09:33:08.563Z,96532,-0.039692238,-0.045447018,-0.59212536
1732440788566,2024-11-24T09:33:08.566Z,96535,-0.039692238,-0.045447018,-0.59212536
1732440788573,2024-11-24T09:33:08.573Z,96542,0.01744393,-0.006566409,-0.52712303
1732440788576,2024-11-24T09:33:08.576Z,96545,0.01744393,-0.006566409,-0.52712303
1732440788584,2024-11-24T09:33:08.584Z,96553,-0.014242997,-4.0207067E-4,-0.536705
1732440788587,2024-11-24T09:33:08.587Z,96556,-0.014242997,-4.0207067E-4,-0.536705
1732440788594,2024-11-24T09:33:08.594Z,96563,-0.009804442,-0.0077072703,-0.5425023
1732440788596,2024-11-24T09:33:08.596Z,96565,-0.009804442,-0.0077072703,-0.5425023
1732440788605,2024-11-24T09:33:08.605Z,96574,0.032553647,1.6823855E-4,-0.5623632
1732440788608,2024-11-24T09:33:08.608Z,96577,0.032553647,1.6823855E-4,-0.5623632
1732440788617,2024-11-24T09:33:08.617Z,96586,0.030324342,-0.0020554278,-0.56938607
1732440788621,2024-11-24T09:33:08.621Z,96590,0.030324342,-0.0020554278,-0.56938607
1732440788628,2024-11-24T09:33:08.628Z,96597,-0.0018771483,-0.017351715,-0.5519457
1732440788631,2024-11-24T09:33:08.631Z,96600,-0.0018771483,-0.017351715,-0.5519457
1732440788639,2024-11-24T09:33:08.639Z,96608,-0.057960488,-0.0077872565,-0.5129084
1732440788642,2024-11-24T09:33:08.642Z,96611,-0.057960488,-0.0077872565,-0.5129084
1732440788653,2024-11-24T09:33:08.653Z,96622,-0.05254559,-0.027186912,-0.5471449
1732440788656,2024-11-24T09:33:08.656Z,96625,-0.05254559,-0.027186912,-0.5471449
1732440788663,2024-11-24T09:33:08.663Z,96632,-0.017984554,-0.029053872,-0.6217465
1732440788665,2024-11-24T09:33:08.665Z,96634,-0.017984554,-0.029053872,-0.6217465
1732440788672,2024-11-24T09:33:08.672Z,96641,0.04772847,-0.027475057,-0.5552247
1732440788674,2024-11-24T09:33:08.674Z,96643,0.04772847,-0.027475057,-0.5552247
1732440788682,2024-11-24T09:33:08.682Z,96651,0.017295457,-0.008339672,-0.48802376
1732440788685,2024-11-24T09:33:08.685Z,96654,0.017295457,-0.008339672,-0.48802376
1732440788694,2024-11-24T09:33:08.694Z,96663,-0.012230504,-0.008460454,-0.47101745
1732440788697,2024-11-24T09:33:08.697Z,96666,-0.012230504,-0.008460454,-0.47101745
1732440788707,2024-11-24T09:33:08.707Z,96676,-0.07809952,-0.012588328,-0.5093473
1732440788710,2024-11-24T09:33:08.710Z,96679,-0.07809952,-0.012588328,-0.5093473
1732440788720,2024-11-24T09:33:08.720Z,96689,-0.08371929,-0.017688533,-0.5748172
1732440788722,2024-11-24T09:33:08.722Z,96691,-0.08371929,-0.017688533,-0.5748172
1732440788730,2024-11-24T09:33:08.730Z,96699,0.0133094685,-0.017460437,-0.61879575
1732440788732,2024-11-24T09:33:08.732Z,96701,0.0133094685,-0.017460437,-0.61879575
1732440788741,2024-11-24T09:33:08.741Z,96710,-0.053216066,-0.013503526,-0.49804625
1732440788743,2024-11-24T09:33:08.743Z,96712,-0.053216066,-0.013503526,-0.49804625
1732440788751,2024-11-24T09:33:08.751Z,96720,-0.07779914,-0.023133237,-0.5361793
1732440788753,2024-11-24T09:33:08.753Z,96722,-0.07779914,-0.023133237,-0.5361793
1732440788761,2024-11-24T09:33:08.761Z,96730,-0.08754509,-0.04711214,-0.5505597
1732440788764,2024-11-24T09:33:08.764Z,96733,-0.08754509,-0.04711214,-0.5505597
1732440788771,2024-11-24T09:33:08.771Z,96740,-0.031269833,-0.02957512,-0.5288548
1732440788773,2024-11-24T09:33:08.773Z,96742,-0.031269833,-0.02957512,-0.5288548
1732440788781,2024-11-24T09:33:08.781Z,96750,-0.002476097,-0.035984717,-0.54277307
1732440788783,2024-11-24T09:33:08.783Z,96752,-0.002476097,-0.035984717,-0.54277307
1732440788793,2024-11-24T09:33:08.793Z,96762,0.044047184,-0.03314275,-0.5825055
1732440788796,2024-11-24T09:33:08.796Z,96765,0.044047184,-0.03314275,-0.5825055
1732440788804,2024-11-24T09:33:08.804Z,96773,0.002915049,-0.0100778295,-0.5019236
1732440788806,2024-11-24T09:33:08.806Z,96775,0.002915049,-0.0100778295,-0.5019236
1732440788813,2024-11-24T09:33:08.813Z,96782,0.0060029556,-0.010949315,-0.47199175
1732440788816,2024-11-24T09:33:08.816Z,96785,0.0060029556,-0.010949315,-0.47199175
1732440788825,2024-11-24T09:33:08.825Z,96794,-0.019299222,-0.017407827,-0.5034817
1732440788828,2024-11-24T09:33:08.828Z,96797,-0.019299222,-0.017407827,-0.5034817
1732440788837,2024-11-24T09:33:08.837Z,96806,0.025987433,-0.052052762,-0.582993
1732440788840,2024-11-24T09:33:08.840Z,96809,0.025987433,-0.052052762,-0.582993
1732440788849,2024-11-24T09:33:08.849Z,96818,-0.023957096,-0.036620524,-0.523262
1732440788853,2024-11-24T09:33:08.853Z,96822,-0.023957096,-0.036620524,-0.523262
1732440788860,2024-11-24T09:33:08.860Z,96829,-0.021966824,-0.022482261,-0.49795625
1732440788863,2024-11-24T09:33:08.863Z,96832,-0.021966824,-0.022482261,-0.49795625
1732440788870,2024-11-24T09:33:08.870Z,96839,-0.08463357,-0.05169815,-0.51245934
1732440788872,2024-11-24T09:33:08.872Z,96841,-0.08463357,-0.05169815,-0.51245934
1732440788880,2024-11-24T09:33:08.880Z,96849,-0.123487115,-0.07920666,-0.549659
1732440788882,2024-11-24T09:33:08.882Z,96851,-0.123487115,-0.07920666,-0.549659
1732440788892,2024-11-24T09:33:08.892Z,96861,-0.18158706,-0.081420794,-0.5357219
1732440788895,2024-11-24T09:33:08.895Z,96864,-0.18158706,-0.081420794,-0.5357219
1732440788905,2024-11-24T09:33:08.905Z,96874,0.009371714,-0.101341896,-0.5492131
1732440788907,2024-11-24T09:33:08.907Z,96876,0.009371714,-0.101341896,-0.5492131
1732440788920,2024-11-24T09:33:08.920Z,96889,-0.06869564,-0.12339028,-0.52509874
1732440788922,2024-11-24T09:33:08.922Z,96891,-0.06869564,-0.12339028,-0.52509874
1732440788930,2024-11-24T09:33:08.930Z,96899,-0.114983246,-0.13050322,-0.5203499
1732440788933,2024-11-24T09:33:08.933Z,96902,-0.114983246,-0.13050322,-0.5203499
1732440788940,2024-11-24T09:33:08.940Z,96909,-0.12527683,-0.13562813,-0.51522624
1732440788942,2024-11-24T09:33:08.942Z,96911,-0.12527683,-0.13562813,-0.51522624
1732440788950,2024-11-24T09:33:08.950Z,96919,-0.067166835,-0.14990015,-0.52329516
1732440788953,2024-11-24T09:33:08.953Z,96922,-0.067166835,-0.14990015,-0.52329516
1732440788960,2024-11-24T09:33:08.960Z,96929,0.034972686,-0.14962387,-0.5700334
1732440788963,2024-11-24T09:33:08.963Z,96932,0.034972686,-0.14962387,-0.5700334
1732440788972,2024-11-24T09:33:08.972Z,96941,-0.034285534,-0.13123113,-0.48832843
1732440788975,2024-11-24T09:33:08.975Z,96944,-0.034285534,-0.13123113,-0.48832843
1732440788985,2024-11-24T09:33:08.985Z,96954,-0.1238968,-0.13530284,-0.4524564
1732440788990,2024-11-24T09:33:08.990Z,96959,-0.1238968,-0.13530284,-0.4524564
1732440788999,2024-11-24T09:33:08.999Z,96968,-0.13707843,-0.13328047,-0.45049006
1732440789002,2024-11-24T09:33:09.002Z,96971,-0.13707843,-0.13328047,-0.45049006
1732440789012,2024-11-24T09:33:09.012Z,96981,-0.06125823,-0.12319695,-0.49512658
1732440789015,2024-11-24T09:33:09.015Z,96984,-0.06125823,-0.12319695,-0.49512658
1732440789022,2024-11-24T09:33:09.022Z,96991,-0.05227009,-0.12295889,-0.55083203
1732440789024,2024-11-24T09:33:09.024Z,96993,-0.05227009,-0.12295889,-0.55083203
1732440789032,2024-11-24T09:33:09.032Z,97001,-0.048237395,-0.12250732,-0.6131005
1732440789034,2024-11-24T09:33:09.034Z,97003,-0.048237395,-0.12250732,-0.6131005
1732440789042,2024-11-24T09:33:09.042Z,97011,-0.07712162,-0.13046423,-0.60787845
1732440789045,2024-11-24T09:33:09.045Z,97014,-0.07712162,-0.13046423,-0.60787845
1732440789055,2024-11-24T09:33:09.055Z,97024,-0.17628519,-0.11952113,-0.5320392
1732440789057,2024-11-24T09:33:09.057Z,97026,-0.17628519,-0.11952113,-0.5320392
1732440789066,2024-11-24T09:33:09.066Z,97035,-0.17896771,-0.12678024,-0.5431448
1732440789069,2024-11-24T09:33:09.069Z,97038,-0.17896771,-0.12678024,-0.5431448
1732440789076,2024-11-24T09:33:09.076Z,97045,-0.06984552,-0.13819624,-0.5161436
1732440789079,2024-11-24T09:33:09.079Z,97048,-0.06984552,-0.13819624,-0.5161436
1732440789087,2024-11-24T09:33:09.087Z,97056,-0.058625225,-0.14138111,-0.5109754
1732440789089,2024-11-24T09:33:09.089Z,97058,-0.058625225,-0.14138111,-0.5109754
1732440789098,2024-11-24T09:33:09.098Z,97067,-0.07141879,-0.12872486,-0.5035386
1732440789101,2024-11-24T09:33:09.101Z,97070,-0.07141879,-0.12872486,-0.5035386
1732440789110,2024-11-24T09:33:09.110Z,97079,0.012208113,-0.13899699,-0.6409167
1732440789113,2024-11-24T09:33:09.113Z,97082,0.012208113,-0.13899699,-0.6409167
1732440789121,2024-11-24T09:33:09.121Z,97090,-0.009203985,-0.14825696,-0.6149731
1732440789123,2024-11-24T09:33:09.123Z,97092,-0.009203985,-0.14825696,-0.6149731
1732440789130,2024-11-24T09:33:09.130Z,97099,-0.020424766,-0.1326238,-0.5437171
1732440789132,2024-11-24T09:33:09.132Z,97101,-0.020424766,-0.1326238,-0.5437171
1732440789140,2024-11-24T09:33:09.140Z,97109,-0.027521444,-0.1568184,-0.48805726
1732440789143,2024-11-24T09:33:09.143Z,97112,-0.027521444,-0.1568184,-0.48805726
1732440789153,2024-11-24T09:33:09.153Z,97122,-0.0495789,-0.16034237,-0.4695201
1732440789156,2024-11-24T09:33:09.156Z,97125,-0.0495789,-0.16034237,-0.4695201
1732440789165,2024-11-24T09:33:09.165Z,97134,-0.06003651,-0.15527761,-0.4840493
1732440789167,2024-11-24T09:33:09.167Z,97136,-0.06003651,-0.15527761,-0.4840493
1732440789175,2024-11-24T09:33:09.175Z,97144,-0.027223842,-0.16277722,-0.5316777
1732440789178,2024-11-24T09:33:09.178Z,97147,-0.027223842,-0.16277722,-0.5316777
1732440789186,2024-11-24T09:33:09.186Z,97155,-0.06391176,-0.17323776,-0.5293401
1732440789188,2024-11-24T09:33:09.188Z,97157,-0.06391176,-0.17323776,-0.5293401
1732440789197,2024-11-24T09:33:09.197Z,97166,-0.02486415,-0.1777782,-0.54983586
1732440789199,2024-11-24T09:33:09.199Z,97168,-0.02486415,-0.1777782,-0.54983586
1732440789207,2024-11-24T09:33:09.207Z,97176,-0.07966742,-0.17238873,-0.48047155
1732440789210,2024-11-24T09:33:09.210Z,97179,-0.07966742,-0.17238873,-0.48047155
1732440789218,2024-11-24T09:33:09.218Z,97187,-0.0597533,-0.16506958,-0.5220265
1732440789221,2024-11-24T09:33:09.221Z,97190,-0.0597533,-0.16506958,-0.5220265
1732440789228,2024-11-24T09:33:09.228Z,97197,-0.0059370217,-0.16487159,-0.54197043
1732440789231,2024-11-24T09:33:09.231Z,97200,-0.0059370217,-0.16487159,-0.54197043
1732440789239,2024-11-24T09:33:09.239Z,97208,-0.02111282,-0.17152834,-0.49853623
1732440789242,2024-11-24T09:33:09.242Z,97211,-0.02111282,-0.17152834,-0.49853623
1732440789250,2024-11-24T09:33:09.250Z,97219,-0.01853376,-0.17637089,-0.47328198
1732440789253,2024-11-24T09:33:09.253Z,97222,-0.01853376,-0.17637089,-0.47328198
1732440789259,2024-11-24T09:33:09.259Z,97228,-0.022604307,-0.16279821,-0.4864965
1732440789262,2024-11-24T09:33:09.262Z,97231,-0.022604307,-0.16279821,-0.4864965
1732440789269,2024-11-24T09:33:09.269Z,97238,-0.03205489,-0.15540083,-0.5267892
1732440789271,2024-11-24T09:33:09.271Z,97240,-0.03205489,-0.15540083,-0.5267892
1732440789281,2024-11-24T09:33:09.281Z,97250,-0.01847162,-0.18568785,-0.5388487
1732440789284,2024-11-24T09:33:09.284Z,97253,-0.01847162,-0.18568785,-0.5388487
1732440789291,2024-11-24T09:33:09.291Z,97260,0.053399693,-0.1793512,-0.50179535
1732440789293,2024-11-24T09:33:09.293Z,97262,0.053399693,-0.1793512,-0.50179535
1732440789302,2024-11-24T09:33:09.302Z,97271,0.009874922,-0.19033779,-0.5071282
1732440789305,2024-11-24T09:33:09.305Z,97274,0.009874922,-0.19033779,-0.5071282
1732440789313,2024-11-24T09:33:09.313Z,97282,-0.03177377,-0.2092041,-0.571192
1732440789316,2024-11-24T09:33:09.316Z,97285,-0.03177377,-0.2092041,-0.571192
1732440789323,2024-11-24T09:33:09.323Z,97292,-0.032967,-0.23569365,-0.47755334
1732440789325,2024-11-24T09:33:09.325Z,97294,-0.032967,-0.23569365,-0.47755334
1732440789333,2024-11-24T09:33:09.333Z,97302,-0.0435175,-0.23207797,-0.47108302
1732440789335,2024-11-24T09:33:09.335Z,97304,-0.0435175,-0.23207797,-0.47108302
1732440789343,2024-11-24T09:33:09.343Z,97312,-0.062212646,-0.2531154,-0.5586649
1732440789345,2024-11-24T09:33:09.345Z,97314,-0.062212646,-0.2531154,-0.5586649
1732440789354,2024-11-24T09:33:09.354Z,97323,-0.05819877,-0.19935115,-0.46633497
1732440789357,2024-11-24T09:33:09.357Z,97326,-0.05819877,-0.19935115,-0.46633497
1732440789363,2024-11-24T09:33:09.363Z,97332,-0.0024520282,-0.18286203,-0.50105363
1732440789366,2024-11-24T09:33:09.366Z,97335,-0.0024520282,-0.18286203,-0.50105363
1732440789374,2024-11-24T09:33:09.374Z,97343,-6.379207E-4,-0.17639276,-0.538463
1732440789376,2024-11-24T09:33:09.376Z,97345,-6.379207E-4,-0.17639276,-0.538463
1732440789385,2024-11-24T09:33:09.385Z,97354,-0.058604803,-0.18053493,-0.5039647
1732440789388,2024-11-24T09:33:09.388Z,97357,-0.058604803,-0.18053493,-0.5039647
1732440789397,2024-11-24T09:33:09.397Z,97366,-0.054153875,-0.18674323,-0.4958865
1732440789399,2024-11-24T09:33:09.399Z,97368,-0.054153875,-0.18674323,-0.4958865
1732440789407,2024-11-24T09:33:09.407Z,97376,-0.05171619,-0.18946199,-0.49066365
1732440789409,2024-11-24T09:33:09.409Z,97378,-0.05171619,-0.18946199,-0.49066365
1732440789419,2024-11-24T09:33:09.419Z,97388,-0.11015871,-0.19888927,-0.43140548
1732440789421,2024-11-24T09:33:09.421Z,97390,-0.11015871,-0.19888927,-0.43140548
1732440789428,2024-11-24T09:33:09.428Z,97397,-0.052075107,-0.21452884,-0.45040798
1732440789432,2024-11-24T09:33:09.432Z,97401,-0.052075107,-0.21452884,-0.45040798
1732440789460,2024-11-24T09:33:09.460Z,97429,0.06359507,-0.19930783,-0.52469766
1732440789463,2024-11-24T09:33:09.463Z,97432,0.06359507,-0.19930783,-0.52469766
1732440789471,2024-11-24T09:33:09.471Z,97440,-0.071973205,-0.20498374,-0.4883824
1732440789473,2024-11-24T09:33:09.473Z,97442,-0.071973205,-0.20498374,-0.4883824
1732440789481,2024-11-24T09:33:09.481Z,97450,-0.095651366,-0.20206466,-0.44460604
1732440789483,2024-11-24T09:33:09.483Z,97452,-0.095651366,-0.20206466,-0.44460604
1732440789490,2024-11-24T09:33:09.490Z,97459,-0.09921163,-0.20906645,-0.4154122
1732440789492,2024-11-24T09:33:09.492Z,97461,-0.09921163,-0.20906645,-0.4154122
1732440789505,2024-11-24T09:33:09.505Z,97474,-0.11424919,-0.20668699,-0.4283824
1732440789507,2024-11-24T09:33:09.507Z,97476,-0.11424919,-0.20668699,-0.4283824
1732440789515,2024-11-24T09:33:09.515Z,97484,-0.11034453,-0.21100172,-0.44677073
1732440789518,2024-11-24T09:33:09.518Z,97487,-0.11034453,-0.21100172,-0.44677073
1732440789525,2024-11-24T09:33:09.525Z,97494,-0.013619566,-0.21434578,-0.53252566
1732440789527,2024-11-24T09:33:09.527Z,97496,-0.013619566,-0.21434578,-0.53252566
1732440789551,2024-11-24T09:33:09.551Z,97520,-0.10257008,-0.20347309,-0.47817314
1732440789553,2024-11-24T09:33:09.553Z,97522,-0.10257008,-0.20347309,-0.47817314
1732440789560,2024-11-24T09:33:09.560Z,97529,-0.112936564,-0.21493894,-0.4393039
1732440789563,2024-11-24T09:33:09.563Z,97532,-0.112936564,-0.21493894,-0.4393039
1732440789571,2024-11-24T09:33:09.571Z,97540,-0.13030532,-0.22383799,-0.4086009
1732440789573,2024-11-24T09:33:09.573Z,97542,-0.13030532,-0.22383799,-0.4086009
1732440789598,2024-11-24T09:33:09.598Z,97567,-0.12962174,-0.20064951,-0.45495477
1732440789601,2024-11-24T09:33:09.601Z,97570,-0.12962174,-0.20064951,-0.45495477
1732440789610,2024-11-24T09:33:09.610Z,97579,-0.08210503,-0.21240214,-0.51980656
1732440789612,2024-11-24T09:33:09.612Z,97581,-0.08210503,-0.21240214,-0.51980656
1732440789641,2024-11-24T09:33:09.641Z,97610,-0.018650385,-0.20244528,-0.5687991
1732440789644,2024-11-24T09:33:09.644Z,97613,-0.018650385,-0.20244528,-0.5687991
1732440789653,2024-11-24T09:33:09.653Z,97622,-0.051967744,-0.19513395,-0.4856502
1732440789657,2024-11-24T09:33:09.657Z,97626,-0.051967744,-0.19513395,-0.4856502
1732440789665,2024-11-24T09:33:09.665Z,97634,-0.058893338,-0.18461618,-0.4492152
1732440789668,2024-11-24T09:33:09.668Z,97637,-0.058893338,-0.18461618,-0.4492152
1732440789689,2024-11-24T09:33:09.689Z,97658,-0.09496298,-0.18857864,-0.43002394
1732440789696,2024-11-24T09:33:09.696Z,97665,-0.09496298,-0.18857864,-0.43002394
1732440789719,2024-11-24T09:33:09.719Z,97688,-0.036586512,-0.18389149,-0.49687076
1732440789725,2024-11-24T09:33:09.725Z,97694,-0.036586512,-0.18389149,-0.49687076
1732440789743,2024-11-24T09:33:09.743Z,97712,-0.007921994,-0.19267379,-0.52209336
1732440789749,2024-11-24T09:33:09.749Z,97718,-0.007921994,-0.19267379,-0.52209336
1732440789768,2024-11-24T09:33:09.768Z,97737,0.015473206,-0.18445276,-0.56132543
1732440789774,2024-11-24T09:33:09.774Z,97743,0.015473206,-0.18445276,-0.56132543
1732440789791,2024-11-24T09:33:09.791Z,97760,-0.014378171,-0.1864264,-0.5453677
1732440789795,2024-11-24T09:33:09.795Z,97764,-0.014378171,-0.1864264,-0.5453677
1732440789808,2024-11-24T09:33:09.808Z,97777,-0.04844689,-0.2014462,-0.5275965
1732440789812,2024-11-24T09:33:09.812Z,97781,-0.04844689,-0.2014462,-0.5275965
1732440789823,2024-11-24T09:33:09.823Z,97792,-0.11377983,-0.21442747,-0.4933348
1732440789827,2024-11-24T09:33:09.827Z,97796,-0.11377983,-0.21442747,-0.4933348
1732440789838,2024-11-24T09:33:09.838Z,97807,-0.0270813,-0.2352342,-0.55009085
1732440789841,2024-11-24T09:33:09.841Z,97810,-0.0270813,-0.2352342,-0.55009085
1732440789850,2024-11-24T09:33:09.850Z,97819,-0.032356285,-0.2607901,-0.5664128
1732440789853,2024-11-24T09:33:09.853Z,97822,-0.032356285,-0.2607901,-0.5664128
1732440789865,2024-11-24T09:33:09.865Z,97834,-0.035650622,-0.2475,-0.5654676
1732440789870,2024-11-24T09:33:09.870Z,97839,-0.035650622,-0.2475,-0.5654676
1732440789890,2024-11-24T09:33:09.890Z,97859,-0.06675939,-0.24370098,-0.47962713
1732440789895,2024-11-24T09:33:09.895Z,97864,-0.06675939,-0.24370098,-0.47962713
1732440789915,2024-11-24T09:33:09.915Z,97884,-0.08956315,-0.24624541,-0.44283915
1732440789920,2024-11-24T09:33:09.920Z,97889,-0.08956315,-0.24624541,-0.44283915
1732440789939,2024-11-24T09:33:09.939Z,97908,-0.097658955,-0.25061888,-0.47175226
1732440789948,2024-11-24T09:33:09.948Z,97917,-0.097658955,-0.25061888,-0.47175226
1732440789962,2024-11-24T09:33:09.962Z,97931,-0.026559154,-0.2360735,-0.54860413
1732440789965,2024-11-24T09:33:09.965Z,97934,-0.026559154,-0.2360735,-0.54860413
1732440789975,2024-11-24T09:33:09.975Z,97944,0.0030877609,-0.23079139,-0.53268516
1732440789978,2024-11-24T09:33:09.978Z,97947,0.0030877609,-0.23079139,-0.53268516
1732440789988,2024-11-24T09:33:09.988Z,97957,0.008245367,-0.218198,-0.550509
1732440789991,2024-11-24T09:33:09.991Z,97960,0.008245367,-0.218198,-0.550509
1732440790000,2024-11-24T09:33:10Z,97969,-0.076616585,-0.2156856,-0.49462888
1732440790002,2024-11-24T09:33:10.002Z,97971,-0.076616585,-0.2156856,-0.49462888
1732440790013,2024-11-24T09:33:10.013Z,97982,-0.11499868,-0.2092549,-0.4550715
1732440790016,2024-11-24T09:33:10.016Z,97985,-0.11499868,-0.2092549,-0.4550715
1732440790023,2024-11-24T09:33:10.023Z,97992,-0.048100058,-0.17742471,-0.5135734
1732440790025,2024-11-24T09:33:10.025Z,97994,-0.048100058,-0.17742471,-0.5135734
1732440790033,2024-11-24T09:33:10.033Z,98002,-0.009744853,-0.16250551,-0.5390432
1732440790036,2024-11-24T09:33:10.036Z,98005,-0.009744853,-0.16250551,-0.5390432
1732440790044,2024-11-24T09:33:10.044Z,98013,-0.025688931,-0.1518415,-0.5218661
1732440790046,2024-11-24T09:33:10.046Z,98015,-0.025688931,-0.1518415,-0.5218661
1732440790054,2024-11-24T09:33:10.054Z,98023,-0.032288525,-0.1394402,-0.42208844
1732440790056,2024-11-24T09:33:10.056Z,98025,-0.032288525,-0.1394402,-0.42208844
1732440790064,2024-11-24T09:33:10.064Z,98033,-0.061088923,-0.13873583,-0.41577515
1732440790066,2024-11-24T09:33:10.066Z,98035,-0.061088923,-0.13873583,-0.41577515
1732440790075,2024-11-24T09:33:10.075Z,98044,-0.06939415,-0.15555993,-0.47287193
1732440790077,2024-11-24T09:33:10.077Z,98046,-0.06939415,-0.15555993,-0.47287193
1732440790085,2024-11-24T09:33:10.085Z,98054,-0.005904857,-0.16686283,-0.5196059
1732440790087,2024-11-24T09:33:10.087Z,98056,-0.005904857,-0.16686283,-0.5196059
1732440790100,2024-11-24T09:33:10.100Z,98069,0.025310323,-0.15344372,-0.4695977
1732440790105,2024-11-24T09:33:10.105Z,98074,0.025310323,-0.15344372,-0.4695977
1732440790115,2024-11-24T09:33:10.115Z,98084,-0.026136272,-0.1567763,-0.4347925
1732440790117,2024-11-24T09:33:10.117Z,98086,-0.026136272,-0.1567763,-0.4347925
1732440790124,2024-11-24T09:33:10.124Z,98093,-0.040132843,-0.1736905,-0.43634027
1732440790126,2024-11-24T09:33:10.126Z,98095,-0.040132843,-0.1736905,-0.43634027
1732440790133,2024-11-24T09:33:10.133Z,98102,-0.055129122,-0.19704784,-0.4952517
1732440790135,2024-11-24T09:33:10.135Z,98104,-0.055129122,-0.19704784,-0.4952517
1732440790143,2024-11-24T09:33:10.143Z,98112,-0.04656495,-0.21027508,-0.46864054
1732440790145,2024-11-24T09:33:10.145Z,98114,-0.04656495,-0.21027508,-0.46864054
1732440790152,2024-11-24T09:33:10.152Z,98121,-0.03790468,-0.22250924,-0.48395684
1732440790154,2024-11-24T09:33:10.154Z,98123,-0.03790468,-0.22250924,-0.48395684
1732440790160,2024-11-24T09:33:10.160Z,98129,-0.030808732,-0.26840764,-0.4875558
1732440790162,2024-11-24T09:33:10.162Z,98131,-0.030808732,-0.26840764,-0.4875558
1732440790170,2024-11-24T09:33:10.170Z,98139,-0.08654213,-0.2708489,-0.49177796
1732440790173,2024-11-24T09:33:10.173Z,98142,-0.08654213,-0.2708489,-0.49177796
1732440790182,2024-11-24T09:33:10.182Z,98151,-0.08786144,-0.27701128,-0.49369505
1732440790185,2024-11-24T09:33:10.185Z,98154,-0.08786144,-0.27701128,-0.49369505
1732440790192,2024-11-24T09:33:10.192Z,98161,-0.09126171,-0.31977457,-0.47878015
1732440790194,2024-11-24T09:33:10.194Z,98163,-0.09126171,-0.31977457,-0.47878015
1732440790202,2024-11-24T09:33:10.202Z,98171,-0.06992976,-0.34203923,-0.53137136
1732440790204,2024-11-24T09:33:10.204Z,98173,-0.06992976,-0.34203923,-0.53137136
1732440790225,2024-11-24T09:33:10.225Z,98194,-0.09716333,-0.3472586,-0.47844368
1732440790227,2024-11-24T09:33:10.227Z,98196,-0.09716333,-0.3472586,-0.47844368
1732440790235,2024-11-24T09:33:10.235Z,98204,-0.09388032,-0.34358847,-0.43558186
1732440790239,2024-11-24T09:33:10.239Z,98208,-0.09388032,-0.34358847,-0.43558186
1732440790245,2024-11-24T09:33:10.245Z,98214,-0.13281928,-0.35688895,-0.48095977
1732440790247,2024-11-24T09:33:10.247Z,98216,-0.13281928,-0.35688895,-0.48095977
1732440790255,2024-11-24T09:33:10.255Z,98224,-0.10769727,-0.35736197,-0.4699485
1732440790257,2024-11-24T09:33:10.257Z,98226,-0.10769727,-0.35736197,-0.4699485
1732440790270,2024-11-24T09:33:10.270Z,98239,-0.101365745,-0.35248303,-0.42147258
1732440790273,2024-11-24T09:33:10.273Z,98242,-0.101365745,-0.35248303,-0.42147258
1732440790280,2024-11-24T09:33:10.280Z,98249,-0.08676142,-0.34379917,-0.46982074
1732440790283,2024-11-24T09:33:10.283Z,98252,-0.08676142,-0.34379917,-0.46982074
1732440790289,2024-11-24T09:33:10.289Z,98258,-0.09695189,-0.3494156,-0.52320373
1732440790292,2024-11-24T09:33:10.292Z,98261,-0.09695189,-0.3494156,-0.52320373
1732440790317,2024-11-24T09:33:10.317Z,98286,-0.10094043,-0.334534,-0.4729637
1732440790320,2024-11-24T09:33:10.320Z,98289,-0.10094043,-0.334534,-0.4729637
1732440790330,2024-11-24T09:33:10.330Z,98299,-0.064983964,-0.32067916,-0.432283
1732440790332,2024-11-24T09:33:10.332Z,98301,-0.064983964,-0.32067916,-0.432283
1732440790341,2024-11-24T09:33:10.341Z,98310,-0.09651575,-0.31014013,-0.44032502
1732440790344,2024-11-24T09:33:10.344Z,98313,-0.09651575,-0.31014013,-0.44032502
1732440790368,2024-11-24T09:33:10.368Z,98337,-0.07901836,-0.3048488,-0.5017862
1732440790376,2024-11-24T09:33:10.376Z,98345,-0.07901836,-0.3048488,-0.5017862
1732440790404,2024-11-24T09:33:10.404Z,98373,-0.05753396,-0.32741204,-0.5095134
1732440790411,2024-11-24T09:33:10.411Z,98380,-0.05753396,-0.32741204,-0.5095134
1732440790431,2024-11-24T09:33:10.431Z,98400,-0.050920654,-0.3075931,-0.47305524
1732440790435,2024-11-24T09:33:10.435Z,98404,-0.050920654,-0.3075931,-0.47305524
1732440790448,2024-11-24T09:33:10.448Z,98417,-0.09306244,-0.29788205,-0.50798285
1732440790453,2024-11-24T09:33:10.453Z,98422,-0.09306244,-0.29788205,-0.50798285
1732440790465,2024-11-24T09:33:10.465Z,98434,-0.11633221,-0.30033222,-0.4895221
1732440790468,2024-11-24T09:33:10.468Z,98437,-0.11633221,-0.30033222,-0.4895221
1732440790479,2024-11-24T09:33:10.479Z,98448,-0.08497829,-0.29146123,-0.50561565
1732440790483,2024-11-24T09:33:10.483Z,98452,-0.08497829,-0.29146123,-0.50561565
1732440790492,2024-11-24T09:33:10.492Z,98461,-0.07686253,-0.27064112,-0.44912514
1732440790495,2024-11-24T09:33:10.495Z,98464,-0.07686253,-0.27064112,-0.44912514
1732440790504,2024-11-24T09:33:10.504Z,98473,-0.07000518,-0.25483268,-0.45127213
1732440790507,2024-11-24T09:33:10.507Z,98476,-0.07000518,-0.25483268,-0.45127213
1732440790514,2024-11-24T09:33:10.514Z,98483,-0.048530426,-0.23993462,-0.4872058
1732440790517,2024-11-24T09:33:10.517Z,98486,-0.048530426,-0.23993462,-0.4872058
1732440790524,2024-11-24T09:33:10.524Z,98493,-0.046767883,-0.20084658,-0.47055888
1732440790526,2024-11-24T09:33:10.526Z,98495,-0.046767883,-0.20084658,-0.47055888
1732440790533,2024-11-24T09:33:10.533Z,98502,-0.077292144,-0.19878367,-0.48236713
1732440790536,2024-11-24T09:33:10.536Z,98505,-0.077292144,-0.19878367,-0.48236713
1732440790544,2024-11-24T09:33:10.544Z,98513,-0.08788507,-0.19525085,-0.47884628
1732440790547,2024-11-24T09:33:10.547Z,98516,-0.08788507,-0.19525085,-0.47884628
1732440790554,2024-11-24T09:33:10.554Z,98523,-0.05888872,-0.18242048,-0.46933687
1732440790557,2024-11-24T09:33:10.557Z,98526,-0.05888872,-0.18242048,-0.46933687
1732440790566,2024-11-24T09:33:10.566Z,98535,-0.07459828,-0.17911959,-0.5160914
1732440790569,2024-11-24T09:33:10.569Z,98538,-0.07459828,-0.17911959,-0.5160914
1732440790577,2024-11-24T09:33:10.577Z,98546,-0.044836838,-0.17323144,-0.53984976
1732440790579,2024-11-24T09:33:10.579Z,98548,-0.044836838,-0.17323144,-0.53984976
1732440790586,2024-11-24T09:33:10.586Z,98555,-0.04288782,-0.17002557,-0.46781075
1732440790589,2024-11-24T09:33:10.589Z,98558,-0.04288782,-0.17002557,-0.46781075
1732440790596,2024-11-24T09:33:10.596Z,98565,-0.030607989,-0.17069474,-0.45556173
1732440790600,2024-11-24T09:33:10.600Z,98569,-0.030607989,-0.17069474,-0.45556173
1732440790629,2024-11-24T09:33:10.629Z,98598,-0.026643103,-0.1730035,-0.49682438
1732440790632,2024-11-24T09:33:10.632Z,98601,-0.026643103,-0.1730035,-0.49682438
1732440790640,2024-11-24T09:33:10.640Z,98609,0.023290658,-0.16919926,-0.48991862
1732440790643,2024-11-24T09:33:10.643Z,98612,0.023290658,-0.16919926,-0.48991862
1732440790652,2024-11-24T09:33:10.652Z,98621,0.03305383,-0.18467428,-0.49153677
1732440790660,2024-11-24T09:33:10.660Z,98629,0.03305383,-0.18467428,-0.49153677
1732440790677,2024-11-24T09:33:10.677Z,98646,-0.019805713,-0.18656322,-0.47018155
1732440790679,2024-11-24T09:33:10.679Z,98648,-0.019805713,-0.18656322,-0.47018155
1732440790687,2024-11-24T09:33:10.687Z,98656,-0.06033863,-0.18361905,-0.43825927
1732440790691,2024-11-24T09:33:10.691Z,98660,-0.06033863,-0.18361905,-0.43825927
1732440790701,2024-11-24T09:33:10.701Z,98670,-0.0486127,-0.18684125,-0.45330784
1732440790706,2024-11-24T09:33:10.706Z,98675,-0.0486127,-0.18684125,-0.45330784
1732440790724,2024-11-24T09:33:10.724Z,98693,-0.011989792,-0.20466861,-0.49180293
1732440790729,2024-11-24T09:33:10.729Z,98698,-0.011989792,-0.20466861,-0.49180293
1732440790744,2024-11-24T09:33:10.744Z,98713,0.013799693,-0.18477513,-0.471395
1732440790746,2024-11-24T09:33:10.746Z,98715,0.013799693,-0.18477513,-0.471395
1732440790756,2024-11-24T09:33:10.756Z,98725,-0.017264094,-0.18314779,-0.48828393
1732440790759,2024-11-24T09:33:10.759Z,98728,-0.017264094,-0.18314779,-0.48828393
1732440790811,2024-11-24T09:33:10.811Z,98780,-0.051807843,-0.18695572,-0.4943307
1732440790815,2024-11-24T09:33:10.815Z,98784,-0.051807843,-0.18695572,-0.4943307
1732440790826,2024-11-24T09:33:10.826Z,98795,-0.057125494,-0.18696973,-0.48026076
1732440790829,2024-11-24T09:33:10.829Z,98798,-0.057125494,-0.18696973,-0.48026076
1732440790839,2024-11-24T09:33:10.839Z,98808,-0.061511416,-0.18376172,-0.43534875
1732440790843,2024-11-24T09:33:10.843Z,98812,-0.061511416,-0.18376172,-0.43534875
1732440790853,2024-11-24T09:33:10.853Z,98822,-0.051974576,-0.17530903,-0.41246885
1732440790856,2024-11-24T09:33:10.856Z,98825,-0.051974576,-0.17530903,-0.41246885
1732440790866,2024-11-24T09:33:10.866Z,98835,-0.08251743,-0.1628372,-0.5115433
1732440790869,2024-11-24T09:33:10.869Z,98838,-0.08251743,-0.1628372,-0.5115433
1732440790878,2024-11-24T09:33:10.878Z,98847,-0.11551932,-0.1579245,-0.5131998
1732440790881,2024-11-24T09:33:10.881Z,98850,-0.11551932,-0.1579245,-0.5131998
1732440790890,2024-11-24T09:33:10.890Z,98859,-0.09708118,-0.1415986,-0.48004127
1732440790893,2024-11-24T09:33:10.893Z,98862,-0.09708118,-0.1415986,-0.48004127
1732440790902,2024-11-24T09:33:10.902Z,98871,-0.054511406,-0.076450124,-0.49630487
1732440790904,2024-11-24T09:33:10.904Z,98873,-0.054511406,-0.076450124,-0.49630487
1732440790912,2024-11-24T09:33:10.912Z,98881,-0.04176989,-0.06734885,-0.46928152
1732440790914,2024-11-24T09:33:10.914Z,98883,-0.04176989,-0.06734885,-0.46928152
1732440790950,2024-11-24T09:33:10.950Z,98919,-0.04650945,-0.061465565,-0.45505643
1732440790957,2024-11-24T09:33:10.957Z,98926,-0.04650945,-0.061465565,-0.45505643
1732440790980,2024-11-24T09:33:10.980Z,98949,-0.041400563,-0.057507243,-0.47366095
1732440790987,2024-11-24T09:33:10.987Z,98956,-0.041400563,-0.057507243,-0.47366095
1732440791007,2024-11-24T09:33:11.007Z,98976,-0.020596264,-0.044718243,-0.5065514
1732440791012,2024-11-24T09:33:11.012Z,98981,-0.020596264,-0.044718243,-0.5065514
1732440791029,2024-11-24T09:33:11.029Z,98998,0.0063893935,-0.05111126,-0.50802356
1732440791037,2024-11-24T09:33:11.037Z,99006,0.0063893935,-0.05111126,-0.50802356
1732440791058,2024-11-24T09:33:11.058Z,99027,-0.004708418,-0.03683967,-0.4775101
1732440791064,2024-11-24T09:33:11.064Z,99033,-0.004708418,-0.03683967,-0.4775101
1732440791083,2024-11-24T09:33:11.083Z,99052,-0.043823857,-0.018826671,-0.4739043
1732440791089,2024-11-24T09:33:11.089Z,99058,-0.043823857,-0.018826671,-0.4739043
1732440791104,2024-11-24T09:33:11.104Z,99073,-0.04236752,-0.023288008,-0.47466576
1732440791108,2024-11-24T09:33:11.108Z,99077,-0.04236752,-0.023288008,-0.47466576
1732440791120,2024-11-24T09:33:11.120Z,99089,-0.04727632,-0.022282222,-0.46370038
1732440791123,2024-11-24T09:33:11.123Z,99092,-0.04727632,-0.022282222,-0.46370038
1732440791134,2024-11-24T09:33:11.134Z,99103,-0.029783864,-0.022880977,-0.47324958
1732440791137,2024-11-24T09:33:11.137Z,99106,-0.029783864,-0.022880977,-0.47324958
1732440791147,2024-11-24T09:33:11.147Z,99116,0.0025059765,-0.01272676,-0.4942162
1732440791150,2024-11-24T09:33:11.150Z,99119,0.0025059765,-0.01272676,-0.4942162
1732440791160,2024-11-24T09:33:11.160Z,99129,6.45506E-4,-0.015331734,-0.49293664
1732440791162,2024-11-24T09:33:11.162Z,99131,6.45506E-4,-0.015331734,-0.49293664
1732440791174,2024-11-24T09:33:11.174Z,99143,-0.019283954,-0.003096902,-0.47343796
1732440791176,2024-11-24T09:33:11.176Z,99145,-0.019283954,-0.003096902,-0.47343796
1732440791186,2024-11-24T09:33:11.186Z,99155,0.0059837736,0.003848724,-0.46956632
1732440791189,2024-11-24T09:33:11.189Z,99158,0.0059837736,0.003848724,-0.46956632
1732440791197,2024-11-24T09:33:11.197Z,99166,0.028651511,0.029634928,-0.4318381
1732440791200,2024-11-24T09:33:11.200Z,99169,0.028651511,0.029634928,-0.4318381
1732440791208,2024-11-24T09:33:11.208Z,99177,0.043033376,0.04739265,-0.43236333
1732440791210,2024-11-24T09:33:11.210Z,99179,0.043033376,0.04739265,-0.43236333
1732440791217,2024-11-24T09:33:11.217Z,99186,0.067244,0.05920436,-0.4285116
1732440791220,2024-11-24T09:33:11.220Z,99189,0.067244,0.05920436,-0.4285116
1732440791228,2024-11-24T09:33:11.228Z,99197,0.03714228,0.073989905,-0.41477686
1732440791230,2024-11-24T09:33:11.230Z,99199,0.03714228,0.073989905,-0.41477686
1732440791238,2024-11-24T09:33:11.238Z,99207,0.050382387,0.074138105,-0.41263923
1732440791240,2024-11-24T09:33:11.240Z,99209,0.050382387,0.074138105,-0.41263923
1732440791247,2024-11-24T09:33:11.247Z,99216,0.069293275,0.07860266,-0.4191095
1732440791249,2024-11-24T09:33:11.249Z,99218,0.069293275,0.07860266,-0.4191095
1732440791256,2024-11-24T09:33:11.256Z,99225,0.07976054,0.10681912,-0.39682272
1732440791259,2024-11-24T09:33:11.259Z,99228,0.07976054,0.10681912,-0.39682272
1732440791266,2024-11-24T09:33:11.266Z,99235,0.09094504,0.11439686,-0.40324652
1732440791271,2024-11-24T09:33:11.271Z,99240,0.09094504,0.11439686,-0.40324652
1732440791279,2024-11-24T09:33:11.279Z,99248,0.094445035,0.117827766,-0.40852013
1732440791281,2024-11-24T09:33:11.281Z,99250,0.094445035,0.117827766,-0.40852013
1732440791289,2024-11-24T09:33:11.289Z,99258,0.08257014,0.13366163,-0.3955341
1732440791292,2024-11-24T09:33:11.292Z,99261,0.08257014,0.13366163,-0.3955341
1732440791308,2024-11-24T09:33:11.308Z,99277,0.08187801,0.13141045,-0.36357677
1732440791311,2024-11-24T09:33:11.311Z,99280,0.08187801,0.13141045,-0.36357677
1732440791319,2024-11-24T09:33:11.319Z,99288,0.08491639,0.1445106,-0.34077165
1732440791322,2024-11-24T09:33:11.322Z,99291,0.08491639,0.1445106,-0.34077165
1732440791329,2024-11-24T09:33:11.329Z,99298,0.08464823,0.14101453,-0.31901747
1732440791331,2024-11-24T09:33:11.331Z,99300,0.08464823,0.14101453,-0.31901747
1732440791339,2024-11-24T09:33:11.339Z,99308,0.12066436,0.13476345,-0.3408407
1732440791341,2024-11-24T09:33:11.341Z,99310,0.12066436,0.13476345,-0.3408407
1732440791350,2024-11-24T09:33:11.350Z,99319,0.13252045,0.122947365,-0.39264125
1732440791353,2024-11-24T09:33:11.353Z,99322,0.13252045,0.122947365,-0.39264125
1732440791360,2024-11-24T09:33:11.360Z,99329,0.076576106,0.14493391,-0.32830954
1732440791363,2024-11-24T09:33:11.363Z,99332,0.076576106,0.14493391,-0.32830954
1732440791372,2024-11-24T09:33:11.372Z,99341,0.0775737,0.14027584,-0.31558162
1732440791375,2024-11-24T09:33:11.375Z,99344,0.0775737,0.14027584,-0.31558162
1732440791382,2024-11-24T09:33:11.382Z,99351,0.06403025,0.135984,-0.3137575
1732440791384,2024-11-24T09:33:11.384Z,99353,0.06403025,0.135984,-0.3137575
1732440791395,2024-11-24T09:33:11.395Z,99364,0.090362355,0.1220772,-0.36456886
1732440791397,2024-11-24T09:33:11.397Z,99366,0.090362355,0.1220772,-0.36456886
1732440791405,2024-11-24T09:33:11.405Z,99374,0.1422037,0.11218321,-0.38961005
1732440791407,2024-11-24T09:33:11.407Z,99376,0.1422037,0.11218321,-0.38961005
1732440791414,2024-11-24T09:33:11.414Z,99383,0.12697546,0.10243282,-0.41544837
1732440791416,2024-11-24T09:33:11.416Z,99385,0.12697546,0.10243282,-0.41544837
1732440791440,2024-11-24T09:33:11.440Z,99409,0.03820678,0.07456182,-0.33555248
1732440791442,2024-11-24T09:33:11.442Z,99411,0.03820678,0.07456182,-0.33555248
1732440791453,2024-11-24T09:33:11.453Z,99422,0.022784896,0.06008805,-0.3171178
1732440791458,2024-11-24T09:33:11.458Z,99427,0.022784896,0.06008805,-0.3171178
1732440791487,2024-11-24T09:33:11.487Z,99456,0.010316961,0.034708098,-0.3137051
1732440791492,2024-11-24T09:33:11.492Z,99461,0.010316961,0.034708098,-0.3137051
1732440791535,2024-11-24T09:33:11.535Z,99504,-0.02722355,0.00816735,-0.39718014
1732440791540,2024-11-24T09:33:11.540Z,99509,-0.02722355,0.00816735,-0.39718014
1732440791561,2024-11-24T09:33:11.561Z,99530,0.007612551,-0.01530115,-0.4325973
1732440791567,2024-11-24T09:33:11.567Z,99536,0.007612551,-0.01530115,-0.4325973
1732440791580,2024-11-24T09:33:11.580Z,99549,-0.025175149,-0.02644243,-0.40500945
1732440791584,2024-11-24T09:33:11.584Z,99553,-0.025175149,-0.02644243,-0.40500945
1732440791596,2024-11-24T09:33:11.596Z,99565,-0.092659496,-0.07506376,-0.36831346
1732440791599,2024-11-24T09:33:11.599Z,99568,-0.092659496,-0.07506376,-0.36831346
1732440791610,2024-11-24T09:33:11.610Z,99579,-0.06785848,-0.06509179,-0.3440365
1732440791613,2024-11-24T09:33:11.613Z,99582,-0.06785848,-0.06509179,-0.3440365
1732440791624,2024-11-24T09:33:11.624Z,99593,-0.029807664,-0.056454632,-0.3414273
1732440791628,2024-11-24T09:33:11.628Z,99597,-0.029807664,-0.056454632,-0.3414273
1732440791638,2024-11-24T09:33:11.638Z,99607,0.028849361,-0.049742013,-0.3519528
1732440791640,2024-11-24T09:33:11.640Z,99609,0.028849361,-0.049742013,-0.3519528
1732440791649,2024-11-24T09:33:11.649Z,99618,0.03662901,-0.050888464,-0.3584917
1732440791651,2024-11-24T09:33:11.651Z,99620,0.03662901,-0.050888464,-0.3584917
1732440791660,2024-11-24T09:33:11.660Z,99629,0.004824921,-0.04218839,-0.3516748
1732440791663,2024-11-24T09:33:11.663Z,99632,0.004824921,-0.04218839,-0.3516748
1732440791676,2024-11-24T09:33:11.676Z,99645,0.014917435,-0.034356743,-0.33931985
1732440791682,2024-11-24T09:33:11.682Z,99651,0.014917435,-0.034356743,-0.33931985
1732440791701,2024-11-24T09:33:11.701Z,99670,-0.0029149516,-0.02188657,-0.31875768
1732440791707,2024-11-24T09:33:11.707Z,99676,-0.0029149516,-0.02188657,-0.31875768
1732440791722,2024-11-24T09:33:11.722Z,99691,-0.0074921586,-0.023045957,-0.32985276
1732440791724,2024-11-24T09:33:11.724Z,99693,-0.0074921586,-0.023045957,-0.32985276
1732440791735,2024-11-24T09:33:11.735Z,99704,-0.04343049,-0.022416376,-0.34040004
1732440791738,2024-11-24T09:33:11.738Z,99707,-0.04343049,-0.022416376,-0.34040004
1732440791748,2024-11-24T09:33:11.748Z,99717,-0.028852182,-0.024959112,-0.3638565
1732440791752,2024-11-24T09:33:11.752Z,99721,-0.028852182,-0.024959112,-0.3638565
1732440791762,2024-11-24T09:33:11.762Z,99731,-0.01441763,-0.023494562,-0.33271262
1732440791765,2024-11-24T09:33:11.765Z,99734,-0.01441763,-0.023494562,-0.33271262
1732440791777,2024-11-24T09:33:11.777Z,99746,-6.0354365E-4,-0.011714849,-0.33917072
1732440791783,2024-11-24T09:33:11.783Z,99752,-6.0354365E-4,-0.011714849,-0.33917072
1732440791800,2024-11-24T09:33:11.800Z,99769,-0.013853618,-0.045960728,-0.38379195
1732440791805,2024-11-24T09:33:11.805Z,99774,-0.013853618,-0.045960728,-0.38379195
1732440791815,2024-11-24T09:33:11.815Z,99784,-0.01763106,-0.051342513,-0.3807082
1732440791819,2024-11-24T09:33:11.819Z,99788,-0.01763106,-0.051342513,-0.3807082
1732440791829,2024-11-24T09:33:11.829Z,99798,0.015326799,-0.04084861,-0.3295445
1732440791832,2024-11-24T09:33:11.832Z,99801,0.015326799,-0.04084861,-0.3295445
1732440791840,2024-11-24T09:33:11.840Z,99809,0.023441391,-0.042888284,-0.2773046
1732440791843,2024-11-24T09:33:11.843Z,99812,0.023441391,-0.042888284,-0.2773046
1732440791851,2024-11-24T09:33:11.851Z,99820,0.025801253,-0.045906466,-0.29944372
1732440791853,2024-11-24T09:33:11.853Z,99822,0.025801253,-0.045906466,-0.29944372
1732440791861,2024-11-24T09:33:11.861Z,99830,-0.016521025,-0.04861637,-0.33985528
1732440791863,2024-11-24T09:33:11.863Z,99832,-0.016521025,-0.04861637,-0.33985528
1732440791872,2024-11-24T09:33:11.872Z,99841,0.02867857,-0.054205876,-0.36340714
1732440791874,2024-11-24T09:33:11.874Z,99843,0.02867857,-0.054205876,-0.36340714
1732440791882,2024-11-24T09:33:11.882Z,99851,0.05283162,-0.053203546,-0.32685804
1732440791884,2024-11-24T09:33:11.884Z,99853,0.05283162,-0.053203546,-0.32685804
1732440791894,2024-11-24T09:33:11.894Z,99863,0.008094463,-0.04731043,-0.2859519
1732440791896,2024-11-24T09:33:11.896Z,99865,0.008094463,-0.04731043,-0.2859519
1732440791903,2024-11-24T09:33:11.903Z,99872,-0.030761544,-0.03676197,-0.32391465
1732440791908,2024-11-24T09:33:11.908Z,99877,-0.030761544,-0.03676197,-0.32391465
1732440791923,2024-11-24T09:33:11.923Z,99892,-0.029788384,-0.03892155,-0.35636187
1732440791926,2024-11-24T09:33:11.926Z,99895,-0.029788384,-0.03892155,-0.35636187
1732440791934,2024-11-24T09:33:11.934Z,99903,0.015557981,-0.04008376,-0.36197293
1732440791940,2024-11-24T09:33:11.940Z,99909,0.015557981,-0.04008376,-0.36197293
1732440791947,2024-11-24T09:33:11.947Z,99916,0.03756351,-0.036605887,-0.3491362
1732440791949,2024-11-24T09:33:11.949Z,99918,0.03756351,-0.036605887,-0.3491362
1732440791957,2024-11-24T09:33:11.957Z,99926,0.015668212,-0.028967468,-0.29975078
1732440791959,2024-11-24T09:33:11.959Z,99928,0.015668212,-0.028967468,-0.29975078
1732440791965,2024-11-24T09:33:11.965Z,99934,0.03178155,-0.015880065,-0.28979123
1732440791968,2024-11-24T09:33:11.968Z,99937,0.03178155,-0.015880065,-0.28979123
1732440791982,2024-11-24T09:33:11.982Z,99951,-0.05429505,-0.027996061,-0.31957605
1732440791984,2024-11-24T09:33:11.984Z,99953,-0.05429505,-0.027996061,-0.31957605
1732440791991,2024-11-24T09:33:11.991Z,99960,-0.008107251,-0.03443065,-0.35533345
1732440791993,2024-11-24T09:33:11.993Z,99962,-0.008107251,-0.03443065,-0.35533345
1732440792025,2024-11-24T09:33:12.025Z,99994,0.037672866,-0.034500767,-0.37577972
1732440792027,2024-11-24T09:33:12.027Z,99996,0.037672866,-0.034500767,-0.37577972
1732440792035,2024-11-24T09:33:12.035Z,100004,0.022136034,-0.018961262,-0.32809338
1732440792037,2024-11-24T09:33:12.037Z,100006,0.022136034,-0.018961262,-0.32809338
1732440792044,2024-11-24T09:33:12.044Z,100013,-0.009992397,-0.012732449,-0.28631514
1732440792047,2024-11-24T09:33:12.047Z,100016,-0.009992397,-0.012732449,-0.28631514
1732440792054,2024-11-24T09:33:12.054Z,100023,-0.02084106,-0.0133484155,-0.30443534
1732440792057,2024-11-24T09:33:12.057Z,100026,-0.02084106,-0.0133484155,-0.30443534
1732440792073,2024-11-24T09:33:12.073Z,100042,-0.026734613,-0.017676037,-0.32306737
1732440792075,2024-11-24T09:33:12.075Z,100044,-0.026734613,-0.017676037,-0.32306737
1732440792083,2024-11-24T09:33:12.083Z,100052,-0.013719805,-0.025534624,-0.33175167
1732440792085,2024-11-24T09:33:12.085Z,100054,-0.013719805,-0.025534624,-0.33175167
1732440792092,2024-11-24T09:33:12.092Z,100061,0.045028586,-0.02155476,-0.34617803
1732440792094,2024-11-24T09:33:12.094Z,100063,0.045028586,-0.02155476,-0.34617803
1732440792120,2024-11-24T09:33:12.120Z,100089,-0.015790937,-0.0036672114,-0.29704496
1732440792122,2024-11-24T09:33:12.122Z,100091,-0.015790937,-0.0036672114,-0.29704496
1732440792130,2024-11-24T09:33:12.130Z,100099,-0.026538074,-0.0029939653,-0.30209073
1732440792132,2024-11-24T09:33:12.132Z,100101,-0.026538074,-0.0029939653,-0.30209073
1732440792140,2024-11-24T09:33:12.140Z,100109,-0.022720082,-0.00528376,-0.30638018
1732440792143,2024-11-24T09:33:12.143Z,100112,-0.022720082,-0.00528376,-0.30638018
1732440792161,2024-11-24T09:33:12.161Z,100130,4.1262206E-4,-0.0026816058,-0.3021147
1732440792163,2024-11-24T09:33:12.163Z,100132,4.1262206E-4,-0.0026816058,-0.3021147
1732440792171,2024-11-24T09:33:12.171Z,100140,0.013600773,0.0013725542,-0.28819805
1732440792174,2024-11-24T09:33:12.174Z,100143,0.013600773,0.0013725542,-0.28819805
1732440792182,2024-11-24T09:33:12.182Z,100151,0.027599948,0.0049674134,-0.28519753
1732440792184,2024-11-24T09:33:12.184Z,100153,0.027599948,0.0049674134,-0.28519753
1732440792207,2024-11-24T09:33:12.207Z,100176,0.021302477,0.0016257874,-0.33391657
1732440792210,2024-11-24T09:33:12.210Z,100179,0.021302477,0.0016257874,-0.33391657
1732440792219,2024-11-24T09:33:12.219Z,100188,-0.0068575684,6.063395E-4,-0.3576978
1732440792222,2024-11-24T09:33:12.222Z,100191,-0.0068575684,6.063395E-4,-0.3576978
1732440792250,2024-11-24T09:33:12.250Z,100219,0.012098491,0.007048806,-0.33795357
1732440792254,2024-11-24T09:33:12.254Z,100223,0.012098491,0.007048806,-0.33795357
1732440792264,2024-11-24T09:33:12.264Z,100233,0.012160657,0.01705336,-0.30861837
1732440792266,2024-11-24T09:33:12.266Z,100235,0.012160657,0.01705336,-0.30861837
1732440792275,2024-11-24T09:33:12.275Z,100244,0.002671346,0.0112174265,-0.2987177
1732440792277,2024-11-24T09:33:12.277Z,100246,0.002671346,0.0112174265,-0.2987177
1732440792286,2024-11-24T09:33:12.286Z,100255,0.008238413,0.011736924,-0.30793643
1732440792289,2024-11-24T09:33:12.289Z,100258,0.008238413,0.011736924,-0.30793643
1732440792298,2024-11-24T09:33:12.298Z,100267,0.033126753,-0.015642684,-0.3627193
1732440792301,2024-11-24T09:33:12.301Z,100270,0.033126753,-0.015642684,-0.3627193
1732440792309,2024-11-24T09:33:12.309Z,100278,0.04785757,0.006605551,-0.33518165
1732440792312,2024-11-24T09:33:12.312Z,100281,0.04785757,0.006605551,-0.33518165
1732440792319,2024-11-24T09:33:12.319Z,100288,0.022890192,0.0020367561,-0.3516601
1732440792322,2024-11-24T09:33:12.322Z,100291,0.022890192,0.0020367561,-0.3516601
1732440792342,2024-11-24T09:33:12.342Z,100311,-0.010982087,0.005133804,-0.29600888
1732440792345,2024-11-24T09:33:12.345Z,100314,-0.010982087,0.005133804,-0.29600888
1732440792353,2024-11-24T09:33:12.353Z,100322,-0.046324823,0.005247292,-0.29724556
1732440792355,2024-11-24T09:33:12.355Z,100324,-0.046324823,0.005247292,-0.29724556
1732440792363,2024-11-24T09:33:12.363Z,100332,-0.051401228,0.015862366,-0.31270936
1732440792366,2024-11-24T09:33:12.366Z,100335,-0.051401228,0.015862366,-0.31270936
1732440792387,2024-11-24T09:33:12.387Z,100356,0.04206817,0.012082737,-0.36544165
1732440792389,2024-11-24T09:33:12.389Z,100358,0.04206817,0.012082737,-0.36544165
1732440792397,2024-11-24T09:33:12.397Z,100366,0.05764249,0.028531604,-0.3075455
1732440792399,2024-11-24T09:33:12.399Z,100368,0.05764249,0.028531604,-0.3075455
1732440792430,2024-11-24T09:33:12.430Z,100399,0.073913954,0.034724142,-0.29202047
1732440792433,2024-11-24T09:33:12.433Z,100402,0.073913954,0.034724142,-0.29202047
1732440792442,2024-11-24T09:33:12.442Z,100411,-0.013165201,0.05119499,-0.2774978
1732440792445,2024-11-24T09:33:12.445Z,100414,-0.013165201,0.05119499,-0.2774978
1732440792455,2024-11-24T09:33:12.455Z,100424,8.139877E-4,0.055061657,-0.2902173
1732440792458,2024-11-24T09:33:12.458Z,100427,8.139877E-4,0.055061657,-0.2902173
1732440792478,2024-11-24T09:33:12.478Z,100447,0.0362442,0.05594904,-0.31923658
1732440792482,2024-11-24T09:33:12.482Z,100451,0.0362442,0.05594904,-0.31923658
1732440792491,2024-11-24T09:33:12.491Z,100460,0.098596975,0.054827385,-0.30788958
1732440792494,2024-11-24T09:33:12.494Z,100463,0.098596975,0.054827385,-0.30788958
1732440792500,2024-11-24T09:33:12.500Z,100469,0.053443477,0.059765626,-0.27673274
1732440792502,2024-11-24T09:33:12.502Z,100471,0.053443477,0.059765626,-0.27673274
1732440792524,2024-11-24T09:33:12.524Z,100493,0.02643667,0.057806667,-0.26370794
1732440792530,2024-11-24T09:33:12.530Z,100499,0.02643667,0.057806667,-0.26370794
1732440792547,2024-11-24T09:33:12.547Z,100516,-0.028777739,0.031966783,-0.31510267
1732440792554,2024-11-24T09:33:12.554Z,100523,-0.028777739,0.031966783,-0.31510267
1732440792573,2024-11-24T09:33:12.573Z,100542,0.04885504,0.02933098,-0.34135476
1732440792578,2024-11-24T09:33:12.578Z,100547,0.04885504,0.02933098,-0.34135476
1732440792595,2024-11-24T09:33:12.595Z,100564,0.10936697,0.035698857,-0.31770158
1732440792600,2024-11-24T09:33:12.600Z,100569,0.10936697,0.035698857,-0.31770158
1732440792622,2024-11-24T09:33:12.622Z,100591,0.023687987,0.038661413,-0.30655974
1732440792627,2024-11-24T09:33:12.627Z,100596,0.023687987,0.038661413,-0.30655974
1732440792646,2024-11-24T09:33:12.646Z,100615,0.009274101,0.04608083,-0.3116284
1732440792652,2024-11-24T09:33:12.652Z,100621,0.009274101,0.04608083,-0.3116284
1732440792672,2024-11-24T09:33:12.672Z,100641,-0.010257154,0.032311622,-0.2899687
1732440792678,2024-11-24T09:33:12.678Z,100647,-0.010257154,0.032311622,-0.2899687
1732440792697,2024-11-24T09:33:12.697Z,100666,0.07003744,0.037846867,-0.30863136
1732440792704,2024-11-24T09:33:12.704Z,100673,0.07003744,0.037846867,-0.30863136
1732440792718,2024-11-24T09:33:12.718Z,100687,0.040667657,0.04302297,-0.3013682
1732440792722,2024-11-24T09:33:12.722Z,100691,0.040667657,0.04302297,-0.3013682
1732440792734,2024-11-24T09:33:12.734Z,100703,0.050595164,0.045678224,-0.33651814
1732440792737,2024-11-24T09:33:12.737Z,100706,0.050595164,0.045678224,-0.33651814
1732440792748,2024-11-24T09:33:12.748Z,100717,0.0062136427,0.057817657,-0.30301353
1732440792752,2024-11-24T09:33:12.752Z,100721,0.0062136427,0.057817657,-0.30301353
1732440792762,2024-11-24T09:33:12.762Z,100731,0.047920782,0.044949643,-0.28799704
1732440792765,2024-11-24T09:33:12.765Z,100734,0.047920782,0.044949643,-0.28799704
1732440792773,2024-11-24T09:33:12.773Z,100742,0.014626518,0.04738366,-0.30216485
1732440792777,2024-11-24T09:33:12.777Z,100746,0.014626518,0.04738366,-0.30216485
1732440792785,2024-11-24T09:33:12.785Z,100754,0.045709416,0.03466093,-0.30111635
1732440792788,2024-11-24T09:33:12.788Z,100757,0.045709416,0.03466093,-0.30111635
1732440792796,2024-11-24T09:33:12.796Z,100765,0.034821074,0.035765667,-0.28869095
1732440792799,2024-11-24T09:33:12.799Z,100768,0.034821074,0.035765667,-0.28869095
1732440792806,2024-11-24T09:33:12.806Z,100775,-0.027047774,0.04554013,-0.2311608
1732440792809,2024-11-24T09:33:12.809Z,100778,-0.027047774,0.04554013,-0.2311608
1732440792815,2024-11-24T09:33:12.815Z,100784,-0.06521089,0.016322348,-0.2656849
1732440792817,2024-11-24T09:33:12.817Z,100786,-0.06521089,0.016322348,-0.2656849
1732440792825,2024-11-24T09:33:12.825Z,100794,-0.0637537,0.024593947,-0.29851344
1732440792827,2024-11-24T09:33:12.827Z,100796,-0.0637537,0.024593947,-0.29851344
1732440792834,2024-11-24T09:33:12.834Z,100803,-0.0046763024,0.03042774,-0.32008633
1732440792837,2024-11-24T09:33:12.837Z,100806,-0.0046763024,0.03042774,-0.32008633
1732440792844,2024-11-24T09:33:12.844Z,100813,-0.02847367,0.05253623,-0.26368633
1732440792846,2024-11-24T09:33:12.846Z,100815,-0.02847367,0.05253623,-0.26368633
1732440792853,2024-11-24T09:33:12.853Z,100822,-0.033205185,0.076429896,-0.28037864
1732440792856,2024-11-24T09:33:12.856Z,100825,-0.033205185,0.076429896,-0.28037864
1732440792863,2024-11-24T09:33:12.863Z,100832,-0.016930778,0.07248164,-0.26485708
1732440792866,2024-11-24T09:33:12.866Z,100835,-0.016930778,0.07248164,-0.26485708
1732440792874,2024-11-24T09:33:12.874Z,100843,-0.004050586,0.11325473,-0.25749528
1732440792876,2024-11-24T09:33:12.876Z,100845,-0.004050586,0.11325473,-0.25749528
1732440792884,2024-11-24T09:33:12.884Z,100853,0.036716215,0.11490007,-0.29938325
1732440792887,2024-11-24T09:33:12.887Z,100856,0.036716215,0.11490007,-0.29938325
1732440792896,2024-11-24T09:33:12.896Z,100865,0.092624635,0.14199509,-0.3405639
1732440792898,2024-11-24T09:33:12.898Z,100867,0.092624635,0.14199509,-0.3405639
1732440792907,2024-11-24T09:33:12.907Z,100876,0.04349594,0.15907508,-0.24479596
1732440792913,2024-11-24T09:33:12.913Z,100882,0.04349594,0.15907508,-0.24479596
1732440792928,2024-11-24T09:33:12.928Z,100897,0.040774412,0.15586951,-0.2647693
1732440792932,2024-11-24T09:33:12.932Z,100901,0.040774412,0.15586951,-0.2647693
1732440792945,2024-11-24T09:33:12.945Z,100914,0.022251347,0.123730846,-0.33351818
1732440792947,2024-11-24T09:33:12.947Z,100916,0.022251347,0.123730846,-0.33351818
1732440792955,2024-11-24T09:33:12.955Z,100924,0.025581887,0.089660205,-0.3694767
1732440792957,2024-11-24T09:33:12.957Z,100926,0.025581887,0.089660205,-0.3694767
1732440792965,2024-11-24T09:33:12.965Z,100934,-0.026050013,0.068412505,-0.31214064
1732440792967,2024-11-24T09:33:12.967Z,100936,-0.026050013,0.068412505,-0.31214064
1732440792975,2024-11-24T09:33:12.975Z,100944,-0.02497528,0.0359518,-0.3292212
1732440792977,2024-11-24T09:33:12.977Z,100946,-0.02497528,0.0359518,-0.3292212
1732440792987,2024-11-24T09:33:12.987Z,100956,-0.042991,0.005821054,-0.2690242
1732440792992,2024-11-24T09:33:12.992Z,100961,-0.042991,0.005821054,-0.2690242
1732440793009,2024-11-24T09:33:13.009Z,100978,-0.06484478,-0.0052509876,-0.26915962
1732440793015,2024-11-24T09:33:13.015Z,100984,-0.06484478,-0.0052509876,-0.26915962
1732440793031,2024-11-24T09:33:13.031Z,101000,-0.07578407,-0.019119581,-0.31002828
1732440793038,2024-11-24T09:33:13.038Z,101007,-0.07578407,-0.019119581,-0.31002828
1732440793059,2024-11-24T09:33:13.059Z,101028,0.06935279,-0.061738294,-0.3088547
1732440793064,2024-11-24T09:33:13.064Z,101033,0.06935279,-0.061738294,-0.3088547
1732440793078,2024-11-24T09:33:13.078Z,101047,-0.015051418,-0.076286554,-0.2835641
1732440793081,2024-11-24T09:33:13.081Z,101050,-0.015051418,-0.076286554,-0.2835641
1732440793094,2024-11-24T09:33:13.094Z,101063,-0.04034093,-0.06386491,-0.26322427
1732440793099,2024-11-24T09:33:13.099Z,101068,-0.04034093,-0.06386491,-0.26322427
1732440793109,2024-11-24T09:33:13.109Z,101078,-0.1324478,-0.07865259,-0.30809066
1732440793112,2024-11-24T09:33:13.112Z,101081,-0.1324478,-0.07865259,-0.30809066
1732440793120,2024-11-24T09:33:13.120Z,101089,-0.11160593,-0.0954355,-0.3134933
1732440793123,2024-11-24T09:33:13.123Z,101092,-0.11160593,-0.0954355,-0.3134933
1732440793131,2024-11-24T09:33:13.131Z,101100,-0.06816306,-0.084365115,-0.33426774
1732440793133,2024-11-24T09:33:13.133Z,101102,-0.06816306,-0.084365115,-0.33426774
1732440793140,2024-11-24T09:33:13.140Z,101109,-0.047181454,-0.049101345,-0.29668096
1732440793143,2024-11-24T09:33:13.143Z,101112,-0.047181454,-0.049101345,-0.29668096
1732440793152,2024-11-24T09:33:13.152Z,101121,-0.07224102,-0.06036399,-0.28484896
1732440793157,2024-11-24T09:33:13.157Z,101126,-0.07224102,-0.06036399,-0.28484896
1732440793173,2024-11-24T09:33:13.173Z,101142,-0.098803535,-0.056153163,-0.29585853
1732440793179,2024-11-24T09:33:13.179Z,101148,-0.098803535,-0.056153163,-0.29585853
1732440793196,2024-11-24T09:33:13.196Z,101165,-0.047720693,-0.043319188,-0.3178274
1732440793200,2024-11-24T09:33:13.200Z,101169,-0.047720693,-0.043319188,-0.3178274
1732440793211,2024-11-24T09:33:13.211Z,101180,0.0035158938,-0.030513512,-0.2846528
1732440793214,2024-11-24T09:33:13.214Z,101183,0.0035158938,-0.030513512,-0.2846528
1732440793224,2024-11-24T09:33:13.224Z,101193,0.017367566,-0.028574295,-0.290165
1732440793227,2024-11-24T09:33:13.227Z,101196,0.017367566,-0.028574295,-0.290165
1732440793236,2024-11-24T09:33:13.236Z,101205,0.043035615,-0.0044080443,-0.28170186
1732440793239,2024-11-24T09:33:13.239Z,101208,0.043035615,-0.0044080443,-0.28170186
1732440793248,2024-11-24T09:33:13.248Z,101217,0.030386532,0.01137526,-0.23087819
1732440793250,2024-11-24T09:33:13.250Z,101219,0.030386532,0.01137526,-0.23087819
1732440793259,2024-11-24T09:33:13.259Z,101228,0.039039146,0.01505842,-0.25367188
1732440793261,2024-11-24T09:33:13.261Z,101230,0.039039146,0.01505842,-0.25367188
1732440793268,2024-11-24T09:33:13.268Z,101237,0.049604017,0.0070728264,-0.26630715
1732440793271,2024-11-24T09:33:13.271Z,101240,0.049604017,0.0070728264,-0.26630715
1732440793278,2024-11-24T09:33:13.278Z,101247,-0.07469354,0.030898321,-0.2006341
1732440793280,2024-11-24T09:33:13.280Z,101249,-0.07469354,0.030898321,-0.2006341
1732440793287,2024-11-24T09:33:13.287Z,101256,-0.05172652,0.025598517,-0.18541786
1732440793289,2024-11-24T09:33:13.289Z,101258,-0.05172652,0.025598517,-0.18541786
1732440793297,2024-11-24T09:33:13.297Z,101266,-0.09197052,-0.0056059416,-0.27507353
1732440793299,2024-11-24T09:33:13.299Z,101268,-0.09197052,-0.0056059416,-0.27507353
1732440793307,2024-11-24T09:33:13.307Z,101276,-0.0018230056,-0.021744492,-0.2955971
1732440793309,2024-11-24T09:33:13.309Z,101278,-0.0018230056,-0.021744492,-0.2955971
1732440793329,2024-11-24T09:33:13.329Z,101298,0.03297558,-0.018177835,-0.27784956
1732440793331,2024-11-24T09:33:13.331Z,101300,0.03297558,-0.018177835,-0.27784956
1732440793337,2024-11-24T09:33:13.337Z,101306,-0.06922649,-0.054941166,-0.2743423
1732440793340,2024-11-24T09:33:13.340Z,101309,-0.06922649,-0.054941166,-0.2743423
1732440793347,2024-11-24T09:33:13.347Z,101316,-0.038720757,-0.06460399,-0.2849939
1732440793349,2024-11-24T09:33:13.349Z,101318,-0.038720757,-0.06460399,-0.2849939
1732440793356,2024-11-24T09:33:13.356Z,101325,-0.03130557,-0.07814146,-0.26298392
1732440793358,2024-11-24T09:33:13.358Z,101327,-0.03130557,-0.07814146,-0.26298392
1732440793377,2024-11-24T09:33:13.377Z,101346,0.0412279,-0.06459816,-0.26463744
1732440793380,2024-11-24T09:33:13.380Z,101349,0.0412279,-0.06459816,-0.26463744
1732440793387,2024-11-24T09:33:13.387Z,101356,0.021055102,-0.06721558,-0.2876882
1732440793389,2024-11-24T09:33:13.389Z,101358,0.021055102,-0.06721558,-0.2876882
1732440793421,2024-11-24T09:33:13.421Z,101390,0.014794222,-0.08519765,-0.33253384
1732440793424,2024-11-24T09:33:13.424Z,101393,0.014794222,-0.08519765,-0.33253384
1732440793432,2024-11-24T09:33:13.432Z,101401,-0.002057397,-0.072433114,-0.2916739
1732440793435,2024-11-24T09:33:13.435Z,101404,-0.002057397,-0.072433114,-0.2916739
1732440793443,2024-11-24T09:33:13.443Z,101412,-0.009683247,-0.079782024,-0.31182578
1732440793445,2024-11-24T09:33:13.445Z,101414,-0.009683247,-0.079782024,-0.31182578
1732440793453,2024-11-24T09:33:13.453Z,101422,0.028724374,-0.079095066,-0.32633188
1732440793455,2024-11-24T09:33:13.455Z,101424,0.028724374,-0.079095066,-0.32633188
1732440793466,2024-11-24T09:33:13.466Z,101435,0.0031032718,-0.061730515,-0.26575604
1732440793468,2024-11-24T09:33:13.468Z,101437,0.0031032718,-0.061730515,-0.26575604
1732440793475,2024-11-24T09:33:13.475Z,101444,0.0037779522,-0.06556091,-0.28916973
1732440793477,2024-11-24T09:33:13.477Z,101446,0.0037779522,-0.06556091,-0.28916973
1732440793510,2024-11-24T09:33:13.510Z,101479,-0.019828882,-0.076851465,-0.2984212
1732440793513,2024-11-24T09:33:13.513Z,101482,-0.019828882,-0.076851465,-0.2984212
1732440793520,2024-11-24T09:33:13.520Z,101489,-0.031839825,-0.08114447,-0.2095144
1732440793522,2024-11-24T09:33:13.522Z,101491,-0.031839825,-0.08114447,-0.2095144
1732440793530,2024-11-24T09:33:13.530Z,101499,-0.020941615,-0.09072327,-0.24889508
1732440793532,2024-11-24T09:33:13.532Z,101501,-0.020941615,-0.09072327,-0.24889508
1732440793539,2024-11-24T09:33:13.539Z,101508,-0.020065704,-0.10966887,-0.28780738
1732440793541,2024-11-24T09:33:13.541Z,101510,-0.020065704,-0.10966887,-0.28780738
1732440793557,2024-11-24T09:33:13.557Z,101526,-0.042248007,-0.09728642,-0.2376829
1732440793559,2024-11-24T09:33:13.559Z,101528,-0.042248007,-0.09728642,-0.2376829
1732440793567,2024-11-24T09:33:13.567Z,101536,-0.05321728,-0.0995555,-0.2731148
1732440793569,2024-11-24T09:33:13.569Z,101538,-0.05321728,-0.0995555,-0.2731148
1732440793576,2024-11-24T09:33:13.576Z,101545,-0.027286615,-0.11080094,-0.23844342
1732440793578,2024-11-24T09:33:13.578Z,101547,-0.027286615,-0.11080094,-0.23844342
1732440793585,2024-11-24T09:33:13.585Z,101554,-0.018765138,-0.111861326,-0.20085095
1732440793587,2024-11-24T09:33:13.587Z,101556,-0.018765138,-0.111861326,-0.20085095
1732440793601,2024-11-24T09:33:13.601Z,101570,-0.029042399,-0.091029406,-0.15471075
1732440793603,2024-11-24T09:33:13.603Z,101572,-0.029042399,-0.091029406,-0.15471075
1732440793611,2024-11-24T09:33:13.611Z,101580,-0.025765661,-0.10087651,-0.20020507
1732440793615,2024-11-24T09:33:13.615Z,101584,-0.025765661,-0.10087651,-0.20020507
1732440793627,2024-11-24T09:33:13.627Z,101596,-0.018521825,-0.09657797,-0.21930413
1732440793633,2024-11-24T09:33:13.633Z,101602,-0.018521825,-0.09657797,-0.21930413
1732440793653,2024-11-24T09:33:13.653Z,101622,0.0028218613,-0.11149275,-0.20193732
1732440793659,2024-11-24T09:33:13.659Z,101628,0.0028218613,-0.11149275,-0.20193732
1732440793678,2024-11-24T09:33:13.678Z,101647,-0.022434002,-0.11359992,-0.16726676
1732440793683,2024-11-24T09:33:13.683Z,101652,-0.022434002,-0.11359992,-0.16726676
1732440793700,2024-11-24T09:33:13.700Z,101669,-0.065912336,-0.10467676,-0.11393618
1732440793706,2024-11-24T09:33:13.706Z,101675,-0.065912336,-0.10467676,-0.11393618
1732440793718,2024-11-24T09:33:13.718Z,101687,-0.039836213,-0.109618306,-0.20706464
1732440793721,2024-11-24T09:33:13.721Z,101690,-0.039836213,-0.109618306,-0.20706464
1732440793730,2024-11-24T09:33:13.730Z,101699,-0.019120725,-0.10410543,-0.20483972
1732440793732,2024-11-24T09:33:13.732Z,101701,-0.019120725,-0.10410543,-0.20483972
1732440793741,2024-11-24T09:33:13.741Z,101710,0.034608856,-0.097982906,-0.2360502
1732440793743,2024-11-24T09:33:13.743Z,101712,0.034608856,-0.097982906,-0.2360502
1732440793751,2024-11-24T09:33:13.751Z,101720,-0.02580665,-0.11435864,-0.17437834
1732440793753,2024-11-24T09:33:13.753Z,101722,-0.02580665,-0.11435864,-0.17437834
1732440793760,2024-11-24T09:33:13.760Z,101729,-0.049353946,-0.11657132,-0.1041228
1732440793762,2024-11-24T09:33:13.762Z,101731,-0.049353946,-0.11657132,-0.1041228
1732440793769,2024-11-24T09:33:13.769Z,101738,-0.04660969,-0.09160161,-0.10379498
1732440793771,2024-11-24T09:33:13.771Z,101740,-0.04660969,-0.09160161,-0.10379498
1732440793780,2024-11-24T09:33:13.780Z,101749,-0.061952386,-0.096795514,-0.18420368
1732440793783,2024-11-24T09:33:13.783Z,101752,-0.061952386,-0.096795514,-0.18420368
1732440793789,2024-11-24T09:33:13.789Z,101758,-0.026457457,-0.09590191,-0.22840773
1732440793792,2024-11-24T09:33:13.792Z,101761,-0.026457457,-0.09590191,-0.22840773
1732440793799,2024-11-24T09:33:13.799Z,101768,0.032892168,-0.11596683,-0.263268
1732440793801,2024-11-24T09:33:13.801Z,101770,0.032892168,-0.11596683,-0.263268
1732440793825,2024-11-24T09:33:13.825Z,101794,0.0032096852,-0.109950215,-0.19044624
1732440793827,2024-11-24T09:33:13.827Z,101796,0.0032096852,-0.109950215,-0.19044624
1732440793834,2024-11-24T09:33:13.834Z,101803,-0.012771202,-0.102996804,-0.15937392
1732440793836,2024-11-24T09:33:13.836Z,101805,-0.012771202,-0.102996804,-0.15937392
1732440793843,2024-11-24T09:33:13.843Z,101812,-0.07016274,-0.09017459,-0.1457109
1732440793846,2024-11-24T09:33:13.846Z,101815,-0.07016274,-0.09017459,-0.1457109
1732440793873,2024-11-24T09:33:13.873Z,101842,-0.0905694,-0.093103506,-0.1701466
1732440793879,2024-11-24T09:33:13.879Z,101848,-0.0905694,-0.093103506,-0.1701466
1732440793900,2024-11-24T09:33:13.900Z,101869,-0.042307764,-0.100571156,-0.20722148
1732440793906,2024-11-24T09:33:13.906Z,101875,-0.042307764,-0.100571156,-0.20722148
1732440793922,2024-11-24T09:33:13.922Z,101891,0.0047350884,-0.10212381,-0.21102059
1732440793925,2024-11-24T09:33:13.925Z,101894,0.0047350884,-0.10212381,-0.21102059
1732440793934,2024-11-24T09:33:13.934Z,101903,-0.0012722675,-0.1022798,-0.16893318
1732440793937,2024-11-24T09:33:13.937Z,101906,-0.0012722675,-0.1022798,-0.16893318
1732440793947,2024-11-24T09:33:13.947Z,101916,-0.027308812,-0.076955326,-0.15842378
1732440793950,2024-11-24T09:33:13.950Z,101919,-0.027308812,-0.076955326,-0.15842378
1732440793959,2024-11-24T09:33:13.959Z,101928,-0.09079224,-0.07051344,-0.1523853
1732440793962,2024-11-24T09:33:13.962Z,101931,-0.09079224,-0.07051344,-0.1523853
1732440793970,2024-11-24T09:33:13.970Z,101939,-0.04350554,-0.062117368,-0.19768903
1732440793973,2024-11-24T09:33:13.973Z,101942,-0.04350554,-0.062117368,-0.19768903
1732440793981,2024-11-24T09:33:13.981Z,101950,0.024305267,-0.07167827,-0.2248914
1732440793983,2024-11-24T09:33:13.983Z,101952,0.024305267,-0.07167827,-0.2248914
1732440793990,2024-11-24T09:33:13.990Z,101959,0.0228713,-0.078173645,-0.20817065
1732440793993,2024-11-24T09:33:13.993Z,101962,0.0228713,-0.078173645,-0.20817065
