Timestamp (ms),ISO DateTime,Elapsed Time (ms),Acceleration X,Acceleration Y,Acceleration Z
1732440853234,2024-11-24T09:34:13.234Z,40592,-0.21895012,-0.45109618,-0.97356194
1732440853240,2024-11-24T09:34:13.240Z,40598,-0.21895012,-0.45109618,-0.97356194
1732440853262,2024-11-24T09:34:13.262Z,40620,-0.22813135,-0.45765698,-0.95741016
1732440853268,2024-11-24T09:34:13.268Z,40626,-0.22813135,-0.45765698,-0.95741016
1732440853291,2024-11-24T09:34:13.291Z,40649,-0.2400625,-0.442169,-0.9641275
1732440853297,2024-11-24T09:34:13.297Z,40655,-0.2400625,-0.442169,-0.9641275
1732440853314,2024-11-24T09:34:13.314Z,40672,-0.28229323,-0.44607657,-0.93953604
1732440853319,2024-11-24T09:34:13.319Z,40677,-0.28229323,-0.44607657,-0.93953604
1732440853332,2024-11-24T09:34:13.332Z,40690,-0.285628,-0.44403243,-0.9271464
1732440853336,2024-11-24T09:34:13.336Z,40694,-0.285628,-0.44403243,-0.9271464
1732440853348,2024-11-24T09:34:13.348Z,40706,-0.28980047,-0.44719416,-0.9074386
1732440853352,2024-11-24T09:34:13.352Z,40710,-0.28980047,-0.44719416,-0.9074386
1732440853364,2024-11-24T09:34:13.364Z,40722,-0.2732034,-0.44777802,-0.90969294
1732440853368,2024-11-24T09:34:13.368Z,40726,-0.2732034,-0.44777802,-0.90969294
1732440853379,2024-11-24T09:34:13.379Z,40737,-0.26552588,-0.44478017,-0.9216661
1732440853383,2024-11-24T09:34:13.383Z,40741,-0.26552588,-0.44478017,-0.9216661
1732440853395,2024-11-24T09:34:13.395Z,40753,-0.2642771,-0.44173282,-0.9448652
1732440853398,2024-11-24T09:34:13.398Z,40756,-0.2642771,-0.44173282,-0.9448652
1732440853411,2024-11-24T09:34:13.411Z,40769,-0.23325905,-0.45005858,-0.9896204
1732440853414,2024-11-24T09:34:13.414Z,40772,-0.23325905,-0.45005858,-0.9896204
1732440853424,2024-11-24T09:34:13.424Z,40782,-0.26157933,-0.45861328,-0.97730035
1732440853428,2024-11-24T09:34:13.428Z,40786,-0.26157933,-0.45861328,-0.97730035
1732440853441,2024-11-24T09:34:13.441Z,40799,-0.26450902,-0.45324218,-0.9655816
1732440853445,2024-11-24T09:34:13.445Z,40803,-0.26450902,-0.45324218,-0.9655816
1732440853457,2024-11-24T09:34:13.457Z,40815,-0.2725055,-0.44684893,-0.9309364
1732440853461,2024-11-24T09:34:13.461Z,40819,-0.2725055,-0.44684893,-0.9309364
1732440853472,2024-11-24T09:34:13.472Z,40830,-0.280857,-0.4502033,-0.9124817
1732440853476,2024-11-24T09:34:13.476Z,40834,-0.280857,-0.4502033,-0.9124817
1732440853488,2024-11-24T09:34:13.488Z,40846,-0.28536823,-0.45079198,-0.9112114
1732440853492,2024-11-24T09:34:13.492Z,40850,-0.28536823,-0.45079198,-0.9112114
1732440853506,2024-11-24T09:34:13.506Z,40864,-0.28864494,-0.44628435,-0.9378428
1732440853511,2024-11-24T09:34:13.511Z,40869,-0.28864494,-0.44628435,-0.9378428
1732440853522,2024-11-24T09:34:13.522Z,40880,-0.27570695,-0.44632524,-0.9562226
1732440853526,2024-11-24T09:34:13.526Z,40884,-0.27570695,-0.44632524,-0.9562226
1732440853540,2024-11-24T09:34:13.540Z,40898,-0.24990523,-0.45454964,-0.9764379
1732440853545,2024-11-24T09:34:13.545Z,40903,-0.24990523,-0.45454964,-0.9764379
1732440853556,2024-11-24T09:34:13.556Z,40914,-0.20956022,-0.4605716,-0.9976719
1732440853560,2024-11-24T09:34:13.560Z,40918,-0.20956022,-0.4605716,-0.9976719
1732440853573,2024-11-24T09:34:13.573Z,40931,-0.24362665,-0.45362377,-0.97085226
1732440853577,2024-11-24T09:34:13.577Z,40935,-0.24362665,-0.45362377,-0.97085226
1732440853590,2024-11-24T09:34:13.590Z,40948,-0.27893424,-0.44393557,-0.91565084
1732440853594,2024-11-24T09:34:13.594Z,40952,-0.27893424,-0.44393557,-0.91565084
1732440853606,2024-11-24T09:34:13.606Z,40964,-0.29278907,-0.45204055,-0.9226895
1732440853609,2024-11-24T09:34:13.609Z,40967,-0.29278907,-0.45204055,-0.9226895
1732440853621,2024-11-24T09:34:13.621Z,40979,-0.30952957,-0.4613522,-0.9303164
1732440853624,2024-11-24T09:34:13.624Z,40982,-0.30952957,-0.4613522,-0.9303164
1732440853639,2024-11-24T09:34:13.639Z,40997,-0.29039487,-0.4864776,-0.9407716
1732440853642,2024-11-24T09:34:13.642Z,41000,-0.29039487,-0.4864776,-0.9407716
1732440853655,2024-11-24T09:34:13.655Z,41013,-0.2804809,-0.46896946,-0.9472333
1732440853659,2024-11-24T09:34:13.659Z,41017,-0.2804809,-0.46896946,-0.9472333
1732440853678,2024-11-24T09:34:13.678Z,41036,-0.2604487,-0.4697934,-0.94824857
1732440853686,2024-11-24T09:34:13.686Z,41044,-0.2604487,-0.4697934,-0.94824857
1732440853713,2024-11-24T09:34:13.713Z,41071,-0.23444639,-0.33789894,-0.83722425
1732440853721,2024-11-24T09:34:13.721Z,41079,-0.23444639,-0.33789894,-0.83722425
1732440853746,2024-11-24T09:34:13.746Z,41104,-0.21328503,-0.32239503,-0.87484676
1732440853752,2024-11-24T09:34:13.752Z,41110,-0.21328503,-0.32239503,-0.87484676
1732440853766,2024-11-24T09:34:13.766Z,41124,-0.19332303,-0.31628862,-0.89669317
1732440853770,2024-11-24T09:34:13.770Z,41128,-0.19332303,-0.31628862,-0.89669317
1732440853785,2024-11-24T09:34:13.785Z,41143,-0.20393188,-0.30990723,-0.9002183
1732440853789,2024-11-24T09:34:13.789Z,41147,-0.20393188,-0.30990723,-0.9002183
1732440853803,2024-11-24T09:34:13.803Z,41161,-0.20641793,-0.32013366,-0.8748375
1732440853807,2024-11-24T09:34:13.807Z,41165,-0.20641793,-0.32013366,-0.8748375
1732440853829,2024-11-24T09:34:13.829Z,41187,-0.15129659,-0.3010021,-0.8126615
1732440853840,2024-11-24T09:34:13.840Z,41198,-0.15129659,-0.3010021,-0.8126615
1732440853872,2024-11-24T09:34:13.872Z,41230,-0.15959784,-0.30115426,-0.82464904
1732440853881,2024-11-24T09:34:13.881Z,41239,-0.15959784,-0.30115426,-0.82464904
1732440853903,2024-11-24T09:34:13.903Z,41261,-0.18656692,-0.30362442,-0.84032995
1732440853908,2024-11-24T09:34:13.908Z,41266,-0.18656692,-0.30362442,-0.84032995
1732440853925,2024-11-24T09:34:13.925Z,41283,-0.21731144,-0.3075423,-0.9049336
1732440853933,2024-11-24T09:34:13.933Z,41291,-0.21731144,-0.3075423,-0.9049336
1732440853958,2024-11-24T09:34:13.958Z,41316,-0.20185606,-0.29495752,-0.9014722
1732440853966,2024-11-24T09:34:13.966Z,41324,-0.20185606,-0.29495752,-0.9014722
1732440853990,2024-11-24T09:34:13.990Z,41348,-0.17360161,-0.29096547,-0.8740823
1732440854000,2024-11-24T09:34:14Z,41358,-0.17360161,-0.29096547,-0.8740823
1732440854016,2024-11-24T09:34:14.016Z,41374,-0.20854048,-0.27613527,-0.85009986
1732440854020,2024-11-24T09:34:14.020Z,41378,-0.20854048,-0.27613527,-0.85009986
1732440854035,2024-11-24T09:34:14.035Z,41393,-0.18500914,-0.2743694,-0.8470874
1732440854040,2024-11-24T09:34:14.040Z,41398,-0.18500914,-0.2743694,-0.8470874
1732440854053,2024-11-24T09:34:14.053Z,41411,-0.18326072,-0.27314812,-0.8557683
1732440854057,2024-11-24T09:34:14.057Z,41415,-0.18326072,-0.27314812,-0.8557683
1732440854070,2024-11-24T09:34:14.070Z,41428,-0.18563713,-0.272299,-0.8809847
1732440854073,2024-11-24T09:34:14.073Z,41431,-0.18563713,-0.272299,-0.8809847
1732440854086,2024-11-24T09:34:14.086Z,41444,-0.1929436,-0.27184242,-0.89709276
1732440854091,2024-11-24T09:34:14.091Z,41449,-0.1929436,-0.27184242,-0.89709276
1732440854105,2024-11-24T09:34:14.105Z,41463,-0.1770609,-0.2858471,-0.91349274
1732440854109,2024-11-24T09:34:14.109Z,41467,-0.1770609,-0.2858471,-0.91349274
1732440854121,2024-11-24T09:34:14.121Z,41479,-0.21222898,-0.2915869,-0.852865
1732440854124,2024-11-24T09:34:14.124Z,41482,-0.21222898,-0.2915869,-0.852865
1732440854135,2024-11-24T09:34:14.135Z,41493,-0.19180451,-0.29979476,-0.8541347
1732440854139,2024-11-24T09:34:14.139Z,41497,-0.19180451,-0.29979476,-0.8541347
1732440854152,2024-11-24T09:34:14.152Z,41510,-0.1746405,-0.29178652,-0.8333152
1732440854156,2024-11-24T09:34:14.156Z,41514,-0.1746405,-0.29178652,-0.8333152
1732440854169,2024-11-24T09:34:14.169Z,41527,-0.11369508,-0.31151253,-0.8759234
1732440854174,2024-11-24T09:34:14.174Z,41532,-0.11369508,-0.31151253,-0.8759234
1732440854186,2024-11-24T09:34:14.186Z,41544,-0.164606,-0.33028588,-0.8391692
1732440854189,2024-11-24T09:34:14.189Z,41547,-0.164606,-0.33028588,-0.8391692
1732440854203,2024-11-24T09:34:14.203Z,41561,-0.22557738,-0.30626407,-0.8544124
1732440854206,2024-11-24T09:34:14.206Z,41564,-0.22557738,-0.30626407,-0.8544124
1732440854221,2024-11-24T09:34:14.221Z,41579,-0.15814875,-0.32367656,-0.87538433
1732440854224,2024-11-24T09:34:14.224Z,41582,-0.15814875,-0.32367656,-0.87538433
1732440854236,2024-11-24T09:34:14.236Z,41594,-0.13882834,-0.3090541,-0.8729121
1732440854240,2024-11-24T09:34:14.240Z,41598,-0.13882834,-0.3090541,-0.8729121
1732440854252,2024-11-24T09:34:14.252Z,41610,-0.16659504,-0.32162356,-0.8451749
1732440854255,2024-11-24T09:34:14.255Z,41613,-0.16659504,-0.32162356,-0.8451749
1732440854266,2024-11-24T09:34:14.266Z,41624,-0.15523101,-0.2856389,-0.8710106
1732440854269,2024-11-24T09:34:14.269Z,41627,-0.15523101,-0.2856389,-0.8710106
1732440854280,2024-11-24T09:34:14.280Z,41638,-0.124814965,-0.28210527,-0.86828285
1732440854284,2024-11-24T09:34:14.284Z,41642,-0.124814965,-0.28210527,-0.86828285
1732440854296,2024-11-24T09:34:14.296Z,41654,-0.17854857,-0.2685657,-0.86120516
1732440854301,2024-11-24T09:34:14.301Z,41659,-0.17854857,-0.2685657,-0.86120516
1732440854314,2024-11-24T09:34:14.314Z,41672,-0.13502814,-0.28149012,-0.8324677
1732440854318,2024-11-24T09:34:14.318Z,41676,-0.13502814,-0.28149012,-0.8324677
1732440854330,2024-11-24T09:34:14.330Z,41688,-0.07273548,-0.28718758,-0.87161106
1732440854334,2024-11-24T09:34:14.334Z,41692,-0.07273548,-0.28718758,-0.87161106
1732440854345,2024-11-24T09:34:14.345Z,41703,-0.12416272,-0.263015,-0.8511849
1732440854349,2024-11-24T09:34:14.349Z,41707,-0.12416272,-0.263015,-0.8511849
1732440854361,2024-11-24T09:34:14.361Z,41719,-0.15949965,-0.20643838,-0.8148011
1732440854365,2024-11-24T09:34:14.365Z,41723,-0.15949965,-0.20643838,-0.8148011
1732440854381,2024-11-24T09:34:14.381Z,41739,-0.1348864,-0.20918791,-0.8296492
1732440854390,2024-11-24T09:34:14.390Z,41748,-0.1348864,-0.20918791,-0.8296492
1732440854412,2024-11-24T09:34:14.412Z,41770,-0.08274091,-0.2137764,-0.8342759
1732440854417,2024-11-24T09:34:14.417Z,41775,-0.08274091,-0.2137764,-0.8342759
1732440854438,2024-11-24T09:34:14.438Z,41796,-0.14940856,-0.20624636,-0.8714288
1732440854441,2024-11-24T09:34:14.441Z,41799,-0.14940856,-0.20624636,-0.8714288
1732440854452,2024-11-24T09:34:14.452Z,41810,-0.1267812,-0.2022734,-0.846571
1732440854457,2024-11-24T09:34:14.457Z,41815,-0.1267812,-0.2022734,-0.846571
1732440854468,2024-11-24T09:34:14.468Z,41826,-0.1266456,-0.18990481,-0.81042236
1732440854472,2024-11-24T09:34:14.472Z,41830,-0.1266456,-0.18990481,-0.81042236
1732440854484,2024-11-24T09:34:14.484Z,41842,-0.19373831,-0.21116972,-0.8082729
1732440854487,2024-11-24T09:34:14.487Z,41845,-0.19373831,-0.21116972,-0.8082729
1732440854499,2024-11-24T09:34:14.499Z,41857,-0.19750644,-0.22898492,-0.8893799
1732440854502,2024-11-24T09:34:14.502Z,41860,-0.19750644,-0.22898492,-0.8893799
1732440854515,2024-11-24T09:34:14.515Z,41873,-0.13749081,-0.24434972,-0.91635686
1732440854521,2024-11-24T09:34:14.521Z,41879,-0.13749081,-0.24434972,-0.91635686
1732440854541,2024-11-24T09:34:14.541Z,41899,-0.24426457,-0.22071871,-0.833724
1732440854545,2024-11-24T09:34:14.545Z,41903,-0.24426457,-0.22071871,-0.833724
1732440854560,2024-11-24T09:34:14.560Z,41918,-0.19980192,-0.24570763,-0.8854199
1732440854563,2024-11-24T09:34:14.563Z,41921,-0.19980192,-0.24570763,-0.8854199
1732440854575,2024-11-24T09:34:14.575Z,41933,-0.12867893,-0.25370517,-0.88172555
1732440854579,2024-11-24T09:34:14.579Z,41937,-0.12867893,-0.25370517,-0.88172555
1732440854593,2024-11-24T09:34:14.593Z,41951,-0.10490974,-0.23442218,-0.81080854
1732440854598,2024-11-24T09:34:14.598Z,41956,-0.10490974,-0.23442218,-0.81080854
1732440854616,2024-11-24T09:34:14.616Z,41974,-0.10625767,-0.2441823,-0.81124276
1732440854620,2024-11-24T09:34:14.620Z,41978,-0.10625767,-0.2441823,-0.81124276
1732440854630,2024-11-24T09:34:14.630Z,41988,-0.15693188,-0.24544545,-0.90642244
1732440854634,2024-11-24T09:34:14.634Z,41992,-0.15693188,-0.24544545,-0.90642244
1732440854646,2024-11-24T09:34:14.646Z,42004,-0.14100693,-0.24063252,-0.80725044
1732440854650,2024-11-24T09:34:14.650Z,42008,-0.14100693,-0.24063252,-0.80725044
1732440854661,2024-11-24T09:34:14.661Z,42019,-0.13507403,-0.22909057,-0.7727529
1732440854665,2024-11-24T09:34:14.665Z,42023,-0.13507403,-0.22909057,-0.7727529
1732440854676,2024-11-24T09:34:14.676Z,42034,-0.11272503,-0.23763135,-0.767468
1732440854682,2024-11-24T09:34:14.682Z,42040,-0.11272503,-0.23763135,-0.767468
1732440854693,2024-11-24T09:34:14.693Z,42051,-0.13007599,-0.2523518,-0.80031145
1732440854696,2024-11-24T09:34:14.696Z,42054,-0.13007599,-0.2523518,-0.80031145
1732440854709,2024-11-24T09:34:14.709Z,42067,-0.10658439,-0.2433838,-0.7929838
1732440854712,2024-11-24T09:34:14.712Z,42070,-0.10658439,-0.2433838,-0.7929838
1732440854722,2024-11-24T09:34:14.722Z,42080,-0.14615649,-0.26680106,-0.7706727
1732440854726,2024-11-24T09:34:14.726Z,42084,-0.14615649,-0.26680106,-0.7706727
1732440854738,2024-11-24T09:34:14.738Z,42096,-0.12086262,-0.27301362,-0.868619
1732440854741,2024-11-24T09:34:14.741Z,42099,-0.12086262,-0.27301362,-0.868619
1732440854753,2024-11-24T09:34:14.753Z,42111,-0.07428398,-0.2846152,-0.8716856
1732440854757,2024-11-24T09:34:14.757Z,42115,-0.07428398,-0.2846152,-0.8716856
1732440854771,2024-11-24T09:34:14.771Z,42129,-0.06104988,-0.28437105,-0.86571425
1732440854774,2024-11-24T09:34:14.774Z,42132,-0.06104988,-0.28437105,-0.86571425
1732440854787,2024-11-24T09:34:14.787Z,42145,-0.10978681,-0.29255435,-0.795428
1732440854791,2024-11-24T09:34:14.791Z,42149,-0.10978681,-0.29255435,-0.795428
1732440854805,2024-11-24T09:34:14.805Z,42163,-0.12836474,-0.2806419,-0.7685906
1732440854809,2024-11-24T09:34:14.809Z,42167,-0.12836474,-0.2806419,-0.7685906
1732440854821,2024-11-24T09:34:14.821Z,42179,-0.14389156,-0.28374735,-0.84158725
1732440854825,2024-11-24T09:34:14.825Z,42183,-0.14389156,-0.28374735,-0.84158725
1732440854835,2024-11-24T09:34:14.835Z,42193,-0.11127949,-0.29135177,-0.8965265
1732440854838,2024-11-24T09:34:14.838Z,42196,-0.11127949,-0.29135177,-0.8965265
1732440854849,2024-11-24T09:34:14.849Z,42207,-0.10716365,-0.282765,-0.89185166
1732440854852,2024-11-24T09:34:14.852Z,42210,-0.10716365,-0.282765,-0.89185166
1732440854862,2024-11-24T09:34:14.862Z,42220,-0.12769765,-0.291553,-0.8734566
1732440854865,2024-11-24T09:34:14.865Z,42223,-0.12769765,-0.291553,-0.8734566
1732440854875,2024-11-24T09:34:14.875Z,42233,-0.13614006,-0.28079155,-0.8731645
1732440854878,2024-11-24T09:34:14.878Z,42236,-0.13614006,-0.28079155,-0.8731645
1732440854887,2024-11-24T09:34:14.887Z,42245,-0.14733972,-0.28710297,-0.8891126
1732440854891,2024-11-24T09:34:14.891Z,42249,-0.14733972,-0.28710297,-0.8891126
1732440854900,2024-11-24T09:34:14.900Z,42258,-0.1528655,-0.28888154,-0.8744249
1732440854904,2024-11-24T09:34:14.904Z,42262,-0.1528655,-0.28888154,-0.8744249
1732440854917,2024-11-24T09:34:14.917Z,42275,-0.10166852,-0.29118162,-0.84566903
1732440854924,2024-11-24T09:34:14.924Z,42282,-0.10166852,-0.29118162,-0.84566903
1732440854947,2024-11-24T09:34:14.947Z,42305,-0.09464396,-0.310212,-0.87032825
1732440854953,2024-11-24T09:34:14.953Z,42311,-0.09464396,-0.310212,-0.87032825
1732440854975,2024-11-24T09:34:14.975Z,42333,-0.1597675,-0.2930538,-0.82408774
1732440854983,2024-11-24T09:34:14.983Z,42341,-0.1597675,-0.2930538,-0.82408774
1732440855007,2024-11-24T09:34:15.007Z,42365,-0.10215748,-0.31252363,-0.7677149
1732440855014,2024-11-24T09:34:15.014Z,42372,-0.10215748,-0.31252363,-0.7677149
1732440855037,2024-11-24T09:34:15.037Z,42395,-0.093735516,-0.30953544,-0.7808482
1732440855042,2024-11-24T09:34:15.042Z,42400,-0.093735516,-0.30953544,-0.7808482
1732440855057,2024-11-24T09:34:15.057Z,42415,-0.07645409,-0.31441537,-0.819601
1732440855062,2024-11-24T09:34:15.062Z,42420,-0.07645409,-0.31441537,-0.819601
1732440855077,2024-11-24T09:34:15.077Z,42435,-0.019694388,-0.30419806,-0.8288643
1732440855081,2024-11-24T09:34:15.081Z,42439,-0.019694388,-0.30419806,-0.8288643
1732440855093,2024-11-24T09:34:15.093Z,42451,-0.053351797,-0.32410592,-0.7519901
1732440855097,2024-11-24T09:34:15.097Z,42455,-0.053351797,-0.32410592,-0.7519901
1732440855108,2024-11-24T09:34:15.108Z,42466,-0.097397596,-0.32445174,-0.71785265
1732440855112,2024-11-24T09:34:15.112Z,42470,-0.097397596,-0.32445174,-0.71785265
1732440855122,2024-11-24T09:34:15.122Z,42480,-0.13297224,-0.3342235,-0.75600386
1732440855125,2024-11-24T09:34:15.125Z,42483,-0.13297224,-0.3342235,-0.75600386
1732440855137,2024-11-24T09:34:15.137Z,42495,-0.036642525,-0.34813884,-0.79326135
1732440855142,2024-11-24T09:34:15.142Z,42500,-0.036642525,-0.34813884,-0.79326135
1732440855153,2024-11-24T09:34:15.153Z,42511,-0.017102396,-0.34352073,-0.845987
1732440855155,2024-11-24T09:34:15.155Z,42513,-0.017102396,-0.34352073,-0.845987
1732440855169,2024-11-24T09:34:15.169Z,42527,-0.060091723,-0.33529097,-0.7462154
1732440855172,2024-11-24T09:34:15.172Z,42530,-0.060091723,-0.33529097,-0.7462154
1732440855182,2024-11-24T09:34:15.182Z,42540,-0.10948272,-0.33603355,-0.721619
1732440855185,2024-11-24T09:34:15.185Z,42543,-0.10948272,-0.33603355,-0.721619
1732440855199,2024-11-24T09:34:15.199Z,42557,-0.12205874,-0.33254886,-0.7166536
1732440855205,2024-11-24T09:34:15.205Z,42563,-0.12205874,-0.33254886,-0.7166536
1732440855227,2024-11-24T09:34:15.227Z,42585,-0.08756743,-0.36265785,-0.797256
1732440855233,2024-11-24T09:34:15.233Z,42591,-0.08756743,-0.36265785,-0.797256
1732440855254,2024-11-24T09:34:15.254Z,42612,-0.004407145,-0.38140482,-0.8562662
1732440855263,2024-11-24T09:34:15.263Z,42621,-0.004407145,-0.38140482,-0.8562662
1732440855289,2024-11-24T09:34:15.289Z,42647,-0.008904292,-0.371918,-0.817375
1732440855297,2024-11-24T09:34:15.297Z,42655,-0.008904292,-0.371918,-0.817375
1732440855314,2024-11-24T09:34:15.314Z,42672,-0.16751322,-0.37421644,-0.76425207
1732440855318,2024-11-24T09:34:15.318Z,42676,-0.16751322,-0.37421644,-0.76425207
1732440855332,2024-11-24T09:34:15.332Z,42690,-0.1706586,-0.37437877,-0.75578684
1732440855337,2024-11-24T09:34:15.337Z,42695,-0.1706586,-0.37437877,-0.75578684
1732440855350,2024-11-24T09:34:15.350Z,42708,-0.15254298,-0.37049708,-0.7715224
1732440855354,2024-11-24T09:34:15.354Z,42712,-0.15254298,-0.37049708,-0.7715224
1732440855366,2024-11-24T09:34:15.366Z,42724,-0.050696038,-0.3908722,-0.79535913
1732440855370,2024-11-24T09:34:15.370Z,42728,-0.050696038,-0.3908722,-0.79535913
1732440855381,2024-11-24T09:34:15.381Z,42739,-0.076614104,-0.3835556,-0.76149815
1732440855385,2024-11-24T09:34:15.385Z,42743,-0.076614104,-0.3835556,-0.76149815
1732440855396,2024-11-24T09:34:15.396Z,42754,-0.049215414,-0.36517382,-0.75017476
1732440855399,2024-11-24T09:34:15.399Z,42757,-0.049215414,-0.36517382,-0.75017476
1732440855409,2024-11-24T09:34:15.409Z,42767,-0.08156105,-0.3791368,-0.77017283
1732440855412,2024-11-24T09:34:15.412Z,42770,-0.08156105,-0.3791368,-0.77017283
1732440855423,2024-11-24T09:34:15.423Z,42781,-0.13121396,-0.36699396,-0.7751847
1732440855427,2024-11-24T09:34:15.427Z,42785,-0.13121396,-0.36699396,-0.7751847
1732440855438,2024-11-24T09:34:15.438Z,42796,-0.104157776,-0.37264526,-0.7884649
1732440855441,2024-11-24T09:34:15.441Z,42799,-0.104157776,-0.37264526,-0.7884649
1732440855455,2024-11-24T09:34:15.455Z,42813,-0.12254367,-0.37572715,-0.76582545
1732440855462,2024-11-24T09:34:15.462Z,42820,-0.12254367,-0.37572715,-0.76582545
1732440855483,2024-11-24T09:34:15.483Z,42841,-0.07915256,-0.39494893,-0.7670511
1732440855489,2024-11-24T09:34:15.489Z,42847,-0.07915256,-0.39494893,-0.7670511
1732440855501,2024-11-24T09:34:15.501Z,42859,-0.06783551,-0.40800413,-0.7513692
1732440855505,2024-11-24T09:34:15.505Z,42863,-0.06783551,-0.40800413,-0.7513692
1732440855517,2024-11-24T09:34:15.517Z,42875,-0.074341625,-0.40112504,-0.75359994
1732440855521,2024-11-24T09:34:15.521Z,42879,-0.074341625,-0.40112504,-0.75359994
1732440855531,2024-11-24T09:34:15.531Z,42889,-0.09891089,-0.39170316,-0.7963869
1732440855534,2024-11-24T09:34:15.534Z,42892,-0.09891089,-0.39170316,-0.7963869
1732440855544,2024-11-24T09:34:15.544Z,42902,-0.09505748,-0.41021785,-0.7555908
1732440855547,2024-11-24T09:34:15.547Z,42905,-0.09505748,-0.41021785,-0.7555908
1732440855559,2024-11-24T09:34:15.559Z,42917,-0.08783277,-0.39667553,-0.71653724
1732440855563,2024-11-24T09:34:15.563Z,42921,-0.08783277,-0.39667553,-0.71653724
1732440855574,2024-11-24T09:34:15.574Z,42932,-0.061218336,-0.41265565,-0.7507471
1732440855577,2024-11-24T09:34:15.577Z,42935,-0.061218336,-0.41265565,-0.7507471
1732440855587,2024-11-24T09:34:15.587Z,42945,-0.07176933,-0.40946218,-0.7504575
1732440855591,2024-11-24T09:34:15.591Z,42949,-0.07176933,-0.40946218,-0.7504575
1732440855601,2024-11-24T09:34:15.601Z,42959,-0.073477186,-0.4001125,-0.75742275
1732440855604,2024-11-24T09:34:15.604Z,42962,-0.073477186,-0.4001125,-0.75742275
1732440855615,2024-11-24T09:34:15.615Z,42973,-0.11564829,-0.38839644,-0.69900316
1732440855618,2024-11-24T09:34:15.618Z,42976,-0.11564829,-0.38839644,-0.69900316
1732440855628,2024-11-24T09:34:15.628Z,42986,-0.07717231,-0.40333694,-0.70658994
1732440855632,2024-11-24T09:34:15.632Z,42990,-0.07717231,-0.40333694,-0.70658994
1732440855644,2024-11-24T09:34:15.644Z,43002,-0.086924165,-0.4073028,-0.71529406
1732440855647,2024-11-24T09:34:15.647Z,43005,-0.086924165,-0.4073028,-0.71529406
1732440855656,2024-11-24T09:34:15.656Z,43014,-0.10191514,-0.42016196,-0.719796
1732440855659,2024-11-24T09:34:15.659Z,43017,-0.10191514,-0.42016196,-0.719796
1732440855669,2024-11-24T09:34:15.669Z,43027,-0.16847175,-0.40980896,-0.7082096
1732440855672,2024-11-24T09:34:15.672Z,43030,-0.16847175,-0.40980896,-0.7082096
1732440855686,2024-11-24T09:34:15.686Z,43044,-0.21826182,-0.43095344,-0.671989
1732440855693,2024-11-24T09:34:15.693Z,43051,-0.21826182,-0.43095344,-0.671989
1732440855716,2024-11-24T09:34:15.716Z,43074,-0.21489647,-0.43110457,-0.634009
1732440855720,2024-11-24T09:34:15.720Z,43078,-0.21489647,-0.43110457,-0.634009
1732440855730,2024-11-24T09:34:15.730Z,43088,-0.16693467,-0.43508422,-0.65162516
1732440855733,2024-11-24T09:34:15.733Z,43091,-0.16693467,-0.43508422,-0.65162516
1732440855744,2024-11-24T09:34:15.744Z,43102,-0.14380325,-0.42651963,-0.75427103
1732440855747,2024-11-24T09:34:15.747Z,43105,-0.14380325,-0.42651963,-0.75427103
1732440855758,2024-11-24T09:34:15.758Z,43116,-0.20834956,-0.4463926,-0.7675477
1732440855761,2024-11-24T09:34:15.761Z,43119,-0.20834956,-0.4463926,-0.7675477
1732440855771,2024-11-24T09:34:15.771Z,43129,-0.15262778,-0.44462812,-0.727291
1732440855774,2024-11-24T09:34:15.774Z,43132,-0.15262778,-0.44462812,-0.727291
1732440855785,2024-11-24T09:34:15.785Z,43143,-0.18771675,-0.4564794,-0.66680753
1732440855789,2024-11-24T09:34:15.789Z,43147,-0.18771675,-0.4564794,-0.66680753
1732440855800,2024-11-24T09:34:15.800Z,43158,-0.17006873,-0.42545602,-0.6679251
1732440855803,2024-11-24T09:34:15.803Z,43161,-0.17006873,-0.42545602,-0.6679251
1732440855812,2024-11-24T09:34:15.812Z,43170,-0.15382388,-0.41343874,-0.69695497
1732440855815,2024-11-24T09:34:15.815Z,43173,-0.15382388,-0.41343874,-0.69695497
1732440855825,2024-11-24T09:34:15.825Z,43183,-0.05449368,-0.41987327,-0.7483353
1732440855827,2024-11-24T09:34:15.827Z,43185,-0.05449368,-0.41987327,-0.7483353
1732440855840,2024-11-24T09:34:15.840Z,43198,-0.11773998,-0.4286784,-0.7648294
1732440855847,2024-11-24T09:34:15.847Z,43205,-0.11773998,-0.4286784,-0.7648294
1732440855870,2024-11-24T09:34:15.870Z,43228,-0.07830438,-0.4302616,-0.7043917
1732440855877,2024-11-24T09:34:15.877Z,43235,-0.07830438,-0.4302616,-0.7043917
1732440855902,2024-11-24T09:34:15.902Z,43260,-0.094236255,-0.42398876,-0.66315854
1732440855909,2024-11-24T09:34:15.909Z,43267,-0.094236255,-0.42398876,-0.66315854
1732440855932,2024-11-24T09:34:15.932Z,43290,-0.12630193,-0.42628884,-0.7197639
1732440855936,2024-11-24T09:34:15.936Z,43294,-0.12630193,-0.42628884,-0.7197639
1732440855957,2024-11-24T09:34:15.957Z,43315,-0.11122039,-0.44474405,-0.7147475
1732440855960,2024-11-24T09:34:15.960Z,43318,-0.11122039,-0.44474405,-0.7147475
1732440855975,2024-11-24T09:34:15.975Z,43333,-0.11214118,-0.44865924,-0.7542126
1732440855982,2024-11-24T09:34:15.982Z,43340,-0.11214118,-0.44865924,-0.7542126
1732440856003,2024-11-24T09:34:16.003Z,43361,-0.15325831,-0.44364294,-0.7741121
1732440856007,2024-11-24T09:34:16.007Z,43365,-0.15325831,-0.44364294,-0.7741121
1732440856019,2024-11-24T09:34:16.019Z,43377,-0.14830829,-0.43876073,-0.75203747
1732440856023,2024-11-24T09:34:16.023Z,43381,-0.14830829,-0.43876073,-0.75203747
1732440856036,2024-11-24T09:34:16.036Z,43394,-0.12961034,-0.4116412,-0.736592
1732440856039,2024-11-24T09:34:16.039Z,43397,-0.12961034,-0.4116412,-0.736592
1732440856050,2024-11-24T09:34:16.050Z,43408,-0.112797275,-0.40163082,-0.7567701
1732440856054,2024-11-24T09:34:16.054Z,43412,-0.112797275,-0.40163082,-0.7567701
1732440856064,2024-11-24T09:34:16.064Z,43422,-0.12383621,-0.4048794,-0.78055024
1732440856068,2024-11-24T09:34:16.068Z,43426,-0.12383621,-0.4048794,-0.78055024
1732440856078,2024-11-24T09:34:16.078Z,43436,-0.06520509,-0.41837874,-0.8080111
1732440856081,2024-11-24T09:34:16.081Z,43439,-0.06520509,-0.41837874,-0.8080111
1732440856092,2024-11-24T09:34:16.092Z,43450,-0.09192453,-0.39140445,-0.73720485
1732440856095,2024-11-24T09:34:16.095Z,43453,-0.09192453,-0.39140445,-0.73720485
1732440856108,2024-11-24T09:34:16.108Z,43466,-0.08480786,-0.38665545,-0.72624373
1732440856111,2024-11-24T09:34:16.111Z,43469,-0.08480786,-0.38665545,-0.72624373
1732440856123,2024-11-24T09:34:16.123Z,43481,-0.10255924,-0.38906118,-0.6986728
1732440856126,2024-11-24T09:34:16.126Z,43484,-0.10255924,-0.38906118,-0.6986728
1732440856134,2024-11-24T09:34:16.134Z,43492,-0.0908858,-0.4100905,-0.75878274
1732440856137,2024-11-24T09:34:16.137Z,43495,-0.0908858,-0.4100905,-0.75878274
1732440856146,2024-11-24T09:34:16.146Z,43504,-0.08370466,-0.4115444,-0.7453803
1732440856149,2024-11-24T09:34:16.149Z,43507,-0.08370466,-0.4115444,-0.7453803
1732440856159,2024-11-24T09:34:16.159Z,43517,-0.083848074,-0.38894215,-0.7097904
1732440856163,2024-11-24T09:34:16.163Z,43521,-0.083848074,-0.38894215,-0.7097904
1732440856175,2024-11-24T09:34:16.175Z,43533,-0.077468306,-0.39439428,-0.7150985
1732440856178,2024-11-24T09:34:16.178Z,43536,-0.077468306,-0.39439428,-0.7150985
1732440856187,2024-11-24T09:34:16.187Z,43545,-0.099498704,-0.38568813,-0.68249285
1732440856191,2024-11-24T09:34:16.191Z,43549,-0.099498704,-0.38568813,-0.68249285
1732440856202,2024-11-24T09:34:16.202Z,43560,-0.092542335,-0.3803293,-0.66454184
1732440856205,2024-11-24T09:34:16.205Z,43563,-0.092542335,-0.3803293,-0.66454184
1732440856214,2024-11-24T09:34:16.214Z,43572,-0.05841821,-0.37400478,-0.6826003
1732440856218,2024-11-24T09:34:16.218Z,43576,-0.05841821,-0.37400478,-0.6826003
1732440856229,2024-11-24T09:34:16.229Z,43587,-0.0968482,-0.3738188,-0.70841885
1732440856232,2024-11-24T09:34:16.232Z,43590,-0.0968482,-0.3738188,-0.70841885
1732440856242,2024-11-24T09:34:16.242Z,43600,-0.08972103,-0.3990144,-0.74213004
1732440856245,2024-11-24T09:34:16.245Z,43603,-0.08972103,-0.3990144,-0.74213004
1732440856256,2024-11-24T09:34:16.256Z,43614,-0.09020462,-0.4008223,-0.6628165
1732440856259,2024-11-24T09:34:16.259Z,43617,-0.09020462,-0.4008223,-0.6628165
1732440856268,2024-11-24T09:34:16.268Z,43626,-0.107752465,-0.39232695,-0.64672816
1732440856271,2024-11-24T09:34:16.271Z,43629,-0.107752465,-0.39232695,-0.64672816
1732440856282,2024-11-24T09:34:16.282Z,43640,-0.14777078,-0.39488617,-0.7067966
1732440856285,2024-11-24T09:34:16.285Z,43643,-0.14777078,-0.39488617,-0.7067966
1732440856295,2024-11-24T09:34:16.295Z,43653,-0.13454816,-0.39609554,-0.6958033
1732440856300,2024-11-24T09:34:16.300Z,43658,-0.13454816,-0.39609554,-0.6958033
1732440856309,2024-11-24T09:34:16.309Z,43667,-0.11759804,-0.401815,-0.65302944
1732440856311,2024-11-24T09:34:16.311Z,43669,-0.11759804,-0.401815,-0.65302944
1732440856320,2024-11-24T09:34:16.320Z,43678,-0.066115476,-0.41388413,-0.6464198
1732440856323,2024-11-24T09:34:16.323Z,43681,-0.066115476,-0.41388413,-0.6464198
1732440856334,2024-11-24T09:34:16.334Z,43692,-0.17045264,-0.37293395,-0.6653921
1732440856338,2024-11-24T09:34:16.338Z,43696,-0.17045264,-0.37293395,-0.6653921
1732440856348,2024-11-24T09:34:16.348Z,43706,-0.15785983,-0.3640645,-0.6270292
1732440856352,2024-11-24T09:34:16.352Z,43710,-0.15785983,-0.3640645,-0.6270292
1732440856364,2024-11-24T09:34:16.364Z,43722,-0.13901669,-0.36317024,-0.6140861
1732440856367,2024-11-24T09:34:16.367Z,43725,-0.13901669,-0.36317024,-0.6140861
1732440856378,2024-11-24T09:34:16.378Z,43736,-0.12207387,-0.36376655,-0.666592
1732440856383,2024-11-24T09:34:16.383Z,43741,-0.12207387,-0.36376655,-0.666592
1732440856393,2024-11-24T09:34:16.393Z,43751,-0.07400727,-0.37309077,-0.6926924
1732440856396,2024-11-24T09:34:16.396Z,43754,-0.07400727,-0.37309077,-0.6926924
1732440856407,2024-11-24T09:34:16.407Z,43765,-0.07436816,-0.36258718,-0.6697528
1732440856410,2024-11-24T09:34:16.410Z,43768,-0.07436816,-0.36258718,-0.6697528
1732440856419,2024-11-24T09:34:16.419Z,43777,-0.120054066,-0.3387207,-0.63229597
1732440856422,2024-11-24T09:34:16.422Z,43780,-0.120054066,-0.3387207,-0.63229597
1732440856433,2024-11-24T09:34:16.433Z,43791,-0.1629815,-0.33953184,-0.6366172
1732440856440,2024-11-24T09:34:16.440Z,43798,-0.1629815,-0.33953184,-0.6366172
1732440856463,2024-11-24T09:34:16.463Z,43821,-0.14292948,-0.34749138,-0.66890085
1732440856469,2024-11-24T09:34:16.469Z,43827,-0.14292948,-0.34749138,-0.66890085
1732440856481,2024-11-24T09:34:16.481Z,43839,-0.12896545,-0.34281433,-0.64576966
1732440856484,2024-11-24T09:34:16.484Z,43842,-0.12896545,-0.34281433,-0.64576966
1732440856495,2024-11-24T09:34:16.495Z,43853,-0.10173398,-0.32142243,-0.6421103
1732440856498,2024-11-24T09:34:16.498Z,43856,-0.10173398,-0.32142243,-0.6421103
1732440856508,2024-11-24T09:34:16.508Z,43866,-0.1254464,-0.3183722,-0.676961
1732440856512,2024-11-24T09:34:16.512Z,43870,-0.1254464,-0.3183722,-0.676961
1732440856525,2024-11-24T09:34:16.525Z,43883,-0.10674228,-0.31665486,-0.65769666
1732440856529,2024-11-24T09:34:16.529Z,43887,-0.10674228,-0.31665486,-0.65769666
1732440856540,2024-11-24T09:34:16.540Z,43898,-0.11266076,-0.2966284,-0.62312603
1732440856547,2024-11-24T09:34:16.547Z,43905,-0.11266076,-0.2966284,-0.62312603
1732440856562,2024-11-24T09:34:16.562Z,43920,-0.060322978,-0.30495673,-0.63616264
1732440856565,2024-11-24T09:34:16.565Z,43923,-0.060322978,-0.30495673,-0.63616264
1732440856575,2024-11-24T09:34:16.575Z,43933,-0.11641565,-0.3257461,-0.7067005
1732440856577,2024-11-24T09:34:16.577Z,43935,-0.11641565,-0.3257461,-0.7067005
1732440856589,2024-11-24T09:34:16.589Z,43947,-0.1167056,-0.32531112,-0.6350749
1732440856592,2024-11-24T09:34:16.592Z,43950,-0.1167056,-0.32531112,-0.6350749
1732440856604,2024-11-24T09:34:16.604Z,43962,-0.11565423,-0.31925136,-0.55886567
1732440856607,2024-11-24T09:34:16.607Z,43965,-0.11565423,-0.31925136,-0.55886567
1732440856617,2024-11-24T09:34:16.617Z,43975,-0.09282576,-0.34620318,-0.6549305
1732440856621,2024-11-24T09:34:16.621Z,43979,-0.09282576,-0.34620318,-0.6549305
1732440856631,2024-11-24T09:34:16.631Z,43989,-0.065447055,-0.38087854,-0.7175275
1732440856635,2024-11-24T09:34:16.635Z,43993,-0.065447055,-0.38087854,-0.7175275
1732440856645,2024-11-24T09:34:16.645Z,44003,-0.0014698384,-0.39169833,-0.7347281
1732440856649,2024-11-24T09:34:16.649Z,44007,-0.0014698384,-0.39169833,-0.7347281
1732440856659,2024-11-24T09:34:16.659Z,44017,-0.15819144,-0.40290302,-0.5893946
1732440856662,2024-11-24T09:34:16.662Z,44020,-0.15819144,-0.40290302,-0.5893946
1732440856673,2024-11-24T09:34:16.673Z,44031,-0.13810319,-0.43306485,-0.5961675
1732440856676,2024-11-24T09:34:16.676Z,44034,-0.13810319,-0.43306485,-0.5961675
1732440856687,2024-11-24T09:34:16.687Z,44045,-0.15157643,-0.46450815,-0.6131203
1732440856691,2024-11-24T09:34:16.691Z,44049,-0.15157643,-0.46450815,-0.6131203
1732440856702,2024-11-24T09:34:16.702Z,44060,-0.1237398,-0.4813138,-0.69706005
1732440856705,2024-11-24T09:34:16.705Z,44063,-0.1237398,-0.4813138,-0.69706005
1732440856715,2024-11-24T09:34:16.715Z,44073,-0.09367675,-0.4826794,-0.6792817
1732440856720,2024-11-24T09:34:16.720Z,44078,-0.09367675,-0.4826794,-0.6792817
1732440856729,2024-11-24T09:34:16.729Z,44087,-0.1058868,-0.4951453,-0.63930357
1732440856732,2024-11-24T09:34:16.732Z,44090,-0.1058868,-0.4951453,-0.63930357
1732440856742,2024-11-24T09:34:16.742Z,44100,-0.19750598,-0.47771078,-0.53831685
1732440856745,2024-11-24T09:34:16.745Z,44103,-0.19750598,-0.47771078,-0.53831685
1732440856754,2024-11-24T09:34:16.754Z,44112,-0.17365107,-0.48309183,-0.6288705
1732440856757,2024-11-24T09:34:16.757Z,44115,-0.17365107,-0.48309183,-0.6288705
1732440856767,2024-11-24T09:34:16.767Z,44125,-0.16231239,-0.49946192,-0.67109406
1732440856771,2024-11-24T09:34:16.771Z,44129,-0.16231239,-0.49946192,-0.67109406
1732440856781,2024-11-24T09:34:16.781Z,44139,-0.14837347,-0.49031305,-0.6792886
1732440856784,2024-11-24T09:34:16.784Z,44142,-0.14837347,-0.49031305,-0.6792886
1732440856794,2024-11-24T09:34:16.794Z,44152,-0.10793852,-0.4961853,-0.65679616
1732440856797,2024-11-24T09:34:16.797Z,44155,-0.10793852,-0.4961853,-0.65679616
1732440856807,2024-11-24T09:34:16.807Z,44165,-0.13878421,-0.4741628,-0.6278684
1732440856810,2024-11-24T09:34:16.810Z,44168,-0.13878421,-0.4741628,-0.6278684
1732440856821,2024-11-24T09:34:16.821Z,44179,-0.14464444,-0.46697477,-0.6008582
1732440856826,2024-11-24T09:34:16.826Z,44184,-0.14464444,-0.46697477,-0.6008582
1732440856835,2024-11-24T09:34:16.835Z,44193,-0.15069191,-0.4402016,-0.66573817
1732440856838,2024-11-24T09:34:16.838Z,44196,-0.15069191,-0.4402016,-0.66573817
1732440856849,2024-11-24T09:34:16.849Z,44207,-0.08399267,-0.44987625,-0.66127384
1732440856852,2024-11-24T09:34:16.852Z,44210,-0.08399267,-0.44987625,-0.66127384
1732440856864,2024-11-24T09:34:16.864Z,44222,-0.06051522,-0.4504614,-0.69388944
1732440856869,2024-11-24T09:34:16.869Z,44227,-0.06051522,-0.4504614,-0.69388944
1732440856883,2024-11-24T09:34:16.883Z,44241,-0.10532157,-0.42779085,-0.62090003
1732440856887,2024-11-24T09:34:16.887Z,44245,-0.10532157,-0.42779085,-0.62090003
1732440856897,2024-11-24T09:34:16.897Z,44255,-0.13288935,-0.4308314,-0.6292591
1732440856900,2024-11-24T09:34:16.900Z,44258,-0.13288935,-0.4308314,-0.6292591
1732440856910,2024-11-24T09:34:16.910Z,44268,-0.14663063,-0.42927703,-0.65607595
1732440856913,2024-11-24T09:34:16.913Z,44271,-0.14663063,-0.42927703,-0.65607595
1732440856923,2024-11-24T09:34:16.923Z,44281,-0.14492953,-0.43398246,-0.6718748
1732440856925,2024-11-24T09:34:16.925Z,44283,-0.14492953,-0.43398246,-0.6718748
1732440856937,2024-11-24T09:34:16.937Z,44295,-0.16138898,-0.43270347,-0.63514477
1732440856940,2024-11-24T09:34:16.940Z,44298,-0.16138898,-0.43270347,-0.63514477
1732440856948,2024-11-24T09:34:16.948Z,44306,-0.08707463,-0.4394572,-0.6537979
1732440856951,2024-11-24T09:34:16.951Z,44309,-0.08707463,-0.4394572,-0.6537979
1732440856960,2024-11-24T09:34:16.960Z,44318,-0.12693772,-0.4318066,-0.6676307
1732440856964,2024-11-24T09:34:16.964Z,44322,-0.12693772,-0.4318066,-0.6676307
1732440856973,2024-11-24T09:34:16.973Z,44331,-0.14541942,-0.4226994,-0.6498556
1732440856977,2024-11-24T09:34:16.977Z,44335,-0.14541942,-0.4226994,-0.6498556
1732440856988,2024-11-24T09:34:16.988Z,44346,-0.14394909,-0.41593722,-0.622609
1732440856991,2024-11-24T09:34:16.991Z,44349,-0.14394909,-0.41593722,-0.622609
1732440857000,2024-11-24T09:34:17Z,44358,-0.15547293,-0.41180167,-0.60021573
1732440857003,2024-11-24T09:34:17.003Z,44361,-0.15547293,-0.41180167,-0.60021573
1732440857013,2024-11-24T09:34:17.013Z,44371,-0.120881245,-0.4292152,-0.64345485
1732440857015,2024-11-24T09:34:17.015Z,44373,-0.120881245,-0.4292152,-0.64345485
1732440857027,2024-11-24T09:34:17.027Z,44385,-0.106507786,-0.42584002,-0.64345956
1732440857031,2024-11-24T09:34:17.031Z,44389,-0.106507786,-0.42584002,-0.64345956
1732440857044,2024-11-24T09:34:17.044Z,44402,-0.1561754,-0.39423835,-0.60599613
1732440857048,2024-11-24T09:34:17.048Z,44406,-0.1561754,-0.39423835,-0.60599613
1732440857061,2024-11-24T09:34:17.061Z,44419,-0.14371958,-0.38001323,-0.561433
1732440857065,2024-11-24T09:34:17.065Z,44423,-0.14371958,-0.38001323,-0.561433
1732440857079,2024-11-24T09:34:17.079Z,44437,-0.14015907,-0.37632975,-0.5255385
1732440857082,2024-11-24T09:34:17.082Z,44440,-0.14015907,-0.37632975,-0.5255385
1732440857092,2024-11-24T09:34:17.092Z,44450,-0.05949249,-0.36493215,-0.6482641
1732440857096,2024-11-24T09:34:17.096Z,44454,-0.05949249,-0.36493215,-0.6482641
1732440857106,2024-11-24T09:34:17.106Z,44464,-0.03470326,-0.36046612,-0.6778568
1732440857109,2024-11-24T09:34:17.109Z,44467,-0.03470326,-0.36046612,-0.6778568
1732440857117,2024-11-24T09:34:17.117Z,44475,-0.089143515,-0.35662448,-0.63780165
1732440857120,2024-11-24T09:34:17.120Z,44478,-0.089143515,-0.35662448,-0.63780165
1732440857129,2024-11-24T09:34:17.129Z,44487,-0.11244218,-0.349539,-0.545008
1732440857131,2024-11-24T09:34:17.131Z,44489,-0.11244218,-0.349539,-0.545008
1732440857145,2024-11-24T09:34:17.145Z,44503,-0.109792635,-0.3401718,-0.5310941
1732440857151,2024-11-24T09:34:17.151Z,44509,-0.109792635,-0.3401718,-0.5310941
1732440857168,2024-11-24T09:34:17.168Z,44526,-0.1435618,-0.33559024,-0.5718318
1732440857173,2024-11-24T09:34:17.173Z,44531,-0.1435618,-0.33559024,-0.5718318
1732440857184,2024-11-24T09:34:17.184Z,44542,-0.07023,-0.37532255,-0.6486128
1732440857187,2024-11-24T09:34:17.187Z,44545,-0.07023,-0.37532255,-0.6486128
1732440857202,2024-11-24T09:34:17.202Z,44560,-0.11503068,-0.36172912,-0.6087187
1732440857209,2024-11-24T09:34:17.209Z,44567,-0.11503068,-0.36172912,-0.6087187
1732440857228,2024-11-24T09:34:17.228Z,44586,-0.09282395,-0.36774147,-0.58888984
1732440857235,2024-11-24T09:34:17.235Z,44593,-0.09282395,-0.36774147,-0.58888984
1732440857249,2024-11-24T09:34:17.249Z,44607,-0.1487707,-0.35384613,-0.6015876
1732440857252,2024-11-24T09:34:17.252Z,44610,-0.1487707,-0.35384613,-0.6015876
1732440857263,2024-11-24T09:34:17.263Z,44621,-0.10870861,-0.36530998,-0.62240046
1732440857270,2024-11-24T09:34:17.270Z,44628,-0.10870861,-0.36530998,-0.62240046
1732440857296,2024-11-24T09:34:17.296Z,44654,-0.13011983,-0.34103727,-0.63316226
1732440857303,2024-11-24T09:34:17.303Z,44661,-0.13011983,-0.34103727,-0.63316226
1732440857317,2024-11-24T09:34:17.317Z,44675,-0.037984423,-0.35980302,-0.6867308
1732440857322,2024-11-24T09:34:17.322Z,44680,-0.037984423,-0.35980302,-0.6867308
1732440857345,2024-11-24T09:34:17.345Z,44703,-0.08358128,-0.3501484,-0.6548103
1732440857348,2024-11-24T09:34:17.348Z,44706,-0.08358128,-0.3501484,-0.6548103
1732440857366,2024-11-24T09:34:17.366Z,44724,-0.10350599,-0.32162434,-0.61384505
1732440857370,2024-11-24T09:34:17.370Z,44728,-0.10350599,-0.32162434,-0.61384505
1732440857381,2024-11-24T09:34:17.381Z,44739,-0.13118283,-0.3074636,-0.5950893
1732440857384,2024-11-24T09:34:17.384Z,44742,-0.13118283,-0.3074636,-0.5950893
1732440857395,2024-11-24T09:34:17.395Z,44753,-0.10292584,-0.29463515,-0.62429714
1732440857398,2024-11-24T09:34:17.398Z,44756,-0.10292584,-0.29463515,-0.62429714
1732440857408,2024-11-24T09:34:17.408Z,44766,-0.11290682,-0.29658788,-0.6291282
1732440857412,2024-11-24T09:34:17.412Z,44770,-0.11290682,-0.29658788,-0.6291282
1732440857420,2024-11-24T09:34:17.420Z,44778,-0.08162661,-0.2863492,-0.6265604
1732440857423,2024-11-24T09:34:17.423Z,44781,-0.08162661,-0.2863492,-0.6265604
1732440857431,2024-11-24T09:34:17.431Z,44789,-0.07172429,-0.24062994,-0.6096448
1732440857434,2024-11-24T09:34:17.434Z,44792,-0.07172429,-0.24062994,-0.6096448
1732440857442,2024-11-24T09:34:17.442Z,44800,-0.050661903,-0.23782322,-0.6600624
1732440857445,2024-11-24T09:34:17.445Z,44803,-0.050661903,-0.23782322,-0.6600624
1732440857454,2024-11-24T09:34:17.454Z,44812,-0.07487859,-0.23496443,-0.6415384
1732440857456,2024-11-24T09:34:17.456Z,44814,-0.07487859,-0.23496443,-0.6415384
1732440857469,2024-11-24T09:34:17.469Z,44827,-0.07615226,-0.19161442,-0.6272449
1732440857473,2024-11-24T09:34:17.473Z,44831,-0.07615226,-0.19161442,-0.6272449
1732440857490,2024-11-24T09:34:17.490Z,44848,-0.09892836,-0.17191339,-0.6099906
1732440857496,2024-11-24T09:34:17.496Z,44854,-0.09892836,-0.17191339,-0.6099906
1732440857508,2024-11-24T09:34:17.508Z,44866,-0.116279654,-0.15899792,-0.63219994
1732440857511,2024-11-24T09:34:17.511Z,44869,-0.116279654,-0.15899792,-0.63219994
1732440857521,2024-11-24T09:34:17.521Z,44879,-0.027442308,-0.1706498,-0.68489057
1732440857524,2024-11-24T09:34:17.524Z,44882,-0.027442308,-0.1706498,-0.68489057
1732440857532,2024-11-24T09:34:17.532Z,44890,-0.013777935,-0.14906718,-0.660015
1732440857536,2024-11-24T09:34:17.536Z,44894,-0.013777935,-0.14906718,-0.660015
1732440857545,2024-11-24T09:34:17.545Z,44903,-0.031114504,-0.12981126,-0.64385086
1732440857548,2024-11-24T09:34:17.548Z,44906,-0.031114504,-0.12981126,-0.64385086
1732440857557,2024-11-24T09:34:17.557Z,44915,-0.03413322,-0.10094381,-0.6477846
1732440857560,2024-11-24T09:34:17.560Z,44918,-0.03413322,-0.10094381,-0.6477846
1732440857568,2024-11-24T09:34:17.568Z,44926,-0.048666645,-0.07450065,-0.6525223
1732440857571,2024-11-24T09:34:17.571Z,44929,-0.048666645,-0.07450065,-0.6525223
1732440857580,2024-11-24T09:34:17.580Z,44938,-0.07036239,-0.068129465,-0.66161084
1732440857583,2024-11-24T09:34:17.583Z,44941,-0.07036239,-0.068129465,-0.66161084
1732440857592,2024-11-24T09:34:17.592Z,44950,-0.0020887107,-0.07298723,-0.6718093
1732440857595,2024-11-24T09:34:17.595Z,44953,-0.0020887107,-0.07298723,-0.6718093
1732440857604,2024-11-24T09:34:17.604Z,44962,0.046091188,-0.07022082,-0.67873865
1732440857609,2024-11-24T09:34:17.609Z,44967,0.046091188,-0.07022082,-0.67873865
1732440857629,2024-11-24T09:34:17.629Z,44987,0.038673494,-0.05425907,-0.6857682
1732440857636,2024-11-24T09:34:17.636Z,44994,0.038673494,-0.05425907,-0.6857682
1732440857657,2024-11-24T09:34:17.657Z,45015,0.004580343,-0.03827242,-0.65595603
1732440857663,2024-11-24T09:34:17.663Z,45021,0.004580343,-0.03827242,-0.65595603
1732440857676,2024-11-24T09:34:17.676Z,45034,-0.007641944,-0.018848212,-0.6572474
1732440857680,2024-11-24T09:34:17.680Z,45038,-0.007641944,-0.018848212,-0.6572474
1732440857694,2024-11-24T09:34:17.694Z,45052,-0.010181617,-0.023074111,-0.6729404
1732440857697,2024-11-24T09:34:17.697Z,45055,-0.010181617,-0.023074111,-0.6729404
1732440857713,2024-11-24T09:34:17.713Z,45071,-0.0329413,-0.032804184,-0.68699485
1732440857716,2024-11-24T09:34:17.716Z,45074,-0.0329413,-0.032804184,-0.68699485
1732440857727,2024-11-24T09:34:17.727Z,45085,0.015195903,-0.03137615,-0.6950077
1732440857730,2024-11-24T09:34:17.730Z,45088,0.015195903,-0.03137615,-0.6950077
1732440857739,2024-11-24T09:34:17.739Z,45097,0.057140935,-0.025443163,-0.6620044
1732440857742,2024-11-24T09:34:17.742Z,45100,0.057140935,-0.025443163,-0.6620044
1732440857750,2024-11-24T09:34:17.750Z,45108,0.00976987,-0.013204781,-0.65181386
1732440857753,2024-11-24T09:34:17.753Z,45111,0.00976987,-0.013204781,-0.65181386
1732440857761,2024-11-24T09:34:17.761Z,45119,0.040962826,-0.02171911,-0.6807275
1732440857764,2024-11-24T09:34:17.764Z,45122,0.040962826,-0.02171911,-0.6807275
1732440857773,2024-11-24T09:34:17.773Z,45131,0.049641725,-0.008242716,-0.6556428
1732440857777,2024-11-24T09:34:17.777Z,45135,0.049641725,-0.008242716,-0.6556428
1732440857787,2024-11-24T09:34:17.787Z,45145,0.063580096,0.033132296,-0.6220545
1732440857790,2024-11-24T09:34:17.790Z,45148,0.063580096,0.033132296,-0.6220545
1732440857800,2024-11-24T09:34:17.800Z,45158,0.079701506,0.039206486,-0.6104338
1732440857803,2024-11-24T09:34:17.803Z,45161,0.079701506,0.039206486,-0.6104338
1732440857813,2024-11-24T09:34:17.813Z,45171,0.07782759,0.03941863,-0.5790363
1732440857816,2024-11-24T09:34:17.816Z,45174,0.07782759,0.03941863,-0.5790363
1732440857824,2024-11-24T09:34:17.824Z,45182,0.07910915,0.04684082,-0.56177926
1732440857827,2024-11-24T09:34:17.827Z,45185,0.07910915,0.04684082,-0.56177926
1732440857835,2024-11-24T09:34:17.835Z,45193,0.058941595,0.058442958,-0.53355765
1732440857837,2024-11-24T09:34:17.837Z,45195,0.058941595,0.058442958,-0.53355765
1732440857845,2024-11-24T09:34:17.845Z,45203,0.04394466,0.06358493,-0.5250495
1732440857848,2024-11-24T09:34:17.848Z,45206,0.04394466,0.06358493,-0.5250495
1732440857866,2024-11-24T09:34:17.866Z,45224,0.06229917,0.04066277,-0.54073024
1732440857874,2024-11-24T09:34:17.874Z,45232,0.06229917,0.04066277,-0.54073024
1732440857890,2024-11-24T09:34:17.890Z,45248,0.030313985,0.041652218,-0.50386256
1732440857893,2024-11-24T09:34:17.893Z,45251,0.030313985,0.041652218,-0.50386256
1732440857904,2024-11-24T09:34:17.904Z,45262,0.02464381,0.03625458,-0.48025647
1732440857908,2024-11-24T09:34:17.908Z,45266,0.02464381,0.03625458,-0.48025647
1732440857922,2024-11-24T09:34:17.922Z,45280,0.028200913,0.0012927625,-0.58159727
1732440857928,2024-11-24T09:34:17.928Z,45286,0.028200913,0.0012927625,-0.58159727
1732440857950,2024-11-24T09:34:17.950Z,45308,0.05050203,-0.019053016,-0.57603943
1732440857955,2024-11-24T09:34:17.955Z,45313,0.05050203,-0.019053016,-0.57603943
1732440857966,2024-11-24T09:34:17.966Z,45324,0.03665208,-0.027465964,-0.5525447
1732440857969,2024-11-24T09:34:17.969Z,45327,0.03665208,-0.027465964,-0.5525447
1732440857979,2024-11-24T09:34:17.979Z,45337,-0.020745637,-0.04343175,-0.47139314
1732440857982,2024-11-24T09:34:17.982Z,45340,-0.020745637,-0.04343175,-0.47139314
1732440857996,2024-11-24T09:34:17.996Z,45354,-0.019121015,-0.05806792,-0.48182178
1732440858002,2024-11-24T09:34:18.002Z,45360,-0.019121015,-0.05806792,-0.48182178
1732440858021,2024-11-24T09:34:18.021Z,45379,-0.06997795,-0.06796584,-0.48542938
1732440858027,2024-11-24T09:34:18.027Z,45385,-0.06997795,-0.06796584,-0.48542938
1732440858047,2024-11-24T09:34:18.047Z,45405,-0.09191443,-0.10148577,-0.5173248
1732440858052,2024-11-24T09:34:18.052Z,45410,-0.09191443,-0.10148577,-0.5173248
1732440858065,2024-11-24T09:34:18.065Z,45423,-0.13360484,-0.08993002,-0.5536286
1732440858069,2024-11-24T09:34:18.069Z,45427,-0.13360484,-0.08993002,-0.5536286
1732440858081,2024-11-24T09:34:18.081Z,45439,-0.06220715,-0.11748287,-0.577449
1732440858085,2024-11-24T09:34:18.085Z,45443,-0.06220715,-0.11748287,-0.577449
1732440858097,2024-11-24T09:34:18.097Z,45455,-0.088113844,-0.10339975,-0.53913337
1732440858100,2024-11-24T09:34:18.100Z,45458,-0.088113844,-0.10339975,-0.53913337
1732440858110,2024-11-24T09:34:18.110Z,45468,-0.12330687,-0.08964236,-0.46688223
1732440858113,2024-11-24T09:34:18.113Z,45471,-0.12330687,-0.08964236,-0.46688223
1732440858122,2024-11-24T09:34:18.122Z,45480,-0.13460547,-0.10002686,-0.46822903
1732440858125,2024-11-24T09:34:18.125Z,45483,-0.13460547,-0.10002686,-0.46822903
1732440858134,2024-11-24T09:34:18.134Z,45492,-0.12028521,-0.106970295,-0.4839151
1732440858137,2024-11-24T09:34:18.137Z,45495,-0.12028521,-0.106970295,-0.4839151
1732440858146,2024-11-24T09:34:18.146Z,45504,-0.06268228,-0.098445274,-0.53040147
1732440858148,2024-11-24T09:34:18.148Z,45506,-0.06268228,-0.098445274,-0.53040147
1732440858156,2024-11-24T09:34:18.156Z,45514,-0.034526877,-0.08864878,-0.508644
1732440858159,2024-11-24T09:34:18.159Z,45517,-0.034526877,-0.08864878,-0.508644
1732440858167,2024-11-24T09:34:18.167Z,45525,-0.032441936,-0.0761912,-0.486202
1732440858170,2024-11-24T09:34:18.170Z,45528,-0.032441936,-0.0761912,-0.486202
1732440858180,2024-11-24T09:34:18.180Z,45538,-0.061399046,-0.06184478,-0.4644457
1732440858183,2024-11-24T09:34:18.183Z,45541,-0.061399046,-0.06184478,-0.4644457
1732440858192,2024-11-24T09:34:18.192Z,45550,-0.06531118,-0.060022507,-0.45696273
1732440858195,2024-11-24T09:34:18.195Z,45553,-0.06531118,-0.060022507,-0.45696273
1732440858205,2024-11-24T09:34:18.205Z,45563,-0.030946994,-0.06081566,-0.5003772
1732440858208,2024-11-24T09:34:18.208Z,45566,-0.030946994,-0.06081566,-0.5003772
1732440858216,2024-11-24T09:34:18.216Z,45574,-0.010601071,-0.077041246,-0.5418081
1732440858219,2024-11-24T09:34:18.219Z,45577,-0.010601071,-0.077041246,-0.5418081
1732440858231,2024-11-24T09:34:18.231Z,45589,-0.015504689,-0.053966258,-0.5138318
1732440858236,2024-11-24T09:34:18.236Z,45594,-0.015504689,-0.053966258,-0.5138318
1732440858255,2024-11-24T09:34:18.255Z,45613,-0.013012814,-0.062006798,-0.4972386
1732440858262,2024-11-24T09:34:18.262Z,45620,-0.013012814,-0.062006798,-0.4972386
1732440858275,2024-11-24T09:34:18.275Z,45633,-0.082735926,-0.0728697,-0.49804085
1732440858279,2024-11-24T09:34:18.279Z,45637,-0.082735926,-0.0728697,-0.49804085
1732440858289,2024-11-24T09:34:18.289Z,45647,-0.05834459,-0.07006421,-0.5393296
1732440858293,2024-11-24T09:34:18.293Z,45651,-0.05834459,-0.07006421,-0.5393296
1732440858304,2024-11-24T09:34:18.304Z,45662,-0.037159763,-0.07001315,-0.53370076
1732440858309,2024-11-24T09:34:18.309Z,45667,-0.037159763,-0.07001315,-0.53370076
1732440858322,2024-11-24T09:34:18.322Z,45680,-0.027941894,-0.06973546,-0.530471
1732440858327,2024-11-24T09:34:18.327Z,45685,-0.027941894,-0.06973546,-0.530471
1732440858335,2024-11-24T09:34:18.335Z,45693,-0.04486363,-0.06427437,-0.50684035
1732440858339,2024-11-24T09:34:18.339Z,45697,-0.04486363,-0.06427437,-0.50684035
1732440858347,2024-11-24T09:34:18.347Z,45705,-0.051040076,-0.078360505,-0.4973912
1732440858350,2024-11-24T09:34:18.350Z,45708,-0.051040076,-0.078360505,-0.4973912
1732440858359,2024-11-24T09:34:18.359Z,45717,-0.060584694,-0.08396256,-0.45678094
1732440858361,2024-11-24T09:34:18.361Z,45719,-0.060584694,-0.08396256,-0.45678094
1732440858369,2024-11-24T09:34:18.369Z,45727,-0.06690541,-0.09694012,-0.48712605
1732440858372,2024-11-24T09:34:18.372Z,45730,-0.06690541,-0.09694012,-0.48712605
1732440858381,2024-11-24T09:34:18.381Z,45739,-0.08197754,-0.09752482,-0.5156129
1732440858384,2024-11-24T09:34:18.384Z,45742,-0.08197754,-0.09752482,-0.5156129
1732440858394,2024-11-24T09:34:18.394Z,45752,-0.04456532,-0.10936225,-0.54701483
1732440858397,2024-11-24T09:34:18.397Z,45755,-0.04456532,-0.10936225,-0.54701483
1732440858406,2024-11-24T09:34:18.406Z,45764,-0.07309128,-0.11231727,-0.5317172
1732440858409,2024-11-24T09:34:18.409Z,45767,-0.07309128,-0.11231727,-0.5317172
1732440858417,2024-11-24T09:34:18.417Z,45775,-0.058334626,-0.11025859,-0.5178165
1732440858420,2024-11-24T09:34:18.420Z,45778,-0.058334626,-0.11025859,-0.5178165
1732440858428,2024-11-24T09:34:18.428Z,45786,-0.08025333,-0.10678514,-0.4748866
1732440858431,2024-11-24T09:34:18.431Z,45789,-0.08025333,-0.10678514,-0.4748866
1732440858440,2024-11-24T09:34:18.440Z,45798,-0.052201893,-0.11133779,-0.4667885
1732440858443,2024-11-24T09:34:18.443Z,45801,-0.052201893,-0.11133779,-0.4667885
1732440858450,2024-11-24T09:34:18.450Z,45808,-0.08514441,-0.11420606,-0.47234702
1732440858453,2024-11-24T09:34:18.453Z,45811,-0.08514441,-0.11420606,-0.47234702
1732440858462,2024-11-24T09:34:18.462Z,45820,-0.05120408,-0.12666082,-0.6000241
1732440858464,2024-11-24T09:34:18.464Z,45822,-0.05120408,-0.12666082,-0.6000241
1732440858472,2024-11-24T09:34:18.472Z,45830,-0.054920986,-0.10832943,-0.54417276
1732440858475,2024-11-24T09:34:18.475Z,45833,-0.054920986,-0.10832943,-0.54417276
1732440858484,2024-11-24T09:34:18.484Z,45842,-0.03832873,-0.10095305,-0.5261103
1732440858487,2024-11-24T09:34:18.487Z,45845,-0.03832873,-0.10095305,-0.5261103
1732440858497,2024-11-24T09:34:18.497Z,45855,-0.087800145,-0.09191757,-0.47965747
1732440858501,2024-11-24T09:34:18.501Z,45859,-0.087800145,-0.09191757,-0.47965747
1732440858510,2024-11-24T09:34:18.510Z,45868,-0.06721042,-0.0826907,-0.47980613
1732440858512,2024-11-24T09:34:18.512Z,45870,-0.06721042,-0.0826907,-0.47980613
1732440858521,2024-11-24T09:34:18.521Z,45879,-0.050999764,-0.083839245,-0.50651556
1732440858524,2024-11-24T09:34:18.524Z,45882,-0.050999764,-0.083839245,-0.50651556
1732440858538,2024-11-24T09:34:18.538Z,45896,0.049267177,-0.08618054,-0.5102968
1732440858545,2024-11-24T09:34:18.545Z,45903,0.049267177,-0.08618054,-0.5102968
1732440858562,2024-11-24T09:34:18.562Z,45920,-0.0015768231,-0.06994357,-0.47944814
1732440858568,2024-11-24T09:34:18.568Z,45926,-0.0015768231,-0.06994357,-0.47944814
1732440858590,2024-11-24T09:34:18.590Z,45948,-0.0065639047,-0.06804291,-0.49538258
1732440858596,2024-11-24T09:34:18.596Z,45954,-0.0065639047,-0.06804291,-0.49538258
1732440858611,2024-11-24T09:34:18.611Z,45969,-0.045585036,-0.08112414,-0.50163656
1732440858616,2024-11-24T09:34:18.616Z,45974,-0.045585036,-0.08112414,-0.50163656
1732440858627,2024-11-24T09:34:18.627Z,45985,-0.058751915,-0.081307985,-0.4986464
1732440858631,2024-11-24T09:34:18.631Z,45989,-0.058751915,-0.081307985,-0.4986464
1732440858641,2024-11-24T09:34:18.641Z,45999,-0.06801768,-0.08197394,-0.4893006
1732440858644,2024-11-24T09:34:18.644Z,46002,-0.06801768,-0.08197394,-0.4893006
1732440858653,2024-11-24T09:34:18.653Z,46011,7.524299E-4,-0.0848569,-0.5060065
1732440858656,2024-11-24T09:34:18.656Z,46014,7.524299E-4,-0.0848569,-0.5060065
1732440858665,2024-11-24T09:34:18.665Z,46023,-0.00411246,-0.08999814,-0.5099801
1732440858667,2024-11-24T09:34:18.667Z,46025,-0.00411246,-0.08999814,-0.5099801
1732440858677,2024-11-24T09:34:18.677Z,46035,0.0030305062,-0.09704233,-0.53113246
1732440858680,2024-11-24T09:34:18.680Z,46038,0.0030305062,-0.09704233,-0.53113246
1732440858688,2024-11-24T09:34:18.688Z,46046,-0.035439134,-0.10550876,-0.50502807
1732440858691,2024-11-24T09:34:18.691Z,46049,-0.035439134,-0.10550876,-0.50502807
1732440858699,2024-11-24T09:34:18.699Z,46057,-0.085393555,-0.107634306,-0.5329355
1732440858702,2024-11-24T09:34:18.702Z,46060,-0.085393555,-0.107634306,-0.5329355
1732440858710,2024-11-24T09:34:18.710Z,46068,-0.12858309,-0.11076019,-0.5384745
1732440858713,2024-11-24T09:34:18.713Z,46071,-0.12858309,-0.11076019,-0.5384745
1732440858723,2024-11-24T09:34:18.723Z,46081,-0.14115392,-0.10923787,-0.48601475
1732440858725,2024-11-24T09:34:18.725Z,46083,-0.14115392,-0.10923787,-0.48601475
1732440858734,2024-11-24T09:34:18.734Z,46092,-0.027759505,-0.13407771,-0.54915696
1732440858739,2024-11-24T09:34:18.739Z,46097,-0.027759505,-0.13407771,-0.54915696
1732440858755,2024-11-24T09:34:18.755Z,46113,-0.052773345,-0.12433081,-0.592196
1732440858763,2024-11-24T09:34:18.763Z,46121,-0.052773345,-0.12433081,-0.592196
1732440858781,2024-11-24T09:34:18.781Z,46139,-0.029335916,-0.11522167,-0.5553831
1732440858787,2024-11-24T09:34:18.787Z,46145,-0.029335916,-0.11522167,-0.5553831
1732440858807,2024-11-24T09:34:18.807Z,46165,-0.054592192,-0.09857164,-0.5089037
1732440858812,2024-11-24T09:34:18.812Z,46170,-0.054592192,-0.09857164,-0.5089037
1732440858824,2024-11-24T09:34:18.824Z,46182,-0.07947536,-0.079834975,-0.48468658
1732440858828,2024-11-24T09:34:18.828Z,46186,-0.07947536,-0.079834975,-0.48468658
1732440858839,2024-11-24T09:34:18.839Z,46197,-0.100850865,-0.0783343,-0.4596697
1732440858843,2024-11-24T09:34:18.843Z,46201,-0.100850865,-0.0783343,-0.4596697
1732440858855,2024-11-24T09:34:18.855Z,46213,-0.050846066,-0.07317784,-0.48490676
1732440858858,2024-11-24T09:34:18.858Z,46216,-0.050846066,-0.07317784,-0.48490676
1732440858868,2024-11-24T09:34:18.868Z,46226,-0.028032286,-0.07370229,-0.5008057
1732440858871,2024-11-24T09:34:18.871Z,46229,-0.028032286,-0.07370229,-0.5008057
1732440858883,2024-11-24T09:34:18.883Z,46241,0.038158447,-0.084007636,-0.5768608
1732440858886,2024-11-24T09:34:18.886Z,46244,0.038158447,-0.084007636,-0.5768608
1732440858897,2024-11-24T09:34:18.897Z,46255,-0.021088993,-0.053106006,-0.48122025
1732440858903,2024-11-24T09:34:18.903Z,46261,-0.021088993,-0.053106006,-0.48122025
1732440858920,2024-11-24T09:34:18.920Z,46278,-0.037090037,-0.051732283,-0.47789556
1732440858924,2024-11-24T09:34:18.924Z,46282,-0.037090037,-0.051732283,-0.47789556
1732440858934,2024-11-24T09:34:18.934Z,46292,-0.032993864,-0.055147573,-0.46355316
1732440858936,2024-11-24T09:34:18.936Z,46294,-0.032993864,-0.055147573,-0.46355316
1732440858947,2024-11-24T09:34:18.947Z,46305,-0.030050565,-0.040961854,-0.454706
1732440858950,2024-11-24T09:34:18.950Z,46308,-0.030050565,-0.040961854,-0.454706
1732440858959,2024-11-24T09:34:18.959Z,46317,-0.016445074,-0.033218943,-0.48663116
1732440858963,2024-11-24T09:34:18.963Z,46321,-0.016445074,-0.033218943,-0.48663116
1732440858972,2024-11-24T09:34:18.972Z,46330,-0.015282527,-0.04005502,-0.48740077
1732440858975,2024-11-24T09:34:18.975Z,46333,-0.015282527,-0.04005502,-0.48740077
1732440858983,2024-11-24T09:34:18.983Z,46341,8.3876157E-4,-0.056493677,-0.51622653
1732440858985,2024-11-24T09:34:18.985Z,46343,8.3876157E-4,-0.056493677,-0.51622653
1732440858994,2024-11-24T09:34:18.994Z,46352,-0.0133634405,-0.04107374,-0.48339108
1732440858997,2024-11-24T09:34:18.997Z,46355,-0.0133634405,-0.04107374,-0.48339108
1732440859005,2024-11-24T09:34:19.005Z,46363,0.023154072,-0.05150273,-0.48278293
1732440859007,2024-11-24T09:34:19.007Z,46365,0.023154072,-0.05150273,-0.48278293
1732440859016,2024-11-24T09:34:19.016Z,46374,0.0038800866,-0.041743875,-0.45744926
1732440859018,2024-11-24T09:34:19.018Z,46376,0.0038800866,-0.041743875,-0.45744926
1732440859027,2024-11-24T09:34:19.027Z,46385,0.028421154,-0.06253315,-0.51396173
1732440859029,2024-11-24T09:34:19.029Z,46387,0.028421154,-0.06253315,-0.51396173
1732440859037,2024-11-24T09:34:19.037Z,46395,0.05102031,-0.081270106,-0.5389844
1732440859039,2024-11-24T09:34:19.039Z,46397,0.05102031,-0.081270106,-0.5389844
1732440859047,2024-11-24T09:34:19.047Z,46405,0.07733306,-0.09571334,-0.56717694
1732440859049,2024-11-24T09:34:19.049Z,46407,0.07733306,-0.09571334,-0.56717694
1732440859056,2024-11-24T09:34:19.056Z,46414,-0.024272932,-0.09471037,-0.532388
1732440859059,2024-11-24T09:34:19.059Z,46417,-0.024272932,-0.09471037,-0.532388
1732440859069,2024-11-24T09:34:19.069Z,46427,-0.049799945,-0.07671668,-0.4876549
1732440859072,2024-11-24T09:34:19.072Z,46430,-0.049799945,-0.07671668,-0.4876549
1732440859083,2024-11-24T09:34:19.083Z,46441,-0.07480693,-0.11241962,-0.5144991
1732440859085,2024-11-24T09:34:19.085Z,46443,-0.07480693,-0.11241962,-0.5144991
1732440859095,2024-11-24T09:34:19.095Z,46453,-0.062216923,-0.12034448,-0.54374397
1732440859100,2024-11-24T09:34:19.100Z,46458,-0.062216923,-0.12034448,-0.54374397
1732440859119,2024-11-24T09:34:19.119Z,46477,-0.03413684,-0.10689002,-0.53915846
1732440859124,2024-11-24T09:34:19.124Z,46482,-0.03413684,-0.10689002,-0.53915846
1732440859144,2024-11-24T09:34:19.144Z,46502,-0.00779404,-0.10241176,-0.54855156
1732440859150,2024-11-24T09:34:19.150Z,46508,-0.00779404,-0.10241176,-0.54855156
1732440859173,2024-11-24T09:34:19.173Z,46531,-0.044833068,-0.09374223,-0.5005316
1732440859180,2024-11-24T09:34:19.180Z,46538,-0.044833068,-0.09374223,-0.5005316
1732440859193,2024-11-24T09:34:19.193Z,46551,-0.0680549,-0.08802902,-0.47195604
1732440859198,2024-11-24T09:34:19.198Z,46556,-0.0680549,-0.08802902,-0.47195604
1732440859219,2024-11-24T09:34:19.219Z,46577,-0.042378,-0.083871536,-0.50900507
1732440859225,2024-11-24T09:34:19.225Z,46583,-0.042378,-0.083871536,-0.50900507
1732440859241,2024-11-24T09:34:19.241Z,46599,-0.040854543,-0.07409683,-0.5250907
1732440859244,2024-11-24T09:34:19.244Z,46602,-0.040854543,-0.07409683,-0.5250907
1732440859255,2024-11-24T09:34:19.255Z,46613,-0.02534995,-0.0690219,-0.52441424
1732440859259,2024-11-24T09:34:19.259Z,46617,-0.02534995,-0.0690219,-0.52441424
1732440859270,2024-11-24T09:34:19.270Z,46628,-0.05350557,-0.043066297,-0.5321929
1732440859273,2024-11-24T09:34:19.273Z,46631,-0.05350557,-0.043066297,-0.5321929
1732440859282,2024-11-24T09:34:19.282Z,46640,-0.026159124,-0.038395926,-0.5562654
1732440859284,2024-11-24T09:34:19.284Z,46642,-0.026159124,-0.038395926,-0.5562654
1732440859292,2024-11-24T09:34:19.292Z,46650,-0.050849956,-0.030682286,-0.52773476
1732440859295,2024-11-24T09:34:19.295Z,46653,-0.050849956,-0.030682286,-0.52773476
1732440859302,2024-11-24T09:34:19.302Z,46660,-0.04402156,-0.017932236,-0.50635064
1732440859304,2024-11-24T09:34:19.304Z,46662,-0.04402156,-0.017932236,-0.50635064
1732440859312,2024-11-24T09:34:19.312Z,46670,-0.02103152,-0.008953403,-0.49458602
1732440859314,2024-11-24T09:34:19.314Z,46672,-0.02103152,-0.008953403,-0.49458602
1732440859327,2024-11-24T09:34:19.327Z,46685,0.0017775424,-0.008641675,-0.5018181
1732440859333,2024-11-24T09:34:19.333Z,46691,0.0017775424,-0.008641675,-0.5018181
1732440859352,2024-11-24T09:34:19.352Z,46710,0.008838067,-0.016041059,-0.53535724
1732440859358,2024-11-24T09:34:19.358Z,46716,0.008838067,-0.016041059,-0.53535724
1732440859368,2024-11-24T09:34:19.368Z,46726,-0.007835686,-0.021296423,-0.5565399
1732440859371,2024-11-24T09:34:19.371Z,46729,-0.007835686,-0.021296423,-0.5565399
1732440859381,2024-11-24T09:34:19.381Z,46739,-0.029645626,-0.020015525,-0.51131016
1732440859383,2024-11-24T09:34:19.383Z,46741,-0.029645626,-0.020015525,-0.51131016
1732440859393,2024-11-24T09:34:19.393Z,46751,-0.019515136,-0.026485901,-0.48867518
1732440859396,2024-11-24T09:34:19.396Z,46754,-0.019515136,-0.026485901,-0.48867518
1732440859405,2024-11-24T09:34:19.405Z,46763,-0.03486,-0.020097554,-0.49739677
1732440859408,2024-11-24T09:34:19.408Z,46766,-0.03486,-0.020097554,-0.49739677
1732440859416,2024-11-24T09:34:19.416Z,46774,-0.036560886,-0.028305551,-0.5071101
1732440859419,2024-11-24T09:34:19.419Z,46777,-0.036560886,-0.028305551,-0.5071101
1732440859428,2024-11-24T09:34:19.428Z,46786,-0.020548636,-0.029239615,-0.49775007
1732440859430,2024-11-24T09:34:19.430Z,46788,-0.020548636,-0.029239615,-0.49775007
1732440859439,2024-11-24T09:34:19.439Z,46797,-0.005062886,-0.0374588,-0.55082583
1732440859442,2024-11-24T09:34:19.442Z,46800,-0.005062886,-0.0374588,-0.55082583
1732440859451,2024-11-24T09:34:19.451Z,46809,-0.03159695,-0.035861116,-0.5208656
1732440859453,2024-11-24T09:34:19.453Z,46811,-0.03159695,-0.035861116,-0.5208656
1732440859462,2024-11-24T09:34:19.462Z,46820,-0.016445609,-0.052996308,-0.45355123
1732440859465,2024-11-24T09:34:19.465Z,46823,-0.016445609,-0.052996308,-0.45355123
1732440859478,2024-11-24T09:34:19.478Z,46836,-0.074391924,-0.03296858,-0.4661192
1732440859481,2024-11-24T09:34:19.481Z,46839,-0.074391924,-0.03296858,-0.4661192
1732440859489,2024-11-24T09:34:19.489Z,46847,-0.0964755,-0.039088815,-0.49503905
1732440859492,2024-11-24T09:34:19.492Z,46850,-0.0964755,-0.039088815,-0.49503905
1732440859500,2024-11-24T09:34:19.500Z,46858,-0.060498923,-0.055555675,-0.54415476
1732440859502,2024-11-24T09:34:19.502Z,46860,-0.060498923,-0.055555675,-0.54415476
1732440859510,2024-11-24T09:34:19.510Z,46868,-0.048817333,-0.06540696,-0.4645479
1732440859512,2024-11-24T09:34:19.512Z,46870,-0.048817333,-0.06540696,-0.4645479
1732440859519,2024-11-24T09:34:19.519Z,46877,-0.07573637,-0.060202315,-0.45230973
1732440859521,2024-11-24T09:34:19.521Z,46879,-0.07573637,-0.060202315,-0.45230973
1732440859529,2024-11-24T09:34:19.529Z,46887,-0.070445806,-0.06635124,-0.48079517
1732440859532,2024-11-24T09:34:19.532Z,46890,-0.070445806,-0.06635124,-0.48079517
1732440859541,2024-11-24T09:34:19.541Z,46899,-0.026858263,-0.055796947,-0.50724316
1732440859547,2024-11-24T09:34:19.547Z,46905,-0.026858263,-0.055796947,-0.50724316
1732440859571,2024-11-24T09:34:19.571Z,46929,0.018479496,-0.059971597,-0.50779057
1732440859577,2024-11-24T09:34:19.577Z,46935,0.018479496,-0.059971597,-0.50779057
1732440859593,2024-11-24T09:34:19.593Z,46951,0.0035997701,-0.044264484,-0.52990705
1732440859599,2024-11-24T09:34:19.599Z,46957,0.0035997701,-0.044264484,-0.52990705
1732440859618,2024-11-24T09:34:19.618Z,46976,-0.00977641,-0.054658856,-0.45693943
1732440859624,2024-11-24T09:34:19.624Z,46982,-0.00977641,-0.054658856,-0.45693943
1732440859636,2024-11-24T09:34:19.636Z,46994,-0.004766305,-0.052864976,-0.43626788
1732440859640,2024-11-24T09:34:19.640Z,46998,-0.004766305,-0.052864976,-0.43626788
1732440859652,2024-11-24T09:34:19.652Z,47010,-0.012403387,-0.06192151,-0.4650359
1732440859655,2024-11-24T09:34:19.655Z,47013,-0.012403387,-0.06192151,-0.4650359
1732440859666,2024-11-24T09:34:19.666Z,47024,-0.038180377,-0.06016147,-0.5108242
1732440859669,2024-11-24T09:34:19.669Z,47027,-0.038180377,-0.06016147,-0.5108242
1732440859679,2024-11-24T09:34:19.679Z,47037,0.017373499,-0.080929644,-0.5157194
1732440859681,2024-11-24T09:34:19.681Z,47039,0.017373499,-0.080929644,-0.5157194
1732440859690,2024-11-24T09:34:19.690Z,47048,0.02300351,-0.081152685,-0.52160925
1732440859693,2024-11-24T09:34:19.693Z,47051,0.02300351,-0.081152685,-0.52160925
1732440859701,2024-11-24T09:34:19.701Z,47059,-0.026518868,-0.07096598,-0.44500077
1732440859704,2024-11-24T09:34:19.704Z,47062,-0.026518868,-0.07096598,-0.44500077
1732440859713,2024-11-24T09:34:19.713Z,47071,-0.07057619,-0.083499365,-0.48251447
1732440859716,2024-11-24T09:34:19.716Z,47074,-0.07057619,-0.083499365,-0.48251447
1732440859722,2024-11-24T09:34:19.722Z,47080,-0.07439596,-0.08223354,-0.5425725
1732440859725,2024-11-24T09:34:19.725Z,47083,-0.07439596,-0.08223354,-0.5425725
1732440859732,2024-11-24T09:34:19.732Z,47090,0.02517082,-0.07677907,-0.5054034
1732440859735,2024-11-24T09:34:19.735Z,47093,0.02517082,-0.07677907,-0.5054034
1732440859743,2024-11-24T09:34:19.743Z,47101,0.02409701,-0.07281675,-0.47490284
1732440859745,2024-11-24T09:34:19.745Z,47103,0.02409701,-0.07281675,-0.47490284
1732440859755,2024-11-24T09:34:19.755Z,47113,-6.5265375E-4,-0.07022389,-0.46295685
1732440859757,2024-11-24T09:34:19.757Z,47115,-6.5265375E-4,-0.07022389,-0.46295685
1732440859765,2024-11-24T09:34:19.765Z,47123,-0.104568034,-0.08952133,-0.5046046
1732440859767,2024-11-24T09:34:19.767Z,47125,-0.104568034,-0.08952133,-0.5046046
1732440859774,2024-11-24T09:34:19.774Z,47132,-0.056997422,-0.0933862,-0.5356312
1732440859776,2024-11-24T09:34:19.776Z,47134,-0.056997422,-0.0933862,-0.5356312
1732440859784,2024-11-24T09:34:19.784Z,47142,0.013571794,-0.09054394,-0.53867376
1732440859786,2024-11-24T09:34:19.786Z,47144,0.013571794,-0.09054394,-0.53867376
1732440859796,2024-11-24T09:34:19.796Z,47154,-0.02762771,-0.08321273,-0.47900224
1732440859799,2024-11-24T09:34:19.799Z,47157,-0.02762771,-0.08321273,-0.47900224
1732440859806,2024-11-24T09:34:19.806Z,47164,-0.04928575,-0.07120127,-0.49149433
1732440859809,2024-11-24T09:34:19.809Z,47167,-0.04928575,-0.07120127,-0.49149433
1732440859816,2024-11-24T09:34:19.816Z,47174,-0.10342674,-0.063032515,-0.5159447
1732440859819,2024-11-24T09:34:19.819Z,47177,-0.10342674,-0.063032515,-0.5159447
1732440859828,2024-11-24T09:34:19.828Z,47186,-0.02584324,-0.086740635,-0.56988907
1732440859830,2024-11-24T09:34:19.830Z,47188,-0.02584324,-0.086740635,-0.56988907
1732440859837,2024-11-24T09:34:19.837Z,47195,-0.016362268,-0.07430941,-0.51978636
1732440859839,2024-11-24T09:34:19.839Z,47197,-0.016362268,-0.07430941,-0.51978636
1732440859847,2024-11-24T09:34:19.847Z,47205,-0.0013877249,-0.07275714,-0.5137594
1732440859849,2024-11-24T09:34:19.849Z,47207,-0.0013877249,-0.07275714,-0.5137594
1732440859856,2024-11-24T09:34:19.856Z,47214,-0.07611015,-0.05766308,-0.49997813
1732440859859,2024-11-24T09:34:19.859Z,47217,-0.07611015,-0.05766308,-0.49997813
1732440859867,2024-11-24T09:34:19.867Z,47225,-0.07077307,-0.06499488,-0.5123446
1732440859870,2024-11-24T09:34:19.870Z,47228,-0.07077307,-0.06499488,-0.5123446
1732440859881,2024-11-24T09:34:19.881Z,47239,-0.11853791,-0.06468636,-0.53417337
1732440859883,2024-11-24T09:34:19.883Z,47241,-0.11853791,-0.06468636,-0.53417337
1732440859892,2024-11-24T09:34:19.892Z,47250,-0.067204155,-0.0709866,-0.53737247
1732440859894,2024-11-24T09:34:19.894Z,47252,-0.067204155,-0.0709866,-0.53737247
1732440859903,2024-11-24T09:34:19.903Z,47261,-0.031134829,-0.099985674,-0.49348712
1732440859906,2024-11-24T09:34:19.906Z,47264,-0.031134829,-0.099985674,-0.49348712
1732440859915,2024-11-24T09:34:19.915Z,47273,-0.018014872,-0.10532336,-0.44246724
1732440859918,2024-11-24T09:34:19.918Z,47276,-0.018014872,-0.10532336,-0.44246724
1732440859925,2024-11-24T09:34:19.925Z,47283,-0.0323037,-0.11689861,-0.44728848
1732440859928,2024-11-24T09:34:19.928Z,47286,-0.0323037,-0.11689861,-0.44728848
1732440859936,2024-11-24T09:34:19.936Z,47294,-0.006740725,-0.18257461,-0.48919597
1732440859938,2024-11-24T09:34:19.938Z,47296,-0.006740725,-0.18257461,-0.48919597
1732440859946,2024-11-24T09:34:19.946Z,47304,-0.05411529,-0.18843101,-0.44479612
1732440859949,2024-11-24T09:34:19.949Z,47307,-0.05411529,-0.18843101,-0.44479612
1732440859958,2024-11-24T09:34:19.958Z,47316,-0.03666589,-0.19086567,-0.45430997
1732440859963,2024-11-24T09:34:19.963Z,47321,-0.03666589,-0.19086567,-0.45430997
1732440859971,2024-11-24T09:34:19.971Z,47329,-0.11582895,-0.20770887,-0.49118966
1732440859974,2024-11-24T09:34:19.974Z,47332,-0.11582895,-0.20770887,-0.49118966
1732440859982,2024-11-24T09:34:19.982Z,47340,-0.036941975,-0.21731544,-0.50915915
1732440859984,2024-11-24T09:34:19.984Z,47342,-0.036941975,-0.21731544,-0.50915915
1732440859993,2024-11-24T09:34:19.993Z,47351,-0.023334637,-0.20396322,-0.47431916
1732440859996,2024-11-24T09:34:19.996Z,47354,-0.023334637,-0.20396322,-0.47431916
1732440860003,2024-11-24T09:34:20.003Z,47361,-0.039209962,-0.20082018,-0.52358925
1732440860005,2024-11-24T09:34:20.005Z,47363,-0.039209962,-0.20082018,-0.52358925
1732440860013,2024-11-24T09:34:20.013Z,47371,-0.03938637,-0.21045393,-0.51024294
1732440860016,2024-11-24T09:34:20.016Z,47374,-0.03938637,-0.21045393,-0.51024294
1732440860025,2024-11-24T09:34:20.025Z,47383,-0.07261788,-0.20450723,-0.46171993
1732440860027,2024-11-24T09:34:20.027Z,47385,-0.07261788,-0.20450723,-0.46171993
1732440860034,2024-11-24T09:34:20.034Z,47392,-0.09032353,-0.16848896,-0.4044407
1732440860036,2024-11-24T09:34:20.036Z,47394,-0.09032353,-0.16848896,-0.4044407
1732440860046,2024-11-24T09:34:20.046Z,47404,-0.10757221,-0.14736326,-0.4713385
1732440860049,2024-11-24T09:34:20.049Z,47407,-0.10757221,-0.14736326,-0.4713385
1732440860057,2024-11-24T09:34:20.057Z,47415,-0.068742976,-0.16512215,-0.50986207
1732440860059,2024-11-24T09:34:20.059Z,47417,-0.068742976,-0.16512215,-0.50986207
1732440860068,2024-11-24T09:34:20.068Z,47426,-0.048504025,-0.16705582,-0.39418808
1732440860070,2024-11-24T09:34:20.070Z,47428,-0.048504025,-0.16705582,-0.39418808
1732440860078,2024-11-24T09:34:20.078Z,47436,-0.07470771,-0.1569106,-0.4341064
1732440860080,2024-11-24T09:34:20.080Z,47438,-0.07470771,-0.1569106,-0.4341064
1732440860088,2024-11-24T09:34:20.088Z,47446,-0.116289325,-0.15942512,-0.43797556
1732440860091,2024-11-24T09:34:20.091Z,47449,-0.116289325,-0.15942512,-0.43797556
1732440860098,2024-11-24T09:34:20.098Z,47456,-0.070459954,-0.13130085,-0.40980232
1732440860101,2024-11-24T09:34:20.101Z,47459,-0.070459954,-0.13130085,-0.40980232
1732440860108,2024-11-24T09:34:20.108Z,47466,-0.07462415,-0.11456573,-0.33063474
1732440860111,2024-11-24T09:34:20.111Z,47469,-0.07462415,-0.11456573,-0.33063474
1732440860119,2024-11-24T09:34:20.119Z,47477,-0.03363492,-0.10944078,-0.3842602
1732440860121,2024-11-24T09:34:20.121Z,47479,-0.03363492,-0.10944078,-0.3842602
1732440860131,2024-11-24T09:34:20.131Z,47489,-0.023507496,-0.11024502,-0.43109894
1732440860133,2024-11-24T09:34:20.133Z,47491,-0.023507496,-0.11024502,-0.43109894
1732440860143,2024-11-24T09:34:20.143Z,47501,-0.031543538,-0.09848762,-0.42489472
1732440860146,2024-11-24T09:34:20.146Z,47504,-0.031543538,-0.09848762,-0.42489472
1732440860153,2024-11-24T09:34:20.153Z,47511,-0.035596773,-0.08464213,-0.46676826
1732440860155,2024-11-24T09:34:20.155Z,47513,-0.035596773,-0.08464213,-0.46676826
1732440860162,2024-11-24T09:34:20.162Z,47520,0.031929586,-0.07713859,-0.45625594
1732440860165,2024-11-24T09:34:20.165Z,47523,0.031929586,-0.07713859,-0.45625594
1732440860172,2024-11-24T09:34:20.172Z,47530,0.019459244,-0.08293606,-0.5083273
1732440860175,2024-11-24T09:34:20.175Z,47533,0.019459244,-0.08293606,-0.5083273
1732440860183,2024-11-24T09:34:20.183Z,47541,-0.007146759,-0.07227854,-0.4961455
1732440860185,2024-11-24T09:34:20.185Z,47543,-0.007146759,-0.07227854,-0.4961455
1732440860192,2024-11-24T09:34:20.192Z,47550,0.013383959,-0.10387665,-0.4265492
1732440860195,2024-11-24T09:34:20.195Z,47553,0.013383959,-0.10387665,-0.4265492
1732440860203,2024-11-24T09:34:20.203Z,47561,-0.018205235,-0.11247588,-0.38539264
1732440860206,2024-11-24T09:34:20.206Z,47564,-0.018205235,-0.11247588,-0.38539264
1732440860216,2024-11-24T09:34:20.216Z,47574,-0.012941458,-0.10596058,-0.41890153
1732440860219,2024-11-24T09:34:20.219Z,47577,-0.012941458,-0.10596058,-0.41890153
1732440860227,2024-11-24T09:34:20.227Z,47585,-0.0298541,-0.13935092,-0.47175062
1732440860229,2024-11-24T09:34:20.229Z,47587,-0.0298541,-0.13935092,-0.47175062
1732440860236,2024-11-24T09:34:20.236Z,47594,-0.08869877,-0.13995492,-0.40810835
1732440860238,2024-11-24T09:34:20.238Z,47596,-0.08869877,-0.13995492,-0.40810835
1732440860248,2024-11-24T09:34:20.248Z,47606,-0.13781247,-0.1578487,-0.4397557
1732440860250,2024-11-24T09:34:20.250Z,47608,-0.13781247,-0.1578487,-0.4397557
1732440860258,2024-11-24T09:34:20.258Z,47616,-0.081418194,-0.168189,-0.5075099
1732440860261,2024-11-24T09:34:20.261Z,47619,-0.081418194,-0.168189,-0.5075099
1732440860269,2024-11-24T09:34:20.269Z,47627,-0.04397046,-0.18104218,-0.5247353
1732440860272,2024-11-24T09:34:20.272Z,47630,-0.04397046,-0.18104218,-0.5247353
1732440860280,2024-11-24T09:34:20.280Z,47638,-0.044377025,-0.15747584,-0.52379894
1732440860282,2024-11-24T09:34:20.282Z,47640,-0.044377025,-0.15747584,-0.52379894
1732440860291,2024-11-24T09:34:20.291Z,47649,-0.09117226,-0.11118968,-0.4512658
1732440860294,2024-11-24T09:34:20.294Z,47652,-0.09117226,-0.11118968,-0.4512658
1732440860302,2024-11-24T09:34:20.302Z,47660,-0.10561364,-0.1332869,-0.43761107
1732440860304,2024-11-24T09:34:20.304Z,47662,-0.10561364,-0.1332869,-0.43761107
1732440860311,2024-11-24T09:34:20.311Z,47669,-0.119110584,-0.12984613,-0.41204542
1732440860315,2024-11-24T09:34:20.315Z,47673,-0.119110584,-0.12984613,-0.41204542
1732440860324,2024-11-24T09:34:20.324Z,47682,-0.006017178,-0.1454855,-0.437524
1732440860326,2024-11-24T09:34:20.326Z,47684,-0.006017178,-0.1454855,-0.437524
1732440860335,2024-11-24T09:34:20.335Z,47693,-0.029902553,-0.13863435,-0.4076897
1732440860337,2024-11-24T09:34:20.337Z,47695,-0.029902553,-0.13863435,-0.4076897
1732440860344,2024-11-24T09:34:20.344Z,47702,-0.08568233,-0.11634114,-0.39845973
1732440860347,2024-11-24T09:34:20.347Z,47705,-0.08568233,-0.11634114,-0.39845973
1732440860354,2024-11-24T09:34:20.354Z,47712,-0.06281697,-0.103919394,-0.46605393
1732440860356,2024-11-24T09:34:20.356Z,47714,-0.06281697,-0.103919394,-0.46605393
1732440860365,2024-11-24T09:34:20.365Z,47723,0.02381244,-0.14376445,-0.49717864
1732440860367,2024-11-24T09:34:20.367Z,47725,0.02381244,-0.14376445,-0.49717864
1732440860377,2024-11-24T09:34:20.377Z,47735,0.012318271,-0.16792639,-0.45397756
1732440860380,2024-11-24T09:34:20.380Z,47738,0.012318271,-0.16792639,-0.45397756
1732440860388,2024-11-24T09:34:20.388Z,47746,-0.013504668,-0.15993038,-0.4297183
1732440860390,2024-11-24T09:34:20.390Z,47748,-0.013504668,-0.15993038,-0.4297183
1732440860398,2024-11-24T09:34:20.398Z,47756,-0.06195618,-0.1588876,-0.45300707
1732440860400,2024-11-24T09:34:20.400Z,47758,-0.06195618,-0.1588876,-0.45300707
1732440860410,2024-11-24T09:34:20.410Z,47768,-0.084728114,-0.1585235,-0.44223905
1732440860415,2024-11-24T09:34:20.415Z,47773,-0.084728114,-0.1585235,-0.44223905
1732440860424,2024-11-24T09:34:20.424Z,47782,-0.041977923,-0.17630553,-0.39280784
1732440860427,2024-11-24T09:34:20.427Z,47785,-0.041977923,-0.17630553,-0.39280784
1732440860436,2024-11-24T09:34:20.436Z,47794,0.001196779,-0.1935798,-0.36644834
1732440860438,2024-11-24T09:34:20.438Z,47796,0.001196779,-0.1935798,-0.36644834
1732440860447,2024-11-24T09:34:20.447Z,47805,0.0010406721,-0.15968843,-0.32405058
1732440860450,2024-11-24T09:34:20.450Z,47808,0.0010406721,-0.15968843,-0.32405058
1732440860457,2024-11-24T09:34:20.457Z,47815,-0.072192036,-0.1584562,-0.4397472
1732440860459,2024-11-24T09:34:20.459Z,47817,-0.072192036,-0.1584562,-0.4397472
1732440860467,2024-11-24T09:34:20.467Z,47825,-0.07337962,-0.1724378,-0.382187
1732440860469,2024-11-24T09:34:20.469Z,47827,-0.07337962,-0.1724378,-0.382187
1732440860478,2024-11-24T09:34:20.478Z,47836,-0.06923867,-0.17325716,-0.37908652
1732440860481,2024-11-24T09:34:20.481Z,47839,-0.06923867,-0.17325716,-0.37908652
1732440860489,2024-11-24T09:34:20.489Z,47847,0.023095578,-0.18546924,-0.36930278
1732440860492,2024-11-24T09:34:20.492Z,47850,0.023095578,-0.18546924,-0.36930278
1732440860499,2024-11-24T09:34:20.499Z,47857,0.032681506,-0.183112,-0.47286147
1732440860502,2024-11-24T09:34:20.502Z,47860,0.032681506,-0.183112,-0.47286147
1732440860510,2024-11-24T09:34:20.510Z,47868,0.007835929,-0.1963535,-0.47394505
1732440860513,2024-11-24T09:34:20.513Z,47871,0.007835929,-0.1963535,-0.47394505
1732440860520,2024-11-24T09:34:20.520Z,47878,-0.1257791,-0.21258949,-0.3587252
1732440860522,2024-11-24T09:34:20.522Z,47880,-0.1257791,-0.21258949,-0.3587252
1732440860529,2024-11-24T09:34:20.529Z,47887,-0.057371046,-0.21909638,-0.3656213
1732440860532,2024-11-24T09:34:20.532Z,47890,-0.057371046,-0.21909638,-0.3656213
1732440860540,2024-11-24T09:34:20.540Z,47898,-0.03125284,-0.24276322,-0.399168
1732440860543,2024-11-24T09:34:20.543Z,47901,-0.03125284,-0.24276322,-0.399168
1732440860551,2024-11-24T09:34:20.551Z,47909,-0.059573997,-0.23102255,-0.39938128
1732440860554,2024-11-24T09:34:20.554Z,47912,-0.059573997,-0.23102255,-0.39938128
1732440860564,2024-11-24T09:34:20.564Z,47922,-0.109498225,-0.23200159,-0.4313123
1732440860567,2024-11-24T09:34:20.567Z,47925,-0.109498225,-0.23200159,-0.4313123
1732440860575,2024-11-24T09:34:20.575Z,47933,-0.047681283,-0.23162918,-0.4834656
1732440860577,2024-11-24T09:34:20.577Z,47935,-0.047681283,-0.23162918,-0.4834656
1732440860585,2024-11-24T09:34:20.585Z,47943,-0.073657,-0.21030922,-0.37500983
1732440860587,2024-11-24T09:34:20.587Z,47945,-0.073657,-0.21030922,-0.37500983
1732440860595,2024-11-24T09:34:20.595Z,47953,-0.06899913,-0.20807286,-0.38181472
1732440860597,2024-11-24T09:34:20.597Z,47955,-0.06899913,-0.20807286,-0.38181472
1732440860606,2024-11-24T09:34:20.606Z,47964,-0.0758502,-0.20957029,-0.4092697
1732440860609,2024-11-24T09:34:20.609Z,47967,-0.0758502,-0.20957029,-0.4092697
1732440860617,2024-11-24T09:34:20.617Z,47975,-0.03841168,-0.19823888,-0.4754728
1732440860620,2024-11-24T09:34:20.620Z,47978,-0.03841168,-0.19823888,-0.4754728
1732440860629,2024-11-24T09:34:20.629Z,47987,-0.005148999,-0.20289102,-0.48979598
1732440860632,2024-11-24T09:34:20.632Z,47990,-0.005148999,-0.20289102,-0.48979598
1732440860640,2024-11-24T09:34:20.640Z,47998,-0.06681555,-0.19766697,-0.44036537
1732440860643,2024-11-24T09:34:20.643Z,48001,-0.06681555,-0.19766697,-0.44036537
1732440860652,2024-11-24T09:34:20.652Z,48010,-0.06992611,-0.19174127,-0.4253899
1732440860654,2024-11-24T09:34:20.654Z,48012,-0.06992611,-0.19174127,-0.4253899
1732440860660,2024-11-24T09:34:20.660Z,48018,-0.05772459,-0.19099875,-0.44338277
1732440860663,2024-11-24T09:34:20.663Z,48021,-0.05772459,-0.19099875,-0.44338277
1732440860669,2024-11-24T09:34:20.669Z,48027,-0.04895207,-0.18330178,-0.45409894
1732440860671,2024-11-24T09:34:20.671Z,48029,-0.04895207,-0.18330178,-0.45409894
1732440860679,2024-11-24T09:34:20.679Z,48037,-0.02091735,-0.19302338,-0.5030403
1732440860682,2024-11-24T09:34:20.682Z,48040,-0.02091735,-0.19302338,-0.5030403
1732440860689,2024-11-24T09:34:20.689Z,48047,-0.0068341806,-0.19978823,-0.47124612
1732440860691,2024-11-24T09:34:20.691Z,48049,-0.0068341806,-0.19978823,-0.47124612
1732440860700,2024-11-24T09:34:20.700Z,48058,-0.012253796,-0.19736794,-0.43761194
1732440860702,2024-11-24T09:34:20.702Z,48060,-0.012253796,-0.19736794,-0.43761194
1732440860710,2024-11-24T09:34:20.710Z,48068,-0.06607309,-0.19106789,-0.4222281
1732440860712,2024-11-24T09:34:20.712Z,48070,-0.06607309,-0.19106789,-0.4222281
1732440860720,2024-11-24T09:34:20.720Z,48078,-0.046955403,-0.1912618,-0.4433851
1732440860723,2024-11-24T09:34:20.723Z,48081,-0.046955403,-0.1912618,-0.4433851
1732440860738,2024-11-24T09:34:20.738Z,48096,-0.040104665,-0.20019132,-0.45228457
1732440860741,2024-11-24T09:34:20.741Z,48099,-0.040104665,-0.20019132,-0.45228457
1732440860749,2024-11-24T09:34:20.749Z,48107,-0.0059589995,-0.20575185,-0.402378
1732440860751,2024-11-24T09:34:20.751Z,48109,-0.0059589995,-0.20575185,-0.402378
1732440860759,2024-11-24T09:34:20.759Z,48117,-0.027328966,-0.2199453,-0.4203125
1732440860761,2024-11-24T09:34:20.761Z,48119,-0.027328966,-0.2199453,-0.4203125
1732440860786,2024-11-24T09:34:20.786Z,48144,-0.030020103,-0.21793957,-0.4436364
1732440860789,2024-11-24T09:34:20.789Z,48147,-0.030020103,-0.21793957,-0.4436364
1732440860802,2024-11-24T09:34:20.802Z,48160,-0.072735116,-0.19816133,-0.41661757
1732440860809,2024-11-24T09:34:20.809Z,48167,-0.072735116,-0.19816133,-0.41661757
1732440860830,2024-11-24T09:34:20.830Z,48188,-0.04855051,-0.21322295,-0.43811724
1732440860837,2024-11-24T09:34:20.837Z,48195,-0.04855051,-0.21322295,-0.43811724
1732440860857,2024-11-24T09:34:20.857Z,48215,-0.02809929,-0.2289114,-0.42798808
1732440860862,2024-11-24T09:34:20.862Z,48220,-0.02809929,-0.2289114,-0.42798808
1732440860877,2024-11-24T09:34:20.877Z,48235,-0.0010880075,-0.2307519,-0.38868308
1732440860881,2024-11-24T09:34:20.881Z,48239,-0.0010880075,-0.2307519,-0.38868308
1732440860892,2024-11-24T09:34:20.892Z,48250,0.009101559,-0.21763416,-0.34481704
1732440860896,2024-11-24T09:34:20.896Z,48254,0.009101559,-0.21763416,-0.34481704
1732440860906,2024-11-24T09:34:20.906Z,48264,-0.04766108,-0.20250985,-0.35624614
1732440860909,2024-11-24T09:34:20.909Z,48267,-0.04766108,-0.20250985,-0.35624614
1732440860920,2024-11-24T09:34:20.920Z,48278,0.03701355,-0.22780856,-0.50198424
1732440860923,2024-11-24T09:34:20.923Z,48281,0.03701355,-0.22780856,-0.50198424
1732440860933,2024-11-24T09:34:20.933Z,48291,0.018363431,-0.22988154,-0.44540164
1732440860936,2024-11-24T09:34:20.936Z,48294,0.018363431,-0.22988154,-0.44540164
1732440860953,2024-11-24T09:34:20.953Z,48311,0.0354315,-0.22743528,-0.39254227
1732440860956,2024-11-24T09:34:20.956Z,48314,0.0354315,-0.22743528,-0.39254227
1732440860967,2024-11-24T09:34:20.967Z,48325,-0.08745893,-0.21758564,-0.35519278
1732440860969,2024-11-24T09:34:20.969Z,48327,-0.08745893,-0.21758564,-0.35519278
1732440860977,2024-11-24T09:34:20.977Z,48335,-0.077819884,-0.20058908,-0.39479035
1732440860980,2024-11-24T09:34:20.980Z,48338,-0.077819884,-0.20058908,-0.39479035
1732440860986,2024-11-24T09:34:20.986Z,48344,-0.08273986,-0.2071916,-0.42950994
1732440860989,2024-11-24T09:34:20.989Z,48347,-0.08273986,-0.2071916,-0.42950994
1732440860998,2024-11-24T09:34:20.998Z,48356,0.03846208,-0.21095577,-0.3804646
1732440861001,2024-11-24T09:34:21.001Z,48359,0.03846208,-0.21095577,-0.3804646
1732440861016,2024-11-24T09:34:21.016Z,48374,0.04149087,-0.20432353,-0.38461894
1732440861018,2024-11-24T09:34:21.018Z,48376,0.04149087,-0.20432353,-0.38461894
1732440861025,2024-11-24T09:34:21.025Z,48383,-0.04642883,-0.19514096,-0.37175182
1732440861028,2024-11-24T09:34:21.028Z,48386,-0.04642883,-0.19514096,-0.37175182
1732440861036,2024-11-24T09:34:21.036Z,48394,-0.11265265,-0.1691993,-0.40987957
1732440861038,2024-11-24T09:34:21.038Z,48396,-0.11265265,-0.1691993,-0.40987957
1732440861046,2024-11-24T09:34:21.046Z,48404,-0.10155779,-0.16336006,-0.37722617
1732440861048,2024-11-24T09:34:21.048Z,48406,-0.10155779,-0.16336006,-0.37722617
1732440861058,2024-11-24T09:34:21.058Z,48416,-0.031653512,-0.16257508,-0.34699884
1732440861061,2024-11-24T09:34:21.061Z,48419,-0.031653512,-0.16257508,-0.34699884
1732440861069,2024-11-24T09:34:21.069Z,48427,-1.1598005E-4,-0.14459229,-0.35609186
1732440861071,2024-11-24T09:34:21.071Z,48429,-1.1598005E-4,-0.14459229,-0.35609186
1732440861078,2024-11-24T09:34:21.078Z,48436,-0.077707075,-0.12649001,-0.35991418
1732440861080,2024-11-24T09:34:21.080Z,48438,-0.077707075,-0.12649001,-0.35991418
1732440861094,2024-11-24T09:34:21.094Z,48452,-0.0833155,-0.12923235,-0.36214495
1732440861100,2024-11-24T09:34:21.100Z,48458,-0.0833155,-0.12923235,-0.36214495
1732440861120,2024-11-24T09:34:21.120Z,48478,-0.052440695,-0.12566248,-0.35788682
1732440861126,2024-11-24T09:34:21.126Z,48484,-0.052440695,-0.12566248,-0.35788682
1732440861147,2024-11-24T09:34:21.147Z,48505,-0.027259057,-0.1393551,-0.3337006
1732440861153,2024-11-24T09:34:21.153Z,48511,-0.027259057,-0.1393551,-0.3337006
1732440861170,2024-11-24T09:34:21.170Z,48528,3.4070737E-4,-0.14130083,-0.3202535
1732440861177,2024-11-24T09:34:21.177Z,48535,3.4070737E-4,-0.14130083,-0.3202535
1732440861196,2024-11-24T09:34:21.196Z,48554,0.0026330547,-0.12921883,-0.4264023
1732440861201,2024-11-24T09:34:21.201Z,48559,0.0026330547,-0.12921883,-0.4264023
1732440861212,2024-11-24T09:34:21.212Z,48570,-0.035202153,-0.13973504,-0.44729358
1732440861216,2024-11-24T09:34:21.216Z,48574,-0.035202153,-0.13973504,-0.44729358
1732440861228,2024-11-24T09:34:21.228Z,48586,-0.05347704,-0.13687018,-0.38879138
1732440861231,2024-11-24T09:34:21.231Z,48589,-0.05347704,-0.13687018,-0.38879138
1732440861242,2024-11-24T09:34:21.242Z,48600,-0.012723441,-0.1667635,-0.3561944
1732440861246,2024-11-24T09:34:21.246Z,48604,-0.012723441,-0.1667635,-0.3561944
1732440861255,2024-11-24T09:34:21.255Z,48613,-0.033542827,-0.16029453,-0.38105428
1732440861259,2024-11-24T09:34:21.259Z,48617,-0.033542827,-0.16029453,-0.38105428
1732440861267,2024-11-24T09:34:21.267Z,48625,-0.032622937,-0.15782954,-0.3903416
1732440861270,2024-11-24T09:34:21.270Z,48628,-0.032622937,-0.15782954,-0.3903416
1732440861279,2024-11-24T09:34:21.279Z,48637,0.009806958,-0.17845379,-0.4243162
1732440861282,2024-11-24T09:34:21.282Z,48640,0.009806958,-0.17845379,-0.4243162
1732440861289,2024-11-24T09:34:21.289Z,48647,0.0048729735,-0.18644162,-0.38642484
1732440861292,2024-11-24T09:34:21.292Z,48650,0.0048729735,-0.18644162,-0.38642484
1732440861299,2024-11-24T09:34:21.299Z,48657,-0.020559663,-0.19165365,-0.32906327
1732440861301,2024-11-24T09:34:21.301Z,48659,-0.020559663,-0.19165365,-0.32906327
1732440861307,2024-11-24T09:34:21.307Z,48665,-0.01392067,-0.22019416,-0.4123855
1732440861310,2024-11-24T09:34:21.310Z,48668,-0.01392067,-0.22019416,-0.4123855
1732440861317,2024-11-24T09:34:21.317Z,48675,-2.854099E-4,-0.23565485,-0.445014
1732440861320,2024-11-24T09:34:21.320Z,48678,-2.854099E-4,-0.23565485,-0.445014
1732440861328,2024-11-24T09:34:21.328Z,48686,-0.047154397,-0.2498394,-0.46159813
1732440861331,2024-11-24T09:34:21.331Z,48689,-0.047154397,-0.2498394,-0.46159813
1732440861337,2024-11-24T09:34:21.337Z,48695,-0.08452928,-0.2714261,-0.37874854
1732440861339,2024-11-24T09:34:21.339Z,48697,-0.08452928,-0.2714261,-0.37874854
1732440861346,2024-11-24T09:34:21.346Z,48704,-0.06914506,-0.2973098,-0.4063288
1732440861348,2024-11-24T09:34:21.348Z,48706,-0.06914506,-0.2973098,-0.4063288
1732440861354,2024-11-24T09:34:21.354Z,48712,-0.0843095,-0.29551184,-0.4330728
1732440861356,2024-11-24T09:34:21.356Z,48714,-0.0843095,-0.29551184,-0.4330728
1732440861372,2024-11-24T09:34:21.372Z,48730,-0.11645031,-0.3041433,-0.4366276
1732440861375,2024-11-24T09:34:21.375Z,48733,-0.11645031,-0.3041433,-0.4366276
1732440861383,2024-11-24T09:34:21.383Z,48741,-0.12685946,-0.30517715,-0.4190556
1732440861385,2024-11-24T09:34:21.385Z,48743,-0.12685946,-0.30517715,-0.4190556
1732440861392,2024-11-24T09:34:21.392Z,48750,-0.1324667,-0.30500203,-0.3903388
1732440861395,2024-11-24T09:34:21.395Z,48753,-0.1324667,-0.30500203,-0.3903388
1732440861416,2024-11-24T09:34:21.416Z,48774,-0.15666306,-0.32159737,-0.41252032
1732440861418,2024-11-24T09:34:21.418Z,48776,-0.15666306,-0.32159737,-0.41252032
1732440861425,2024-11-24T09:34:21.425Z,48783,-0.13385108,-0.32013905,-0.42186972
1732440861428,2024-11-24T09:34:21.428Z,48786,-0.13385108,-0.32013905,-0.42186972
1732440861436,2024-11-24T09:34:21.436Z,48794,-0.068848416,-0.3520465,-0.43199754
1732440861439,2024-11-24T09:34:21.439Z,48797,-0.068848416,-0.3520465,-0.43199754
1732440861462,2024-11-24T09:34:21.462Z,48820,-0.09533783,-0.32125583,-0.40411833
1732440861465,2024-11-24T09:34:21.465Z,48823,-0.09533783,-0.32125583,-0.40411833
1732440861474,2024-11-24T09:34:21.474Z,48832,-0.1093257,-0.31416643,-0.37361515
1732440861477,2024-11-24T09:34:21.477Z,48835,-0.1093257,-0.31416643,-0.37361515
1732440861487,2024-11-24T09:34:21.487Z,48845,-0.14189383,-0.32099497,-0.37810037
1732440861490,2024-11-24T09:34:21.490Z,48848,-0.14189383,-0.32099497,-0.37810037
1732440861507,2024-11-24T09:34:21.507Z,48865,-0.095118634,-0.30953076,-0.33527425
1732440861511,2024-11-24T09:34:21.511Z,48869,-0.095118634,-0.30953076,-0.33527425
1732440861521,2024-11-24T09:34:21.521Z,48879,-0.041237272,-0.31521246,-0.36917686
1732440861524,2024-11-24T09:34:21.524Z,48882,-0.041237272,-0.31521246,-0.36917686
1732440861534,2024-11-24T09:34:21.534Z,48892,-0.02946613,-0.3203738,-0.36937928
1732440861537,2024-11-24T09:34:21.537Z,48895,-0.02946613,-0.3203738,-0.36937928
1732440861554,2024-11-24T09:34:21.554Z,48912,-0.11330556,-0.28381285,-0.3546874
1732440861556,2024-11-24T09:34:21.556Z,48914,-0.11330556,-0.28381285,-0.3546874
1732440861565,2024-11-24T09:34:21.565Z,48923,-0.16528349,-0.2820483,-0.35525846
1732440861568,2024-11-24T09:34:21.568Z,48926,-0.16528349,-0.2820483,-0.35525846
1732440861575,2024-11-24T09:34:21.575Z,48933,-0.1498722,-0.29142168,-0.35082006
1732440861577,2024-11-24T09:34:21.577Z,48935,-0.1498722,-0.29142168,-0.35082006
1732440861597,2024-11-24T09:34:21.597Z,48955,-0.100134395,-0.27182817,-0.331248
1732440861599,2024-11-24T09:34:21.599Z,48957,-0.100134395,-0.27182817,-0.331248
1732440861607,2024-11-24T09:34:21.607Z,48965,-0.13682897,-0.279968,-0.3987052
1732440861610,2024-11-24T09:34:21.610Z,48968,-0.13682897,-0.279968,-0.3987052
1732440861617,2024-11-24T09:34:21.617Z,48975,-0.063771255,-0.2796011,-0.4172239
1732440861620,2024-11-24T09:34:21.620Z,48978,-0.063771255,-0.2796011,-0.4172239
1732440861644,2024-11-24T09:34:21.644Z,49002,-0.10175683,-0.26044503,-0.37602416
1732440861647,2024-11-24T09:34:21.647Z,49005,-0.10175683,-0.26044503,-0.37602416
1732440861656,2024-11-24T09:34:21.656Z,49014,-0.11367221,-0.25643906,-0.31694725
1732440861659,2024-11-24T09:34:21.659Z,49017,-0.11367221,-0.25643906,-0.31694725
1732440861668,2024-11-24T09:34:21.668Z,49026,-0.102286704,-0.26233768,-0.3277655
1732440861671,2024-11-24T09:34:21.671Z,49029,-0.102286704,-0.26233768,-0.3277655
1732440861686,2024-11-24T09:34:21.686Z,49044,-0.12257118,-0.313282,-0.30597377
1732440861689,2024-11-24T09:34:21.689Z,49047,-0.12257118,-0.313282,-0.30597377
1732440861698,2024-11-24T09:34:21.698Z,49056,-0.07656517,-0.330847,-0.33437264
1732440861701,2024-11-24T09:34:21.701Z,49059,-0.07656517,-0.330847,-0.33437264
1732440861709,2024-11-24T09:34:21.709Z,49067,-0.032581862,-0.3126007,-0.40673235
1732440861712,2024-11-24T09:34:21.712Z,49070,-0.032581862,-0.3126007,-0.40673235
1732440861731,2024-11-24T09:34:21.731Z,49089,-0.08619987,-0.30869222,-0.38910326
1732440861734,2024-11-24T09:34:21.734Z,49092,-0.08619987,-0.30869222,-0.38910326
1732440861742,2024-11-24T09:34:21.742Z,49100,-0.10029079,-0.30811766,-0.32947263
1732440861745,2024-11-24T09:34:21.745Z,49103,-0.10029079,-0.30811766,-0.32947263
1732440861753,2024-11-24T09:34:21.753Z,49111,-0.15110902,-0.2923886,-0.27998686
1732440861756,2024-11-24T09:34:21.756Z,49114,-0.15110902,-0.2923886,-0.27998686
1732440861777,2024-11-24T09:34:21.777Z,49135,-0.070246935,-0.2763778,-0.33601502
1732440861780,2024-11-24T09:34:21.780Z,49138,-0.070246935,-0.2763778,-0.33601502
1732440861789,2024-11-24T09:34:21.789Z,49147,-0.023885557,-0.26460713,-0.35044897
1732440861792,2024-11-24T09:34:21.792Z,49150,-0.023885557,-0.26460713,-0.35044897
1732440861801,2024-11-24T09:34:21.801Z,49159,0.002737426,-0.2547795,-0.3696897
1732440861804,2024-11-24T09:34:21.804Z,49162,0.002737426,-0.2547795,-0.3696897
1732440861821,2024-11-24T09:34:21.821Z,49179,-0.06794003,-0.22086853,-0.35339564
1732440861824,2024-11-24T09:34:21.824Z,49182,-0.06794003,-0.22086853,-0.35339564
1732440861833,2024-11-24T09:34:21.833Z,49191,-0.06463674,-0.2137161,-0.35673818
1732440861836,2024-11-24T09:34:21.836Z,49194,-0.06463674,-0.2137161,-0.35673818
1732440861844,2024-11-24T09:34:21.844Z,49202,-0.07394633,-0.22255495,-0.36428013
1732440861846,2024-11-24T09:34:21.846Z,49204,-0.07394633,-0.22255495,-0.36428013
1732440861868,2024-11-24T09:34:21.868Z,49226,-0.042398326,-0.2146225,-0.36336538
1732440861871,2024-11-24T09:34:21.871Z,49229,-0.042398326,-0.2146225,-0.36336538
1732440861879,2024-11-24T09:34:21.879Z,49237,-0.05885105,-0.20845708,-0.3616581
1732440861882,2024-11-24T09:34:21.882Z,49240,-0.05885105,-0.20845708,-0.3616581
1732440861890,2024-11-24T09:34:21.890Z,49248,-0.068274096,-0.19662417,-0.40067416
1732440861892,2024-11-24T09:34:21.892Z,49250,-0.068274096,-0.19662417,-0.40067416
1732440861912,2024-11-24T09:34:21.912Z,49270,-0.032160524,-0.16503978,-0.38812
1732440861914,2024-11-24T09:34:21.914Z,49272,-0.032160524,-0.16503978,-0.38812
1732440861923,2024-11-24T09:34:21.923Z,49281,0.0035333377,-0.15568742,-0.35821497
1732440861926,2024-11-24T09:34:21.926Z,49284,0.0035333377,-0.15568742,-0.35821497
1732440861935,2024-11-24T09:34:21.935Z,49293,-0.029150719,-0.14180292,-0.36966118
1732440861938,2024-11-24T09:34:21.938Z,49296,-0.029150719,-0.14180292,-0.36966118
1732440861958,2024-11-24T09:34:21.958Z,49316,-0.036753207,-0.15154023,-0.43478248
1732440861960,2024-11-24T09:34:21.960Z,49318,-0.036753207,-0.15154023,-0.43478248
1732440861970,2024-11-24T09:34:21.970Z,49328,-0.019148828,-0.14598861,-0.44454798
1732440861973,2024-11-24T09:34:21.973Z,49331,-0.019148828,-0.14598861,-0.44454798
1732440861982,2024-11-24T09:34:21.982Z,49340,0.008186993,-0.15741482,-0.42876402
1732440861985,2024-11-24T09:34:21.985Z,49343,0.008186993,-0.15741482,-0.42876402
1732440862048,2024-11-24T09:34:22.048Z,49406,-0.12595052,-0.14912076,-0.38658804
1732440862051,2024-11-24T09:34:22.051Z,49409,-0.12595052,-0.14912076,-0.38658804
1732440862062,2024-11-24T09:34:22.062Z,49420,-0.12100768,-0.16058277,-0.4444237
1732440862065,2024-11-24T09:34:22.065Z,49423,-0.12100768,-0.16058277,-0.4444237
1732440862075,2024-11-24T09:34:22.075Z,49433,-0.076609075,-0.16286153,-0.42379665
1732440862080,2024-11-24T09:34:22.080Z,49438,-0.076609075,-0.16286153,-0.42379665
1732440862091,2024-11-24T09:34:22.091Z,49449,-0.068482324,-0.16355515,-0.46967676
1732440862094,2024-11-24T09:34:22.094Z,49452,-0.068482324,-0.16355515,-0.46967676
1732440862106,2024-11-24T09:34:22.106Z,49464,-0.07710985,-0.1637689,-0.45530647
1732440862110,2024-11-24T09:34:22.110Z,49468,-0.07710985,-0.1637689,-0.45530647
1732440862121,2024-11-24T09:34:22.121Z,49479,-0.049019556,-0.15993787,-0.48074126
1732440862125,2024-11-24T09:34:22.125Z,49483,-0.049019556,-0.15993787,-0.48074126
1732440862150,2024-11-24T09:34:22.150Z,49508,-0.10241497,-0.13903171,-0.45325226
1732440862155,2024-11-24T09:34:22.155Z,49513,-0.10241497,-0.13903171,-0.45325226
1732440862171,2024-11-24T09:34:22.171Z,49529,-0.02845028,-0.09879269,-0.4249108
1732440862175,2024-11-24T09:34:22.175Z,49533,-0.02845028,-0.09879269,-0.4249108
1732440862192,2024-11-24T09:34:22.192Z,49550,0.018650021,-0.10232356,-0.43705404
1732440862196,2024-11-24T09:34:22.196Z,49554,0.018650021,-0.10232356,-0.43705404
1732440862207,2024-11-24T09:34:22.207Z,49565,0.016623573,-0.10201373,-0.42135972
1732440862209,2024-11-24T09:34:22.209Z,49567,0.016623573,-0.10201373,-0.42135972
1732440862219,2024-11-24T09:34:22.219Z,49577,-0.056925725,-0.0691934,-0.3724089
1732440862221,2024-11-24T09:34:22.221Z,49579,-0.056925725,-0.0691934,-0.3724089
1732440862230,2024-11-24T09:34:22.230Z,49588,-0.05185552,-0.07405997,-0.3936007
1732440862232,2024-11-24T09:34:22.232Z,49590,-0.05185552,-0.07405997,-0.3936007
1732440862240,2024-11-24T09:34:22.240Z,49598,-0.031693928,-0.076602414,-0.3786216
1732440862242,2024-11-24T09:34:22.242Z,49600,-0.031693928,-0.076602414,-0.3786216
1732440862249,2024-11-24T09:34:22.249Z,49607,0.007698591,-0.033105455,-0.37390912
1732440862252,2024-11-24T09:34:22.252Z,49610,0.007698591,-0.033105455,-0.37390912
1732440862258,2024-11-24T09:34:22.258Z,49616,0.045635264,-0.011989574,-0.42114192
1732440862261,2024-11-24T09:34:22.261Z,49619,0.045635264,-0.011989574,-0.42114192
1732440862269,2024-11-24T09:34:22.269Z,49627,0.04301828,-0.0054732957,-0.40723482
1732440862271,2024-11-24T09:34:22.271Z,49629,0.04301828,-0.0054732957,-0.40723482
1732440862278,2024-11-24T09:34:22.278Z,49636,0.07762371,0.021181233,-0.3735496
1732440862281,2024-11-24T09:34:22.281Z,49639,0.07762371,0.021181233,-0.3735496
1732440862288,2024-11-24T09:34:22.288Z,49646,0.047338776,0.028664153,-0.3415608
1732440862290,2024-11-24T09:34:22.290Z,49648,0.047338776,0.028664153,-0.3415608
1732440862319,2024-11-24T09:34:22.319Z,49677,0.044882275,0.040535815,-0.33200958
1732440862325,2024-11-24T09:34:22.325Z,49683,0.044882275,0.040535815,-0.33200958
1732440862348,2024-11-24T09:34:22.348Z,49706,0.07032054,0.07260762,-0.37854734
1732440862354,2024-11-24T09:34:22.354Z,49712,0.07032054,0.07260762,-0.37854734
1732440862374,2024-11-24T09:34:22.374Z,49732,0.05830472,0.07528622,-0.40334558
1732440862380,2024-11-24T09:34:22.380Z,49738,0.05830472,0.07528622,-0.40334558
1732440862397,2024-11-24T09:34:22.397Z,49755,0.057796482,0.08242721,-0.4007592
1732440862401,2024-11-24T09:34:22.401Z,49759,0.057796482,0.08242721,-0.4007592
1732440862413,2024-11-24T09:34:22.413Z,49771,0.007028797,0.08253943,-0.3930103
1732440862417,2024-11-24T09:34:22.417Z,49775,0.007028797,0.08253943,-0.3930103
1732440862428,2024-11-24T09:34:22.428Z,49786,0.05296993,0.08082545,-0.39282572
1732440862432,2024-11-24T09:34:22.432Z,49790,0.05296993,0.08082545,-0.39282572
1732440862443,2024-11-24T09:34:22.443Z,49801,0.051412437,0.081574835,-0.3672522
1732440862446,2024-11-24T09:34:22.446Z,49804,0.051412437,0.081574835,-0.3672522
1732440862457,2024-11-24T09:34:22.457Z,49815,0.0551979,0.09407428,-0.3754797
1732440862460,2024-11-24T09:34:22.460Z,49818,0.0551979,0.09407428,-0.3754797
1732440862471,2024-11-24T09:34:22.471Z,49829,0.06658857,0.09315937,-0.39683172
1732440862474,2024-11-24T09:34:22.474Z,49832,0.06658857,0.09315937,-0.39683172
1732440862483,2024-11-24T09:34:22.483Z,49841,0.042966083,0.103847094,-0.3952531
1732440862485,2024-11-24T09:34:22.485Z,49843,0.042966083,0.103847094,-0.3952531
1732440862494,2024-11-24T09:34:22.494Z,49852,0.029229721,0.123809375,-0.3909797
1732440862497,2024-11-24T09:34:22.497Z,49855,0.029229721,0.123809375,-0.3909797
1732440862505,2024-11-24T09:34:22.505Z,49863,0.059789717,0.13255067,-0.41172773
1732440862507,2024-11-24T09:34:22.507Z,49865,0.059789717,0.13255067,-0.41172773
1732440862514,2024-11-24T09:34:22.514Z,49872,0.07744108,0.13144206,-0.4255755
1732440862516,2024-11-24T09:34:22.516Z,49874,0.07744108,0.13144206,-0.4255755
1732440862527,2024-11-24T09:34:22.527Z,49885,0.09737825,0.14917916,-0.38237774
1732440862530,2024-11-24T09:34:22.530Z,49888,0.09737825,0.14917916,-0.38237774
1732440862540,2024-11-24T09:34:22.540Z,49898,0.10464387,0.15135752,-0.3903527
1732440862546,2024-11-24T09:34:22.546Z,49904,0.10464387,0.15135752,-0.3903527
1732440862559,2024-11-24T09:34:22.559Z,49917,0.096291505,0.13837533,-0.39932203
1732440862563,2024-11-24T09:34:22.563Z,49921,0.096291505,0.13837533,-0.39932203
1732440862571,2024-11-24T09:34:22.571Z,49929,0.0886835,0.14172104,-0.4006176
1732440862575,2024-11-24T09:34:22.575Z,49933,0.0886835,0.14172104,-0.4006176
1732440862583,2024-11-24T09:34:22.583Z,49941,0.07560614,0.13711636,-0.41389
1732440862586,2024-11-24T09:34:22.586Z,49944,0.07560614,0.13711636,-0.41389
1732440862594,2024-11-24T09:34:22.594Z,49952,0.06875202,0.12368762,-0.4414633
1732440862597,2024-11-24T09:34:22.597Z,49955,0.06875202,0.12368762,-0.4414633
1732440862608,2024-11-24T09:34:22.608Z,49966,0.017560676,0.104745366,-0.38625404
1732440862614,2024-11-24T09:34:22.614Z,49972,0.017560676,0.104745366,-0.38625404
1732440862630,2024-11-24T09:34:22.630Z,49988,0.03241349,0.09377592,-0.3831562
1732440862637,2024-11-24T09:34:22.637Z,49995,0.03241349,0.09377592,-0.3831562
1732440862655,2024-11-24T09:34:22.655Z,50013,0.010310665,0.07485492,-0.40558535
1732440862659,2024-11-24T09:34:22.659Z,50017,0.010310665,0.07485492,-0.40558535
1732440862671,2024-11-24T09:34:22.671Z,50029,0.017822856,0.019618267,-0.4271362
1732440862675,2024-11-24T09:34:22.675Z,50033,0.017822856,0.019618267,-0.4271362
1732440862686,2024-11-24T09:34:22.686Z,50044,-0.013620466,0.019774837,-0.3614861
1732440862688,2024-11-24T09:34:22.688Z,50046,-0.013620466,0.019774837,-0.3614861
1732440862696,2024-11-24T09:34:22.696Z,50054,-0.021097504,-1.192257E-4,-0.34463257
1732440862699,2024-11-24T09:34:22.699Z,50057,-0.021097504,-1.192257E-4,-0.34463257
1732440862706,2024-11-24T09:34:22.706Z,50064,-0.09653421,-0.02299675,-0.40683797
1732440862709,2024-11-24T09:34:22.709Z,50067,-0.09653421,-0.02299675,-0.40683797
1732440862734,2024-11-24T09:34:22.734Z,50092,-0.043361735,-0.051381703,-0.45223445
1732440862738,2024-11-24T09:34:22.738Z,50096,-0.043361735,-0.051381703,-0.45223445
1732440862748,2024-11-24T09:34:22.748Z,50106,-0.05782325,-0.06314702,-0.4617143
1732440862752,2024-11-24T09:34:22.752Z,50110,-0.05782325,-0.06314702,-0.4617143
1732440862760,2024-11-24T09:34:22.760Z,50118,-0.045068115,-0.06148263,-0.40498078
1732440862765,2024-11-24T09:34:22.765Z,50123,-0.045068115,-0.06148263,-0.40498078
1732440862778,2024-11-24T09:34:22.778Z,50136,-0.05995781,-0.056351162,-0.41505542
1732440862783,2024-11-24T09:34:22.783Z,50141,-0.05995781,-0.056351162,-0.41505542
1732440862797,2024-11-24T09:34:22.797Z,50155,-0.07819409,-0.05096276,-0.41081107
1732440862802,2024-11-24T09:34:22.802Z,50160,-0.07819409,-0.05096276,-0.41081107
1732440862822,2024-11-24T09:34:22.822Z,50180,-0.025985027,-0.043218248,-0.35814217
1732440862827,2024-11-24T09:34:22.827Z,50185,-0.025985027,-0.043218248,-0.35814217
1732440862845,2024-11-24T09:34:22.845Z,50203,0.02441433,-0.039158445,-0.34498546
1732440862850,2024-11-24T09:34:22.850Z,50208,0.02441433,-0.039158445,-0.34498546
1732440862872,2024-11-24T09:34:22.872Z,50230,0.035554543,-0.0354783,-0.34984487
1732440862877,2024-11-24T09:34:22.877Z,50235,0.035554543,-0.0354783,-0.34984487
1732440862891,2024-11-24T09:34:22.891Z,50249,0.010821604,-0.028342554,-0.31760162
1732440862893,2024-11-24T09:34:22.893Z,50251,0.010821604,-0.028342554,-0.31760162
1732440862902,2024-11-24T09:34:22.902Z,50260,-0.027223209,-0.015801296,-0.32558718
1732440862904,2024-11-24T09:34:22.904Z,50262,-0.027223209,-0.015801296,-0.32558718
1732440862911,2024-11-24T09:34:22.911Z,50269,-0.030808441,-0.021327687,-0.3372045
1732440862913,2024-11-24T09:34:22.913Z,50271,-0.030808441,-0.021327687,-0.3372045
1732440862921,2024-11-24T09:34:22.921Z,50279,0.039759535,-0.023478515,-0.32254693
1732440862923,2024-11-24T09:34:22.923Z,50281,0.039759535,-0.023478515,-0.32254693
1732440862930,2024-11-24T09:34:22.930Z,50288,0.034541927,-0.037042238,-0.32801428
1732440862932,2024-11-24T09:34:22.932Z,50290,0.034541927,-0.037042238,-0.32801428
1732440862942,2024-11-24T09:34:22.942Z,50300,-0.009788906,-0.031014534,-0.30604154
1732440862948,2024-11-24T09:34:22.948Z,50306,-0.009788906,-0.031014534,-0.30604154
1732440862963,2024-11-24T09:34:22.963Z,50321,-0.06778861,-0.03396036,-0.2863259
1732440862967,2024-11-24T09:34:22.967Z,50325,-0.06778861,-0.03396036,-0.2863259
1732440862985,2024-11-24T09:34:22.985Z,50343,-0.06272789,-0.039118767,-0.30424285
1732440862991,2024-11-24T09:34:22.991Z,50349,-0.06272789,-0.039118767,-0.30424285
1732440863009,2024-11-24T09:34:23.009Z,50367,-0.049942683,-0.04774425,-0.31896004
1732440863015,2024-11-24T09:34:23.015Z,50373,-0.049942683,-0.04774425,-0.31896004
1732440863035,2024-11-24T09:34:23.035Z,50393,0.008776023,-0.06774373,-0.32226306
1732440863041,2024-11-24T09:34:23.041Z,50399,0.008776023,-0.06774373,-0.32226306
1732440863061,2024-11-24T09:34:23.061Z,50419,-0.032434642,-0.05810065,-0.2943128
1732440863067,2024-11-24T09:34:23.067Z,50425,-0.032434642,-0.05810065,-0.2943128
1732440863079,2024-11-24T09:34:23.079Z,50437,-0.030634051,-0.05385384,-0.2976209
1732440863083,2024-11-24T09:34:23.083Z,50441,-0.030634051,-0.05385384,-0.2976209
1732440863098,2024-11-24T09:34:23.098Z,50456,-0.058183115,-0.063864425,-0.3246987
1732440863105,2024-11-24T09:34:23.105Z,50463,-0.058183115,-0.063864425,-0.3246987
1732440863126,2024-11-24T09:34:23.126Z,50484,-0.04557244,-0.05801439,-0.32875562
1732440863132,2024-11-24T09:34:23.132Z,50490,-0.04557244,-0.05801439,-0.32875562
1732440863151,2024-11-24T09:34:23.151Z,50509,-0.025906403,-0.05564135,-0.3161235
1732440863156,2024-11-24T09:34:23.156Z,50514,-0.025906403,-0.05564135,-0.3161235
1732440863174,2024-11-24T09:34:23.174Z,50532,0.011151882,-0.056123894,-0.32935488
1732440863180,2024-11-24T09:34:23.180Z,50538,0.011151882,-0.056123894,-0.32935488
1732440863198,2024-11-24T09:34:23.198Z,50556,0.030304648,-0.054640964,-0.33314982
1732440863203,2024-11-24T09:34:23.203Z,50561,0.030304648,-0.054640964,-0.33314982
1732440863218,2024-11-24T09:34:23.218Z,50576,4.9314316E-4,-0.046250526,-0.34178564
1732440863222,2024-11-24T09:34:23.222Z,50580,4.9314316E-4,-0.046250526,-0.34178564
1732440863234,2024-11-24T09:34:23.234Z,50592,-0.005921073,-0.042099606,-0.34762716
1732440863239,2024-11-24T09:34:23.239Z,50597,-0.005921073,-0.042099606,-0.34762716
1732440863258,2024-11-24T09:34:23.258Z,50616,-0.012777401,-0.05210299,-0.31557128
1732440863264,2024-11-24T09:34:23.264Z,50622,-0.012777401,-0.05210299,-0.31557128
1732440863285,2024-11-24T09:34:23.285Z,50643,-0.012801251,-0.046221353,-0.28187197
1732440863292,2024-11-24T09:34:23.292Z,50650,-0.012801251,-0.046221353,-0.28187197
1732440863312,2024-11-24T09:34:23.312Z,50670,-0.01915053,-0.04054131,-0.2903806
1732440863319,2024-11-24T09:34:23.319Z,50677,-0.01915053,-0.04054131,-0.2903806
1732440863339,2024-11-24T09:34:23.339Z,50697,0.010577075,-0.04969329,-0.31016576
1732440863345,2024-11-24T09:34:23.345Z,50703,0.010577075,-0.04969329,-0.31016576
1732440863363,2024-11-24T09:34:23.363Z,50721,0.01254233,-0.053516,-0.33047363
1732440863369,2024-11-24T09:34:23.369Z,50727,0.01254233,-0.053516,-0.33047363
1732440863386,2024-11-24T09:34:23.386Z,50744,0.022564532,-0.05717942,-0.33207
1732440863392,2024-11-24T09:34:23.392Z,50750,0.022564532,-0.05717942,-0.33207
1732440863406,2024-11-24T09:34:23.406Z,50764,-2.8607846E-4,-0.04113102,-0.26498145
1732440863409,2024-11-24T09:34:23.409Z,50767,-2.8607846E-4,-0.04113102,-0.26498145
1732440863421,2024-11-24T09:34:23.421Z,50779,-0.03144342,-0.03799828,-0.27951717
1732440863425,2024-11-24T09:34:23.425Z,50783,-0.03144342,-0.03799828,-0.27951717
1732440863435,2024-11-24T09:34:23.435Z,50793,-0.036559038,-0.051676366,-0.31688702
1732440863439,2024-11-24T09:34:23.439Z,50797,-0.036559038,-0.051676366,-0.31688702
1732440863448,2024-11-24T09:34:23.448Z,50806,-9.620473E-4,-0.058777977,-0.34521368
1732440863451,2024-11-24T09:34:23.451Z,50809,-9.620473E-4,-0.058777977,-0.34521368
1732440863459,2024-11-24T09:34:23.459Z,50817,-8.1391475E-4,-0.061701242,-0.3272121
1732440863461,2024-11-24T09:34:23.461Z,50819,-8.1391475E-4,-0.061701242,-0.3272121
1732440863470,2024-11-24T09:34:23.470Z,50828,0.0061374004,-0.06011494,-0.30405757
1732440863472,2024-11-24T09:34:23.472Z,50830,0.0061374004,-0.06011494,-0.30405757
1732440863480,2024-11-24T09:34:23.480Z,50838,-0.040458817,-0.0501877,-0.2715697
1732440863482,2024-11-24T09:34:23.482Z,50840,-0.040458817,-0.0501877,-0.2715697
1732440863493,2024-11-24T09:34:23.493Z,50851,-0.03441983,-0.057575025,-0.2847537
1732440863499,2024-11-24T09:34:23.499Z,50857,-0.03441983,-0.057575025,-0.2847537
1732440863515,2024-11-24T09:34:23.515Z,50873,-0.017818237,-0.06606776,-0.30185923
1732440863519,2024-11-24T09:34:23.519Z,50877,-0.017818237,-0.06606776,-0.30185923
1732440863534,2024-11-24T09:34:23.534Z,50892,0.007133728,-0.065462105,-0.31740826
1732440863539,2024-11-24T09:34:23.539Z,50897,0.007133728,-0.065462105,-0.31740826
1732440863548,2024-11-24T09:34:23.548Z,50906,0.024570875,-0.06699035,-0.32600063
1732440863551,2024-11-24T09:34:23.551Z,50909,0.024570875,-0.06699035,-0.32600063
1732440863561,2024-11-24T09:34:23.561Z,50919,0.005302529,-0.05767908,-0.32026652
1732440863564,2024-11-24T09:34:23.564Z,50922,0.005302529,-0.05767908,-0.32026652
1732440863578,2024-11-24T09:34:23.578Z,50936,-0.039084125,-0.05128932,-0.30055293
1732440863581,2024-11-24T09:34:23.581Z,50939,-0.039084125,-0.05128932,-0.30055293
1732440863588,2024-11-24T09:34:23.588Z,50946,-0.03018732,-0.053918608,-0.29553917
1732440863591,2024-11-24T09:34:23.591Z,50949,-0.03018732,-0.053918608,-0.29553917
1732440863597,2024-11-24T09:34:23.597Z,50955,0.0019575965,-0.05773597,-0.31029573
1732440863600,2024-11-24T09:34:23.600Z,50958,0.0019575965,-0.05773597,-0.31029573
1732440863614,2024-11-24T09:34:23.614Z,50972,0.04069987,-0.041166417,-0.30332673
1732440863621,2024-11-24T09:34:23.621Z,50979,0.04069987,-0.041166417,-0.30332673
1732440863637,2024-11-24T09:34:23.637Z,50995,0.00317453,-0.04041625,-0.3257877
1732440863643,2024-11-24T09:34:23.643Z,51001,0.00317453,-0.04041625,-0.3257877
1732440863659,2024-11-24T09:34:23.659Z,51017,-0.013429496,-0.028796993,-0.31966668
1732440863665,2024-11-24T09:34:23.665Z,51023,-0.013429496,-0.028796993,-0.31966668
1732440863683,2024-11-24T09:34:23.683Z,51041,-0.036278334,-0.025360258,-0.28468764
1732440863687,2024-11-24T09:34:23.687Z,51045,-0.036278334,-0.025360258,-0.28468764
1732440863696,2024-11-24T09:34:23.696Z,51054,-0.02020489,-0.024266416,-0.2905175
1732440863700,2024-11-24T09:34:23.700Z,51058,-0.02020489,-0.024266416,-0.2905175
1732440863710,2024-11-24T09:34:23.710Z,51068,-0.008967868,-0.020326717,-0.27943608
1732440863713,2024-11-24T09:34:23.713Z,51071,-0.008967868,-0.020326717,-0.27943608
1732440863722,2024-11-24T09:34:23.722Z,51080,0.009051015,0.0105227865,-0.26107514
1732440863725,2024-11-24T09:34:23.725Z,51083,0.009051015,0.0105227865,-0.26107514
1732440863733,2024-11-24T09:34:23.733Z,51091,0.02635255,0.020341791,-0.27478674
1732440863736,2024-11-24T09:34:23.736Z,51094,0.02635255,0.020341791,-0.27478674
1732440863743,2024-11-24T09:34:23.743Z,51101,0.04735322,0.01158123,-0.31664702
1732440863745,2024-11-24T09:34:23.745Z,51103,0.04735322,0.01158123,-0.31664702
1732440863753,2024-11-24T09:34:23.753Z,51111,0.012772369,0.019731756,-0.28488132
1732440863755,2024-11-24T09:34:23.755Z,51113,0.012772369,0.019731756,-0.28488132
1732440863762,2024-11-24T09:34:23.762Z,51120,0.008332257,0.027962705,-0.26431257
1732440863764,2024-11-24T09:34:23.764Z,51122,0.008332257,0.027962705,-0.26431257
1732440863771,2024-11-24T09:34:23.771Z,51129,0.0026168388,0.03569798,-0.25592348
1732440863773,2024-11-24T09:34:23.773Z,51131,0.0026168388,0.03569798,-0.25592348
1732440863780,2024-11-24T09:34:23.780Z,51138,-0.0028367888,0.037358973,-0.25393665
1732440863783,2024-11-24T09:34:23.783Z,51141,-0.0028367888,0.037358973,-0.25393665
1732440863790,2024-11-24T09:34:23.790Z,51148,0.035874367,0.038460206,-0.25617126
1732440863792,2024-11-24T09:34:23.792Z,51150,0.035874367,0.038460206,-0.25617126
1732440863802,2024-11-24T09:34:23.802Z,51160,0.04764428,0.040418677,-0.26321816
1732440863804,2024-11-24T09:34:23.804Z,51162,0.04764428,0.040418677,-0.26321816
1732440863811,2024-11-24T09:34:23.811Z,51169,0.012804485,0.054871343,-0.23124322
1732440863814,2024-11-24T09:34:23.814Z,51172,0.012804485,0.054871343,-0.23124322
1732440863821,2024-11-24T09:34:23.821Z,51179,0.010054441,0.040996622,-0.24694593
1732440863824,2024-11-24T09:34:23.824Z,51182,0.010054441,0.040996622,-0.24694593
1732440863831,2024-11-24T09:34:23.831Z,51189,-0.0035184952,0.03502435,-0.27222246
1732440863834,2024-11-24T09:34:23.834Z,51192,-0.0035184952,0.03502435,-0.27222246
1732440863841,2024-11-24T09:34:23.841Z,51199,0.016653404,0.040522248,-0.2528091
1732440863843,2024-11-24T09:34:23.843Z,51201,0.016653404,0.040522248,-0.2528091
1732440863851,2024-11-24T09:34:23.851Z,51209,0.0041658734,0.043773726,-0.25939456
1732440863854,2024-11-24T09:34:23.854Z,51212,0.0041658734,0.043773726,-0.25939456
1732440863860,2024-11-24T09:34:23.860Z,51218,0.0022256111,0.032038454,-0.2660741
1732440863862,2024-11-24T09:34:23.862Z,51220,0.0022256111,0.032038454,-0.2660741
1732440863869,2024-11-24T09:34:23.869Z,51227,-0.071163006,0.031093886,-0.22129165
1732440863871,2024-11-24T09:34:23.871Z,51229,-0.071163006,0.031093886,-0.22129165
1732440863877,2024-11-24T09:34:23.877Z,51235,-0.060484335,0.03603067,-0.20483485
1732440863880,2024-11-24T09:34:23.880Z,51238,-0.060484335,0.03603067,-0.20483485
1732440863887,2024-11-24T09:34:23.887Z,51245,-0.014476027,0.03402892,-0.20946677
1732440863889,2024-11-24T09:34:23.889Z,51247,-0.014476027,0.03402892,-0.20946677
1732440863896,2024-11-24T09:34:23.896Z,51254,0.069847465,0.025858654,-0.24135086
1732440863898,2024-11-24T09:34:23.898Z,51256,0.069847465,0.025858654,-0.24135086
1732440863905,2024-11-24T09:34:23.905Z,51263,0.053170335,0.025241228,-0.22686373
1732440863907,2024-11-24T09:34:23.907Z,51265,0.053170335,0.025241228,-0.22686373
1732440863912,2024-11-24T09:34:23.912Z,51270,-0.0048108203,0.018416675,-0.22246268
1732440863914,2024-11-24T09:34:23.914Z,51272,-0.0048108203,0.018416675,-0.22246268
1732440863921,2024-11-24T09:34:23.921Z,51279,-0.027097274,-0.002349116,-0.24664207
1732440863924,2024-11-24T09:34:23.924Z,51282,-0.027097274,-0.002349116,-0.24664207
1732440863932,2024-11-24T09:34:23.932Z,51290,-0.005759131,-0.0018390515,-0.24766168
1732440863935,2024-11-24T09:34:23.935Z,51293,-0.005759131,-0.0018390515,-0.24766168
1732440863942,2024-11-24T09:34:23.942Z,51300,-0.038120836,0.0023355011,-0.24058312
1732440863944,2024-11-24T09:34:23.944Z,51302,-0.038120836,0.0023355011,-0.24058312
1732440863955,2024-11-24T09:34:23.955Z,51313,-0.078228615,-3.9618718E-4,-0.26286674
1732440863960,2024-11-24T09:34:23.960Z,51318,-0.078228615,-3.9618718E-4,-0.26286674
1732440863975,2024-11-24T09:34:23.975Z,51333,0.011302178,-0.0031874883,-0.2626966
1732440863980,2024-11-24T09:34:23.980Z,51338,0.011302178,-0.0031874883,-0.2626966
1732440863993,2024-11-24T09:34:23.993Z,51351,0.034307048,0.0029735435,-0.24946359
1732440863996,2024-11-24T09:34:23.996Z,51354,0.034307048,0.0029735435,-0.24946359
1732440864005,2024-11-24T09:34:24.005Z,51363,-0.04374963,0.022565845,-0.2356722
1732440864009,2024-11-24T09:34:24.009Z,51367,-0.04374963,0.022565845,-0.2356722
1732440864017,2024-11-24T09:34:24.017Z,51375,-0.066725865,0.028163813,-0.25691906
1732440864020,2024-11-24T09:34:24.020Z,51378,-0.066725865,0.028163813,-0.25691906
1732440864027,2024-11-24T09:34:24.027Z,51385,-0.07457524,0.024235394,-0.26189902
1732440864029,2024-11-24T09:34:24.029Z,51387,-0.07457524,0.024235394,-0.26189902
1732440864039,2024-11-24T09:34:24.039Z,51397,0.04703991,0.027187835,-0.2545159
1732440864044,2024-11-24T09:34:24.044Z,51402,0.04703991,0.027187835,-0.2545159
1732440864064,2024-11-24T09:34:24.064Z,51422,0.06593998,0.029484048,-0.28098908
1732440864072,2024-11-24T09:34:24.072Z,51430,0.06593998,0.029484048,-0.28098908
1732440864089,2024-11-24T09:34:24.089Z,51447,0.09180518,0.020700246,-0.2736619
1732440864094,2024-11-24T09:34:24.094Z,51452,0.09180518,0.020700246,-0.2736619
1732440864105,2024-11-24T09:34:24.105Z,51463,0.0029849943,0.05910852,-0.23949012
1732440864108,2024-11-24T09:34:24.108Z,51466,0.0029849943,0.05910852,-0.23949012
1732440864116,2024-11-24T09:34:24.116Z,51474,-0.035160154,0.06463268,-0.24989098
1732440864119,2024-11-24T09:34:24.119Z,51477,-0.035160154,0.06463268,-0.24989098
1732440864127,2024-11-24T09:34:24.127Z,51485,-0.0088293385,0.057837885,-0.23866226
1732440864130,2024-11-24T09:34:24.130Z,51488,-0.0088293385,0.057837885,-0.23866226
1732440864136,2024-11-24T09:34:24.136Z,51494,0.04449394,0.013622071,-0.27919367
1732440864138,2024-11-24T09:34:24.138Z,51496,0.04449394,0.013622071,-0.27919367
1732440864147,2024-11-24T09:34:24.147Z,51505,0.027327312,-0.0019268662,-0.26151624
1732440864153,2024-11-24T09:34:24.153Z,51511,0.027327312,-0.0019268662,-0.26151624
1732440864171,2024-11-24T09:34:24.171Z,51529,0.03761877,1.1660001E-4,-0.2714864
1732440864176,2024-11-24T09:34:24.176Z,51534,0.03761877,1.1660001E-4,-0.2714864
1732440864192,2024-11-24T09:34:24.192Z,51550,0.022207197,0.01713602,-0.25975272
1732440864197,2024-11-24T09:34:24.197Z,51555,0.022207197,0.01713602,-0.25975272
1732440864211,2024-11-24T09:34:24.211Z,51569,0.009957023,0.013026915,-0.25745073
1732440864214,2024-11-24T09:34:24.214Z,51572,0.009957023,0.013026915,-0.25745073
1732440864225,2024-11-24T09:34:24.225Z,51583,0.02647676,0.0075348504,-0.25611034
1732440864228,2024-11-24T09:34:24.228Z,51586,0.02647676,0.0075348504,-0.25611034
1732440864238,2024-11-24T09:34:24.238Z,51596,0.001525914,0.013687324,-0.22063605
1732440864242,2024-11-24T09:34:24.242Z,51600,0.001525914,0.013687324,-0.22063605
1732440864251,2024-11-24T09:34:24.251Z,51609,-0.022677777,0.023600075,-0.19668795
1732440864254,2024-11-24T09:34:24.254Z,51612,-0.022677777,0.023600075,-0.19668795
1732440864262,2024-11-24T09:34:24.262Z,51620,-0.03868531,0.03666229,-0.20089474
1732440864264,2024-11-24T09:34:24.264Z,51622,-0.03868531,0.03666229,-0.20089474
1732440864273,2024-11-24T09:34:24.273Z,51631,-0.026616966,0.034843855,-0.22659364
1732440864275,2024-11-24T09:34:24.275Z,51633,-0.026616966,0.034843855,-0.22659364
1732440864283,2024-11-24T09:34:24.283Z,51641,-0.031759888,0.04586348,-0.2226429
1732440864285,2024-11-24T09:34:24.285Z,51643,-0.031759888,0.04586348,-0.2226429
1732440864292,2024-11-24T09:34:24.292Z,51650,-0.014806426,0.046674136,-0.24039268
1732440864295,2024-11-24T09:34:24.295Z,51653,-0.014806426,0.046674136,-0.24039268
1732440864302,2024-11-24T09:34:24.302Z,51660,-0.011306554,0.056347758,-0.19241829
1732440864305,2024-11-24T09:34:24.305Z,51663,-0.011306554,0.056347758,-0.19241829
1732440864312,2024-11-24T09:34:24.312Z,51670,-0.024561346,0.064358346,-0.18947446
1732440864314,2024-11-24T09:34:24.314Z,51672,-0.024561346,0.064358346,-0.18947446
1732440864321,2024-11-24T09:34:24.321Z,51679,-0.044858668,0.07083757,-0.18985967
1732440864323,2024-11-24T09:34:24.323Z,51681,-0.044858668,0.07083757,-0.18985967
1732440864332,2024-11-24T09:34:24.332Z,51690,0.015709931,0.061112408,-0.20719586
1732440864337,2024-11-24T09:34:24.337Z,51695,0.015709931,0.061112408,-0.20719586
1732440864352,2024-11-24T09:34:24.352Z,51710,0.040229287,0.03989082,-0.18993874
1732440864356,2024-11-24T09:34:24.356Z,51714,0.040229287,0.03989082,-0.18993874
1732440864372,2024-11-24T09:34:24.372Z,51730,0.0540125,0.054569095,-0.17260076
1732440864375,2024-11-24T09:34:24.375Z,51733,0.0540125,0.054569095,-0.17260076
1732440864391,2024-11-24T09:34:24.391Z,51749,0.03887317,0.06605123,-0.13114199
1732440864396,2024-11-24T09:34:24.396Z,51754,0.03887317,0.06605123,-0.13114199
1732440864413,2024-11-24T09:34:24.413Z,51771,0.0032411935,0.057794802,-0.14743325
1732440864419,2024-11-24T09:34:24.419Z,51777,0.0032411935,0.057794802,-0.14743325
1732440864436,2024-11-24T09:34:24.436Z,51794,-0.027714748,0.049950123,-0.15435663
1732440864441,2024-11-24T09:34:24.441Z,51799,-0.027714748,0.049950123,-0.15435663
1732440864458,2024-11-24T09:34:24.458Z,51816,0.09274694,0.01893588,-0.1705686
1732440864462,2024-11-24T09:34:24.462Z,51820,0.09274694,0.01893588,-0.1705686
1732440864478,2024-11-24T09:34:24.478Z,51836,0.009864687,0.012317201,-0.15962932
1732440864481,2024-11-24T09:34:24.481Z,51839,0.009864687,0.012317201,-0.15962932
1732440864492,2024-11-24T09:34:24.492Z,51850,-0.0020976819,0.0130632855,-0.1332243
1732440864495,2024-11-24T09:34:24.495Z,51853,-0.0020976819,0.0130632855,-0.1332243
1732440864505,2024-11-24T09:34:24.505Z,51863,-0.018761443,-0.015569068,-0.1708308
1732440864508,2024-11-24T09:34:24.508Z,51866,-0.018761443,-0.015569068,-0.1708308
1732440864517,2024-11-24T09:34:24.517Z,51875,0.020278288,-0.004650969,-0.16695419
1732440864521,2024-11-24T09:34:24.521Z,51879,0.020278288,-0.004650969,-0.16695419
1732440864530,2024-11-24T09:34:24.530Z,51888,0.07357556,-0.006280452,-0.16401525
1732440864533,2024-11-24T09:34:24.533Z,51891,0.07357556,-0.006280452,-0.16401525
1732440864542,2024-11-24T09:34:24.542Z,51900,0.020291489,0.02601386,-0.1535571
1732440864545,2024-11-24T09:34:24.545Z,51903,0.020291489,0.02601386,-0.1535571
1732440864557,2024-11-24T09:34:24.557Z,51915,-0.058327574,0.007543894,-0.13477129
1732440864562,2024-11-24T09:34:24.562Z,51920,-0.058327574,0.007543894,-0.13477129
1732440864578,2024-11-24T09:34:24.578Z,51936,-0.045180194,-0.0027611544,-0.13655403
1732440864584,2024-11-24T09:34:24.584Z,51942,-0.045180194,-0.0027611544,-0.13655403
1732440864603,2024-11-24T09:34:24.603Z,51961,-4.9943995E-4,-0.02136367,-0.15204737
1732440864609,2024-11-24T09:34:24.609Z,51967,-4.9943995E-4,-0.02136367,-0.15204737
