Timestamp (ms),ISO DateTime,Elapsed Time (ms),Acceleration X,Acceleration Y,Acceleration Z
1732439599616,2024-11-24T09:13:19.616Z,64879,-0.030666763,-0.29229727,-0.4996935
1732439599622,2024-11-24T09:13:19.622Z,64885,-0.030666763,-0.29229727,-0.4996935
1732439599646,2024-11-24T09:13:19.646Z,64909,-0.026583768,-0.27687284,-0.48380002
1732439599654,2024-11-24T09:13:19.654Z,64917,-0.026583768,-0.27687284,-0.48380002
1732439599675,2024-11-24T09:13:19.675Z,64938,-0.015798144,-0.26566154,-0.49027476
1732439599679,2024-11-24T09:13:19.679Z,64942,-0.015798144,-0.26566154,-0.49027476
1732439599693,2024-11-24T09:13:19.693Z,64956,-0.020655423,-0.26107103,-0.48686826
1732439599698,2024-11-24T09:13:19.698Z,64961,-0.020655423,-0.26107103,-0.48686826
1732439599711,2024-11-24T09:13:19.711Z,64974,-0.028825311,-0.25628293,-0.47311333
1732439599715,2024-11-24T09:13:19.715Z,64978,-0.028825311,-0.25628293,-0.47311333
1732439599729,2024-11-24T09:13:19.729Z,64992,-0.018425332,-0.24506949,-0.45451647
1732439599733,2024-11-24T09:13:19.733Z,64996,-0.018425332,-0.24506949,-0.45451647
1732439599747,2024-11-24T09:13:19.747Z,65010,-0.014278289,-0.23717667,-0.44621143
1732439599751,2024-11-24T09:13:19.751Z,65014,-0.014278289,-0.23717667,-0.44621143
1732439599763,2024-11-24T09:13:19.763Z,65026,-0.020813221,-0.22718821,-0.44475397
1732439599767,2024-11-24T09:13:19.767Z,65030,-0.020813221,-0.22718821,-0.44475397
1732439599780,2024-11-24T09:13:19.780Z,65043,-0.0284601,-0.21607383,-0.43697706
1732439599785,2024-11-24T09:13:19.785Z,65048,-0.0284601,-0.21607383,-0.43697706
1732439599798,2024-11-24T09:13:19.798Z,65061,-0.018176047,-0.20002489,-0.4186166
1732439599802,2024-11-24T09:13:19.802Z,65065,-0.018176047,-0.20002489,-0.4186166
1732439599815,2024-11-24T09:13:19.815Z,65078,-0.006379897,-0.19276126,-0.40390873
1732439599819,2024-11-24T09:13:19.819Z,65082,-0.006379897,-0.19276126,-0.40390873
1732439599831,2024-11-24T09:13:19.831Z,65094,-0.018236414,-0.19070087,-0.40927848
1732439599835,2024-11-24T09:13:19.835Z,65098,-0.018236414,-0.19070087,-0.40927848
1732439599849,2024-11-24T09:13:19.849Z,65112,-0.011184827,-0.18354452,-0.40687242
1732439599853,2024-11-24T09:13:19.853Z,65116,-0.011184827,-0.18354452,-0.40687242
1732439599864,2024-11-24T09:13:19.864Z,65127,-0.012171144,-0.17179246,-0.39770177
1732439599868,2024-11-24T09:13:19.868Z,65131,-0.012171144,-0.17179246,-0.39770177
1732439599881,2024-11-24T09:13:19.881Z,65144,0.0012453815,-0.15889888,-0.3881803
1732439599885,2024-11-24T09:13:19.885Z,65148,0.0012453815,-0.15889888,-0.3881803
1732439599897,2024-11-24T09:13:19.897Z,65160,-0.0052652466,-0.15120439,-0.37976396
1732439599900,2024-11-24T09:13:19.900Z,65163,-0.0052652466,-0.15120439,-0.37976396
1732439599913,2024-11-24T09:13:19.913Z,65176,-0.014556229,-0.14672619,-0.37096357
1732439599917,2024-11-24T09:13:19.917Z,65180,-0.014556229,-0.14672619,-0.37096357
1732439599936,2024-11-24T09:13:19.936Z,65199,2.1204256E-4,-0.12707923,-0.34863475
1732439599939,2024-11-24T09:13:19.939Z,65202,2.1204256E-4,-0.12707923,-0.34863475
1732439599951,2024-11-24T09:13:19.951Z,65214,-0.00400044,-0.123039655,-0.35550627
1732439599955,2024-11-24T09:13:19.955Z,65218,-0.00400044,-0.123039655,-0.35550627
1732439599966,2024-11-24T09:13:19.966Z,65229,-0.0064721606,-0.10945435,-0.31750816
1732439599970,2024-11-24T09:13:19.970Z,65233,-0.0064721606,-0.10945435,-0.31750816
1732439599981,2024-11-24T09:13:19.981Z,65244,6.743217E-5,-0.10555792,-0.29847074
1732439599985,2024-11-24T09:13:19.985Z,65248,6.743217E-5,-0.10555792,-0.29847074
1732439599997,2024-11-24T09:13:19.997Z,65260,0.0030147915,-0.09952059,-0.28853762
1732439600001,2024-11-24T09:13:20.001Z,65264,0.0030147915,-0.09952059,-0.28853762
1732439600014,2024-11-24T09:13:20.014Z,65277,-0.0044136695,-0.097761475,-0.29050845
1732439600017,2024-11-24T09:13:20.017Z,65280,-0.0044136695,-0.097761475,-0.29050845
1732439600030,2024-11-24T09:13:20.030Z,65293,-0.002855822,-0.087009765,-0.26896048
1732439600034,2024-11-24T09:13:20.034Z,65297,-0.002855822,-0.087009765,-0.26896048
1732439600046,2024-11-24T09:13:20.046Z,65309,0.0013759033,-0.07991078,-0.2628327
1732439600050,2024-11-24T09:13:20.050Z,65313,0.0013759033,-0.07991078,-0.2628327
1732439600063,2024-11-24T09:13:20.063Z,65326,0.0064734886,-0.07023512,-0.24914612
1732439600067,2024-11-24T09:13:20.067Z,65330,0.0064734886,-0.07023512,-0.24914612
1732439600084,2024-11-24T09:13:20.084Z,65347,0.008559911,-0.07009022,-0.25336036
1732439600088,2024-11-24T09:13:20.088Z,65351,0.008559911,-0.07009022,-0.25336036
1732439600100,2024-11-24T09:13:20.100Z,65363,-0.004694439,-0.0642434,-0.24210727
1732439600104,2024-11-24T09:13:20.104Z,65367,-0.004694439,-0.0642434,-0.24210727
1732439600115,2024-11-24T09:13:20.115Z,65378,-0.010604809,-0.057528928,-0.21749175
1732439600119,2024-11-24T09:13:20.119Z,65382,-0.010604809,-0.057528928,-0.21749175
1732439600132,2024-11-24T09:13:20.132Z,65395,-0.0028904118,-0.05522056,-0.20715344
1732439600136,2024-11-24T09:13:20.136Z,65399,-0.0028904118,-0.05522056,-0.20715344
1732439600150,2024-11-24T09:13:20.150Z,65413,4.3616816E-4,-0.058935907,-0.20878991
1732439600154,2024-11-24T09:13:20.154Z,65417,4.3616816E-4,-0.058935907,-0.20878991
1732439600167,2024-11-24T09:13:20.167Z,65430,0.016148914,-0.05754147,-0.19945733
1732439600171,2024-11-24T09:13:20.171Z,65434,0.016148914,-0.05754147,-0.19945733
1732439600182,2024-11-24T09:13:20.182Z,65445,4.4504504E-4,-0.0522404,-0.18601693
1732439600186,2024-11-24T09:13:20.186Z,65449,4.4504504E-4,-0.0522404,-0.18601693
1732439600198,2024-11-24T09:13:20.198Z,65461,-0.012681437,-0.04337598,-0.16854087
1732439600202,2024-11-24T09:13:20.202Z,65465,-0.012681437,-0.04337598,-0.16854087
1732439600214,2024-11-24T09:13:20.214Z,65477,0.0074495547,-0.044460684,-0.15000516
1732439600218,2024-11-24T09:13:20.218Z,65481,0.0074495547,-0.044460684,-0.15000516
1732439600232,2024-11-24T09:13:20.232Z,65495,-1.0666859E-4,-0.050815627,-0.14857458
1732439600237,2024-11-24T09:13:20.237Z,65500,-1.0666859E-4,-0.050815627,-0.14857458
1732439600249,2024-11-24T09:13:20.249Z,65512,0.004842959,-0.059616156,-0.14224994
1732439600254,2024-11-24T09:13:20.254Z,65517,0.004842959,-0.059616156,-0.14224994
1732439600267,2024-11-24T09:13:20.267Z,65530,-0.009425322,-0.03601501,-0.13006626
1732439600272,2024-11-24T09:13:20.272Z,65535,-0.009425322,-0.03601501,-0.13006626
1732439600284,2024-11-24T09:13:20.284Z,65547,-0.017267244,-0.03488927,-0.13764217
1732439600288,2024-11-24T09:13:20.288Z,65551,-0.017267244,-0.03488927,-0.13764217
1732439600300,2024-11-24T09:13:20.300Z,65563,-0.012706065,-0.03192594,-0.15873742
1732439600305,2024-11-24T09:13:20.305Z,65568,-0.012706065,-0.03192594,-0.15873742
1732439600317,2024-11-24T09:13:20.317Z,65580,-0.014091297,-0.029290818,-0.13962795
1732439600321,2024-11-24T09:13:20.321Z,65584,-0.014091297,-0.029290818,-0.13962795
1732439600333,2024-11-24T09:13:20.333Z,65596,-0.013526814,-0.025690317,-0.13275185
1732439600338,2024-11-24T09:13:20.338Z,65601,-0.013526814,-0.025690317,-0.13275185
1732439600349,2024-11-24T09:13:20.349Z,65612,-0.0029286423,-0.017965738,-0.13549215
1732439600353,2024-11-24T09:13:20.353Z,65616,-0.0029286423,-0.017965738,-0.13549215
1732439600365,2024-11-24T09:13:20.365Z,65628,0.00453426,-0.012687132,-0.12682182
1732439600369,2024-11-24T09:13:20.369Z,65632,0.00453426,-0.012687132,-0.12682182
1732439600380,2024-11-24T09:13:20.380Z,65643,0.0044661346,-0.0060175913,-0.12125978
1732439600384,2024-11-24T09:13:20.384Z,65647,0.0044661346,-0.0060175913,-0.12125978
1732439600396,2024-11-24T09:13:20.396Z,65659,0.0038067224,-0.015398398,-0.12007491
1732439600400,2024-11-24T09:13:20.400Z,65663,0.0038067224,-0.015398398,-0.12007491
1732439600412,2024-11-24T09:13:20.412Z,65675,0.017746417,-0.0103069935,-0.12260119
1732439600415,2024-11-24T09:13:20.415Z,65678,0.017746417,-0.0103069935,-0.12260119
1732439600427,2024-11-24T09:13:20.427Z,65690,0.017821692,-0.010116388,-0.11100462
1732439600431,2024-11-24T09:13:20.431Z,65694,0.017821692,-0.010116388,-0.11100462
1732439600444,2024-11-24T09:13:20.444Z,65707,0.020873027,-0.01521353,-0.10373679
1732439600447,2024-11-24T09:13:20.447Z,65710,0.020873027,-0.01521353,-0.10373679
1732439600463,2024-11-24T09:13:20.463Z,65726,0.011267442,-0.008909544,-0.09805611
1732439600471,2024-11-24T09:13:20.471Z,65734,0.011267442,-0.008909544,-0.09805611
1732439600495,2024-11-24T09:13:20.495Z,65758,0.0036645948,-0.010543792,-0.092723675
1732439600502,2024-11-24T09:13:20.502Z,65765,0.0036645948,-0.010543792,-0.092723675
1732439600524,2024-11-24T09:13:20.524Z,65787,0.0025218003,-0.015521319,-0.08031757
1732439600529,2024-11-24T09:13:20.529Z,65792,0.0025218003,-0.015521319,-0.08031757
1732439600543,2024-11-24T09:13:20.543Z,65806,0.0027106646,-0.0150732985,-0.075066164
1732439600547,2024-11-24T09:13:20.547Z,65810,0.0027106646,-0.0150732985,-0.075066164
1732439600561,2024-11-24T09:13:20.561Z,65824,-0.0042886273,-0.018594638,-0.07828859
1732439600564,2024-11-24T09:13:20.564Z,65827,-0.0042886273,-0.018594638,-0.07828859
1732439600578,2024-11-24T09:13:20.578Z,65841,-0.00468885,-0.021450805,-0.08134606
1732439600582,2024-11-24T09:13:20.582Z,65845,-0.00468885,-0.021450805,-0.08134606
1732439600605,2024-11-24T09:13:20.605Z,65868,-0.006691746,-0.024436308,-0.085361734
1732439600611,2024-11-24T09:13:20.611Z,65874,-0.006691746,-0.024436308,-0.085361734
1732439600630,2024-11-24T09:13:20.630Z,65893,-0.009155872,-0.023992762,-0.076636866
1732439600634,2024-11-24T09:13:20.634Z,65897,-0.009155872,-0.023992762,-0.076636866
1732439600644,2024-11-24T09:13:20.644Z,65907,-0.016894791,-0.024128325,-0.07296858
1732439600647,2024-11-24T09:13:20.647Z,65910,-0.016894791,-0.024128325,-0.07296858
1732439600659,2024-11-24T09:13:20.659Z,65922,-0.020121913,-0.025638,-0.07103209
1732439600662,2024-11-24T09:13:20.662Z,65925,-0.020121913,-0.025638,-0.07103209
1732439600674,2024-11-24T09:13:20.674Z,65937,-0.012046907,-0.025271472,-0.066885784
1732439600678,2024-11-24T09:13:20.678Z,65941,-0.012046907,-0.025271472,-0.066885784
1732439600690,2024-11-24T09:13:20.690Z,65953,-0.008734592,-0.011572673,-0.065589696
1732439600694,2024-11-24T09:13:20.694Z,65957,-0.008734592,-0.011572673,-0.065589696
1732439600705,2024-11-24T09:13:20.705Z,65968,-0.0092347525,-0.009034993,-0.05398291
1732439600708,2024-11-24T09:13:20.708Z,65971,-0.0092347525,-0.009034993,-0.05398291
1732439600718,2024-11-24T09:13:20.718Z,65981,-0.013217606,-0.005054547,-0.062475167
1732439600720,2024-11-24T09:13:20.720Z,65983,-0.013217606,-0.005054547,-0.062475167
1732439600731,2024-11-24T09:13:20.731Z,65994,-0.0014161486,-0.0058342796,-0.05980163
1732439600735,2024-11-24T09:13:20.735Z,65998,-0.0014161486,-0.0058342796,-0.05980163
1732439600747,2024-11-24T09:13:20.747Z,66010,-0.0022479964,-0.003357769,-0.052342925
1732439600750,2024-11-24T09:13:20.750Z,66013,-0.0022479964,-0.003357769,-0.052342925
1732439600761,2024-11-24T09:13:20.761Z,66024,-7.2940043E-4,-0.006190984,-0.061297033
1732439600764,2024-11-24T09:13:20.764Z,66027,-7.2940043E-4,-0.006190984,-0.061297033
1732439600776,2024-11-24T09:13:20.776Z,66039,0.0020699084,-0.008249912,-0.060545843
1732439600780,2024-11-24T09:13:20.780Z,66043,0.0020699084,-0.008249912,-0.060545843
1732439600792,2024-11-24T09:13:20.792Z,66055,0.0024532103,-0.009432737,-0.06402386
1732439600796,2024-11-24T09:13:20.796Z,66059,0.0024532103,-0.009432737,-0.06402386
1732439600805,2024-11-24T09:13:20.805Z,66068,0.008683787,-0.0052927067,-0.04715228
1732439600808,2024-11-24T09:13:20.808Z,66071,0.008683787,-0.0052927067,-0.04715228
1732439600819,2024-11-24T09:13:20.819Z,66082,0.004762743,-0.0030948112,-0.026321236
1732439600822,2024-11-24T09:13:20.822Z,66085,0.004762743,-0.0030948112,-0.026321236
1732439600834,2024-11-24T09:13:20.834Z,66097,-0.0029822502,-3.091505E-4,-0.025814528
1732439600837,2024-11-24T09:13:20.837Z,66100,-0.0029822502,-3.091505E-4,-0.025814528
1732439600849,2024-11-24T09:13:20.849Z,66112,-0.004858517,-0.005410279,-0.04410551
1732439600853,2024-11-24T09:13:20.853Z,66116,-0.004858517,-0.005410279,-0.04410551
1732439600864,2024-11-24T09:13:20.864Z,66127,-0.0038650436,-0.002062235,-0.053545322
1732439600869,2024-11-24T09:13:20.869Z,66132,-0.0038650436,-0.002062235,-0.053545322
1732439600882,2024-11-24T09:13:20.882Z,66145,0.0095736915,-0.0035131709,-0.055416707
1732439600885,2024-11-24T09:13:20.885Z,66148,0.0095736915,-0.0035131709,-0.055416707
1732439600896,2024-11-24T09:13:20.896Z,66159,-0.0038149457,-5.097725E-4,-0.05952725
1732439600900,2024-11-24T09:13:20.900Z,66163,-0.0038149457,-5.097725E-4,-0.05952725
1732439600911,2024-11-24T09:13:20.911Z,66174,-0.008834068,-0.006818329,-0.046423092
1732439600914,2024-11-24T09:13:20.914Z,66177,-0.008834068,-0.006818329,-0.046423092
1732439600925,2024-11-24T09:13:20.925Z,66188,-0.0045490325,-0.007137982,-0.04824595
1732439600929,2024-11-24T09:13:20.929Z,66192,-0.0045490325,-0.007137982,-0.04824595
1732439600940,2024-11-24T09:13:20.940Z,66203,-0.0056046443,-0.0054789362,-0.060229935
1732439600943,2024-11-24T09:13:20.943Z,66206,-0.0056046443,-0.0054789362,-0.060229935
1732439600965,2024-11-24T09:13:20.965Z,66228,0.0014582265,-0.0016377488,-0.051863372
1732439600968,2024-11-24T09:13:20.968Z,66231,0.0014582265,-0.0016377488,-0.051863372
1732439600982,2024-11-24T09:13:20.982Z,66245,-0.0041061174,4.7126244E-4,-0.047874127
1732439600986,2024-11-24T09:13:20.986Z,66249,-0.0041061174,4.7126244E-4,-0.047874127
1732439600997,2024-11-24T09:13:20.997Z,66260,-0.0023477573,-3.5398168E-4,-0.058059294
1732439601000,2024-11-24T09:13:21Z,66263,-0.0023477573,-3.5398168E-4,-0.058059294
1732439601010,2024-11-24T09:13:21.010Z,66273,-0.0017872823,0.00860477,-0.054466937
1732439601013,2024-11-24T09:13:21.013Z,66276,-0.0017872823,0.00860477,-0.054466937
1732439601022,2024-11-24T09:13:21.022Z,66285,0.013549327,0.04683722,-0.08491848
1732439601026,2024-11-24T09:13:21.026Z,66289,0.013549327,0.04683722,-0.08491848
1732439601036,2024-11-24T09:13:21.036Z,66299,0.014086116,0.06459893,-0.08593357
1732439601039,2024-11-24T09:13:21.039Z,66302,0.014086116,0.06459893,-0.08593357
1732439601053,2024-11-24T09:13:21.053Z,66316,0.022879614,0.077021256,-0.07756818
1732439601059,2024-11-24T09:13:21.059Z,66322,0.022879614,0.077021256,-0.07756818
1732439601079,2024-11-24T09:13:21.079Z,66342,0.015768185,0.103483334,-0.080874264
1732439601084,2024-11-24T09:13:21.084Z,66347,0.015768185,0.103483334,-0.080874264
1732439601095,2024-11-24T09:13:21.095Z,66358,0.014044248,0.1155828,-0.087130986
1732439601098,2024-11-24T09:13:21.098Z,66361,0.014044248,0.1155828,-0.087130986
1732439601110,2024-11-24T09:13:21.110Z,66373,0.017570073,0.12381073,-0.07961911
1732439601113,2024-11-24T09:13:21.113Z,66376,0.017570073,0.12381073,-0.07961911
1732439601124,2024-11-24T09:13:21.124Z,66387,0.007424088,0.16902591,-0.09742416
1732439601127,2024-11-24T09:13:21.127Z,66390,0.007424088,0.16902591,-0.09742416
1732439601140,2024-11-24T09:13:21.140Z,66403,0.0037269122,0.16702281,-0.10397494
1732439601144,2024-11-24T09:13:21.144Z,66407,0.0037269122,0.16702281,-0.10397494
1732439601154,2024-11-24T09:13:21.154Z,66417,-0.018412277,0.14547373,-0.10803732
1732439601157,2024-11-24T09:13:21.157Z,66420,-0.018412277,0.14547373,-0.10803732
1732439601168,2024-11-24T09:13:21.168Z,66431,-0.018885097,0.13982753,-0.108305365
1732439601172,2024-11-24T09:13:21.172Z,66435,-0.018885097,0.13982753,-0.108305365
1732439601186,2024-11-24T09:13:21.186Z,66449,-0.0030115307,0.11807312,-0.08683859
1732439601192,2024-11-24T09:13:21.192Z,66455,-0.0030115307,0.11807312,-0.08683859
1732439601209,2024-11-24T09:13:21.209Z,66472,-0.0076389234,0.10709823,-0.071430854
1732439601217,2024-11-24T09:13:21.217Z,66480,-0.0076389234,0.10709823,-0.071430854
1732439601241,2024-11-24T09:13:21.241Z,66504,-0.027880477,0.033139978,-0.057830516
1732439601248,2024-11-24T09:13:21.248Z,66511,-0.027880477,0.033139978,-0.057830516
1732439601260,2024-11-24T09:13:21.260Z,66523,-0.024600776,0.03297631,-0.044911887
1732439601264,2024-11-24T09:13:21.264Z,66527,-0.024600776,0.03297631,-0.044911887
1732439601274,2024-11-24T09:13:21.274Z,66537,-0.03314244,0.023520527,-0.065671965
1732439601277,2024-11-24T09:13:21.277Z,66540,-0.03314244,0.023520527,-0.065671965
1732439601287,2024-11-24T09:13:21.287Z,66550,-0.03555288,0.0018558754,-0.06490855
1732439601289,2024-11-24T09:13:21.289Z,66552,-0.03555288,0.0018558754,-0.06490855
1732439601299,2024-11-24T09:13:21.299Z,66562,-0.030851875,0.020066677,-0.050031517
1732439601303,2024-11-24T09:13:21.303Z,66566,-0.030851875,0.020066677,-0.050031517
1732439601313,2024-11-24T09:13:21.313Z,66576,-0.032696452,0.020435635,-0.043614093
1732439601317,2024-11-24T09:13:21.317Z,66580,-0.032696452,0.020435635,-0.043614093
1732439601328,2024-11-24T09:13:21.328Z,66591,-0.027407566,0.030415682,-0.058086958
1732439601331,2024-11-24T09:13:21.331Z,66594,-0.027407566,0.030415682,-0.058086958
1732439601340,2024-11-24T09:13:21.340Z,66603,-0.023109801,0.041343406,-0.058893558
1732439601343,2024-11-24T09:13:21.343Z,66606,-0.023109801,0.041343406,-0.058893558
1732439601352,2024-11-24T09:13:21.352Z,66615,-0.012935991,0.04850998,-0.04464691
1732439601355,2024-11-24T09:13:21.355Z,66618,-0.012935991,0.04850998,-0.04464691
1732439601368,2024-11-24T09:13:21.368Z,66631,-0.007102432,0.055691723,-0.051830724
1732439601375,2024-11-24T09:13:21.375Z,66638,-0.007102432,0.055691723,-0.051830724
1732439601395,2024-11-24T09:13:21.395Z,66658,-0.01080534,0.07659454,-0.062126264
1732439601401,2024-11-24T09:13:21.401Z,66664,-0.01080534,0.07659454,-0.062126264
1732439601417,2024-11-24T09:13:21.417Z,66680,-0.0050870767,0.08371443,-0.053868815
1732439601421,2024-11-24T09:13:21.421Z,66684,-0.0050870767,0.08371443,-0.053868815
1732439601434,2024-11-24T09:13:21.434Z,66697,-0.01892648,0.100645065,-0.05524127
1732439601438,2024-11-24T09:13:21.438Z,66701,-0.01892648,0.100645065,-0.05524127
1732439601449,2024-11-24T09:13:21.449Z,66712,-0.01579178,0.08382267,-0.065494485
1732439601453,2024-11-24T09:13:21.453Z,66716,-0.01579178,0.08382267,-0.065494485
1732439601464,2024-11-24T09:13:21.464Z,66727,-0.03386127,0.07493393,-0.0818005
1732439601467,2024-11-24T09:13:21.467Z,66730,-0.03386127,0.07493393,-0.0818005
1732439601477,2024-11-24T09:13:21.477Z,66740,0.0016606081,0.04913149,-0.04919701
1732439601480,2024-11-24T09:13:21.480Z,66743,0.0016606081,0.04913149,-0.04919701
1732439601489,2024-11-24T09:13:21.489Z,66752,0.01915148,0.027687883,-0.04995382
1732439601492,2024-11-24T09:13:21.492Z,66755,0.01915148,0.027687883,-0.04995382
1732439601502,2024-11-24T09:13:21.502Z,66765,0.018008923,0.007980342,-0.057209834
1732439601506,2024-11-24T09:13:21.506Z,66769,0.018008923,0.007980342,-0.057209834
1732439601516,2024-11-24T09:13:21.516Z,66779,0.028626876,-0.0014869176,-0.045519006
1732439601519,2024-11-24T09:13:21.519Z,66782,0.028626876,-0.0014869176,-0.045519006
1732439601529,2024-11-24T09:13:21.529Z,66792,0.03365438,-0.0068008243,0.0020511488
1732439601532,2024-11-24T09:13:21.532Z,66795,0.03365438,-0.0068008243,0.0020511488
1732439601542,2024-11-24T09:13:21.542Z,66805,0.04457312,-0.0012749175,-0.0155106215
1732439601545,2024-11-24T09:13:21.545Z,66808,0.04457312,-0.0012749175,-0.0155106215
1732439601556,2024-11-24T09:13:21.556Z,66819,0.011652042,-0.012944838,-0.017253106
1732439601559,2024-11-24T09:13:21.559Z,66822,0.011652042,-0.012944838,-0.017253106
1732439601569,2024-11-24T09:13:21.569Z,66832,0.029780746,-0.02372961,-0.029854076
1732439601573,2024-11-24T09:13:21.573Z,66836,0.029780746,-0.02372961,-0.029854076
1732439601584,2024-11-24T09:13:21.584Z,66847,0.041816782,-0.034736495,-0.03155513
1732439601587,2024-11-24T09:13:21.587Z,66850,0.041816782,-0.034736495,-0.03155513
1732439601599,2024-11-24T09:13:21.599Z,66862,0.05703852,-0.027077751,-0.022222951
1732439601602,2024-11-24T09:13:21.602Z,66865,0.05703852,-0.027077751,-0.022222951
1732439601611,2024-11-24T09:13:21.611Z,66874,0.0066147437,-0.023284895,0.009981749
1732439601614,2024-11-24T09:13:21.614Z,66877,0.0066147437,-0.023284895,0.009981749
1732439601624,2024-11-24T09:13:21.624Z,66887,0.010584903,-0.023892889,-0.0151174
1732439601628,2024-11-24T09:13:21.628Z,66891,0.010584903,-0.023892889,-0.0151174
1732439601641,2024-11-24T09:13:21.641Z,66904,-0.0032335776,-0.023047028,-0.028974665
1732439601645,2024-11-24T09:13:21.645Z,66908,-0.0032335776,-0.023047028,-0.028974665
1732439601659,2024-11-24T09:13:21.659Z,66922,-5.1131635E-4,-0.024887344,-0.021266252
1732439601667,2024-11-24T09:13:21.667Z,66930,-5.1131635E-4,-0.024887344,-0.021266252
1732439601692,2024-11-24T09:13:21.692Z,66955,-0.01614867,-0.02077717,-0.025269382
1732439601698,2024-11-24T09:13:21.698Z,66961,-0.01614867,-0.02077717,-0.025269382
1732439601723,2024-11-24T09:13:21.723Z,66986,-0.012616718,-0.035774615,-0.020230297
1732439601730,2024-11-24T09:13:21.730Z,66993,-0.012616718,-0.035774615,-0.020230297
1732439601754,2024-11-24T09:13:21.754Z,67017,-0.031497646,-0.03231065,0.0011632772
1732439601762,2024-11-24T09:13:21.762Z,67025,-0.031497646,-0.03231065,0.0011632772
1732439601779,2024-11-24T09:13:21.779Z,67042,-0.006883145,-0.032149024,0.01216282
1732439601784,2024-11-24T09:13:21.784Z,67047,-0.006883145,-0.032149024,0.01216282
1732439601798,2024-11-24T09:13:21.798Z,67061,-0.00801343,-0.03876508,-0.023517245
1732439601802,2024-11-24T09:13:21.802Z,67065,-0.00801343,-0.03876508,-0.023517245
1732439601817,2024-11-24T09:13:21.817Z,67080,-0.010126885,-0.05709501,-0.0160308
1732439601820,2024-11-24T09:13:21.820Z,67083,-0.010126885,-0.05709501,-0.0160308
1732439601831,2024-11-24T09:13:21.831Z,67094,-0.0011781439,-0.055706117,0.004384948
1732439601835,2024-11-24T09:13:21.835Z,67098,-0.0011781439,-0.055706117,0.004384948
1732439601851,2024-11-24T09:13:21.851Z,67114,0.012857588,-0.06453524,0.0097122025
1732439601854,2024-11-24T09:13:21.854Z,67117,0.012857588,-0.06453524,0.0097122025
1732439601868,2024-11-24T09:13:21.868Z,67131,0.013039594,-0.07068946,0.008826227
1732439601871,2024-11-24T09:13:21.871Z,67134,0.013039594,-0.07068946,0.008826227
1732439601883,2024-11-24T09:13:21.883Z,67146,0.0041199117,-0.065129615,-0.0038498426
1732439601886,2024-11-24T09:13:21.886Z,67149,0.0041199117,-0.065129615,-0.0038498426
1732439601897,2024-11-24T09:13:21.897Z,67160,0.003980647,-0.05999591,0.0031808268
1732439601901,2024-11-24T09:13:21.901Z,67164,0.003980647,-0.05999591,0.0031808268
1732439601911,2024-11-24T09:13:21.911Z,67174,2.5367067E-4,-0.042835675,0.017892096
1732439601914,2024-11-24T09:13:21.914Z,67177,2.5367067E-4,-0.042835675,0.017892096
1732439601925,2024-11-24T09:13:21.925Z,67188,-0.011219007,-0.039648477,0.022974748
1732439601928,2024-11-24T09:13:21.928Z,67191,-0.011219007,-0.039648477,0.022974748
1732439601938,2024-11-24T09:13:21.938Z,67201,-0.025531901,-0.04043667,0.017135946
1732439601942,2024-11-24T09:13:21.942Z,67205,-0.025531901,-0.04043667,0.017135946
1732439601953,2024-11-24T09:13:21.953Z,67216,-0.004365766,-0.032480933,0.029389037
1732439601955,2024-11-24T09:13:21.955Z,67218,-0.004365766,-0.032480933,0.029389037
1732439601966,2024-11-24T09:13:21.966Z,67229,-0.021664597,-0.029104102,0.032743305
1732439601969,2024-11-24T09:13:21.969Z,67232,-0.021664597,-0.029104102,0.032743305
1732439601980,2024-11-24T09:13:21.980Z,67243,-0.024744121,-0.03353753,0.02439668
1732439601983,2024-11-24T09:13:21.983Z,67246,-0.024744121,-0.03353753,0.02439668
1732439601994,2024-11-24T09:13:21.994Z,67257,0.0068958295,-0.024852626,-0.006492792
1732439601998,2024-11-24T09:13:21.998Z,67261,0.0068958295,-0.024852626,-0.006492792
1732439602011,2024-11-24T09:13:22.011Z,67274,-0.002389188,-0.021987125,-0.03148412
1732439602015,2024-11-24T09:13:22.015Z,67278,-0.002389188,-0.021987125,-0.03148412
1732439602025,2024-11-24T09:13:22.025Z,67288,0.0018572612,-0.023915838,-0.031346608
1732439602029,2024-11-24T09:13:22.029Z,67292,0.0018572612,-0.023915838,-0.031346608
1732439602040,2024-11-24T09:13:22.040Z,67303,0.03526771,-0.02603584,-0.013294905
1732439602044,2024-11-24T09:13:22.044Z,67307,0.03526771,-0.02603584,-0.013294905
1732439602058,2024-11-24T09:13:22.058Z,67321,0.04433569,-0.017520245,-0.013696709
1732439602064,2024-11-24T09:13:22.064Z,67327,0.04433569,-0.017520245,-0.013696709
1732439602079,2024-11-24T09:13:22.079Z,67342,-0.014244201,-0.015804602,0.040643055
1732439602082,2024-11-24T09:13:22.082Z,67345,-0.014244201,-0.015804602,0.040643055
1732439602092,2024-11-24T09:13:22.092Z,67355,-0.013712153,-0.008837483,0.03297174
1732439602095,2024-11-24T09:13:22.095Z,67358,-0.013712153,-0.008837483,0.03297174
1732439602107,2024-11-24T09:13:22.107Z,67370,0.013146044,-0.012148476,-0.0067574033
1732439602110,2024-11-24T09:13:22.110Z,67373,0.013146044,-0.012148476,-0.0067574033
1732439602121,2024-11-24T09:13:22.121Z,67384,0.021141699,-0.0066886977,-0.020623857
1732439602125,2024-11-24T09:13:22.125Z,67388,0.021141699,-0.0066886977,-0.020623857
1732439602137,2024-11-24T09:13:22.137Z,67400,0.009060698,-0.028044976,-1.2617891E-5
1732439602140,2024-11-24T09:13:22.140Z,67403,0.009060698,-0.028044976,-1.2617891E-5
1732439602152,2024-11-24T09:13:22.152Z,67415,0.020346435,-0.018780576,0.009436286
1732439602155,2024-11-24T09:13:22.155Z,67418,0.020346435,-0.018780576,0.009436286
1732439602171,2024-11-24T09:13:22.171Z,67434,0.015486692,-0.021769192,0.014842116
1732439602180,2024-11-24T09:13:22.180Z,67443,0.015486692,-0.021769192,0.014842116
1732439602202,2024-11-24T09:13:22.202Z,67465,0.01784143,-0.026079211,-0.012558229
1732439602205,2024-11-24T09:13:22.205Z,67468,0.01784143,-0.026079211,-0.012558229
1732439602216,2024-11-24T09:13:22.216Z,67479,0.02891036,-0.032762658,-4.2830326E-4
1732439602219,2024-11-24T09:13:22.219Z,67482,0.02891036,-0.032762658,-4.2830326E-4
1732439602231,2024-11-24T09:13:22.231Z,67494,0.017275253,-0.028661722,-0.0052126963
1732439602234,2024-11-24T09:13:22.234Z,67497,0.017275253,-0.028661722,-0.0052126963
1732439602244,2024-11-24T09:13:22.244Z,67507,0.020298567,-0.03751204,-0.0077435924
1732439602247,2024-11-24T09:13:22.247Z,67510,0.020298567,-0.03751204,-0.0077435924
1732439602257,2024-11-24T09:13:22.257Z,67520,0.020977903,-0.03233399,-0.019040592
1732439602260,2024-11-24T09:13:22.260Z,67523,0.020977903,-0.03233399,-0.019040592
1732439602270,2024-11-24T09:13:22.270Z,67533,0.010236695,-0.039825175,-0.004419082
1732439602274,2024-11-24T09:13:22.274Z,67537,0.010236695,-0.039825175,-0.004419082
1732439602284,2024-11-24T09:13:22.284Z,67547,0.005204163,-0.044617444,0.002254907
1732439602286,2024-11-24T09:13:22.286Z,67549,0.005204163,-0.044617444,0.002254907
1732439602296,2024-11-24T09:13:22.296Z,67559,0.01977023,-0.041433945,0.0021232823
1732439602299,2024-11-24T09:13:22.299Z,67562,0.01977023,-0.041433945,0.0021232823
1732439602310,2024-11-24T09:13:22.310Z,67573,0.02170805,-0.03681458,0.0033886696
1732439602313,2024-11-24T09:13:22.313Z,67576,0.02170805,-0.03681458,0.0033886696
1732439602321,2024-11-24T09:13:22.321Z,67584,0.009573649,-0.034173526,0.018271508
1732439602324,2024-11-24T09:13:22.324Z,67587,0.009573649,-0.034173526,0.018271508
1732439602333,2024-11-24T09:13:22.333Z,67596,0.0022506828,-0.050433833,-0.0057602255
1732439602337,2024-11-24T09:13:22.337Z,67600,0.0022506828,-0.050433833,-0.0057602255
1732439602349,2024-11-24T09:13:22.349Z,67612,0.013212974,-0.04738774,0.014774797
1732439602352,2024-11-24T09:13:22.352Z,67615,0.013212974,-0.04738774,0.014774797
1732439602363,2024-11-24T09:13:22.363Z,67626,0.02456886,-0.0483184,0.0331224
1732439602366,2024-11-24T09:13:22.366Z,67629,0.02456886,-0.0483184,0.0331224
1732439602376,2024-11-24T09:13:22.376Z,67639,0.0088694235,-0.059099577,0.0112451175
1732439602380,2024-11-24T09:13:22.380Z,67643,0.0088694235,-0.059099577,0.0112451175
1732439602390,2024-11-24T09:13:22.390Z,67653,-0.0012056468,-0.060564905,0.03032879
1732439602395,2024-11-24T09:13:22.395Z,67658,-0.0012056468,-0.060564905,0.03032879
1732439602405,2024-11-24T09:13:22.405Z,67668,-0.009881614,-0.05668997,0.040515147
1732439602408,2024-11-24T09:13:22.408Z,67671,-0.009881614,-0.05668997,0.040515147
1732439602418,2024-11-24T09:13:22.418Z,67681,-0.001537608,-0.0633352,0.00728558
1732439602421,2024-11-24T09:13:22.421Z,67684,-0.001537608,-0.0633352,0.00728558
1732439602431,2024-11-24T09:13:22.431Z,67694,-2.7976952E-5,-0.07468605,-1.7699083E-5
1732439602434,2024-11-24T09:13:22.434Z,67697,-2.7976952E-5,-0.07468605,-1.7699083E-5
1732439602449,2024-11-24T09:13:22.449Z,67712,-0.0025266719,-0.07091673,0.02629809
1732439602453,2024-11-24T09:13:22.453Z,67716,-0.0025266719,-0.07091673,0.02629809
1732439602469,2024-11-24T09:13:22.469Z,67732,0.007969614,-0.0781221,0.040536787
1732439602471,2024-11-24T09:13:22.471Z,67734,0.007969614,-0.0781221,0.040536787
1732439602480,2024-11-24T09:13:22.480Z,67743,0.0048630177,-0.07783444,0.028067904
1732439602484,2024-11-24T09:13:22.484Z,67747,0.0048630177,-0.07783444,0.028067904
1732439602493,2024-11-24T09:13:22.493Z,67756,-0.016309535,-0.0741154,0.019062255
1732439602496,2024-11-24T09:13:22.496Z,67759,-0.016309535,-0.0741154,0.019062255
1732439602506,2024-11-24T09:13:22.506Z,67769,0.008392684,-0.0794791,0.0107152155
1732439602509,2024-11-24T09:13:22.509Z,67772,0.008392684,-0.0794791,0.0107152155
1732439602520,2024-11-24T09:13:22.520Z,67783,-0.0017307237,-0.07911967,0.011031222
1732439602523,2024-11-24T09:13:22.523Z,67786,-0.0017307237,-0.07911967,0.011031222
1732439602532,2024-11-24T09:13:22.532Z,67795,-0.0018934677,-0.08755105,0.013730794
1732439602535,2024-11-24T09:13:22.535Z,67798,-0.0018934677,-0.08755105,0.013730794
1732439602548,2024-11-24T09:13:22.548Z,67811,0.0012326087,-0.08821768,0.019804278
1732439602551,2024-11-24T09:13:22.551Z,67814,0.0012326087,-0.08821768,0.019804278
1732439602562,2024-11-24T09:13:22.562Z,67825,-0.0060890564,-0.09070985,0.022220956
1732439602565,2024-11-24T09:13:22.565Z,67828,-0.0060890564,-0.09070985,0.022220956
1732439602574,2024-11-24T09:13:22.574Z,67837,0.0035486664,-0.09805176,0.004703459
1732439602578,2024-11-24T09:13:22.578Z,67841,0.0035486664,-0.09805176,0.004703459
1732439602592,2024-11-24T09:13:22.592Z,67855,0.0063714213,-0.112139545,0.009520503
1732439602595,2024-11-24T09:13:22.595Z,67858,0.0063714213,-0.112139545,0.009520503
1732439602603,2024-11-24T09:13:22.603Z,67866,0.020111246,-0.10912185,0.01916502
1732439602606,2024-11-24T09:13:22.606Z,67869,0.020111246,-0.10912185,0.01916502
1732439602616,2024-11-24T09:13:22.616Z,67879,0.01081834,-0.11050287,0.028802657
1732439602619,2024-11-24T09:13:22.619Z,67882,0.01081834,-0.11050287,0.028802657
1732439602628,2024-11-24T09:13:22.628Z,67891,0.019327233,-0.10896392,0.039337043
1732439602631,2024-11-24T09:13:22.631Z,67894,0.019327233,-0.10896392,0.039337043
1732439602639,2024-11-24T09:13:22.639Z,67902,0.01637692,-0.1153603,0.038951162
1732439602642,2024-11-24T09:13:22.642Z,67905,0.01637692,-0.1153603,0.038951162
1732439602651,2024-11-24T09:13:22.651Z,67914,0.015934324,-0.12030184,0.036602482
1732439602654,2024-11-24T09:13:22.654Z,67917,0.015934324,-0.12030184,0.036602482
1732439602665,2024-11-24T09:13:22.665Z,67928,0.01890175,-0.12715188,0.04590617
1732439602668,2024-11-24T09:13:22.668Z,67931,0.01890175,-0.12715188,0.04590617
1732439602678,2024-11-24T09:13:22.678Z,67941,0.033139728,-0.13003391,0.050250813
1732439602681,2024-11-24T09:13:22.681Z,67944,0.033139728,-0.13003391,0.050250813
1732439602689,2024-11-24T09:13:22.689Z,67952,0.018259414,-0.13195483,0.0599493
1732439602692,2024-11-24T09:13:22.692Z,67955,0.018259414,-0.13195483,0.0599493
1732439602701,2024-11-24T09:13:22.701Z,67964,0.014783963,-0.14255932,0.06697761
1732439602703,2024-11-24T09:13:22.703Z,67966,0.014783963,-0.14255932,0.06697761
1732439602712,2024-11-24T09:13:22.712Z,67975,0.027505351,-0.14133808,0.060867175
1732439602715,2024-11-24T09:13:22.715Z,67978,0.027505351,-0.14133808,0.060867175
1732439602724,2024-11-24T09:13:22.724Z,67987,0.013043959,-0.14602658,0.059999626
1732439602727,2024-11-24T09:13:22.727Z,67990,0.013043959,-0.14602658,0.059999626
1732439602737,2024-11-24T09:13:22.737Z,68000,0.015806794,-0.15785512,0.066577196
1732439602740,2024-11-24T09:13:22.740Z,68003,0.015806794,-0.15785512,0.066577196
1732439602749,2024-11-24T09:13:22.749Z,68012,0.024596669,-0.15182479,0.071534105
1732439602752,2024-11-24T09:13:22.752Z,68015,0.024596669,-0.15182479,0.071534105
1732439602763,2024-11-24T09:13:22.763Z,68026,0.008571579,-0.15455346,0.06047167
1732439602767,2024-11-24T09:13:22.767Z,68030,0.008571579,-0.15455346,0.06047167
1732439602775,2024-11-24T09:13:22.775Z,68038,0.003530417,-0.14729479,0.05811684
1732439602778,2024-11-24T09:13:22.778Z,68041,0.003530417,-0.14729479,0.05811684
1732439602788,2024-11-24T09:13:22.788Z,68051,0.004926846,-0.1346977,0.05405558
1732439602790,2024-11-24T09:13:22.790Z,68053,0.004926846,-0.1346977,0.05405558
1732439602801,2024-11-24T09:13:22.801Z,68064,-0.0052563637,-0.12842825,0.058858547
1732439602805,2024-11-24T09:13:22.805Z,68068,-0.0052563637,-0.12842825,0.058858547
1732439602816,2024-11-24T09:13:22.816Z,68079,-0.005663333,-0.10508014,0.03551596
1732439602818,2024-11-24T09:13:22.818Z,68081,-0.005663333,-0.10508014,0.03551596
1732439602827,2024-11-24T09:13:22.827Z,68090,-0.00876662,-0.0957925,0.03671223
1732439602831,2024-11-24T09:13:22.831Z,68094,-0.00876662,-0.0957925,0.03671223
1732439602842,2024-11-24T09:13:22.842Z,68105,9.300498E-4,-0.091357514,0.034597162
1732439602850,2024-11-24T09:13:22.850Z,68113,9.300498E-4,-0.091357514,0.034597162
1732439602861,2024-11-24T09:13:22.861Z,68124,0.0045494214,-0.07159435,0.016160114
1732439602863,2024-11-24T09:13:22.863Z,68126,0.0045494214,-0.07159435,0.016160114
1732439602872,2024-11-24T09:13:22.872Z,68135,-0.006125296,-0.06698413,0.0072044022
1732439602874,2024-11-24T09:13:22.874Z,68137,-0.006125296,-0.06698413,0.0072044022
1732439602883,2024-11-24T09:13:22.883Z,68146,-0.0070316116,-0.074022435,0.016036147
1732439602886,2024-11-24T09:13:22.886Z,68149,-0.0070316116,-0.074022435,0.016036147
1732439602898,2024-11-24T09:13:22.898Z,68161,0.009686416,-0.069781944,0.0050041727
1732439602901,2024-11-24T09:13:22.901Z,68164,0.009686416,-0.069781944,0.0050041727
1732439602910,2024-11-24T09:13:22.910Z,68173,0.0069085476,-0.05875279,0.0032917622
1732439602913,2024-11-24T09:13:22.913Z,68176,0.0069085476,-0.05875279,0.0032917622
1732439602921,2024-11-24T09:13:22.921Z,68184,-0.0023867385,-0.052948073,0.00526008
1732439602923,2024-11-24T09:13:22.923Z,68186,-0.0023867385,-0.052948073,0.00526008
1732439602932,2024-11-24T09:13:22.932Z,68195,-0.011753164,-0.048646614,0.013465697
1732439602936,2024-11-24T09:13:22.936Z,68199,-0.011753164,-0.048646614,0.013465697
1732439602944,2024-11-24T09:13:22.944Z,68207,-0.007370508,-0.039299164,0.008669075
1732439602947,2024-11-24T09:13:22.947Z,68210,-0.007370508,-0.039299164,0.008669075
1732439602959,2024-11-24T09:13:22.959Z,68222,-0.009212574,-0.0386229,0.0040379926
1732439602965,2024-11-24T09:13:22.965Z,68228,-0.009212574,-0.0386229,0.0040379926
1732439602975,2024-11-24T09:13:22.975Z,68238,-0.0076068803,-0.038946833,-0.009440371
1732439602978,2024-11-24T09:13:22.978Z,68241,-0.0076068803,-0.038946833,-0.009440371
1732439602988,2024-11-24T09:13:22.988Z,68251,-0.014673896,-0.022436408,-0.02369849
1732439602991,2024-11-24T09:13:22.991Z,68254,-0.014673896,-0.022436408,-0.02369849
1732439603000,2024-11-24T09:13:23Z,68263,-0.031521097,-0.025733009,-0.040680103
1732439603003,2024-11-24T09:13:23.003Z,68266,-0.031521097,-0.025733009,-0.040680103
1732439603014,2024-11-24T09:13:23.014Z,68277,-0.012778873,-0.01969276,-0.028680976
1732439603018,2024-11-24T09:13:23.018Z,68281,-0.012778873,-0.01969276,-0.028680976
1732439603027,2024-11-24T09:13:23.027Z,68290,-0.017385455,-0.00599396,-0.037915424
1732439603030,2024-11-24T09:13:23.030Z,68293,-0.017385455,-0.00599396,-0.037915424
1732439603039,2024-11-24T09:13:23.039Z,68302,-0.02078831,-0.0041788314,-0.041047435
1732439603042,2024-11-24T09:13:23.042Z,68305,-0.02078831,-0.0041788314,-0.041047435
1732439603053,2024-11-24T09:13:23.053Z,68316,-0.015682057,-0.0016960974,-0.03918774
1732439603056,2024-11-24T09:13:23.056Z,68319,-0.015682057,-0.0016960974,-0.03918774
1732439603066,2024-11-24T09:13:23.066Z,68329,-0.009100849,0.018018834,-0.05430709
1732439603069,2024-11-24T09:13:23.069Z,68332,-0.009100849,0.018018834,-0.05430709
1732439603078,2024-11-24T09:13:23.078Z,68341,-0.013796454,0.023012796,-0.059980568
1732439603082,2024-11-24T09:13:23.082Z,68345,-0.013796454,0.023012796,-0.059980568
1732439603091,2024-11-24T09:13:23.091Z,68354,-0.005984588,0.026559616,-0.058298472
1732439603094,2024-11-24T09:13:23.094Z,68357,-0.005984588,0.026559616,-0.058298472
1732439603104,2024-11-24T09:13:23.104Z,68367,-0.0039203227,0.04052633,-0.059734724
1732439603107,2024-11-24T09:13:23.107Z,68370,-0.0039203227,0.04052633,-0.059734724
1732439603118,2024-11-24T09:13:23.118Z,68381,-0.008102844,0.041716546,-0.063649185
1732439603122,2024-11-24T09:13:23.122Z,68385,-0.008102844,0.041716546,-0.063649185
1732439603131,2024-11-24T09:13:23.131Z,68394,0.005637918,0.04194265,-0.056306694
1732439603135,2024-11-24T09:13:23.135Z,68398,0.005637918,0.04194265,-0.056306694
1732439603146,2024-11-24T09:13:23.146Z,68409,0.0024280748,0.0432516,-0.037176393
1732439603150,2024-11-24T09:13:23.150Z,68413,0.0024280748,0.0432516,-0.037176393
1732439603158,2024-11-24T09:13:23.158Z,68421,-0.002703365,0.042875253,-0.038535014
1732439603161,2024-11-24T09:13:23.161Z,68424,-0.002703365,0.042875253,-0.038535014
1732439603170,2024-11-24T09:13:23.170Z,68433,0.0033261818,0.040508147,-0.031233607
1732439603173,2024-11-24T09:13:23.173Z,68436,0.0033261818,0.040508147,-0.031233607
1732439603183,2024-11-24T09:13:23.183Z,68446,-0.010626823,0.041392226,-0.020662198
1732439603186,2024-11-24T09:13:23.186Z,68449,-0.010626823,0.041392226,-0.020662198
1732439603195,2024-11-24T09:13:23.195Z,68458,-0.01354017,0.033026394,-0.03336501
1732439603198,2024-11-24T09:13:23.198Z,68461,-0.01354017,0.033026394,-0.03336501
1732439603208,2024-11-24T09:13:23.208Z,68471,0.0015455154,0.033467606,-0.0425979
1732439603212,2024-11-24T09:13:23.212Z,68475,0.0015455154,0.033467606,-0.0425979
1732439603222,2024-11-24T09:13:23.222Z,68485,0.0048727123,0.028513419,-0.03228374
1732439603225,2024-11-24T09:13:23.225Z,68488,0.0048727123,0.028513419,-0.03228374
1732439603235,2024-11-24T09:13:23.235Z,68498,-0.0036386447,0.027996158,-0.024381826
1732439603238,2024-11-24T09:13:23.238Z,68501,-0.0036386447,0.027996158,-0.024381826
1732439603250,2024-11-24T09:13:23.250Z,68513,0.004960837,0.028947435,-0.018891439
1732439603254,2024-11-24T09:13:23.254Z,68517,0.004960837,0.028947435,-0.018891439
1732439603264,2024-11-24T09:13:23.264Z,68527,-0.005365722,0.03452712,-0.0060226726
1732439603267,2024-11-24T09:13:23.267Z,68530,-0.005365722,0.03452712,-0.0060226726
1732439603278,2024-11-24T09:13:23.278Z,68541,7.759213E-4,0.037263088,-0.013806307
1732439603281,2024-11-24T09:13:23.281Z,68544,7.759213E-4,0.037263088,-0.013806307
1732439603290,2024-11-24T09:13:23.290Z,68553,0.0015360703,0.042887993,-0.013435233
1732439603294,2024-11-24T09:13:23.294Z,68557,0.0015360703,0.042887993,-0.013435233
1732439603304,2024-11-24T09:13:23.304Z,68567,0.0026090103,0.04185386,-0.025161387
1732439603307,2024-11-24T09:13:23.307Z,68570,0.0026090103,0.04185386,-0.025161387
1732439603315,2024-11-24T09:13:23.315Z,68578,0.016572105,0.047405053,-0.023582036
1732439603318,2024-11-24T09:13:23.318Z,68581,0.016572105,0.047405053,-0.023582036
1732439603328,2024-11-24T09:13:23.328Z,68591,-0.005495906,0.03765179,-0.016188487
1732439603332,2024-11-24T09:13:23.332Z,68595,-0.005495906,0.03765179,-0.016188487
1732439603342,2024-11-24T09:13:23.342Z,68605,0.00434425,0.03287352,-0.020801723
1732439603345,2024-11-24T09:13:23.345Z,68608,0.00434425,0.03287352,-0.020801723
1732439603359,2024-11-24T09:13:23.359Z,68622,-3.17453E-5,0.029588396,-0.021420486
1732439603366,2024-11-24T09:13:23.366Z,68629,-3.17453E-5,0.029588396,-0.021420486
1732439603390,2024-11-24T09:13:23.390Z,68653,-0.003928674,0.015660966,-0.011063046
1732439603395,2024-11-24T09:13:23.395Z,68658,-0.003928674,0.015660966,-0.011063046
1732439603404,2024-11-24T09:13:23.404Z,68667,-0.005335733,0.019163927,-0.0069608456
1732439603407,2024-11-24T09:13:23.407Z,68670,-0.005335733,0.019163927,-0.0069608456
1732439603418,2024-11-24T09:13:23.418Z,68681,-0.0101172635,0.006526683,-0.01564176
1732439603421,2024-11-24T09:13:23.421Z,68684,-0.0101172635,0.006526683,-0.01564176
1732439603430,2024-11-24T09:13:23.430Z,68693,-0.0053120893,0.010992687,-0.007231948
1732439603433,2024-11-24T09:13:23.433Z,68696,-0.0053120893,0.010992687,-0.007231948
1732439603443,2024-11-24T09:13:23.443Z,68706,-0.0021811812,0.014914785,-4.1366747E-4
1732439603448,2024-11-24T09:13:23.448Z,68711,-0.0021811812,0.014914785,-4.1366747E-4
1732439603456,2024-11-24T09:13:23.456Z,68719,-0.008779232,0.019778434,-0.010806993
1732439603459,2024-11-24T09:13:23.459Z,68722,-0.008779232,0.019778434,-0.010806993
1732439603468,2024-11-24T09:13:23.468Z,68731,-0.024132878,0.015331491,-0.0022711717
1732439603471,2024-11-24T09:13:23.471Z,68734,-0.024132878,0.015331491,-0.0022711717
1732439603480,2024-11-24T09:13:23.480Z,68743,-0.014229668,0.021540854,-0.021301188
1732439603485,2024-11-24T09:13:23.485Z,68748,-0.014229668,0.021540854,-0.021301188
1732439603492,2024-11-24T09:13:23.492Z,68755,-0.012771129,0.0029999947,-0.04224827
1732439603496,2024-11-24T09:13:23.496Z,68759,-0.012771129,0.0029999947,-0.04224827
1732439603511,2024-11-24T09:13:23.511Z,68774,-0.002319814,0.0025887343,-0.02836954
1732439603518,2024-11-24T09:13:23.518Z,68781,-0.002319814,0.0025887343,-0.02836954
1732439603542,2024-11-24T09:13:23.542Z,68805,-0.0059051546,-9.724771E-6,-0.0056019546
1732439603549,2024-11-24T09:13:23.549Z,68812,-0.0059051546,-9.724771E-6,-0.0056019546
1732439603567,2024-11-24T09:13:23.567Z,68830,-0.012353238,0.0011725157,-0.007071951
1732439603570,2024-11-24T09:13:23.570Z,68833,-0.012353238,0.0011725157,-0.007071951
1732439603578,2024-11-24T09:13:23.578Z,68841,-0.026513083,-0.0020376313,-0.014361956
1732439603581,2024-11-24T09:13:23.581Z,68844,-0.026513083,-0.0020376313,-0.014361956
1732439603590,2024-11-24T09:13:23.590Z,68853,-0.025533147,0.011416298,0.0038557504
1732439603592,2024-11-24T09:13:23.592Z,68855,-0.025533147,0.011416298,0.0038557504
1732439603664,2024-11-24T09:13:23.664Z,68927,-0.017749544,0.015203319,0.01902705
1732439603668,2024-11-24T09:13:23.668Z,68931,-0.017749544,0.015203319,0.01902705
1732439603681,2024-11-24T09:13:23.681Z,68944,-0.018493142,0.026228,0.013435598
1732439603684,2024-11-24T09:13:23.684Z,68947,-0.018493142,0.026228,0.013435598
1732439603697,2024-11-24T09:13:23.697Z,68960,-0.012102569,0.035064124,-0.011508027
1732439603701,2024-11-24T09:13:23.701Z,68964,-0.012102569,0.035064124,-0.011508027
1732439603713,2024-11-24T09:13:23.713Z,68976,-0.0041176747,0.05050171,-0.015086427
1732439603717,2024-11-24T09:13:23.717Z,68980,-0.0041176747,0.05050171,-0.015086427
1732439603727,2024-11-24T09:13:23.727Z,68990,-0.0041383947,0.08715836,-0.035065677
1732439603731,2024-11-24T09:13:23.731Z,68994,-0.0041383947,0.08715836,-0.035065677
1732439603742,2024-11-24T09:13:23.742Z,69005,-0.003932983,0.07942143,-0.04804324
1732439603745,2024-11-24T09:13:23.745Z,69008,-0.003932983,0.07942143,-0.04804324
1732439603755,2024-11-24T09:13:23.755Z,69018,0.0028535274,0.074165195,-0.047268808
1732439603758,2024-11-24T09:13:23.758Z,69021,0.0028535274,0.074165195,-0.047268808
1732439603767,2024-11-24T09:13:23.767Z,69030,0.001367777,0.070548646,-0.048892237
1732439603770,2024-11-24T09:13:23.770Z,69033,0.001367777,0.070548646,-0.048892237
1732439603779,2024-11-24T09:13:23.779Z,69042,0.010590915,0.05912904,-0.017516525
1732439603782,2024-11-24T09:13:23.782Z,69045,0.010590915,0.05912904,-0.017516525
1732439603790,2024-11-24T09:13:23.790Z,69053,0.002634562,0.046408653,-0.03387432
1732439603793,2024-11-24T09:13:23.793Z,69056,0.002634562,0.046408653,-0.03387432
1732439603802,2024-11-24T09:13:23.802Z,69065,0.025208987,0.038619597,-0.027157081
1732439603805,2024-11-24T09:13:23.805Z,69068,0.025208987,0.038619597,-0.027157081
1732439603815,2024-11-24T09:13:23.815Z,69078,0.02719336,0.03374846,-0.020611605
1732439603818,2024-11-24T09:13:23.818Z,69081,0.02719336,0.03374846,-0.020611605
1732439603827,2024-11-24T09:13:23.827Z,69090,-0.0027526512,0.033300146,-0.006451292
1732439603830,2024-11-24T09:13:23.830Z,69093,-0.0027526512,0.033300146,-0.006451292
1732439603840,2024-11-24T09:13:23.840Z,69103,0.0024515602,0.034310162,-0.022101488
1732439603842,2024-11-24T09:13:23.842Z,69105,0.0024515602,0.034310162,-0.022101488
1732439603850,2024-11-24T09:13:23.850Z,69113,0.022681665,0.06061956,-0.0065179793
1732439603853,2024-11-24T09:13:23.853Z,69116,0.022681665,0.06061956,-0.0065179793
1732439603860,2024-11-24T09:13:23.860Z,69123,0.038091566,0.074503906,-0.008596212
1732439603863,2024-11-24T09:13:23.863Z,69126,0.038091566,0.074503906,-0.008596212
1732439603871,2024-11-24T09:13:23.871Z,69134,0.044526257,0.07962682,-0.019775761
1732439603876,2024-11-24T09:13:23.876Z,69139,0.044526257,0.07962682,-0.019775761
1732439603886,2024-11-24T09:13:23.886Z,69149,0.048204105,0.0880651,-0.026784914
1732439603888,2024-11-24T09:13:23.888Z,69151,0.048204105,0.0880651,-0.026784914
1732439603897,2024-11-24T09:13:23.897Z,69160,0.057387486,0.09625336,-0.02612307
1732439603901,2024-11-24T09:13:23.901Z,69164,0.057387486,0.09625336,-0.02612307
1732439603908,2024-11-24T09:13:23.908Z,69171,0.058666557,0.10446962,-0.022920921
1732439603911,2024-11-24T09:13:23.911Z,69174,0.058666557,0.10446962,-0.022920921
1732439603935,2024-11-24T09:13:23.935Z,69198,0.037619915,0.11261674,-0.026621368
1732439603941,2024-11-24T09:13:23.941Z,69204,0.037619915,0.11261674,-0.026621368
1732439603959,2024-11-24T09:13:23.959Z,69222,0.033174187,0.11209248,-0.037904702
1732439603961,2024-11-24T09:13:23.961Z,69224,0.033174187,0.11209248,-0.037904702
1732439603971,2024-11-24T09:13:23.971Z,69234,0.054462712,0.114013515,-0.032592814
1732439603974,2024-11-24T09:13:23.974Z,69237,0.054462712,0.114013515,-0.032592814
1732439603983,2024-11-24T09:13:23.983Z,69246,0.040367484,0.11828949,-0.027521614
1732439603985,2024-11-24T09:13:23.985Z,69248,0.040367484,0.11828949,-0.027521614
1732439603993,2024-11-24T09:13:23.993Z,69256,0.028596,0.11282184,-0.022874996
1732439603996,2024-11-24T09:13:23.996Z,69259,0.028596,0.11282184,-0.022874996
1732439604005,2024-11-24T09:13:24.005Z,69268,0.030487623,0.10881105,-0.020203432
1732439604007,2024-11-24T09:13:24.007Z,69270,0.030487623,0.10881105,-0.020203432
1732439604018,2024-11-24T09:13:24.018Z,69281,0.027782433,0.090524204,-0.037224855
1732439604021,2024-11-24T09:13:24.021Z,69284,0.027782433,0.090524204,-0.037224855
1732439604029,2024-11-24T09:13:24.029Z,69292,0.013230406,0.07424941,-0.036511738
1732439604031,2024-11-24T09:13:24.031Z,69294,0.013230406,0.07424941,-0.036511738
1732439604039,2024-11-24T09:13:24.039Z,69302,0.014238354,0.063352995,-0.029910188
1732439604042,2024-11-24T09:13:24.042Z,69305,0.014238354,0.063352995,-0.029910188
1732439604066,2024-11-24T09:13:24.066Z,69329,0.009852604,0.054902557,-0.014488913
1732439604069,2024-11-24T09:13:24.069Z,69332,0.009852604,0.054902557,-0.014488913
1732439604078,2024-11-24T09:13:24.078Z,69341,-0.009029548,0.01404753,-0.048450027
1732439604081,2024-11-24T09:13:24.081Z,69344,-0.009029548,0.01404753,-0.048450027
1732439604090,2024-11-24T09:13:24.090Z,69353,-0.0020992986,2.2162755E-4,-0.034259457
1732439604092,2024-11-24T09:13:24.092Z,69355,-0.0020992986,2.2162755E-4,-0.034259457
1732439604101,2024-11-24T09:13:24.101Z,69364,0.0049557313,-0.0048105526,-0.009233014
1732439604104,2024-11-24T09:13:24.104Z,69367,0.0049557313,-0.0048105526,-0.009233014
1732439604114,2024-11-24T09:13:24.114Z,69377,-0.015569159,-0.029106922,-0.0070625423
1732439604117,2024-11-24T09:13:24.117Z,69380,-0.015569159,-0.029106922,-0.0070625423
1732439604126,2024-11-24T09:13:24.126Z,69389,-0.014104662,-0.03322478,-0.01287392
1732439604129,2024-11-24T09:13:24.129Z,69392,-0.014104662,-0.03322478,-0.01287392
1732439604142,2024-11-24T09:13:24.142Z,69405,-0.008323365,-0.042234976,-0.01823318
1732439604145,2024-11-24T09:13:24.145Z,69408,-0.008323365,-0.042234976,-0.01823318
1732439604156,2024-11-24T09:13:24.156Z,69419,-0.012689459,-0.030765677,-8.562175E-4
1732439604159,2024-11-24T09:13:24.159Z,69422,-0.012689459,-0.030765677,-8.562175E-4
1732439604169,2024-11-24T09:13:24.169Z,69432,-1.7550781E-4,-0.015940359,0.016884161
1732439604174,2024-11-24T09:13:24.174Z,69437,-1.7550781E-4,-0.015940359,0.016884161
1732439604183,2024-11-24T09:13:24.183Z,69446,-0.021689547,-0.0055976757,0.023556387
1732439604186,2024-11-24T09:13:24.186Z,69449,-0.021689547,-0.0055976757,0.023556387
1732439604198,2024-11-24T09:13:24.198Z,69461,-0.015317403,0.008579971,0.029892124
1732439604201,2024-11-24T09:13:24.201Z,69464,-0.015317403,0.008579971,0.029892124
1732439604213,2024-11-24T09:13:24.213Z,69476,-0.019191587,0.021196598,0.030969484
1732439604216,2024-11-24T09:13:24.216Z,69479,-0.019191587,0.021196598,0.030969484
1732439604226,2024-11-24T09:13:24.226Z,69489,-0.016268035,0.023999374,0.02204816
1732439604228,2024-11-24T09:13:24.228Z,69491,-0.016268035,0.023999374,0.02204816
1732439604245,2024-11-24T09:13:24.245Z,69508,-6.0765236E-4,0.04051272,0.0025100121
1732439604249,2024-11-24T09:13:24.249Z,69512,-6.0765236E-4,0.04051272,0.0025100121
1732439604258,2024-11-24T09:13:24.258Z,69521,-0.005571735,0.042775575,4.274645E-4
1732439604261,2024-11-24T09:13:24.261Z,69524,-0.005571735,0.042775575,4.274645E-4
1732439604271,2024-11-24T09:13:24.271Z,69534,-0.0019154517,0.03580126,-0.01228376
1732439604274,2024-11-24T09:13:24.274Z,69537,-0.0019154517,0.03580126,-0.01228376
1732439604288,2024-11-24T09:13:24.288Z,69551,0.0021388177,0.023528209,-0.02804641
1732439604292,2024-11-24T09:13:24.292Z,69555,0.0021388177,0.023528209,-0.02804641
1732439604304,2024-11-24T09:13:24.304Z,69567,0.0024252243,0.026043229,-0.0121127255
1732439604307,2024-11-24T09:13:24.307Z,69570,0.0024252243,0.026043229,-0.0121127255
1732439604320,2024-11-24T09:13:24.320Z,69583,-0.0027742584,0.022256112,-0.013590575
1732439604327,2024-11-24T09:13:24.327Z,69590,-0.0027742584,0.022256112,-0.013590575
1732439604339,2024-11-24T09:13:24.339Z,69602,-0.01653103,0.015768912,-0.020819958
1732439604343,2024-11-24T09:13:24.343Z,69606,-0.01653103,0.015768912,-0.020819958
1732439604355,2024-11-24T09:13:24.355Z,69618,-0.017160477,0.01739888,-0.014614581
1732439604362,2024-11-24T09:13:24.362Z,69625,-0.017160477,0.01739888,-0.014614581
1732439604375,2024-11-24T09:13:24.375Z,69638,-0.025889676,0.015576166,-0.002589123
1732439604379,2024-11-24T09:13:24.379Z,69642,-0.025889676,0.015576166,-0.002589123
1732439604389,2024-11-24T09:13:24.389Z,69652,-0.017464256,0.008857127,-0.0062054982
1732439604391,2024-11-24T09:13:24.391Z,69654,-0.017464256,0.008857127,-0.0062054982
1732439604406,2024-11-24T09:13:24.406Z,69669,-0.015738,0.013868399,-0.010513426
1732439604409,2024-11-24T09:13:24.409Z,69672,-0.015738,0.013868399,-0.010513426
1732439604418,2024-11-24T09:13:24.418Z,69681,-0.017269371,0.009496239,-0.023490818
1732439604421,2024-11-24T09:13:24.421Z,69684,-0.017269371,0.009496239,-0.023490818
1732439604429,2024-11-24T09:13:24.429Z,69692,-0.017935019,0.006577738,-0.029754579
1732439604432,2024-11-24T09:13:24.432Z,69695,-0.017935019,0.006577738,-0.029754579
1732439604443,2024-11-24T09:13:24.443Z,69706,-0.014145105,0.006541854,-0.0153934015
1732439604447,2024-11-24T09:13:24.447Z,69710,-0.014145105,0.006541854,-0.0153934015
1732439604455,2024-11-24T09:13:24.455Z,69718,-0.0033479836,0.00697694,-0.011897261
1732439604457,2024-11-24T09:13:24.457Z,69720,-0.0033479836,0.00697694,-0.011897261
1732439604469,2024-11-24T09:13:24.469Z,69732,-0.020817477,0.0020232387,-0.01626947
1732439604474,2024-11-24T09:13:24.474Z,69737,-0.020817477,0.0020232387,-0.01626947
1732439604488,2024-11-24T09:13:24.488Z,69751,-0.011602856,-9.716992E-4,-0.023489103
1732439604491,2024-11-24T09:13:24.491Z,69754,-0.011602856,-9.716992E-4,-0.023489103
1732439604499,2024-11-24T09:13:24.499Z,69762,-0.011247318,-0.0058402116,-0.012432124
1732439604502,2024-11-24T09:13:24.502Z,69765,-0.011247318,-0.0058402116,-0.012432124
1732439604511,2024-11-24T09:13:24.511Z,69774,-0.005061731,-0.0043621436,-0.010677653
1732439604515,2024-11-24T09:13:24.515Z,69778,-0.005061731,-0.0043621436,-0.010677653
1732439604524,2024-11-24T09:13:24.524Z,69787,-0.009691294,-0.003404059,-0.0068521467
1732439604526,2024-11-24T09:13:24.526Z,69789,-0.009691294,-0.003404059,-0.0068521467
1732439604538,2024-11-24T09:13:24.538Z,69801,-0.0033647222,-0.005904006,-0.0073300465
1732439604544,2024-11-24T09:13:24.544Z,69807,-0.0033647222,-0.005904006,-0.0073300465
1732439604565,2024-11-24T09:13:24.565Z,69828,-0.0037465654,-0.0059713987,-0.019972943
1732439604571,2024-11-24T09:13:24.571Z,69834,-0.0037465654,-0.0059713987,-0.019972943
1732439604590,2024-11-24T09:13:24.590Z,69853,0.013219417,-0.0040735123,-0.017870715
1732439604597,2024-11-24T09:13:24.597Z,69860,0.013219417,-0.0040735123,-0.017870715
1732439604617,2024-11-24T09:13:24.617Z,69880,0.007600225,0.0013437689,-0.0032984358
1732439604622,2024-11-24T09:13:24.622Z,69885,0.007600225,0.0013437689,-0.0032984358
1732439604635,2024-11-24T09:13:24.635Z,69898,0.007813477,0.005785947,-0.007289324
1732439604639,2024-11-24T09:13:24.639Z,69902,0.007813477,0.005785947,-0.007289324
1732439604653,2024-11-24T09:13:24.653Z,69916,-9.387079E-4,0.008273641,-0.0066727856
1732439604657,2024-11-24T09:13:24.657Z,69920,-9.387079E-4,0.008273641,-0.0066727856
1732439604669,2024-11-24T09:13:24.669Z,69932,0.002395515,0.013587451,-0.010595893
1732439604673,2024-11-24T09:13:24.673Z,69936,0.002395515,0.013587451,-0.010595893
1732439604684,2024-11-24T09:13:24.684Z,69947,0.0067783725,0.011081669,-0.0149950385
1732439604687,2024-11-24T09:13:24.687Z,69950,0.0067783725,0.011081669,-0.0149950385
1732439604697,2024-11-24T09:13:24.697Z,69960,0.0030377633,0.022060351,-0.0023355985
1732439604700,2024-11-24T09:13:24.700Z,69963,0.0030377633,0.022060351,-0.0023355985
1732439604708,2024-11-24T09:13:24.708Z,69971,-2.8060828E-4,0.019459948,-0.010082716
1732439604710,2024-11-24T09:13:24.710Z,69973,-2.8060828E-4,0.019459948,-0.010082716
1732439604719,2024-11-24T09:13:24.719Z,69982,0.0061026225,0.014904185,-0.0095827775
1732439604722,2024-11-24T09:13:24.722Z,69985,0.0061026225,0.014904185,-0.0095827775
1732439604731,2024-11-24T09:13:24.731Z,69994,0.006077982,0.008899819,-0.014408525
1732439604735,2024-11-24T09:13:24.735Z,69998,0.006077982,0.008899819,-0.014408525
1732439604744,2024-11-24T09:13:24.744Z,70007,0.011537845,0.008754336,-0.0123184165
1732439604747,2024-11-24T09:13:24.747Z,70010,0.011537845,0.008754336,-0.0123184165
1732439604756,2024-11-24T09:13:24.756Z,70019,0.0061791684,0.008253608,0.0040926337
1732439604759,2024-11-24T09:13:24.759Z,70022,0.0061791684,0.008253608,0.0040926337
1732439604772,2024-11-24T09:13:24.772Z,70035,0.007632025,0.0077359583,-0.0024190005
1732439604774,2024-11-24T09:13:24.774Z,70037,0.007632025,0.0077359583,-0.0024190005
1732439604782,2024-11-24T09:13:24.782Z,70045,0.0046950225,0.011088282,-0.002281954
1732439604785,2024-11-24T09:13:24.785Z,70048,0.0046950225,0.011088282,-0.002281954
1732439604794,2024-11-24T09:13:24.794Z,70057,0.007559235,9.416496E-4,-0.009343354
1732439604797,2024-11-24T09:13:24.797Z,70060,0.007559235,9.416496E-4,-0.009343354
1732439604806,2024-11-24T09:13:24.806Z,70069,8.201508E-4,-0.0026125598,-0.00949269
1732439604808,2024-11-24T09:13:24.808Z,70071,8.201508E-4,-0.0026125598,-0.00949269
1732439604817,2024-11-24T09:13:24.817Z,70080,2.899076E-4,-0.011514518,-0.010108487
1732439604819,2024-11-24T09:13:24.819Z,70082,2.899076E-4,-0.011514518,-0.010108487
1732439604828,2024-11-24T09:13:24.828Z,70091,0.002119283,-0.013655718,-0.011655272
1732439604830,2024-11-24T09:13:24.830Z,70093,0.002119283,-0.013655718,-0.011655272
1732439604839,2024-11-24T09:13:24.839Z,70102,0.0010868526,-0.015203416,0.0049683494
1732439604841,2024-11-24T09:13:24.841Z,70104,0.0010868526,-0.015203416,0.0049683494
1732439604850,2024-11-24T09:13:24.850Z,70113,0.0025463463,-0.013348319,0.01032079
1732439604853,2024-11-24T09:13:24.853Z,70116,0.0025463463,-0.013348319,0.01032079
1732439604873,2024-11-24T09:13:24.873Z,70136,0.0026222116,-0.0020478424,-0.004595392
1732439604875,2024-11-24T09:13:24.875Z,70138,0.0026222116,-0.0020478424,-0.004595392
1732439604882,2024-11-24T09:13:24.882Z,70145,0.0020187045,-2.8892295E-4,0.0010328072
1732439604885,2024-11-24T09:13:24.885Z,70148,0.0020187045,-2.8892295E-4,0.0010328072
1732439604893,2024-11-24T09:13:24.893Z,70156,9.7015535E-4,-2.1783488E-5,-0.004183998
1732439604895,2024-11-24T09:13:24.895Z,70158,9.7015535E-4,-2.1783488E-5,-0.004183998
1732439604922,2024-11-24T09:13:24.922Z,70185,0.0047104363,0.010714559,-0.0031583263
1732439604929,2024-11-24T09:13:24.929Z,70192,0.0047104363,0.010714559,-0.0031583263
1732439604947,2024-11-24T09:13:24.947Z,70210,-7.0609135E-4,0.014338301,-0.0018081025
1732439604950,2024-11-24T09:13:24.950Z,70213,-7.0609135E-4,0.014338301,-0.0018081025
1732439604960,2024-11-24T09:13:24.960Z,70223,0.003658678,0.020397417,-4.6965783E-4
1732439604963,2024-11-24T09:13:24.963Z,70226,0.003658678,0.020397417,-4.6965783E-4
1732439604974,2024-11-24T09:13:24.974Z,70237,0.0093078585,0.032012198,-0.01504004
1732439604977,2024-11-24T09:13:24.977Z,70240,0.0093078585,0.032012198,-0.01504004
1732439604987,2024-11-24T09:13:24.987Z,70250,0.005680579,0.031238884,-0.024039416
1732439604990,2024-11-24T09:13:24.990Z,70253,0.005680579,0.031238884,-0.024039416
1732439604999,2024-11-24T09:13:24.999Z,70262,0.009212446,0.027569339,-0.016382677
1732439605002,2024-11-24T09:13:25.002Z,70265,0.009212446,0.027569339,-0.016382677
1732439605010,2024-11-24T09:13:25.010Z,70273,0.007893585,0.03221311,-0.018891571
1732439605013,2024-11-24T09:13:25.013Z,70276,0.007893585,0.03221311,-0.018891571
1732439605021,2024-11-24T09:13:25.021Z,70284,0.011085048,0.027451668,-0.032664474
1732439605024,2024-11-24T09:13:25.024Z,70287,0.011085048,0.027451668,-0.032664474
1732439605031,2024-11-24T09:13:25.031Z,70294,0.014380348,0.026860014,-0.027377006
1732439605034,2024-11-24T09:13:25.034Z,70297,0.014380348,0.026860014,-0.027377006
1732439605042,2024-11-24T09:13:25.042Z,70305,0.007347235,0.031148054,-0.012874273
1732439605045,2024-11-24T09:13:25.045Z,70308,0.007347235,0.031148054,-0.012874273
1732439605056,2024-11-24T09:13:25.056Z,70319,-0.013136233,0.033830244,-0.030459443
1732439605059,2024-11-24T09:13:25.059Z,70322,-0.013136233,0.033830244,-0.030459443
1732439605068,2024-11-24T09:13:25.068Z,70331,2.8903235E-4,0.03175089,-0.020470047
1732439605070,2024-11-24T09:13:25.070Z,70333,2.8903235E-4,0.03175089,-0.020470047
1732439605099,2024-11-24T09:13:25.099Z,70362,-0.0023930718,0.036500957,-0.019780854
1732439605102,2024-11-24T09:13:25.102Z,70365,-0.0023930718,0.036500957,-0.019780854
1732439605110,2024-11-24T09:13:25.110Z,70373,0.004733022,0.038583905,-0.035871692
1732439605112,2024-11-24T09:13:25.112Z,70375,0.004733022,0.038583905,-0.035871692
1732439605120,2024-11-24T09:13:25.120Z,70383,0.010884365,0.040456995,-0.023983
1732439605123,2024-11-24T09:13:25.123Z,70386,0.010884365,0.040456995,-0.023983
1732439605130,2024-11-24T09:13:25.130Z,70393,0.010558732,0.044761956,-0.012214775
1732439605133,2024-11-24T09:13:25.133Z,70396,0.010558732,0.044761956,-0.012214775
1732439605143,2024-11-24T09:13:25.143Z,70406,-0.003023006,0.06016094,-0.026122231
1732439605146,2024-11-24T09:13:25.146Z,70409,-0.003023006,0.06016094,-0.026122231
1732439605154,2024-11-24T09:13:25.154Z,70417,0.010235857,0.06586471,-0.014678133
1732439605157,2024-11-24T09:13:25.157Z,70420,0.010235857,0.06586471,-0.014678133
1732439605164,2024-11-24T09:13:25.164Z,70427,-0.013953722,0.07252044,-0.019356648
1732439605167,2024-11-24T09:13:25.167Z,70430,-0.013953722,0.07252044,-0.019356648
1732439605188,2024-11-24T09:13:25.188Z,70451,0.009810325,0.10760226,-0.012837112
1732439605191,2024-11-24T09:13:25.191Z,70454,0.009810325,0.10760226,-0.012837112
1732439605200,2024-11-24T09:13:25.200Z,70463,0.016655982,0.121564604,-0.02618357
1732439605202,2024-11-24T09:13:25.202Z,70465,0.016655982,0.121564604,-0.02618357
1732439605210,2024-11-24T09:13:25.210Z,70473,0.023881692,0.1219004,-0.050132316
1732439605213,2024-11-24T09:13:25.213Z,70476,0.023881692,0.1219004,-0.050132316
1732439605233,2024-11-24T09:13:25.233Z,70496,0.055428408,0.13407017,-0.04684036
1732439605235,2024-11-24T09:13:25.235Z,70498,0.055428408,0.13407017,-0.04684036
1732439605243,2024-11-24T09:13:25.243Z,70506,0.041210037,0.1415035,-0.035722867
1732439605245,2024-11-24T09:13:25.245Z,70508,0.041210037,0.1415035,-0.035722867
1732439605277,2024-11-24T09:13:25.277Z,70540,0.04347117,0.14992952,-0.026550766
1732439605279,2024-11-24T09:13:25.279Z,70542,0.04347117,0.14992952,-0.026550766
1732439605288,2024-11-24T09:13:25.288Z,70551,0.0028238061,0.14189462,-0.025835387
1732439605290,2024-11-24T09:13:25.290Z,70553,0.0028238061,0.14189462,-0.025835387
1732439605298,2024-11-24T09:13:25.298Z,70561,0.02134114,0.15211935,0.0015886143
1732439605301,2024-11-24T09:13:25.301Z,70564,0.02134114,0.15211935,0.0015886143
1732439605324,2024-11-24T09:13:25.324Z,70587,0.011840748,0.14174992,-0.010744997
1732439605329,2024-11-24T09:13:25.329Z,70592,0.011840748,0.14174992,-0.010744997
1732439605342,2024-11-24T09:13:25.342Z,70605,0.026166545,0.11859417,-0.052325398
1732439605345,2024-11-24T09:13:25.345Z,70608,0.026166545,0.11859417,-0.052325398
1732439605352,2024-11-24T09:13:25.352Z,70615,0.043430515,0.111693375,-0.0425137
1732439605354,2024-11-24T09:13:25.354Z,70617,0.043430515,0.111693375,-0.0425137
1732439605366,2024-11-24T09:13:25.366Z,70629,0.03421247,0.10725227,-0.033172302
1732439605374,2024-11-24T09:13:25.374Z,70637,0.03421247,0.10725227,-0.033172302
1732439605380,2024-11-24T09:13:25.380Z,70643,0.016071,0.092082016,-0.01605217
1732439605383,2024-11-24T09:13:25.383Z,70646,0.016071,0.092082016,-0.01605217
1732439605391,2024-11-24T09:13:25.391Z,70654,-0.0066740983,0.091559306,-0.0043876222
1732439605394,2024-11-24T09:13:25.394Z,70657,-0.0066740983,0.091559306,-0.0043876222
1732439605404,2024-11-24T09:13:25.404Z,70667,0.016228808,0.0938879,-0.0036697397
1732439605406,2024-11-24T09:13:25.406Z,70669,0.016228808,0.0938879,-0.0036697397
1732439605414,2024-11-24T09:13:25.414Z,70677,0.010674954,0.092535384,-0.03274362
1732439605417,2024-11-24T09:13:25.417Z,70680,0.010674954,0.092535384,-0.03274362
1732439605424,2024-11-24T09:13:25.424Z,70687,0.015441235,0.09606985,-0.03677066
1732439605426,2024-11-24T09:13:25.426Z,70689,0.015441235,0.09606985,-0.03677066
1732439605433,2024-11-24T09:13:25.433Z,70696,0.029261254,0.09086924,-0.0416576
1732439605436,2024-11-24T09:13:25.436Z,70699,0.029261254,0.09086924,-0.0416576
1732439605459,2024-11-24T09:13:25.459Z,70722,0.017772287,0.08208067,-0.05280636
1732439605462,2024-11-24T09:13:25.462Z,70725,0.017772287,0.08208067,-0.05280636
1732439605469,2024-11-24T09:13:25.469Z,70732,0.009594326,0.07659969,-0.041718066
1732439605472,2024-11-24T09:13:25.472Z,70735,0.009594326,0.07659969,-0.041718066
1732439605479,2024-11-24T09:13:25.479Z,70742,-0.0037717647,0.07755632,-0.04188983
1732439605481,2024-11-24T09:13:25.481Z,70744,-0.0037717647,0.07755632,-0.04188983
1732439605502,2024-11-24T09:13:25.502Z,70765,-0.0014531969,0.07743427,-0.03267735
1732439605505,2024-11-24T09:13:25.505Z,70768,-0.0014531969,0.07743427,-0.03267735
1732439605512,2024-11-24T09:13:25.512Z,70775,-0.0106513845,0.07490136,-0.04106128
1732439605515,2024-11-24T09:13:25.515Z,70778,-0.0106513845,0.07490136,-0.04106128
1732439605523,2024-11-24T09:13:25.523Z,70786,-0.0047543193,0.06646998,-0.035462935
1732439605526,2024-11-24T09:13:25.526Z,70789,-0.0047543193,0.06646998,-0.035462935
1732439605548,2024-11-24T09:13:25.548Z,70811,-0.009374825,0.06754641,-0.015159654
1732439605551,2024-11-24T09:13:25.551Z,70814,-0.009374825,0.06754641,-0.015159654
1732439605560,2024-11-24T09:13:25.560Z,70823,-0.017393058,0.064850904,-0.024823913
1732439605562,2024-11-24T09:13:25.562Z,70825,-0.017393058,0.064850904,-0.024823913
1732439605571,2024-11-24T09:13:25.571Z,70834,-0.021805855,0.06018739,-0.042260427
1732439605574,2024-11-24T09:13:25.574Z,70837,-0.021805855,0.06018739,-0.042260427
1732439605594,2024-11-24T09:13:25.594Z,70857,-0.008981933,0.057419915,-0.046129223
1732439605597,2024-11-24T09:13:25.597Z,70860,-0.008981933,0.057419915,-0.046129223
1732439605608,2024-11-24T09:13:25.608Z,70871,-0.0131988125,0.055712536,-0.0513735
1732439605610,2024-11-24T09:13:25.610Z,70873,-0.0131988125,0.055712536,-0.0513735
1732439605619,2024-11-24T09:13:25.619Z,70882,-0.012552382,0.0642751,-0.04386215
1732439605623,2024-11-24T09:13:25.623Z,70886,-0.012552382,0.0642751,-0.04386215
1732439605639,2024-11-24T09:13:25.639Z,70902,-0.020105125,0.054646507,-0.00966883
1732439605642,2024-11-24T09:13:25.642Z,70905,-0.020105125,0.054646507,-0.00966883
1732439605650,2024-11-24T09:13:25.650Z,70913,-0.007305686,0.048147928,-0.022643693
1732439605653,2024-11-24T09:13:25.653Z,70916,-0.007305686,0.048147928,-0.022643693
1732439605662,2024-11-24T09:13:25.662Z,70925,-0.020360038,0.04025705,-0.041665442
1732439605664,2024-11-24T09:13:25.664Z,70927,-0.020360038,0.04025705,-0.041665442
1732439605686,2024-11-24T09:13:25.686Z,70949,-0.024087798,0.028607458,-0.0027233493
1732439605688,2024-11-24T09:13:25.688Z,70951,-0.024087798,0.028607458,-0.0027233493
1732439605697,2024-11-24T09:13:25.697Z,70960,-0.034322012,0.021278286,0.019727478
1732439605699,2024-11-24T09:13:25.699Z,70962,-0.034322012,0.021278286,0.019727478
1732439605708,2024-11-24T09:13:25.708Z,70971,-0.0047735134,0.02127459,0.021051042
1732439605710,2024-11-24T09:13:25.710Z,70973,-0.0047735134,0.02127459,0.021051042
1732439605730,2024-11-24T09:13:25.730Z,70993,-0.020794284,0.009589014,0.0066252192
1732439605733,2024-11-24T09:13:25.733Z,70996,-0.020794284,0.009589014,0.0066252192
1732439605742,2024-11-24T09:13:25.742Z,71005,-0.021630201,0.007349107,0.016326506
1732439605744,2024-11-24T09:13:25.744Z,71007,-0.021630201,0.007349107,0.016326506
1732439605753,2024-11-24T09:13:25.753Z,71016,-0.019315949,1.660991E-4,0.021753268
1732439605755,2024-11-24T09:13:25.755Z,71018,-0.019315949,1.660991E-4,0.021753268
1732439605773,2024-11-24T09:13:25.773Z,71036,-0.027387436,-0.018172972,-0.0167048
1732439605776,2024-11-24T09:13:25.776Z,71039,-0.027387436,-0.018172972,-0.0167048
1732439605784,2024-11-24T09:13:25.784Z,71047,-0.0055074664,-0.02044215,-0.017223688
1732439605786,2024-11-24T09:13:25.786Z,71049,-0.0055074664,-0.02044215,-0.017223688
1732439605794,2024-11-24T09:13:25.794Z,71057,-0.004852746,-0.01929492,-0.0051584807
1732439605796,2024-11-24T09:13:25.796Z,71059,-0.004852746,-0.01929492,-0.0051584807
1732439605819,2024-11-24T09:13:25.819Z,71082,0.0027193744,-0.030604828,-0.021027144
1732439605822,2024-11-24T09:13:25.822Z,71085,0.0027193744,-0.030604828,-0.021027144
1732439605830,2024-11-24T09:13:25.830Z,71093,0.002868151,-0.031682234,0.00313478
1732439605833,2024-11-24T09:13:25.833Z,71096,0.002868151,-0.031682234,0.00313478
1732439605842,2024-11-24T09:13:25.842Z,71105,0.011306664,-0.0185854,0.007831237
1732439605844,2024-11-24T09:13:25.844Z,71107,0.011306664,-0.0185854,0.007831237
1732439605863,2024-11-24T09:13:25.863Z,71126,-0.00719114,-0.018742066,0.03894202
1732439605866,2024-11-24T09:13:25.866Z,71129,-0.00719114,-0.018742066,0.03894202
1732439605876,2024-11-24T09:13:25.876Z,71139,0.001239179,-0.014460735,0.03647825
1732439605879,2024-11-24T09:13:25.879Z,71142,0.001239179,-0.014460735,0.03647825
1732439605887,2024-11-24T09:13:25.887Z,71150,-0.021025028,-0.018025253,0.031491727
1732439605889,2024-11-24T09:13:25.889Z,71152,-0.021025028,-0.018025253,0.031491727
1732439605909,2024-11-24T09:13:25.909Z,71172,0.0437293,-0.039825857,-0.006468821
1732439605911,2024-11-24T09:13:25.911Z,71174,0.0437293,-0.039825857,-0.006468821
1732439605923,2024-11-24T09:13:25.923Z,71186,0.031747524,-0.03628108,0.0072809607
1732439605929,2024-11-24T09:13:25.929Z,71192,0.031747524,-0.03628108,0.0072809607
1732439605951,2024-11-24T09:13:25.951Z,71214,0.0031234263,-0.03661639,0.02160093
1732439605958,2024-11-24T09:13:25.958Z,71221,0.0031234263,-0.03661639,0.02160093
1732439605978,2024-11-24T09:13:25.978Z,71241,-0.020332662,-0.025970293,0.014471311
1732439605982,2024-11-24T09:13:25.982Z,71245,-0.020332662,-0.025970293,0.014471311
1732439606001,2024-11-24T09:13:26.001Z,71264,-0.015761448,-0.02667145,-0.005728182
1732439606006,2024-11-24T09:13:26.006Z,71269,-0.015761448,-0.02667145,-0.005728182
1732439606022,2024-11-24T09:13:26.022Z,71285,-0.024936186,-0.024373097,-0.006471471
1732439606025,2024-11-24T09:13:26.025Z,71288,-0.024936186,-0.024373097,-0.006471471
1732439606035,2024-11-24T09:13:26.035Z,71298,0.0036243373,-0.03471189,-0.0063508106
1732439606038,2024-11-24T09:13:26.038Z,71301,0.0036243373,-0.03471189,-0.0063508106
1732439606048,2024-11-24T09:13:26.048Z,71311,0.001443387,-0.028785907,0.0022117049
1732439606050,2024-11-24T09:13:26.050Z,71313,0.001443387,-0.028785907,0.0022117049
1732439606059,2024-11-24T09:13:26.059Z,71322,-0.0017186467,-0.035516422,0.0079853255
1732439606062,2024-11-24T09:13:26.062Z,71325,-0.0017186467,-0.035516422,0.0079853255
1732439606070,2024-11-24T09:13:26.070Z,71333,-0.007293761,-0.040030077,0.0011341028
1732439606073,2024-11-24T09:13:26.073Z,71336,-0.007293761,-0.040030077,0.0011341028
1732439606080,2024-11-24T09:13:26.080Z,71343,0.0073803845,-0.03065841,0.031702343
1732439606084,2024-11-24T09:13:26.084Z,71347,0.0073803845,-0.03065841,0.031702343
1732439606093,2024-11-24T09:13:26.093Z,71356,-0.008448212,-0.028683797,0.0677723
1732439606095,2024-11-24T09:13:26.095Z,71358,-0.008448212,-0.028683797,0.0677723
1732439606102,2024-11-24T09:13:26.102Z,71365,-0.028955616,-0.03528361,0.031415775
1732439606104,2024-11-24T09:13:26.104Z,71367,-0.028955616,-0.03528361,0.031415775
1732439606111,2024-11-24T09:13:26.111Z,71374,-0.024703484,-0.053527575,0.0062693898
1732439606113,2024-11-24T09:13:26.113Z,71376,-0.024703484,-0.053527575,0.0062693898
1732439606120,2024-11-24T09:13:26.120Z,71383,0.008978565,-0.053684726,0.019833185
1732439606122,2024-11-24T09:13:26.122Z,71385,0.008978565,-0.053684726,0.019833185
1732439606136,2024-11-24T09:13:26.136Z,71399,0.007497714,-0.054354277,0.026192553
1732439606139,2024-11-24T09:13:26.139Z,71402,0.007497714,-0.054354277,0.026192553
1732439606146,2024-11-24T09:13:26.146Z,71409,-0.005919736,-0.0489368,0.04356868
1732439606149,2024-11-24T09:13:26.149Z,71412,-0.005919736,-0.0489368,0.04356868
1732439606157,2024-11-24T09:13:26.157Z,71420,-0.018377667,-0.04839134,0.044373233
1732439606159,2024-11-24T09:13:26.159Z,71422,-0.018377667,-0.04839134,0.044373233
1732439606226,2024-11-24T09:13:26.226Z,71489,-0.024203936,-0.030749338,0.061199494
1732439606229,2024-11-24T09:13:26.229Z,71492,-0.024203936,-0.030749338,0.061199494
1732439606238,2024-11-24T09:13:26.238Z,71501,-0.013742221,-0.02685194,0.035627235
1732439606241,2024-11-24T09:13:26.241Z,71504,-0.013742221,-0.02685194,0.035627235
1732439606252,2024-11-24T09:13:26.252Z,71515,-0.019438846,-0.02641423,0.005002204
1732439606255,2024-11-24T09:13:26.255Z,71518,-0.019438846,-0.02641423,0.005002204
1732439606267,2024-11-24T09:13:26.267Z,71530,-0.006352549,-0.03209836,0.01896705
1732439606270,2024-11-24T09:13:26.270Z,71533,-0.006352549,-0.03209836,0.01896705
1732439606280,2024-11-24T09:13:26.280Z,71543,-0.008826081,-0.03271481,0.015565955
1732439606283,2024-11-24T09:13:26.283Z,71546,-0.008826081,-0.03271481,0.015565955
1732439606293,2024-11-24T09:13:26.293Z,71556,-0.010937366,-0.025511675,0.015058785
1732439606296,2024-11-24T09:13:26.296Z,71559,-0.010937366,-0.025511675,0.015058785
1732439606313,2024-11-24T09:13:26.313Z,71576,-0.008870875,-0.020858955,0.016093038
1732439606316,2024-11-24T09:13:26.316Z,71579,-0.008870875,-0.020858955,0.016093038
1732439606325,2024-11-24T09:13:26.325Z,71588,-0.0047151526,-0.030112075,0.019030357
1732439606328,2024-11-24T09:13:26.328Z,71591,-0.0047151526,-0.030112075,0.019030357
1732439606337,2024-11-24T09:13:26.337Z,71600,-0.0074707638,-0.032009475,0.0230259
1732439606339,2024-11-24T09:13:26.339Z,71602,-0.0074707638,-0.032009475,0.0230259
1732439606358,2024-11-24T09:13:26.358Z,71621,-0.021478215,-0.042875543,0.0148496535
1732439606361,2024-11-24T09:13:26.361Z,71624,-0.021478215,-0.042875543,0.0148496535
1732439606370,2024-11-24T09:13:26.370Z,71633,-0.014728726,-0.051518437,0.02228215
1732439606372,2024-11-24T09:13:26.372Z,71635,-0.014728726,-0.051518437,0.02228215
1732439606381,2024-11-24T09:13:26.381Z,71644,1.8603487E-4,-0.05282564,0.01897067
1732439606383,2024-11-24T09:13:26.383Z,71646,1.8603487E-4,-0.05282564,0.01897067
1732439606405,2024-11-24T09:13:26.405Z,71668,8.3547944E-5,-0.0550707,0.053240232
1732439606408,2024-11-24T09:13:26.408Z,71671,8.3547944E-5,-0.0550707,0.053240232
1732439606417,2024-11-24T09:13:26.417Z,71680,-0.002907196,-0.05217058,0.071189605
1732439606420,2024-11-24T09:13:26.420Z,71683,-0.002907196,-0.05217058,0.071189605
1732439606453,2024-11-24T09:13:26.453Z,71716,0.0011386127,-0.047948085,0.0682491
1732439606460,2024-11-24T09:13:26.460Z,71723,0.0011386127,-0.047948085,0.0682491
1732439606486,2024-11-24T09:13:26.486Z,71749,-0.0068134423,-0.047906753,0.03684383
1732439606493,2024-11-24T09:13:26.493Z,71756,-0.0068134423,-0.047906753,0.03684383
1732439606515,2024-11-24T09:13:26.515Z,71778,0.025011808,-0.04819762,0.031156393
1732439606520,2024-11-24T09:13:26.520Z,71783,0.025011808,-0.04819762,0.031156393
1732439606533,2024-11-24T09:13:26.533Z,71796,0.027485808,-0.046431214,0.018012367
1732439606537,2024-11-24T09:13:26.537Z,71800,0.027485808,-0.046431214,0.018012367
1732439606550,2024-11-24T09:13:26.550Z,71813,0.016204204,-0.04702131,0.018200712
1732439606554,2024-11-24T09:13:26.554Z,71817,0.016204204,-0.04702131,0.018200712
1732439606564,2024-11-24T09:13:26.564Z,71827,0.019716512,-0.054270934,0.028124014
1732439606568,2024-11-24T09:13:26.568Z,71831,0.019716512,-0.054270934,0.028124014
1732439606579,2024-11-24T09:13:26.579Z,71842,0.011829893,-0.055128757,0.041716862
1732439606582,2024-11-24T09:13:26.582Z,71845,0.011829893,-0.055128757,0.041716862
1732439606591,2024-11-24T09:13:26.591Z,71854,0.019601736,-0.044093378,0.05211967
1732439606594,2024-11-24T09:13:26.594Z,71857,0.019601736,-0.044093378,0.05211967
1732439606605,2024-11-24T09:13:26.605Z,71868,0.016836109,-0.039665204,0.041607264
1732439606608,2024-11-24T09:13:26.608Z,71871,0.016836109,-0.039665204,0.041607264
1732439606621,2024-11-24T09:13:26.621Z,71884,0.004623922,-0.037623197,0.00744475
1732439606625,2024-11-24T09:13:26.625Z,71888,0.004623922,-0.037623197,0.00744475
1732439606634,2024-11-24T09:13:26.634Z,71897,0.023835178,-0.0353935,0.018734796
1732439606637,2024-11-24T09:13:26.637Z,71900,0.023835178,-0.0353935,0.018734796
1732439606645,2024-11-24T09:13:26.645Z,71908,0.028237868,-0.034265425,0.007381928
1732439606647,2024-11-24T09:13:26.647Z,71910,0.028237868,-0.034265425,0.007381928
1732439606658,2024-11-24T09:13:26.658Z,71921,0.0029281653,-0.029720847,0.008741038
1732439606663,2024-11-24T09:13:26.663Z,71926,0.0029281653,-0.029720847,0.008741038
1732439606681,2024-11-24T09:13:26.681Z,71944,0.015155759,-0.02751838,0.025547972
1732439606687,2024-11-24T09:13:26.687Z,71950,0.015155759,-0.02751838,0.025547972
1732439606705,2024-11-24T09:13:26.705Z,71968,0.007208681,-0.023042068,0.02675783
1732439606711,2024-11-24T09:13:26.711Z,71974,0.007208681,-0.023042068,0.02675783
1732439606726,2024-11-24T09:13:26.726Z,71989,0.015354995,-0.02201698,0.020040931
1732439606729,2024-11-24T09:13:26.729Z,71992,0.015354995,-0.02201698,0.020040931
1732439606745,2024-11-24T09:13:26.745Z,72008,0.0030661353,-0.043231666,0.0284443
1732439606752,2024-11-24T09:13:26.752Z,72015,0.0030661353,-0.043231666,0.0284443
1732439606775,2024-11-24T09:13:26.775Z,72038,0.0015562734,-0.049248967,0.040609866
1732439606781,2024-11-24T09:13:26.781Z,72044,0.0015562734,-0.049248967,0.040609866
1732439606797,2024-11-24T09:13:26.797Z,72060,0.0075174184,-0.05485345,0.05500841
1732439606801,2024-11-24T09:13:26.801Z,72064,0.0075174184,-0.05485345,0.05500841
1732439606814,2024-11-24T09:13:26.814Z,72077,0.008290496,-0.057790913,0.030515458
1732439606817,2024-11-24T09:13:26.817Z,72080,0.008290496,-0.057790913,0.030515458
1732439606829,2024-11-24T09:13:26.829Z,72092,5.07706E-4,-0.072570235,0.028144559
1732439606832,2024-11-24T09:13:26.832Z,72095,5.07706E-4,-0.072570235,0.028144559
1732439606844,2024-11-24T09:13:26.844Z,72107,0.009749339,-0.071153626,0.011376694
1732439606847,2024-11-24T09:13:26.847Z,72110,0.009749339,-0.071153626,0.011376694
1732439606859,2024-11-24T09:13:26.859Z,72122,0.0068170405,-0.07140005,0.038888317
1732439606862,2024-11-24T09:13:26.862Z,72125,0.0068170405,-0.07140005,0.038888317
1732439606871,2024-11-24T09:13:26.871Z,72134,0.01151571,-0.07429667,0.0496903
1732439606874,2024-11-24T09:13:26.874Z,72137,0.01151571,-0.07429667,0.0496903
1732439606882,2024-11-24T09:13:26.882Z,72145,0.012472676,-0.07044469,0.04400972
1732439606884,2024-11-24T09:13:26.884Z,72147,0.012472676,-0.07044469,0.04400972
1732439606892,2024-11-24T09:13:26.892Z,72155,-0.010647822,-0.09896326,0.058517523
1732439606895,2024-11-24T09:13:26.895Z,72158,-0.010647822,-0.09896326,0.058517523
1732439606902,2024-11-24T09:13:26.902Z,72165,-0.018176224,-0.09847916,0.059234653
1732439606904,2024-11-24T09:13:26.904Z,72167,-0.018176224,-0.09847916,0.059234653
1732439606912,2024-11-24T09:13:26.912Z,72175,-0.03311225,-0.101399414,0.042897087
1732439606915,2024-11-24T09:13:26.915Z,72178,-0.03311225,-0.101399414,0.042897087
1732439606923,2024-11-24T09:13:26.923Z,72186,-0.011342627,-0.11140922,0.025580306
1732439606926,2024-11-24T09:13:26.926Z,72189,-0.011342627,-0.11140922,0.025580306
1732439606933,2024-11-24T09:13:26.933Z,72196,-0.008654773,-0.111637555,0.03447356
1732439606935,2024-11-24T09:13:26.935Z,72198,-0.008654773,-0.111637555,0.03447356
1732439606943,2024-11-24T09:13:26.943Z,72206,0.0072840364,-0.1166676,0.034360245
1732439606945,2024-11-24T09:13:26.945Z,72208,0.0072840364,-0.1166676,0.034360245
1732439606952,2024-11-24T09:13:26.952Z,72215,-0.0069930465,-0.106990576,0.043020956
1732439606954,2024-11-24T09:13:26.954Z,72217,-0.0069930465,-0.106990576,0.043020956
1732439606961,2024-11-24T09:13:26.961Z,72224,-0.0063892053,-0.10943548,0.04917547
1732439606963,2024-11-24T09:13:26.963Z,72226,-0.0063892053,-0.10943548,0.04917547
1732439606986,2024-11-24T09:13:26.986Z,72249,1.9211286E-4,-0.099711485,0.049868483
1732439606988,2024-11-24T09:13:26.988Z,72251,1.9211286E-4,-0.099711485,0.049868483
1732439606995,2024-11-24T09:13:26.995Z,72258,-0.006007824,-0.08652382,0.03492693
1732439606997,2024-11-24T09:13:26.997Z,72260,-0.006007824,-0.08652382,0.03492693
1732439607005,2024-11-24T09:13:27.005Z,72268,-0.00855538,-0.085359275,0.037894443
1732439607007,2024-11-24T09:13:27.007Z,72270,-0.00855538,-0.085359275,0.037894443
1732439607032,2024-11-24T09:13:27.032Z,72295,-0.0100196265,-0.07497721,0.034356743
1732439607035,2024-11-24T09:13:27.035Z,72298,-0.0100196265,-0.07497721,0.034356743
1732439607043,2024-11-24T09:13:27.043Z,72306,6.313747E-4,-0.05622921,0.026108483
1732439607045,2024-11-24T09:13:27.045Z,72308,6.313747E-4,-0.05622921,0.026108483
1732439607052,2024-11-24T09:13:27.052Z,72315,0.0024093485,-0.048794527,0.015171567
1732439607055,2024-11-24T09:13:27.055Z,72318,0.0024093485,-0.048794527,0.015171567
1732439607062,2024-11-24T09:13:27.062Z,72325,0.0060503273,-0.051568225,0.0019167768
1732439607064,2024-11-24T09:13:27.064Z,72327,0.0060503273,-0.051568225,0.0019167768
1732439607079,2024-11-24T09:13:27.079Z,72342,0.010863098,-0.04621552,-0.004680119
1732439607081,2024-11-24T09:13:27.081Z,72344,0.010863098,-0.04621552,-0.004680119
1732439607092,2024-11-24T09:13:27.092Z,72355,0.0051506646,-0.046228647,0.006934613
1732439607094,2024-11-24T09:13:27.094Z,72357,0.0051506646,-0.046228647,0.006934613
1732439607101,2024-11-24T09:13:27.101Z,72364,0.009242368,-0.047687847,0.004451952
1732439607104,2024-11-24T09:13:27.104Z,72367,0.009242368,-0.047687847,0.004451952
1732439607123,2024-11-24T09:13:27.123Z,72386,0.006657676,-0.048699614,0.017900094
1732439607125,2024-11-24T09:13:27.125Z,72388,0.006657676,-0.048699614,0.017900094
1732439607133,2024-11-24T09:13:27.133Z,72396,-0.0024239114,-0.04882098,0.022856155
1732439607135,2024-11-24T09:13:27.135Z,72398,-0.0024239114,-0.04882098,0.022856155
1732439607144,2024-11-24T09:13:27.144Z,72407,0.0047669616,-0.046079956,0.027643975
1732439607147,2024-11-24T09:13:27.147Z,72410,0.0047669616,-0.046079956,0.027643975
1732439607168,2024-11-24T09:13:27.168Z,72431,-0.003521437,-0.049459603,0.005931065
1732439607170,2024-11-24T09:13:27.170Z,72433,-0.003521437,-0.049459603,0.005931065
1732439607180,2024-11-24T09:13:27.180Z,72443,0.010897995,-0.055640865,0.006990628
1732439607183,2024-11-24T09:13:27.183Z,72446,0.010897995,-0.055640865,0.006990628
1732439607212,2024-11-24T09:13:27.212Z,72475,0.020413624,-0.052048534,0.011490425
1732439607216,2024-11-24T09:13:27.216Z,72479,0.020413624,-0.052048534,0.011490425
1732439607225,2024-11-24T09:13:27.225Z,72488,1.00499434E-4,-0.053797048,0.01997823
1732439607234,2024-11-24T09:13:27.234Z,72497,1.00499434E-4,-0.053797048,0.01997823
1732439607244,2024-11-24T09:13:27.244Z,72507,0.0055509056,-0.056995623,0.022142649
1732439607247,2024-11-24T09:13:27.247Z,72510,0.0055509056,-0.056995623,0.022142649
1732439607256,2024-11-24T09:13:27.256Z,72519,0.004106388,-0.047977842,0.02872007
1732439607258,2024-11-24T09:13:27.258Z,72521,0.004106388,-0.047977842,0.02872007
1732439607266,2024-11-24T09:13:27.266Z,72529,-0.0046074083,-0.047729857,0.029017333
1732439607268,2024-11-24T09:13:27.268Z,72531,-0.0046074083,-0.047729857,0.029017333
1732439607276,2024-11-24T09:13:27.276Z,72539,-0.0140963355,-0.048734624,0.030603345
1732439607279,2024-11-24T09:13:27.279Z,72542,-0.0140963355,-0.048734624,0.030603345
1732439607287,2024-11-24T09:13:27.287Z,72550,-0.0084044635,-0.04270079,0.03425111
1732439607290,2024-11-24T09:13:27.290Z,72553,-0.0084044635,-0.04270079,0.03425111
1732439607302,2024-11-24T09:13:27.302Z,72565,3.594154E-4,-0.04404913,0.043624256
1732439607304,2024-11-24T09:13:27.304Z,72567,3.594154E-4,-0.04404913,0.043624256
1732439607312,2024-11-24T09:13:27.312Z,72575,9.180549E-4,-0.04330917,0.026704052
1732439607315,2024-11-24T09:13:27.315Z,72578,9.180549E-4,-0.04330917,0.026704052
1732439607323,2024-11-24T09:13:27.323Z,72586,0.0011467998,-0.03736578,0.031177763
1732439607326,2024-11-24T09:13:27.326Z,72589,0.0011467998,-0.03736578,0.031177763
1732439607355,2024-11-24T09:13:27.355Z,72618,-0.008294847,-0.043614432,0.026444426
1732439607363,2024-11-24T09:13:27.363Z,72626,-0.008294847,-0.043614432,0.026444426
1732439607383,2024-11-24T09:13:27.383Z,72646,-0.012720032,-0.035089117,0.03276108
1732439607389,2024-11-24T09:13:27.389Z,72652,-0.012720032,-0.035089117,0.03276108
1732439607403,2024-11-24T09:13:27.403Z,72666,-0.010611944,-0.03596162,0.040341828
1732439607406,2024-11-24T09:13:27.406Z,72669,-0.010611944,-0.03596162,0.040341828
1732439607414,2024-11-24T09:13:27.414Z,72677,-0.01854181,-0.043634564,0.024641039
1732439607417,2024-11-24T09:13:27.417Z,72680,-0.01854181,-0.043634564,0.024641039
1732439607426,2024-11-24T09:13:27.426Z,72689,-0.0051325033,-0.02864762,0.03844771
1732439607429,2024-11-24T09:13:27.429Z,72692,-0.0051325033,-0.02864762,0.03844771
1732439607436,2024-11-24T09:13:27.436Z,72699,9.893618E-4,-0.023413943,0.047399193
1732439607439,2024-11-24T09:13:27.439Z,72702,9.893618E-4,-0.023413943,0.047399193
1732439607447,2024-11-24T09:13:27.447Z,72710,0.008547782,-0.01717735,0.03836539
1732439607449,2024-11-24T09:13:27.449Z,72712,0.008547782,-0.01717735,0.03836539
1732439607456,2024-11-24T09:13:27.456Z,72719,-0.005793642,-0.006442564,0.026754815
1732439607459,2024-11-24T09:13:27.459Z,72722,-0.005793642,-0.006442564,0.026754815
1732439607467,2024-11-24T09:13:27.467Z,72730,0.012073845,-0.0014889598,0.035729855
1732439607471,2024-11-24T09:13:27.471Z,72734,0.012073845,-0.0014889598,0.035729855
1732439607478,2024-11-24T09:13:27.478Z,72741,-0.0056222733,-3.809193E-4,0.026842412
1732439607480,2024-11-24T09:13:27.480Z,72743,-0.0056222733,-3.809193E-4,0.026842412
1732439607486,2024-11-24T09:13:27.486Z,72749,0.0056498675,-0.004028195,0.032671683
1732439607489,2024-11-24T09:13:27.489Z,72752,0.0056498675,-0.004028195,0.032671683
1732439607528,2024-11-24T09:13:27.528Z,72791,0.0032728172,-0.009069711,0.033430457
1732439607530,2024-11-24T09:13:27.530Z,72793,0.0032728172,-0.009069711,0.033430457
1732439607540,2024-11-24T09:13:27.540Z,72803,0.0047213524,-0.0121441,0.04300233
1732439607543,2024-11-24T09:13:27.543Z,72806,0.0047213524,-0.0121441,0.04300233
1732439607552,2024-11-24T09:13:27.552Z,72815,-0.008778819,-0.014771053,0.03128357
1732439607555,2024-11-24T09:13:27.555Z,72818,-0.008778819,-0.014771053,0.03128357
1732439607573,2024-11-24T09:13:27.573Z,72836,-0.008188112,-0.013841559,0.030949717
1732439607575,2024-11-24T09:13:27.575Z,72838,-0.008188112,-0.013841559,0.030949717
1732439607583,2024-11-24T09:13:27.583Z,72846,-0.012497268,-0.011448001,0.024760703
1732439607586,2024-11-24T09:13:27.586Z,72849,-0.012497268,-0.011448001,0.024760703
1732439607595,2024-11-24T09:13:27.595Z,72858,-0.0056222794,-0.02024357,0.014591339
1732439607597,2024-11-24T09:13:27.597Z,72860,-0.0056222794,-0.02024357,0.014591339
1732439607619,2024-11-24T09:13:27.619Z,72882,-0.027143296,0.008574331,0.02946173
1732439607622,2024-11-24T09:13:27.622Z,72885,-0.027143296,0.008574331,0.02946173
1732439607638,2024-11-24T09:13:27.638Z,72901,-0.022105414,0.016129408,0.013480964
1732439607644,2024-11-24T09:13:27.644Z,72907,-0.022105414,0.016129408,0.013480964
1732439607711,2024-11-24T09:13:27.711Z,72974,-0.017810153,0.029676307,0.0041666757
1732439607716,2024-11-24T09:13:27.716Z,72979,-0.017810153,0.029676307,0.0041666757
1732439607737,2024-11-24T09:13:27.737Z,73000,-0.0072877193,0.035319105,-6.6534453E-4
1732439607743,2024-11-24T09:13:27.743Z,73006,-0.0072877193,0.035319105,-6.6534453E-4
1732439607757,2024-11-24T09:13:27.757Z,73020,-0.0025356978,0.046896543,-0.004641293
1732439607761,2024-11-24T09:13:27.761Z,73024,-0.0025356978,0.046896543,-0.004641293
1732439607774,2024-11-24T09:13:27.774Z,73037,-0.0032036193,0.053086653,-0.012584438
1732439607778,2024-11-24T09:13:27.778Z,73041,-0.0032036193,0.053086653,-0.012584438
1732439607799,2024-11-24T09:13:27.799Z,73062,0.011065295,0.07528266,-0.033099353
1732439607805,2024-11-24T09:13:27.805Z,73068,0.011065295,0.07528266,-0.033099353
1732439607824,2024-11-24T09:13:27.824Z,73087,0.011303576,0.074839704,-0.044491973
1732439607829,2024-11-24T09:13:27.829Z,73092,0.011303576,0.074839704,-0.044491973
1732439607842,2024-11-24T09:13:27.842Z,73105,0.004664049,0.07741891,-0.052173957
1732439607847,2024-11-24T09:13:27.847Z,73110,0.004664049,0.07741891,-0.052173957
1732439607859,2024-11-24T09:13:27.859Z,73122,-0.0022400524,0.049701944,0.0022112671
1732439607863,2024-11-24T09:13:27.863Z,73126,-0.0022400524,0.049701944,0.0022112671
1732439607873,2024-11-24T09:13:27.873Z,73136,0.0057661575,0.04460004,-0.015022219
1732439607876,2024-11-24T09:13:27.876Z,73139,0.0057661575,0.04460004,-0.015022219
1732439607895,2024-11-24T09:13:27.895Z,73158,-0.018060675,0.021698786,-0.02074814
1732439607897,2024-11-24T09:13:27.897Z,73160,-0.018060675,0.021698786,-0.02074814
1732439607905,2024-11-24T09:13:27.905Z,73168,0.0022192537,0.016254859,-0.03465765
1732439607912,2024-11-24T09:13:27.912Z,73175,0.0022192537,0.016254859,-0.03465765
1732439607925,2024-11-24T09:13:27.925Z,73188,0.02611459,0.019905634,-0.02649604
1732439607928,2024-11-24T09:13:27.928Z,73191,0.02611459,0.019905634,-0.02649604
1732439607935,2024-11-24T09:13:27.935Z,73198,0.0068350798,0.018161109,-0.0155794
1732439607937,2024-11-24T09:13:27.937Z,73200,0.0068350798,0.018161109,-0.0155794
1732439607945,2024-11-24T09:13:27.945Z,73208,-0.013744384,0.036763135,-0.02019728
1732439607948,2024-11-24T09:13:27.948Z,73211,-0.013744384,0.036763135,-0.02019728
1732439607977,2024-11-24T09:13:27.977Z,73240,-0.017935881,0.040794346,-0.017693615
1732439607979,2024-11-24T09:13:27.979Z,73242,-0.017935881,0.040794346,-0.017693615
1732439607987,2024-11-24T09:13:27.987Z,73250,-0.0072617787,0.038432978,-0.023073794
1732439607989,2024-11-24T09:13:27.989Z,73252,-0.0072617787,0.038432978,-0.023073794
1732439607997,2024-11-24T09:13:27.997Z,73260,-0.006510139,0.043330763,-0.006847795
1732439608000,2024-11-24T09:13:28Z,73263,-0.006510139,0.043330763,-0.006847795
1732439608024,2024-11-24T09:13:28.024Z,73287,0.007328782,0.041808058,-0.007260855
1732439608027,2024-11-24T09:13:28.027Z,73290,0.007328782,0.041808058,-0.007260855
1732439608034,2024-11-24T09:13:28.034Z,73297,0.010839923,0.044628825,-0.01814854
1732439608037,2024-11-24T09:13:28.037Z,73300,0.010839923,0.044628825,-0.01814854
1732439608045,2024-11-24T09:13:28.045Z,73308,-0.0039470904,0.04964924,-0.022981022
1732439608047,2024-11-24T09:13:28.047Z,73310,-0.0039470904,0.04964924,-0.022981022
1732439608068,2024-11-24T09:13:28.068Z,73331,-0.008675371,0.045165047,-0.019337319
1732439608071,2024-11-24T09:13:28.071Z,73334,-0.008675371,0.045165047,-0.019337319
1732439608080,2024-11-24T09:13:28.080Z,73343,0.011299723,0.05537664,-0.030743966
1732439608082,2024-11-24T09:13:28.082Z,73345,0.011299723,0.05537664,-0.030743966
1732439608092,2024-11-24T09:13:28.092Z,73355,0.0034270945,0.06420012,-0.017949035
1732439608095,2024-11-24T09:13:28.095Z,73358,0.0034270945,0.06420012,-0.017949035
1732439608111,2024-11-24T09:13:28.111Z,73374,-0.0024051669,0.075447015,-0.0032268008
1732439608114,2024-11-24T09:13:28.114Z,73377,-0.0024051669,0.075447015,-0.0032268008
1732439608122,2024-11-24T09:13:28.122Z,73385,-0.008504568,0.09662611,-0.009273882
1732439608124,2024-11-24T09:13:28.124Z,73387,-0.008504568,0.09662611,-0.009273882
1732439608131,2024-11-24T09:13:28.131Z,73394,-0.008445235,0.10700419,-0.010249836
1732439608133,2024-11-24T09:13:28.133Z,73396,-0.008445235,0.10700419,-0.010249836
1732439608157,2024-11-24T09:13:28.157Z,73420,0.0042884904,0.1086397,-0.012527037
1732439608159,2024-11-24T09:13:28.159Z,73422,0.0042884904,0.1086397,-0.012527037
1732439608168,2024-11-24T09:13:28.168Z,73431,-0.010811004,0.101325504,-0.025781292
1732439608172,2024-11-24T09:13:28.172Z,73435,-0.010811004,0.101325504,-0.025781292
1732439608181,2024-11-24T09:13:28.181Z,73444,-0.0069168895,0.10214112,-0.02064693
1732439608183,2024-11-24T09:13:28.183Z,73446,-0.0069168895,0.10214112,-0.02064693
1732439608191,2024-11-24T09:13:28.191Z,73454,-6.675448E-4,0.10642372,-0.0138959205
1732439608194,2024-11-24T09:13:28.194Z,73457,-6.675448E-4,0.10642372,-0.0138959205
1732439608203,2024-11-24T09:13:28.203Z,73466,-0.0031085354,0.11203793,-0.0032875806
1732439608206,2024-11-24T09:13:28.206Z,73469,-0.0031085354,0.11203793,-0.0032875806
1732439608215,2024-11-24T09:13:28.215Z,73478,-0.016517403,0.113802195,-0.0024974186
1732439608217,2024-11-24T09:13:28.217Z,73480,-0.016517403,0.113802195,-0.0024974186
1732439608224,2024-11-24T09:13:28.224Z,73487,-0.0082173105,0.108749494,-0.026912455
1732439608227,2024-11-24T09:13:28.227Z,73490,-0.0082173105,0.108749494,-0.026912455
1732439608249,2024-11-24T09:13:28.249Z,73512,0.017646497,0.12067041,-0.041832197
1732439608252,2024-11-24T09:13:28.252Z,73515,0.017646497,0.12067041,-0.041832197
1732439608261,2024-11-24T09:13:28.261Z,73524,0.022665482,0.116283566,-0.049062215
1732439608263,2024-11-24T09:13:28.263Z,73526,0.022665482,0.116283566,-0.049062215
1732439608271,2024-11-24T09:13:28.271Z,73534,0.039877567,0.11487523,-0.060964543
1732439608273,2024-11-24T09:13:28.273Z,73536,0.039877567,0.11487523,-0.060964543
1732439608292,2024-11-24T09:13:28.292Z,73555,0.053531427,0.11472789,-0.06704645
1732439608294,2024-11-24T09:13:28.294Z,73557,0.053531427,0.11472789,-0.06704645
1732439608303,2024-11-24T09:13:28.303Z,73566,0.051105183,0.11203462,-0.08281659
1732439608306,2024-11-24T09:13:28.306Z,73569,0.051105183,0.11203462,-0.08281659
1732439608314,2024-11-24T09:13:28.314Z,73577,0.044019304,0.11035778,-0.057500422
1732439608316,2024-11-24T09:13:28.316Z,73579,0.044019304,0.11035778,-0.057500422
1732439608338,2024-11-24T09:13:28.338Z,73601,0.03973132,0.09359344,-0.03832134
1732439608340,2024-11-24T09:13:28.340Z,73603,0.03973132,0.09359344,-0.03832134
1732439608349,2024-11-24T09:13:28.349Z,73612,0.021849543,0.07423715,-0.040171232
1732439608352,2024-11-24T09:13:28.352Z,73615,0.021849543,0.07423715,-0.040171232
1732439608383,2024-11-24T09:13:28.383Z,73646,0.026526982,0.07484106,-0.031949837
1732439608386,2024-11-24T09:13:28.386Z,73649,0.026526982,0.07484106,-0.031949837
1732439608395,2024-11-24T09:13:28.395Z,73658,0.039230537,0.0627947,-0.041397974
1732439608399,2024-11-24T09:13:28.399Z,73662,0.039230537,0.0627947,-0.041397974
1732439608408,2024-11-24T09:13:28.408Z,73671,0.019962477,0.059404545,-0.03861832
1732439608411,2024-11-24T09:13:28.411Z,73674,0.019962477,0.059404545,-0.03861832
1732439608426,2024-11-24T09:13:28.426Z,73689,0.029988527,0.05500992,-0.044245776
1732439608434,2024-11-24T09:13:28.434Z,73697,0.029988527,0.05500992,-0.044245776
1732439608458,2024-11-24T09:13:28.458Z,73721,0.019037979,0.05460459,-0.035939533
1732439608465,2024-11-24T09:13:28.465Z,73728,0.019037979,0.05460459,-0.035939533
1732439608485,2024-11-24T09:13:28.485Z,73748,0.0150511805,0.048697278,-0.029408414
1732439608491,2024-11-24T09:13:28.491Z,73754,0.0150511805,0.048697278,-0.029408414
1732439608510,2024-11-24T09:13:28.510Z,73773,0.015231976,0.035419367,-0.030261897
1732439608518,2024-11-24T09:13:28.518Z,73781,0.015231976,0.035419367,-0.030261897
1732439608535,2024-11-24T09:13:28.535Z,73798,0.022028722,0.023343438,-0.034583766
1732439608539,2024-11-24T09:13:28.539Z,73802,0.022028722,0.023343438,-0.034583766
1732439608552,2024-11-24T09:13:28.552Z,73815,0.024472715,0.01772641,-0.018100146
1732439608555,2024-11-24T09:13:28.555Z,73818,0.024472715,0.01772641,-0.018100146
1732439608569,2024-11-24T09:13:28.569Z,73832,0.012666698,0.012581812,-0.019309215
1732439608573,2024-11-24T09:13:28.573Z,73836,0.012666698,0.012581812,-0.019309215
1732439608583,2024-11-24T09:13:28.583Z,73846,0.019486953,-0.004990753,-0.012681928
1732439608587,2024-11-24T09:13:28.587Z,73850,0.019486953,-0.004990753,-0.012681928
1732439608597,2024-11-24T09:13:28.597Z,73860,0.013434456,-0.0061932206,0.0025839447
1732439608600,2024-11-24T09:13:28.600Z,73863,0.013434456,-0.0061932206,0.0025839447
1732439608608,2024-11-24T09:13:28.608Z,73871,0.01946168,-0.008365054,0.011474853
1732439608611,2024-11-24T09:13:28.611Z,73874,0.01946168,-0.008365054,0.011474853
1732439608623,2024-11-24T09:13:28.623Z,73886,-0.0033051216,-0.011628493,0.02928818
1732439608626,2024-11-24T09:13:28.626Z,73889,-0.0033051216,-0.011628493,0.02928818
1732439608633,2024-11-24T09:13:28.633Z,73896,0.001589757,-0.013505957,0.04029082
1732439608635,2024-11-24T09:13:28.635Z,73898,0.001589757,-0.013505957,0.04029082
1732439608642,2024-11-24T09:13:28.642Z,73905,0.015094596,-3.51745E-4,0.050916765
1732439608644,2024-11-24T09:13:28.644Z,73907,0.015094596,-3.51745E-4,0.050916765
1732439608651,2024-11-24T09:13:28.651Z,73914,0.015920375,0.01100601,0.05287717
1732439608654,2024-11-24T09:13:28.654Z,73917,0.015920375,0.01100601,0.05287717
1732439608661,2024-11-24T09:13:28.661Z,73924,0.017034894,0.013169967,0.05062468
1732439608664,2024-11-24T09:13:28.664Z,73927,0.017034894,0.013169967,0.05062468
1732439608671,2024-11-24T09:13:28.671Z,73934,0.018362327,0.007896515,0.032434203
1732439608674,2024-11-24T09:13:28.674Z,73937,0.018362327,0.007896515,0.032434203
1732439608682,2024-11-24T09:13:28.682Z,73945,0.040191624,0.00602012,-2.0349084E-4
1732439608684,2024-11-24T09:13:28.684Z,73947,0.040191624,0.00602012,-2.0349084E-4
1732439608694,2024-11-24T09:13:28.694Z,73957,0.02493043,0.013115604,0.0045158435
1732439608697,2024-11-24T09:13:28.697Z,73960,0.02493043,0.013115604,0.0045158435
1732439608705,2024-11-24T09:13:28.705Z,73968,-0.0026236947,0.0031763047,0.010941705
1732439608708,2024-11-24T09:13:28.708Z,73971,-0.0026236947,0.0031763047,0.010941705
1732439608790,2024-11-24T09:13:28.790Z,74053,0.0010377911,-0.009287545,-0.02050795
1732439608794,2024-11-24T09:13:28.794Z,74057,0.0010377911,-0.009287545,-0.02050795
1732439608804,2024-11-24T09:13:28.804Z,74067,-0.00740438,-0.009357564,-0.013467131
1732439608810,2024-11-24T09:13:28.810Z,74073,-0.00740438,-0.009357564,-0.013467131
1732439608829,2024-11-24T09:13:28.829Z,74092,-0.019276734,-0.0069303582,0.009981371
1732439608835,2024-11-24T09:13:28.835Z,74098,-0.019276734,-0.0069303582,0.009981371
1732439608851,2024-11-24T09:13:28.851Z,74114,-0.055213388,-0.0185854,-0.01122444
1732439608854,2024-11-24T09:13:28.854Z,74117,-0.055213388,-0.0185854,-0.01122444
1732439608866,2024-11-24T09:13:28.866Z,74129,-0.029130554,-0.016104417,-0.012586383
1732439608869,2024-11-24T09:13:28.869Z,74132,-0.029130554,-0.016104417,-0.012586383
1732439608881,2024-11-24T09:13:28.881Z,74144,-0.026254877,-0.011689662,-0.012888957
1732439608884,2024-11-24T09:13:28.884Z,74147,-0.026254877,-0.011689662,-0.012888957
1732439608894,2024-11-24T09:13:28.894Z,74157,-0.011234591,0.013931999,-0.027355162
1732439608897,2024-11-24T09:13:28.897Z,74160,-0.011234591,0.013931999,-0.027355162
1732439608906,2024-11-24T09:13:28.906Z,74169,0.008417774,0.01583961,-0.040532228
1732439608908,2024-11-24T09:13:28.908Z,74171,0.008417774,0.01583961,-0.040532228
1732439608917,2024-11-24T09:13:28.917Z,74180,0.0058077066,0.021131929,-0.02516332
1732439608919,2024-11-24T09:13:28.919Z,74182,0.0058077066,0.021131929,-0.02516332
1732439608927,2024-11-24T09:13:28.927Z,74190,-0.0030640566,0.02003624,-0.0021258472
1732439608930,2024-11-24T09:13:28.930Z,74193,-0.0030640566,0.02003624,-0.0021258472
1732439608936,2024-11-24T09:13:28.936Z,74199,0.0121334875,0.020216243,-0.022128753
1732439608939,2024-11-24T09:13:28.939Z,74202,0.0121334875,0.020216243,-0.022128753
1732439608947,2024-11-24T09:13:28.947Z,74210,0.018516779,0.014683433,-0.019206472
1732439608949,2024-11-24T09:13:28.949Z,74212,0.018516779,0.014683433,-0.019206472
1732439608957,2024-11-24T09:13:28.957Z,74220,0.025281087,0.018896883,-0.0130730225
1732439608959,2024-11-24T09:13:28.959Z,74222,0.025281087,0.018896883,-0.0130730225
1732439608967,2024-11-24T09:13:28.967Z,74230,-0.0047749234,0.01758404,-0.0070654843
1732439608969,2024-11-24T09:13:28.969Z,74232,-0.0047749234,0.01758404,-0.0070654843
1732439608977,2024-11-24T09:13:28.977Z,74240,-0.004331814,0.013315546,-0.011203861
1732439608979,2024-11-24T09:13:28.979Z,74242,-0.004331814,0.013315546,-0.011203861
1732439608986,2024-11-24T09:13:28.986Z,74249,2.9295874E-5,0.015846709,-0.0077150743
1732439608988,2024-11-24T09:13:28.988Z,74251,2.9295874E-5,0.015846709,-0.0077150743
1732439609018,2024-11-24T09:13:29.018Z,74281,-0.012705475,0.008164918,-0.019494107
1732439609024,2024-11-24T09:13:29.024Z,74287,-0.012705475,0.008164918,-0.019494107
1732439609044,2024-11-24T09:13:29.044Z,74307,0.0050421604,0.0077858465,-0.012708016
1732439609050,2024-11-24T09:13:29.050Z,74313,0.0050421604,0.0077858465,-0.012708016
1732439609067,2024-11-24T09:13:29.067Z,74330,1.8971814E-4,0.0054999418,-0.023851266
1732439609073,2024-11-24T09:13:29.073Z,74336,1.8971814E-4,0.0054999418,-0.023851266
1732439609090,2024-11-24T09:13:29.090Z,74353,-0.018346729,-6.1032665E-4,-0.011887962
1732439609095,2024-11-24T09:13:29.095Z,74358,-0.018346729,-6.1032665E-4,-0.011887962
1732439609108,2024-11-24T09:13:29.108Z,74371,-0.021526206,-0.0042664516,-0.00517088
1732439609111,2024-11-24T09:13:29.111Z,74374,-0.021526206,-0.0042664516,-0.00517088
1732439609125,2024-11-24T09:13:29.125Z,74388,-0.019393152,3.6856884E-4,-0.0073482925
1732439609131,2024-11-24T09:13:29.131Z,74394,-0.019393152,3.6856884E-4,-0.0073482925
1732439609149,2024-11-24T09:13:29.149Z,74412,-0.022791777,-0.002079934,1.7682066E-4
1732439609155,2024-11-24T09:13:29.155Z,74418,-0.022791777,-0.002079934,1.7682066E-4
1732439609167,2024-11-24T09:13:29.167Z,74430,-0.023834843,-0.0038171674,0.0030027907
1732439609170,2024-11-24T09:13:29.170Z,74433,-0.023834843,-0.0038171674,0.0030027907
1732439609180,2024-11-24T09:13:29.180Z,74443,-0.035487294,7.5804594E-4,-0.004475425
1732439609183,2024-11-24T09:13:29.183Z,74446,-0.035487294,7.5804594E-4,-0.004475425
1732439609192,2024-11-24T09:13:29.192Z,74455,-0.014829669,0.0050173015,-0.0052742297
1732439609195,2024-11-24T09:13:29.195Z,74458,-0.014829669,0.0050173015,-0.0052742297
1732439609203,2024-11-24T09:13:29.203Z,74466,-0.021587497,0.0032684957,5.963473E-4
1732439609206,2024-11-24T09:13:29.206Z,74469,-0.021587497,0.0032684957,5.963473E-4
1732439609214,2024-11-24T09:13:29.214Z,74477,-0.010380379,0.005472907,-0.012417791
1732439609216,2024-11-24T09:13:29.216Z,74479,-0.010380379,0.005472907,-0.012417791
1732439609222,2024-11-24T09:13:29.222Z,74485,-0.0042396723,0.0037576517,-0.004196579
1732439609224,2024-11-24T09:13:29.224Z,74487,-0.0042396723,0.0037576517,-0.004196579
1732439609232,2024-11-24T09:13:29.232Z,74495,-0.008925772,0.004289402,6.28828E-4
1732439609234,2024-11-24T09:13:29.234Z,74497,-0.008925772,0.004289402,6.28828E-4
1732439609243,2024-11-24T09:13:29.243Z,74506,-0.0025027792,-0.0015117157,-0.0043502306
1732439609249,2024-11-24T09:13:29.249Z,74512,-0.0025027792,-0.0015117157,-0.0043502306
1732439609258,2024-11-24T09:13:29.258Z,74521,0.0057967906,6.308459E-4,0.017669363
1732439609260,2024-11-24T09:13:29.260Z,74523,0.0057967906,6.308459E-4,0.017669363
1732439609268,2024-11-24T09:13:29.268Z,74531,0.007214893,-0.0022338773,0.017003385
1732439609271,2024-11-24T09:13:29.271Z,74534,0.007214893,-0.0022338773,0.017003385
1732439609280,2024-11-24T09:13:29.280Z,74543,0.005202765,-0.002168624,0.01046795
1732439609283,2024-11-24T09:13:29.283Z,74546,0.005202765,-0.002168624,0.01046795
1732439609290,2024-11-24T09:13:29.290Z,74553,0.011461834,0.004548762,0.027396396
1732439609292,2024-11-24T09:13:29.292Z,74555,0.011461834,0.004548762,0.027396396
1732439609299,2024-11-24T09:13:29.299Z,74562,0.005602003,0.005453457,0.018255718
1732439609301,2024-11-24T09:13:29.301Z,74564,0.005602003,0.005453457,0.018255718
1732439609307,2024-11-24T09:13:29.307Z,74570,0.009073333,0.011263619,0.018567093
1732439609309,2024-11-24T09:13:29.309Z,74572,0.009073333,0.011263619,0.018567093
1732439609328,2024-11-24T09:13:29.328Z,74591,0.022633495,0.022063756,0.008086743
1732439609331,2024-11-24T09:13:29.331Z,74594,0.022633495,0.022063756,0.008086743
1732439609338,2024-11-24T09:13:29.338Z,74601,0.019589968,0.022652883,0.00756056
1732439609340,2024-11-24T09:13:29.340Z,74603,0.019589968,0.022652883,0.00756056
1732439609347,2024-11-24T09:13:29.347Z,74610,0.017047305,0.022288593,0.007659023
1732439609350,2024-11-24T09:13:29.350Z,74613,0.017047305,0.022288593,0.007659023
1732439609372,2024-11-24T09:13:29.372Z,74635,0.009465266,0.03330034,0.018215543
1732439609375,2024-11-24T09:13:29.375Z,74638,0.009465266,0.03330034,0.018215543
1732439609383,2024-11-24T09:13:29.383Z,74646,0.02006416,0.029941987,0.009647848
1732439609385,2024-11-24T09:13:29.385Z,74648,0.02006416,0.029941987,0.009647848
1732439609393,2024-11-24T09:13:29.393Z,74656,0.0014585212,0.02754347,0.012310782
1732439609396,2024-11-24T09:13:29.396Z,74659,0.0014585212,0.02754347,0.012310782
1732439609419,2024-11-24T09:13:29.419Z,74682,0.0062942733,0.022212641,0.006227233
1732439609422,2024-11-24T09:13:29.422Z,74685,0.0062942733,0.022212641,0.006227233
1732439609432,2024-11-24T09:13:29.432Z,74695,0.015906796,0.024254747,0.007088787
1732439609435,2024-11-24T09:13:29.435Z,74698,0.015906796,0.024254747,0.007088787
1732439609444,2024-11-24T09:13:29.444Z,74707,0.0010970272,0.021919927,0.014381186
1732439609447,2024-11-24T09:13:29.447Z,74710,0.0010970272,0.021919927,0.014381186
1732439609462,2024-11-24T09:13:29.462Z,74725,0.011014714,0.023548242,0.023827842
1732439609465,2024-11-24T09:13:29.465Z,74728,0.011014714,0.023548242,0.023827842
1732439609471,2024-11-24T09:13:29.471Z,74734,0.0020776489,0.024100319,0.014320309
1732439609473,2024-11-24T09:13:29.473Z,74736,0.0020776489,0.024100319,0.014320309
1732439609480,2024-11-24T09:13:29.480Z,74743,4.9743423E-4,0.021699077,0.005697403
1732439609483,2024-11-24T09:13:29.483Z,74746,4.9743423E-4,0.021699077,0.005697403
1732439609512,2024-11-24T09:13:29.512Z,74775,0.01800674,0.014534741,0.010141624
1732439609517,2024-11-24T09:13:29.517Z,74780,0.01800674,0.014534741,0.010141624
1732439609535,2024-11-24T09:13:29.535Z,74798,0.023057215,0.015108891,0.0186795
1732439609542,2024-11-24T09:13:29.542Z,74805,0.023057215,0.015108891,0.0186795
1732439609559,2024-11-24T09:13:29.559Z,74822,0.030936904,0.015686251,0.023244161
1732439609563,2024-11-24T09:13:29.563Z,74826,0.030936904,0.015686251,0.023244161
1732439609574,2024-11-24T09:13:29.574Z,74837,0.025279107,0.019339362,0.021504398
1732439609577,2024-11-24T09:13:29.577Z,74840,0.025279107,0.019339362,0.021504398
1732439609588,2024-11-24T09:13:29.588Z,74851,0.0220958,0.024345577,0.010771521
1732439609591,2024-11-24T09:13:29.591Z,74854,0.0220958,0.024345577,0.010771521
1732439609602,2024-11-24T09:13:29.602Z,74865,0.018483654,0.021070857,0.0036094827
1732439609605,2024-11-24T09:13:29.605Z,74868,0.018483654,0.021070857,0.0036094827
1732439609649,2024-11-24T09:13:29.649Z,74912,0.040151503,0.030867299,0.016114505
1732439609655,2024-11-24T09:13:29.655Z,74918,0.040151503,0.030867299,0.016114505
1732439609674,2024-11-24T09:13:29.674Z,74937,0.0244,0.027594233,0.016839184
1732439609680,2024-11-24T09:13:29.680Z,74943,0.0244,0.027594233,0.016839184
1732439609699,2024-11-24T09:13:29.699Z,74962,0.010821385,0.031138718,0.0078879325
1732439609705,2024-11-24T09:13:29.705Z,74968,0.010821385,0.031138718,0.0078879325
1732439609721,2024-11-24T09:13:29.721Z,74984,0.04318138,0.035318717,-0.009462057
1732439609727,2024-11-24T09:13:29.727Z,74990,0.04318138,0.035318717,-0.009462057
1732439609739,2024-11-24T09:13:29.739Z,75002,0.022379592,0.04324178,-0.0022967358
1732439609743,2024-11-24T09:13:29.743Z,75006,0.022379592,0.04324178,-0.0022967358
1732439609754,2024-11-24T09:13:29.754Z,75017,0.026163088,0.05943508,-0.0063783806
1732439609757,2024-11-24T09:13:29.757Z,75020,0.026163088,0.05943508,-0.0063783806
1732439609767,2024-11-24T09:13:29.767Z,75030,0.041368034,0.109070316,-0.030372443
1732439609770,2024-11-24T09:13:29.770Z,75033,0.041368034,0.109070316,-0.030372443
1732439609779,2024-11-24T09:13:29.779Z,75042,0.027755361,0.11398473,-0.04569292
1732439609782,2024-11-24T09:13:29.782Z,75045,0.027755361,0.11398473,-0.04569292
1732439609790,2024-11-24T09:13:29.790Z,75053,0.03912858,0.12283437,-0.034334157
1732439609793,2024-11-24T09:13:29.793Z,75056,0.03912858,0.12283437,-0.034334157
1732439609801,2024-11-24T09:13:29.801Z,75064,0.011874481,0.14329402,-0.032157447
1732439609803,2024-11-24T09:13:29.803Z,75066,0.011874481,0.14329402,-0.032157447
1732439609811,2024-11-24T09:13:29.811Z,75074,0.022596078,0.14272706,-0.048474424
1732439609814,2024-11-24T09:13:29.814Z,75077,0.022596078,0.14272706,-0.048474424
1732439609825,2024-11-24T09:13:29.825Z,75088,0.0192399,0.14356253,-0.05233787
1732439609830,2024-11-24T09:13:29.830Z,75093,0.0192399,0.14356253,-0.05233787
1732439609849,2024-11-24T09:13:29.849Z,75112,0.011169046,0.13110325,-0.05146456
1732439609854,2024-11-24T09:13:29.854Z,75117,0.011169046,0.13110325,-0.05146456
1732439609864,2024-11-24T09:13:29.864Z,75127,0.0150883235,0.12197888,-0.033435136
1732439609868,2024-11-24T09:13:29.868Z,75131,0.0150883235,0.12197888,-0.033435136
1732439609876,2024-11-24T09:13:29.876Z,75139,0.009144263,0.11717931,-0.02848377
1732439609879,2024-11-24T09:13:29.879Z,75142,0.009144263,0.11717931,-0.02848377
1732439609888,2024-11-24T09:13:29.888Z,75151,-0.0032146692,0.12213866,-0.05308376
1732439609891,2024-11-24T09:13:29.891Z,75154,-0.0032146692,0.12213866,-0.05308376
1732439609900,2024-11-24T09:13:29.900Z,75163,-0.010332181,0.12364843,-0.070969306
1732439609902,2024-11-24T09:13:29.902Z,75165,-0.010332181,0.12364843,-0.070969306
1732439609913,2024-11-24T09:13:29.913Z,75176,-0.01904949,0.11841728,-0.08864037
1732439609916,2024-11-24T09:13:29.916Z,75179,-0.01904949,0.11841728,-0.08864037
1732439609924,2024-11-24T09:13:29.924Z,75187,-0.01369694,0.11278255,-0.06674877
1732439609927,2024-11-24T09:13:29.927Z,75190,-0.01369694,0.11278255,-0.06674877
1732439609937,2024-11-24T09:13:29.937Z,75200,-0.011851044,0.10415045,-0.042895433
1732439609940,2024-11-24T09:13:29.940Z,75203,-0.011851044,0.10415045,-0.042895433
1732439609948,2024-11-24T09:13:29.948Z,75211,-0.015430028,0.10954372,-0.044867326
1732439609954,2024-11-24T09:13:29.954Z,75217,-0.015430028,0.10954372,-0.044867326
1732439609966,2024-11-24T09:13:29.966Z,75229,-0.033225328,0.10358798,-0.07269478
1732439609972,2024-11-24T09:13:29.972Z,75235,-0.033225328,0.10358798,-0.07269478
1732439609988,2024-11-24T09:13:29.988Z,75251,-0.039212927,0.10495868,-0.061371706
1732439609993,2024-11-24T09:13:29.993Z,75256,-0.039212927,0.10495868,-0.061371706
1732439610011,2024-11-24T09:13:30.011Z,75274,-0.015140533,0.09705672,-0.035375863
1732439610016,2024-11-24T09:13:30.016Z,75279,-0.015140533,0.09705672,-0.035375863
1732439610034,2024-11-24T09:13:30.034Z,75297,-0.016823113,0.07111619,-0.036989555
1732439610039,2024-11-24T09:13:30.039Z,75302,-0.016823113,0.07111619,-0.036989555
1732439610056,2024-11-24T09:13:30.056Z,75319,-0.011854837,0.05949985,-0.029994039
1732439610061,2024-11-24T09:13:30.061Z,75324,-0.011854837,0.05949985,-0.029994039
1732439610074,2024-11-24T09:13:30.074Z,75337,-0.0274417,0.05581202,-0.03182519
1732439610078,2024-11-24T09:13:30.078Z,75341,-0.0274417,0.05581202,-0.03182519
1732439610094,2024-11-24T09:13:30.094Z,75357,-0.024040218,0.051286694,-0.015130407
1732439610099,2024-11-24T09:13:30.099Z,75362,-0.024040218,0.051286694,-0.015130407
1732439610118,2024-11-24T09:13:30.118Z,75381,-0.035613474,0.042134907,-0.022426758
1732439610124,2024-11-24T09:13:30.124Z,75387,-0.035613474,0.042134907,-0.022426758
1732439610140,2024-11-24T09:13:30.140Z,75403,-0.036634635,0.034079976,-0.0137235485
1732439610144,2024-11-24T09:13:30.144Z,75407,-0.036634635,0.034079976,-0.0137235485
1732439610154,2024-11-24T09:13:30.154Z,75417,-0.032354277,0.03046343,-0.017571665
1732439610157,2024-11-24T09:13:30.157Z,75420,-0.032354277,0.03046343,-0.017571665
1732439610167,2024-11-24T09:13:30.167Z,75430,-0.02858486,0.027585384,-0.0035347843
1732439610170,2024-11-24T09:13:30.170Z,75433,-0.02858486,0.027585384,-0.0035347843
1732439610180,2024-11-24T09:13:30.180Z,75443,-0.019974098,0.026757611,-0.011079359
1732439610183,2024-11-24T09:13:30.183Z,75446,-0.019974098,0.026757611,-0.011079359
1732439610191,2024-11-24T09:13:30.191Z,75454,0.0034935633,0.026914861,3.2624177E-4
1732439610194,2024-11-24T09:13:30.194Z,75457,0.0034935633,0.026914861,3.2624177E-4
1732439610203,2024-11-24T09:13:30.203Z,75466,-0.0015959931,0.031992164,0.0031287507
1732439610205,2024-11-24T09:13:30.205Z,75468,-0.0015959931,0.031992164,0.0031287507
1732439610213,2024-11-24T09:13:30.213Z,75476,0.0041305358,0.03849191,0.003387138
1732439610216,2024-11-24T09:13:30.216Z,75479,0.0041305358,0.03849191,0.003387138
1732439610222,2024-11-24T09:13:30.222Z,75485,0.0067346594,0.041444447,-0.019449117
1732439610225,2024-11-24T09:13:30.225Z,75488,0.0067346594,0.041444447,-0.019449117
1732439610232,2024-11-24T09:13:30.232Z,75495,0.008350285,0.044247903,-0.004063471
1732439610234,2024-11-24T09:13:30.234Z,75497,0.008350285,0.044247903,-0.004063471
1732439610240,2024-11-24T09:13:30.240Z,75503,0.01582106,0.057707474,-0.0022388368
1732439610243,2024-11-24T09:13:30.243Z,75506,0.01582106,0.057707474,-0.0022388368
1732439610250,2024-11-24T09:13:30.250Z,75513,0.030528076,0.04852486,-0.038302228
1732439610252,2024-11-24T09:13:30.252Z,75515,0.030528076,0.04852486,-0.038302228
1732439610258,2024-11-24T09:13:30.258Z,75521,0.018922692,0.047632612,-0.025814576
1732439610260,2024-11-24T09:13:30.260Z,75523,0.018922692,0.047632612,-0.025814576
1732439610270,2024-11-24T09:13:30.270Z,75533,0.026054645,0.044234097,-0.022784958
1732439610272,2024-11-24T09:13:30.272Z,75535,0.026054645,0.044234097,-0.022784958
1732439610279,2024-11-24T09:13:30.279Z,75542,0.022325631,0.020718917,-0.027456628
1732439610281,2024-11-24T09:13:30.281Z,75544,0.022325631,0.020718917,-0.027456628
1732439610288,2024-11-24T09:13:30.288Z,75551,0.019961443,0.018682064,-0.00648015
1732439610290,2024-11-24T09:13:30.290Z,75553,0.019961443,0.018682064,-0.00648015
1732439610296,2024-11-24T09:13:30.296Z,75559,0.0088140955,0.010679646,0.02523831
1732439610298,2024-11-24T09:13:30.298Z,75561,0.0088140955,0.010679646,0.02523831
1732439610318,2024-11-24T09:13:30.318Z,75581,-0.0060896883,-0.0035632534,0.019537479
1732439610320,2024-11-24T09:13:30.320Z,75583,-0.0060896883,-0.0035632534,0.019537479
1732439610332,2024-11-24T09:13:30.332Z,75595,-0.017297208,-1.6716882E-4,0.0051844944
1732439610336,2024-11-24T09:13:30.336Z,75599,-0.017297208,-1.6716882E-4,0.0051844944
1732439610350,2024-11-24T09:13:30.350Z,75613,-0.020888079,-0.0036420242,-0.013998346
1732439610354,2024-11-24T09:13:30.354Z,75617,-0.020888079,-0.0036420242,-0.013998346
1732439610366,2024-11-24T09:13:30.366Z,75629,0.01024952,-0.009004944,-0.04477591
1732439610369,2024-11-24T09:13:30.369Z,75632,0.01024952,-0.009004944,-0.04477591
1732439610379,2024-11-24T09:13:30.379Z,75642,0.022638138,-0.0058889324,-0.040950187
1732439610384,2024-11-24T09:13:30.384Z,75647,0.022638138,-0.0058889324,-0.040950187
1732439610399,2024-11-24T09:13:30.399Z,75662,0.023511834,-0.008515399,-0.0509522
1732439610402,2024-11-24T09:13:30.402Z,75665,0.023511834,-0.008515399,-0.0509522
1732439610409,2024-11-24T09:13:30.409Z,75672,0.0062263943,0.008545157,0.022355523
1732439610411,2024-11-24T09:13:30.411Z,75674,0.0062263943,0.008545157,0.022355523
1732439610419,2024-11-24T09:13:30.419Z,75682,0.0056216596,0.0061879694,0.05211014
1732439610421,2024-11-24T09:13:30.421Z,75684,0.0056216596,0.0061879694,0.05211014
1732439610427,2024-11-24T09:13:30.427Z,75690,-0.0048272307,0.0076945308,0.027428547
1732439610430,2024-11-24T09:13:30.430Z,75693,-0.0048272307,0.0076945308,0.027428547
1732439610452,2024-11-24T09:13:30.452Z,75715,-0.024429075,-0.005543995,0.024867723
1732439610455,2024-11-24T09:13:30.455Z,75718,-0.024429075,-0.005543995,0.024867723
1732439610463,2024-11-24T09:13:30.463Z,75726,-0.027508438,-0.0066018556,0.05549521
1732439610466,2024-11-24T09:13:30.466Z,75729,-0.027508438,-0.0066018556,0.05549521
1732439610473,2024-11-24T09:13:30.473Z,75736,-0.027833158,-0.0071171713,0.054847177
1732439610476,2024-11-24T09:13:30.476Z,75739,-0.027833158,-0.0071171713,0.054847177
1732439610502,2024-11-24T09:13:30.502Z,75765,-0.033018272,-0.004811914,0.029359717
1732439610508,2024-11-24T09:13:30.508Z,75771,-0.033018272,-0.004811914,0.029359717
1732439610529,2024-11-24T09:13:30.529Z,75792,-0.018003639,-0.02557469,-0.06961489
1732439610535,2024-11-24T09:13:30.535Z,75798,-0.018003639,-0.02557469,-0.06961489
1732439610554,2024-11-24T09:13:30.554Z,75817,-0.014671799,-0.029477436,-0.09119311
1732439610560,2024-11-24T09:13:30.560Z,75823,-0.014671799,-0.029477436,-0.09119311
1732439610583,2024-11-24T09:13:30.583Z,75846,-0.019126534,-0.040560856,-0.014497227
1732439610588,2024-11-24T09:13:30.588Z,75851,-0.019126534,-0.040560856,-0.014497227
1732439610601,2024-11-24T09:13:30.601Z,75864,-0.035010744,-0.06830553,0.0562827
1732439610604,2024-11-24T09:13:30.604Z,75867,-0.035010744,-0.06830553,0.0562827
1732439610614,2024-11-24T09:13:30.614Z,75877,-0.034047566,-0.076186,0.013520058
1732439610617,2024-11-24T09:13:30.617Z,75880,-0.034047566,-0.076186,0.013520058
1732439610627,2024-11-24T09:13:30.627Z,75890,-0.032789703,-0.09429742,0.024932053
1732439610630,2024-11-24T09:13:30.630Z,75893,-0.032789703,-0.09429742,0.024932053
1732439610639,2024-11-24T09:13:30.639Z,75902,-0.02776765,-0.09684637,0.037472025
1732439610642,2024-11-24T09:13:30.642Z,75905,-0.02776765,-0.09684637,0.037472025
1732439610651,2024-11-24T09:13:30.651Z,75914,-0.0044669765,-0.08863837,0.036041122
1732439610654,2024-11-24T09:13:30.654Z,75917,-0.0044669765,-0.08863837,0.036041122
1732439610661,2024-11-24T09:13:30.661Z,75924,-0.02376593,-0.077544644,0.04364154
1732439610664,2024-11-24T09:13:30.664Z,75927,-0.02376593,-0.077544644,0.04364154
1732439610674,2024-11-24T09:13:30.674Z,75937,-0.03468346,-0.07827955,0.05412375
1732439610679,2024-11-24T09:13:30.679Z,75942,-0.03468346,-0.07827955,0.05412375
1732439610694,2024-11-24T09:13:30.694Z,75957,-0.014587266,-0.07541414,0.038626768
1732439610698,2024-11-24T09:13:30.698Z,75961,-0.014587266,-0.07541414,0.038626768
1732439610715,2024-11-24T09:13:30.715Z,75978,0.0050625214,-0.07006056,0.0052844165
1732439610721,2024-11-24T09:13:30.721Z,75984,0.0050625214,-0.07006056,0.0052844165
1732439610738,2024-11-24T09:13:30.738Z,76001,0.012521518,-0.05613955,-0.018141683
1732439610743,2024-11-24T09:13:30.743Z,76006,0.012521518,-0.05613955,-0.018141683
1732439610756,2024-11-24T09:13:30.756Z,76019,0.02730153,-0.0416087,-0.029538313
1732439610759,2024-11-24T09:13:30.759Z,76022,0.02730153,-0.0416087,-0.029538313
1732439610770,2024-11-24T09:13:30.770Z,76033,0.014256588,-0.026927892,0.006724485
1732439610773,2024-11-24T09:13:30.773Z,76036,0.014256588,-0.026927892,0.006724485
1732439610783,2024-11-24T09:13:30.783Z,76046,0.01078279,-0.016939288,0.029166875
1732439610786,2024-11-24T09:13:30.786Z,76049,0.01078279,-0.016939288,0.029166875
1732439610795,2024-11-24T09:13:30.795Z,76058,-0.016493833,-0.016862947,0.023359971
1732439610798,2024-11-24T09:13:30.798Z,76061,-0.016493833,-0.016862947,0.023359971
1732439610807,2024-11-24T09:13:30.807Z,76070,-0.0030538943,-0.024137078,0.029766576
1732439610809,2024-11-24T09:13:30.809Z,76072,-0.0030538943,-0.024137078,0.029766576
1732439610818,2024-11-24T09:13:30.818Z,76081,-0.004083079,-0.010970028,0.04285697
1732439610821,2024-11-24T09:13:30.821Z,76084,-0.004083079,-0.010970028,0.04285697
1732439610828,2024-11-24T09:13:30.828Z,76091,-0.005290312,0.0050534774,0.03164482
1732439610831,2024-11-24T09:13:30.831Z,76094,-0.005290312,0.0050534774,0.03164482
1732439610838,2024-11-24T09:13:30.838Z,76101,-0.0015586985,0.005995905,0.0026077705
1732439610840,2024-11-24T09:13:30.840Z,76103,-0.0015586985,0.005995905,0.0026077705
1732439610848,2024-11-24T09:13:30.848Z,76111,-0.0014686472,-0.0017610588,-0.016173948
1732439610851,2024-11-24T09:13:30.851Z,76114,-0.0014686472,-0.0017610588,-0.016173948
1732439610858,2024-11-24T09:13:30.858Z,76121,-0.0015749511,0.0048268903,0.00867046
1732439610860,2024-11-24T09:13:30.860Z,76123,-0.0015749511,0.0048268903,0.00867046
1732439610868,2024-11-24T09:13:30.868Z,76131,0.02664777,0.0035310646,0.019794285
1732439610870,2024-11-24T09:13:30.870Z,76133,0.02664777,0.0035310646,0.019794285
1732439610877,2024-11-24T09:13:30.877Z,76140,0.0076447036,-0.0016167433,0.0050492715
1732439610879,2024-11-24T09:13:30.879Z,76142,0.0076447036,-0.0016167433,0.0050492715
1732439610890,2024-11-24T09:13:30.890Z,76153,0.0029689728,-0.004434982,0.031966392
1732439610894,2024-11-24T09:13:30.894Z,76157,0.0029689728,-0.004434982,0.031966392
1732439610910,2024-11-24T09:13:30.910Z,76173,-0.011956606,-0.012207991,0.037544645
1732439610914,2024-11-24T09:13:30.914Z,76177,-0.011956606,-0.012207991,0.037544645
1732439610931,2024-11-24T09:13:30.931Z,76194,-0.013087136,-0.012270231,0.035968017
1732439610936,2024-11-24T09:13:30.936Z,76199,-0.013087136,-0.012270231,0.035968017
1732439610952,2024-11-24T09:13:30.952Z,76215,0.027281692,-0.04806021,0.012047217
1732439610956,2024-11-24T09:13:30.956Z,76219,0.027281692,-0.04806021,0.012047217
1732439610975,2024-11-24T09:13:30.975Z,76238,0.022891382,-0.05685082,-0.0021631296
1732439610980,2024-11-24T09:13:30.980Z,76243,0.022891382,-0.05685082,-0.0021631296
1732439610997,2024-11-24T09:13:30.997Z,76260,0.039187882,-0.050866973,0.030821156
1732439611003,2024-11-24T09:13:31.003Z,76266,0.039187882,-0.050866973,0.030821156
1732439611017,2024-11-24T09:13:31.017Z,76280,0.0074012075,-0.05260946,0.042363632
1732439611021,2024-11-24T09:13:31.021Z,76284,0.0074012075,-0.05260946,0.042363632
1732439611032,2024-11-24T09:13:31.032Z,76295,-1.8447891E-4,-0.05679811,0.039578386
1732439611035,2024-11-24T09:13:31.035Z,76298,-1.8447891E-4,-0.05679811,0.039578386
1732439611046,2024-11-24T09:13:31.046Z,76309,-0.0061690304,-0.06440823,0.035391435
1732439611049,2024-11-24T09:13:31.049Z,76312,-0.0061690304,-0.06440823,0.035391435
1732439611059,2024-11-24T09:13:31.059Z,76322,-0.00739113,-0.07619436,0.04223337
1732439611062,2024-11-24T09:13:31.062Z,76325,-0.00739113,-0.07619436,0.04223337
1732439611072,2024-11-24T09:13:31.072Z,76335,0.00550478,-0.08087791,0.055545487
