Timestamp (ms),ISO DateTime,Elapsed Time (ms),Acceleration X,Acceleration Y,Acceleration Z
1732373090529,2024-11-23T14:44:50.529Z,26493,-0.030362098,-0.20902196,-0.5281775
1732373090536,2024-11-23T14:44:50.536Z,26500,-0.030362098,-0.20902196,-0.5281775
1732373090609,2024-11-23T14:44:50.609Z,26573,-0.017140359,-0.19294,-0.498912
1732373090614,2024-11-23T14:44:50.614Z,26578,-0.017140359,-0.19294,-0.498912
1732373090634,2024-11-23T14:44:50.634Z,26598,0.032245744,-0.20168729,-0.4565643
1732373090641,2024-11-23T14:44:50.641Z,26605,0.032245744,-0.20168729,-0.4565643
1732373090659,2024-11-23T14:44:50.659Z,26623,-0.00991314,-0.23459464,-0.5025392
1732373090664,2024-11-23T14:44:50.664Z,26628,-0.00991314,-0.23459464,-0.5025392
1732373090790,2024-11-23T14:44:50.790Z,26754,-0.021801976,-0.2341952,-0.50453824
1732373090796,2024-11-23T14:44:50.796Z,26760,-0.021801976,-0.2341952,-0.50453824
1732373090810,2024-11-23T14:44:50.810Z,26774,-0.0177277,-0.20683733,-0.46397424
1732373090816,2024-11-23T14:44:50.816Z,26780,-0.0177277,-0.20683733,-0.46397424
1732373090831,2024-11-23T14:44:50.831Z,26795,-0.034061816,-0.20627354,-0.4657873
1732373090836,2024-11-23T14:44:50.836Z,26800,-0.034061816,-0.20627354,-0.4657873
1732373090882,2024-11-23T14:44:50.882Z,26846,-0.037874762,-0.21457465,-0.47406778
1732373090886,2024-11-23T14:44:50.886Z,26850,-0.037874762,-0.21457465,-0.47406778
1732373091157,2024-11-23T14:44:51.157Z,27121,-0.04195263,-0.20246299,-0.46082103
1732373091165,2024-11-23T14:44:51.165Z,27129,-0.04195263,-0.20246299,-0.46082103
1732373091189,2024-11-23T14:44:51.189Z,27153,-0.04324974,-0.18260291,-0.464919
1732373091194,2024-11-23T14:44:51.194Z,27158,-0.04324974,-0.18260291,-0.464919
1732373091213,2024-11-23T14:44:51.213Z,27177,-0.02154477,-0.17288344,-0.4483328
1732373091218,2024-11-23T14:44:51.218Z,27182,-0.02154477,-0.17288344,-0.4483328
1732373091235,2024-11-23T14:44:51.235Z,27199,0.006240811,-0.17055713,-0.4220287
1732373091239,2024-11-23T14:44:51.239Z,27203,0.006240811,-0.17055713,-0.4220287
1732373091330,2024-11-23T14:44:51.330Z,27294,-0.006011355,-0.17224136,-0.42640108
1732373091335,2024-11-23T14:44:51.335Z,27299,-0.006011355,-0.17224136,-0.42640108
1732373091348,2024-11-23T14:44:51.348Z,27312,0.01939021,-0.15913236,-0.39428166
1732373091353,2024-11-23T14:44:51.353Z,27317,0.01939021,-0.15913236,-0.39428166
1732373091367,2024-11-23T14:44:51.367Z,27331,0.026424076,-0.13928644,-0.37837732
1732373091372,2024-11-23T14:44:51.372Z,27336,0.026424076,-0.13928644,-0.37837732
1732373091388,2024-11-23T14:44:51.388Z,27352,-0.031868342,-0.15154326,-0.42481613
1732373091392,2024-11-23T14:44:51.392Z,27356,-0.031868342,-0.15154326,-0.42481613
1732373091407,2024-11-23T14:44:51.407Z,27371,-0.002188183,-0.14271647,-0.39729393
1732373091411,2024-11-23T14:44:51.411Z,27375,-0.002188183,-0.14271647,-0.39729393
1732373091425,2024-11-23T14:44:51.425Z,27389,0.006211625,-0.14651933,-0.3637553
1732373091429,2024-11-23T14:44:51.429Z,27393,0.006211625,-0.14651933,-0.3637553
1732373091442,2024-11-23T14:44:51.442Z,27406,-0.0245938,-0.12925981,-0.30972344
1732373091446,2024-11-23T14:44:51.446Z,27410,-0.0245938,-0.12925981,-0.30972344
1732373091457,2024-11-23T14:44:51.457Z,27421,-0.021588434,-0.10769912,-0.3037635
1732373091461,2024-11-23T14:44:51.461Z,27425,-0.021588434,-0.10769912,-0.3037635
1732373091568,2024-11-23T14:44:51.568Z,27532,-0.010484507,-0.10278694,-0.30161777
1732373091582,2024-11-23T14:44:51.582Z,27546,-0.010484507,-0.10278694,-0.30161777
1732373091613,2024-11-23T14:44:51.613Z,27577,-0.0028763078,-0.07345878,-0.2573
1732373091621,2024-11-23T14:44:51.621Z,27585,-0.0028763078,-0.07345878,-0.2573
1732373091648,2024-11-23T14:44:51.648Z,27612,-0.0034445992,-0.08901715,-0.27800167
1732373091653,2024-11-23T14:44:51.653Z,27617,-0.0034445992,-0.08901715,-0.27800167
1732373091670,2024-11-23T14:44:51.670Z,27634,-0.011945666,-0.09683957,-0.2820707
1732373091676,2024-11-23T14:44:51.676Z,27640,-0.011945666,-0.09683957,-0.2820707
1732373091694,2024-11-23T14:44:51.694Z,27658,-0.024275595,-0.06674597,-0.29655015
1732373091700,2024-11-23T14:44:51.700Z,27664,-0.024275595,-0.06674597,-0.29655015
1732373091783,2024-11-23T14:44:51.783Z,27747,0.010034785,-0.049255382,-0.26144397
1732373091790,2024-11-23T14:44:51.790Z,27754,0.010034785,-0.049255382,-0.26144397
1732373091813,2024-11-23T14:44:51.813Z,27777,0.046604145,-0.03615592,-0.2291336
1732373091819,2024-11-23T14:44:51.819Z,27783,0.046604145,-0.03615592,-0.2291336
1732373091837,2024-11-23T14:44:51.837Z,27801,-0.0052239043,5.094808E-4,-0.27072352
1732373091842,2024-11-23T14:44:51.842Z,27806,-0.0052239043,5.094808E-4,-0.27072352
1732373091858,2024-11-23T14:44:51.858Z,27822,0.028611213,-0.016428543,-0.29121393
1732373091862,2024-11-23T14:44:51.862Z,27826,0.028611213,-0.016428543,-0.29121393
1732373091877,2024-11-23T14:44:51.877Z,27841,0.05673337,-0.038763132,-0.26969326
1732373091881,2024-11-23T14:44:51.881Z,27845,0.05673337,-0.038763132,-0.26969326
1732373091893,2024-11-23T14:44:51.893Z,27857,0.041878402,0.002629092,-0.2081018
1732373091897,2024-11-23T14:44:51.897Z,27861,0.041878402,0.002629092,-0.2081018
1732373092060,2024-11-23T14:44:52.060Z,28024,0.03162323,0.0555795,-0.22118929
1732373092070,2024-11-23T14:44:52.070Z,28034,0.03162323,0.0555795,-0.22118929
1732373092091,2024-11-23T14:44:52.091Z,28055,-0.018805763,0.014394315,-0.21834978
1732373092097,2024-11-23T14:44:52.097Z,28061,-0.018805763,0.014394315,-0.21834978
1732373092116,2024-11-23T14:44:52.116Z,28080,-0.037765045,0.022836195,-0.21341392
1732373092122,2024-11-23T14:44:52.122Z,28086,-0.037765045,0.022836195,-0.21341392
1732373092138,2024-11-23T14:44:52.138Z,28102,-0.0076516327,0.077207975,-0.19252232
1732373092143,2024-11-23T14:44:52.143Z,28107,-0.0076516327,0.077207975,-0.19252232
1732373092230,2024-11-23T14:44:52.230Z,28194,-0.004412141,0.07685808,-0.16984144
1732373092234,2024-11-23T14:44:52.234Z,28198,-0.004412141,0.07685808,-0.16984144
1732373092245,2024-11-23T14:44:52.245Z,28209,0.025181025,0.064109,-0.179892
1732373092248,2024-11-23T14:44:52.248Z,28212,0.025181025,0.064109,-0.179892
1732373092259,2024-11-23T14:44:52.259Z,28223,0.047890548,0.021370672,-0.2762893
1732373092262,2024-11-23T14:44:52.262Z,28226,0.047890548,0.021370672,-0.2762893
1732373092275,2024-11-23T14:44:52.275Z,28239,0.0105638495,0.04688896,-0.23448065
1732373092279,2024-11-23T14:44:52.279Z,28243,0.0105638495,0.04688896,-0.23448065
1732373092317,2024-11-23T14:44:52.317Z,28281,0.04905796,0.03484269,-0.20622455
1732373092321,2024-11-23T14:44:52.321Z,28285,0.04905796,0.03484269,-0.20622455
1732373092361,2024-11-23T14:44:52.361Z,28325,0.03962059,0.06295972,-0.22267635
1732373092364,2024-11-23T14:44:52.364Z,28328,0.03962059,0.06295972,-0.22267635
1732373092380,2024-11-23T14:44:52.380Z,28344,0.10322879,0.069450624,-0.2536607
1732373092388,2024-11-23T14:44:52.388Z,28352,0.10322879,0.069450624,-0.2536607
1732373092412,2024-11-23T14:44:52.412Z,28376,0.06282169,-0.06655585,-0.18451816
1732373092418,2024-11-23T14:44:52.418Z,28382,0.06282169,-0.06655585,-0.18451816
1732373092431,2024-11-23T14:44:52.431Z,28395,-0.014258655,-0.0038424516,-0.15733124
1732373092435,2024-11-23T14:44:52.435Z,28399,-0.014258655,-0.0038424516,-0.15733124
1732373092447,2024-11-23T14:44:52.447Z,28411,0.024927823,-0.023745656,-0.21355136
1732373092451,2024-11-23T14:44:52.451Z,28415,0.024927823,-0.023745656,-0.21355136
1732373092463,2024-11-23T14:44:52.463Z,28427,-0.019076342,-0.020049172,-0.20801364
1732373092466,2024-11-23T14:44:52.466Z,28430,-0.019076342,-0.020049172,-0.20801364
1732373092477,2024-11-23T14:44:52.477Z,28441,-0.020172397,-0.10020025,-0.18419671
1732373092480,2024-11-23T14:44:52.480Z,28444,-0.020172397,-0.10020025,-0.18419671
1732373092491,2024-11-23T14:44:52.491Z,28455,0.022338547,-0.01521917,-0.16082904
1732373092495,2024-11-23T14:44:52.495Z,28459,0.022338547,-0.01521917,-0.16082904
1732373092505,2024-11-23T14:44:52.505Z,28469,-0.009091288,-0.05863405,-0.1925693
1732373092508,2024-11-23T14:44:52.508Z,28472,-0.009091288,-0.05863405,-0.1925693
1732373092520,2024-11-23T14:44:52.520Z,28484,-0.023893083,-0.055227853,-0.21162109
1732373092525,2024-11-23T14:44:52.525Z,28489,-0.023893083,-0.055227853,-0.21162109
1732373092542,2024-11-23T14:44:52.542Z,28506,0.066240534,-0.05378499,-0.1395727
1732373092546,2024-11-23T14:44:52.546Z,28510,0.066240534,-0.05378499,-0.1395727
1732373092556,2024-11-23T14:44:52.556Z,28520,-0.013987108,-0.06102051,-0.09489582
1732373092561,2024-11-23T14:44:52.561Z,28525,-0.013987108,-0.06102051,-0.09489582
1732373092572,2024-11-23T14:44:52.572Z,28536,-4.3691575E-4,-0.0067835143,-0.15467286
1732373092575,2024-11-23T14:44:52.575Z,28539,-4.3691575E-4,-0.0067835143,-0.15467286
1732373092586,2024-11-23T14:44:52.586Z,28550,0.040181253,-0.015611175,-0.18762772
1732373092590,2024-11-23T14:44:52.590Z,28554,0.040181253,-0.015611175,-0.18762772
1732373092601,2024-11-23T14:44:52.601Z,28565,0.08941917,-0.042786565,-0.23981202
1732373092604,2024-11-23T14:44:52.604Z,28568,0.08941917,-0.042786565,-0.23981202
1732373092616,2024-11-23T14:44:52.616Z,28580,0.016885333,-0.04022788,-0.20297205
1732373092619,2024-11-23T14:44:52.619Z,28583,0.016885333,-0.04022788,-0.20297205
1732373092630,2024-11-23T14:44:52.630Z,28594,0.06360988,0.011914207,-0.1697817
1732373092634,2024-11-23T14:44:52.634Z,28598,0.06360988,0.011914207,-0.1697817
1732373092646,2024-11-23T14:44:52.646Z,28610,0.045295626,-0.004399487,-0.16718401
1732373092650,2024-11-23T14:44:52.650Z,28614,0.045295626,-0.004399487,-0.16718401
1732373092680,2024-11-23T14:44:52.680Z,28644,0.05322674,8.4411015E-4,-0.16525684
1732373092684,2024-11-23T14:44:52.684Z,28648,0.05322674,8.4411015E-4,-0.16525684
1732373092696,2024-11-23T14:44:52.696Z,28660,-0.012958009,-0.03632844,-0.24564889
1732373092700,2024-11-23T14:44:52.700Z,28664,-0.012958009,-0.03632844,-0.24564889
1732373092714,2024-11-23T14:44:52.714Z,28678,0.026816063,0.00938742,-0.20636731
1732373092718,2024-11-23T14:44:52.718Z,28682,0.026816063,0.00938742,-0.20636731
1732373092730,2024-11-23T14:44:52.730Z,28694,0.007989939,-0.016018838,-0.19117151
1732373092733,2024-11-23T14:44:52.733Z,28697,0.007989939,-0.016018838,-0.19117151
1732373092743,2024-11-23T14:44:52.743Z,28707,0.053961195,-0.03480301,-0.17373157
1732373092747,2024-11-23T14:44:52.747Z,28711,0.053961195,-0.03480301,-0.17373157
1732373092758,2024-11-23T14:44:52.758Z,28722,-0.019736752,-0.0361779,-0.15520455
1732373092761,2024-11-23T14:44:52.761Z,28725,-0.019736752,-0.0361779,-0.15520455
1732373092771,2024-11-23T14:44:52.771Z,28735,-0.048027236,-0.054183897,-0.20661135
1732373092775,2024-11-23T14:44:52.775Z,28739,-0.048027236,-0.054183897,-0.20661135
1732373092786,2024-11-23T14:44:52.786Z,28750,-0.0350927,-0.074118905,-0.19851309
1732373092790,2024-11-23T14:44:52.790Z,28754,-0.0350927,-0.074118905,-0.19851309
1732373092802,2024-11-23T14:44:52.802Z,28766,-0.076101504,-0.051847715,-0.14848228
1732373092806,2024-11-23T14:44:52.806Z,28770,-0.076101504,-0.051847715,-0.14848228
1732373092816,2024-11-23T14:44:52.816Z,28780,-0.029530205,-0.045923,-0.1524318
1732373092820,2024-11-23T14:44:52.820Z,28784,-0.029530205,-0.045923,-0.1524318
1732373092857,2024-11-23T14:44:52.857Z,28821,-0.031119725,-0.055798404,-0.16874419
1732373092861,2024-11-23T14:44:52.861Z,28825,-0.031119725,-0.055798404,-0.16874419
1732373092872,2024-11-23T14:44:52.872Z,28836,-0.06396251,-0.06801671,-0.18546773
1732373092875,2024-11-23T14:44:52.875Z,28839,-0.06396251,-0.06801671,-0.18546773
1732373092886,2024-11-23T14:44:52.886Z,28850,-0.055118687,-0.08011996,-0.21172935
1732373092890,2024-11-23T14:44:52.890Z,28854,-0.055118687,-0.08011996,-0.21172935
1732373092905,2024-11-23T14:44:52.905Z,28869,-0.015103537,-0.12084905,-0.21940139
1732373092908,2024-11-23T14:44:52.908Z,28872,-0.015103537,-0.12084905,-0.21940139
1732373092918,2024-11-23T14:44:52.918Z,28882,-0.0077520953,-0.13561389,-0.22457476
1732373092922,2024-11-23T14:44:52.922Z,28886,-0.0077520953,-0.13561389,-0.22457476
1732373092934,2024-11-23T14:44:52.934Z,28898,-0.049841642,-0.15813996,-0.21969911
1732373092938,2024-11-23T14:44:52.938Z,28902,-0.049841642,-0.15813996,-0.21969911
1732373093007,2024-11-23T14:44:53.007Z,28971,-0.001970889,-0.1988849,-0.25589997
1732373093017,2024-11-23T14:44:53.017Z,28981,-0.001970889,-0.1988849,-0.25589997
1732373093048,2024-11-23T14:44:53.048Z,29012,-0.015568606,-0.20206907,-0.26343647
1732373093056,2024-11-23T14:44:53.056Z,29020,-0.015568606,-0.20206907,-0.26343647
1732373093079,2024-11-23T14:44:53.079Z,29043,0.013601205,-0.25842792,-0.19606741
1732373093086,2024-11-23T14:44:53.086Z,29050,0.013601205,-0.25842792,-0.19606741
1732373093100,2024-11-23T14:44:53.100Z,29064,-0.0070718415,-0.24780819,-0.08793527
1732373093105,2024-11-23T14:44:53.105Z,29069,-0.0070718415,-0.24780819,-0.08793527
1732373093119,2024-11-23T14:44:53.119Z,29083,-0.01542587,-0.24824327,-0.09068445
1732373093123,2024-11-23T14:44:53.123Z,29087,-0.01542587,-0.24824327,-0.09068445
1732373093136,2024-11-23T14:44:53.136Z,29100,0.0069871754,-0.2282081,-0.11692798
1732373093140,2024-11-23T14:44:53.140Z,29104,0.0069871754,-0.2282081,-0.11692798
1732373093157,2024-11-23T14:44:53.157Z,29121,0.040721923,-0.23326965,-0.16539288
1732373093163,2024-11-23T14:44:53.163Z,29127,0.040721923,-0.23326965,-0.16539288
1732373093182,2024-11-23T14:44:53.182Z,29146,0.013257416,-0.22982416,-0.20292282
1732373093185,2024-11-23T14:44:53.185Z,29149,0.013257416,-0.22982416,-0.20292282
1732373093197,2024-11-23T14:44:53.197Z,29161,-0.017673094,-0.2114531,-0.17859198
1732373093201,2024-11-23T14:44:53.201Z,29165,-0.017673094,-0.2114531,-0.17859198
1732373093214,2024-11-23T14:44:53.214Z,29178,0.0094550485,-0.1758718,-0.19958179
1732373093217,2024-11-23T14:44:53.217Z,29181,0.0094550485,-0.1758718,-0.19958179
1732373093228,2024-11-23T14:44:53.228Z,29192,0.028222986,-0.1885784,-0.18305975
1732373093232,2024-11-23T14:44:53.232Z,29196,0.028222986,-0.1885784,-0.18305975
1732373093242,2024-11-23T14:44:53.242Z,29206,0.01883291,-0.18639849,-0.20600516
1732373093247,2024-11-23T14:44:53.247Z,29211,0.01883291,-0.18639849,-0.20600516
1732373093260,2024-11-23T14:44:53.260Z,29224,0.047869045,-0.20920327,-0.20986505
1732373093264,2024-11-23T14:44:53.264Z,29228,0.047869045,-0.20920327,-0.20986505
1732373093276,2024-11-23T14:44:53.276Z,29240,0.055966225,-0.19207415,-0.17429619
1732373093279,2024-11-23T14:44:53.279Z,29243,0.055966225,-0.19207415,-0.17429619
1732373093290,2024-11-23T14:44:53.290Z,29254,0.012135059,-0.18897964,-0.17212407
1732373093293,2024-11-23T14:44:53.293Z,29257,0.012135059,-0.18897964,-0.17212407
1732373093304,2024-11-23T14:44:53.304Z,29268,-0.008817,-0.20651165,-0.20174704
1732373093307,2024-11-23T14:44:53.307Z,29271,-0.008817,-0.20651165,-0.20174704
1732373093356,2024-11-23T14:44:53.356Z,29320,-0.054903347,-0.19910137,-0.1914991
1732373093359,2024-11-23T14:44:53.359Z,29323,-0.054903347,-0.19910137,-0.1914991
1732373093371,2024-11-23T14:44:53.371Z,29335,0.031277332,-0.19739924,-0.15609682
1732373093375,2024-11-23T14:44:53.375Z,29339,0.031277332,-0.19739924,-0.15609682
1732373093386,2024-11-23T14:44:53.386Z,29350,0.021074407,-0.16900243,-0.15387265
1732373093391,2024-11-23T14:44:53.391Z,29355,0.021074407,-0.16900243,-0.15387265
1732373093402,2024-11-23T14:44:53.402Z,29366,-0.016146628,-0.17907369,-0.1995564
1732373093406,2024-11-23T14:44:53.406Z,29370,-0.016146628,-0.17907369,-0.1995564
1732373093420,2024-11-23T14:44:53.420Z,29384,0.0074941977,-0.16667189,-0.17567208
1732373093423,2024-11-23T14:44:53.423Z,29387,0.0074941977,-0.16667189,-0.17567208
1732373093445,2024-11-23T14:44:53.445Z,29409,0.021816544,-0.14447792,-0.109113835
1732373093448,2024-11-23T14:44:53.448Z,29412,0.021816544,-0.14447792,-0.109113835
1732373093457,2024-11-23T14:44:53.457Z,29421,-0.016285714,-0.09898641,-0.14141619
1732373093460,2024-11-23T14:44:53.460Z,29424,-0.016285714,-0.09898641,-0.14141619
1732373093470,2024-11-23T14:44:53.470Z,29434,-0.01138824,-0.10243773,-0.10930952
1732373093474,2024-11-23T14:44:53.474Z,29438,-0.01138824,-0.10243773,-0.10930952
1732373093489,2024-11-23T14:44:53.489Z,29453,-0.024591882,-0.08389492,-0.11953266
1732373093491,2024-11-23T14:44:53.491Z,29455,-0.024591882,-0.08389492,-0.11953266
1732373093503,2024-11-23T14:44:53.503Z,29467,-0.016446253,-0.07574138,-0.17748208
1732373093506,2024-11-23T14:44:53.506Z,29470,-0.016446253,-0.07574138,-0.17748208
1732373093515,2024-11-23T14:44:53.515Z,29479,-0.036383256,-0.064574815,-0.17083892
1732373093518,2024-11-23T14:44:53.518Z,29482,-0.036383256,-0.064574815,-0.17083892
1732373093580,2024-11-23T14:44:53.580Z,29544,-0.03325374,-0.06362908,-0.18061128
1732373093583,2024-11-23T14:44:53.583Z,29547,-0.03325374,-0.06362908,-0.18061128
1732373093623,2024-11-23T14:44:53.623Z,29587,-0.023360299,-0.043696314,-0.13417515
1732373093626,2024-11-23T14:44:53.626Z,29590,-0.023360299,-0.043696314,-0.13417515
1732373093637,2024-11-23T14:44:53.637Z,29601,-0.016925031,-0.041306842,-0.16635457
1732373093639,2024-11-23T14:44:53.639Z,29603,-0.016925031,-0.041306842,-0.16635457
1732373093649,2024-11-23T14:44:53.649Z,29613,-0.046848454,-0.036432788,-0.1988261
1732373093652,2024-11-23T14:44:53.652Z,29616,-0.046848454,-0.036432788,-0.1988261
1732373093662,2024-11-23T14:44:53.662Z,29626,0.042150907,-0.039393395,-0.19252467
1732373093665,2024-11-23T14:44:53.665Z,29629,0.042150907,-0.039393395,-0.19252467
1732373093675,2024-11-23T14:44:53.675Z,29639,0.031388305,-0.028452834,-0.18109697
1732373093678,2024-11-23T14:44:53.678Z,29642,0.031388305,-0.028452834,-0.18109697
1732373093691,2024-11-23T14:44:53.691Z,29655,0.02513229,-0.033665117,-0.16358216
1732373093694,2024-11-23T14:44:53.694Z,29658,0.02513229,-0.033665117,-0.16358216
1732373093759,2024-11-23T14:44:53.759Z,29723,0.030375287,-0.10288818,-0.16394177
1732373093763,2024-11-23T14:44:53.763Z,29727,0.030375287,-0.10288818,-0.16394177
1732373093849,2024-11-23T14:44:53.849Z,29813,0.040607084,-0.10178218,-0.186311
1732373093853,2024-11-23T14:44:53.853Z,29817,0.040607084,-0.10178218,-0.186311
1732373093865,2024-11-23T14:44:53.865Z,29829,0.035521377,-0.09496609,-0.17229727
1732373093869,2024-11-23T14:44:53.869Z,29833,0.035521377,-0.09496609,-0.17229727
1732373093881,2024-11-23T14:44:53.881Z,29845,0.0027918147,-0.09929604,-0.18973878
1732373093884,2024-11-23T14:44:53.884Z,29848,0.0027918147,-0.09929604,-0.18973878
1732373093896,2024-11-23T14:44:53.896Z,29860,0.011656345,-0.091476455,-0.1806933
1732373093899,2024-11-23T14:44:53.899Z,29863,0.011656345,-0.091476455,-0.1806933
1732373093942,2024-11-23T14:44:53.942Z,29906,0.020444619,-0.08676033,-0.13047747
1732373093946,2024-11-23T14:44:53.946Z,29910,0.020444619,-0.08676033,-0.13047747
1732373093959,2024-11-23T14:44:53.959Z,29923,9.471775E-4,-0.09340925,-0.124282956
1732373093964,2024-11-23T14:44:53.964Z,29928,9.471775E-4,-0.09340925,-0.124282956
1732373094029,2024-11-23T14:44:54.029Z,29993,0.01578409,-0.04473249,-0.1321789
1732373094033,2024-11-23T14:44:54.033Z,29997,0.01578409,-0.04473249,-0.1321789
1732373094045,2024-11-23T14:44:54.045Z,30009,0.042849008,0.06559815,-0.13079503
1732373094052,2024-11-23T14:44:54.052Z,30016,0.042849008,0.06559815,-0.13079503
1732373094064,2024-11-23T14:44:54.064Z,30028,-0.004572612,0.075106844,-0.16992009
1732373094068,2024-11-23T14:44:54.068Z,30032,-0.004572612,0.075106844,-0.16992009
1732373094083,2024-11-23T14:44:54.083Z,30047,-0.018860465,0.07631135,-0.16457526
1732373094089,2024-11-23T14:44:54.089Z,30053,-0.018860465,0.07631135,-0.16457526
1732373094102,2024-11-23T14:44:54.102Z,30066,-0.0065033496,0.074541636,-0.19290796
1732373094107,2024-11-23T14:44:54.107Z,30071,-0.0065033496,0.074541636,-0.19290796
1732373094123,2024-11-23T14:44:54.123Z,30087,0.016629165,0.04702705,-0.18619214
1732373094126,2024-11-23T14:44:54.126Z,30090,0.016629165,0.04702705,-0.18619214
1732373094140,2024-11-23T14:44:54.140Z,30104,0.043532494,0.037168954,-0.18207988
1732373094146,2024-11-23T14:44:54.146Z,30110,0.043532494,0.037168954,-0.18207988
1732373094171,2024-11-23T14:44:54.171Z,30135,0.055103842,-0.017200107,-0.14821225
1732373094179,2024-11-23T14:44:54.179Z,30143,0.055103842,-0.017200107,-0.14821225
1732373094203,2024-11-23T14:44:54.203Z,30167,0.04353829,4.3051565E-4,-0.12682799
1732373094212,2024-11-23T14:44:54.212Z,30176,0.04353829,4.3051565E-4,-0.12682799
1732373094239,2024-11-23T14:44:54.239Z,30203,0.01038027,0.027529856,-0.09385479
1732373094245,2024-11-23T14:44:54.245Z,30209,0.01038027,0.027529856,-0.09385479
1732373094261,2024-11-23T14:44:54.261Z,30225,0.021985058,0.135292,-0.18892726
1732373094266,2024-11-23T14:44:54.266Z,30230,0.021985058,0.135292,-0.18892726
1732373094280,2024-11-23T14:44:54.280Z,30244,0.00813155,0.16190782,-0.22500288
1732373094284,2024-11-23T14:44:54.284Z,30248,0.00813155,0.16190782,-0.22500288
1732373094393,2024-11-23T14:44:54.393Z,30357,-0.004959597,0.17334746,-0.27379355
1732373094402,2024-11-23T14:44:54.402Z,30366,-0.004959597,0.17334746,-0.27379355
1732373094709,2024-11-23T14:44:54.709Z,30673,0.016791508,0.2627993,-0.22186962
1732373094719,2024-11-23T14:44:54.719Z,30683,0.016791508,0.2627993,-0.22186962
1732373094746,2024-11-23T14:44:54.746Z,30710,0.040583786,0.26743257,-0.21369171
1732373094755,2024-11-23T14:44:54.755Z,30719,0.040583786,0.26743257,-0.21369171
1732373094779,2024-11-23T14:44:54.779Z,30743,0.030846952,0.28048012,-0.27194592
1732373094785,2024-11-23T14:44:54.785Z,30749,0.030846952,0.28048012,-0.27194592
1732373094937,2024-11-23T14:44:54.937Z,30901,0.029526187,0.27602014,-0.23266749
1732373094945,2024-11-23T14:44:54.945Z,30909,0.029526187,0.27602014,-0.23266749
1732373094969,2024-11-23T14:44:54.969Z,30933,0.047073174,0.2296869,-0.17360857
1732373094975,2024-11-23T14:44:54.975Z,30939,0.047073174,0.2296869,-0.17360857
1732373095020,2024-11-23T14:44:55.020Z,30984,0.004475206,-0.019148756,-0.14824009
1732373095027,2024-11-23T14:44:55.027Z,30991,0.004475206,-0.019148756,-0.14824009
1732373095205,2024-11-23T14:44:55.205Z,31169,0.009573065,-0.04903755,-0.14670923
1732373095213,2024-11-23T14:44:55.213Z,31177,0.009573065,-0.04903755,-0.14670923
1732373095242,2024-11-23T14:44:55.242Z,31206,2.0445116E-4,-0.055499464,-0.10214968
1732373095251,2024-11-23T14:44:55.251Z,31215,2.0445116E-4,-0.055499464,-0.10214968
1732373095291,2024-11-23T14:44:55.291Z,31255,-0.035725262,0.038843557,-0.09126697
1732373095299,2024-11-23T14:44:55.299Z,31263,-0.035725262,0.038843557,-0.09126697
1732373095317,2024-11-23T14:44:55.317Z,31281,-0.033996902,0.020891337,-0.0835522
1732373095323,2024-11-23T14:44:55.323Z,31287,-0.033996902,0.020891337,-0.0835522
1732373095337,2024-11-23T14:44:55.337Z,31301,-0.012038696,0.026323693,-0.07988608
1732373095341,2024-11-23T14:44:55.341Z,31305,-0.012038696,0.026323693,-0.07988608
1732373095379,2024-11-23T14:44:55.379Z,31343,-0.010483134,-0.026018139,-0.05191483
1732373095385,2024-11-23T14:44:55.385Z,31349,-0.010483134,-0.026018139,-0.05191483
1732373095402,2024-11-23T14:44:55.402Z,31366,-0.029661968,0.080089815,-0.13730364
1732373095406,2024-11-23T14:44:55.406Z,31370,-0.029661968,0.080089815,-0.13730364
1732373095421,2024-11-23T14:44:55.421Z,31385,-0.013808197,0.09015962,-0.10236558
1732373095425,2024-11-23T14:44:55.425Z,31389,-0.013808197,0.09015962,-0.10236558
1732373095440,2024-11-23T14:44:55.440Z,31404,-0.039423652,0.063474655,-0.09204974
1732373095444,2024-11-23T14:44:55.444Z,31408,-0.039423652,0.063474655,-0.09204974
1732373095457,2024-11-23T14:44:55.457Z,31421,-0.050081875,0.06705405,-0.093703315
1732373095461,2024-11-23T14:44:55.461Z,31425,-0.050081875,0.06705405,-0.093703315
1732373095610,2024-11-23T14:44:55.610Z,31574,0.0048732837,0.07931893,-0.05803152
1732373095618,2024-11-23T14:44:55.618Z,31582,0.0048732837,0.07931893,-0.05803152
1732373095647,2024-11-23T14:44:55.647Z,31611,0.007914797,0.04121086,-0.042937905
1732373095655,2024-11-23T14:44:55.655Z,31619,0.007914797,0.04121086,-0.042937905
1732373095683,2024-11-23T14:44:55.683Z,31647,-0.010419777,0.046079956,-0.051195744
1732373095691,2024-11-23T14:44:55.691Z,31655,-0.010419777,0.046079956,-0.051195744
1732373095709,2024-11-23T14:44:55.709Z,31673,0.018279137,0.04360704,-0.09365282
1732373095714,2024-11-23T14:44:55.714Z,31678,0.018279137,0.04360704,-0.09365282
1732373095730,2024-11-23T14:44:55.730Z,31694,0.027753823,0.037805825,-0.16516173
1732373095735,2024-11-23T14:44:55.735Z,31699,0.027753823,0.037805825,-0.16516173
1732373095750,2024-11-23T14:44:55.750Z,31714,0.058085203,0.023204861,-0.15575759
1732373095754,2024-11-23T14:44:55.754Z,31718,0.058085203,0.023204861,-0.15575759
1732373095832,2024-11-23T14:44:55.832Z,31796,0.08340322,0.016862268,-0.16036251
1732373095839,2024-11-23T14:44:55.839Z,31803,0.08340322,0.016862268,-0.16036251
1732373095880,2024-11-23T14:44:55.880Z,31844,0.0062062885,-0.007756089,-0.053737767
1732373095889,2024-11-23T14:44:55.889Z,31853,0.0062062885,-0.007756089,-0.053737767
1732373095921,2024-11-23T14:44:55.921Z,31885,0.049119838,-0.015026036,-0.03543698
1732373095926,2024-11-23T14:44:55.926Z,31890,0.049119838,-0.015026036,-0.03543698
1732373095942,2024-11-23T14:44:55.942Z,31906,0.015341769,-0.038027745,-0.0034908527
1732373095947,2024-11-23T14:44:55.947Z,31911,0.015341769,-0.038027745,-0.0034908527
1732373095964,2024-11-23T14:44:55.964Z,31928,0.006724363,0.026617186,-0.0465736
1732373095968,2024-11-23T14:44:55.968Z,31932,0.006724363,0.026617186,-0.0465736
1732373095987,2024-11-23T14:44:55.987Z,31951,-0.05558915,0.005472518,-0.097957134
1732373095999,2024-11-23T14:44:55.999Z,31963,-0.05558915,0.005472518,-0.097957134
1732373096028,2024-11-23T14:44:56.028Z,31992,-0.022131598,0.029529074,-0.07559972
1732373096036,2024-11-23T14:44:56.036Z,32000,-0.022131598,0.029529074,-0.07559972
1732373096059,2024-11-23T14:44:56.059Z,32023,-0.036341812,-0.04562153,-0.14274043
1732373096067,2024-11-23T14:44:56.067Z,32031,-0.036341812,-0.04562153,-0.14274043
1732373096089,2024-11-23T14:44:56.089Z,32053,-0.016267372,-0.062263917,-0.10411673
1732373096097,2024-11-23T14:44:56.097Z,32061,-0.016267372,-0.062263917,-0.10411673
1732373096124,2024-11-23T14:44:56.124Z,32088,0.0069574844,-0.058793537,-0.111252
1732373096133,2024-11-23T14:44:56.133Z,32097,0.0069574844,-0.058793537,-0.111252
1732373096158,2024-11-23T14:44:56.158Z,32122,-0.00986592,-0.08676266,-0.12336323
1732373096166,2024-11-23T14:44:56.166Z,32130,-0.00986592,-0.08676266,-0.12336323
1732373096194,2024-11-23T14:44:56.194Z,32158,-0.006398772,-0.07562498,-0.02730012
1732373096200,2024-11-23T14:44:56.200Z,32164,-0.006398772,-0.07562498,-0.02730012
1732373096215,2024-11-23T14:44:56.215Z,32179,-0.012080409,-0.081237726,-0.04511913
1732373096220,2024-11-23T14:44:56.220Z,32184,-0.012080409,-0.081237726,-0.04511913
1732373096234,2024-11-23T14:44:56.234Z,32198,-0.008959985,-0.069747716,-0.07106927
1732373096238,2024-11-23T14:44:56.238Z,32202,-0.008959985,-0.069747716,-0.07106927
1732373096250,2024-11-23T14:44:56.250Z,32214,0.0020619738,-0.07298324,-0.090901606
1732373096254,2024-11-23T14:44:56.254Z,32218,0.0020619738,-0.07298324,-0.090901606
1732373096265,2024-11-23T14:44:56.265Z,32229,0.008722731,-0.064095095,-0.095777184
1732373096268,2024-11-23T14:44:56.268Z,32232,0.008722731,-0.064095095,-0.095777184
1732373096279,2024-11-23T14:44:56.279Z,32243,0.0026325746,-0.04353683,-0.06993901
1732373096283,2024-11-23T14:44:56.283Z,32247,0.0026325746,-0.04353683,-0.06993901
1732373096294,2024-11-23T14:44:56.294Z,32258,-0.023724437,-0.051288832,-0.092635185
1732373096297,2024-11-23T14:44:56.297Z,32261,-0.023724437,-0.051288832,-0.092635185
1732373096307,2024-11-23T14:44:56.307Z,32271,-0.016412333,-0.044413228,-0.086498104
1732373096310,2024-11-23T14:44:56.310Z,32274,-0.016412333,-0.044413228,-0.086498104
1732373096319,2024-11-23T14:44:56.319Z,32283,-0.0033123605,-0.04144581,-0.08834096
1732373096323,2024-11-23T14:44:56.323Z,32287,-0.0033123605,-0.04144581,-0.08834096
1732373096333,2024-11-23T14:44:56.333Z,32297,0.025830057,-0.026307939,-0.06206709
1732373096336,2024-11-23T14:44:56.336Z,32300,0.025830057,-0.026307939,-0.06206709
1732373096351,2024-11-23T14:44:56.351Z,32315,0.027599823,-0.02436308,-0.092252254
1732373096357,2024-11-23T14:44:56.357Z,32321,0.027599823,-0.02436308,-0.092252254
1732373096378,2024-11-23T14:44:56.378Z,32342,4.1683408E-4,-0.040508926,-0.071545005
1732373096386,2024-11-23T14:44:56.386Z,32350,4.1683408E-4,-0.040508926,-0.071545005
1732373096412,2024-11-23T14:44:56.412Z,32376,0.03318576,-0.016193204,-0.090561174
1732373096420,2024-11-23T14:44:56.420Z,32384,0.03318576,-0.016193204,-0.090561174
1732373096447,2024-11-23T14:44:56.447Z,32411,0.0023270163,-0.02476695,-0.08866271
1732373096455,2024-11-23T14:44:56.455Z,32419,0.0023270163,-0.02476695,-0.08866271
1732373096483,2024-11-23T14:44:56.483Z,32447,0.023103584,-0.012754426,-0.10837745
1732373096491,2024-11-23T14:44:56.491Z,32455,0.023103584,-0.012754426,-0.10837745
1732373096522,2024-11-23T14:44:56.522Z,32486,-0.063273236,-0.068834655,-0.12314862
1732373096531,2024-11-23T14:44:56.531Z,32495,-0.063273236,-0.068834655,-0.12314862
1732373096557,2024-11-23T14:44:56.557Z,32521,-2.7713168E-4,-0.046312667,-0.1102359
1732373096565,2024-11-23T14:44:56.565Z,32529,-2.7713168E-4,-0.046312667,-0.1102359
1732373096590,2024-11-23T14:44:56.590Z,32554,0.027047604,-0.06188446,-0.1179428
1732373096595,2024-11-23T14:44:56.595Z,32559,0.027047604,-0.06188446,-0.1179428
1732373096610,2024-11-23T14:44:56.610Z,32574,0.018400026,-0.106527776,-0.0892063
1732373096615,2024-11-23T14:44:56.615Z,32579,0.018400026,-0.106527776,-0.0892063
1732373096629,2024-11-23T14:44:56.629Z,32593,-0.0174231,-0.14545467,-0.09865603
1732373096634,2024-11-23T14:44:56.634Z,32598,-0.0174231,-0.14545467,-0.09865603
1732373096647,2024-11-23T14:44:56.647Z,32611,-0.037153203,-0.21949986,-0.060934506
1732373096651,2024-11-23T14:44:56.651Z,32615,-0.037153203,-0.21949986,-0.060934506
1732373096662,2024-11-23T14:44:56.662Z,32626,-0.011710321,-0.19888452,-0.07874721
1732373096665,2024-11-23T14:44:56.665Z,32629,-0.011710321,-0.19888452,-0.07874721
1732373096676,2024-11-23T14:44:56.676Z,32640,-0.063021235,-0.22178148,-0.051515754
1732373096679,2024-11-23T14:44:56.679Z,32643,-0.063021235,-0.22178148,-0.051515754
1732373096690,2024-11-23T14:44:56.690Z,32654,-0.019203214,-0.11121404,-0.082164645
1732373096693,2024-11-23T14:44:56.693Z,32657,-0.019203214,-0.11121404,-0.082164645
1732373096702,2024-11-23T14:44:56.702Z,32666,0.01352568,-0.12092909,-0.116150044
1732373096704,2024-11-23T14:44:56.704Z,32668,0.01352568,-0.12092909,-0.116150044
1732373096713,2024-11-23T14:44:56.713Z,32677,-0.0040017376,-0.11258669,-0.05308145
1732373096715,2024-11-23T14:44:56.715Z,32679,-0.0040017376,-0.11258669,-0.05308145
1732373096730,2024-11-23T14:44:56.730Z,32694,-0.055452883,-0.13303128,-0.105127804
1732373096737,2024-11-23T14:44:56.737Z,32701,-0.055452883,-0.13303128,-0.105127804
1732373096757,2024-11-23T14:44:56.757Z,32721,-0.05826324,-0.11397267,-0.08060356
1732373096764,2024-11-23T14:44:56.764Z,32728,-0.05826324,-0.11397267,-0.08060356
1732373096780,2024-11-23T14:44:56.780Z,32744,-0.030241013,-0.1330301,-0.09771263
1732373096783,2024-11-23T14:44:56.783Z,32747,-0.030241013,-0.1330301,-0.09771263
1732373096794,2024-11-23T14:44:56.794Z,32758,0.010934691,-0.11707205,-0.057172295
1732373096797,2024-11-23T14:44:56.797Z,32761,0.010934691,-0.11707205,-0.057172295
1732373096807,2024-11-23T14:44:56.807Z,32771,0.0015848886,-0.10242333,-0.08649078
1732373096810,2024-11-23T14:44:56.810Z,32774,0.0015848886,-0.10242333,-0.08649078
1732373096824,2024-11-23T14:44:56.824Z,32788,-0.006016771,-0.09699623,-0.10799351
1732373096833,2024-11-23T14:44:56.833Z,32797,-0.006016771,-0.09699623,-0.10799351
1732373096854,2024-11-23T14:44:56.854Z,32818,-0.002221472,-0.11785266,-0.05520424
1732373096860,2024-11-23T14:44:56.860Z,32824,-0.002221472,-0.11785266,-0.05520424
1732373096872,2024-11-23T14:44:56.872Z,32836,-0.036679097,-0.10614831,-0.023875413
1732373096875,2024-11-23T14:44:56.875Z,32839,-0.036679097,-0.10614831,-0.023875413
1732373096892,2024-11-23T14:44:56.892Z,32856,-0.05015169,-0.08863439,-0.07783735
1732373096900,2024-11-23T14:44:56.900Z,32864,-0.05015169,-0.08863439,-0.07783735
1732373096927,2024-11-23T14:44:56.927Z,32891,0.003281527,-0.09527728,-0.090468735
1732373096934,2024-11-23T14:44:56.934Z,32898,0.003281527,-0.09527728,-0.090468735
1732373096947,2024-11-23T14:44:56.947Z,32911,0.03389356,-0.10713567,-0.078707896
1732373096956,2024-11-23T14:44:56.956Z,32920,0.03389356,-0.10713567,-0.078707896
1732373096968,2024-11-23T14:44:56.968Z,32932,0.009537321,-0.06626751,-0.050310165
1732373096972,2024-11-23T14:44:56.972Z,32936,0.009537321,-0.06626751,-0.050310165
1732373096986,2024-11-23T14:44:56.986Z,32950,0.006641849,-0.0679991,-0.06763344
1732373096991,2024-11-23T14:44:56.991Z,32955,0.006641849,-0.0679991,-0.06763344
1732373097002,2024-11-23T14:44:57.002Z,32966,-0.012695616,-0.07784271,-0.07326916
1732373097006,2024-11-23T14:44:57.006Z,32970,-0.012695616,-0.07784271,-0.07326916
1732373097017,2024-11-23T14:44:57.017Z,32981,0.01509059,-0.11012137,-0.06894466
1732373097020,2024-11-23T14:44:57.020Z,32984,0.01509059,-0.11012137,-0.06894466
1732373097031,2024-11-23T14:44:57.031Z,32995,-0.019747607,-0.10661753,-0.087007105
1732373097035,2024-11-23T14:44:57.035Z,32999,-0.019747607,-0.10661753,-0.087007105
1732373097045,2024-11-23T14:44:57.045Z,33009,-0.058451146,-0.11974675,-0.10656976
1732373097048,2024-11-23T14:44:57.048Z,33012,-0.058451146,-0.11974675,-0.10656976
1732373097057,2024-11-23T14:44:57.057Z,33021,-0.0298499,-0.12015062,-0.07667434
1732373097060,2024-11-23T14:44:57.060Z,33024,-0.0298499,-0.12015062,-0.07667434
1732373097068,2024-11-23T14:44:57.068Z,33032,-0.023221958,-0.13371852,-0.06282571
1732373097071,2024-11-23T14:44:57.071Z,33035,-0.023221958,-0.13371852,-0.06282571
1732373097081,2024-11-23T14:44:57.081Z,33045,-0.013654813,-0.16624546,-0.058921874
1732373097085,2024-11-23T14:44:57.085Z,33049,-0.013654813,-0.16624546,-0.058921874
1732373097095,2024-11-23T14:44:57.095Z,33059,-0.02646253,-0.18374859,-0.056765817
1732373097098,2024-11-23T14:44:57.098Z,33062,-0.02646253,-0.18374859,-0.056765817
1732373097109,2024-11-23T14:44:57.109Z,33073,-0.025741981,-0.17488523,-0.082333475
1732373097112,2024-11-23T14:44:57.112Z,33076,-0.025741981,-0.17488523,-0.082333475
1732373097129,2024-11-23T14:44:57.129Z,33093,-0.059607536,-0.16837548,-0.08454025
1732373097131,2024-11-23T14:44:57.131Z,33095,-0.059607536,-0.16837548,-0.08454025
1732373097141,2024-11-23T14:44:57.141Z,33105,-0.03932564,-0.15951416,-0.03336516
1732373097144,2024-11-23T14:44:57.144Z,33108,-0.03932564,-0.15951416,-0.03336516
1732373097152,2024-11-23T14:44:57.152Z,33116,-0.03208516,-0.1819705,-0.032460447
1732373097155,2024-11-23T14:44:57.155Z,33119,-0.03208516,-0.1819705,-0.032460447
1732373097165,2024-11-23T14:44:57.165Z,33129,0.001165763,-0.16468346,-0.069802016
1732373097169,2024-11-23T14:44:57.169Z,33133,0.001165763,-0.16468346,-0.069802016
1732373097179,2024-11-23T14:44:57.179Z,33143,0.007460456,-0.19638029,-0.069313705
1732373097184,2024-11-23T14:44:57.184Z,33148,0.007460456,-0.19638029,-0.069313705
1732373097194,2024-11-23T14:44:57.194Z,33158,-0.005958671,-0.14852847,-0.052658405
1732373097201,2024-11-23T14:44:57.201Z,33165,-0.005958671,-0.14852847,-0.052658405
1732373097211,2024-11-23T14:44:57.211Z,33175,-0.015729507,-0.122672155,-0.07812243
1732373097214,2024-11-23T14:44:57.214Z,33178,-0.015729507,-0.122672155,-0.07812243
1732373097228,2024-11-23T14:44:57.228Z,33192,-0.006042359,-0.12120829,-0.038746025
1732373097235,2024-11-23T14:44:57.235Z,33199,-0.006042359,-0.12120829,-0.038746025
1732373097255,2024-11-23T14:44:57.255Z,33219,-0.0100392345,-0.11292453,-0.03247818
1732373097260,2024-11-23T14:44:57.260Z,33224,-0.0100392345,-0.11292453,-0.03247818
1732373097269,2024-11-23T14:44:57.269Z,33233,0.014983618,-0.12521917,-0.082024395
1732373097272,2024-11-23T14:44:57.272Z,33236,0.014983618,-0.12521917,-0.082024395
1732373097282,2024-11-23T14:44:57.282Z,33246,-0.019910589,-0.11401127,-0.050187077
1732373097285,2024-11-23T14:44:57.285Z,33249,-0.019910589,-0.11401127,-0.050187077
1732373097294,2024-11-23T14:44:57.294Z,33258,-0.028225608,-0.10182779,-0.06439763
1732373097297,2024-11-23T14:44:57.297Z,33261,-0.028225608,-0.10182779,-0.06439763
1732373097306,2024-11-23T14:44:57.306Z,33270,0.01683265,-0.09105799,-0.068935186
1732373097308,2024-11-23T14:44:57.308Z,33272,0.01683265,-0.09105799,-0.068935186
1732373097317,2024-11-23T14:44:57.317Z,33281,0.04857092,-0.083240055,-0.073701166
1732373097320,2024-11-23T14:44:57.320Z,33284,0.04857092,-0.083240055,-0.073701166
1732373097330,2024-11-23T14:44:57.330Z,33294,0.046363395,-0.07346685,-0.029037058
1732373097332,2024-11-23T14:44:57.332Z,33296,0.046363395,-0.07346685,-0.029037058
1732373097342,2024-11-23T14:44:57.342Z,33306,-0.010017201,-0.05877574,-0.08015
1732373097345,2024-11-23T14:44:57.345Z,33309,-0.010017201,-0.05877574,-0.08015
1732373097354,2024-11-23T14:44:57.354Z,33318,-0.0045685456,-0.039693307,-0.063363545
1732373097358,2024-11-23T14:44:57.358Z,33322,-0.0045685456,-0.039693307,-0.063363545
1732373097402,2024-11-23T14:44:57.402Z,33366,0.041335598,-0.045513388,-0.06419173
1732373097405,2024-11-23T14:44:57.405Z,33369,0.041335598,-0.045513388,-0.06419173
1732373097418,2024-11-23T14:44:57.418Z,33382,0.009199561,-0.041211247,-0.059542418
1732373097425,2024-11-23T14:44:57.425Z,33389,0.009199561,-0.041211247,-0.059542418
1732373097447,2024-11-23T14:44:57.447Z,33411,-0.013626502,-0.042284764,-0.077367306
1732373097454,2024-11-23T14:44:57.454Z,33418,-0.013626502,-0.042284764,-0.077367306
1732373097495,2024-11-23T14:44:57.495Z,33459,-0.022904942,-0.030179856,-0.109932065
1732373097502,2024-11-23T14:44:57.502Z,33466,-0.022904942,-0.030179856,-0.109932065
1732373097523,2024-11-23T14:44:57.523Z,33487,0.009830267,-0.04951202,-0.061209645
1732373097528,2024-11-23T14:44:57.528Z,33492,0.009830267,-0.04951202,-0.061209645
1732373097542,2024-11-23T14:44:57.542Z,33506,-0.039199233,-0.023859436,-0.036902905
1732373097547,2024-11-23T14:44:57.547Z,33511,-0.039199233,-0.023859436,-0.036902905
1732373097560,2024-11-23T14:44:57.560Z,33524,-0.0048304703,0.117276855,-0.077231705
1732373097564,2024-11-23T14:44:57.564Z,33528,-0.0048304703,0.117276855,-0.077231705
1732373097678,2024-11-23T14:44:57.678Z,33642,0.018228063,0.091640316,-0.10961511
1732373097686,2024-11-23T14:44:57.686Z,33650,0.018228063,0.091640316,-0.10961511
1732373097773,2024-11-23T14:44:57.773Z,33737,-3.0809293E-5,0.10553166,-0.15559003
1732373097781,2024-11-23T14:44:57.781Z,33745,-3.0809293E-5,0.10553166,-0.15559003
1732373097808,2024-11-23T14:44:57.808Z,33772,0.058652297,0.09636198,-0.07440048
1732373097815,2024-11-23T14:44:57.815Z,33779,0.058652297,0.09636198,-0.07440048
1732373097841,2024-11-23T14:44:57.841Z,33805,0.046446495,0.086888306,-0.0940094
1732373097848,2024-11-23T14:44:57.848Z,33812,0.046446495,0.086888306,-0.0940094
1732373097871,2024-11-23T14:44:57.871Z,33835,0.020515172,0.088748164,-0.10694309
1732373097879,2024-11-23T14:44:57.879Z,33843,0.020515172,0.088748164,-0.10694309
1732373097901,2024-11-23T14:44:57.901Z,33865,0.033891078,0.079551935,-0.07051061
1732373097907,2024-11-23T14:44:57.907Z,33871,0.033891078,0.079551935,-0.07051061
1732373097930,2024-11-23T14:44:57.930Z,33894,0.02367968,0.0887824,-0.060030952
1732373097934,2024-11-23T14:44:57.934Z,33898,0.02367968,0.0887824,-0.060030952
1732373097992,2024-11-23T14:44:57.992Z,33956,0.034707267,0.11593941,-0.06753239
1732373097998,2024-11-23T14:44:57.998Z,33962,0.034707267,0.11593941,-0.06753239
1732373098019,2024-11-23T14:44:58.019Z,33983,0.0076061934,0.10244629,-0.05276075
1732373098023,2024-11-23T14:44:58.023Z,33987,0.0076061934,0.10244629,-0.05276075
1732373098039,2024-11-23T14:44:58.039Z,34003,-0.03246356,0.098725975,-0.0766695
1732373098043,2024-11-23T14:44:58.043Z,34007,-0.03246356,0.098725975,-0.0766695
1732373098057,2024-11-23T14:44:58.057Z,34021,-0.0017687657,0.06452396,-0.09277746
1732373098061,2024-11-23T14:44:58.061Z,34025,-0.0017687657,0.06452396,-0.09277746
1732373098074,2024-11-23T14:44:58.074Z,34038,0.0032864623,0.05387815,-0.07972943
1732373098078,2024-11-23T14:44:58.078Z,34042,0.0032864623,0.05387815,-0.07972943
1732373098090,2024-11-23T14:44:58.090Z,34054,0.009358293,0.048060402,-0.07867962
1732373098093,2024-11-23T14:44:58.093Z,34057,0.009358293,0.048060402,-0.07867962
1732373098129,2024-11-23T14:44:58.129Z,34093,-0.028236829,0.03438864,-0.082859874
1732373098138,2024-11-23T14:44:58.138Z,34102,-0.028236829,0.03438864,-0.082859874
1732373098167,2024-11-23T14:44:58.167Z,34131,0.01395089,0.0088746315,-0.04195931
1732373098174,2024-11-23T14:44:58.174Z,34138,0.01395089,0.0088746315,-0.04195931
1732373098195,2024-11-23T14:44:58.195Z,34159,-0.103922606,0.034766834,-0.08125991
1732373098200,2024-11-23T14:44:58.200Z,34164,-0.103922606,0.034766834,-0.08125991
1732373098215,2024-11-23T14:44:58.215Z,34179,-0.023974704,-8.008349E-4,-0.029617801
1732373098219,2024-11-23T14:44:58.219Z,34183,-0.023974704,-8.008349E-4,-0.029617801
1732373098233,2024-11-23T14:44:58.233Z,34197,-0.03711714,0.021230731,0.011968021
1732373098238,2024-11-23T14:44:58.238Z,34202,-0.03711714,0.021230731,0.011968021
1732373098257,2024-11-23T14:44:58.257Z,34221,-0.036759295,0.021583838,-0.033692274
1732373098261,2024-11-23T14:44:58.261Z,34225,-0.036759295,0.021583838,-0.033692274
1732373098276,2024-11-23T14:44:58.276Z,34240,0.041662913,0.0037191417,-0.03597006
1732373098285,2024-11-23T14:44:58.285Z,34249,0.041662913,0.0037191417,-0.03597006
1732373098309,2024-11-23T14:44:58.309Z,34273,0.07808375,0.015750337,-0.030576797
1732373098317,2024-11-23T14:44:58.317Z,34281,0.07808375,0.015750337,-0.030576797
1732373098352,2024-11-23T14:44:58.352Z,34316,-0.034129664,0.015615941,-0.09582419
1732373098360,2024-11-23T14:44:58.360Z,34324,-0.034129664,0.015615941,-0.09582419
1732373098383,2024-11-23T14:44:58.383Z,34347,-0.010111392,-0.018291129,-0.09440764
1732373098391,2024-11-23T14:44:58.391Z,34355,-0.010111392,-0.018291129,-0.09440764
1732373098406,2024-11-23T14:44:58.406Z,34370,0.05750505,-0.028236652,-0.052636445
1732373098410,2024-11-23T14:44:58.410Z,34374,0.05750505,-0.028236652,-0.052636445
1732373098424,2024-11-23T14:44:58.424Z,34388,0.026323406,-0.03535013,-0.035698116
1732373098429,2024-11-23T14:44:58.429Z,34393,0.026323406,-0.03535013,-0.035698116
1732373098443,2024-11-23T14:44:58.443Z,34407,-0.024502406,-0.04195879,-0.014754946
1732373098447,2024-11-23T14:44:58.447Z,34411,-0.024502406,-0.04195879,-0.014754946
1732373098461,2024-11-23T14:44:58.461Z,34425,-0.03720965,-0.036109537,-0.0077184173
1732373098466,2024-11-23T14:44:58.466Z,34430,-0.03720965,-0.036109537,-0.0077184173
1732373098487,2024-11-23T14:44:58.487Z,34451,-0.011769368,-0.03856708,-0.01826424
1732373098493,2024-11-23T14:44:58.493Z,34457,-0.011769368,-0.03856708,-0.01826424
1732373098510,2024-11-23T14:44:58.510Z,34474,0.02315924,-0.009735469,-0.03652703
1732373098513,2024-11-23T14:44:58.513Z,34477,0.02315924,-0.009735469,-0.03652703
1732373098525,2024-11-23T14:44:58.525Z,34489,-0.016742446,-0.005298736,-0.03303528
1732373098529,2024-11-23T14:44:58.529Z,34493,-0.016742446,-0.005298736,-0.03303528
1732373098541,2024-11-23T14:44:58.541Z,34505,-0.02123314,0.010906914,-0.032986693
1732373098545,2024-11-23T14:44:58.545Z,34509,-0.02123314,0.010906914,-0.032986693
1732373098557,2024-11-23T14:44:58.557Z,34521,-0.027966011,0.0022460332,-0.025269868
1732373098564,2024-11-23T14:44:58.564Z,34528,-0.027966011,0.0022460332,-0.025269868
1732373098582,2024-11-23T14:44:58.582Z,34546,-0.001046349,-0.002561602,-0.054531503
1732373098588,2024-11-23T14:44:58.588Z,34552,-0.001046349,-0.002561602,-0.054531503
1732373098599,2024-11-23T14:44:58.599Z,34563,0.0032273296,-0.012739742,-0.03723007
1732373098603,2024-11-23T14:44:58.603Z,34567,0.0032273296,-0.012739742,-0.03723007
1732373098618,2024-11-23T14:44:58.618Z,34582,-0.0020833255,0.009293867,-0.023235554
1732373098622,2024-11-23T14:44:58.622Z,34586,-0.0020833255,0.009293867,-0.023235554
1732373098632,2024-11-23T14:44:58.632Z,34596,0.011584099,0.017834745,-0.03187695
1732373098635,2024-11-23T14:44:58.635Z,34599,0.011584099,0.017834745,-0.03187695
1732373098645,2024-11-23T14:44:58.645Z,34609,0.014782005,0.015661258,-0.04434595
1732373098648,2024-11-23T14:44:58.648Z,34612,0.014782005,0.015661258,-0.04434595
1732373098936,2024-11-23T14:44:58.936Z,34900,-0.037083946,-0.022322338,-0.05184464
1732373098942,2024-11-23T14:44:58.942Z,34906,-0.037083946,-0.022322338,-0.05184464
1732373098981,2024-11-23T14:44:58.981Z,34945,-0.048187222,-0.011345307,-0.0528515
1732373098988,2024-11-23T14:44:58.988Z,34952,-0.048187222,-0.011345307,-0.0528515
1732373099015,2024-11-23T14:44:59.015Z,34979,-0.009274521,0.004060092,-0.04516264
1732373099023,2024-11-23T14:44:59.023Z,34987,-0.009274521,0.004060092,-0.04516264
1732373099119,2024-11-23T14:44:59.119Z,35083,0.011878413,0.08429967,-0.08841687
1732373099128,2024-11-23T14:44:59.128Z,35092,0.011878413,0.08429967,-0.08841687
1732373099155,2024-11-23T14:44:59.155Z,35119,0.030367794,0.07818775,-0.099784315
1732373099165,2024-11-23T14:44:59.165Z,35129,0.030367794,0.07818775,-0.099784315
1732373099181,2024-11-23T14:44:59.181Z,35145,0.045487463,0.08478493,-0.086565845
1732373099185,2024-11-23T14:44:59.185Z,35149,0.045487463,0.08478493,-0.086565845
1732373099297,2024-11-23T14:44:59.297Z,35261,-0.030947518,0.11441505,-0.0055764876
1732373099303,2024-11-23T14:44:59.303Z,35267,-0.030947518,0.11441505,-0.0055764876
1732373099327,2024-11-23T14:44:59.327Z,35291,-0.018578267,0.10564661,-0.040801845
1732373099335,2024-11-23T14:44:59.335Z,35299,-0.018578267,0.10564661,-0.040801845
1732373099355,2024-11-23T14:44:59.355Z,35319,-0.012185954,0.09053616,-0.05112993
1732373099359,2024-11-23T14:44:59.359Z,35323,-0.012185954,0.09053616,-0.05112993
1732373099372,2024-11-23T14:44:59.372Z,35336,-0.077618755,0.05621939,-0.015117975
1732373099376,2024-11-23T14:44:59.376Z,35340,-0.077618755,0.05621939,-0.015117975
1732373099388,2024-11-23T14:44:59.388Z,35352,-0.07007121,0.05830895,-0.012404082
1732373099391,2024-11-23T14:44:59.391Z,35355,-0.07007121,0.05830895,-0.012404082
1732373099402,2024-11-23T14:44:59.402Z,35366,-0.019855218,0.06041534,-0.043677986
1732373099405,2024-11-23T14:44:59.405Z,35369,-0.019855218,0.06041534,-0.043677986
1732373099415,2024-11-23T14:44:59.415Z,35379,0.024573892,-0.036371425,-0.025082499
1732373099417,2024-11-23T14:44:59.417Z,35381,0.024573892,-0.036371425,-0.025082499
1732373099428,2024-11-23T14:44:59.428Z,35392,0.0064812987,-0.04562289,-0.014571904
1732373099431,2024-11-23T14:44:59.431Z,35395,0.0064812987,-0.04562289,-0.014571904
1732373099439,2024-11-23T14:44:59.439Z,35403,-0.0063222046,-0.05238647,-0.029048828
1732373099443,2024-11-23T14:44:59.443Z,35407,-0.0063222046,-0.05238647,-0.029048828
1732373099450,2024-11-23T14:44:59.450Z,35414,0.02512791,-0.03815942,-0.040075663
1732373099453,2024-11-23T14:44:59.453Z,35417,0.02512791,-0.03815942,-0.040075663
1732373099461,2024-11-23T14:44:59.461Z,35425,0.062289275,-0.067865774,-0.006721437
1732373099463,2024-11-23T14:44:59.463Z,35427,0.062289275,-0.067865774,-0.006721437
1732373099472,2024-11-23T14:44:59.472Z,35436,0.04562668,-0.058538165,0.026958197
1732373099475,2024-11-23T14:44:59.475Z,35439,0.04562668,-0.058538165,0.026958197
1732373099485,2024-11-23T14:44:59.485Z,35449,-0.013189367,-0.080942966,-0.007201163
1732373099488,2024-11-23T14:44:59.488Z,35452,-0.013189367,-0.080942966,-0.007201163
1732373099496,2024-11-23T14:44:59.496Z,35460,-0.0051100194,-0.04369476,-0.0042498102
1732373099498,2024-11-23T14:44:59.498Z,35462,-0.0051100194,-0.04369476,-0.0042498102
1732373099517,2024-11-23T14:44:59.517Z,35481,0.0503703,-0.060268298,-0.04112318
1732373099520,2024-11-23T14:44:59.520Z,35484,0.0503703,-0.060268298,-0.04112318
1732373099529,2024-11-23T14:44:59.529Z,35493,0.04319367,-0.013842921,0.014244497
1732373099532,2024-11-23T14:44:59.532Z,35496,0.04319367,-0.013842921,0.014244497
1732373099544,2024-11-23T14:44:59.544Z,35508,-0.01714663,-0.07429589,-0.034651693
1732373099551,2024-11-23T14:44:59.551Z,35515,-0.01714663,-0.07429589,-0.034651693
1732373099616,2024-11-23T14:44:59.616Z,35580,-0.054476984,-0.035197254,-0.08225136
1732373099626,2024-11-23T14:44:59.626Z,35590,-0.054476984,-0.035197254,-0.08225136
1732373099651,2024-11-23T14:44:59.651Z,35615,-0.036457714,-0.05667169,-0.02271044
1732373099659,2024-11-23T14:44:59.659Z,35623,-0.036457714,-0.05667169,-0.02271044
1732373099677,2024-11-23T14:44:59.677Z,35641,0.06440187,-0.011286764,0.06804287
1732373099681,2024-11-23T14:44:59.681Z,35645,0.06440187,-0.011286764,0.06804287
1732373099695,2024-11-23T14:44:59.695Z,35659,0.0122351935,-0.02299607,-9.881264E-4
1732373099700,2024-11-23T14:44:59.700Z,35664,0.0122351935,-0.02299607,-9.881264E-4
1732373099713,2024-11-23T14:44:59.713Z,35677,0.059979096,0.024472194,-0.058056563
1732373099717,2024-11-23T14:44:59.717Z,35681,0.059979096,0.024472194,-0.058056563
1732373099733,2024-11-23T14:44:59.733Z,35697,0.08607467,0.0030215837,-0.03721738
1732373099751,2024-11-23T14:44:59.751Z,35715,0.08607467,0.0030215837,-0.03721738
1732373099775,2024-11-23T14:44:59.775Z,35739,0.018724084,-0.01696885,-0.029315202
1732373099781,2024-11-23T14:44:59.781Z,35745,0.018724084,-0.01696885,-0.029315202
1732373099802,2024-11-23T14:44:59.802Z,35766,0.040818047,0.03139302,-0.06614747
1732373099808,2024-11-23T14:44:59.808Z,35772,0.040818047,0.03139302,-0.06614747
1732373099825,2024-11-23T14:44:59.825Z,35789,0.024081975,-0.033090577,-0.077563465
1732373099829,2024-11-23T14:44:59.829Z,35793,0.024081975,-0.033090577,-0.077563465
1732373099842,2024-11-23T14:44:59.842Z,35806,0.03680645,-0.039439976,-0.093681425
1732373099845,2024-11-23T14:44:59.845Z,35809,0.03680645,-0.039439976,-0.093681425
1732373099862,2024-11-23T14:44:59.862Z,35826,0.053874984,-0.066783704,-0.08734288
1732373099868,2024-11-23T14:44:59.868Z,35832,0.053874984,-0.066783704,-0.08734288
1732373099891,2024-11-23T14:44:59.891Z,35855,-0.005278102,-0.05799737,-0.0934867
1732373099898,2024-11-23T14:44:59.898Z,35862,-0.005278102,-0.05799737,-0.0934867
1732373099916,2024-11-23T14:44:59.916Z,35880,-0.01441518,-0.09902141,-0.11613557
1732373099920,2024-11-23T14:44:59.920Z,35884,-0.01441518,-0.09902141,-0.11613557
1732373099934,2024-11-23T14:44:59.934Z,35898,-0.013700849,-0.117591545,-0.10113889
1732373099937,2024-11-23T14:44:59.937Z,35901,-0.013700849,-0.117591545,-0.10113889
1732373099949,2024-11-23T14:44:59.949Z,35913,-0.038001467,-0.20114435,-0.035927355
1732373099955,2024-11-23T14:44:59.955Z,35919,-0.038001467,-0.20114435,-0.035927355
1732373099970,2024-11-23T14:44:59.970Z,35934,-0.025173156,-0.22126257,-0.08701461
1732373099972,2024-11-23T14:44:59.972Z,35936,-0.025173156,-0.22126257,-0.08701461
1732373099982,2024-11-23T14:44:59.982Z,35946,-0.03810812,-0.21836819,-0.09624534
1732373099985,2024-11-23T14:44:59.985Z,35949,-0.03810812,-0.21836819,-0.09624534
1732373099995,2024-11-23T14:44:59.995Z,35959,-0.017092837,-0.23305726,-0.01695892
1732373099998,2024-11-23T14:44:59.998Z,35962,-0.017092837,-0.23305726,-0.01695892
1732373100006,2024-11-23T14:45:00.006Z,35970,-0.059591327,-0.21409084,-0.0025765295
1732373100009,2024-11-23T14:45:00.009Z,35973,-0.059591327,-0.21409084,-0.0025765295
1732373100025,2024-11-23T14:45:00.025Z,35989,-0.052546665,-0.20531657,-0.07555514
1732373100031,2024-11-23T14:45:00.031Z,35995,-0.052546665,-0.20531657,-0.07555514
1732373100048,2024-11-23T14:45:00.048Z,36012,0.022512421,-0.19947363,-0.07047868
1732373100051,2024-11-23T14:45:00.051Z,36015,0.022512421,-0.19947363,-0.07047868
1732373100060,2024-11-23T14:45:00.060Z,36024,-0.057927214,-0.20097369,-0.10012197
1732373100063,2024-11-23T14:45:00.063Z,36027,-0.057927214,-0.20097369,-0.10012197
1732373100070,2024-11-23T14:45:00.070Z,36034,-0.02268304,-0.15658827,-0.08100902
1732373100072,2024-11-23T14:45:00.072Z,36036,-0.02268304,-0.15658827,-0.08100902
1732373100081,2024-11-23T14:45:00.081Z,36045,0.0015733761,-0.1791265,-0.015294251
1732373100084,2024-11-23T14:45:00.084Z,36048,0.0015733761,-0.1791265,-0.015294251
1732373100093,2024-11-23T14:45:00.093Z,36057,0.023267947,-0.1685545,-0.039480742
1732373100097,2024-11-23T14:45:00.097Z,36061,0.023267947,-0.1685545,-0.039480742
1732373100108,2024-11-23T14:45:00.108Z,36072,-0.017059688,-0.14176159,-0.06572112
1732373100111,2024-11-23T14:45:00.111Z,36075,-0.017059688,-0.14176159,-0.06572112
1732373100120,2024-11-23T14:45:00.120Z,36084,-0.038599115,-0.1052055,-0.07332953
1732373100122,2024-11-23T14:45:00.122Z,36086,-0.038599115,-0.1052055,-0.07332953
1732373100133,2024-11-23T14:45:00.133Z,36097,-0.009796446,-0.12481832,-0.08745915
1732373100135,2024-11-23T14:45:00.135Z,36099,-0.009796446,-0.12481832,-0.08745915
1732373100145,2024-11-23T14:45:00.145Z,36109,0.020365037,-0.10113179,-0.0265581
1732373100148,2024-11-23T14:45:00.148Z,36112,0.020365037,-0.10113179,-0.0265581
1732373100157,2024-11-23T14:45:00.157Z,36121,-0.010183975,-0.11984721,0.007160097
1732373100160,2024-11-23T14:45:00.160Z,36124,-0.010183975,-0.11984721,0.007160097
1732373100171,2024-11-23T14:45:00.171Z,36135,-0.014382205,-0.095629126,-0.05414251
1732373100175,2024-11-23T14:45:00.175Z,36139,-0.014382205,-0.095629126,-0.05414251
1732373100183,2024-11-23T14:45:00.183Z,36147,-0.0106464,0.003823002,-0.03048858
1732373100186,2024-11-23T14:45:00.186Z,36150,-0.0106464,0.003823002,-0.03048858
1732373100194,2024-11-23T14:45:00.194Z,36158,-0.0041032336,0.026330791,-0.04379922
1732373100197,2024-11-23T14:45:00.197Z,36161,-0.0041032336,0.026330791,-0.04379922
1732373100205,2024-11-23T14:45:00.205Z,36169,0.060588583,0.043012664,-0.07086217
1732373100207,2024-11-23T14:45:00.207Z,36171,0.060588583,0.043012664,-0.07086217
1732373100215,2024-11-23T14:45:00.215Z,36179,-0.044469874,-2.0898534E-4,0.046074
1732373100218,2024-11-23T14:45:00.218Z,36182,-0.044469874,-2.0898534E-4,0.046074
1732373100229,2024-11-23T14:45:00.229Z,36193,-0.027004264,0.02512317,-0.035861965
1732373100235,2024-11-23T14:45:00.235Z,36199,-0.027004264,0.02512317,-0.035861965
1732373100255,2024-11-23T14:45:00.255Z,36219,-0.022088239,0.028525574,-0.028836604
1732373100261,2024-11-23T14:45:00.261Z,36225,-0.022088239,0.028525574,-0.028836604
1732373100273,2024-11-23T14:45:00.273Z,36237,-0.042693786,-0.050652444,-0.012963558
1732373100275,2024-11-23T14:45:00.275Z,36239,-0.042693786,-0.050652444,-0.012963558
1732373100285,2024-11-23T14:45:00.285Z,36249,-0.060033757,-0.049684342,-0.011147645
1732373100288,2024-11-23T14:45:00.288Z,36252,-0.060033757,-0.049684342,-0.011147645
1732373100298,2024-11-23T14:45:00.298Z,36262,-0.04689904,-0.060426325,-0.027222043
1732373100301,2024-11-23T14:45:00.301Z,36265,-0.04689904,-0.060426325,-0.027222043
1732373100309,2024-11-23T14:45:00.309Z,36273,-0.06764968,-0.062865496,-0.005980728
1732373100312,2024-11-23T14:45:00.312Z,36276,-0.06764968,-0.062865496,-0.005980728
1732373100326,2024-11-23T14:45:00.326Z,36290,-0.023704356,-0.07360757,0.010620831
1732373100332,2024-11-23T14:45:00.332Z,36296,-0.023704356,-0.07360757,0.010620831
1732373100350,2024-11-23T14:45:00.350Z,36314,4.1058593E-4,-0.07947677,-0.00790647
1732373100353,2024-11-23T14:45:00.353Z,36317,4.1058593E-4,-0.07947677,-0.00790647
1732373100362,2024-11-23T14:45:00.362Z,36326,-0.025551703,-0.0911956,-0.022487726
1732373100365,2024-11-23T14:45:00.365Z,36329,-0.025551703,-0.0911956,-0.022487726
1732373100374,2024-11-23T14:45:00.374Z,36338,-0.107416786,-0.096109234,-0.07001543
1732373100377,2024-11-23T14:45:00.377Z,36341,-0.107416786,-0.096109234,-0.07001543
1732373100386,2024-11-23T14:45:00.386Z,36350,-0.06933085,-0.09425443,-0.059993293
1732373100389,2024-11-23T14:45:00.389Z,36353,-0.06933085,-0.09425443,-0.059993293
1732373100398,2024-11-23T14:45:00.398Z,36362,-0.061509,-0.1266492,0.009375275
1732373100400,2024-11-23T14:45:00.400Z,36364,-0.061509,-0.1266492,0.009375275
1732373100408,2024-11-23T14:45:00.408Z,36372,0.057743695,-0.14311694,0.03879487
1732373100411,2024-11-23T14:45:00.411Z,36375,0.057743695,-0.14311694,0.03879487
1732373100419,2024-11-23T14:45:00.419Z,36383,-0.029582007,-0.16082701,-0.02453646
1732373100422,2024-11-23T14:45:00.422Z,36386,-0.029582007,-0.16082701,-0.02453646
1732373100431,2024-11-23T14:45:00.431Z,36395,-0.0702488,-0.13800861,-0.14051466
1732373100434,2024-11-23T14:45:00.434Z,36398,-0.0702488,-0.13800861,-0.14051466
1732373100443,2024-11-23T14:45:00.443Z,36407,0.013766742,-0.18703479,0.003733431
1732373100446,2024-11-23T14:45:00.446Z,36410,0.013766742,-0.18703479,0.003733431
1732373100464,2024-11-23T14:45:00.464Z,36428,0.0025575117,-0.19505285,0.031953096
1732373100467,2024-11-23T14:45:00.467Z,36431,0.0025575117,-0.19505285,0.031953096
1732373100480,2024-11-23T14:45:00.480Z,36444,0.028911524,-0.15761511,-0.068808645
1732373100483,2024-11-23T14:45:00.483Z,36447,0.028911524,-0.15761511,-0.068808645
1732373100492,2024-11-23T14:45:00.492Z,36456,0.029386919,-0.15168513,-0.085835025
1732373100495,2024-11-23T14:45:00.495Z,36459,0.029386919,-0.15168513,-0.085835025
1732373100508,2024-11-23T14:45:00.508Z,36472,0.058711626,-0.12896486,0.03189647
1732373100511,2024-11-23T14:45:00.511Z,36475,0.058711626,-0.12896486,0.03189647
1732373100518,2024-11-23T14:45:00.518Z,36482,0.013818611,-0.116972856,-0.05558675
1732373100521,2024-11-23T14:45:00.521Z,36485,0.013818611,-0.116972856,-0.05558675
1732373100530,2024-11-23T14:45:00.530Z,36494,0.021999622,-0.10649772,-0.0553728
1732373100532,2024-11-23T14:45:00.532Z,36496,0.021999622,-0.10649772,-0.0553728
1732373100552,2024-11-23T14:45:00.552Z,36516,0.023933431,-0.13254757,-0.036867052
1732373100555,2024-11-23T14:45:00.555Z,36519,0.023933431,-0.13254757,-0.036867052
1732373100564,2024-11-23T14:45:00.564Z,36528,0.055044174,-0.1260382,0.0041156146
1732373100566,2024-11-23T14:45:00.566Z,36530,0.055044174,-0.1260382,0.0041156146
1732373100574,2024-11-23T14:45:00.574Z,36538,0.039356016,-0.10237773,7.735509E-4
1732373100577,2024-11-23T14:45:00.577Z,36541,0.039356016,-0.10237773,7.735509E-4
1732373100598,2024-11-23T14:45:00.598Z,36562,0.004917121,-0.1023786,-0.040805604
1732373100601,2024-11-23T14:45:00.601Z,36565,0.004917121,-0.1023786,-0.040805604
1732373100643,2024-11-23T14:45:00.643Z,36607,0.005347214,-0.100704096,-0.007847964
1732373100647,2024-11-23T14:45:00.647Z,36611,0.005347214,-0.100704096,-0.007847964
1732373100659,2024-11-23T14:45:00.659Z,36623,0.05411636,-0.11953903,-0.006399483
1732373100662,2024-11-23T14:45:00.662Z,36626,0.05411636,-0.11953903,-0.006399483
1732373100673,2024-11-23T14:45:00.673Z,36637,0.028543262,-0.09393069,0.023358641
1732373100676,2024-11-23T14:45:00.676Z,36640,0.028543262,-0.09393069,0.023358641
1732373100686,2024-11-23T14:45:00.686Z,36650,-0.047076657,-0.088179655,-0.0059266402
1732373100689,2024-11-23T14:45:00.689Z,36653,-0.047076657,-0.088179655,-0.0059266402
1732373100699,2024-11-23T14:45:00.699Z,36663,-0.009465418,-0.07632905,-0.04856929
1732373100702,2024-11-23T14:45:00.702Z,36666,-0.009465418,-0.07632905,-0.04856929
1732373100710,2024-11-23T14:45:00.710Z,36674,-0.015425986,-0.08599713,-0.017562836
1732373100713,2024-11-23T14:45:00.713Z,36677,-0.015425986,-0.08599713,-0.017562836
1732373100733,2024-11-23T14:45:00.733Z,36697,-0.079708375,-0.10238745,-0.018919885
1732373100736,2024-11-23T14:45:00.736Z,36700,-0.079708375,-0.10238745,-0.018919885
1732373100744,2024-11-23T14:45:00.744Z,36708,-0.008387552,-0.08129092,0.01987326
1732373100747,2024-11-23T14:45:00.747Z,36711,-0.008387552,-0.08129092,0.01987326
1732373100754,2024-11-23T14:45:00.754Z,36718,-0.052040152,-0.09204185,0.004328548
1732373100757,2024-11-23T14:45:00.757Z,36721,-0.052040152,-0.09204185,0.004328548
1732373100784,2024-11-23T14:45:00.784Z,36748,0.02739167,-0.1087176,-0.044234753
1732373100792,2024-11-23T14:45:00.792Z,36756,0.02739167,-0.1087176,-0.044234753
1732373100815,2024-11-23T14:45:00.815Z,36779,0.018309584,-0.11704599,-0.0060181906
1732373100821,2024-11-23T14:45:00.821Z,36785,0.018309584,-0.11704599,-0.0060181906
1732373100837,2024-11-23T14:45:00.837Z,36801,-0.0021628195,-0.11706272,0.007240951
1732373100841,2024-11-23T14:45:00.841Z,36805,-0.0021628195,-0.11706272,0.007240951
1732373100869,2024-11-23T14:45:00.869Z,36833,-0.020696763,-0.119480684,-0.04913878
1732373100873,2024-11-23T14:45:00.873Z,36837,-0.020696763,-0.119480684,-0.04913878
1732373100886,2024-11-23T14:45:00.886Z,36850,0.048630685,-0.09750328,-0.09061735
1732373100890,2024-11-23T14:45:00.890Z,36854,0.048630685,-0.09750328,-0.09061735
1732373100901,2024-11-23T14:45:00.901Z,36865,0.0032033275,-0.103847526,-0.067495964
1732373100904,2024-11-23T14:45:00.904Z,36868,0.0032033275,-0.103847526,-0.067495964
1732373100915,2024-11-23T14:45:00.915Z,36879,-0.03343409,-0.08528663,-0.029557822
1732373100918,2024-11-23T14:45:00.918Z,36882,-0.03343409,-0.08528663,-0.029557822
1732373100928,2024-11-23T14:45:00.928Z,36892,-0.008795023,-0.09359033,-0.02906963
1732373100931,2024-11-23T14:45:00.931Z,36895,-0.008795023,-0.09359033,-0.02906963
1732373100939,2024-11-23T14:45:00.939Z,36903,0.020287694,-0.07015868,-0.04599374
1732373100941,2024-11-23T14:45:00.941Z,36905,0.020287694,-0.07015868,-0.04599374
1732373100955,2024-11-23T14:45:00.955Z,36919,0.0387,-0.053069633,-0.085062645
1732373100958,2024-11-23T14:45:00.958Z,36922,0.0387,-0.053069633,-0.085062645
1732373100967,2024-11-23T14:45:00.967Z,36931,0.008160056,-0.04190725,-0.025415957
1732373100970,2024-11-23T14:45:00.970Z,36934,0.008160056,-0.04190725,-0.025415957
1732373100978,2024-11-23T14:45:00.978Z,36942,0.029583646,-0.036567863,-0.020943431
1732373100981,2024-11-23T14:45:00.981Z,36945,0.029583646,-0.036567863,-0.020943431
1732373101001,2024-11-23T14:45:01.001Z,36965,0.0053323233,-0.019016791,-0.035654034
1732373101003,2024-11-23T14:45:01.003Z,36967,0.0053323233,-0.019016791,-0.035654034
1732373101055,2024-11-23T14:45:01.055Z,37019,-0.01801538,0.0068283454,-0.045464724
1732373101064,2024-11-23T14:45:01.064Z,37028,-0.01801538,0.0068283454,-0.045464724
1732373101097,2024-11-23T14:45:01.097Z,37061,-0.010058498,-0.0034424718,-0.031342715
1732373101105,2024-11-23T14:45:01.105Z,37069,-0.010058498,-0.0034424718,-0.031342715
1732373101129,2024-11-23T14:45:01.129Z,37093,0.0027489802,-0.0015163836,-0.030071288
1732373101136,2024-11-23T14:45:01.136Z,37100,0.0027489802,-0.0015163836,-0.030071288
1732373101150,2024-11-23T14:45:01.150Z,37114,-0.023561122,0.023219643,0.012252808
1732373101154,2024-11-23T14:45:01.154Z,37118,-0.023561122,0.023219643,0.012252808
1732373101167,2024-11-23T14:45:01.167Z,37131,-0.004531634,0.032424238,-0.018426687
1732373101170,2024-11-23T14:45:01.170Z,37134,-0.004531634,0.032424238,-0.018426687
1732373101184,2024-11-23T14:45:01.184Z,37148,-0.004526951,0.034295768,-0.04772505
1732373101188,2024-11-23T14:45:01.188Z,37152,-0.004526951,0.034295768,-0.04772505
1732373101202,2024-11-23T14:45:01.202Z,37166,0.002194644,0.039496284,-0.023115782
1732373101206,2024-11-23T14:45:01.206Z,37170,0.002194644,0.039496284,-0.023115782
1732373101224,2024-11-23T14:45:01.224Z,37188,0.07688294,0.05161685,-0.013824133
1732373101229,2024-11-23T14:45:01.229Z,37193,0.07688294,0.05161685,-0.013824133
1732373101239,2024-11-23T14:45:01.239Z,37203,0.0046720873,0.08122382,-0.06715488
1732373101242,2024-11-23T14:45:01.242Z,37206,0.0046720873,0.08122382,-0.06715488
1732373101272,2024-11-23T14:45:01.272Z,37236,0.023490304,0.08986924,-0.05599597
1732373101274,2024-11-23T14:45:01.274Z,37238,0.023490304,0.08986924,-0.05599597
1732373101287,2024-11-23T14:45:01.287Z,37251,0.053669572,0.083866626,-0.07100025
1732373101293,2024-11-23T14:45:01.293Z,37257,0.053669572,0.083866626,-0.07100025
1732373101312,2024-11-23T14:45:01.312Z,37276,0.0064687263,0.09183792,-0.060290843
1732373101318,2024-11-23T14:45:01.318Z,37282,0.0064687263,0.09183792,-0.060290843
1732373101333,2024-11-23T14:45:01.333Z,37297,0.036778934,0.088747,-0.057278033
1732373101337,2024-11-23T14:45:01.337Z,37301,0.036778934,0.088747,-0.057278033
1732373101412,2024-11-23T14:45:01.412Z,37376,0.020690829,0.082347326,-0.060682982
1732373101418,2024-11-23T14:45:01.418Z,37382,0.020690829,0.082347326,-0.060682982
1732373101441,2024-11-23T14:45:01.441Z,37405,0.001518675,0.08074993,-0.04506275
1732373101447,2024-11-23T14:45:01.447Z,37411,0.001518675,0.08074993,-0.04506275
1732373101502,2024-11-23T14:45:01.502Z,37466,0.045169536,0.048764963,-0.05396357
1732373101509,2024-11-23T14:45:01.509Z,37473,0.045169536,0.048764963,-0.05396357
1732373101774,2024-11-23T14:45:01.774Z,37738,0.03476614,0.043738425,-0.013506735
1732373101783,2024-11-23T14:45:01.783Z,37747,0.03476614,0.043738425,-0.013506735
1732373101807,2024-11-23T14:45:01.807Z,37771,-0.017525267,0.1662368,-0.03634202
1732373101814,2024-11-23T14:45:01.814Z,37778,-0.017525267,0.1662368,-0.03634202
1732373101835,2024-11-23T14:45:01.835Z,37799,-0.008641906,0.19864509,-0.043727938
1732373101839,2024-11-23T14:45:01.839Z,37803,-0.008641906,0.19864509,-0.043727938
1732373101859,2024-11-23T14:45:01.859Z,37823,0.039978288,0.24825917,-0.09084189
1732373101863,2024-11-23T14:45:01.863Z,37827,0.039978288,0.24825917,-0.09084189
1732373101877,2024-11-23T14:45:01.877Z,37841,0.023267446,0.19548619,-0.113413446
1732373101881,2024-11-23T14:45:01.881Z,37845,0.023267446,0.19548619,-0.113413446
1732373101951,2024-11-23T14:45:01.951Z,37915,-0.0171654,-0.0016774258,-0.030034896
1732373101957,2024-11-23T14:45:01.957Z,37921,-0.0171654,-0.0016774258,-0.030034896
1732373101979,2024-11-23T14:45:01.979Z,37943,-0.030348994,-0.012012524,-0.044858985
1732373101985,2024-11-23T14:45:01.985Z,37949,-0.030348994,-0.012012524,-0.044858985
1732373102041,2024-11-23T14:45:02.041Z,38005,-0.0557163,0.008964197,-0.01863417
1732373102047,2024-11-23T14:45:02.047Z,38011,-0.0557163,0.008964197,-0.01863417
1732373102085,2024-11-23T14:45:02.085Z,38049,-0.078742735,-0.005668861,-0.026046092
1732373102091,2024-11-23T14:45:02.091Z,38055,-0.078742735,-0.005668861,-0.026046092
1732373102112,2024-11-23T14:45:02.112Z,38076,-0.010357866,0.0075542023,-0.01501247
1732373102115,2024-11-23T14:45:02.115Z,38079,-0.010357866,0.0075542023,-0.01501247
1732373102128,2024-11-23T14:45:02.128Z,38092,0.005877342,0.0046102223,-0.006369677
1732373102134,2024-11-23T14:45:02.134Z,38098,0.005877342,0.0046102223,-0.006369677
1732373102145,2024-11-23T14:45:02.145Z,38109,-0.018550597,-0.016851375,-0.008632011
1732373102149,2024-11-23T14:45:02.149Z,38113,-0.018550597,-0.016851375,-0.008632011
1732373102161,2024-11-23T14:45:02.161Z,38125,-0.01581488,-0.019750621,-0.029815286
1732373102164,2024-11-23T14:45:02.164Z,38128,-0.01581488,-0.019750621,-0.029815286
1732373102174,2024-11-23T14:45:02.174Z,38138,0.009268661,-0.021256696,-0.08114791
1732373102177,2024-11-23T14:45:02.177Z,38141,0.009268661,-0.021256696,-0.08114791
1732373102187,2024-11-23T14:45:02.187Z,38151,-0.0043994137,-0.0030319893,-0.038421385
1732373102189,2024-11-23T14:45:02.189Z,38153,-0.0043994137,-0.0030319893,-0.038421385
1732373102197,2024-11-23T14:45:02.197Z,38161,0.004007019,-0.01275783,0.016005127
1732373102200,2024-11-23T14:45:02.200Z,38164,0.004007019,-0.01275783,0.016005127
1732373102208,2024-11-23T14:45:02.208Z,38172,-0.0025095807,-0.0025029618,0.011019819
1732373102210,2024-11-23T14:45:02.210Z,38174,-0.0025095807,-0.0025029618,0.011019819
1732373102263,2024-11-23T14:45:02.263Z,38227,-0.0036693143,-0.0059388205,-0.013660884
1732373102267,2024-11-23T14:45:02.267Z,38231,-0.0036693143,-0.0059388205,-0.013660884
1732373102307,2024-11-23T14:45:02.307Z,38271,-0.010152862,-0.0044420813,-0.025044441
1732373102311,2024-11-23T14:45:02.311Z,38275,-0.010152862,-0.0044420813,-0.025044441
1732373102321,2024-11-23T14:45:02.321Z,38285,0.008120737,-7.682569E-6,-0.021979272
1732373102325,2024-11-23T14:45:02.325Z,38289,0.008120737,-7.682569E-6,-0.021979272
1732373102336,2024-11-23T14:45:02.336Z,38300,0.012815201,0.0024604644,-0.013098392
1732373102340,2024-11-23T14:45:02.340Z,38304,0.012815201,0.0024604644,-0.013098392
1732373102359,2024-11-23T14:45:02.359Z,38323,-0.010762082,0.024912044,-0.010161402
1732373102367,2024-11-23T14:45:02.367Z,38331,-0.010762082,0.024912044,-0.010161402
1732373102388,2024-11-23T14:45:02.388Z,38352,-0.0125075085,0.035654806,-0.022055952
1732373102395,2024-11-23T14:45:02.395Z,38359,-0.0125075085,0.035654806,-0.022055952
1732373102417,2024-11-23T14:45:02.417Z,38381,-0.0064945365,0.029849602,-0.017931823
1732373102423,2024-11-23T14:45:02.423Z,38387,-0.0064945365,0.029849602,-0.017931823
1732373102496,2024-11-23T14:45:02.496Z,38460,0.0055421474,0.08086021,-0.03653004
1732373102502,2024-11-23T14:45:02.502Z,38466,0.0055421474,0.08086021,-0.03653004
1732373102523,2024-11-23T14:45:02.523Z,38487,-0.02764978,0.08520125,-0.060866646
1732373102530,2024-11-23T14:45:02.530Z,38494,-0.02764978,0.08520125,-0.060866646
1732373102544,2024-11-23T14:45:02.544Z,38508,-0.0054310476,0.10740981,-0.0529772
1732373102548,2024-11-23T14:45:02.548Z,38512,-0.0054310476,0.10740981,-0.0529772
1732373102565,2024-11-23T14:45:02.565Z,38529,0.011973594,0.13278398,-0.08184769
1732373102571,2024-11-23T14:45:02.571Z,38535,0.011973594,0.13278398,-0.08184769
1732373102595,2024-11-23T14:45:02.595Z,38559,0.014024603,0.12702146,-0.11363076
1732373102602,2024-11-23T14:45:02.602Z,38566,0.014024603,0.12702146,-0.11363076
1732373102624,2024-11-23T14:45:02.624Z,38588,0.0067436183,0.1110143,-0.12435912
1732373102630,2024-11-23T14:45:02.630Z,38594,0.0067436183,0.1110143,-0.12435912
1732373102649,2024-11-23T14:45:02.649Z,38613,0.013084802,0.12247076,-0.09299778
1732373102655,2024-11-23T14:45:02.655Z,38619,0.013084802,0.12247076,-0.09299778
1732373102670,2024-11-23T14:45:02.670Z,38634,-0.025048045,0.10347167,-0.05439463
1732373102674,2024-11-23T14:45:02.674Z,38638,-0.025048045,0.10347167,-0.05439463
1732373102686,2024-11-23T14:45:02.686Z,38650,-0.03516343,0.10957523,-0.03477046
1732373102689,2024-11-23T14:45:02.689Z,38653,-0.03516343,0.10957523,-0.03477046
1732373102700,2024-11-23T14:45:02.700Z,38664,-0.01081563,0.06886714,-0.004344438
1732373102704,2024-11-23T14:45:02.704Z,38668,-0.01081563,0.06886714,-0.004344438
1732373102713,2024-11-23T14:45:02.713Z,38677,-0.04110799,0.05171439,0.010649475
1732373102716,2024-11-23T14:45:02.716Z,38680,-0.04110799,0.05171439,0.010649475
1732373102725,2024-11-23T14:45:02.725Z,38689,-0.04993666,0.044227287,0.02326479
1732373102728,2024-11-23T14:45:02.728Z,38692,-0.04993666,0.044227287,0.02326479
1732373102737,2024-11-23T14:45:02.737Z,38701,-0.035475962,0.034810014,0.034649342
1732373102740,2024-11-23T14:45:02.740Z,38704,-0.035475962,0.034810014,0.034649342
1732373102748,2024-11-23T14:45:02.748Z,38712,0.027383173,0.02766046,0.024386859
1732373102750,2024-11-23T14:45:02.750Z,38714,0.027383173,0.02766046,0.024386859
1732373102758,2024-11-23T14:45:02.758Z,38722,-0.06110951,0.038211253,0.016499551
1732373102760,2024-11-23T14:45:02.760Z,38724,-0.06110951,0.038211253,0.016499551
1732373102768,2024-11-23T14:45:02.768Z,38732,-0.07735396,0.037994877,0.0010407876
1732373102770,2024-11-23T14:45:02.770Z,38734,-0.07735396,0.037994877,0.0010407876
1732373102902,2024-11-23T14:45:02.902Z,38866,-0.057069942,0.010418925,-0.0116216885
1732373102911,2024-11-23T14:45:02.911Z,38875,-0.057069942,0.010418925,-0.0116216885
1732373102932,2024-11-23T14:45:02.932Z,38896,-0.09864065,-0.015474348,-0.035133775
1732373102938,2024-11-23T14:45:02.938Z,38902,-0.09864065,-0.015474348,-0.035133775
1732373102957,2024-11-23T14:45:02.957Z,38921,-0.025144089,0.012369618,-0.04515853
1732373102965,2024-11-23T14:45:02.965Z,38929,-0.025144089,0.012369618,-0.04515853
1732373102986,2024-11-23T14:45:02.986Z,38950,0.03857572,0.08681362,0.011430739
1732373102990,2024-11-23T14:45:02.990Z,38954,0.03857572,0.08681362,0.011430739
1732373103003,2024-11-23T14:45:03.003Z,38967,0.059291735,0.09335236,-0.015757859
1732373103007,2024-11-23T14:45:03.007Z,38971,0.059291735,0.09335236,-0.015757859
1732373103019,2024-11-23T14:45:03.019Z,38983,0.011135769,0.09358527,-0.04220548
1732373103023,2024-11-23T14:45:03.023Z,38987,0.011135769,0.09358527,-0.04220548
1732373103039,2024-11-23T14:45:03.039Z,39003,-0.040082064,-0.050825838,-0.005347461
1732373103046,2024-11-23T14:45:03.046Z,39010,-0.040082064,-0.050825838,-0.005347461
1732373103065,2024-11-23T14:45:03.065Z,39029,-0.037986852,-0.01669685,-0.034448862
1732373103070,2024-11-23T14:45:03.070Z,39034,-0.037986852,-0.01669685,-0.034448862
1732373103091,2024-11-23T14:45:03.091Z,39055,-0.010018946,-0.03714639,0.005783975
1732373103097,2024-11-23T14:45:03.097Z,39061,-0.010018946,-0.03714639,0.005783975
1732373103115,2024-11-23T14:45:03.115Z,39079,0.035216376,-0.027856413,-0.031845417
1732373103120,2024-11-23T14:45:03.120Z,39084,0.035216376,-0.027856413,-0.031845417
1732373103133,2024-11-23T14:45:03.133Z,39097,0.09292277,0.009751611,-0.04743382
1732373103137,2024-11-23T14:45:03.137Z,39101,0.09292277,0.009751611,-0.04743382
1732373103149,2024-11-23T14:45:03.149Z,39113,0.06565093,-0.0023791653,-0.036486894
1732373103152,2024-11-23T14:45:03.152Z,39116,0.06565093,-0.0023791653,-0.036486894
1732373103164,2024-11-23T14:45:03.164Z,39128,-0.02005518,-0.019624978,-0.004441051
1732373103167,2024-11-23T14:45:03.167Z,39131,-0.02005518,-0.019624978,-0.004441051
1732373103178,2024-11-23T14:45:03.178Z,39142,0.028497154,-0.028871097,-0.004496248
1732373103181,2024-11-23T14:45:03.181Z,39145,0.028497154,-0.028871097,-0.004496248
1732373103208,2024-11-23T14:45:03.208Z,39172,-0.038962748,-0.023016784,0.02691108
1732373103210,2024-11-23T14:45:03.210Z,39174,-0.038962748,-0.023016784,0.02691108
1732373103220,2024-11-23T14:45:03.220Z,39184,0.016887007,-0.0064929384,-0.009784758
1732373103223,2024-11-23T14:45:03.223Z,39187,0.016887007,-0.0064929384,-0.009784758
1732373103233,2024-11-23T14:45:03.233Z,39197,1.3690654E-4,-0.008956223,-0.010875938
1732373103236,2024-11-23T14:45:03.236Z,39200,1.3690654E-4,-0.008956223,-0.010875938
1732373103255,2024-11-23T14:45:03.255Z,39219,-0.028252518,-0.064782344,0.011478543
1732373103258,2024-11-23T14:45:03.258Z,39222,-0.028252518,-0.064782344,0.011478543
1732373103299,2024-11-23T14:45:03.299Z,39263,-0.021533076,-0.059523966,0.0336158
1732373103303,2024-11-23T14:45:03.303Z,39267,-0.021533076,-0.059523966,0.0336158
1732373103314,2024-11-23T14:45:03.314Z,39278,-0.016139874,-0.06014557,0.0056445855
1732373103318,2024-11-23T14:45:03.318Z,39282,-0.016139874,-0.06014557,0.0056445855
1732373103345,2024-11-23T14:45:03.345Z,39309,-0.039896972,-0.062317114,-0.008898044
1732373103349,2024-11-23T14:45:03.349Z,39313,-0.039896972,-0.062317114,-0.008898044
1732373103361,2024-11-23T14:45:03.361Z,39325,-0.024756746,-0.015451884,-2.7907055E-4
1732373103365,2024-11-23T14:45:03.365Z,39329,-0.024756746,-0.015451884,-2.7907055E-4
1732373103381,2024-11-23T14:45:03.381Z,39345,-0.0049187075,-0.025209622,0.0069992826
1732373103390,2024-11-23T14:45:03.390Z,39354,-0.0049187075,-0.025209622,0.0069992826
1732373103438,2024-11-23T14:45:03.438Z,39402,-0.037765604,-0.01237905,0.002216938
1732373103444,2024-11-23T14:45:03.444Z,39408,-0.037765604,-0.01237905,0.002216938
1732373103468,2024-11-23T14:45:03.468Z,39432,-0.029006526,-0.009821047,-0.057066716
1732373103474,2024-11-23T14:45:03.474Z,39438,-0.029006526,-0.009821047,-0.057066716
1732373103499,2024-11-23T14:45:03.499Z,39463,-0.0018751699,-0.053366434,-0.029711036
1732373103504,2024-11-23T14:45:03.504Z,39468,-0.0018751699,-0.053366434,-0.029711036
1732373103515,2024-11-23T14:45:03.515Z,39479,0.009074441,-0.058339585,0.008227497
1732373103519,2024-11-23T14:45:03.519Z,39483,0.009074441,-0.058339585,0.008227497
1732373103531,2024-11-23T14:45:03.531Z,39495,0.058417324,-0.033132587,-0.07662529
1732373103535,2024-11-23T14:45:03.535Z,39499,0.058417324,-0.033132587,-0.07662529
1732373103550,2024-11-23T14:45:03.550Z,39514,0.03125121,-0.08054328,-0.08365493
1732373103557,2024-11-23T14:45:03.557Z,39521,0.03125121,-0.08054328,-0.08365493
1732373103579,2024-11-23T14:45:03.579Z,39543,0.030505648,-0.056219585,-0.08651956
1732373103585,2024-11-23T14:45:03.585Z,39549,0.030505648,-0.056219585,-0.08651956
1732373103608,2024-11-23T14:45:03.608Z,39572,0.024917921,-0.17064251,-0.12335547
1732373103614,2024-11-23T14:45:03.614Z,39578,0.024917921,-0.17064251,-0.12335547
1732373103633,2024-11-23T14:45:03.633Z,39597,0.032312855,-0.19054931,-0.11924319
1732373103638,2024-11-23T14:45:03.638Z,39602,0.032312855,-0.19054931,-0.11924319
1732373103651,2024-11-23T14:45:03.651Z,39615,0.013119006,-0.22565058,-0.044983596
1732373103655,2024-11-23T14:45:03.655Z,39619,0.013119006,-0.22565058,-0.044983596
1732373103667,2024-11-23T14:45:03.667Z,39631,-0.02298007,-0.23485225,-0.07977879
1732373103671,2024-11-23T14:45:03.671Z,39635,-0.02298007,-0.23485225,-0.07977879
1732373103686,2024-11-23T14:45:03.686Z,39650,9.776221E-4,-0.24084748,-0.020219538
1732373103692,2024-11-23T14:45:03.692Z,39656,9.776221E-4,-0.24084748,-0.020219538
1732373103712,2024-11-23T14:45:03.712Z,39676,0.0038803662,-0.2677394,0.016439289
1732373103718,2024-11-23T14:45:03.718Z,39682,0.0038803662,-0.2677394,0.016439289
1732373103730,2024-11-23T14:45:03.730Z,39694,-0.005238786,-0.16186659,-0.1291462
1732373103734,2024-11-23T14:45:03.734Z,39698,-0.005238786,-0.16186659,-0.1291462
1732373103745,2024-11-23T14:45:03.745Z,39709,0.042213812,-0.16020744,-0.11020014
1732373103748,2024-11-23T14:45:03.748Z,39712,0.042213812,-0.16020744,-0.11020014
1732373103759,2024-11-23T14:45:03.759Z,39723,0.022289107,-0.15563281,-0.032095965
1732373103761,2024-11-23T14:45:03.761Z,39725,0.022289107,-0.15563281,-0.032095965
1732373103770,2024-11-23T14:45:03.770Z,39734,0.044433672,-0.092678726,-0.04048037
1732373103773,2024-11-23T14:45:03.773Z,39737,0.044433672,-0.092678726,-0.04048037
1732373103792,2024-11-23T14:45:03.792Z,39756,0.0067355074,-0.08707336,-0.026948666
1732373103794,2024-11-23T14:45:03.794Z,39758,0.0067355074,-0.08707336,-0.026948666
1732373103839,2024-11-23T14:45:03.839Z,39803,0.0030161683,-0.09177121,-0.028055942
1732373103842,2024-11-23T14:45:03.842Z,39806,0.0030161683,-0.09177121,-0.028055942
1732373103854,2024-11-23T14:45:03.854Z,39818,0.032577995,-0.067122996,0.005500045
1732373103857,2024-11-23T14:45:03.857Z,39821,0.032577995,-0.067122996,0.005500045
1732373103868,2024-11-23T14:45:03.868Z,39832,0.03443109,-0.03234177,0.010754284
1732373103872,2024-11-23T14:45:03.872Z,39836,0.03443109,-0.03234177,0.010754284
1732373103885,2024-11-23T14:45:03.885Z,39849,0.05362632,-0.008403175,0.052173253
1732373103888,2024-11-23T14:45:03.888Z,39852,0.05362632,-0.008403175,0.052173253
1732373103899,2024-11-23T14:45:03.899Z,39863,0.027217828,-0.0033588388,0.04599255
1732373103902,2024-11-23T14:45:03.902Z,39866,0.027217828,-0.0033588388,0.04599255
1732373103914,2024-11-23T14:45:03.914Z,39878,-0.030431475,-0.02029375,0.023733608
1732373103921,2024-11-23T14:45:03.921Z,39885,-0.030431475,-0.02029375,0.023733608
1732373103979,2024-11-23T14:45:03.979Z,39943,-0.04268596,-0.024458481,0.04785129
1732373103986,2024-11-23T14:45:03.986Z,39950,-0.04268596,-0.024458481,0.04785129
1732373104009,2024-11-23T14:45:04.009Z,39973,-0.051151477,-0.08228499,-0.06285024
1732373104015,2024-11-23T14:45:04.015Z,39979,-0.051151477,-0.08228499,-0.06285024
1732373104035,2024-11-23T14:45:04.035Z,39999,-0.044738308,-0.098453194,-0.018329384
1732373104039,2024-11-23T14:45:04.039Z,40003,-0.044738308,-0.098453194,-0.018329384
1732373104051,2024-11-23T14:45:04.051Z,40015,-0.06327658,-0.11699736,0.01572439
1732373104055,2024-11-23T14:45:04.055Z,40019,-0.06327658,-0.11699736,0.01572439
1732373104067,2024-11-23T14:45:04.067Z,40031,-0.124169394,-0.11604337,-0.12506892
1732373104071,2024-11-23T14:45:04.071Z,40035,-0.124169394,-0.11604337,-0.12506892
1732373104107,2024-11-23T14:45:04.107Z,40071,-0.081034444,-0.12617502,-0.11949199
1732373104110,2024-11-23T14:45:04.110Z,40074,-0.081034444,-0.12617502,-0.11949199
1732373104122,2024-11-23T14:45:04.122Z,40086,-0.051899757,-0.14025551,-0.06713437
1732373104125,2024-11-23T14:45:04.125Z,40089,-0.051899757,-0.14025551,-0.06713437
1732373104137,2024-11-23T14:45:04.137Z,40101,-0.047054067,-0.18556741,-0.018242005
1732373104141,2024-11-23T14:45:04.141Z,40105,-0.047054067,-0.18556741,-0.018242005
1732373104154,2024-11-23T14:45:04.154Z,40118,-0.03381117,-0.15797006,-0.027713569
1732373104158,2024-11-23T14:45:04.158Z,40122,-0.03381117,-0.15797006,-0.027713569
1732373104168,2024-11-23T14:45:04.168Z,40132,0.010438017,-0.133974,-0.061794844
1732373104171,2024-11-23T14:45:04.171Z,40135,0.010438017,-0.133974,-0.061794844
1732373104180,2024-11-23T14:45:04.180Z,40144,0.01781741,-0.14947315,-0.061453525
1732373104183,2024-11-23T14:45:04.183Z,40147,0.01781741,-0.14947315,-0.061453525
1732373104197,2024-11-23T14:45:04.197Z,40161,-0.031860534,-0.13352656,-0.05436572
1732373104199,2024-11-23T14:45:04.199Z,40163,-0.031860534,-0.13352656,-0.05436572
1732373104244,2024-11-23T14:45:04.244Z,40208,-0.032868043,-0.14872384,-0.11764416
1732373104248,2024-11-23T14:45:04.248Z,40212,-0.032868043,-0.14872384,-0.11764416
1732373104260,2024-11-23T14:45:04.260Z,40224,0.011198214,-0.15550688,-0.0747157
1732373104263,2024-11-23T14:45:04.263Z,40227,0.011198214,-0.15550688,-0.0747157
1732373104275,2024-11-23T14:45:04.275Z,40239,-0.0155091565,-0.15544483,-0.007091735
1732373104279,2024-11-23T14:45:04.279Z,40243,-0.0155091565,-0.15544483,-0.007091735
1732373104291,2024-11-23T14:45:04.291Z,40255,-0.0069158683,-0.14886485,-4.4655544E-4
1732373104294,2024-11-23T14:45:04.294Z,40258,-0.0069158683,-0.14886485,-4.4655544E-4
1732373104305,2024-11-23T14:45:04.305Z,40269,-0.046233047,-0.15120658,-0.023739455
1732373104309,2024-11-23T14:45:04.309Z,40273,-0.046233047,-0.15120658,-0.023739455
1732373104318,2024-11-23T14:45:04.318Z,40282,-0.029268462,-0.11307945,-0.05259364
1732373104321,2024-11-23T14:45:04.321Z,40285,-0.029268462,-0.11307945,-0.05259364
1732373104337,2024-11-23T14:45:04.337Z,40301,-0.002326524,-0.08209409,0.051353004
1732373104341,2024-11-23T14:45:04.341Z,40305,-0.002326524,-0.08209409,0.051353004
1732373104350,2024-11-23T14:45:04.350Z,40314,0.012467528,-0.06502148,0.021207511
1732373104357,2024-11-23T14:45:04.357Z,40321,0.012467528,-0.06502148,0.021207511
1732373104375,2024-11-23T14:45:04.375Z,40339,-0.0053406376,-0.03719861,-0.004523932
1732373104378,2024-11-23T14:45:04.378Z,40342,-0.0053406376,-0.03719861,-0.004523932
1732373104386,2024-11-23T14:45:04.386Z,40350,-0.014804166,-0.045523502,-0.034683134
1732373104388,2024-11-23T14:45:04.388Z,40352,-0.014804166,-0.045523502,-0.034683134
1732373104396,2024-11-23T14:45:04.396Z,40360,-0.017069824,-0.06755526,-0.043955714
1732373104398,2024-11-23T14:45:04.398Z,40362,-0.017069824,-0.06755526,-0.043955714
1732373104405,2024-11-23T14:45:04.405Z,40369,-0.042789444,-0.07544128,-0.004475981
1732373104408,2024-11-23T14:45:04.408Z,40372,-0.042789444,-0.07544128,-0.004475981
1732373104422,2024-11-23T14:45:04.422Z,40386,0.018952364,-0.07847443,0.05731234
1732373104424,2024-11-23T14:45:04.424Z,40388,0.018952364,-0.07847443,0.05731234
1732373104432,2024-11-23T14:45:04.432Z,40396,-0.024369638,-0.08577356,0.034929067
1732373104434,2024-11-23T14:45:04.434Z,40398,-0.024369638,-0.08577356,0.034929067
1732373104443,2024-11-23T14:45:04.443Z,40407,-0.009634677,-0.09203611,-0.020926563
1732373104445,2024-11-23T14:45:04.445Z,40409,-0.009634677,-0.09203611,-0.020926563
1732373104469,2024-11-23T14:45:04.469Z,40433,-0.033101518,-0.083452836,-0.017675994
1732373104471,2024-11-23T14:45:04.471Z,40435,-0.033101518,-0.083452836,-0.017675994
1732373104479,2024-11-23T14:45:04.479Z,40443,-0.02267037,-0.082795344,-0.010192603
1732373104481,2024-11-23T14:45:04.481Z,40445,-0.02267037,-0.082795344,-0.010192603
1732373104563,2024-11-23T14:45:04.563Z,40527,-0.05144474,-0.08115059,0.010694295
1732373104571,2024-11-23T14:45:04.571Z,40535,-0.05144474,-0.08115059,0.010694295
1732373104591,2024-11-23T14:45:04.591Z,40555,-0.05544603,-0.08412326,0.0444777
1732373104598,2024-11-23T14:45:04.598Z,40562,-0.05544603,-0.08412326,0.0444777
1732373104698,2024-11-23T14:45:04.698Z,40662,-0.07177095,-0.094742805,0.03290039
1732373104705,2024-11-23T14:45:04.705Z,40669,-0.07177095,-0.094742805,0.03290039
1732373104724,2024-11-23T14:45:04.724Z,40688,-0.08074608,-0.06486189,0.013845979
1732373104731,2024-11-23T14:45:04.731Z,40695,-0.08074608,-0.06486189,0.013845979
1732373104744,2024-11-23T14:45:04.744Z,40708,-0.05153216,-0.048651766,0.017607003
1732373104747,2024-11-23T14:45:04.747Z,40711,-0.05153216,-0.048651766,0.017607003
1732373104760,2024-11-23T14:45:04.760Z,40724,-0.018349802,-0.028109744,0.009578346
1732373104763,2024-11-23T14:45:04.763Z,40727,-0.018349802,-0.028109744,0.009578346
1732373104776,2024-11-23T14:45:04.776Z,40740,-0.0142966695,-0.019779991,0.008036821
1732373104779,2024-11-23T14:45:04.779Z,40743,-0.0142966695,-0.019779991,0.008036821
1732373104827,2024-11-23T14:45:04.827Z,40791,-0.017363325,0.061423212,0.013357847
1732373104831,2024-11-23T14:45:04.831Z,40795,-0.017363325,0.061423212,0.013357847
1732373104843,2024-11-23T14:45:04.843Z,40807,0.025792649,0.080948025,-0.02991849
1732373104846,2024-11-23T14:45:04.846Z,40810,0.025792649,0.080948025,-0.02991849
1732373104873,2024-11-23T14:45:04.873Z,40837,0.014429899,0.08523393,-0.048770815
1732373104877,2024-11-23T14:45:04.877Z,40841,0.014429899,0.08523393,-0.048770815
1732373105011,2024-11-23T14:45:05.011Z,40975,0.034207597,0.106159985,-0.04438734
1732373105017,2024-11-23T14:45:05.017Z,40981,0.034207597,0.106159985,-0.04438734
1732373105057,2024-11-23T14:45:05.057Z,41021,0.041003034,0.13956632,-0.040813055
1732373105063,2024-11-23T14:45:05.063Z,41027,0.041003034,0.13956632,-0.040813055
1732373105084,2024-11-23T14:45:05.084Z,41048,0.030739462,0.14335723,-0.037494596
1732373105091,2024-11-23T14:45:05.091Z,41055,0.030739462,0.14335723,-0.037494596
1732373105108,2024-11-23T14:45:05.108Z,41072,0.020485556,0.15153508,-0.044926703
1732373105113,2024-11-23T14:45:05.113Z,41077,0.020485556,0.15153508,-0.044926703
1732373105126,2024-11-23T14:45:05.126Z,41090,0.0323836,0.2056441,-0.051762965
1732373105129,2024-11-23T14:45:05.129Z,41093,0.0323836,0.2056441,-0.051762965
1732373105374,2024-11-23T14:45:05.374Z,41338,-0.002397284,0.23521115,-0.059630893
1732373105379,2024-11-23T14:45:05.379Z,41343,-0.002397284,0.23521115,-0.059630893
1732373105400,2024-11-23T14:45:05.400Z,41364,-0.0028411648,0.23414901,-0.05877474
1732373105406,2024-11-23T14:45:05.406Z,41370,-0.0028411648,0.23414901,-0.05877474
1732373105421,2024-11-23T14:45:05.421Z,41385,-0.018803509,0.055329476,-0.024446312
1732373105425,2024-11-23T14:45:05.425Z,41389,-0.018803509,0.055329476,-0.024446312
1732373105437,2024-11-23T14:45:05.437Z,41401,-0.045258205,-0.07028229,-0.009857357
1732373105440,2024-11-23T14:45:05.440Z,41404,-0.045258205,-0.07028229,-0.009857357
1732373105451,2024-11-23T14:45:05.451Z,41415,-0.05791715,-0.06055158,0.038766075
1732373105456,2024-11-23T14:45:05.456Z,41420,-0.05791715,-0.06055158,0.038766075
1732373105467,2024-11-23T14:45:05.467Z,41431,0.04099492,-0.06570201,0.004828276
1732373105470,2024-11-23T14:45:05.470Z,41434,0.04099492,-0.06570201,0.004828276
1732373105481,2024-11-23T14:45:05.481Z,41445,-0.04386756,-0.028724933,0.011056068
1732373105484,2024-11-23T14:45:05.484Z,41448,-0.04386756,-0.028724933,0.011056068
1732373105494,2024-11-23T14:45:05.494Z,41458,0.0076100593,-0.037051767,0.023812415
1732373105497,2024-11-23T14:45:05.497Z,41461,0.0076100593,-0.037051767,0.023812415
1732373105508,2024-11-23T14:45:05.508Z,41472,0.019638307,-0.04492358,-0.002687246
1732373105510,2024-11-23T14:45:05.510Z,41474,0.019638307,-0.04492358,-0.002687246
1732373105519,2024-11-23T14:45:05.519Z,41483,0.014690483,-0.06989757,-0.013592544
1732373105521,2024-11-23T14:45:05.521Z,41485,0.014690483,-0.06989757,-0.013592544
1732373105529,2024-11-23T14:45:05.529Z,41493,0.011259055,-0.015761813,-0.033011526
1732373105531,2024-11-23T14:45:05.531Z,41495,0.011259055,-0.015761813,-0.033011526
1732373105539,2024-11-23T14:45:05.539Z,41503,0.024038276,-0.014767746,-0.02136576
1732373105542,2024-11-23T14:45:05.542Z,41506,0.024038276,-0.014767746,-0.02136576
1732373105597,2024-11-23T14:45:05.597Z,41561,0.018213773,-0.009860821,-0.012521646
1732373105605,2024-11-23T14:45:05.605Z,41569,0.018213773,-0.009860821,-0.012521646
1732373105633,2024-11-23T14:45:05.633Z,41597,0.025038518,0.0038185287,-0.029473303
1732373105640,2024-11-23T14:45:05.640Z,41604,0.025038518,0.0038185287,-0.029473303
1732373105660,2024-11-23T14:45:05.660Z,41624,-0.028040899,0.0037986902,-0.010784267
1732373105666,2024-11-23T14:45:05.666Z,41630,-0.028040899,0.0037986902,-0.010784267
1732373105682,2024-11-23T14:45:05.682Z,41646,-0.0055062203,0.018944342,-0.042721093
1732373105686,2024-11-23T14:45:05.686Z,41650,-0.0055062203,0.018944342,-0.042721093
1732373105731,2024-11-23T14:45:05.731Z,41695,-0.0314916,0.013144098,-0.029904207
1732373105738,2024-11-23T14:45:05.738Z,41702,-0.0314916,0.013144098,-0.029904207
1732373105776,2024-11-23T14:45:05.776Z,41740,-0.017578656,0.0048823217,-0.03366917
1732373105781,2024-11-23T14:45:05.781Z,41745,-0.017578656,0.0048823217,-0.03366917
1732373105797,2024-11-23T14:45:05.797Z,41761,0.020322785,-0.007803546,-0.017708214
1732373105802,2024-11-23T14:45:05.802Z,41766,0.020322785,-0.007803546,-0.017708214
1732373105813,2024-11-23T14:45:05.813Z,41777,-7.6926587E-4,0.0048406995,0.03071115
1732373105817,2024-11-23T14:45:05.817Z,41781,-7.6926587E-4,0.0048406995,0.03071115
1732373105865,2024-11-23T14:45:05.865Z,41829,-0.005854209,0.018386237,0.03617382
1732373105871,2024-11-23T14:45:05.871Z,41835,-0.005854209,0.018386237,0.03617382
1732373105889,2024-11-23T14:45:05.889Z,41853,0.012417938,0.034890633,0.03317982
1732373105893,2024-11-23T14:45:05.893Z,41857,0.012417938,0.034890633,0.03317982
1732373105905,2024-11-23T14:45:05.905Z,41869,0.009758814,0.06517182,-0.0025955718
1732373105909,2024-11-23T14:45:05.909Z,41873,0.009758814,0.06517182,-0.0025955718
1732373105956,2024-11-23T14:45:05.956Z,41920,-0.015765289,0.062273838,-0.03499916
1732373105961,2024-11-23T14:45:05.961Z,41925,-0.015765289,0.062273838,-0.03499916
1732373105979,2024-11-23T14:45:05.979Z,41943,-0.036555197,0.06313633,-0.032511234
1732373105983,2024-11-23T14:45:05.983Z,41947,-0.036555197,0.06313633,-0.032511234
1732373105995,2024-11-23T14:45:05.995Z,41959,-0.033012312,0.05646776,-0.066529416
1732373105999,2024-11-23T14:45:05.999Z,41963,-0.033012312,0.05646776,-0.066529416
1732373106009,2024-11-23T14:45:06.009Z,41973,0.0029745342,0.08450156,-0.042853117
1732373106013,2024-11-23T14:45:06.013Z,41977,0.0029745342,0.08450156,-0.042853117
1732373106024,2024-11-23T14:45:06.024Z,41988,-0.0126883285,0.11337732,-0.06377083
1732373106028,2024-11-23T14:45:06.028Z,41992,-0.0126883285,0.11337732,-0.06377083
1732373106038,2024-11-23T14:45:06.038Z,42002,-0.0037837324,0.113072254,-0.043338627
1732373106041,2024-11-23T14:45:06.041Z,42005,-0.0037837324,0.113072254,-0.043338627
1732373106053,2024-11-23T14:45:06.053Z,42017,-0.016652254,0.09178803,-0.031760186
1732373106056,2024-11-23T14:45:06.056Z,42020,-0.016652254,0.09178803,-0.031760186
1732373106070,2024-11-23T14:45:06.070Z,42034,-0.025306271,0.061671097,-0.06544125
1732373106075,2024-11-23T14:45:06.075Z,42039,-0.025306271,0.061671097,-0.06544125
1732373106095,2024-11-23T14:45:06.095Z,42059,0.020589286,0.044625226,-0.034732874
1732373106101,2024-11-23T14:45:06.101Z,42065,0.020589286,0.044625226,-0.034732874
1732373106121,2024-11-23T14:45:06.121Z,42085,0.036153726,0.060284734,0.005575567
1732373106127,2024-11-23T14:45:06.127Z,42091,0.036153726,0.060284734,0.005575567
1732373106148,2024-11-23T14:45:06.148Z,42112,0.02458379,0.08968515,-0.010798991
1732373106153,2024-11-23T14:45:06.153Z,42117,0.02458379,0.08968515,-0.010798991
1732373106166,2024-11-23T14:45:06.166Z,42130,0.039770752,0.08191506,-0.047259208
1732373106170,2024-11-23T14:45:06.170Z,42134,0.039770752,0.08191506,-0.047259208
1732373106183,2024-11-23T14:45:06.183Z,42147,-0.0075565455,0.08196903,-0.07092959
1732373106187,2024-11-23T14:45:06.187Z,42151,-0.0075565455,0.08196903,-0.07092959
1732373106197,2024-11-23T14:45:06.197Z,42161,0.107116476,0.06401895,-0.081477225
1732373106200,2024-11-23T14:45:06.200Z,42164,0.107116476,0.06401895,-0.081477225
1732373106211,2024-11-23T14:45:06.211Z,42175,0.011183978,0.08164422,-0.019631565
1732373106214,2024-11-23T14:45:06.214Z,42178,0.011183978,0.08164422,-0.019631565
1732373106223,2024-11-23T14:45:06.223Z,42187,-0.005420913,0.07727148,-0.017981289
1732373106226,2024-11-23T14:45:06.226Z,42190,-0.005420913,0.07727148,-0.017981289
1732373106321,2024-11-23T14:45:06.321Z,42285,-0.016633546,0.041575734,-0.043070823
1732373106329,2024-11-23T14:45:06.329Z,42293,-0.016633546,0.041575734,-0.043070823
1732373106349,2024-11-23T14:45:06.349Z,42313,0.02216509,0.06302235,-0.05816844
1732373106355,2024-11-23T14:45:06.355Z,42319,0.02216509,0.06302235,-0.05816844
1732373106369,2024-11-23T14:45:06.369Z,42333,0.004946822,0.08105208,0.03083062
1732373106373,2024-11-23T14:45:06.373Z,42337,0.004946822,0.08105208,0.03083062
1732373106451,2024-11-23T14:45:06.451Z,42415,-0.026512414,0.08859607,0.015363604
1732373106457,2024-11-23T14:45:06.457Z,42421,-0.026512414,0.08859607,0.015363604
1732373106494,2024-11-23T14:45:06.494Z,42458,0.0028798361,0.0796558,0.04765555
1732373106499,2024-11-23T14:45:06.499Z,42463,0.0028798361,0.0796558,0.04765555
1732373106520,2024-11-23T14:45:06.520Z,42484,-0.042099107,0.060457446,0.09526923
1732373106525,2024-11-23T14:45:06.525Z,42489,-0.042099107,0.060457446,0.09526923
1732373106539,2024-11-23T14:45:06.539Z,42503,-0.08557795,-0.0023645782,0.015466423
1732373106545,2024-11-23T14:45:06.545Z,42509,-0.08557795,-0.0023645782,0.015466423
1732373106563,2024-11-23T14:45:06.563Z,42527,-0.044496406,0.035991866,0.011683431
1732373106570,2024-11-23T14:45:06.570Z,42534,-0.044496406,0.035991866,0.011683431
1732373106591,2024-11-23T14:45:06.591Z,42555,-0.028885422,0.026997618,0.026270445
1732373106597,2024-11-23T14:45:06.597Z,42561,-0.028885422,0.026997618,0.026270445
1732373106610,2024-11-23T14:45:06.610Z,42574,-0.045323353,0.044704676,-0.0022472125
1732373106614,2024-11-23T14:45:06.614Z,42578,-0.045323353,0.044704676,-0.0022472125
1732373106626,2024-11-23T14:45:06.626Z,42590,0.0066456567,-0.0065853237,-0.0011253991
1732373106630,2024-11-23T14:45:06.630Z,42594,0.0066456567,-0.0065853237,-0.0011253991
1732373106641,2024-11-23T14:45:06.641Z,42605,-0.019359421,0.009410272,-0.04222953
1732373106644,2024-11-23T14:45:06.644Z,42608,-0.019359421,0.009410272,-0.04222953
1732373106654,2024-11-23T14:45:06.654Z,42618,0.015274057,0.0028770736,-0.00714451
1732373106658,2024-11-23T14:45:06.658Z,42622,0.015274057,0.0028770736,-0.00714451
1732373106670,2024-11-23T14:45:06.670Z,42634,-0.0050934097,-0.023188524,0.061667133
1732373106674,2024-11-23T14:45:06.674Z,42638,-0.0050934097,-0.023188524,0.061667133
1732373106685,2024-11-23T14:45:06.685Z,42649,0.020302363,-0.0015265946,0.08950212
1732373106687,2024-11-23T14:45:06.687Z,42651,0.020302363,-0.0015265946,0.08950212
1732373106698,2024-11-23T14:45:06.698Z,42662,-0.008169136,-0.044105824,0.004869108
1732373106701,2024-11-23T14:45:06.701Z,42665,-0.008169136,-0.044105824,0.004869108
1732373106710,2024-11-23T14:45:06.710Z,42674,-0.05647013,-0.057357576,-0.0327692
1732373106712,2024-11-23T14:45:06.712Z,42676,-0.05647013,-0.057357576,-0.0327692
1732373106724,2024-11-23T14:45:06.724Z,42688,0.017380655,-0.027209327,-0.012436208
1732373106726,2024-11-23T14:45:06.726Z,42690,0.017380655,-0.027209327,-0.012436208
1732373106734,2024-11-23T14:45:06.734Z,42698,0.014787995,-0.02334237,0.053281244
1732373106736,2024-11-23T14:45:06.736Z,42700,0.014787995,-0.02334237,0.053281244
1732373106744,2024-11-23T14:45:06.744Z,42708,-0.0019850812,-0.007731193,0.09777742
1732373106746,2024-11-23T14:45:06.746Z,42710,-0.0019850812,-0.007731193,0.09777742
1732373106813,2024-11-23T14:45:06.813Z,42777,0.046872117,-0.03891727,0.036398027
1732373106816,2024-11-23T14:45:06.816Z,42780,0.046872117,-0.03891727,0.036398027
1732373106825,2024-11-23T14:45:06.825Z,42789,-0.0013541562,-0.035168663,0.03721875
1732373106829,2024-11-23T14:45:06.829Z,42793,-0.0013541562,-0.035168663,0.03721875
1732373106839,2024-11-23T14:45:06.839Z,42803,-0.03417914,-0.06369064,-0.012488892
1732373106842,2024-11-23T14:45:06.842Z,42806,-0.03417914,-0.06369064,-0.012488892
1732373106857,2024-11-23T14:45:06.857Z,42821,-0.027115392,-0.12424504,-0.041833658
1732373106860,2024-11-23T14:45:06.860Z,42824,-0.027115392,-0.12424504,-0.041833658
1732373106870,2024-11-23T14:45:06.870Z,42834,-0.016467214,-0.11916881,-0.043911755
1732373106873,2024-11-23T14:45:06.873Z,42837,-0.016467214,-0.11916881,-0.043911755
1732373106885,2024-11-23T14:45:06.885Z,42849,-0.04988424,-0.13159463,-0.004455878
1732373106888,2024-11-23T14:45:06.888Z,42852,-0.04988424,-0.13159463,-0.004455878
1732373106899,2024-11-23T14:45:06.899Z,42863,0.04301988,-0.2291549,-0.07469793
1732373106902,2024-11-23T14:45:06.902Z,42866,0.04301988,-0.2291549,-0.07469793
1732373106912,2024-11-23T14:45:06.912Z,42876,0.018536873,-0.25270063,-0.10372288
1732373106915,2024-11-23T14:45:06.915Z,42879,0.018536873,-0.25270063,-0.10372288
1732373106992,2024-11-23T14:45:06.992Z,42956,0.01914767,-0.19764276,-0.07627142
1732373106997,2024-11-23T14:45:06.997Z,42961,0.01914767,-0.19764276,-0.07627142
1732373107013,2024-11-23T14:45:07.013Z,42977,0.0042369217,-0.19506744,-0.04087606
1732373107016,2024-11-23T14:45:07.016Z,42980,0.0042369217,-0.19506744,-0.04087606
1732373107026,2024-11-23T14:45:07.026Z,42990,0.031054782,-0.1617038,-0.043481506
1732373107029,2024-11-23T14:45:07.029Z,42993,0.031054782,-0.1617038,-0.043481506
1732373107040,2024-11-23T14:45:07.040Z,43004,-0.035035737,-0.19338262,-0.047455136
1732373107043,2024-11-23T14:45:07.043Z,43007,-0.035035737,-0.19338262,-0.047455136
1732373107081,2024-11-23T14:45:07.081Z,43045,0.028477535,-0.25296903,-0.08150106
1732373107088,2024-11-23T14:45:07.088Z,43052,0.028477535,-0.25296903,-0.08150106
1732373107112,2024-11-23T14:45:07.112Z,43076,0.060372498,-0.22468083,-0.059633173
1732373107118,2024-11-23T14:45:07.118Z,43082,0.060372498,-0.22468083,-0.059633173
1732373107135,2024-11-23T14:45:07.135Z,43099,0.058387406,-0.21937343,-0.015223923
1732373107141,2024-11-23T14:45:07.141Z,43105,0.058387406,-0.21937343,-0.015223923
1732373107154,2024-11-23T14:45:07.154Z,43118,0.0070037255,-0.13365658,0.020903615
1732373107158,2024-11-23T14:45:07.158Z,43122,0.0070037255,-0.13365658,0.020903615
1732373107170,2024-11-23T14:45:07.170Z,43134,0.020983769,-0.120476015,-0.051862497
1732373107174,2024-11-23T14:45:07.174Z,43138,0.020983769,-0.120476015,-0.051862497
1732373107184,2024-11-23T14:45:07.184Z,43148,-0.01808013,-0.076090306,-0.02572495
1732373107187,2024-11-23T14:45:07.187Z,43151,-0.01808013,-0.076090306,-0.02572495
1732373107197,2024-11-23T14:45:07.197Z,43161,-0.06452001,-0.028748272,0.012451172
1732373107200,2024-11-23T14:45:07.200Z,43164,-0.06452001,-0.028748272,0.012451172
1732373107208,2024-11-23T14:45:07.208Z,43172,0.08001449,-0.04122321,-0.05927202
1732373107211,2024-11-23T14:45:07.211Z,43175,0.08001449,-0.04122321,-0.05927202
1732373107263,2024-11-23T14:45:07.263Z,43227,0.04216771,-0.0760695,-0.05827009
1732373107270,2024-11-23T14:45:07.270Z,43234,0.04216771,-0.0760695,-0.05827009
1732373107288,2024-11-23T14:45:07.288Z,43252,0.061627932,0.0037902298,-0.102014
1732373107293,2024-11-23T14:45:07.293Z,43257,0.061627932,0.0037902298,-0.102014
1732373107312,2024-11-23T14:45:07.312Z,43276,0.056177758,-0.028188514,-0.018887416
1732373107318,2024-11-23T14:45:07.318Z,43282,0.056177758,-0.028188514,-0.018887416
1732373107337,2024-11-23T14:45:07.337Z,43301,0.079503626,-0.014605148,-0.022657841
1732373107341,2024-11-23T14:45:07.341Z,43305,0.079503626,-0.014605148,-0.022657841
1732373107353,2024-11-23T14:45:07.353Z,43317,-0.0027784994,0.009502561,-0.009154499
1732373107356,2024-11-23T14:45:07.356Z,43320,-0.0027784994,0.009502561,-0.009154499
1732373107367,2024-11-23T14:45:07.367Z,43331,0.009583474,0.051087044,-0.002998378
1732373107370,2024-11-23T14:45:07.370Z,43334,0.009583474,0.051087044,-0.002998378
1732373107380,2024-11-23T14:45:07.380Z,43344,-3.4091555E-4,0.031568553,-0.05166748
1732373107383,2024-11-23T14:45:07.383Z,43347,-3.4091555E-4,0.031568553,-0.05166748
1732373107391,2024-11-23T14:45:07.391Z,43355,-0.01563374,-0.03563701,0.008033974
1732373107394,2024-11-23T14:45:07.394Z,43358,-0.01563374,-0.03563701,0.008033974
1732373107402,2024-11-23T14:45:07.402Z,43366,-0.01279462,-0.057431776,-0.020455375
1732373107405,2024-11-23T14:45:07.405Z,43369,-0.01279462,-0.057431776,-0.020455375
1732373107413,2024-11-23T14:45:07.413Z,43377,0.054676067,-0.044953145,-0.07264396
1732373107415,2024-11-23T14:45:07.415Z,43379,0.054676067,-0.044953145,-0.07264396
1732373107425,2024-11-23T14:45:07.425Z,43389,-0.0439358,-0.03501511,0.07089514
1732373107430,2024-11-23T14:45:07.430Z,43394,-0.0439358,-0.03501511,0.07089514
1732373107447,2024-11-23T14:45:07.447Z,43411,-0.021776974,-0.03619424,0.12191733
1732373107449,2024-11-23T14:45:07.449Z,43413,-0.021776974,-0.03619424,0.12191733
1732373107457,2024-11-23T14:45:07.457Z,43421,-0.03035399,-0.050112624,0.083390936
1732373107460,2024-11-23T14:45:07.460Z,43424,-0.03035399,-0.050112624,0.083390936
1732373107468,2024-11-23T14:45:07.468Z,43432,-0.043139756,-0.11514761,-0.070716046
1732373107470,2024-11-23T14:45:07.470Z,43434,-0.043139756,-0.11514761,-0.070716046
1732373107480,2024-11-23T14:45:07.480Z,43444,0.0046087517,-0.09455463,-0.010358073
1732373107484,2024-11-23T14:45:07.484Z,43448,0.0046087517,-0.09455463,-0.010358073
1732373107498,2024-11-23T14:45:07.498Z,43462,-0.033454757,-0.09688596,0.05519094
1732373107501,2024-11-23T14:45:07.501Z,43465,-0.033454757,-0.09688596,0.05519094
1732373107510,2024-11-23T14:45:07.510Z,43474,-0.061129514,-0.1093181,0.02090799
1732373107512,2024-11-23T14:45:07.512Z,43476,-0.061129514,-0.1093181,0.02090799
1732373107519,2024-11-23T14:45:07.519Z,43483,-0.019264108,-0.08431659,-0.07609715
1732373107521,2024-11-23T14:45:07.521Z,43485,-0.019264108,-0.08431659,-0.07609715
1732373107530,2024-11-23T14:45:07.530Z,43494,-0.02982176,-0.101327546,-0.097772345
1732373107532,2024-11-23T14:45:07.532Z,43496,-0.02982176,-0.101327546,-0.097772345
1732373107539,2024-11-23T14:45:07.539Z,43503,-0.009569055,-0.10719178,-0.017383892
1732373107542,2024-11-23T14:45:07.542Z,43506,-0.009569055,-0.10719178,-0.017383892
1732373107550,2024-11-23T14:45:07.550Z,43514,-0.027444994,-0.112858795,-0.026459001
1732373107552,2024-11-23T14:45:07.552Z,43516,-0.027444994,-0.112858795,-0.026459001
1732373107561,2024-11-23T14:45:07.561Z,43525,-0.030007165,-0.13272552,-0.08557525
1732373107563,2024-11-23T14:45:07.563Z,43527,-0.030007165,-0.13272552,-0.08557525
1732373107571,2024-11-23T14:45:07.571Z,43535,-0.05477813,-0.18002312,-0.08795474
1732373107573,2024-11-23T14:45:07.573Z,43537,-0.05477813,-0.18002312,-0.08795474
1732373107619,2024-11-23T14:45:07.619Z,43583,0.01368334,-0.20927134,-0.0020281984
1732373107621,2024-11-23T14:45:07.621Z,43585,0.01368334,-0.20927134,-0.0020281984
1732373107633,2024-11-23T14:45:07.633Z,43597,0.005606346,-0.18665814,0.034671653
1732373107635,2024-11-23T14:45:07.635Z,43599,0.005606346,-0.18665814,0.034671653
1732373107709,2024-11-23T14:45:07.709Z,43673,-0.020084409,-0.16568804,-0.040941615
1732373107715,2024-11-23T14:45:07.715Z,43679,-0.020084409,-0.16568804,-0.040941615
1732373107734,2024-11-23T14:45:07.734Z,43698,-0.0021446266,-0.17623512,-0.08585302
1732373107739,2024-11-23T14:45:07.739Z,43703,-0.0021446266,-0.17623512,-0.08585302
1732373107755,2024-11-23T14:45:07.755Z,43719,-0.0017865301,-0.2004922,-0.071366526
1732373107759,2024-11-23T14:45:07.759Z,43723,-0.0017865301,-0.2004922,-0.071366526
1732373107797,2024-11-23T14:45:07.797Z,43761,0.03809246,-0.19585699,0.06324744
1732373107801,2024-11-23T14:45:07.801Z,43765,0.03809246,-0.19585699,0.06324744
1732373107812,2024-11-23T14:45:07.812Z,43776,-0.021858416,-0.14480583,-0.015673336
1732373107816,2024-11-23T14:45:07.816Z,43780,-0.021858416,-0.14480583,-0.015673336
1732373107826,2024-11-23T14:45:07.826Z,43790,-0.09363878,-0.17490235,0.017951248
1732373107829,2024-11-23T14:45:07.829Z,43793,-0.09363878,-0.17490235,0.017951248
1732373107844,2024-11-23T14:45:07.844Z,43808,0.012663901,-0.10257679,-0.015322356
1732373107847,2024-11-23T14:45:07.847Z,43811,0.012663901,-0.10257679,-0.015322356
1732373107891,2024-11-23T14:45:07.891Z,43855,0.045890715,-0.11719157,0.023979275
1732373107899,2024-11-23T14:45:07.899Z,43863,0.045890715,-0.11719157,0.023979275
1732373107937,2024-11-23T14:45:07.937Z,43901,0.059358887,-0.07904363,0.05797061
1732373107943,2024-11-23T14:45:07.943Z,43907,0.059358887,-0.07904363,0.05797061
1732373107963,2024-11-23T14:45:07.963Z,43927,0.030670362,-0.10935525,-0.02976346
1732373107969,2024-11-23T14:45:07.969Z,43933,0.030670362,-0.10935525,-0.02976346
1732373107981,2024-11-23T14:45:07.981Z,43945,0.005887316,-0.11661713,0.006837426
1732373107985,2024-11-23T14:45:07.985Z,43949,0.005887316,-0.11661713,0.006837426
1732373107996,2024-11-23T14:45:07.996Z,43960,-0.040837817,-0.1253559,0.039696846
1732373108000,2024-11-23T14:45:08Z,43964,-0.040837817,-0.1253559,0.039696846
1732373108012,2024-11-23T14:45:08.012Z,43976,-0.019880524,-0.15407899,-0.023335362
1732373108015,2024-11-23T14:45:08.015Z,43979,-0.019880524,-0.15407899,-0.023335362
1732373108025,2024-11-23T14:45:08.025Z,43989,-0.045394666,-0.1423339,-0.024344712
1732373108028,2024-11-23T14:45:08.028Z,43992,-0.045394666,-0.1423339,-0.024344712
1732373108209,2024-11-23T14:45:08.209Z,44173,0.0139807025,-0.13643174,0.023282079
1732373108214,2024-11-23T14:45:08.214Z,44178,0.0139807025,-0.13643174,0.023282079
1732373108232,2024-11-23T14:45:08.232Z,44196,-0.028531134,-0.1234127,-0.02017501
1732373108237,2024-11-23T14:45:08.237Z,44201,-0.028531134,-0.1234127,-0.02017501
1732373108249,2024-11-23T14:45:08.249Z,44213,-0.0154696405,-0.11945053,-0.048900247
1732373108253,2024-11-23T14:45:08.253Z,44217,-0.0154696405,-0.11945053,-0.048900247
1732373108264,2024-11-23T14:45:08.264Z,44228,-0.006574257,-0.12621975,-0.022544768
1732373108268,2024-11-23T14:45:08.268Z,44232,-0.006574257,-0.12621975,-0.022544768
1732373108279,2024-11-23T14:45:08.279Z,44243,-0.008454487,-0.08440927,0.020000998
1732373108283,2024-11-23T14:45:08.283Z,44247,-0.008454487,-0.08440927,0.020000998
1732373108294,2024-11-23T14:45:08.294Z,44258,-0.015934937,-0.0701228,-0.0052554
1732373108297,2024-11-23T14:45:08.297Z,44261,-0.015934937,-0.0701228,-0.0052554
1732373108343,2024-11-23T14:45:08.343Z,44307,-0.016556337,-0.06413049,-0.013108463
1732373108350,2024-11-23T14:45:08.350Z,44314,-0.016556337,-0.06413049,-0.013108463
1732373108374,2024-11-23T14:45:08.374Z,44338,-0.0066616302,0.12695466,-0.008267311
1732373108380,2024-11-23T14:45:08.380Z,44344,-0.0066616302,0.12695466,-0.008267311
1732373108398,2024-11-23T14:45:08.398Z,44362,0.038521767,0.13567369,-0.020192236
1732373108404,2024-11-23T14:45:08.404Z,44368,0.038521767,0.13567369,-0.020192236
1732373108425,2024-11-23T14:45:08.425Z,44389,0.019188961,0.16097745,-0.0019334259
1732373108431,2024-11-23T14:45:08.431Z,44395,0.019188961,0.16097745,-0.0019334259
1732373108450,2024-11-23T14:45:08.450Z,44414,-0.0015133836,0.18813816,-0.046801325
1732373108457,2024-11-23T14:45:08.457Z,44421,-0.0015133836,0.18813816,-0.046801325
1732373108477,2024-11-23T14:45:08.477Z,44441,-0.009812511,0.21052283,-0.010908516
1732373108482,2024-11-23T14:45:08.482Z,44446,-0.009812511,0.21052283,-0.010908516
1732373108495,2024-11-23T14:45:08.495Z,44459,-0.03582559,0.19727701,-0.010519443
1732373108498,2024-11-23T14:45:08.498Z,44462,-0.03582559,0.19727701,-0.010519443
1732373108513,2024-11-23T14:45:08.513Z,44477,-0.008157603,0.31626678,-0.05373859
1732373108519,2024-11-23T14:45:08.519Z,44483,-0.008157603,0.31626678,-0.05373859
1732373108538,2024-11-23T14:45:08.538Z,44502,0.020369915,0.31191882,-0.054027792
1732373108544,2024-11-23T14:45:08.544Z,44508,0.020369915,0.31191882,-0.054027792
1732373108659,2024-11-23T14:45:08.659Z,44623,-0.021206588,0.30065784,-0.018820403
1732373108665,2024-11-23T14:45:08.665Z,44629,-0.021206588,0.30065784,-0.018820403
1732373108684,2024-11-23T14:45:08.684Z,44648,4.116283E-4,0.31814405,-0.048360527
1732373108690,2024-11-23T14:45:08.690Z,44654,4.116283E-4,0.31814405,-0.048360527
1732373108706,2024-11-23T14:45:08.706Z,44670,-0.0070656664,0.3331607,-0.050713327
1732373108710,2024-11-23T14:45:08.710Z,44674,-0.0070656664,0.3331607,-0.050713327
1732373108723,2024-11-23T14:45:08.723Z,44687,-0.019394284,0.27183342,-0.050274134
1732373108726,2024-11-23T14:45:08.726Z,44690,-0.019394284,0.27183342,-0.050274134
1732373108737,2024-11-23T14:45:08.737Z,44701,0.016048701,0.25552386,-0.04886001
1732373108740,2024-11-23T14:45:08.740Z,44704,0.016048701,0.25552386,-0.04886001
1732373108750,2024-11-23T14:45:08.750Z,44714,0.025367409,0.2313898,-0.06851294
1732373108753,2024-11-23T14:45:08.753Z,44717,0.025367409,0.2313898,-0.06851294
1732373108786,2024-11-23T14:45:08.786Z,44750,-0.063929886,-0.09121865,0.1306702
1732373108788,2024-11-23T14:45:08.788Z,44752,-0.063929886,-0.09121865,0.1306702
1732373108877,2024-11-23T14:45:08.877Z,44841,-0.08077537,0.019347725,0.0035803316
1732373108881,2024-11-23T14:45:08.881Z,44845,-0.08077537,0.019347725,0.0035803316
1732373108892,2024-11-23T14:45:08.892Z,44856,-0.05879609,0.023263404,0.016302347
1732373108895,2024-11-23T14:45:08.895Z,44859,-0.05879609,0.023263404,0.016302347
1732373108907,2024-11-23T14:45:08.907Z,44871,-0.047295813,0.03008611,0.042584624
1732373108910,2024-11-23T14:45:08.910Z,44874,-0.047295813,0.03008611,0.042584624
1732373108926,2024-11-23T14:45:08.926Z,44890,-0.028503153,0.0031501453,9.709298E-4
1732373108928,2024-11-23T14:45:08.928Z,44892,-0.028503153,0.0031501453,9.709298E-4
1732373108940,2024-11-23T14:45:08.940Z,44904,-0.027335353,-0.008581916,-0.03133365
1732373108943,2024-11-23T14:45:08.943Z,44907,-0.027335353,-0.008581916,-0.03133365
1732373108955,2024-11-23T14:45:08.955Z,44919,8.144496E-6,-0.018836202,-0.0060909986
1732373108965,2024-11-23T14:45:08.965Z,44929,8.144496E-6,-0.018836202,-0.0060909986
1732373108973,2024-11-23T14:45:08.973Z,44937,-0.08022623,-0.047286995,-0.021995753
1732373108974,2024-11-23T14:45:08.974Z,44938,-0.08022623,-0.047286995,-0.021995753
1732373109012,2024-11-23T14:45:09.012Z,44976,-0.0138721615,-0.010304465,-0.031507134
1732373109015,2024-11-23T14:45:09.015Z,44979,-0.0138721615,-0.010304465,-0.031507134
1732373109024,2024-11-23T14:45:09.024Z,44988,-1.0520379E-4,0.0018108496,-0.0061898534
1732373109027,2024-11-23T14:45:09.027Z,44991,-1.0520379E-4,0.0018108496,-0.0061898534
1732373109039,2024-11-23T14:45:09.039Z,45003,0.0050070966,0.006585129,-0.0024947808
1732373109043,2024-11-23T14:45:09.043Z,45007,0.0050070966,0.006585129,-0.0024947808
