Timestamp (ms),ISO DateTime,Elapsed Time (ms),Acceleration X,Acceleration Y,Acceleration Z
1732372909853,2024-11-23T14:41:49.853Z,16037,-0.027326984,-0.16951132,-0.37832054
1732372909859,2024-11-23T14:41:49.859Z,16043,-0.027326984,-0.16951132,-0.37832054
1732372909885,2024-11-23T14:41:49.885Z,16069,-0.009609223,-0.16455646,-0.3751358
1732372909893,2024-11-23T14:41:49.893Z,16077,-0.009609223,-0.16455646,-0.3751358
1732372909922,2024-11-23T14:41:49.922Z,16106,-0.023294013,-0.1726956,-0.39266574
1732372909928,2024-11-23T14:41:49.928Z,16112,-0.023294013,-0.1726956,-0.39266574
1732372909945,2024-11-23T14:41:49.945Z,16129,-0.021209514,-0.15490073,-0.3884718
1732372909950,2024-11-23T14:41:49.950Z,16134,-0.021209514,-0.15490073,-0.3884718
1732372909969,2024-11-23T14:41:49.969Z,16153,-0.0042043286,-0.13307591,-0.36263433
1732372909975,2024-11-23T14:41:49.975Z,16159,-0.0042043286,-0.13307591,-0.36263433
1732372910115,2024-11-23T14:41:50.115Z,16299,-0.0065196995,-0.11444218,-0.32861912
1732372910122,2024-11-23T14:41:50.122Z,16306,-0.0065196995,-0.11444218,-0.32861912
1732372910143,2024-11-23T14:41:50.143Z,16327,-0.011709786,-0.1169466,-0.34409684
1732372910148,2024-11-23T14:41:50.148Z,16332,-0.011709786,-0.1169466,-0.34409684
1732372910203,2024-11-23T14:41:50.203Z,16387,-0.028912043,-0.1240168,-0.3361945
1732372910207,2024-11-23T14:41:50.207Z,16391,-0.028912043,-0.1240168,-0.3361945
1732372910226,2024-11-23T14:41:50.226Z,16410,-0.0018948778,-0.10518682,-0.30982888
1732372910231,2024-11-23T14:41:50.231Z,16415,-0.0018948778,-0.10518682,-0.30982888
1732372910243,2024-11-23T14:41:50.243Z,16427,-0.016390039,-0.10068824,-0.30145693
1732372910248,2024-11-23T14:41:50.248Z,16432,-0.016390039,-0.10068824,-0.30145693
1732372910262,2024-11-23T14:41:50.262Z,16446,-0.015261187,-0.101202,-0.30046082
1732372910269,2024-11-23T14:41:50.269Z,16453,-0.015261187,-0.101202,-0.30046082
1732372910282,2024-11-23T14:41:50.282Z,16466,-0.03161704,-0.06867303,-0.18057072
1732372910287,2024-11-23T14:41:50.287Z,16471,-0.03161704,-0.06867303,-0.18057072
1732372910299,2024-11-23T14:41:50.299Z,16483,-0.028025351,-0.058823586,-0.1773694
1732372910304,2024-11-23T14:41:50.304Z,16488,-0.028025351,-0.058823586,-0.1773694
1732372910340,2024-11-23T14:41:50.340Z,16524,0.015978767,-0.014473864,-0.18092108
1732372910343,2024-11-23T14:41:50.343Z,16527,0.015978767,-0.014473864,-0.18092108
1732372910354,2024-11-23T14:41:50.354Z,16538,0.009023634,-0.029288484,-0.19314831
1732372910357,2024-11-23T14:41:50.357Z,16541,0.009023634,-0.029288484,-0.19314831
1732372910384,2024-11-23T14:41:50.384Z,16568,0.014159663,-0.021125121,-0.18382646
1732372910389,2024-11-23T14:41:50.389Z,16573,0.014159663,-0.021125121,-0.18382646
1732372910404,2024-11-23T14:41:50.404Z,16588,-0.00989904,-0.05778226,-0.16038024
1732372910409,2024-11-23T14:41:50.409Z,16593,-0.00989904,-0.05778226,-0.16038024
1732372910424,2024-11-23T14:41:50.424Z,16608,0.018168444,-0.04101617,-0.14012304
1732372910428,2024-11-23T14:41:50.428Z,16612,0.018168444,-0.04101617,-0.14012304
1732372910519,2024-11-23T14:41:50.519Z,16703,0.028931314,-0.021402374,-0.14889312
1732372910524,2024-11-23T14:41:50.524Z,16708,0.028931314,-0.021402374,-0.14889312
1732372910539,2024-11-23T14:41:50.539Z,16723,0.01504207,-0.057920933,-0.12427479
1732372910544,2024-11-23T14:41:50.544Z,16728,0.01504207,-0.057920933,-0.12427479
1732372910556,2024-11-23T14:41:50.556Z,16740,0.01565571,-0.05228893,-0.14104855
1732372910561,2024-11-23T14:41:50.561Z,16745,0.01565571,-0.05228893,-0.14104855
1732372910615,2024-11-23T14:41:50.615Z,16799,0.012056298,-0.061750937,-0.083958924
1732372910623,2024-11-23T14:41:50.623Z,16807,0.012056298,-0.061750937,-0.083958924
1732372910648,2024-11-23T14:41:50.648Z,16832,0.005218525,-0.05852776,-0.08512789
1732372910654,2024-11-23T14:41:50.654Z,16838,0.005218525,-0.05852776,-0.08512789
1732372910669,2024-11-23T14:41:50.669Z,16853,-0.013485693,-0.06067538,-0.094966404
1732372910674,2024-11-23T14:41:50.674Z,16858,-0.013485693,-0.06067538,-0.094966404
1732372910691,2024-11-23T14:41:50.691Z,16875,-0.017400442,-0.009376042,-0.08235599
1732372910701,2024-11-23T14:41:50.701Z,16885,-0.017400442,-0.009376042,-0.08235599
1732372910714,2024-11-23T14:41:50.714Z,16898,-0.028701345,-0.032186564,-0.09266312
1732372910718,2024-11-23T14:41:50.718Z,16902,-0.028701345,-0.032186564,-0.09266312
1732372910732,2024-11-23T14:41:50.732Z,16916,-0.028398078,-0.0359518,-0.081954
1732372910737,2024-11-23T14:41:50.737Z,16921,-0.028398078,-0.0359518,-0.081954
1732372910752,2024-11-23T14:41:50.752Z,16936,-0.0247824,-0.02073895,-0.03315352
1732372910756,2024-11-23T14:41:50.756Z,16940,-0.0247824,-0.02073895,-0.03315352
1732372910769,2024-11-23T14:41:50.769Z,16953,-0.04844331,0.008879786,-0.04771955
1732372910773,2024-11-23T14:41:50.773Z,16957,-0.04844331,0.008879786,-0.04771955
1732372910786,2024-11-23T14:41:50.786Z,16970,-0.024020296,-0.010624021,-0.06061466
1732372910791,2024-11-23T14:41:50.791Z,16975,-0.024020296,-0.010624021,-0.06061466
1732372910806,2024-11-23T14:41:50.806Z,16990,-0.036992416,-0.004229789,-0.062082503
1732372910810,2024-11-23T14:41:50.810Z,16994,-0.036992416,-0.004229789,-0.062082503
1732372910887,2024-11-23T14:41:50.887Z,17071,-0.023932595,0.028439024,-0.0685813
1732372910895,2024-11-23T14:41:50.895Z,17079,-0.023932595,0.028439024,-0.0685813
1732372910917,2024-11-23T14:41:50.917Z,17101,0.006298534,0.035865735,-0.053641196
1732372910922,2024-11-23T14:41:50.922Z,17106,0.006298534,0.035865735,-0.053641196
1732372910937,2024-11-23T14:41:50.937Z,17121,0.0152269555,0.03251409,-0.03016928
1732372910941,2024-11-23T14:41:50.941Z,17125,0.0152269555,0.03251409,-0.03016928
1732372910954,2024-11-23T14:41:50.954Z,17138,-0.028670516,0.0031101764,-0.023867093
1732372910958,2024-11-23T14:41:50.958Z,17142,-0.028670516,0.0031101764,-0.023867093
1732372910971,2024-11-23T14:41:50.971Z,17155,0.013063273,0.035300627,-0.025865486
1732372910975,2024-11-23T14:41:50.975Z,17159,0.013063273,0.035300627,-0.025865486
1732372910987,2024-11-23T14:41:50.987Z,17171,0.03305387,0.042140547,-0.011074534
1732372910991,2024-11-23T14:41:50.991Z,17175,0.03305387,0.042140547,-0.011074534
1732372911005,2024-11-23T14:41:51.005Z,17189,-0.004478698,0.07034054,-0.008008896
1732372911011,2024-11-23T14:41:51.011Z,17195,-0.004478698,0.07034054,-0.008008896
1732372911024,2024-11-23T14:41:51.024Z,17208,-0.024087163,0.07764695,-0.013347686
1732372911028,2024-11-23T14:41:51.028Z,17212,-0.024087163,0.07764695,-0.013347686
1732372911121,2024-11-23T14:41:51.121Z,17305,-0.0326683,0.092124216,-0.054260373
1732372911133,2024-11-23T14:41:51.133Z,17317,-0.0326683,0.092124216,-0.054260373
1732372911199,2024-11-23T14:41:51.199Z,17383,-0.0543846,0.06093425,-0.095572755
1732372911208,2024-11-23T14:41:51.208Z,17392,-0.0543846,0.06093425,-0.095572755
1732372911235,2024-11-23T14:41:51.235Z,17419,-0.02784625,0.081947535,-0.07552099
1732372911240,2024-11-23T14:41:51.240Z,17424,-0.02784625,0.081947535,-0.07552099
1732372911259,2024-11-23T14:41:51.259Z,17443,0.012817359,0.08779757,-0.0053015687
1732372911264,2024-11-23T14:41:51.264Z,17448,0.012817359,0.08779757,-0.0053015687
1732372911333,2024-11-23T14:41:51.333Z,17517,-0.025174929,0.081923805,-0.0016951006
1732372911342,2024-11-23T14:41:51.342Z,17526,-0.025174929,0.081923805,-0.0016951006
1732372911370,2024-11-23T14:41:51.370Z,17554,0.0029927255,0.07265056,-0.041446883
1732372911376,2024-11-23T14:41:51.376Z,17560,0.0029927255,0.07265056,-0.041446883
1732372911393,2024-11-23T14:41:51.393Z,17577,0.012939531,0.07288833,-0.038860023
1732372911398,2024-11-23T14:41:51.398Z,17582,0.012939531,0.07288833,-0.038860023
1732372911411,2024-11-23T14:41:51.411Z,17595,-0.0101128565,0.02675197,-0.09874558
1732372911415,2024-11-23T14:41:51.415Z,17599,-0.0101128565,0.02675197,-0.09874558
1732372911428,2024-11-23T14:41:51.428Z,17612,-0.0012427529,0.02198304,-0.093422286
1732372911432,2024-11-23T14:41:51.432Z,17616,-0.0012427529,0.02198304,-0.093422286
1732372911518,2024-11-23T14:41:51.518Z,17702,-0.013114322,-0.01878641,-0.060146295
1732372911527,2024-11-23T14:41:51.527Z,17711,-0.013114322,-0.01878641,-0.060146295
1732372911552,2024-11-23T14:41:51.552Z,17736,3.6969327E-4,0.012592606,-0.00843021
1732372911557,2024-11-23T14:41:51.557Z,17741,3.6969327E-4,0.012592606,-0.00843021
1732372911575,2024-11-23T14:41:51.575Z,17759,-0.02997862,0.02670578,-0.026236534
1732372911579,2024-11-23T14:41:51.579Z,17763,-0.02997862,0.02670578,-0.026236534
1732372911594,2024-11-23T14:41:51.594Z,17778,-0.0310603,0.06685002,-0.008906243
1732372911598,2024-11-23T14:41:51.598Z,17782,-0.0310603,0.06685002,-0.008906243
1732372911611,2024-11-23T14:41:51.611Z,17795,-0.022375368,0.081136785,-0.003478581
1732372911616,2024-11-23T14:41:51.616Z,17800,-0.022375368,0.081136785,-0.003478581
1732372911629,2024-11-23T14:41:51.629Z,17813,0.0023073205,0.074013196,-0.040626228
1732372911633,2024-11-23T14:41:51.633Z,17817,0.0023073205,0.074013196,-0.040626228
1732372911647,2024-11-23T14:41:51.647Z,17831,0.037760615,0.06190877,-0.06787411
1732372911651,2024-11-23T14:41:51.651Z,17835,0.037760615,0.06190877,-0.06787411
1732372911665,2024-11-23T14:41:51.665Z,17849,0.024950257,0.008793722,-0.10035478
1732372911669,2024-11-23T14:41:51.669Z,17853,0.024950257,0.008793722,-0.10035478
1732372911683,2024-11-23T14:41:51.683Z,17867,0.012346213,0.027628172,-0.07841512
1732372911686,2024-11-23T14:41:51.686Z,17870,0.012346213,0.027628172,-0.07841512
1732372911698,2024-11-23T14:41:51.698Z,17882,0.015140757,-0.005915676,-0.098466545
1732372911702,2024-11-23T14:41:51.702Z,17886,0.015140757,-0.005915676,-0.098466545
1732372911781,2024-11-23T14:41:51.781Z,17965,0.0111591965,0.01964433,-0.07390162
1732372911784,2024-11-23T14:41:51.784Z,17968,0.0111591965,0.01964433,-0.07390162
1732372911796,2024-11-23T14:41:51.796Z,17980,0.017309196,-0.027225956,-0.010398777
1732372911801,2024-11-23T14:41:51.801Z,17985,0.017309196,-0.027225956,-0.010398777
1732372911814,2024-11-23T14:41:51.814Z,17998,0.029711457,-0.029058687,-0.05843389
1732372911818,2024-11-23T14:41:51.818Z,18002,0.029711457,-0.029058687,-0.05843389
1732372911831,2024-11-23T14:41:51.831Z,18015,0.039650496,-0.03775769,-0.07986307
1732372911835,2024-11-23T14:41:51.835Z,18019,0.039650496,-0.03775769,-0.07986307
1732372911915,2024-11-23T14:41:51.915Z,18099,0.04228128,-0.05370748,-0.13081062
1732372911918,2024-11-23T14:41:51.918Z,18102,0.04228128,-0.05370748,-0.13081062
1732372911929,2024-11-23T14:41:51.929Z,18113,0.11434718,-0.032637693,-0.12531099
1732372911933,2024-11-23T14:41:51.933Z,18117,0.11434718,-0.032637693,-0.12531099
1732372911948,2024-11-23T14:41:51.948Z,18132,0.027351832,-0.038440466,-0.010494827
1732372911952,2024-11-23T14:41:51.952Z,18136,0.027351832,-0.038440466,-0.010494827
1732372911964,2024-11-23T14:41:51.964Z,18148,0.06167847,-0.021642577,0.028062223
1732372911967,2024-11-23T14:41:51.967Z,18151,0.06167847,-0.021642577,0.028062223
1732372912003,2024-11-23T14:41:52.003Z,18187,0.053741295,-0.007977133,-0.009008673
1732372912006,2024-11-23T14:41:52.006Z,18190,0.053741295,-0.007977133,-0.009008673
1732372912017,2024-11-23T14:41:52.017Z,18201,0.042634077,0.00326869,-0.042211767
1732372912020,2024-11-23T14:41:52.020Z,18204,0.042634077,0.00326869,-0.042211767
1732372912032,2024-11-23T14:41:52.032Z,18216,0.012850225,0.010868405,-0.06636879
1732372912036,2024-11-23T14:41:52.036Z,18220,0.012850225,0.010868405,-0.06636879
1732372912050,2024-11-23T14:41:52.050Z,18234,-0.008832709,-0.053352237,-0.116838634
1732372912053,2024-11-23T14:41:52.053Z,18237,-0.008832709,-0.053352237,-0.116838634
1732372912064,2024-11-23T14:41:52.064Z,18248,-4.917429E-4,-0.034792997,-0.06107125
1732372912067,2024-11-23T14:41:52.067Z,18251,-4.917429E-4,-0.034792997,-0.06107125
1732372912140,2024-11-23T14:41:52.140Z,18324,-0.018068096,-0.014767066,0.024654208
1732372912145,2024-11-23T14:41:52.145Z,18329,-0.018068096,-0.014767066,0.024654208
1732372912155,2024-11-23T14:41:52.155Z,18339,-0.028129185,-0.033748847,-0.013507188
1732372912159,2024-11-23T14:41:52.159Z,18343,-0.028129185,-0.033748847,-0.013507188
1732372912171,2024-11-23T14:41:52.171Z,18355,0.0145363,0.0053117676,-0.056398652
1732372912174,2024-11-23T14:41:52.174Z,18358,0.0145363,0.0053117676,-0.056398652
1732372912190,2024-11-23T14:41:52.190Z,18374,-0.034373358,-0.040581763,-0.10978579
1732372912198,2024-11-23T14:41:52.198Z,18382,-0.034373358,-0.040581763,-0.10978579
1732372912223,2024-11-23T14:41:52.223Z,18407,-0.04098064,-0.030285662,-0.054526236
1732372912230,2024-11-23T14:41:52.230Z,18414,-0.04098064,-0.030285662,-0.054526236
1732372912244,2024-11-23T14:41:52.244Z,18428,0.020295678,-0.06004113,-0.08551472
1732372912248,2024-11-23T14:41:52.248Z,18432,0.020295678,-0.06004113,-0.08551472
1732372912258,2024-11-23T14:41:52.258Z,18442,-0.016037675,-0.04341303,-0.029583095
1732372912262,2024-11-23T14:41:52.262Z,18446,-0.016037675,-0.04341303,-0.029583095
1732372912273,2024-11-23T14:41:52.273Z,18457,-0.031663872,-0.1160598,0.0054428284
1732372912276,2024-11-23T14:41:52.276Z,18460,-0.031663872,-0.1160598,0.0054428284
1732372912288,2024-11-23T14:41:52.288Z,18472,-0.006003405,-0.13607815,-0.04000711
1732372912292,2024-11-23T14:41:52.292Z,18476,-0.006003405,-0.13607815,-0.04000711
1732372912304,2024-11-23T14:41:52.304Z,18488,-0.07456129,-0.13901211,-0.058360066
1732372912308,2024-11-23T14:41:52.308Z,18492,-0.07456129,-0.13901211,-0.058360066
1732372912324,2024-11-23T14:41:52.324Z,18508,0.008406758,-0.11218234,-0.00588426
1732372912332,2024-11-23T14:41:52.332Z,18516,0.008406758,-0.11218234,-0.00588426
1732372912355,2024-11-23T14:41:52.355Z,18539,0.011830194,-0.12881753,-0.037627786
1732372912362,2024-11-23T14:41:52.362Z,18546,0.011830194,-0.12881753,-0.037627786
1732372912377,2024-11-23T14:41:52.377Z,18561,0.048990924,-0.024550963,-0.031811714
1732372912381,2024-11-23T14:41:52.381Z,18565,0.048990924,-0.024550963,-0.031811714
1732372912394,2024-11-23T14:41:52.394Z,18578,0.035650045,-0.014346275,-0.051490873
1732372912398,2024-11-23T14:41:52.398Z,18582,0.035650045,-0.014346275,-0.051490873
1732372912413,2024-11-23T14:41:52.413Z,18597,0.08242299,-0.02317063,-0.07061854
1732372912417,2024-11-23T14:41:52.417Z,18601,0.08242299,-0.02317063,-0.07061854
1732372912454,2024-11-23T14:41:52.454Z,18638,-0.026673228,-0.062259447,-0.10568272
1732372912457,2024-11-23T14:41:52.457Z,18641,-0.026673228,-0.062259447,-0.10568272
1732372912469,2024-11-23T14:41:52.469Z,18653,0.008142308,-0.050041825,-0.09968492
1732372912472,2024-11-23T14:41:52.472Z,18656,0.008142308,-0.050041825,-0.09968492
1732372912502,2024-11-23T14:41:52.502Z,18686,0.009603936,-0.07395825,-0.08048617
1732372912510,2024-11-23T14:41:52.510Z,18694,0.009603936,-0.07395825,-0.08048617
1732372912532,2024-11-23T14:41:52.532Z,18716,0.02023988,-0.22058932,7.4887276E-4
1732372912536,2024-11-23T14:41:52.536Z,18720,0.02023988,-0.22058932,7.4887276E-4
1732372912550,2024-11-23T14:41:52.550Z,18734,0.01308632,-0.21819937,-0.013280958
1732372912555,2024-11-23T14:41:52.555Z,18739,0.01308632,-0.21819937,-0.013280958
1732372912569,2024-11-23T14:41:52.569Z,18753,-0.002743367,-0.18601678,0.034352925
1732372912573,2024-11-23T14:41:52.573Z,18757,-0.002743367,-0.18601678,0.034352925
1732372912586,2024-11-23T14:41:52.586Z,18770,0.0016385237,-0.16712487,-0.015446514
1732372912590,2024-11-23T14:41:52.590Z,18774,0.0016385237,-0.16712487,-0.015446514
1732372912602,2024-11-23T14:41:52.602Z,18786,-0.008129374,-0.16226539,-0.018125087
1732372912606,2024-11-23T14:41:52.606Z,18790,-0.008129374,-0.16226539,-0.018125087
1732372912634,2024-11-23T14:41:52.634Z,18818,-0.006183584,-0.16424973,-0.035200864
1732372912636,2024-11-23T14:41:52.636Z,18820,-0.006183584,-0.16424973,-0.035200864
1732372912821,2024-11-23T14:41:52.821Z,19005,-0.01254951,-0.17018738,-0.05558395
1732372912829,2024-11-23T14:41:52.829Z,19013,-0.01254951,-0.17018738,-0.05558395
1732372912852,2024-11-23T14:41:52.852Z,19036,0.0073098587,-0.16536303,-0.04466742
1732372912857,2024-11-23T14:41:52.857Z,19041,0.0073098587,-0.16536303,-0.04466742
1732372912873,2024-11-23T14:41:52.873Z,19057,0.010267733,-0.1747168,-0.0071166153
1732372912877,2024-11-23T14:41:52.877Z,19061,0.010267733,-0.1747168,-0.0071166153
1732372912893,2024-11-23T14:41:52.893Z,19077,0.016432405,-0.11794125,-0.036667433
1732372912897,2024-11-23T14:41:52.897Z,19081,0.016432405,-0.11794125,-0.036667433
1732372912909,2024-11-23T14:41:52.909Z,19093,-0.00396771,-0.13663624,-0.06774216
1732372912912,2024-11-23T14:41:52.912Z,19096,-0.00396771,-0.13663624,-0.06774216
1732372912923,2024-11-23T14:41:52.923Z,19107,0.039353594,-0.08548103,-0.04328945
1732372912926,2024-11-23T14:41:52.926Z,19110,0.039353594,-0.08548103,-0.04328945
1732372912937,2024-11-23T14:41:52.937Z,19121,0.02466429,0.008382461,-0.08521634
1732372912940,2024-11-23T14:41:52.940Z,19124,0.02466429,0.008382461,-0.08521634
1732372912950,2024-11-23T14:41:52.950Z,19134,-0.04867242,-0.13281228,-0.09130481
1732372912954,2024-11-23T14:41:52.954Z,19138,-0.04867242,-0.13281228,-0.09130481
1732372913045,2024-11-23T14:41:53.045Z,19229,-0.04038445,-0.14885853,-0.083706886
1732372913051,2024-11-23T14:41:53.051Z,19235,-0.04038445,-0.14885853,-0.083706886
1732372913074,2024-11-23T14:41:53.074Z,19258,-0.0069247438,-0.13411336,-0.081671976
1732372913079,2024-11-23T14:41:53.079Z,19263,-0.0069247438,-0.13411336,-0.081671976
1732372913096,2024-11-23T14:41:53.096Z,19280,0.0028875018,-0.14743103,0.017295567
1732372913100,2024-11-23T14:41:53.100Z,19284,0.0028875018,-0.14743103,0.017295567
1732372913114,2024-11-23T14:41:53.114Z,19298,-0.0022353374,-0.1473689,-0.015075505
1732372913119,2024-11-23T14:41:53.119Z,19303,-0.0022353374,-0.1473689,-0.015075505
1732372913132,2024-11-23T14:41:53.132Z,19316,0.048704706,-0.14437999,-0.13196741
1732372913137,2024-11-23T14:41:53.137Z,19321,0.048704706,-0.14437999,-0.13196741
1732372913157,2024-11-23T14:41:53.157Z,19341,0.06802126,-0.13507202,-0.06035751
1732372913168,2024-11-23T14:41:53.168Z,19352,0.06802126,-0.13507202,-0.06035751
1732372913321,2024-11-23T14:41:53.321Z,19505,0.0135779055,-0.099868834,0.05100259
1732372913332,2024-11-23T14:41:53.332Z,19516,0.0135779055,-0.099868834,0.05100259
1732372913367,2024-11-23T14:41:53.367Z,19551,-0.03930421,-0.098457865,-0.008897327
1732372913377,2024-11-23T14:41:53.377Z,19561,-0.03930421,-0.098457865,-0.008897327
1732372913400,2024-11-23T14:41:53.400Z,19584,0.020353422,-0.058023628,-7.686642E-4
1732372913405,2024-11-23T14:41:53.405Z,19589,0.020353422,-0.058023628,-7.686642E-4
1732372913421,2024-11-23T14:41:53.421Z,19605,0.006163422,-0.044435788,0.026006458
1732372913426,2024-11-23T14:41:53.426Z,19610,0.006163422,-0.044435788,0.026006458
1732372913440,2024-11-23T14:41:53.440Z,19624,-0.02045774,-0.06316579,-0.053185068
1732372913444,2024-11-23T14:41:53.444Z,19628,-0.02045774,-0.06316579,-0.053185068
1732372913457,2024-11-23T14:41:53.457Z,19641,-0.025757136,-0.057467174,-0.021103375
1732372913461,2024-11-23T14:41:53.461Z,19645,-0.025757136,-0.057467174,-0.021103375
1732372913472,2024-11-23T14:41:53.472Z,19656,-0.0017741767,-0.04069107,-0.019035164
1732372913476,2024-11-23T14:41:53.476Z,19660,-0.0017741767,-0.04069107,-0.019035164
1732372913486,2024-11-23T14:41:53.486Z,19670,-0.00882234,-0.025035743,-0.009927684
1732372913489,2024-11-23T14:41:53.489Z,19673,-0.00882234,-0.025035743,-0.009927684
1732372913625,2024-11-23T14:41:53.625Z,19809,0.018210467,-0.023045084,-0.033952884
1732372913632,2024-11-23T14:41:53.632Z,19816,0.018210467,-0.023045084,-0.033952884
1732372913654,2024-11-23T14:41:53.654Z,19838,0.045833413,-0.012752773,-0.021968774
1732372913659,2024-11-23T14:41:53.659Z,19843,0.045833413,-0.012752773,-0.021968774
1732372913675,2024-11-23T14:41:53.675Z,19859,0.05582045,0.0023469764,-0.0029818094
1732372913679,2024-11-23T14:41:53.679Z,19863,0.05582045,0.0023469764,-0.0029818094
1732372913693,2024-11-23T14:41:53.693Z,19877,0.035744052,0.030135024,0.018339423
1732372913698,2024-11-23T14:41:53.698Z,19882,0.035744052,0.030135024,0.018339423
1732372913765,2024-11-23T14:41:53.765Z,19949,0.031018058,7.6582574E-4,-0.046325352
1732372913775,2024-11-23T14:41:53.775Z,19959,0.031018058,7.6582574E-4,-0.046325352
1732372913796,2024-11-23T14:41:53.796Z,19980,0.041340332,0.03589637,-0.017886037
1732372913801,2024-11-23T14:41:53.801Z,19985,0.041340332,0.03589637,-0.017886037
1732372913818,2024-11-23T14:41:53.818Z,20002,0.036764786,0.028533647,-0.034486294
1732372913823,2024-11-23T14:41:53.823Z,20007,0.036764786,0.028533647,-0.034486294
1732372913851,2024-11-23T14:41:53.851Z,20035,-0.026085174,0.0336656,-0.027736787
1732372913855,2024-11-23T14:41:53.855Z,20039,-0.026085174,0.0336656,-0.027736787
1732372913899,2024-11-23T14:41:53.899Z,20083,-0.022276472,0.03153646,-0.032019023
1732372913907,2024-11-23T14:41:53.907Z,20091,-0.022276472,0.03153646,-0.032019023
1732372913927,2024-11-23T14:41:53.927Z,20111,-0.030323986,0.022576056,-0.04791302
1732372913932,2024-11-23T14:41:53.932Z,20116,-0.030323986,0.022576056,-0.04791302
1732372913948,2024-11-23T14:41:53.948Z,20132,-0.026096506,0.041244216,-0.023236545
1732372913953,2024-11-23T14:41:53.953Z,20137,-0.026096506,0.041244216,-0.023236545
1732372913991,2024-11-23T14:41:53.991Z,20175,-0.011517968,0.112023436,-0.045547802
1732372914003,2024-11-23T14:41:54.003Z,20187,-0.011517968,0.112023436,-0.045547802
1732372914035,2024-11-23T14:41:54.035Z,20219,0.017459605,0.10831684,-0.045633443
1732372914042,2024-11-23T14:41:54.042Z,20226,0.017459605,0.10831684,-0.045633443
1732372914061,2024-11-23T14:41:54.061Z,20245,-0.024916047,0.13318609,-0.052940283
1732372914067,2024-11-23T14:41:54.067Z,20251,-0.024916047,0.13318609,-0.052940283
1732372914083,2024-11-23T14:41:54.083Z,20267,0.025492696,0.16183488,-0.12138914
1732372914087,2024-11-23T14:41:54.087Z,20271,0.025492696,0.16183488,-0.12138914
1732372914101,2024-11-23T14:41:54.101Z,20285,-0.008020487,0.17144246,-0.097862326
1732372914105,2024-11-23T14:41:54.105Z,20289,-0.008020487,0.17144246,-0.097862326
1732372914164,2024-11-23T14:41:54.164Z,20348,0.0071902056,0.1767098,-0.10622953
1732372914169,2024-11-23T14:41:54.169Z,20353,0.0071902056,0.1767098,-0.10622953
1732372914181,2024-11-23T14:41:54.181Z,20365,-0.015980616,0.10630468,-0.08642352
1732372914186,2024-11-23T14:41:54.186Z,20370,-0.015980616,0.10630468,-0.08642352
1732372914199,2024-11-23T14:41:54.199Z,20383,0.0042452,0.11169007,-0.090193115
1732372914203,2024-11-23T14:41:54.203Z,20387,0.0042452,0.11169007,-0.090193115
1732372914215,2024-11-23T14:41:54.215Z,20399,2.9713736E-4,0.098591484,-0.09843317
1732372914218,2024-11-23T14:41:54.218Z,20402,2.9713736E-4,0.098591484,-0.09843317
1732372914253,2024-11-23T14:41:54.253Z,20437,0.008177981,0.05038764,-0.10533851
1732372914257,2024-11-23T14:41:54.257Z,20441,0.008177981,0.05038764,-0.10533851
1732372914270,2024-11-23T14:41:54.270Z,20454,-0.043715425,-0.020633144,-0.07857938
1732372914274,2024-11-23T14:41:54.274Z,20458,-0.043715425,-0.020633144,-0.07857938
1732372914286,2024-11-23T14:41:54.286Z,20470,-0.075436495,-0.049843345,-0.100833535
1732372914290,2024-11-23T14:41:54.290Z,20474,-0.075436495,-0.049843345,-0.100833535
1732372914353,2024-11-23T14:41:54.353Z,20537,-0.056152303,-0.04731967,-0.049820922
1732372914362,2024-11-23T14:41:54.362Z,20546,-0.056152303,-0.04731967,-0.049820922
1732372914399,2024-11-23T14:41:54.399Z,20583,-0.008111623,0.064013794,0.025698304
1732372914408,2024-11-23T14:41:54.408Z,20592,-0.008111623,0.064013794,0.025698304
1732372914434,2024-11-23T14:41:54.434Z,20618,-0.009218101,0.04608861,-0.03324812
1732372914442,2024-11-23T14:41:54.442Z,20626,-0.009218101,0.04608861,-0.03324812
1732372914467,2024-11-23T14:41:54.467Z,20651,-0.030389577,0.049735107,-0.036985897
1732372914473,2024-11-23T14:41:54.473Z,20657,-0.030389577,0.049735107,-0.036985897
1732372914490,2024-11-23T14:41:54.490Z,20674,9.927533E-4,0.029564083,0.007002249
1732372914495,2024-11-23T14:41:54.495Z,20679,9.927533E-4,0.029564083,0.007002249
1732372914510,2024-11-23T14:41:54.510Z,20694,4.4073272E-4,0.019021263,0.009789854
1732372914515,2024-11-23T14:41:54.515Z,20699,4.4073272E-4,0.019021263,0.009789854
1732372914528,2024-11-23T14:41:54.528Z,20712,0.0049760654,-0.00911532,-0.020639539
1732372914531,2024-11-23T14:41:54.531Z,20715,0.0049760654,-0.00911532,-0.020639539
1732372914543,2024-11-23T14:41:54.543Z,20727,-0.06257984,-0.08598808,-0.023884792
1732372914546,2024-11-23T14:41:54.546Z,20730,-0.06257984,-0.08598808,-0.023884792
1732372914557,2024-11-23T14:41:54.557Z,20741,-0.041648813,-0.07614632,-0.03709993
1732372914561,2024-11-23T14:41:54.561Z,20745,-0.041648813,-0.07614632,-0.03709993
1732372914571,2024-11-23T14:41:54.571Z,20755,-0.006929459,-0.031649753,-0.016662315
1732372914574,2024-11-23T14:41:54.574Z,20758,-0.006929459,-0.031649753,-0.016662315
1732372914584,2024-11-23T14:41:54.584Z,20768,0.0055506746,-0.022256015,-0.004590068
1732372914587,2024-11-23T14:41:54.587Z,20771,0.0055506746,-0.022256015,-0.004590068
1732372914596,2024-11-23T14:41:54.596Z,20780,-0.04919392,-0.039783653,-0.02070912
1732372914599,2024-11-23T14:41:54.599Z,20783,-0.04919392,-0.039783653,-0.02070912
1732372914609,2024-11-23T14:41:54.609Z,20793,-0.04478487,-0.036312588,-0.0016242435
1732372914612,2024-11-23T14:41:54.612Z,20796,-0.04478487,-0.036312588,-0.0016242435
1732372914623,2024-11-23T14:41:54.623Z,20807,0.008298907,-0.008428168,7.7263307E-4
1732372914626,2024-11-23T14:41:54.626Z,20810,0.008298907,-0.008428168,7.7263307E-4
1732372914637,2024-11-23T14:41:54.637Z,20821,0.020678012,-0.0070084482,-0.0220074
1732372914640,2024-11-23T14:41:54.640Z,20824,0.020678012,-0.0070084482,-0.0220074
1732372914658,2024-11-23T14:41:54.658Z,20842,0.030018816,5.7794317E-4,-0.005062424
1732372914660,2024-11-23T14:41:54.660Z,20844,0.030018816,5.7794317E-4,-0.005062424
1732372914670,2024-11-23T14:41:54.670Z,20854,0.02723855,0.0019701414,-0.054297686
1732372914673,2024-11-23T14:41:54.673Z,20857,0.02723855,0.0019701414,-0.054297686
1732372914682,2024-11-23T14:41:54.682Z,20866,0.01361237,-0.00929056,-0.05593794
1732372914685,2024-11-23T14:41:54.685Z,20869,0.01361237,-0.00929056,-0.05593794
1732372914707,2024-11-23T14:41:54.707Z,20891,0.046379995,0.016323613,-0.014917763
1732372914715,2024-11-23T14:41:54.715Z,20899,0.046379995,0.016323613,-0.014917763
1732372914735,2024-11-23T14:41:54.735Z,20919,0.038665593,0.040341076,-0.011837903
1732372914739,2024-11-23T14:41:54.739Z,20923,0.038665593,0.040341076,-0.011837903
1732372914750,2024-11-23T14:41:54.750Z,20934,0.054255303,0.025787469,-0.0678735
1732372914753,2024-11-23T14:41:54.753Z,20937,0.054255303,0.025787469,-0.0678735
1732372914765,2024-11-23T14:41:54.765Z,20949,0.022215508,-0.0021339066,0.005051508
1732372914769,2024-11-23T14:41:54.769Z,20953,0.022215508,-0.0021339066,0.005051508
1732372914781,2024-11-23T14:41:54.781Z,20965,0.008142631,-0.017099358,-0.020778373
1732372914787,2024-11-23T14:41:54.787Z,20971,0.008142631,-0.017099358,-0.020778373
1732372914797,2024-11-23T14:41:54.797Z,20981,-0.0030794886,-0.015916437,-0.040530406
1732372914801,2024-11-23T14:41:54.801Z,20985,-0.0030794886,-0.015916437,-0.040530406
1732372914810,2024-11-23T14:41:54.810Z,20994,-0.002520065,0.009893788,-0.041613936
1732372914814,2024-11-23T14:41:54.814Z,20998,-0.002520065,0.009893788,-0.041613936
1732372914825,2024-11-23T14:41:54.825Z,21009,-0.013375591,0.012533869,-0.06686482
1732372914828,2024-11-23T14:41:54.828Z,21012,-0.013375591,0.012533869,-0.06686482
1732372914838,2024-11-23T14:41:54.838Z,21022,-0.0069880933,0.03765976,-0.062080886
1732372914841,2024-11-23T14:41:54.841Z,21025,-0.0069880933,0.03765976,-0.062080886
1732372914882,2024-11-23T14:41:54.882Z,21066,0.013811239,0.027964553,-0.048708852
1732372914885,2024-11-23T14:41:54.885Z,21069,0.013811239,0.027964553,-0.048708852
1732372914895,2024-11-23T14:41:54.895Z,21079,0.004660487,0.023703644,-0.048171967
1732372914898,2024-11-23T14:41:54.898Z,21082,0.004660487,0.023703644,-0.048171967
1732372914909,2024-11-23T14:41:54.909Z,21093,-0.0032592511,0.01945528,-0.040807914
1732372914912,2024-11-23T14:41:54.912Z,21096,-0.0032592511,0.01945528,-0.040807914
1732372915109,2024-11-23T14:41:55.109Z,21293,0.016986556,0.013549427,-0.009551476
1732372915113,2024-11-23T14:41:55.113Z,21297,0.016986556,0.013549427,-0.009551476
1732372915125,2024-11-23T14:41:55.125Z,21309,0.023487974,0.019122984,0.022095228
1732372915129,2024-11-23T14:41:55.129Z,21313,0.023487974,0.019122984,0.022095228
1732372915142,2024-11-23T14:41:55.142Z,21326,0.008878096,0.0349589,0.020078273
1732372915145,2024-11-23T14:41:55.145Z,21329,0.008878096,0.0349589,0.020078273
1732372915158,2024-11-23T14:41:55.158Z,21342,0.0011840335,0.03759548,0.0082323225
1732372915163,2024-11-23T14:41:55.163Z,21347,0.0011840335,0.03759548,0.0082323225
1732372915178,2024-11-23T14:41:55.178Z,21362,0.00921282,0.07399199,-0.032048933
1732372915188,2024-11-23T14:41:55.188Z,21372,0.00921282,0.07399199,-0.032048933
1732372915212,2024-11-23T14:41:55.212Z,21396,0.010018496,0.08594422,-0.020366132
1732372915222,2024-11-23T14:41:55.222Z,21406,0.010018496,0.08594422,-0.020366132
1732372915245,2024-11-23T14:41:55.245Z,21429,-0.021036869,0.061848573,-0.012163185
1732372915251,2024-11-23T14:41:55.251Z,21435,-0.021036869,0.061848573,-0.012163185
1732372915261,2024-11-23T14:41:55.261Z,21445,-0.073384576,0.05101975,-0.047633823
1732372915265,2024-11-23T14:41:55.265Z,21449,-0.073384576,0.05101975,-0.047633823
1732372915276,2024-11-23T14:41:55.276Z,21460,-0.03275718,0.077497676,-0.026080366
1732372915279,2024-11-23T14:41:55.279Z,21463,-0.03275718,0.077497676,-0.026080366
1732372915289,2024-11-23T14:41:55.289Z,21473,-0.044273052,0.06195195,-0.0038681615
1732372915292,2024-11-23T14:41:55.292Z,21476,-0.044273052,0.06195195,-0.0038681615
1732372915387,2024-11-23T14:41:55.387Z,21571,-0.013301445,0.070852645,0.020910198
1732372915394,2024-11-23T14:41:55.394Z,21578,-0.013301445,0.070852645,0.020910198
1732372915419,2024-11-23T14:41:55.419Z,21603,-0.04218429,0.050802108,-0.026198236
1732372915425,2024-11-23T14:41:55.425Z,21609,-0.04218429,0.050802108,-0.026198236
1732372915441,2024-11-23T14:41:55.441Z,21625,-0.02935569,0.06297344,-0.027574923
1732372915446,2024-11-23T14:41:55.446Z,21630,-0.02935569,0.06297344,-0.027574923
1732372915461,2024-11-23T14:41:55.461Z,21645,0.029193955,0.07028335,0.02397206
1732372915466,2024-11-23T14:41:55.466Z,21650,0.029193955,0.07028335,0.02397206
1732372915479,2024-11-23T14:41:55.479Z,21663,0.038360726,0.046099503,0.028186733
1732372915483,2024-11-23T14:41:55.483Z,21667,0.038360726,0.046099503,0.028186733
1732372915495,2024-11-23T14:41:55.495Z,21679,-0.007963699,0.019961843,0.009630739
1732372915498,2024-11-23T14:41:55.498Z,21682,-0.007963699,0.019961843,0.009630739
1732372915510,2024-11-23T14:41:55.510Z,21694,-0.0014314544,-0.015028176,-0.0034828812
1732372915515,2024-11-23T14:41:55.515Z,21699,-0.0014314544,-0.015028176,-0.0034828812
1732372915527,2024-11-23T14:41:55.527Z,21711,-0.02061989,-0.01496263,-0.0033820262
1732372915530,2024-11-23T14:41:55.530Z,21714,-0.02061989,-0.01496263,-0.0033820262
1732372915559,2024-11-23T14:41:55.559Z,21743,0.029210627,2.488569E-4,-0.013885084
1732372915562,2024-11-23T14:41:55.562Z,21746,0.029210627,2.488569E-4,-0.013885084
1732372915573,2024-11-23T14:41:55.573Z,21757,0.0019189648,-0.033299953,-0.057768077
1732372915576,2024-11-23T14:41:55.576Z,21760,0.0019189648,-0.033299953,-0.057768077
1732372915586,2024-11-23T14:41:55.586Z,21770,-0.01812991,-0.048362747,-0.047526836
1732372915589,2024-11-23T14:41:55.589Z,21773,-0.01812991,-0.048362747,-0.047526836
1732372915602,2024-11-23T14:41:55.602Z,21786,-0.026384916,-0.033148438,-0.016469032
1732372915606,2024-11-23T14:41:55.606Z,21790,-0.026384916,-0.033148438,-0.016469032
1732372915618,2024-11-23T14:41:55.618Z,21802,0.046047837,-0.02902572,0.035805404
1732372915627,2024-11-23T14:41:55.627Z,21811,0.046047837,-0.02902572,0.035805404
1732372915651,2024-11-23T14:41:55.651Z,21835,0.05202026,-0.030924093,0.027395068
1732372915658,2024-11-23T14:41:55.658Z,21842,0.05202026,-0.030924093,0.027395068
1732372915678,2024-11-23T14:41:55.678Z,21862,0.014360504,-0.050897412,-0.01603031
1732372915686,2024-11-23T14:41:55.686Z,21870,0.014360504,-0.050897412,-0.01603031
1732372915740,2024-11-23T14:41:55.740Z,21924,-0.0035658951,-0.010202841,-0.004035711
1732372915748,2024-11-23T14:41:55.748Z,21932,-0.0035658951,-0.010202841,-0.004035711
1732372915830,2024-11-23T14:41:55.830Z,22014,0.00906045,0.021545328,-0.013313054
1732372915839,2024-11-23T14:41:55.839Z,22023,0.00906045,0.021545328,-0.013313054
1732372915862,2024-11-23T14:41:55.862Z,22046,0.025611645,0.029859424,-0.037323236
1732372915866,2024-11-23T14:41:55.866Z,22050,0.025611645,0.029859424,-0.037323236
1732372915882,2024-11-23T14:41:55.882Z,22066,-0.026998946,0.010349394,-0.019663779
1732372915887,2024-11-23T14:41:55.887Z,22071,-0.026998946,0.010349394,-0.019663779
1732372915898,2024-11-23T14:41:55.898Z,22082,0.025590327,0.057723716,0.01380825
1732372915903,2024-11-23T14:41:55.903Z,22087,0.025590327,0.057723716,0.01380825
1732372915918,2024-11-23T14:41:55.918Z,22102,0.048300143,0.035762165,-0.017958164
1732372915922,2024-11-23T14:41:55.922Z,22106,0.048300143,0.035762165,-0.017958164
1732372915930,2024-11-23T14:41:55.930Z,22114,0.010311499,0.026508464,-0.0033448637
1732372915934,2024-11-23T14:41:55.934Z,22118,0.010311499,0.026508464,-0.0033448637
1732372916010,2024-11-23T14:41:56.010Z,22194,0.015085761,-0.013525115,-0.019364892
1732372916015,2024-11-23T14:41:56.015Z,22199,0.015085761,-0.013525115,-0.019364892
1732372916023,2024-11-23T14:41:56.023Z,22207,0.011067635,-0.021844948,-0.028598575
1732372916026,2024-11-23T14:41:56.026Z,22210,0.011067635,-0.021844948,-0.028598575
1732372916035,2024-11-23T14:41:56.035Z,22219,0.014059537,-0.01062227,-0.05074799
1732372916038,2024-11-23T14:41:56.038Z,22222,0.014059537,-0.01062227,-0.05074799
1732372916054,2024-11-23T14:41:56.054Z,22238,0.020787852,-0.040412553,-0.048985146
1732372916058,2024-11-23T14:41:56.058Z,22242,0.020787852,-0.040412553,-0.048985146
1732372916068,2024-11-23T14:41:56.068Z,22252,0.011096906,-0.027246185,-0.022146938
1732372916072,2024-11-23T14:41:56.072Z,22256,0.011096906,-0.027246185,-0.022146938
1732372916081,2024-11-23T14:41:56.081Z,22265,0.027091755,-0.028234025,0.010310232
1732372916085,2024-11-23T14:41:56.085Z,22269,0.027091755,-0.028234025,0.010310232
1732372916143,2024-11-23T14:41:56.143Z,22327,0.07452246,0.007789542,-0.01075217
1732372916146,2024-11-23T14:41:56.146Z,22330,0.07452246,0.007789542,-0.01075217
1732372916156,2024-11-23T14:41:56.156Z,22340,0.008136403,-0.018525787,0.016296566
1732372916160,2024-11-23T14:41:56.160Z,22344,0.008136403,-0.018525787,0.016296566
1732372916170,2024-11-23T14:41:56.170Z,22354,0.0031960066,-0.02488822,-0.011986228
1732372916174,2024-11-23T14:41:56.174Z,22358,0.0031960066,-0.02488822,-0.011986228
1732372916187,2024-11-23T14:41:56.187Z,22371,0.019984849,-0.04002356,-0.021137176
1732372916191,2024-11-23T14:41:56.191Z,22375,0.019984849,-0.04002356,-0.021137176
1732372916201,2024-11-23T14:41:56.201Z,22385,0.013195667,0.031286925,-0.031755894
1732372916205,2024-11-23T14:41:56.205Z,22389,0.013195667,0.031286925,-0.031755894
1732372916214,2024-11-23T14:41:56.214Z,22398,0.041553266,0.026410049,0.0075348606
1732372916217,2024-11-23T14:41:56.217Z,22401,0.041553266,0.026410049,0.0075348606
1732372916235,2024-11-23T14:41:56.235Z,22419,0.022899218,0.021529574,-0.0020618127
1732372916241,2024-11-23T14:41:56.241Z,22425,0.022899218,0.021529574,-0.0020618127
1732372916259,2024-11-23T14:41:56.259Z,22443,-0.0054981927,-0.002465813,0.003788174
1732372916262,2024-11-23T14:41:56.262Z,22446,-0.0054981927,-0.002465813,0.003788174
1732372916273,2024-11-23T14:41:56.273Z,22457,0.040707164,-0.01663957,4.588664E-4
1732372916278,2024-11-23T14:41:56.278Z,22462,0.040707164,-0.01663957,4.588664E-4
1732372916291,2024-11-23T14:41:56.291Z,22475,-0.017465167,-0.035679407,-0.007747379
1732372916294,2024-11-23T14:41:56.294Z,22478,-0.017465167,-0.035679407,-0.007747379
1732372916305,2024-11-23T14:41:56.305Z,22489,0.033110294,-0.033722978,-0.011650532
1732372916308,2024-11-23T14:41:56.308Z,22492,0.033110294,-0.033722978,-0.011650532
1732372916317,2024-11-23T14:41:56.317Z,22501,0.042508185,-0.058645915,0.001129596
1732372916320,2024-11-23T14:41:56.320Z,22504,0.042508185,-0.058645915,0.001129596
1732372916368,2024-11-23T14:41:56.368Z,22552,0.048424155,-0.08552917,-0.004189073
1732372916370,2024-11-23T14:41:56.370Z,22554,0.048424155,-0.08552917,-0.004189073
1732372916379,2024-11-23T14:41:56.379Z,22563,-0.059186164,-0.16176058,0.006564376
1732372916382,2024-11-23T14:41:56.382Z,22566,-0.059186164,-0.16176058,0.006564376
1732372916393,2024-11-23T14:41:56.393Z,22577,-0.018676015,-0.11834823,0.0217064
1732372916396,2024-11-23T14:41:56.396Z,22580,-0.018676015,-0.11834823,0.0217064
1732372916412,2024-11-23T14:41:56.412Z,22596,0.0056840223,-0.13646674,0.030232068
1732372916420,2024-11-23T14:41:56.420Z,22604,0.0056840223,-0.13646674,0.030232068
1732372916442,2024-11-23T14:41:56.442Z,22626,-0.0035260122,-0.17027403,-0.014370559
1732372916449,2024-11-23T14:41:56.449Z,22633,-0.0035260122,-0.17027403,-0.014370559
1732372916470,2024-11-23T14:41:56.470Z,22654,-0.011433392,-0.19914396,-0.020770876
1732372916474,2024-11-23T14:41:56.474Z,22658,-0.011433392,-0.19914396,-0.020770876
1732372916486,2024-11-23T14:41:56.486Z,22670,-0.0060133217,-0.17284848,0.0138207665
1732372916490,2024-11-23T14:41:56.490Z,22674,-0.0060133217,-0.17284848,0.0138207665
1732372916503,2024-11-23T14:41:56.503Z,22687,-0.005035787,-0.15252312,-0.056892514
1732372916507,2024-11-23T14:41:56.507Z,22691,-0.005035787,-0.15252312,-0.056892514
1732372916519,2024-11-23T14:41:56.519Z,22703,0.013520066,-0.111084506,-0.07541519
1732372916523,2024-11-23T14:41:56.523Z,22707,0.013520066,-0.111084506,-0.07541519
1732372916533,2024-11-23T14:41:56.533Z,22717,0.07431219,-0.08576879,-0.04535648
1732372916537,2024-11-23T14:41:56.537Z,22721,0.07431219,-0.08576879,-0.04535648
1732372916546,2024-11-23T14:41:56.546Z,22730,-0.027375733,-0.118750446,-0.021928612
1732372916549,2024-11-23T14:41:56.549Z,22733,-0.027375733,-0.118750446,-0.021928612
1732372916557,2024-11-23T14:41:56.557Z,22741,-0.057822026,-0.11640483,-0.012143286
1732372916560,2024-11-23T14:41:56.560Z,22744,-0.057822026,-0.11640483,-0.012143286
1732372916571,2024-11-23T14:41:56.571Z,22755,-0.005449357,-0.08528158,-0.002956598
1732372916574,2024-11-23T14:41:56.574Z,22758,-0.005449357,-0.08528158,-0.002956598
1732372916586,2024-11-23T14:41:56.586Z,22770,0.05733717,-0.088976994,0.008166018
1732372916591,2024-11-23T14:41:56.591Z,22775,0.05733717,-0.088976994,0.008166018
1732372916608,2024-11-23T14:41:56.608Z,22792,0.045488857,-0.05830973,0.04749095
1732372916612,2024-11-23T14:41:56.612Z,22796,0.045488857,-0.05830973,0.04749095
1732372916689,2024-11-23T14:41:56.689Z,22873,0.037765995,-0.062279187,0.0077950973
1732372916697,2024-11-23T14:41:56.697Z,22881,0.037765995,-0.062279187,0.0077950973
1732372916719,2024-11-23T14:41:56.719Z,22903,-0.008067245,-0.06037877,-0.016795719
1732372916725,2024-11-23T14:41:56.725Z,22909,-0.008067245,-0.06037877,-0.016795719
1732372916739,2024-11-23T14:41:56.739Z,22923,0.0234139,-0.04233864,-0.017358687
1732372916743,2024-11-23T14:41:56.743Z,22927,0.0234139,-0.04233864,-0.017358687
1732372916772,2024-11-23T14:41:56.772Z,22956,0.0012680969,-0.07655884,-0.0035999098
1732372916776,2024-11-23T14:41:56.776Z,22960,0.0012680969,-0.07655884,-0.0035999098
1732372916793,2024-11-23T14:41:56.793Z,22977,-0.016295958,-0.07729219,0.04006362
1732372916804,2024-11-23T14:41:56.804Z,22988,-0.016295958,-0.07729219,0.04006362
1732372916829,2024-11-23T14:41:56.829Z,23013,-0.028205926,-0.07739566,0.04572171
1732372916836,2024-11-23T14:41:56.836Z,23020,-0.028205926,-0.07739566,0.04572171
1732372916856,2024-11-23T14:41:56.856Z,23040,-0.06271441,-0.09602356,-0.014919252
1732372916859,2024-11-23T14:41:56.859Z,23043,-0.06271441,-0.09602356,-0.014919252
1732372916873,2024-11-23T14:41:56.873Z,23057,-0.0015636041,-0.04325909,0.032283098
1732372916878,2024-11-23T14:41:56.878Z,23062,-0.0015636041,-0.04325909,0.032283098
1732372916891,2024-11-23T14:41:56.891Z,23075,-0.023481244,-0.0592471,0.017920492
1732372916894,2024-11-23T14:41:56.894Z,23078,-0.023481244,-0.0592471,0.017920492
1732372916908,2024-11-23T14:41:56.908Z,23092,0.0043439423,-0.055319946,-0.015078811
1732372916911,2024-11-23T14:41:56.911Z,23095,0.0043439423,-0.055319946,-0.015078811
1732372916922,2024-11-23T14:41:56.922Z,23106,-0.006443504,-0.07676851,-0.030263634
1732372916925,2024-11-23T14:41:56.925Z,23109,-0.006443504,-0.07676851,-0.030263634
1732372916934,2024-11-23T14:41:56.934Z,23118,0.034907613,-0.047865324,0.04545054
1732372916938,2024-11-23T14:41:56.938Z,23122,0.034907613,-0.047865324,0.04545054
1732372916947,2024-11-23T14:41:56.947Z,23131,0.027198177,-0.07420302,0.0025018738
1732372916949,2024-11-23T14:41:56.949Z,23133,0.027198177,-0.07420302,0.0025018738
1732372917000,2024-11-23T14:41:57Z,23184,-0.03672958,-0.09125346,-0.017159456
1732372917004,2024-11-23T14:41:57.004Z,23188,-0.03672958,-0.09125346,-0.017159456
1732372917017,2024-11-23T14:41:57.017Z,23201,-0.056153037,-0.08829762,-0.062508315
1732372917021,2024-11-23T14:41:57.021Z,23205,-0.056153037,-0.08829762,-0.062508315
1732372917042,2024-11-23T14:41:57.042Z,23226,-0.048870414,-0.10736799,-0.029344711
1732372917045,2024-11-23T14:41:57.045Z,23229,-0.048870414,-0.10736799,-0.029344711
1732372917093,2024-11-23T14:41:57.093Z,23277,0.005694606,-0.10592931,-0.011828033
1732372917099,2024-11-23T14:41:57.099Z,23283,0.005694606,-0.10592931,-0.011828033
1732372917123,2024-11-23T14:41:57.123Z,23307,0.025226224,-0.11667032,0.023328064
1732372917130,2024-11-23T14:41:57.130Z,23314,0.025226224,-0.11667032,0.023328064
1732372917142,2024-11-23T14:41:57.142Z,23326,-0.0032835559,-0.08629461,-0.020747004
1732372917146,2024-11-23T14:41:57.146Z,23330,-0.0032835559,-0.08629461,-0.020747004
1732372917159,2024-11-23T14:41:57.159Z,23343,-0.025062306,-0.10672305,-0.035195764
1732372917163,2024-11-23T14:41:57.163Z,23347,-0.025062306,-0.10672305,-0.035195764
1732372917175,2024-11-23T14:41:57.175Z,23359,-0.0024943755,-0.09549784,-0.032789912
1732372917179,2024-11-23T14:41:57.179Z,23363,-0.0024943755,-0.09549784,-0.032789912
1732372917189,2024-11-23T14:41:57.189Z,23373,5.640543E-4,-0.0959868,-0.019117946
1732372917193,2024-11-23T14:41:57.193Z,23377,5.640543E-4,-0.0959868,-0.019117946
1732372917202,2024-11-23T14:41:57.202Z,23386,0.026252488,-0.07643592,-0.021435346
1732372917205,2024-11-23T14:41:57.205Z,23389,0.026252488,-0.07643592,-0.021435346
1732372917214,2024-11-23T14:41:57.214Z,23398,-0.029983802,-0.12093551,0.0056745107
1732372917216,2024-11-23T14:41:57.216Z,23400,-0.029983802,-0.12093551,0.0056745107
1732372917226,2024-11-23T14:41:57.226Z,23410,0.0029833359,-0.09848441,-0.0024474575
1732372917229,2024-11-23T14:41:57.229Z,23413,0.0029833359,-0.09848441,-0.0024474575
1732372917318,2024-11-23T14:41:57.318Z,23502,0.010982543,-0.11265574,-0.013963909
1732372917322,2024-11-23T14:41:57.322Z,23506,0.010982543,-0.11265574,-0.013963909
1732372917336,2024-11-23T14:41:57.336Z,23520,-0.022288641,-0.1394897,0.0017350634
1732372917343,2024-11-23T14:41:57.343Z,23527,-0.022288641,-0.1394897,0.0017350634
1732372917368,2024-11-23T14:41:57.368Z,23552,-0.013799946,-0.12090964,0.052526385
1732372917375,2024-11-23T14:41:57.375Z,23559,-0.013799946,-0.12090964,0.052526385
1732372917407,2024-11-23T14:41:57.407Z,23591,0.020971306,-0.07399588,0.06740728
1732372917413,2024-11-23T14:41:57.413Z,23597,0.020971306,-0.07399588,0.06740728
1732372917456,2024-11-23T14:41:57.456Z,23640,-0.0058987876,-0.13001855,-0.039596643
1732372917464,2024-11-23T14:41:57.464Z,23648,-0.0058987876,-0.13001855,-0.039596643
1732372917479,2024-11-23T14:41:57.479Z,23663,-0.007262635,-0.086980596,0.007337179
1732372917483,2024-11-23T14:41:57.483Z,23667,-0.007262635,-0.086980596,0.007337179
1732372917494,2024-11-23T14:41:57.494Z,23678,0.026442964,-0.05322698,0.012374938
1732372917498,2024-11-23T14:41:57.498Z,23682,0.026442964,-0.05322698,0.012374938
1732372917546,2024-11-23T14:41:57.546Z,23730,0.043304324,-0.08268652,-0.022351032
1732372917556,2024-11-23T14:41:57.556Z,23740,0.043304324,-0.08268652,-0.022351032
1732372917580,2024-11-23T14:41:57.580Z,23764,-0.003287974,-0.07732195,0.029389918
1732372917586,2024-11-23T14:41:57.586Z,23770,-0.003287974,-0.07732195,0.029389918
1732372917603,2024-11-23T14:41:57.603Z,23787,0.0068898913,-0.07097965,0.03962344
1732372917607,2024-11-23T14:41:57.607Z,23791,0.0068898913,-0.07097965,0.03962344
1732372917680,2024-11-23T14:41:57.680Z,23864,0.011138228,-0.09253655,0.006909698
1732372917688,2024-11-23T14:41:57.688Z,23872,0.011138228,-0.09253655,0.006909698
1732372917714,2024-11-23T14:41:57.714Z,23898,-0.020000696,-0.07196953,-0.010888814
1732372917721,2024-11-23T14:41:57.721Z,23905,-0.020000696,-0.07196953,-0.010888814
1732372917768,2024-11-23T14:41:57.768Z,23952,-0.00127133,-0.039689805,-2.666411E-4
1732372917775,2024-11-23T14:41:57.775Z,23959,-0.00127133,-0.039689805,-2.666411E-4
1732372917795,2024-11-23T14:41:57.795Z,23979,0.023907375,0.019102465,-0.020142168
1732372917799,2024-11-23T14:41:57.799Z,23983,0.023907375,0.019102465,-0.020142168
1732372917814,2024-11-23T14:41:57.814Z,23998,-0.015437938,0.0054503456,-0.010668963
1732372917819,2024-11-23T14:41:57.819Z,24003,-0.015437938,0.0054503456,-0.010668963
1732372917832,2024-11-23T14:41:57.832Z,24016,0.007573687,0.023531321,0.011688203
1732372917836,2024-11-23T14:41:57.836Z,24020,0.007573687,0.023531321,0.011688203
1732372917907,2024-11-23T14:41:57.907Z,24091,0.04180454,0.07632438,0.013032197
1732372917917,2024-11-23T14:41:57.917Z,24101,0.04180454,0.07632438,0.013032197
1732372917944,2024-11-23T14:41:57.944Z,24128,0.026765468,0.062635794,0.019914538
1732372917950,2024-11-23T14:41:57.950Z,24134,0.026765468,0.062635794,0.019914538
1732372917967,2024-11-23T14:41:57.967Z,24151,-0.004537507,0.040384836,0.02973884
1732372917971,2024-11-23T14:41:57.971Z,24155,-0.004537507,0.040384836,0.02973884
1732372917985,2024-11-23T14:41:57.985Z,24169,-0.019052474,0.027646359,0.0156506
1732372917989,2024-11-23T14:41:57.989Z,24173,-0.019052474,0.027646359,0.0156506
1732372918003,2024-11-23T14:41:58.003Z,24187,0.027017813,0.011480774,-0.022564352
1732372918007,2024-11-23T14:41:58.007Z,24191,0.027017813,0.011480774,-0.022564352
1732372918021,2024-11-23T14:41:58.021Z,24205,-8.0990634E-5,0.064551964,-0.0127643645
1732372918025,2024-11-23T14:41:58.025Z,24209,-8.0990634E-5,0.064551964,-0.0127643645
1732372918087,2024-11-23T14:41:58.087Z,24271,0.0047092363,0.08502562,-0.019326746
1732372918093,2024-11-23T14:41:58.093Z,24277,0.0047092363,0.08502562,-0.019326746
1732372918176,2024-11-23T14:41:58.176Z,24360,0.005069689,0.07414963,-0.011740352
1732372918182,2024-11-23T14:41:58.182Z,24366,0.005069689,0.07414963,-0.011740352
1732372918209,2024-11-23T14:41:58.209Z,24393,0.055466153,0.08475021,-0.021357954
1732372918216,2024-11-23T14:41:58.216Z,24400,0.055466153,0.08475021,-0.021357954
1732372918234,2024-11-23T14:41:58.234Z,24418,0.0353558,0.086409844,-0.00799519
1732372918238,2024-11-23T14:41:58.238Z,24422,0.0353558,0.086409844,-0.00799519
1732372918252,2024-11-23T14:41:58.252Z,24436,0.018661793,0.09067698,-0.0016998049
1732372918257,2024-11-23T14:41:58.257Z,24441,0.018661793,0.09067698,-0.0016998049
1732372918275,2024-11-23T14:41:58.275Z,24459,-0.013500554,0.06467868,-0.005440651
1732372918282,2024-11-23T14:41:58.282Z,24466,-0.013500554,0.06467868,-0.005440651
1732372918307,2024-11-23T14:41:58.307Z,24491,0.032138754,0.0916868,-0.007625248
1732372918314,2024-11-23T14:41:58.314Z,24498,0.032138754,0.0916868,-0.007625248
1732372918334,2024-11-23T14:41:58.334Z,24518,-0.028199239,0.16586454,-0.04456022
1732372918342,2024-11-23T14:41:58.342Z,24526,-0.028199239,0.16586454,-0.04456022
1732372918367,2024-11-23T14:41:58.367Z,24551,-0.054623246,0.10293787,-0.061878946
1732372918373,2024-11-23T14:41:58.373Z,24557,-0.054623246,0.10293787,-0.061878946
1732372918390,2024-11-23T14:41:58.390Z,24574,-0.06737294,0.08456535,-0.029471777
1732372918395,2024-11-23T14:41:58.395Z,24579,-0.06737294,0.08456535,-0.029471777
1732372918409,2024-11-23T14:41:58.409Z,24593,-0.036491703,0.035480052,-0.037194163
1732372918413,2024-11-23T14:41:58.413Z,24597,-0.036491703,0.035480052,-0.037194163
1732372918427,2024-11-23T14:41:58.427Z,24611,-0.033701345,0.033075504,-0.01333389
1732372918435,2024-11-23T14:41:58.435Z,24619,-0.033701345,0.033075504,-0.01333389
1732372918457,2024-11-23T14:41:58.457Z,24641,-0.020253755,0.032186463,-0.023356386
1732372918463,2024-11-23T14:41:58.463Z,24647,-0.020253755,0.032186463,-0.023356386
1732372918484,2024-11-23T14:41:58.484Z,24668,-0.013883298,0.0075001325,-0.010441621
1732372918490,2024-11-23T14:41:58.490Z,24674,-0.013883298,0.0075001325,-0.010441621
1732372918509,2024-11-23T14:41:58.509Z,24693,-0.03865923,0.013461709,0.0049462863
1732372918513,2024-11-23T14:41:58.513Z,24697,-0.03865923,0.013461709,0.0049462863
1732372918525,2024-11-23T14:41:58.525Z,24709,-0.037644275,-0.014791475,-0.0033921949
1732372918529,2024-11-23T14:41:58.529Z,24713,-0.037644275,-0.014791475,-0.0033921949
1732372918542,2024-11-23T14:41:58.542Z,24726,-0.05518198,-0.03020193,0.009117569
1732372918545,2024-11-23T14:41:58.545Z,24729,-0.05518198,-0.03020193,0.009117569
1732372918556,2024-11-23T14:41:58.556Z,24740,-0.031508032,-6.185927E-4,0.005241603
1732372918560,2024-11-23T14:41:58.560Z,24744,-0.031508032,-6.185927E-4,0.005241603
1732372918574,2024-11-23T14:41:58.574Z,24758,-0.036582842,0.035823334,0.009867616
1732372918577,2024-11-23T14:41:58.577Z,24761,-0.036582842,0.035823334,0.009867616
1732372918585,2024-11-23T14:41:58.585Z,24769,-0.03609733,0.0058547985,0.008931765
1732372918588,2024-11-23T14:41:58.588Z,24772,-0.03609733,0.0058547985,0.008931765
1732372918597,2024-11-23T14:41:58.597Z,24781,-0.0147064645,0.023911074,0.0018046987
1732372918600,2024-11-23T14:41:58.600Z,24784,-0.0147064645,0.023911074,0.0018046987
1732372918610,2024-11-23T14:41:58.610Z,24794,-0.014359103,0.019552918,-0.022054493
1732372918612,2024-11-23T14:41:58.612Z,24796,-0.014359103,0.019552918,-0.022054493
1732372918620,2024-11-23T14:41:58.620Z,24804,0.0094967,0.01881607,0.0060860417
1732372918623,2024-11-23T14:41:58.623Z,24807,0.0094967,0.01881607,0.0060860417
1732372918632,2024-11-23T14:41:58.632Z,24816,0.010322902,0.02044322,0.008405618
1732372918635,2024-11-23T14:41:58.635Z,24819,0.010322902,0.02044322,0.008405618
1732372918646,2024-11-23T14:41:58.646Z,24830,0.015158498,0.014281799,0.02645838
1732372918648,2024-11-23T14:41:58.648Z,24832,0.015158498,0.014281799,0.02645838
1732372918656,2024-11-23T14:41:58.656Z,24840,0.025814187,0.021312226,0.025914546
1732372918659,2024-11-23T14:41:58.659Z,24843,0.025814187,0.021312226,0.025914546
1732372918667,2024-11-23T14:41:58.667Z,24851,0.0018543499,-0.005648731,0.021820163
1732372918670,2024-11-23T14:41:58.670Z,24854,0.0018543499,-0.005648731,0.021820163
1732372918679,2024-11-23T14:41:58.679Z,24863,-0.00582471,0.011149743,0.019340845
1732372918682,2024-11-23T14:41:58.682Z,24866,-0.00582471,0.011149743,0.019340845
1732372918693,2024-11-23T14:41:58.693Z,24877,-0.034606677,-0.013540869,-4.8473122E-4
1732372918696,2024-11-23T14:41:58.696Z,24880,-0.034606677,-0.013540869,-4.8473122E-4
1732372918705,2024-11-23T14:41:58.705Z,24889,-0.0066745817,-0.016565954,0.024258407
1732372918707,2024-11-23T14:41:58.707Z,24891,-0.0066745817,-0.016565954,0.024258407
1732372918715,2024-11-23T14:41:58.715Z,24899,-0.01204735,-0.011046173,0.03482674
1732372918717,2024-11-23T14:41:58.717Z,24901,-0.01204735,-0.011046173,0.03482674
1732372918725,2024-11-23T14:41:58.725Z,24909,0.021069787,-0.0035514866,0.019216172
1732372918728,2024-11-23T14:41:58.728Z,24912,0.021069787,-0.0035514866,0.019216172
1732372918735,2024-11-23T14:41:58.735Z,24919,0.008479011,-0.037694283,0.0027638043
1732372918738,2024-11-23T14:41:58.738Z,24922,0.008479011,-0.037694283,0.0027638043
1732372918746,2024-11-23T14:41:58.746Z,24930,0.0059769587,-0.04048403,0.016629238
1732372918749,2024-11-23T14:41:58.749Z,24933,0.0059769587,-0.04048403,0.016629238
1732372918757,2024-11-23T14:41:58.757Z,24941,0.017940778,-0.02962953,0.0150715355
1732372918760,2024-11-23T14:41:58.760Z,24944,0.017940778,-0.02962953,0.0150715355
1732372918771,2024-11-23T14:41:58.771Z,24955,-0.0013184085,-0.033381544,0.01273612
1732372918775,2024-11-23T14:41:58.775Z,24959,-0.0013184085,-0.033381544,0.01273612
1732372918789,2024-11-23T14:41:58.789Z,24973,0.0096601015,-0.03073378,-0.0011639335
1732372918792,2024-11-23T14:41:58.792Z,24976,0.0096601015,-0.03073378,-0.0011639335
1732372918800,2024-11-23T14:41:58.800Z,24984,-0.001781806,-0.031272627,0.012959838
1732372918803,2024-11-23T14:41:58.803Z,24987,-0.001781806,-0.031272627,0.012959838
1732372918812,2024-11-23T14:41:58.812Z,24996,0.011087128,-0.0147482,-0.0034551688
1732372918815,2024-11-23T14:41:58.815Z,24999,0.011087128,-0.0147482,-0.0034551688
1732372918825,2024-11-23T14:41:58.825Z,25009,-0.024543941,-0.02517403,-0.04324675
1732372918829,2024-11-23T14:41:58.829Z,25013,-0.024543941,-0.02517403,-0.04324675
1732372918838,2024-11-23T14:41:58.838Z,25022,-0.016220814,-0.02331475,-0.02857488
1732372918842,2024-11-23T14:41:58.842Z,25026,-0.016220814,-0.02331475,-0.02857488
1732372918851,2024-11-23T14:41:58.851Z,25035,-0.010261417,-0.013149836,-0.0030896936
1732372918853,2024-11-23T14:41:58.853Z,25037,-0.010261417,-0.013149836,-0.0030896936
1732372918863,2024-11-23T14:41:58.863Z,25047,-0.01294705,-0.0044505415,-0.005416272
1732372918865,2024-11-23T14:41:58.865Z,25049,-0.01294705,-0.0044505415,-0.005416272
1732372918874,2024-11-23T14:41:58.874Z,25058,-2.3454781E-4,2.0616516E-4,0.011096207
1732372918876,2024-11-23T14:41:58.876Z,25060,-2.3454781E-4,2.0616516E-4,0.011096207
1732372918884,2024-11-23T14:41:58.884Z,25068,-0.03945586,-0.025338087,-0.034164604
1732372918886,2024-11-23T14:41:58.886Z,25070,-0.03945586,-0.025338087,-0.034164604
1732372918894,2024-11-23T14:41:58.894Z,25078,-0.022442972,-0.013755884,-0.027979316
1732372918897,2024-11-23T14:41:58.897Z,25081,-0.022442972,-0.013755884,-0.027979316
1732372918907,2024-11-23T14:41:58.907Z,25091,-0.018535206,0.0061452775,-0.030400274
1732372918910,2024-11-23T14:41:58.910Z,25094,-0.018535206,0.0061452775,-0.030400274
1732372918919,2024-11-23T14:41:58.919Z,25103,0.012387461,0.004184569,-0.011885883
1732372918922,2024-11-23T14:41:58.922Z,25106,0.012387461,0.004184569,-0.011885883
1732372918930,2024-11-23T14:41:58.930Z,25114,0.028558074,0.03932746,-0.002227386
1732372918932,2024-11-23T14:41:58.932Z,25116,0.028558074,0.03932746,-0.002227386
1732372918940,2024-11-23T14:41:58.940Z,25124,-0.01110222,0.017365621,-0.05292937
1732372918942,2024-11-23T14:41:58.942Z,25126,-0.01110222,0.017365621,-0.05292937
1732372919114,2024-11-23T14:41:59.114Z,25298,0.016366461,0.048188284,-0.015349682
1732372919116,2024-11-23T14:41:59.116Z,25300,0.016366461,0.048188284,-0.015349682
1732372919162,2024-11-23T14:41:59.162Z,25346,0.014530957,0.05899951,0.010096185
1732372919168,2024-11-23T14:41:59.168Z,25352,0.014530957,0.05899951,0.010096185
1732372919208,2024-11-23T14:41:59.208Z,25392,0.021593928,0.054260142,-0.0033253734
1732372919215,2024-11-23T14:41:59.215Z,25399,0.021593928,0.054260142,-0.0033253734
1732372919299,2024-11-23T14:41:59.299Z,25483,0.026058579,0.051392596,-0.01407068
1732372919306,2024-11-23T14:41:59.306Z,25490,0.026058579,0.051392596,-0.01407068
1732372919332,2024-11-23T14:41:59.332Z,25516,-0.032485683,0.010916834,-0.059572868
1732372919340,2024-11-23T14:41:59.340Z,25524,-0.032485683,0.010916834,-0.059572868
1732372919362,2024-11-23T14:41:59.362Z,25546,0.008867495,0.041054875,-0.008463439
1732372919366,2024-11-23T14:41:59.366Z,25550,0.008867495,0.041054875,-0.008463439
1732372919380,2024-11-23T14:41:59.380Z,25564,0.0059971665,0.039282437,0.007256576
1732372919384,2024-11-23T14:41:59.384Z,25568,0.0059971665,0.039282437,0.007256576
1732372919398,2024-11-23T14:41:59.398Z,25582,0.018063687,0.055800643,-0.039686237
1732372919402,2024-11-23T14:41:59.402Z,25586,0.018063687,0.055800643,-0.039686237
1732372919413,2024-11-23T14:41:59.413Z,25597,-0.03413516,0.054286882,0.04569933
1732372919416,2024-11-23T14:41:59.416Z,25600,-0.03413516,0.054286882,0.04569933
1732372919428,2024-11-23T14:41:59.428Z,25612,-0.010329164,0.041333586,-0.017279295
1732372919432,2024-11-23T14:41:59.432Z,25616,-0.010329164,0.041333586,-0.017279295
1732372919442,2024-11-23T14:41:59.442Z,25626,-0.0025786117,0.1042442,0.025737762
1732372919445,2024-11-23T14:41:59.445Z,25629,-0.0025786117,0.1042442,0.025737762
1732372919474,2024-11-23T14:41:59.474Z,25658,0.017094115,0.099282235,-0.019647479
1732372919477,2024-11-23T14:41:59.477Z,25661,0.017094115,0.099282235,-0.019647479
1732372919486,2024-11-23T14:41:59.486Z,25670,-0.029070305,0.105468065,0.021488456
1732372919489,2024-11-23T14:41:59.489Z,25673,-0.029070305,0.105468065,0.021488456
1732372919498,2024-11-23T14:41:59.498Z,25682,0.014472,0.10197833,0.010051037
1732372919501,2024-11-23T14:41:59.501Z,25685,0.014472,0.10197833,0.010051037
1732372919509,2024-11-23T14:41:59.509Z,25693,0.015475307,0.04771284,-0.030641792
1732372919512,2024-11-23T14:41:59.512Z,25696,0.015475307,0.04771284,-0.030641792
1732372919570,2024-11-23T14:41:59.570Z,25754,-0.03064395,0.05057883,-0.00586614
1732372919578,2024-11-23T14:41:59.578Z,25762,-0.03064395,0.05057883,-0.00586614
1732372919606,2024-11-23T14:41:59.606Z,25790,-0.017246552,0.05878566,-0.0036675031
1732372919613,2024-11-23T14:41:59.613Z,25797,-0.017246552,0.05878566,-0.0036675031
1732372919639,2024-11-23T14:41:59.639Z,25823,-0.015314004,0.06070105,-0.004875004
1732372919645,2024-11-23T14:41:59.645Z,25829,-0.015314004,0.06070105,-0.004875004
1732372919667,2024-11-23T14:41:59.667Z,25851,-0.022356441,0.09679765,0.0013035266
1732372919675,2024-11-23T14:41:59.675Z,25859,-0.022356441,0.09679765,0.0013035266
1732372919695,2024-11-23T14:41:59.695Z,25879,-0.007776971,0.049542848,-6.78005E-4
1732372919701,2024-11-23T14:41:59.701Z,25885,-0.007776971,0.049542848,-6.78005E-4
1732372919713,2024-11-23T14:41:59.713Z,25897,0.013906759,0.01352881,-0.03583929
1732372919717,2024-11-23T14:41:59.717Z,25901,0.013906759,0.01352881,-0.03583929
1732372919728,2024-11-23T14:41:59.728Z,25912,-0.025054121,0.05369387,-0.015141576
1732372919731,2024-11-23T14:41:59.731Z,25915,-0.025054121,0.05369387,-0.015141576
1732372919742,2024-11-23T14:41:59.742Z,25926,-0.018396633,0.033326793,-0.025889365
1732372919745,2024-11-23T14:41:59.745Z,25929,-0.018396633,0.033326793,-0.025889365
1732372919789,2024-11-23T14:41:59.789Z,25973,0.010419544,5.148294E-4,0.009986517
1732372919793,2024-11-23T14:41:59.793Z,25977,0.010419544,5.148294E-4,0.009986517
1732372919803,2024-11-23T14:41:59.803Z,25987,-0.022655247,-0.042793468,-0.031609386
1732372919806,2024-11-23T14:41:59.806Z,25990,-0.022655247,-0.042793468,-0.031609386
1732372919933,2024-11-23T14:41:59.933Z,26117,-0.057638403,-0.08039546,-0.03943404
1732372919941,2024-11-23T14:41:59.941Z,26125,-0.057638403,-0.08039546,-0.03943404
1732372919966,2024-11-23T14:41:59.966Z,26150,-0.051479165,-0.055500925,0.013277083
1732372919974,2024-11-23T14:41:59.974Z,26158,-0.051479165,-0.055500925,0.013277083
1732372919995,2024-11-23T14:41:59.995Z,26179,-0.033759292,0.0040574665,0.023760853
1732372919999,2024-11-23T14:41:59.999Z,26183,-0.033759292,0.0040574665,0.023760853
1732372920015,2024-11-23T14:42:00.015Z,26199,0.04139528,-0.0062444704,0.062302466
1732372920019,2024-11-23T14:42:00.019Z,26203,0.04139528,-0.0062444704,0.062302466
1732372920060,2024-11-23T14:42:00.060Z,26244,-0.009798501,-0.054163378,-0.0068537598
1732372920064,2024-11-23T14:42:00.064Z,26248,-0.009798501,-0.054163378,-0.0068537598
1732372920077,2024-11-23T14:42:00.077Z,26261,0.055071954,-0.03267105,0.032168716
1732372920081,2024-11-23T14:42:00.081Z,26265,0.055071954,-0.03267105,0.032168716
1732372920103,2024-11-23T14:42:00.103Z,26287,0.044315122,0.002984435,0.06980046
1732372920106,2024-11-23T14:42:00.106Z,26290,0.044315122,0.002984435,0.06980046
1732372920199,2024-11-23T14:42:00.199Z,26383,0.049495842,-0.004971595,0.06975356
1732372920206,2024-11-23T14:42:00.206Z,26390,0.049495842,-0.004971595,0.06975356
1732372920228,2024-11-23T14:42:00.228Z,26412,0.014145162,-0.050908886,0.017379789
1732372920234,2024-11-23T14:42:00.234Z,26418,0.014145162,-0.050908886,0.017379789
1732372920248,2024-11-23T14:42:00.248Z,26432,-0.030336555,-0.10367423,-3.6105645E-4
1732372920253,2024-11-23T14:42:00.253Z,26437,-0.030336555,-0.10367423,-3.6105645E-4
1732372920268,2024-11-23T14:42:00.268Z,26452,-0.04731979,-0.03601579,-0.03149286
1732372920275,2024-11-23T14:42:00.275Z,26459,-0.04731979,-0.03601579,-0.03149286
1732372920296,2024-11-23T14:42:00.296Z,26480,1.3226752E-4,-0.04895518,0.009771198
1732372920303,2024-11-23T14:42:00.303Z,26487,1.3226752E-4,-0.04895518,0.009771198
1732372920323,2024-11-23T14:42:00.323Z,26507,-0.028627824,-0.026036713,0.047029283
1732372920331,2024-11-23T14:42:00.331Z,26515,-0.028627824,-0.026036713,0.047029283
1732372920349,2024-11-23T14:42:00.349Z,26533,0.002510094,-0.010052593,-0.06851211
1732372920352,2024-11-23T14:42:00.352Z,26536,0.002510094,-0.010052593,-0.06851211
1732372920365,2024-11-23T14:42:00.365Z,26549,-0.021659756,-6.372643E-4,-0.012411264
1732372920369,2024-11-23T14:42:00.369Z,26553,-0.021659756,-6.372643E-4,-0.012411264
1732372920381,2024-11-23T14:42:00.381Z,26565,-0.035267085,-0.0119290855,-0.0196059
1732372920385,2024-11-23T14:42:00.385Z,26569,-0.035267085,-0.0119290855,-0.0196059
1732372920395,2024-11-23T14:42:00.395Z,26579,-0.043956023,-0.0012510918,-0.007220807
1732372920398,2024-11-23T14:42:00.398Z,26582,-0.043956023,-0.0012510918,-0.007220807
1732372920408,2024-11-23T14:42:00.408Z,26592,0.0068549733,-0.02724453,0.0023757222
1732372920411,2024-11-23T14:42:00.411Z,26595,0.0068549733,-0.02724453,0.0023757222
1732372920422,2024-11-23T14:42:00.422Z,26606,-0.0029106499,-0.012633256,0.013832631
1732372920425,2024-11-23T14:42:00.425Z,26609,-0.0029106499,-0.012633256,0.013832631
1732372920434,2024-11-23T14:42:00.434Z,26618,-0.008279188,0.022966117,0.014499099
1732372920436,2024-11-23T14:42:00.436Z,26620,-0.008279188,0.022966117,0.014499099
1732372920444,2024-11-23T14:42:00.444Z,26628,0.0065698246,-0.0515762,-0.036923643
1732372920446,2024-11-23T14:42:00.446Z,26630,0.0065698246,-0.0515762,-0.036923643
1732372920457,2024-11-23T14:42:00.457Z,26641,-0.009338617,-0.0814964,-0.1008647
1732372920460,2024-11-23T14:42:00.460Z,26644,-0.009338617,-0.0814964,-0.1008647
1732372920469,2024-11-23T14:42:00.469Z,26653,-0.039399117,-0.09189782,-0.039184984
1732372920473,2024-11-23T14:42:00.473Z,26657,-0.039399117,-0.09189782,-0.039184984
1732372920481,2024-11-23T14:42:00.481Z,26665,-0.026614347,-0.1205859,0.008727934
1732372920483,2024-11-23T14:42:00.483Z,26667,-0.026614347,-0.1205859,0.008727934
1732372920490,2024-11-23T14:42:00.490Z,26674,0.019346153,-0.0954145,0.027187254
1732372920493,2024-11-23T14:42:00.493Z,26677,0.019346153,-0.0954145,0.027187254
1732372920501,2024-11-23T14:42:00.501Z,26685,0.03427361,-0.065403365,0.029409317
1732372920504,2024-11-23T14:42:00.504Z,26688,0.03427361,-0.065403365,0.029409317
1732372920513,2024-11-23T14:42:00.513Z,26697,-0.013524147,-0.16210504,0.052450415
1732372920515,2024-11-23T14:42:00.515Z,26699,-0.013524147,-0.16210504,0.052450415
1732372920524,2024-11-23T14:42:00.524Z,26708,-0.09174882,-0.17646444,0.02033034
1732372920527,2024-11-23T14:42:00.527Z,26711,-0.09174882,-0.17646444,0.02033034
1732372920534,2024-11-23T14:42:00.534Z,26718,7.3383126E-4,-0.19470179,-0.06041464
1732372920536,2024-11-23T14:42:00.536Z,26720,7.3383126E-4,-0.19470179,-0.06041464
1732372920544,2024-11-23T14:42:00.544Z,26728,-0.012239336,-0.12903614,0.13377649
1732372920547,2024-11-23T14:42:00.547Z,26731,-0.012239336,-0.12903614,0.13377649
1732372920598,2024-11-23T14:42:00.598Z,26782,-0.040957406,-0.15048918,0.0606938
1732372920601,2024-11-23T14:42:00.601Z,26785,-0.040957406,-0.15048918,0.0606938
1732372920610,2024-11-23T14:42:00.610Z,26794,-0.042578854,-0.13970655,0.0064391177
1732372920612,2024-11-23T14:42:00.612Z,26796,-0.042578854,-0.13970655,0.0064391177
1732372920619,2024-11-23T14:42:00.619Z,26803,-0.02480643,-0.2129266,-0.09111209
1732372920622,2024-11-23T14:42:00.622Z,26806,-0.02480643,-0.2129266,-0.09111209
1732372920642,2024-11-23T14:42:00.642Z,26826,0.005634238,-0.119721755,2.4730095E-4
1732372920644,2024-11-23T14:42:00.644Z,26828,0.005634238,-0.119721755,2.4730095E-4
1732372920653,2024-11-23T14:42:00.653Z,26837,-0.023434754,-0.09551389,0.034280866
1732372920655,2024-11-23T14:42:00.655Z,26839,-0.023434754,-0.09551389,0.034280866
1732372920664,2024-11-23T14:42:00.664Z,26848,-0.07745741,-0.1253135,-0.07310336
1732372920666,2024-11-23T14:42:00.666Z,26850,-0.07745741,-0.1253135,-0.07310336
1732372920689,2024-11-23T14:42:00.689Z,26873,-0.023157965,-0.13563868,-0.11199849
1732372920692,2024-11-23T14:42:00.692Z,26876,-0.023157965,-0.13563868,-0.11199849
1732372920703,2024-11-23T14:42:00.703Z,26887,0.0498531,-0.07463441,-0.01248231
1732372920706,2024-11-23T14:42:00.706Z,26890,0.0498531,-0.07463441,-0.01248231
1732372920717,2024-11-23T14:42:00.717Z,26901,0.030026123,-0.07629599,0.040723708
1732372920721,2024-11-23T14:42:00.721Z,26905,0.030026123,-0.07629599,0.040723708
1732372920826,2024-11-23T14:42:00.826Z,27010,-0.021297881,-0.091614254,0.04942059
1732372920830,2024-11-23T14:42:00.830Z,27014,-0.021297881,-0.091614254,0.04942059
1732372920840,2024-11-23T14:42:00.840Z,27024,-0.04251003,-0.11971592,-0.048279934
1732372920844,2024-11-23T14:42:00.844Z,27028,-0.04251003,-0.11971592,-0.048279934
1732372920853,2024-11-23T14:42:00.853Z,27037,-0.006348407,-0.072949305,-0.020810628
1732372920856,2024-11-23T14:42:00.856Z,27040,-0.006348407,-0.072949305,-0.020810628
1732372920867,2024-11-23T14:42:00.867Z,27051,0.019430002,-0.06476348,-0.026070423
1732372920870,2024-11-23T14:42:00.870Z,27054,0.019430002,-0.06476348,-0.026070423
1732372920878,2024-11-23T14:42:00.878Z,27062,0.030600378,-0.06051521,0.034160405
1732372920881,2024-11-23T14:42:00.881Z,27065,0.030600378,-0.06051521,0.034160405
1732372920912,2024-11-23T14:42:00.912Z,27096,0.03543237,-0.011753067,0.060641494
1732372920915,2024-11-23T14:42:00.915Z,27099,0.03543237,-0.011753067,0.060641494
1732372920923,2024-11-23T14:42:00.923Z,27107,-0.008725019,-0.047917936,0.018592056
1732372920926,2024-11-23T14:42:00.926Z,27110,-0.008725019,-0.047917936,0.018592056
1732372920936,2024-11-23T14:42:00.936Z,27120,-0.006513819,0.0024790387,-0.015255547
1732372920939,2024-11-23T14:42:00.939Z,27123,-0.006513819,0.0024790387,-0.015255547
1732372920959,2024-11-23T14:42:00.959Z,27143,0.0488615,0.008321584,0.044592917
1732372920962,2024-11-23T14:42:00.962Z,27146,0.0488615,0.008321584,0.044592917
1732372920972,2024-11-23T14:42:00.972Z,27156,0.025058901,-0.018045189,0.062725924
1732372920975,2024-11-23T14:42:00.975Z,27159,0.025058901,-0.018045189,0.062725924
1732372920984,2024-11-23T14:42:00.984Z,27168,0.0065230727,-0.09172307,-0.04207853
1732372920986,2024-11-23T14:42:00.986Z,27170,0.0065230727,-0.09172307,-0.04207853
1732372921002,2024-11-23T14:42:01.002Z,27186,-0.047868047,-0.08726864,-0.0652745
1732372921005,2024-11-23T14:42:01.005Z,27189,-0.047868047,-0.08726864,-0.0652745
1732372921014,2024-11-23T14:42:01.014Z,27198,-0.019796636,-0.039319098,0.07488047
1732372921016,2024-11-23T14:42:01.016Z,27200,-0.019796636,-0.039319098,0.07488047
1732372921024,2024-11-23T14:42:01.024Z,27208,0.0485572,-0.0739493,-0.0075576003
1732372921027,2024-11-23T14:42:01.027Z,27211,0.0485572,-0.0739493,-0.0075576003
1732372921046,2024-11-23T14:42:01.046Z,27230,-0.034089133,-0.1431996,-0.0575841
1732372921049,2024-11-23T14:42:01.049Z,27233,-0.034089133,-0.1431996,-0.0575841
1732372921057,2024-11-23T14:42:01.057Z,27241,0.055953886,-0.054179035,-0.014141532
1732372921060,2024-11-23T14:42:01.060Z,27244,0.055953886,-0.054179035,-0.014141532
1732372921068,2024-11-23T14:42:01.068Z,27252,-0.03354573,-0.1273315,-0.01828378
1732372921071,2024-11-23T14:42:01.071Z,27255,-0.03354573,-0.1273315,-0.01828378
1732372921080,2024-11-23T14:42:01.080Z,27264,0.036451153,-0.091130346,0.029450595
1732372921085,2024-11-23T14:42:01.085Z,27269,0.036451153,-0.091130346,0.029450595
1732372921093,2024-11-23T14:42:01.093Z,27277,0.017586492,-0.13634081,0.036695324
1732372921096,2024-11-23T14:42:01.096Z,27280,0.017586492,-0.13634081,0.036695324
1732372921104,2024-11-23T14:42:01.104Z,27288,0.041820705,-0.10935379,4.376147E-6
1732372921107,2024-11-23T14:42:01.107Z,27291,0.041820705,-0.10935379,4.376147E-6
1732372921114,2024-11-23T14:42:01.114Z,27298,-0.015903793,-0.1355745,-0.018283306
1732372921117,2024-11-23T14:42:01.117Z,27301,-0.015903793,-0.1355745,-0.018283306
1732372921185,2024-11-23T14:42:01.185Z,27369,0.06923119,-0.09337599,0.008030716
1732372921189,2024-11-23T14:42:01.189Z,27373,0.06923119,-0.09337599,0.008030716
1732372921197,2024-11-23T14:42:01.197Z,27381,0.07897942,-0.080144756,0.0045408667
1732372921200,2024-11-23T14:42:01.200Z,27384,0.07897942,-0.080144756,0.0045408667
1732372921229,2024-11-23T14:42:01.229Z,27413,0.012076,-0.068360575,0.0015632448
1732372921233,2024-11-23T14:42:01.233Z,27417,0.012076,-0.068360575,0.0015632448
1732372921278,2024-11-23T14:42:01.278Z,27462,-0.0334948,-0.104931645,-0.044072513
1732372921284,2024-11-23T14:42:01.284Z,27468,-0.0334948,-0.104931645,-0.044072513
1732372921300,2024-11-23T14:42:01.300Z,27484,0.023691557,-0.06495194,0.028664384
1732372921304,2024-11-23T14:42:01.304Z,27488,0.023691557,-0.06495194,0.028664384
1732372921317,2024-11-23T14:42:01.317Z,27501,0.062292527,-0.093331255,0.037185792
1732372921321,2024-11-23T14:42:01.321Z,27505,0.062292527,-0.093331255,0.037185792
1732372921368,2024-11-23T14:42:01.368Z,27552,-0.014159565,-0.112331904,-0.026870169
1732372921374,2024-11-23T14:42:01.374Z,27558,-0.014159565,-0.112331904,-0.026870169
1732372921395,2024-11-23T14:42:01.395Z,27579,-2.0968127E-4,-0.120162584,0.022979265
1732372921399,2024-11-23T14:42:01.399Z,27583,-2.0968127E-4,-0.120162584,0.022979265
1732372921413,2024-11-23T14:42:01.413Z,27597,-0.02219554,-0.08073272,-0.0020432414
1732372921417,2024-11-23T14:42:01.417Z,27601,-0.02219554,-0.08073272,-0.0020432414
1732372921428,2024-11-23T14:42:01.428Z,27612,-0.027715106,-0.09363982,-0.04464084
1732372921431,2024-11-23T14:42:01.431Z,27615,-0.027715106,-0.09363982,-0.04464084
1732372921596,2024-11-23T14:42:01.596Z,27780,0.007941367,-0.07953424,-0.034289032
1732372921603,2024-11-23T14:42:01.603Z,27787,0.007941367,-0.07953424,-0.034289032
1732372921624,2024-11-23T14:42:01.624Z,27808,0.026306735,-0.06448078,-0.03982656
1732372921633,2024-11-23T14:42:01.633Z,27817,0.026306735,-0.06448078,-0.03982656
1732372921651,2024-11-23T14:42:01.651Z,27835,0.03878566,-0.10956559,0.042573694
1732372921655,2024-11-23T14:42:01.655Z,27839,0.03878566,-0.10956559,0.042573694
1732372921667,2024-11-23T14:42:01.667Z,27851,0.003130264,-0.121195644,0.005197884
1732372921671,2024-11-23T14:42:01.671Z,27855,0.003130264,-0.121195644,0.005197884
1732372921682,2024-11-23T14:42:01.682Z,27866,-0.023052821,-0.102981925,0.0047036107
1732372921686,2024-11-23T14:42:01.686Z,27870,-0.023052821,-0.102981925,0.0047036107
1732372921696,2024-11-23T14:42:01.696Z,27880,-0.015886897,-0.07049847,-0.0026414425
1732372921699,2024-11-23T14:42:01.699Z,27883,-0.015886897,-0.07049847,-0.0026414425
1732372921864,2024-11-23T14:42:01.864Z,28048,-0.016325057,-0.061656803,0.010308896
1732372921870,2024-11-23T14:42:01.870Z,28054,-0.016325057,-0.061656803,0.010308896
1732372921892,2024-11-23T14:42:01.892Z,28076,0.0033905325,-0.07750643,-0.008943556
1732372921898,2024-11-23T14:42:01.898Z,28082,0.0033905325,-0.07750643,-0.008943556
1732372921911,2024-11-23T14:42:01.911Z,28095,-0.013798964,-0.08222547,-0.006829172
1732372921915,2024-11-23T14:42:01.915Z,28099,-0.013798964,-0.08222547,-0.006829172
1732372921927,2024-11-23T14:42:01.927Z,28111,0.023722218,-0.06496478,-0.027318712
1732372921931,2024-11-23T14:42:01.931Z,28115,0.023722218,-0.06496478,-0.027318712
1732372921942,2024-11-23T14:42:01.942Z,28126,0.0070549236,-0.021582477,0.0892176
1732372921945,2024-11-23T14:42:01.945Z,28129,0.0070549236,-0.021582477,0.0892176
1732372921956,2024-11-23T14:42:01.956Z,28140,0.024816113,0.0050216774,0.06422946
1732372921958,2024-11-23T14:42:01.958Z,28142,0.024816113,0.0050216774,0.06422946
1732372921967,2024-11-23T14:42:01.967Z,28151,0.0014663709,-0.020129597,-0.015398379
1732372921970,2024-11-23T14:42:01.970Z,28154,0.0014663709,-0.020129597,-0.015398379
1732372921979,2024-11-23T14:42:01.979Z,28163,0.00883101,0.0011537469,0.017766684
1732372921982,2024-11-23T14:42:01.982Z,28166,0.00883101,0.0011537469,0.017766684
1732372921992,2024-11-23T14:42:01.992Z,28176,0.0075267632,-0.005065439,0.02824676
1732372921995,2024-11-23T14:42:01.995Z,28179,0.0075267632,-0.005065439,0.02824676
1732372922003,2024-11-23T14:42:02.003Z,28187,-0.050194103,0.011683049,0.03848934
1732372922006,2024-11-23T14:42:02.006Z,28190,-0.050194103,0.011683049,0.03848934
1732372922015,2024-11-23T14:42:02.015Z,28199,0.010763453,0.04267891,0.045750827
1732372922017,2024-11-23T14:42:02.017Z,28201,0.010763453,0.04267891,0.045750827
1732372922036,2024-11-23T14:42:02.036Z,28220,-0.0052017034,0.037885085,0.053187516
1732372922039,2024-11-23T14:42:02.039Z,28223,-0.0052017034,0.037885085,0.053187516
1732372922047,2024-11-23T14:42:02.047Z,28231,-0.01464604,0.042969193,0.016524939
1732372922050,2024-11-23T14:42:02.050Z,28234,-0.01464604,0.042969193,0.016524939
1732372922058,2024-11-23T14:42:02.058Z,28242,-0.014023555,0.07670822,0.011304049
1732372922060,2024-11-23T14:42:02.060Z,28244,-0.014023555,0.07670822,0.011304049
1732372922069,2024-11-23T14:42:02.069Z,28253,-0.016961908,0.08846644,-0.0105254045
1732372922072,2024-11-23T14:42:02.072Z,28256,-0.016961908,0.08846644,-0.0105254045
1732372922225,2024-11-23T14:42:02.225Z,28409,0.02352307,0.099771194,-0.027270913
1732372922231,2024-11-23T14:42:02.231Z,28415,0.02352307,0.099771194,-0.027270913
1732372922252,2024-11-23T14:42:02.252Z,28436,-0.0065035587,0.10661909,-0.03417939
1732372922258,2024-11-23T14:42:02.258Z,28442,-0.0065035587,0.10661909,-0.03417939
1732372922272,2024-11-23T14:42:02.272Z,28456,-0.039003547,0.09441703,-0.046224684
1732372922275,2024-11-23T14:42:02.275Z,28459,-0.039003547,0.09441703,-0.046224684
1732372922288,2024-11-23T14:42:02.288Z,28472,-9.146178E-4,0.13005821,0.004967779
1732372922291,2024-11-23T14:42:02.291Z,28475,-9.146178E-4,0.13005821,0.004967779
1732372922303,2024-11-23T14:42:02.303Z,28487,0.009308592,0.10368561,-0.031701416
1732372922307,2024-11-23T14:42:02.307Z,28491,0.009308592,0.10368561,-0.031701416
1732372922319,2024-11-23T14:42:02.319Z,28503,-0.0013542951,0.08121575,-0.040165663
1732372922322,2024-11-23T14:42:02.322Z,28506,-0.0013542951,0.08121575,-0.040165663
1732372922356,2024-11-23T14:42:02.356Z,28540,-0.028614042,0.20971645,-0.025123509
1732372922363,2024-11-23T14:42:02.363Z,28547,-0.028614042,0.20971645,-0.025123509
1732372922385,2024-11-23T14:42:02.385Z,28569,-0.015600955,0.18765385,-0.030109819
1732372922391,2024-11-23T14:42:02.391Z,28575,-0.015600955,0.18765385,-0.030109819
1732372922408,2024-11-23T14:42:02.408Z,28592,-0.0025674656,0.17244042,-0.025933413
1732372922415,2024-11-23T14:42:02.415Z,28599,-0.0025674656,0.17244042,-0.025933413
1732372922429,2024-11-23T14:42:02.429Z,28613,-0.039103314,0.16790897,-0.018537609
1732372922433,2024-11-23T14:42:02.433Z,28617,-0.039103314,0.16790897,-0.018537609
1732372922446,2024-11-23T14:42:02.446Z,28630,0.0017066492,0.17322639,-0.032308847
1732372922450,2024-11-23T14:42:02.450Z,28634,0.0017066492,0.17322639,-0.032308847
1732372922537,2024-11-23T14:42:02.537Z,28721,-0.014164901,0.14876275,-0.027425047
1732372922543,2024-11-23T14:42:02.543Z,28727,-0.014164901,0.14876275,-0.027425047
1732372922567,2024-11-23T14:42:02.567Z,28751,-0.024237948,0.02499305,-0.010795323
1732372922574,2024-11-23T14:42:02.574Z,28758,-0.024237948,0.02499305,-0.010795323
1732372922593,2024-11-23T14:42:02.593Z,28777,0.005744711,-0.006258377,-0.01470232
1732372922599,2024-11-23T14:42:02.599Z,28783,0.005744711,-0.006258377,-0.01470232
1732372922619,2024-11-23T14:42:02.619Z,28803,-0.022361984,-0.03219872,-0.009586333
1732372922627,2024-11-23T14:42:02.627Z,28811,-0.022361984,-0.03219872,-0.009586333
1732372922647,2024-11-23T14:42:02.647Z,28831,-0.015655888,-0.033645377,0.039178636
1732372922653,2024-11-23T14:42:02.653Z,28837,-0.015655888,-0.033645377,0.039178636
1732372922669,2024-11-23T14:42:02.669Z,28853,0.012479097,-0.034605112,0.053751577
1732372922673,2024-11-23T14:42:02.673Z,28857,0.012479097,-0.034605112,0.053751577
1732372922687,2024-11-23T14:42:02.687Z,28871,-0.020816265,0.030203389,-0.012069468
1732372922691,2024-11-23T14:42:02.691Z,28875,-0.020816265,0.030203389,-0.012069468
1732372922713,2024-11-23T14:42:02.713Z,28897,-0.02225245,0.031617567,-0.018264595
1732372922717,2024-11-23T14:42:02.717Z,28901,-0.02225245,0.031617567,-0.018264595
1732372922729,2024-11-23T14:42:02.729Z,28913,-0.02005115,0.009053471,0.025487928
1732372922733,2024-11-23T14:42:02.733Z,28917,-0.02005115,0.009053471,0.025487928
1732372922744,2024-11-23T14:42:02.744Z,28928,-0.024285015,-0.008098012,0.018208625
1732372922747,2024-11-23T14:42:02.747Z,28931,-0.024285015,-0.008098012,0.018208625
1732372922807,2024-11-23T14:42:02.807Z,28991,-0.056485843,-0.028134055,-0.0010701139
1732372922813,2024-11-23T14:42:02.813Z,28997,-0.056485843,-0.028134055,-0.0010701139
1732372922850,2024-11-23T14:42:02.850Z,29034,-0.01403658,-0.02133041,0.0038526384
1732372922855,2024-11-23T14:42:02.855Z,29039,-0.01403658,-0.02133041,0.0038526384
1732372922873,2024-11-23T14:42:02.873Z,29057,-0.049383108,-0.018023308,-0.0058627427
1732372922876,2024-11-23T14:42:02.876Z,29060,-0.049383108,-0.018023308,-0.0058627427
1732372922888,2024-11-23T14:42:02.888Z,29072,-0.04681551,-0.031227214,-0.0051340167
1732372922892,2024-11-23T14:42:02.892Z,29076,-0.04681551,-0.031227214,-0.0051340167
1732372922988,2024-11-23T14:42:02.988Z,29172,0.011211288,0.001946802,-0.0108812535
1732372922994,2024-11-23T14:42:02.994Z,29178,0.011211288,0.001946802,-0.0108812535
1732372923016,2024-11-23T14:42:03.016Z,29200,-0.013331308,0.015998805,0.0053608106
1732372923021,2024-11-23T14:42:03.021Z,29205,-0.013331308,0.015998805,0.0053608106
1732372923034,2024-11-23T14:42:03.034Z,29218,-0.008220753,0.050724115,0.010952147
1732372923038,2024-11-23T14:42:03.038Z,29222,-0.008220753,0.050724115,0.010952147
1732372923050,2024-11-23T14:42:03.050Z,29234,0.012241573,0.05452514,0.0077763465
1732372923054,2024-11-23T14:42:03.054Z,29238,0.012241573,0.05452514,0.0077763465
1732372923071,2024-11-23T14:42:03.071Z,29255,-0.009408038,0.05459302,0.012001961
1732372923074,2024-11-23T14:42:03.074Z,29258,-0.009408038,0.05459302,0.012001961
1732372923084,2024-11-23T14:42:03.084Z,29268,0.003460974,0.06788221,-0.0062444825
1732372923088,2024-11-23T14:42:03.088Z,29272,0.003460974,0.06788221,-0.0062444825
1732372923097,2024-11-23T14:42:03.097Z,29281,-0.01774489,-0.012222677,-0.0073748506
1732372923099,2024-11-23T14:42:03.099Z,29283,-0.01774489,-0.012222677,-0.0073748506
1732372923120,2024-11-23T14:42:03.120Z,29304,-0.0046926336,-0.018889494,0.011869494
1732372923126,2024-11-23T14:42:03.126Z,29310,-0.0046926336,-0.018889494,0.011869494
1732372923148,2024-11-23T14:42:03.148Z,29332,0.0030954874,-0.04656182,-0.0063706613
1732372923153,2024-11-23T14:42:03.153Z,29337,0.0030954874,-0.04656182,-0.0063706613
1732372923171,2024-11-23T14:42:03.171Z,29355,0.03947702,0.0060510444,0.013144254
1732372923174,2024-11-23T14:42:03.174Z,29358,0.03947702,0.0060510444,0.013144254
1732372923184,2024-11-23T14:42:03.184Z,29368,0.07096984,-0.030955601,0.011816591
1732372923188,2024-11-23T14:42:03.188Z,29372,0.07096984,-0.030955601,0.011816591
1732372923208,2024-11-23T14:42:03.208Z,29392,0.03547986,-0.020006383,0.039318085
1732372923211,2024-11-23T14:42:03.211Z,29395,0.03547986,-0.020006383,0.039318085
1732372923223,2024-11-23T14:42:03.223Z,29407,0.046357613,-0.020942101,0.03714558
1732372923226,2024-11-23T14:42:03.226Z,29410,0.046357613,-0.020942101,0.03714558
1732372923236,2024-11-23T14:42:03.236Z,29420,0.020106187,-0.022880735,0.056735933
1732372923238,2024-11-23T14:42:03.238Z,29422,0.020106187,-0.022880735,0.056735933
1732372923252,2024-11-23T14:42:03.252Z,29436,0.042490497,0.027444862,0.03051546
1732372923254,2024-11-23T14:42:03.254Z,29438,0.042490497,0.027444862,0.03051546
1732372923302,2024-11-23T14:42:03.302Z,29486,0.014429425,0.058695123,0.06819257
1732372923307,2024-11-23T14:42:03.307Z,29491,0.014429425,0.058695123,0.06819257
1732372923323,2024-11-23T14:42:03.323Z,29507,0.0016434013,0.055752017,0.02723202
1732372923327,2024-11-23T14:42:03.327Z,29511,0.0016434013,0.055752017,0.02723202
1732372923339,2024-11-23T14:42:03.339Z,29523,0.028846072,0.041578162,0.013716549
1732372923343,2024-11-23T14:42:03.343Z,29527,0.028846072,0.041578162,0.013716549
1732372923354,2024-11-23T14:42:03.354Z,29538,-0.021276105,0.061524738,0.046312
1732372923358,2024-11-23T14:42:03.358Z,29542,-0.021276105,0.061524738,0.046312
1732372923369,2024-11-23T14:42:03.369Z,29553,-0.017546332,0.08395084,0.06971326
1732372923372,2024-11-23T14:42:03.372Z,29556,-0.017546332,0.08395084,0.06971326
1732372923381,2024-11-23T14:42:03.381Z,29565,0.020489769,0.085868955,0.040278643
1732372923384,2024-11-23T14:42:03.384Z,29568,0.020489769,0.085868955,0.040278643
1732372923392,2024-11-23T14:42:03.392Z,29576,-0.011131666,0.07802388,0.044654097
1732372923394,2024-11-23T14:42:03.394Z,29578,-0.011131666,0.07802388,0.044654097
1732372923485,2024-11-23T14:42:03.485Z,29669,-0.041499868,0.07111103,-0.020892559
1732372923491,2024-11-23T14:42:03.491Z,29675,-0.041499868,0.07111103,-0.020892559
1732372923509,2024-11-23T14:42:03.509Z,29693,-0.036429666,0.085102156,0.025234876
1732372923513,2024-11-23T14:42:03.513Z,29697,-0.036429666,0.085102156,0.025234876
1732372923525,2024-11-23T14:42:03.525Z,29709,-0.06110881,0.09535177,0.008396745
1732372923529,2024-11-23T14:42:03.529Z,29713,-0.06110881,0.09535177,0.008396745
1732372923540,2024-11-23T14:42:03.540Z,29724,-0.048168644,0.04932696,0.015563339
1732372923544,2024-11-23T14:42:03.544Z,29728,-0.048168644,0.04932696,0.015563339
1732372923557,2024-11-23T14:42:03.557Z,29741,-0.042072162,0.09810797,-6.462631E-4
1732372923563,2024-11-23T14:42:03.563Z,29747,-0.042072162,0.09810797,-6.462631E-4
1732372923583,2024-11-23T14:42:03.583Z,29767,-0.021003814,0.09269613,-0.03083241
1732372923589,2024-11-23T14:42:03.589Z,29773,-0.021003814,0.09269613,-0.03083241
1732372923612,2024-11-23T14:42:03.612Z,29796,-0.027402267,0.051074985,-0.056242667
1732372923616,2024-11-23T14:42:03.616Z,29800,-0.027402267,0.051074985,-0.056242667
1732372923627,2024-11-23T14:42:03.627Z,29811,-0.026940817,0.038520403,0.032013472
1732372923630,2024-11-23T14:42:03.630Z,29814,-0.026940817,0.038520403,0.032013472
1732372923642,2024-11-23T14:42:03.642Z,29826,7.395142E-4,0.015537656,0.00828284
1732372923645,2024-11-23T14:42:03.645Z,29829,7.395142E-4,0.015537656,0.00828284
1732372923796,2024-11-23T14:42:03.796Z,29980,0.00833777,0.048700877,0.008687495
1732372923802,2024-11-23T14:42:03.802Z,29986,0.00833777,0.048700877,0.008687495
1732372923839,2024-11-23T14:42:03.839Z,30023,-0.0124191865,0.02614923,0.020318687
1732372923845,2024-11-23T14:42:03.845Z,30029,-0.0124191865,0.02614923,0.020318687
1732372923884,2024-11-23T14:42:03.884Z,30068,0.04019631,0.07443467,0.023618013
1732372923890,2024-11-23T14:42:03.890Z,30074,0.04019631,0.07443467,0.023618013
1732372923977,2024-11-23T14:42:03.977Z,30161,0.033861797,0.0724335,0.019479334
1732372923984,2024-11-23T14:42:03.984Z,30168,0.033861797,0.0724335,0.019479334
1732372924009,2024-11-23T14:42:04.009Z,30193,0.024119487,0.06718378,0.04254493
1732372924016,2024-11-23T14:42:04.016Z,30200,0.024119487,0.06718378,0.04254493
1732372924033,2024-11-23T14:42:04.033Z,30217,0.00355379,0.04566743,0.0069682016
1732372924037,2024-11-23T14:42:04.037Z,30221,0.00355379,0.04566743,0.0069682016
1732372924049,2024-11-23T14:42:04.049Z,30233,-0.006532117,0.027577506,-0.022653818
1732372924054,2024-11-23T14:42:04.054Z,30238,-0.006532117,0.027577506,-0.022653818
1732372924074,2024-11-23T14:42:04.074Z,30258,-0.030156985,-0.067575105,-0.003019271
1732372924083,2024-11-23T14:42:04.083Z,30267,-0.030156985,-0.067575105,-0.003019271
1732372924111,2024-11-23T14:42:04.111Z,30295,-0.021235654,0.01455876,-0.0025995348
1732372924118,2024-11-23T14:42:04.118Z,30302,-0.021235654,0.01455876,-0.0025995348
1732372924141,2024-11-23T14:42:04.141Z,30325,-0.046462122,-0.034587026,-0.012488992
1732372924148,2024-11-23T14:42:04.148Z,30332,-0.046462122,-0.034587026,-0.012488992
1732372924167,2024-11-23T14:42:04.167Z,30351,0.041979197,-0.02917587,-0.014313784
1732372924171,2024-11-23T14:42:04.171Z,30355,0.041979197,-0.02917587,-0.014313784
1732372924198,2024-11-23T14:42:04.198Z,30382,-0.0062098955,0.017220236,0.044675678
1732372924202,2024-11-23T14:42:04.202Z,30386,-0.0062098955,0.017220236,0.044675678
1732372924214,2024-11-23T14:42:04.214Z,30398,-0.023176366,-0.035003927,0.046733048
1732372924218,2024-11-23T14:42:04.218Z,30402,-0.023176366,-0.035003927,0.046733048
1732372924229,2024-11-23T14:42:04.229Z,30413,-0.05558237,-0.03937278,0.0064317877
1732372924233,2024-11-23T14:42:04.233Z,30417,-0.05558237,-0.03937278,0.0064317877
1732372924246,2024-11-23T14:42:04.246Z,30430,-0.028483309,-0.019345002,-3.3551373E-4
1732372924249,2024-11-23T14:42:04.249Z,30433,-0.028483309,-0.019345002,-3.3551373E-4
1732372924260,2024-11-23T14:42:04.260Z,30444,0.04333907,-0.0047488976,-0.04048556
1732372924262,2024-11-23T14:42:04.262Z,30446,0.04333907,-0.0047488976,-0.04048556
1732372924271,2024-11-23T14:42:04.271Z,30455,0.037452705,0.012705219,-0.05663877
1732372924274,2024-11-23T14:42:04.274Z,30458,0.037452705,0.012705219,-0.05663877
1732372924287,2024-11-23T14:42:04.287Z,30471,0.0098759,0.008632388,-0.014170591
1732372924290,2024-11-23T14:42:04.290Z,30474,0.0098759,0.008632388,-0.014170591
1732372924298,2024-11-23T14:42:04.298Z,30482,0.034344032,-0.02924764,0.029083282
1732372924301,2024-11-23T14:42:04.301Z,30485,0.034344032,-0.02924764,0.029083282
1732372924308,2024-11-23T14:42:04.308Z,30492,-0.0035589382,-0.03714075,-0.02658978
1732372924311,2024-11-23T14:42:04.311Z,30495,-0.0035589382,-0.03714075,-0.02658978
1732372924334,2024-11-23T14:42:04.334Z,30518,-0.07316253,-0.08311694,-0.046162967
1732372924337,2024-11-23T14:42:04.337Z,30521,-0.07316253,-0.08311694,-0.046162967
1732372924382,2024-11-23T14:42:04.382Z,30566,0.014548155,-0.03874495,0.033947643
1732372924386,2024-11-23T14:42:04.386Z,30570,0.014548155,-0.03874495,0.033947643
1732372924397,2024-11-23T14:42:04.397Z,30581,0.0146424,-0.0025825102,0.0885078
1732372924401,2024-11-23T14:42:04.401Z,30585,0.0146424,-0.0025825102,0.0885078
1732372924413,2024-11-23T14:42:04.413Z,30597,0.008889283,0.005785947,0.08280483
1732372924417,2024-11-23T14:42:04.417Z,30601,0.008889283,0.005785947,0.08280483
1732372924430,2024-11-23T14:42:04.430Z,30614,-0.036042184,-0.022445453,1.8998557E-4
1732372924433,2024-11-23T14:42:04.433Z,30617,-0.036042184,-0.022445453,1.8998557E-4
1732372924448,2024-11-23T14:42:04.448Z,30632,0.024967305,0.023851655,0.0073677604
1732372924454,2024-11-23T14:42:04.454Z,30638,0.024967305,0.023851655,0.0073677604
1732372924471,2024-11-23T14:42:04.471Z,30655,-0.02919111,-0.047024716,-0.01574832
1732372924477,2024-11-23T14:42:04.477Z,30661,-0.02919111,-0.047024716,-0.01574832
1732372924494,2024-11-23T14:42:04.494Z,30678,-0.012451508,-0.03299498,0.011873806
1732372924501,2024-11-23T14:42:04.501Z,30685,-0.012451508,-0.03299498,0.011873806
1732372924520,2024-11-23T14:42:04.520Z,30704,-0.016396707,-0.09592058,0.029069068
1732372924527,2024-11-23T14:42:04.527Z,30711,-0.016396707,-0.09592058,0.029069068
1732372924545,2024-11-23T14:42:04.545Z,30729,0.037219834,-0.09998679,0.008014707
1732372924551,2024-11-23T14:42:04.551Z,30735,0.037219834,-0.09998679,0.008014707
1732372924563,2024-11-23T14:42:04.563Z,30747,-0.038901217,-0.17584439,-0.018257286
1732372924567,2024-11-23T14:42:04.567Z,30751,-0.038901217,-0.17584439,-0.018257286
1732372924579,2024-11-23T14:42:04.579Z,30763,-0.030222872,-0.16505815,0.09463444
1732372924582,2024-11-23T14:42:04.582Z,30766,-0.030222872,-0.16505815,0.09463444
1732372924592,2024-11-23T14:42:04.592Z,30776,-0.03678379,-0.1623325,0.10006528
1732372924595,2024-11-23T14:42:04.595Z,30779,-0.03678379,-0.1623325,0.10006528
1732372924604,2024-11-23T14:42:04.604Z,30788,0.011502587,-0.120040245,0.033430696
1732372924607,2024-11-23T14:42:04.607Z,30791,0.011502587,-0.120040245,0.033430696
1732372924615,2024-11-23T14:42:04.615Z,30799,-0.045220766,-0.16335088,-0.025196943
1732372924618,2024-11-23T14:42:04.618Z,30802,-0.045220766,-0.16335088,-0.025196943
1732372924627,2024-11-23T14:42:04.627Z,30811,-0.008880259,-0.16643246,-0.06219137
1732372924629,2024-11-23T14:42:04.629Z,30813,-0.008880259,-0.16643246,-0.06219137
1732372924637,2024-11-23T14:42:04.637Z,30821,0.0044917776,-0.10605009,0.03649577
1732372924639,2024-11-23T14:42:04.639Z,30823,0.0044917776,-0.10605009,0.03649577
1732372924647,2024-11-23T14:42:04.647Z,30831,-0.032316316,-0.12462878,0.0037839694
1732372924649,2024-11-23T14:42:04.649Z,30833,-0.032316316,-0.12462878,0.0037839694
1732372924657,2024-11-23T14:42:04.657Z,30841,-0.055739723,-0.13012591,-0.02730587
1732372924660,2024-11-23T14:42:04.660Z,30844,-0.055739723,-0.13012591,-0.02730587
1732372924670,2024-11-23T14:42:04.670Z,30854,-0.029947018,-0.121922374,-0.054143284
1732372924673,2024-11-23T14:42:04.673Z,30857,-0.029947018,-0.121922374,-0.054143284
1732372924699,2024-11-23T14:42:04.699Z,30883,-6.676876E-4,-0.066395685,0.031194653
1732372924705,2024-11-23T14:42:04.705Z,30889,-6.676876E-4,-0.066395685,0.031194653
1732372924721,2024-11-23T14:42:04.721Z,30905,0.04918323,-0.10246972,-0.04855718
1732372924725,2024-11-23T14:42:04.725Z,30909,0.04918323,-0.10246972,-0.04855718
1732372924739,2024-11-23T14:42:04.739Z,30923,-0.01808712,-0.09601111,-4.920734E-4
1732372924741,2024-11-23T14:42:04.741Z,30925,-0.01808712,-0.09601111,-4.920734E-4
1732372924749,2024-11-23T14:42:04.749Z,30933,0.046810754,-0.052470297,0.024635611
1732372924752,2024-11-23T14:42:04.752Z,30936,0.046810754,-0.052470297,0.024635611
1732372924785,2024-11-23T14:42:04.785Z,30969,-0.0010138196,-0.05435729,0.0023369477
1732372924789,2024-11-23T14:42:04.789Z,30973,-0.0010138196,-0.05435729,0.0023369477
1732372924800,2024-11-23T14:42:04.800Z,30984,0.013663459,-0.06713768,-0.058646474
1732372924803,2024-11-23T14:42:04.803Z,30987,0.013663459,-0.06713768,-0.058646474
1732372924813,2024-11-23T14:42:04.813Z,30997,-0.014544174,-0.08877209,-0.011125236
1732372924816,2024-11-23T14:42:04.816Z,31000,-0.014544174,-0.08877209,-0.011125236
1732372924830,2024-11-23T14:42:04.830Z,31014,-0.016492179,-0.12603061,-0.007660652
1732372924833,2024-11-23T14:42:04.833Z,31017,-0.016492179,-0.12603061,-0.007660652
1732372924843,2024-11-23T14:42:04.843Z,31027,-0.050079327,-0.101817675,0.018407552
1732372924846,2024-11-23T14:42:04.846Z,31030,-0.050079327,-0.101817675,0.018407552
1732372924856,2024-11-23T14:42:04.856Z,31040,-0.025368037,-0.128829,-0.022530058
1732372924859,2024-11-23T14:42:04.859Z,31043,-0.025368037,-0.128829,-0.022530058
1732372924922,2024-11-23T14:42:04.922Z,31106,0.015918046,-0.08726193,0.02016297
1732372924927,2024-11-23T14:42:04.927Z,31111,0.015918046,-0.08726193,0.02016297
1732372924944,2024-11-23T14:42:04.944Z,31128,0.047092028,-0.10373667,-0.024701867
1732372924948,2024-11-23T14:42:04.948Z,31132,0.047092028,-0.10373667,-0.024701867
1732372924959,2024-11-23T14:42:04.959Z,31143,1.564108E-4,-0.13967445,-0.086286865
1732372924963,2024-11-23T14:42:04.963Z,31147,1.564108E-4,-0.13967445,-0.086286865
1732372924974,2024-11-23T14:42:04.974Z,31158,-0.007908962,-0.07413213,0.03701893
1732372924978,2024-11-23T14:42:04.978Z,31162,-0.007908962,-0.07413213,0.03701893
1732372924989,2024-11-23T14:42:04.989Z,31173,0.0101008015,-0.058367107,0.0808326
1732372924992,2024-11-23T14:42:04.992Z,31176,0.0101008015,-0.058367107,0.0808326
1732372925001,2024-11-23T14:42:05.001Z,31185,0.06695136,-0.046048835,0.031051602
1732372925005,2024-11-23T14:42:05.005Z,31189,0.06695136,-0.046048835,0.031051602
1732372925013,2024-11-23T14:42:05.013Z,31197,0.043881565,-0.09405565,-0.01774544
1732372925016,2024-11-23T14:42:05.016Z,31200,0.043881565,-0.09405565,-0.01774544
1732372925024,2024-11-23T14:42:05.024Z,31208,0.013115222,-0.085631184,-0.012309464
1732372925026,2024-11-23T14:42:05.026Z,31210,0.013115222,-0.085631184,-0.012309464
1732372925051,2024-11-23T14:42:05.051Z,31235,9.5062074E-4,-0.099678226,-0.041444328
1732372925054,2024-11-23T14:42:05.054Z,31238,9.5062074E-4,-0.099678226,-0.041444328
1732372925062,2024-11-23T14:42:05.062Z,31246,-0.0018447405,-0.11953942,-0.051683817
1732372925064,2024-11-23T14:42:05.064Z,31248,-0.0018447405,-0.11953942,-0.051683817
1732372925072,2024-11-23T14:42:05.072Z,31256,0.036618195,-0.13802698,-0.009389729
1732372925074,2024-11-23T14:42:05.074Z,31258,0.036618195,-0.13802698,-0.009389729
1732372925142,2024-11-23T14:42:05.142Z,31326,0.043438815,-0.12914069,0.06482327
1732372925145,2024-11-23T14:42:05.145Z,31329,0.043438815,-0.12914069,0.06482327
1732372925152,2024-11-23T14:42:05.152Z,31336,0.005848994,-0.11261217,0.009285923
1732372925154,2024-11-23T14:42:05.154Z,31338,0.005848994,-0.11261217,0.009285923
1732372925162,2024-11-23T14:42:05.162Z,31346,-0.03142359,-0.16086698,-0.016326336
1732372925164,2024-11-23T14:42:05.164Z,31348,-0.03142359,-0.16086698,-0.016326336
1732372925174,2024-11-23T14:42:05.174Z,31358,-0.01759368,-0.1710386,-0.046070624
1732372925176,2024-11-23T14:42:05.176Z,31360,-0.01759368,-0.1710386,-0.046070624
1732372925187,2024-11-23T14:42:05.187Z,31371,0.0071199248,-0.12246745,0.08430793
1732372925191,2024-11-23T14:42:05.191Z,31375,0.0071199248,-0.12246745,0.08430793
1732372925201,2024-11-23T14:42:05.201Z,31385,0.02843046,-0.10424002,0.051127464
1732372925205,2024-11-23T14:42:05.205Z,31389,0.02843046,-0.10424002,0.051127464
1732372925213,2024-11-23T14:42:05.213Z,31397,-0.008699495,-0.09041334,0.048957434
1732372925216,2024-11-23T14:42:05.216Z,31400,-0.008699495,-0.09041334,0.048957434
1732372925233,2024-11-23T14:42:05.233Z,31417,0.06153029,-0.043578256,0.02764851
1732372925235,2024-11-23T14:42:05.235Z,31419,0.06153029,-0.043578256,0.02764851
1732372925243,2024-11-23T14:42:05.243Z,31427,0.055932455,-0.068522975,0.017833143
1732372925245,2024-11-23T14:42:05.245Z,31429,0.055932455,-0.068522975,0.017833143
1732372925322,2024-11-23T14:42:05.322Z,31506,-0.030862276,-0.08417937,0.062885165
1732372925325,2024-11-23T14:42:05.325Z,31509,-0.030862276,-0.08417937,0.062885165
1732372925333,2024-11-23T14:42:05.333Z,31517,-0.028862884,-0.08082822,0.030285323
1732372925335,2024-11-23T14:42:05.335Z,31519,-0.028862884,-0.08082822,0.030285323
1732372925343,2024-11-23T14:42:05.343Z,31527,0.006612553,-0.080365606,0.038287252
1732372925346,2024-11-23T14:42:05.346Z,31530,0.006612553,-0.080365606,0.038287252
1732372925419,2024-11-23T14:42:05.419Z,31603,0.01330336,-0.095011406,-0.0049496596
1732372925426,2024-11-23T14:42:05.426Z,31610,0.01330336,-0.095011406,-0.0049496596
1732372925448,2024-11-23T14:42:05.448Z,31632,-0.012876843,-0.047149483,0.013059703
1732372925455,2024-11-23T14:42:05.455Z,31639,-0.012876843,-0.047149483,0.013059703
1732372925473,2024-11-23T14:42:05.473Z,31657,-0.033692423,-0.06280462,0.019435165
1732372925477,2024-11-23T14:42:05.477Z,31661,-0.033692423,-0.06280462,0.019435165
1732372925488,2024-11-23T14:42:05.488Z,31672,-0.04021456,-0.061862968,0.015307161
1732372925492,2024-11-23T14:42:05.492Z,31676,-0.04021456,-0.061862968,0.015307161
1732372925503,2024-11-23T14:42:05.503Z,31687,-0.0252052,-0.075529575,-0.012636216
1732372925507,2024-11-23T14:42:05.507Z,31691,-0.0252052,-0.075529575,-0.012636216
1732372925524,2024-11-23T14:42:05.524Z,31708,-0.014225366,-0.0969833,-0.027054934
1732372925527,2024-11-23T14:42:05.527Z,31711,-0.014225366,-0.0969833,-0.027054934
1732372925537,2024-11-23T14:42:05.537Z,31721,-0.015735526,-0.049119335,0.009274125
1732372925540,2024-11-23T14:42:05.540Z,31724,-0.015735526,-0.049119335,0.009274125
1732372925548,2024-11-23T14:42:05.548Z,31732,-0.02694357,-0.109621316,0.011680517
1732372925551,2024-11-23T14:42:05.551Z,31735,-0.02694357,-0.109621316,0.011680517
1732372925559,2024-11-23T14:42:05.559Z,31743,0.0128598185,-0.06999978,0.024015816
1732372925562,2024-11-23T14:42:05.562Z,31746,0.0128598185,-0.06999978,0.024015816
1732372925569,2024-11-23T14:42:05.569Z,31753,0.010912154,-0.049900915,0.029631047
1732372925572,2024-11-23T14:42:05.572Z,31756,0.010912154,-0.049900915,0.029631047
1732372925579,2024-11-23T14:42:05.579Z,31763,0.0071410458,-0.045433547,0.0365251
1732372925581,2024-11-23T14:42:05.581Z,31765,0.0071410458,-0.045433547,0.0365251
1732372925592,2024-11-23T14:42:05.592Z,31776,0.013672889,-0.055078674,0.09163713
1732372925595,2024-11-23T14:42:05.595Z,31779,0.013672889,-0.055078674,0.09163713
1732372925602,2024-11-23T14:42:05.602Z,31786,-0.014731874,-0.069676235,0.05899411
1732372925604,2024-11-23T14:42:05.604Z,31788,-0.014731874,-0.069676235,0.05899411
1732372925612,2024-11-23T14:42:05.612Z,31796,-0.0025697162,-0.049126238,0.028053848
1732372925613,2024-11-23T14:42:05.613Z,31797,-0.0025697162,-0.049126238,0.028053848
1732372925638,2024-11-23T14:42:05.638Z,31822,2.0109004E-4,-0.11596897,0.0043863948
1732372925640,2024-11-23T14:42:05.640Z,31824,2.0109004E-4,-0.11596897,0.0043863948
1732372925649,2024-11-23T14:42:05.649Z,31833,0.039645582,-0.0734582,0.03361583
1732372925652,2024-11-23T14:42:05.652Z,31836,0.039645582,-0.0734582,0.03361583
1732372925661,2024-11-23T14:42:05.661Z,31845,0.04048075,-0.041200355,0.046634644
1732372925663,2024-11-23T14:42:05.663Z,31847,0.04048075,-0.041200355,0.046634644
1732372925868,2024-11-23T14:42:05.868Z,32052,-0.01337784,-0.05479364,0.03196409
1732372925874,2024-11-23T14:42:05.874Z,32058,-0.01337784,-0.05479364,0.03196409
1732372925893,2024-11-23T14:42:05.893Z,32077,0.0027917083,-0.027174512,0.028102364
1732372925898,2024-11-23T14:42:05.898Z,32082,0.0027917083,-0.027174512,0.028102364
1732372925911,2024-11-23T14:42:05.911Z,32095,-0.02187711,-0.037811663,0.01571879
1732372925915,2024-11-23T14:42:05.915Z,32099,-0.02187711,-0.037811663,0.01571879
1732372925926,2024-11-23T14:42:05.926Z,32110,-0.01673141,-0.023546979,0.027767094
1732372925930,2024-11-23T14:42:05.930Z,32114,-0.01673141,-0.023546979,0.027767094
1732372925941,2024-11-23T14:42:05.941Z,32125,-0.031929933,-0.03690687,0.009641053
1732372925945,2024-11-23T14:42:05.945Z,32129,-0.031929933,-0.03690687,0.009641053
1732372926000,2024-11-23T14:42:06Z,32184,-0.015772972,-0.02750282,0.011480897
1732372926003,2024-11-23T14:42:06.003Z,32187,-0.015772972,-0.02750282,0.011480897
1732372926014,2024-11-23T14:42:06.014Z,32198,0.001716027,4.522991E-4,0.025290847
1732372926018,2024-11-23T14:42:06.018Z,32202,0.001716027,4.522991E-4,0.025290847
1732372926048,2024-11-23T14:42:06.048Z,32232,0.005760128,0.06835474,0.031849474
1732372926056,2024-11-23T14:42:06.056Z,32240,0.005760128,0.06835474,0.031849474
1732372926079,2024-11-23T14:42:06.079Z,32263,0.007602723,0.052258782,0.02506387
1732372926085,2024-11-23T14:42:06.085Z,32269,0.007602723,0.052258782,0.02506387
1732372926104,2024-11-23T14:42:06.104Z,32288,-0.017362924,0.10699019,-0.009875476
1732372926110,2024-11-23T14:42:06.110Z,32294,-0.017362924,0.10699019,-0.009875476
1732372926123,2024-11-23T14:42:06.123Z,32307,-0.014592117,0.07722276,-0.013363957
1732372926126,2024-11-23T14:42:06.126Z,32310,-0.014592117,0.07722276,-0.013363957
1732372926138,2024-11-23T14:42:06.138Z,32322,-0.032443162,0.115438096,-0.038470533
1732372926142,2024-11-23T14:42:06.142Z,32326,-0.032443162,0.115438096,-0.038470533
1732372926153,2024-11-23T14:42:06.153Z,32337,0.023510236,0.1256107,-0.041577037
1732372926156,2024-11-23T14:42:06.156Z,32340,0.023510236,0.1256107,-0.041577037
1732372926165,2024-11-23T14:42:06.165Z,32349,-0.011986805,0.13221653,0.030782487
1732372926167,2024-11-23T14:42:06.167Z,32351,-0.011986805,0.13221653,0.030782487
1732372926176,2024-11-23T14:42:06.176Z,32360,-0.035013042,0.14238222,0.04767018
1732372926179,2024-11-23T14:42:06.179Z,32363,-0.035013042,0.14238222,0.04767018
1732372926186,2024-11-23T14:42:06.186Z,32370,-0.0140323285,0.1330199,0.011516063
1732372926189,2024-11-23T14:42:06.189Z,32373,-0.0140323285,0.1330199,0.011516063
1732372926196,2024-11-23T14:42:06.196Z,32380,-0.00603317,0.1406132,-0.035630167
1732372926198,2024-11-23T14:42:06.198Z,32382,-0.00603317,0.1406132,-0.035630167
1732372926206,2024-11-23T14:42:06.206Z,32390,-0.020054972,0.15130314,-0.026892154
1732372926208,2024-11-23T14:42:06.208Z,32392,-0.020054972,0.15130314,-0.026892154
1732372926223,2024-11-23T14:42:06.223Z,32407,0.019227948,0.1497467,-0.034476545
1732372926225,2024-11-23T14:42:06.225Z,32409,0.019227948,0.1497467,-0.034476545
1732372926232,2024-11-23T14:42:06.232Z,32416,0.007751085,0.15313831,-0.025186803
1732372926234,2024-11-23T14:42:06.234Z,32418,0.007751085,0.15313831,-0.025186803
1732372926363,2024-11-23T14:42:06.363Z,32547,-0.02066349,0.1804617,-0.033370737
1732372926369,2024-11-23T14:42:06.369Z,32553,-0.02066349,0.1804617,-0.033370737
1732372926389,2024-11-23T14:42:06.389Z,32573,-0.014050926,0.15413763,5.145377E-4
1732372926394,2024-11-23T14:42:06.394Z,32578,-0.014050926,0.15413763,5.145377E-4
1732372926411,2024-11-23T14:42:06.411Z,32595,-0.015507008,0.12533899,-0.0017625054
1732372926415,2024-11-23T14:42:06.415Z,32599,-0.015507008,0.12533899,-0.0017625054
1732372926427,2024-11-23T14:42:06.427Z,32611,-0.022390896,0.08919735,-0.053169366
1732372926430,2024-11-23T14:42:06.430Z,32614,-0.022390896,0.08919735,-0.053169366
1732372926441,2024-11-23T14:42:06.441Z,32625,-0.031164942,0.095501244,-0.007969407
1732372926444,2024-11-23T14:42:06.444Z,32628,-0.031164942,0.095501244,-0.007969407
1732372926454,2024-11-23T14:42:06.454Z,32638,-0.037926786,0.07057257,0.032638308
1732372926459,2024-11-23T14:42:06.459Z,32643,-0.037926786,0.07057257,0.032638308
1732372926467,2024-11-23T14:42:06.467Z,32651,-0.062519304,0.045638353,0.018490225
1732372926470,2024-11-23T14:42:06.470Z,32654,-0.062519304,0.045638353,0.018490225
1732372926480,2024-11-23T14:42:06.480Z,32664,-0.03151086,-0.0025155067,0.03674996
1732372926482,2024-11-23T14:42:06.482Z,32666,-0.03151086,-0.0025155067,0.03674996
1732372926492,2024-11-23T14:42:06.492Z,32676,-0.04325122,-0.045994084,0.0012603669
1732372926494,2024-11-23T14:42:06.494Z,32678,-0.04325122,-0.045994084,0.0012603669
1732372926507,2024-11-23T14:42:06.507Z,32691,-0.028301155,-0.05480035,-0.015057861
1732372926510,2024-11-23T14:42:06.510Z,32694,-0.028301155,-0.05480035,-0.015057861
1732372926516,2024-11-23T14:42:06.516Z,32700,0.012066209,0.010166666,0.033472713
1732372926518,2024-11-23T14:42:06.518Z,32702,0.012066209,0.010166666,0.033472713
1732372926525,2024-11-23T14:42:06.525Z,32709,0.008225542,-0.012262061,0.01525542
1732372926527,2024-11-23T14:42:06.527Z,32711,0.008225542,-0.012262061,0.01525542
1732372926628,2024-11-23T14:42:06.628Z,32812,0.008112592,-0.01271261,0.0083482545
1732372926630,2024-11-23T14:42:06.630Z,32814,0.008112592,-0.01271261,0.0083482545
1732372926674,2024-11-23T14:42:06.674Z,32858,-0.0140558295,-0.008241938,0.029768912
1732372926677,2024-11-23T14:42:06.677Z,32861,-0.0140558295,-0.008241938,0.029768912
1732372926688,2024-11-23T14:42:06.688Z,32872,-0.02824422,-0.0072671273,0.040423956
1732372926691,2024-11-23T14:42:06.691Z,32875,-0.02824422,-0.0072671273,0.040423956
1732372926701,2024-11-23T14:42:06.701Z,32885,-0.019230098,-0.016561383,0.040622443
1732372926704,2024-11-23T14:42:06.704Z,32888,-0.019230098,-0.016561383,0.040622443
1732372926766,2024-11-23T14:42:06.766Z,32950,-0.009628952,-0.011743731,0.026421044
1732372926771,2024-11-23T14:42:06.771Z,32955,-0.009628952,-0.011743731,0.026421044
1732372926790,2024-11-23T14:42:06.790Z,32974,-0.038235374,-0.022975162,0.012752172
1732372926797,2024-11-23T14:42:06.797Z,32981,-0.038235374,-0.022975162,0.012752172
1732372926816,2024-11-23T14:42:06.816Z,33000,-0.043749966,-0.023464901,0.028442081
1732372926821,2024-11-23T14:42:06.821Z,33005,-0.043749966,-0.023464901,0.028442081
1732372926837,2024-11-23T14:42:06.837Z,33021,0.00282018,0.0314468,-0.016162248
1732372926841,2024-11-23T14:42:06.841Z,33025,0.00282018,0.0314468,-0.016162248
1732372926851,2024-11-23T14:42:06.851Z,33035,-0.018988622,-0.011314383,-0.004706267
1732372926855,2024-11-23T14:42:06.855Z,33039,-0.018988622,-0.011314383,-0.004706267
1732372926865,2024-11-23T14:42:06.865Z,33049,-0.025087407,-0.022459263,0.016364098
1732372926868,2024-11-23T14:42:06.868Z,33052,-0.025087407,-0.022459263,0.016364098
1732372926878,2024-11-23T14:42:06.878Z,33062,-0.012540685,-0.029973593,0.01633489
1732372926881,2024-11-23T14:42:06.881Z,33065,-0.012540685,-0.029973593,0.01633489
1732372926898,2024-11-23T14:42:06.898Z,33082,-0.0031068958,-0.009950581,0.0073078284
1732372926901,2024-11-23T14:42:06.901Z,33085,-0.0031068958,-0.009950581,0.0073078284
1732372926911,2024-11-23T14:42:06.911Z,33095,-0.011657904,-0.010440028,-0.024731098
1732372926913,2024-11-23T14:42:06.913Z,33097,-0.011657904,-0.010440028,-0.024731098
1732372926922,2024-11-23T14:42:06.922Z,33106,0.009068142,0.0072031384,-0.025469061
1732372926925,2024-11-23T14:42:06.925Z,33109,0.009068142,0.0072031384,-0.025469061
1732372926943,2024-11-23T14:42:06.943Z,33127,0.012300559,-0.0019328956,-0.024933219
1732372926945,2024-11-23T14:42:06.945Z,33129,0.012300559,-0.0019328956,-0.024933219
1732372926953,2024-11-23T14:42:06.953Z,33137,-0.03664821,-0.025334392,-0.03765738
1732372926955,2024-11-23T14:42:06.955Z,33139,-0.03664821,-0.025334392,-0.03765738
1732372926993,2024-11-23T14:42:06.993Z,33177,0.008877523,0.01574353,-0.021988062
1732372927000,2024-11-23T14:42:07Z,33184,0.008877523,0.01574353,-0.021988062
1732372927021,2024-11-23T14:42:07.021Z,33205,0.012040786,-0.0016500992,0.051425453
1732372927026,2024-11-23T14:42:07.026Z,33210,0.012040786,-0.0016500992,0.051425453
1732372927044,2024-11-23T14:42:07.044Z,33228,-0.011834389,-0.022129009,0.029498937
1732372927049,2024-11-23T14:42:07.049Z,33233,-0.011834389,-0.022129009,0.029498937
1732372927061,2024-11-23T14:42:07.061Z,33245,-0.040189307,-0.043595567,0.015106049
1732372927065,2024-11-23T14:42:07.065Z,33249,-0.040189307,-0.043595567,0.015106049
1732372927077,2024-11-23T14:42:07.077Z,33261,-0.005445394,-0.02159609,0.028205153
1732372927080,2024-11-23T14:42:07.080Z,33264,-0.005445394,-0.02159609,0.028205153
1732372927091,2024-11-23T14:42:07.091Z,33275,-0.034304887,-0.024999373,0.02021605
1732372927095,2024-11-23T14:42:07.095Z,33279,-0.034304887,-0.024999373,0.02021605
1732372927104,2024-11-23T14:42:07.104Z,33288,-0.017070314,-0.009854889,0.028678056
1732372927107,2024-11-23T14:42:07.107Z,33291,-0.017070314,-0.009854889,0.028678056
1732372927115,2024-11-23T14:42:07.115Z,33299,-0.043526206,-0.041575734,-0.007059871
1732372927118,2024-11-23T14:42:07.118Z,33302,-0.043526206,-0.041575734,-0.007059871
1732372927265,2024-11-23T14:42:07.265Z,33449,-0.0125539,-0.00395876,-0.0046191206
1732372927270,2024-11-23T14:42:07.270Z,33454,-0.0125539,-0.00395876,-0.0046191206
1732372927291,2024-11-23T14:42:07.291Z,33475,-5.000637E-4,0.004368173,-5.1396934E-4
1732372927297,2024-11-23T14:42:07.297Z,33481,-5.000637E-4,0.004368173,-5.1396934E-4
1732372927313,2024-11-23T14:42:07.313Z,33497,-0.006182114,0.019068722,-0.011229663
1732372927317,2024-11-23T14:42:07.317Z,33501,-0.006182114,0.019068722,-0.011229663
1732372927350,2024-11-23T14:42:07.350Z,33534,-0.0022815457,0.014191554,-0.0066758064
1732372927357,2024-11-23T14:42:07.357Z,33541,-0.0022815457,0.014191554,-0.0066758064
1732372927379,2024-11-23T14:42:07.379Z,33563,0.030626236,0.025423082,-0.0013055506
1732372927386,2024-11-23T14:42:07.386Z,33570,0.030626236,0.025423082,-0.0013055506
1732372927405,2024-11-23T14:42:07.405Z,33589,0.0050075245,0.03221418,-0.013866065
1732372927410,2024-11-23T14:42:07.410Z,33594,0.0050075245,0.03221418,-0.013866065
1732372927426,2024-11-23T14:42:07.426Z,33610,-0.01701604,0.045852784,-0.017244486
1732372927429,2024-11-23T14:42:07.429Z,33613,-0.01701604,0.045852784,-0.017244486
1732372927810,2024-11-23T14:42:07.810Z,33994,-0.018186783,0.084403045,0.056728687
1732372927821,2024-11-23T14:42:07.821Z,34005,-0.018186783,0.084403045,0.056728687
1732372927852,2024-11-23T14:42:07.852Z,34036,-0.01730027,0.06382037,0.009096232
1732372927861,2024-11-23T14:42:07.861Z,34045,-0.01730027,0.06382037,0.009096232
1732372927886,2024-11-23T14:42:07.886Z,34070,-0.0113261845,0.0520108,-0.028433679
1732372927894,2024-11-23T14:42:07.894Z,34078,-0.0113261845,0.0520108,-0.028433679
1732372927920,2024-11-23T14:42:07.920Z,34104,-0.040406592,0.034963373,0.056562625
1732372927926,2024-11-23T14:42:07.926Z,34110,-0.040406592,0.034963373,0.056562625
1732372928029,2024-11-23T14:42:08.029Z,34213,-0.058833882,0.0320263,0.01036024
1732372928037,2024-11-23T14:42:08.037Z,34221,-0.058833882,0.0320263,0.01036024
1732372928168,2024-11-23T14:42:08.168Z,34352,-0.061182458,0.0330121,-0.014323981
1732372928177,2024-11-23T14:42:08.177Z,34361,-0.061182458,0.0330121,-0.014323981
1732372928206,2024-11-23T14:42:08.206Z,34390,0.013567065,0.05705494,-0.021025807
1732372928214,2024-11-23T14:42:08.214Z,34398,0.013567065,0.05705494,-0.021025807
1732372928253,2024-11-23T14:42:08.253Z,34437,-0.01848089,0.05364495,-0.015481083
1732372928260,2024-11-23T14:42:08.260Z,34444,-0.01848089,0.05364495,-0.015481083
1732372928297,2024-11-23T14:42:08.297Z,34481,-0.0035912183,0.0077948906,-0.047414567
1732372928303,2024-11-23T14:42:08.303Z,34487,-0.0035912183,0.0077948906,-0.047414567
1732372928435,2024-11-23T14:42:08.435Z,34619,-0.024357053,-0.061443344,0.0048545026
1732372928443,2024-11-23T14:42:08.443Z,34627,-0.024357053,-0.061443344,0.0048545026
1732372928473,2024-11-23T14:42:08.473Z,34657,0.019377045,-0.044968314,0.030543717
1732372928480,2024-11-23T14:42:08.480Z,34664,0.019377045,-0.044968314,0.030543717
1732372928503,2024-11-23T14:42:08.503Z,34687,0.01233315,-0.00504103,0.043327507
1732372928511,2024-11-23T14:42:08.511Z,34695,0.01233315,-0.00504103,0.043327507
1732372928534,2024-11-23T14:42:08.534Z,34718,-0.0646044,-0.120624214,-0.011290751
1732372928540,2024-11-23T14:42:08.540Z,34724,-0.0646044,-0.120624214,-0.011290751
1732372928612,2024-11-23T14:42:08.612Z,34796,-0.021758623,-0.07142164,0.06714776
1732372928618,2024-11-23T14:42:08.618Z,34802,-0.021758623,-0.07142164,0.06714776
1732372928638,2024-11-23T14:42:08.638Z,34822,9.990744E-4,-0.08519075,0.088534385
1732372928644,2024-11-23T14:42:08.644Z,34828,9.990744E-4,-0.08519075,0.088534385
1732372928659,2024-11-23T14:42:08.659Z,34843,0.032140277,-0.113508314,0.05891507
1732372928663,2024-11-23T14:42:08.663Z,34847,0.032140277,-0.113508314,0.05891507
1732372928673,2024-11-23T14:42:08.673Z,34857,0.01708578,-0.14755999,0.005090152
1732372928676,2024-11-23T14:42:08.676Z,34860,0.01708578,-0.14755999,0.005090152
1732372928686,2024-11-23T14:42:08.686Z,34870,-0.038418803,-0.17626382,0.0080727395
1732372928689,2024-11-23T14:42:08.689Z,34873,-0.038418803,-0.17626382,0.0080727395
1732372928698,2024-11-23T14:42:08.698Z,34882,0.0352674,-0.18984865,-0.038370363
1732372928701,2024-11-23T14:42:08.701Z,34885,0.0352674,-0.18984865,-0.038370363
1732372928709,2024-11-23T14:42:08.709Z,34893,-0.013047379,-0.19903806,0.1460854
1732372928712,2024-11-23T14:42:08.712Z,34896,-0.013047379,-0.19903806,0.1460854
1732372928721,2024-11-23T14:42:08.721Z,34905,-0.011908894,-0.048803084,0.020546023
1732372928723,2024-11-23T14:42:08.723Z,34907,-0.011908894,-0.048803084,0.020546023
1732372928745,2024-11-23T14:42:08.745Z,34929,-0.02759203,-0.064673916,-0.022571292
1732372928748,2024-11-23T14:42:08.748Z,34932,-0.02759203,-0.064673916,-0.022571292
1732372928796,2024-11-23T14:42:08.796Z,34980,-0.004315568,-0.03383394,0.087331645
1732372928802,2024-11-23T14:42:08.802Z,34986,-0.004315568,-0.03383394,0.087331645
1732372928820,2024-11-23T14:42:08.820Z,35004,0.026799476,-0.022532878,0.087007314
1732372928826,2024-11-23T14:42:08.826Z,35010,0.026799476,-0.022532878,0.087007314
1732372928845,2024-11-23T14:42:08.845Z,35029,0.02208749,-0.044432383,0.07749766
1732372928850,2024-11-23T14:42:08.850Z,35034,0.02208749,-0.044432383,0.07749766
1732372928863,2024-11-23T14:42:08.863Z,35047,-0.016450929,-0.08928974,-0.012092462
1732372928867,2024-11-23T14:42:08.867Z,35051,-0.016450929,-0.08928974,-0.012092462
1732372928878,2024-11-23T14:42:08.878Z,35062,0.030534403,-0.07824269,-0.038916323
1732372928882,2024-11-23T14:42:08.882Z,35066,0.030534403,-0.07824269,-0.038916323
1732372928923,2024-11-23T14:42:08.923Z,35107,-0.0020732665,-0.06814225,0.026831532
1732372928927,2024-11-23T14:42:08.927Z,35111,-0.0020732665,-0.06814225,0.026831532
1732372928971,2024-11-23T14:42:08.971Z,35155,0.005296919,-0.053324033,0.051611293
1732372928976,2024-11-23T14:42:08.976Z,35160,0.005296919,-0.053324033,0.051611293
1732372928994,2024-11-23T14:42:08.994Z,35178,-0.037464786,-0.13210703,-0.046541214
1732372928999,2024-11-23T14:42:08.999Z,35183,-0.037464786,-0.13210703,-0.046541214
1732372929109,2024-11-23T14:42:09.109Z,35293,-0.029902134,-0.1155792,0.030848421
1732372929115,2024-11-23T14:42:09.115Z,35299,-0.029902134,-0.1155792,0.030848421
1732372929134,2024-11-23T14:42:09.134Z,35318,0.004967863,-0.09380048,0.06812783
1732372929139,2024-11-23T14:42:09.139Z,35323,0.004967863,-0.09380048,0.06812783
1732372929157,2024-11-23T14:42:09.157Z,35341,-0.010029382,-0.09794858,0.035139732
1732372929162,2024-11-23T14:42:09.162Z,35346,-0.010029382,-0.09794858,0.035139732
1732372929178,2024-11-23T14:42:09.178Z,35362,-0.022121016,-0.080585584,-0.027536917
1732372929182,2024-11-23T14:42:09.182Z,35366,-0.022121016,-0.080585584,-0.027536917
1732372929193,2024-11-23T14:42:09.193Z,35377,0.016329264,-0.051078875,-0.020446904
1732372929197,2024-11-23T14:42:09.197Z,35381,0.016329264,-0.051078875,-0.020446904
1732372929240,2024-11-23T14:42:09.240Z,35424,-0.0105465995,-0.06564542,-0.02636321
1732372929244,2024-11-23T14:42:09.244Z,35428,-0.0105465995,-0.06564542,-0.02636321
1732372929255,2024-11-23T14:42:09.255Z,35439,0.011313192,-0.0794648,8.52826E-4
1732372929258,2024-11-23T14:42:09.258Z,35442,0.011313192,-0.0794648,8.52826E-4
1732372929269,2024-11-23T14:42:09.269Z,35453,0.0145951435,-0.07612114,0.013092509
1732372929272,2024-11-23T14:42:09.272Z,35456,0.0145951435,-0.07612114,0.013092509
1732372929330,2024-11-23T14:42:09.330Z,35514,-0.0020472163,-0.08017782,0.01957041
1732372929335,2024-11-23T14:42:09.335Z,35519,-0.0020472163,-0.08017782,0.01957041
1732372929353,2024-11-23T14:42:09.353Z,35537,0.014538655,-0.14890064,-0.045018993
1732372929358,2024-11-23T14:42:09.358Z,35542,0.014538655,-0.14890064,-0.045018993
1732372929376,2024-11-23T14:42:09.376Z,35560,0.0078631705,-0.17040883,-0.018034419
1732372929381,2024-11-23T14:42:09.381Z,35565,0.0078631705,-0.17040883,-0.018034419
1732372929394,2024-11-23T14:42:09.394Z,35578,-0.031109355,-0.1619894,-0.035083413
1732372929397,2024-11-23T14:42:09.397Z,35581,-0.031109355,-0.1619894,-0.035083413
1732372929407,2024-11-23T14:42:09.407Z,35591,0.0021801966,-0.05289031,0.020226564
1732372929411,2024-11-23T14:42:09.411Z,35595,0.0021801966,-0.05289031,0.020226564
1732372929423,2024-11-23T14:42:09.423Z,35607,-0.01878367,-0.12534977,-0.010658884
1732372929426,2024-11-23T14:42:09.426Z,35610,-0.01878367,-0.12534977,-0.010658884
1732372929437,2024-11-23T14:42:09.437Z,35621,-0.00427755,-0.10883595,-0.0010516003
1732372929440,2024-11-23T14:42:09.440Z,35624,-0.00427755,-0.10883595,-0.0010516003
1732372929691,2024-11-23T14:42:09.691Z,35875,0.04968046,-0.13046715,-0.029667627
1732372929697,2024-11-23T14:42:09.697Z,35881,0.04968046,-0.13046715,-0.029667627
1732372929736,2024-11-23T14:42:09.736Z,35920,-0.0066580465,-0.15310194,0.009414369
1732372929743,2024-11-23T14:42:09.743Z,35927,-0.0066580465,-0.15310194,0.009414369
1732372929782,2024-11-23T14:42:09.782Z,35966,0.015470969,-0.104441516,2.9600988E-4
1732372929787,2024-11-23T14:42:09.787Z,35971,0.015470969,-0.104441516,2.9600988E-4
1732372929808,2024-11-23T14:42:09.808Z,35992,0.0038416372,-0.0894076,-0.017161936
1732372929814,2024-11-23T14:42:09.814Z,35998,0.0038416372,-0.0894076,-0.017161936
1732372929831,2024-11-23T14:42:09.831Z,36015,-0.00886887,-0.075833865,0.007897523
1732372929834,2024-11-23T14:42:09.834Z,36018,-0.00886887,-0.075833865,0.007897523
1732372929845,2024-11-23T14:42:09.845Z,36029,0.031731807,-0.05684518,-0.020300217
1732372929849,2024-11-23T14:42:09.849Z,36033,0.031731807,-0.05684518,-0.020300217
1732372929860,2024-11-23T14:42:09.860Z,36044,-0.011800572,-0.08718092,0.0031128507
1732372929863,2024-11-23T14:42:09.863Z,36047,-0.011800572,-0.08718092,0.0031128507
1732372929916,2024-11-23T14:42:09.916Z,36100,0.018977623,-0.025334682,0.063577056
1732372929922,2024-11-23T14:42:09.922Z,36106,0.018977623,-0.025334682,0.063577056
1732372929942,2024-11-23T14:42:09.942Z,36126,-0.01582117,-0.04306119,0.086663514
1732372929948,2024-11-23T14:42:09.948Z,36132,-0.01582117,-0.04306119,0.086663514
1732372930005,2024-11-23T14:42:10.005Z,36189,-0.051757075,-0.03337104,0.075673394
1732372930010,2024-11-23T14:42:10.010Z,36194,-0.051757075,-0.03337104,0.075673394
1732372930028,2024-11-23T14:42:10.028Z,36212,-0.06592911,-0.026167512,-0.0028525915
1732372930034,2024-11-23T14:42:10.034Z,36218,-0.06592911,-0.026167512,-0.0028525915
1732372930053,2024-11-23T14:42:10.053Z,36237,-0.041363526,-0.014570042,0.01229918
1732372930057,2024-11-23T14:42:10.057Z,36241,-0.041363526,-0.014570042,0.01229918
1732372930069,2024-11-23T14:42:10.069Z,36253,-0.026800595,-0.007388006,-0.0076940386
1732372930073,2024-11-23T14:42:10.073Z,36257,-0.026800595,-0.007388006,-0.0076940386
1732372930097,2024-11-23T14:42:10.097Z,36281,0.0064373855,-0.003646692,-0.013163207
1732372930102,2024-11-23T14:42:10.102Z,36286,0.0064373855,-0.003646692,-0.013163207
1732372930121,2024-11-23T14:42:10.121Z,36305,0.04054081,0.023192607,-0.051825702
1732372930126,2024-11-23T14:42:10.126Z,36310,0.04054081,0.023192607,-0.051825702
1732372930279,2024-11-23T14:42:10.279Z,36463,-0.013006632,0.046956155,0.017039599
1732372930286,2024-11-23T14:42:10.286Z,36470,-0.013006632,0.046956155,0.017039599
1732372930307,2024-11-23T14:42:10.307Z,36491,-0.016030252,0.06265612,-0.002562459
1732372930313,2024-11-23T14:42:10.313Z,36497,-0.016030252,0.06265612,-0.002562459
1732372930332,2024-11-23T14:42:10.332Z,36516,0.012768941,0.066592805,0.053965084
1732372930338,2024-11-23T14:42:10.338Z,36522,0.012768941,0.066592805,0.053965084
1732372930413,2024-11-23T14:42:10.413Z,36597,0.0039591244,0.07637923,0.049124535
1732372930419,2024-11-23T14:42:10.419Z,36603,0.0039591244,0.07637923,0.049124535
1732372930508,2024-11-23T14:42:10.508Z,36692,-0.01090982,0.17811288,0.046077367
1732372930516,2024-11-23T14:42:10.516Z,36700,-0.01090982,0.17811288,0.046077367
1732372930541,2024-11-23T14:42:10.541Z,36725,-0.00923471,0.20183423,0.03204092
1732372930548,2024-11-23T14:42:10.548Z,36732,-0.00923471,0.20183423,0.03204092
1732372930569,2024-11-23T14:42:10.569Z,36753,-0.045094866,0.22609311,0.0039966987
1732372930575,2024-11-23T14:42:10.575Z,36759,-0.045094866,0.22609311,0.0039966987
1732372930594,2024-11-23T14:42:10.594Z,36778,-0.05438985,0.09321261,0.046682026
1732372930599,2024-11-23T14:42:10.599Z,36783,-0.05438985,0.09321261,0.046682026
1732372930610,2024-11-23T14:42:10.610Z,36794,-0.063914806,0.04155706,-0.0040728142
1732372930613,2024-11-23T14:42:10.613Z,36797,-0.063914806,0.04155706,-0.0040728142
1732372930624,2024-11-23T14:42:10.624Z,36808,-0.087495364,0.010908276,-0.007944733
1732372930628,2024-11-23T14:42:10.628Z,36812,-0.087495364,0.010908276,-0.007944733
1732372930724,2024-11-23T14:42:10.724Z,36908,0.012261028,0.0644483,0.054770976
1732372930727,2024-11-23T14:42:10.727Z,36911,0.012261028,0.0644483,0.054770976
1732372930740,2024-11-23T14:42:10.740Z,36924,-0.005532506,0.042386,0.031000165
1732372930743,2024-11-23T14:42:10.743Z,36927,-0.005532506,0.042386,0.031000165
1732372930751,2024-11-23T14:42:10.751Z,36935,-0.03293815,0.01301116,0.006990877
1732372930754,2024-11-23T14:42:10.754Z,36938,-0.03293815,0.01301116,0.006990877
1732372930769,2024-11-23T14:42:10.769Z,36953,0.0010031831,0.067140505,0.04432842
1732372930772,2024-11-23T14:42:10.772Z,36956,0.0010031831,0.067140505,0.04432842
1732372930780,2024-11-23T14:42:10.780Z,36964,-0.004969454,0.053959645,0.09473088
