Timestamp (ms),ISO DateTime,Elapsed Time (ms),Acceleration X,Acceleration Y,Acceleration Z
1734276465306,2024-12-15T15:27:45.306Z,33115,0.008297412,0.00523076,-0.2692291
1734276465316,2024-12-15T15:27:45.316Z,33125,0.008297412,0.00523076,-0.2692291
1734276465338,2024-12-15T15:27:45.338Z,33147,0.0057579884,0.0066843214,-0.26329944
1734276465345,2024-12-15T15:27:45.345Z,33154,0.0057579884,0.0066843214,-0.26329944
1734276465368,2024-12-15T15:27:45.368Z,33177,0.009524208,0.009043163,-0.2608771
1734276465374,2024-12-15T15:27:45.374Z,33183,0.009524208,0.009043163,-0.2608771
1734276465394,2024-12-15T15:27:45.394Z,33203,0.01177069,0.012783892,-0.24788235
1734276465399,2024-12-15T15:27:45.399Z,33208,0.01177069,0.012783892,-0.24788235
1734276465416,2024-12-15T15:27:45.416Z,33225,0.010581734,0.011055703,-0.236131
1734276465420,2024-12-15T15:27:45.420Z,33229,0.010581734,0.011055703,-0.236131
1734276465432,2024-12-15T15:27:45.432Z,33241,0.0089185,0.013162186,-0.23525418
1734276465435,2024-12-15T15:27:45.435Z,33244,0.0089185,0.013162186,-0.23525418
1734276465445,2024-12-15T15:27:45.445Z,33254,0.0077486006,0.013730696,-0.22623755
1734276465449,2024-12-15T15:27:45.449Z,33258,0.0077486006,0.013730696,-0.22623755
1734276465460,2024-12-15T15:27:45.460Z,33269,0.008524367,0.0132512655,-0.21545312
1734276465463,2024-12-15T15:27:45.463Z,33272,0.008524367,0.0132512655,-0.21545312
1734276465476,2024-12-15T15:27:45.476Z,33285,0.0073596886,0.015145262,-0.20825754
1734276465479,2024-12-15T15:27:45.479Z,33288,0.0073596886,0.015145262,-0.20825754
1734276465493,2024-12-15T15:27:45.493Z,33302,0.002374619,0.01502166,-0.20267136
1734276465496,2024-12-15T15:27:45.496Z,33305,0.002374619,0.01502166,-0.20267136
1734276465508,2024-12-15T15:27:45.508Z,33317,0.0037545883,0.016302412,-0.19529761
1734276465512,2024-12-15T15:27:45.512Z,33321,0.0037545883,0.016302412,-0.19529761
1734276465524,2024-12-15T15:27:45.524Z,33333,0.0036799205,0.016541447,-0.18571213
1734276465528,2024-12-15T15:27:45.528Z,33337,0.0036799205,0.016541447,-0.18571213
1734276465541,2024-12-15T15:27:45.541Z,33350,-2.3380782E-4,0.019157022,-0.1797798
1734276465545,2024-12-15T15:27:45.545Z,33354,-2.3380782E-4,0.019157022,-0.1797798
1734276465558,2024-12-15T15:27:45.558Z,33367,0.0031751744,0.020264285,-0.17884557
1734276465561,2024-12-15T15:27:45.561Z,33370,0.0031751744,0.020264285,-0.17884557
1734276465573,2024-12-15T15:27:45.573Z,33382,0.0050839707,0.020846117,-0.17361017
1734276465576,2024-12-15T15:27:45.576Z,33385,0.0050839707,0.020846117,-0.17361017
1734276465588,2024-12-15T15:27:45.588Z,33397,6.842349E-4,0.018461408,-0.16648924
1734276465594,2024-12-15T15:27:45.594Z,33403,6.842349E-4,0.018461408,-0.16648924
1734276465607,2024-12-15T15:27:45.607Z,33416,0.004561015,0.016033716,-0.16003224
1734276465610,2024-12-15T15:27:45.610Z,33419,0.004561015,0.016033716,-0.16003224
1734276465623,2024-12-15T15:27:45.623Z,33432,0.003067205,0.01552161,-0.15761214
1734276465628,2024-12-15T15:27:45.628Z,33437,0.003067205,0.01552161,-0.15761214
1734276465639,2024-12-15T15:27:45.639Z,33448,-0.0013997958,0.016927619,-0.1514394
1734276465643,2024-12-15T15:27:45.643Z,33452,-0.0013997958,0.016927619,-0.1514394
1734276465655,2024-12-15T15:27:45.655Z,33464,0.0014331518,0.01829881,-0.14494655
1734276465659,2024-12-15T15:27:45.659Z,33468,0.0014331518,0.01829881,-0.14494655
1734276465672,2024-12-15T15:27:45.672Z,33481,0.0018169885,0.021103337,-0.14103743
1734276465677,2024-12-15T15:27:45.677Z,33486,0.0018169885,0.021103337,-0.14103743
1734276465691,2024-12-15T15:27:45.691Z,33500,-6.8726175E-4,0.022408888,-0.13484658
1734276465694,2024-12-15T15:27:45.694Z,33503,-6.8726175E-4,0.022408888,-0.13484658
1734276465708,2024-12-15T15:27:45.708Z,33517,0.0036156578,0.025641985,-0.1312273
1734276465712,2024-12-15T15:27:45.712Z,33521,0.0036156578,0.025641985,-0.1312273
1734276465724,2024-12-15T15:27:45.724Z,33533,0.0044438983,0.023970395,-0.1277276
1734276465728,2024-12-15T15:27:45.728Z,33537,0.0044438983,0.023970395,-0.1277276
1734276465741,2024-12-15T15:27:45.741Z,33550,0.0032544252,0.023752755,-0.12616055
1734276465745,2024-12-15T15:27:45.745Z,33554,0.0032544252,0.023752755,-0.12616055
1734276465757,2024-12-15T15:27:45.757Z,33566,0.0035052209,0.024001708,-0.11787391
1734276465761,2024-12-15T15:27:45.761Z,33570,0.0035052209,0.024001708,-0.11787391
1734276465774,2024-12-15T15:27:45.774Z,33583,0.0027757536,0.023740306,-0.11166987
1734276465779,2024-12-15T15:27:45.779Z,33588,0.0027757536,0.023740306,-0.11166987
1734276465790,2024-12-15T15:27:45.790Z,33599,0.0020561935,0.022972342,-0.11090093
1734276465793,2024-12-15T15:27:45.793Z,33602,0.0020561935,0.022972342,-0.11090093
1734276465804,2024-12-15T15:27:45.804Z,33613,0.004743756,0.020225385,-0.10503214
1734276465808,2024-12-15T15:27:45.808Z,33617,0.004743756,0.020225385,-0.10503214
1734276465820,2024-12-15T15:27:45.820Z,33629,0.0069234325,0.019406851,-0.10045123
1734276465824,2024-12-15T15:27:45.824Z,33633,0.0069234325,0.019406851,-0.10045123
1734276465835,2024-12-15T15:27:45.835Z,33644,0.0047348333,0.018571395,-0.09942186
1734276465843,2024-12-15T15:27:45.843Z,33652,0.0047348333,0.018571395,-0.09942186
1734276465856,2024-12-15T15:27:45.856Z,33665,0.0073905983,0.017235504,-0.09657928
1734276465860,2024-12-15T15:27:45.860Z,33669,0.0073905983,0.017235504,-0.09657928
1734276465873,2024-12-15T15:27:45.873Z,33682,0.0060999207,0.015887845,-0.09341236
1734276465877,2024-12-15T15:27:45.877Z,33686,0.0060999207,0.015887845,-0.09341236
1734276465890,2024-12-15T15:27:45.890Z,33699,0.0014423659,0.016483001,-0.09513653
1734276465894,2024-12-15T15:27:45.894Z,33703,0.0014423659,0.016483001,-0.09513653
1734276465907,2024-12-15T15:27:45.907Z,33716,0.0060709408,0.01755506,-0.092098765
1734276465911,2024-12-15T15:27:45.911Z,33720,0.0060709408,0.01755506,-0.092098765
1734276465923,2024-12-15T15:27:45.923Z,33732,0.009658674,0.015204583,-0.093990296
1734276465927,2024-12-15T15:27:45.927Z,33736,0.009658674,0.015204583,-0.093990296
1734276465939,2024-12-15T15:27:45.939Z,33748,0.0068680197,0.015290355,-0.093467645
1734276465943,2024-12-15T15:27:45.943Z,33752,0.0068680197,0.015290355,-0.093467645
1734276465954,2024-12-15T15:27:45.954Z,33763,0.008906122,0.016838247,-0.092909954
1734276465957,2024-12-15T15:27:45.957Z,33766,0.008906122,0.016838247,-0.092909954
1734276465969,2024-12-15T15:27:45.969Z,33778,0.0060611553,0.015937246,-0.09239494
1734276465972,2024-12-15T15:27:45.972Z,33781,0.0060611553,0.015937246,-0.09239494
1734276465985,2024-12-15T15:27:45.985Z,33794,0.0075944085,0.016982952,-0.08950475
1734276465990,2024-12-15T15:27:45.990Z,33799,0.0075944085,0.016982952,-0.08950475
1734276466002,2024-12-15T15:27:46.002Z,33811,0.005686402,0.017045483,-0.087212026
1734276466007,2024-12-15T15:27:46.007Z,33816,0.005686402,0.017045483,-0.087212026
1734276466020,2024-12-15T15:27:46.020Z,33829,0.0062380456,0.018564103,-0.08071136
1734276466024,2024-12-15T15:27:46.024Z,33833,0.0062380456,0.018564103,-0.08071136
1734276466036,2024-12-15T15:27:46.036Z,33845,0.00389681,0.01860942,-0.078754686
1734276466040,2024-12-15T15:27:46.040Z,33849,0.00389681,0.01860942,-0.078754686
1734276466053,2024-12-15T15:27:46.053Z,33862,0.005931436,0.016698502,-0.08315744
1734276466061,2024-12-15T15:27:46.061Z,33870,0.005931436,0.016698502,-0.08315744
1734276466074,2024-12-15T15:27:46.074Z,33883,0.0074421517,0.02162089,-0.07981121
1734276466078,2024-12-15T15:27:46.078Z,33887,0.0074421517,0.02162089,-0.07981121
1734276466091,2024-12-15T15:27:46.091Z,33900,0.0045268782,0.023122394,-0.074619256
1734276466095,2024-12-15T15:27:46.095Z,33904,0.0045268782,0.023122394,-0.074619256
1734276466106,2024-12-15T15:27:46.106Z,33915,0.010350451,0.027552417,-0.072919
1734276466109,2024-12-15T15:27:46.109Z,33918,0.010350451,0.027552417,-0.072919
1734276466122,2024-12-15T15:27:46.122Z,33931,0.006906998,0.027095743,-0.07372152
1734276466126,2024-12-15T15:27:46.126Z,33935,0.006906998,0.027095743,-0.07372152
1734276466139,2024-12-15T15:27:46.139Z,33948,0.0054235933,0.027612418,-0.07693851
1734276466144,2024-12-15T15:27:46.144Z,33953,0.0054235933,0.027612418,-0.07693851
1734276466155,2024-12-15T15:27:46.155Z,33964,0.009728534,0.02715302,-0.071858965
1734276466159,2024-12-15T15:27:46.159Z,33968,0.009728534,0.02715302,-0.071858965
1734276466171,2024-12-15T15:27:46.171Z,33980,0.0091107255,0.024251148,-0.068811506
1734276466174,2024-12-15T15:27:46.174Z,33983,0.0091107255,0.024251148,-0.068811506
1734276466185,2024-12-15T15:27:46.185Z,33994,0.007031727,0.02329958,-0.0697366
1734276466189,2024-12-15T15:27:46.189Z,33998,0.007031727,0.02329958,-0.0697366
1734276466201,2024-12-15T15:27:46.201Z,34010,0.0044608074,0.019903982,-0.07260752
1734276466205,2024-12-15T15:27:46.205Z,34014,0.0044608074,0.019903982,-0.07260752
1734276466217,2024-12-15T15:27:46.217Z,34026,9.439775E-4,0.013574225,-0.07248646
1734276466221,2024-12-15T15:27:46.221Z,34030,9.439775E-4,0.013574225,-0.07248646
1734276466235,2024-12-15T15:27:46.235Z,34044,-0.002017109,0.0067489916,-0.076633304
1734276466239,2024-12-15T15:27:46.239Z,34048,-0.002017109,0.0067489916,-0.076633304
1734276466252,2024-12-15T15:27:46.252Z,34061,-0.003887301,-8.4022024E-5,-0.07299495
1734276466256,2024-12-15T15:27:46.256Z,34065,-0.003887301,-8.4022024E-5,-0.07299495
1734276466268,2024-12-15T15:27:46.268Z,34077,-0.011405732,-0.006930553,-0.07853255
1734276466272,2024-12-15T15:27:46.272Z,34081,-0.011405732,-0.006930553,-0.07853255
1734276466284,2024-12-15T15:27:46.284Z,34093,-0.011399693,-0.012813748,-0.080101185
1734276466287,2024-12-15T15:27:46.287Z,34096,-0.011399693,-0.012813748,-0.080101185
1734276466298,2024-12-15T15:27:46.298Z,34107,-0.017474715,-0.016269056,-0.07642797
1734276466303,2024-12-15T15:27:46.303Z,34112,-0.017474715,-0.016269056,-0.07642797
1734276466317,2024-12-15T15:27:46.317Z,34126,-0.021835629,-0.020716777,-0.07949823
1734276466322,2024-12-15T15:27:46.322Z,34131,-0.021835629,-0.020716777,-0.07949823
1734276466336,2024-12-15T15:27:46.336Z,34145,-0.026849153,-0.026162554,-0.08387321
1734276466340,2024-12-15T15:27:46.340Z,34149,-0.026849153,-0.026162554,-0.08387321
1734276466355,2024-12-15T15:27:46.355Z,34164,-0.030534199,-0.026258731,-0.07799839
1734276466360,2024-12-15T15:27:46.360Z,34169,-0.030534199,-0.026258731,-0.07799839
1734276466374,2024-12-15T15:27:46.374Z,34183,-0.029104767,-0.025882674,-0.07800361
1734276466379,2024-12-15T15:27:46.379Z,34188,-0.029104767,-0.025882674,-0.07800361
1734276466393,2024-12-15T15:27:46.393Z,34202,-0.02364102,-0.019659597,-0.079483986
1734276466398,2024-12-15T15:27:46.398Z,34207,-0.02364102,-0.019659597,-0.079483986
1734276466411,2024-12-15T15:27:46.411Z,34220,-0.02921032,-0.015403163,-0.079106085
1734276466416,2024-12-15T15:27:46.416Z,34225,-0.02921032,-0.015403163,-0.079106085
1734276466430,2024-12-15T15:27:46.430Z,34239,-0.025858052,-0.0043265508,-0.08062359
1734276466434,2024-12-15T15:27:46.434Z,34243,-0.025858052,-0.0043265508,-0.08062359
1734276466447,2024-12-15T15:27:46.447Z,34256,-0.019610427,0.0086962795,-0.07621776
1734276466453,2024-12-15T15:27:46.453Z,34262,-0.019610427,0.0086962795,-0.07621776
1734276466466,2024-12-15T15:27:46.466Z,34275,-0.019262565,0.020338872,-0.07130712
1734276466472,2024-12-15T15:27:46.472Z,34281,-0.019262565,0.020338872,-0.07130712
1734276466484,2024-12-15T15:27:46.484Z,34293,-0.008173257,0.036866415,-0.06505743
1734276466488,2024-12-15T15:27:46.488Z,34297,-0.008173257,0.036866415,-0.06505743
1734276466500,2024-12-15T15:27:46.500Z,34309,-0.013711028,0.05046641,-0.056442317
1734276466505,2024-12-15T15:27:46.505Z,34314,-0.013711028,0.05046641,-0.056442317
1734276466517,2024-12-15T15:27:46.517Z,34326,-0.013878634,0.06992713,-0.05086046
1734276466521,2024-12-15T15:27:46.521Z,34330,-0.013878634,0.06992713,-0.05086046
1734276466534,2024-12-15T15:27:46.534Z,34343,-0.006722206,0.089389026,-0.04488441
1734276466539,2024-12-15T15:27:46.539Z,34348,-0.006722206,0.089389026,-0.04488441
1734276466552,2024-12-15T15:27:46.552Z,34361,-0.018127745,0.11129242,-0.037003484
1734276466555,2024-12-15T15:27:46.555Z,34364,-0.018127745,0.11129242,-0.037003484
1734276466566,2024-12-15T15:27:46.566Z,34375,-0.008571158,0.14100695,-0.03931993
1734276466569,2024-12-15T15:27:46.569Z,34378,-0.008571158,0.14100695,-0.03931993
1734276466579,2024-12-15T15:27:46.579Z,34388,0.0025058486,0.16827132,-0.04445445
1734276466582,2024-12-15T15:27:46.582Z,34391,0.0025058486,0.16827132,-0.04445445
1734276466593,2024-12-15T15:27:46.593Z,34402,4.413952E-4,0.19405884,-0.03516203
1734276466597,2024-12-15T15:27:46.597Z,34406,4.413952E-4,0.19405884,-0.03516203
1734276466610,2024-12-15T15:27:46.610Z,34419,0.0037403111,0.2178856,-0.036406428
1734276466614,2024-12-15T15:27:46.614Z,34423,0.0037403111,0.2178856,-0.036406428
1734276466624,2024-12-15T15:27:46.624Z,34433,0.012381713,0.23682031,-0.043188807
1734276466628,2024-12-15T15:27:46.628Z,34437,0.012381713,0.23682031,-0.043188807
1734276466640,2024-12-15T15:27:46.640Z,34449,0.023803953,0.25575265,-0.03543943
1734276466644,2024-12-15T15:27:46.644Z,34453,0.023803953,0.25575265,-0.03543943
1734276466655,2024-12-15T15:27:46.655Z,34464,0.031609364,0.2654142,-0.016282856
1734276466659,2024-12-15T15:27:46.659Z,34468,0.031609364,0.2654142,-0.016282856
1734276466669,2024-12-15T15:27:46.669Z,34478,0.02896009,0.2746006,-0.020574331
1734276466672,2024-12-15T15:27:46.672Z,34481,0.02896009,0.2746006,-0.020574331
1734276466682,2024-12-15T15:27:46.682Z,34491,0.027986562,0.2813672,-0.022507552
1734276466686,2024-12-15T15:27:46.686Z,34495,0.027986562,0.2813672,-0.022507552
1734276466698,2024-12-15T15:27:46.698Z,34507,0.026266836,0.2842501,-0.0040759738
1734276466702,2024-12-15T15:27:46.702Z,34511,0.026266836,0.2842501,-0.0040759738
1734276466713,2024-12-15T15:27:46.713Z,34522,0.017577773,0.2920356,3.9833575E-4
1734276466717,2024-12-15T15:27:46.717Z,34526,0.017577773,0.2920356,3.9833575E-4
1734276466731,2024-12-15T15:27:46.731Z,34540,0.0030522167,0.29445902,0.005039513
1734276466735,2024-12-15T15:27:46.735Z,34544,0.0030522167,0.29445902,0.005039513
1734276466753,2024-12-15T15:27:46.753Z,34562,-0.010301633,0.2963851,0.010012892
1734276466758,2024-12-15T15:27:46.758Z,34567,-0.010301633,0.2963851,0.010012892
1734276466771,2024-12-15T15:27:46.771Z,34580,-0.01062159,0.30512777,0.012855559
1734276466775,2024-12-15T15:27:46.775Z,34584,-0.01062159,0.30512777,0.012855559
1734276466787,2024-12-15T15:27:46.787Z,34596,-0.009584431,0.30457366,0.012486965
1734276466790,2024-12-15T15:27:46.790Z,34599,-0.009584431,0.30457366,0.012486965
1734276466801,2024-12-15T15:27:46.801Z,34610,-0.016436512,0.30496985,-0.0027341528
1734276466804,2024-12-15T15:27:46.804Z,34613,-0.016436512,0.30496985,-0.0027341528
1734276466815,2024-12-15T15:27:46.815Z,34624,-0.01661048,0.2965527,-0.014186204
1734276466818,2024-12-15T15:27:46.818Z,34627,-0.01661048,0.2965527,-0.014186204
1734276466830,2024-12-15T15:27:46.830Z,34639,-0.009153745,0.2949472,-0.010143341
1734276466834,2024-12-15T15:27:46.834Z,34643,-0.009153745,0.2949472,-0.010143341
1734276466845,2024-12-15T15:27:46.845Z,34654,-0.0048463703,0.28794834,-0.0179964
1734276466850,2024-12-15T15:27:46.850Z,34659,-0.0048463703,0.28794834,-0.0179964
1734276466863,2024-12-15T15:27:46.863Z,34672,-0.009627864,0.28972244,-0.030462293
1734276466866,2024-12-15T15:27:46.866Z,34675,-0.009627864,0.28972244,-0.030462293
1734276466878,2024-12-15T15:27:46.878Z,34687,-0.014673543,0.2953828,-0.041254222
1734276466886,2024-12-15T15:27:46.886Z,34695,-0.014673543,0.2953828,-0.041254222
1734276466897,2024-12-15T15:27:46.897Z,34706,-0.02578878,0.29954916,-0.04496038
1734276466901,2024-12-15T15:27:46.901Z,34710,-0.02578878,0.29954916,-0.04496038
1734276466912,2024-12-15T15:27:46.912Z,34721,-0.030192345,0.3031797,-0.05844032
1734276466914,2024-12-15T15:27:46.914Z,34723,-0.030192345,0.3031797,-0.05844032
1734276466924,2024-12-15T15:27:46.924Z,34733,-0.017290916,0.3048126,-0.07303354
1734276466927,2024-12-15T15:27:46.927Z,34736,-0.017290916,0.3048126,-0.07303354
1734276466939,2024-12-15T15:27:46.939Z,34748,-0.011659138,0.30788037,-0.066734225
1734276466943,2024-12-15T15:27:46.943Z,34752,-0.011659138,0.30788037,-0.066734225
1734276466953,2024-12-15T15:27:46.953Z,34762,0.017843753,0.31191063,-0.0767982
1734276466956,2024-12-15T15:27:46.956Z,34765,0.017843753,0.31191063,-0.0767982
1734276466966,2024-12-15T15:27:46.966Z,34775,-0.0023405822,0.29887515,-0.07012602
1734276466970,2024-12-15T15:27:46.970Z,34779,-0.0023405822,0.29887515,-0.07012602
1734276466980,2024-12-15T15:27:46.980Z,34789,-0.021889525,0.29026288,-0.07034674
1734276466983,2024-12-15T15:27:46.983Z,34792,-0.021889525,0.29026288,-0.07034674
1734276466992,2024-12-15T15:27:46.992Z,34801,0.0075231194,0.28803247,-0.07407683
1734276466996,2024-12-15T15:27:46.996Z,34805,0.0075231194,0.28803247,-0.07407683
1734276467006,2024-12-15T15:27:47.006Z,34815,0.01989718,0.27949858,-0.07584262
1734276467010,2024-12-15T15:27:47.010Z,34819,0.01989718,0.27949858,-0.07584262
1734276467019,2024-12-15T15:27:47.019Z,34828,0.0045465007,0.254892,-0.060507085
1734276467022,2024-12-15T15:27:47.022Z,34831,0.0045465007,0.254892,-0.060507085
1734276467032,2024-12-15T15:27:47.032Z,34841,0.026037728,0.23422176,-0.044258535
1734276467036,2024-12-15T15:27:47.036Z,34845,0.026037728,0.23422176,-0.044258535
1734276467047,2024-12-15T15:27:47.047Z,34856,-0.004562705,0.20089535,-0.038834333
1734276467051,2024-12-15T15:27:47.051Z,34860,-0.004562705,0.20089535,-0.038834333
1734276467062,2024-12-15T15:27:47.062Z,34871,-0.0076839067,0.17395982,-0.040830523
1734276467065,2024-12-15T15:27:47.065Z,34874,-0.0076839067,0.17395982,-0.040830523
1734276467076,2024-12-15T15:27:47.076Z,34885,0.037085872,0.16661061,-0.031149535
1734276467079,2024-12-15T15:27:47.079Z,34888,0.037085872,0.16661061,-0.031149535
1734276467088,2024-12-15T15:27:47.088Z,34897,0.023725275,0.15053402,-0.031710327
1734276467092,2024-12-15T15:27:47.092Z,34901,0.023725275,0.15053402,-0.031710327
1734276467102,2024-12-15T15:27:47.102Z,34911,0.041364156,0.13009527,-0.024606077
1734276467106,2024-12-15T15:27:47.106Z,34915,0.041364156,0.13009527,-0.024606077
1734276467116,2024-12-15T15:27:47.116Z,34925,0.040370956,0.11943186,-0.020169586
1734276467120,2024-12-15T15:27:47.120Z,34929,0.040370956,0.11943186,-0.020169586
1734276467129,2024-12-15T15:27:47.129Z,34938,0.023677247,0.100964814,-0.033975627
1734276467132,2024-12-15T15:27:47.132Z,34941,0.023677247,0.100964814,-0.033975627
1734276467141,2024-12-15T15:27:47.141Z,34950,0.017603599,0.08592526,-0.043085422
1734276467145,2024-12-15T15:27:47.145Z,34954,0.017603599,0.08592526,-0.043085422
1734276467155,2024-12-15T15:27:47.155Z,34964,0.03506396,0.0689144,-0.039406475
1734276467160,2024-12-15T15:27:47.160Z,34969,0.03506396,0.0689144,-0.039406475
1734276467172,2024-12-15T15:27:47.172Z,34981,0.04732067,0.04113627,-0.04584345
1734276467175,2024-12-15T15:27:47.175Z,34984,0.04732067,0.04113627,-0.04584345
1734276467185,2024-12-15T15:27:47.185Z,34994,0.07361091,0.021672431,-0.04283991
1734276467189,2024-12-15T15:27:47.189Z,34998,0.07361091,0.021672431,-0.04283991
1734276467198,2024-12-15T15:27:47.198Z,35007,0.07214481,0.0032349452,-0.0014306605
1734276467202,2024-12-15T15:27:47.202Z,35011,0.07214481,0.0032349452,-0.0014306605
1734276467213,2024-12-15T15:27:47.213Z,35022,0.066453606,4.640661E-4,0.009513557
1734276467216,2024-12-15T15:27:47.216Z,35025,0.066453606,4.640661E-4,0.009513557
1734276467227,2024-12-15T15:27:47.227Z,35036,0.05570809,-0.0042392225,0.0018244982
1734276467231,2024-12-15T15:27:47.231Z,35040,0.05570809,-0.0042392225,0.0018244982
1734276467242,2024-12-15T15:27:47.242Z,35051,-0.0051823915,-0.012869471,0.007238685
1734276467245,2024-12-15T15:27:47.245Z,35054,-0.0051823915,-0.012869471,0.007238685
1734276467255,2024-12-15T15:27:47.255Z,35064,-0.0060357037,-0.015209348,0.005073905
1734276467258,2024-12-15T15:27:47.258Z,35067,-0.0060357037,-0.015209348,0.005073905
1734276467268,2024-12-15T15:27:47.268Z,35077,0.042616606,-0.014644242,0.012988447
1734276467272,2024-12-15T15:27:47.272Z,35081,0.042616606,-0.014644242,0.012988447
1734276467283,2024-12-15T15:27:47.283Z,35092,0.054126237,-0.028724154,0.03314078
1734276467286,2024-12-15T15:27:47.286Z,35095,0.054126237,-0.028724154,0.03314078
1734276467297,2024-12-15T15:27:47.297Z,35106,0.047589432,-0.03939009,0.025518715
1734276467300,2024-12-15T15:27:47.300Z,35109,0.047589432,-0.03939009,0.025518715
1734276467309,2024-12-15T15:27:47.309Z,35118,0.043068983,-0.048113305,0.02651906
1734276467313,2024-12-15T15:27:47.313Z,35122,0.043068983,-0.048113305,0.02651906
1734276467324,2024-12-15T15:27:47.324Z,35133,0.044556838,-0.04807042,0.01627019
1734276467328,2024-12-15T15:27:47.328Z,35137,0.044556838,-0.04807042,0.01627019
1734276467339,2024-12-15T15:27:47.339Z,35148,0.020344526,-0.04219588,0.01062879
1734276467343,2024-12-15T15:27:47.343Z,35152,0.020344526,-0.04219588,0.01062879
1734276467356,2024-12-15T15:27:47.356Z,35165,0.02216963,-0.038788516,0.005884915
1734276467360,2024-12-15T15:27:47.360Z,35169,0.02216963,-0.038788516,0.005884915
1734276467371,2024-12-15T15:27:47.371Z,35180,0.030666325,-0.027556987,0.007120698
1734276467375,2024-12-15T15:27:47.375Z,35184,0.030666325,-0.027556987,0.007120698
1734276467385,2024-12-15T15:27:47.385Z,35194,0.031068506,-0.028556013,-9.95815E-4
1734276467389,2024-12-15T15:27:47.389Z,35198,0.031068506,-0.028556013,-9.95815E-4
1734276467399,2024-12-15T15:27:47.399Z,35208,0.05907219,-0.03587254,-0.009027183
1734276467403,2024-12-15T15:27:47.403Z,35212,0.05907219,-0.03587254,-0.009027183
1734276467413,2024-12-15T15:27:47.413Z,35222,0.071433336,-0.044212505,0.0038704863
1734276467416,2024-12-15T15:27:47.416Z,35225,0.071433336,-0.044212505,0.0038704863
1734276467428,2024-12-15T15:27:47.428Z,35237,0.09290602,-0.055949237,0.013092338
1734276467432,2024-12-15T15:27:47.432Z,35241,0.09290602,-0.055949237,0.013092338
1734276467444,2024-12-15T15:27:47.444Z,35253,0.07281359,-0.06762742,0.020345092
1734276467447,2024-12-15T15:27:47.447Z,35256,0.07281359,-0.06762742,0.020345092
1734276467460,2024-12-15T15:27:47.460Z,35269,0.06251605,-0.06851218,-0.006941735
1734276467463,2024-12-15T15:27:47.463Z,35272,0.06251605,-0.06851218,-0.006941735
1734276467474,2024-12-15T15:27:47.474Z,35283,0.06364789,-0.07472767,-5.010962E-4
1734276467478,2024-12-15T15:27:47.478Z,35287,0.06364789,-0.07472767,-5.010962E-4
1734276467490,2024-12-15T15:27:47.490Z,35299,0.043211993,-0.07360397,0.012655494
1734276467493,2024-12-15T15:27:47.493Z,35302,0.043211993,-0.07360397,0.012655494
1734276467501,2024-12-15T15:27:47.501Z,35310,0.03891478,-0.06906397,0.028881844
1734276467504,2024-12-15T15:27:47.504Z,35313,0.03891478,-0.06906397,0.028881844
1734276467514,2024-12-15T15:27:47.514Z,35323,0.032231778,-0.06692102,0.015901743
1734276467517,2024-12-15T15:27:47.517Z,35326,0.032231778,-0.06692102,0.015901743
1734276467529,2024-12-15T15:27:47.529Z,35338,0.05298932,-0.06478205,0.013121217
1734276467532,2024-12-15T15:27:47.532Z,35341,0.05298932,-0.06478205,0.013121217
1734276467541,2024-12-15T15:27:47.541Z,35350,0.055530343,-0.0753273,0.03863287
1734276467544,2024-12-15T15:27:47.544Z,35353,0.055530343,-0.0753273,0.03863287
1734276467555,2024-12-15T15:27:47.555Z,35364,0.06321011,-0.08342065,0.045199897
1734276467559,2024-12-15T15:27:47.559Z,35368,0.06321011,-0.08342065,0.045199897
1734276467570,2024-12-15T15:27:47.570Z,35379,0.03988705,-0.09887029,0.0412676
1734276467574,2024-12-15T15:27:47.574Z,35383,0.03988705,-0.09887029,0.0412676
1734276467584,2024-12-15T15:27:47.584Z,35393,0.018423956,-0.110535644,0.026623337
1734276467587,2024-12-15T15:27:47.587Z,35396,0.018423956,-0.110535644,0.026623337
1734276467596,2024-12-15T15:27:47.596Z,35405,0.020728204,-0.12418621,0.019746125
1734276467599,2024-12-15T15:27:47.599Z,35408,0.020728204,-0.12418621,0.019746125
1734276467608,2024-12-15T15:27:47.608Z,35417,0.006703935,-0.1417683,0.0075080385
1734276467611,2024-12-15T15:27:47.611Z,35420,0.006703935,-0.1417683,0.0075080385
1734276467621,2024-12-15T15:27:47.621Z,35430,0.011969607,-0.14813997,-0.0020804994
1734276467624,2024-12-15T15:27:47.624Z,35433,0.011969607,-0.14813997,-0.0020804994
1734276467632,2024-12-15T15:27:47.632Z,35441,0.018917141,-0.15550512,0.003726186
1734276467635,2024-12-15T15:27:47.635Z,35444,0.018917141,-0.15550512,0.003726186
1734276467646,2024-12-15T15:27:47.646Z,35455,0.029897096,-0.14530297,-0.0059369197
1734276467649,2024-12-15T15:27:47.649Z,35458,0.029897096,-0.14530297,-0.0059369197
1734276467660,2024-12-15T15:27:47.660Z,35469,0.022821357,-0.15365742,-0.0013942724
1734276467663,2024-12-15T15:27:47.663Z,35472,0.022821357,-0.15365742,-0.0013942724
1734276467674,2024-12-15T15:27:47.674Z,35483,0.006182967,-0.15324597,5.934238E-4
1734276467677,2024-12-15T15:27:47.677Z,35486,0.006182967,-0.15324597,5.934238E-4
1734276467689,2024-12-15T15:27:47.689Z,35498,0.0037482125,-0.16016796,-0.0015637281
1734276467692,2024-12-15T15:27:47.692Z,35501,0.0037482125,-0.16016796,-0.0015637281
1734276467703,2024-12-15T15:27:47.703Z,35512,0.0028178862,-0.16270515,0.009123772
1734276467707,2024-12-15T15:27:47.707Z,35516,0.0028178862,-0.16270515,0.009123772
1734276467719,2024-12-15T15:27:47.719Z,35528,0.019200759,-0.15691823,-0.005763202
1734276467722,2024-12-15T15:27:47.722Z,35531,0.019200759,-0.15691823,-0.005763202
1734276467732,2024-12-15T15:27:47.732Z,35541,0.009333854,-0.15890782,-0.008470774
1734276467736,2024-12-15T15:27:47.736Z,35545,0.009333854,-0.15890782,-0.008470774
1734276467746,2024-12-15T15:27:47.746Z,35555,0.0020666416,-0.16037335,-0.023181109
1734276467749,2024-12-15T15:27:47.749Z,35558,0.0020666416,-0.16037335,-0.023181109
1734276467758,2024-12-15T15:27:47.758Z,35567,0.015017174,-0.16278403,-0.023498446
1734276467761,2024-12-15T15:27:47.761Z,35570,0.015017174,-0.16278403,-0.023498446
1734276467774,2024-12-15T15:27:47.774Z,35583,0.02366291,-0.16369008,-0.012582927
1734276467778,2024-12-15T15:27:47.778Z,35587,0.02366291,-0.16369008,-0.012582927
1734276467787,2024-12-15T15:27:47.787Z,35596,0.029092267,-0.16506068,-0.0025214555
1734276467790,2024-12-15T15:27:47.790Z,35599,0.029092267,-0.16506068,-0.0025214555
1734276467801,2024-12-15T15:27:47.801Z,35610,0.02464228,-0.15910125,-0.00166896
1734276467805,2024-12-15T15:27:47.805Z,35614,0.02464228,-0.15910125,-0.00166896
1734276467816,2024-12-15T15:27:47.816Z,35625,0.011422643,-0.15998542,0.009420097
1734276467819,2024-12-15T15:27:47.819Z,35628,0.011422643,-0.15998542,0.009420097
1734276467829,2024-12-15T15:27:47.829Z,35638,-0.009935982,-0.15942703,0.009837568
1734276467832,2024-12-15T15:27:47.832Z,35641,-0.009935982,-0.15942703,0.009837568
1734276467841,2024-12-15T15:27:47.841Z,35650,-0.0085557625,-0.15938832,0.015858531
1734276467844,2024-12-15T15:27:47.844Z,35653,-0.0085557625,-0.15938832,0.015858531
1734276467856,2024-12-15T15:27:47.856Z,35665,0.019721258,-0.15349998,0.024544865
1734276467860,2024-12-15T15:27:47.860Z,35669,0.019721258,-0.15349998,0.024544865
1734276467871,2024-12-15T15:27:47.871Z,35680,0.02193866,-0.14076596,0.01929757
1734276467875,2024-12-15T15:27:47.875Z,35684,0.02193866,-0.14076596,0.01929757
1734276467885,2024-12-15T15:27:47.885Z,35694,0.012821479,-0.1446303,0.006557672
1734276467888,2024-12-15T15:27:47.888Z,35697,0.012821479,-0.1446303,0.006557672
1734276467898,2024-12-15T15:27:47.898Z,35707,0.016239073,-0.13676393,-0.009504317
1734276467901,2024-12-15T15:27:47.901Z,35710,0.016239073,-0.13676393,-0.009504317
1734276467913,2024-12-15T15:27:47.913Z,35722,0.027677586,-0.12838478,-0.009287119
1734276467916,2024-12-15T15:27:47.916Z,35725,0.027677586,-0.12838478,-0.009287119
1734276467932,2024-12-15T15:27:47.932Z,35741,0.02233639,-0.121455975,-0.012845129
1734276467935,2024-12-15T15:27:47.935Z,35744,0.02233639,-0.121455975,-0.012845129
1734276467946,2024-12-15T15:27:47.946Z,35755,0.024635952,-0.11646328,-0.023964314
1734276467950,2024-12-15T15:27:47.950Z,35759,0.024635952,-0.11646328,-0.023964314
1734276467960,2024-12-15T15:27:47.960Z,35769,0.035892513,-0.11095293,-0.016281573
1734276467962,2024-12-15T15:27:47.962Z,35771,0.035892513,-0.11095293,-0.016281573
1734276467971,2024-12-15T15:27:47.971Z,35780,0.01238198,-0.11813127,-0.017272977
1734276467974,2024-12-15T15:27:47.974Z,35783,0.01238198,-0.11813127,-0.017272977
1734276467983,2024-12-15T15:27:47.983Z,35792,-0.009950307,-0.116047546,-0.019985408
1734276467986,2024-12-15T15:27:47.986Z,35795,-0.009950307,-0.116047546,-0.019985408
1734276467995,2024-12-15T15:27:47.995Z,35804,0.007886911,-0.112989105,-0.015428839
1734276467998,2024-12-15T15:27:47.998Z,35807,0.007886911,-0.112989105,-0.015428839
1734276468009,2024-12-15T15:27:48.009Z,35818,0.008162019,-0.11236818,-0.0047138035
1734276468013,2024-12-15T15:27:48.013Z,35822,0.008162019,-0.11236818,-0.0047138035
1734276468024,2024-12-15T15:27:48.024Z,35833,-0.00897958,-0.111267336,-0.00693965
1734276468028,2024-12-15T15:27:48.028Z,35837,-0.00897958,-0.111267336,-0.00693965
1734276468036,2024-12-15T15:27:48.036Z,35845,-0.011245185,-0.11017991,-0.003081411
1734276468039,2024-12-15T15:27:48.039Z,35848,-0.011245185,-0.11017991,-0.003081411
1734276468051,2024-12-15T15:27:48.051Z,35860,0.007132287,-0.10812409,-0.0078751445
1734276468055,2024-12-15T15:27:48.055Z,35864,0.007132287,-0.10812409,-0.0078751445
1734276468065,2024-12-15T15:27:48.065Z,35874,-0.0012782543,-0.10802704,0.0015297552
1734276468069,2024-12-15T15:27:48.069Z,35878,-0.0012782543,-0.10802704,0.0015297552
1734276468079,2024-12-15T15:27:48.079Z,35888,-0.023151277,-0.10745717,0.0021936318
1734276468082,2024-12-15T15:27:48.082Z,35891,-0.023151277,-0.10745717,0.0021936318
1734276468092,2024-12-15T15:27:48.092Z,35901,-0.023668472,-0.09616622,6.572608E-4
1734276468096,2024-12-15T15:27:48.096Z,35905,-0.023668472,-0.09616622,6.572608E-4
1734276468107,2024-12-15T15:27:48.107Z,35916,-0.008208996,-0.08733817,0.0022589564
1734276468111,2024-12-15T15:27:48.111Z,35920,-0.008208996,-0.08733817,0.0022589564
1734276468120,2024-12-15T15:27:48.120Z,35929,-0.007248018,-0.08730861,0.008374807
1734276468124,2024-12-15T15:27:48.124Z,35933,-0.007248018,-0.08730861,0.008374807
1734276468136,2024-12-15T15:27:48.136Z,35945,-0.008395213,-0.08242065,0.01405853
1734276468141,2024-12-15T15:27:48.141Z,35950,-0.008395213,-0.08242065,0.01405853
1734276468152,2024-12-15T15:27:48.152Z,35961,-0.0029726985,-0.082921766,0.01827687
1734276468155,2024-12-15T15:27:48.155Z,35964,-0.0029726985,-0.082921766,0.01827687
1734276468167,2024-12-15T15:27:48.167Z,35976,0.012268097,-0.078549504,0.026690422
1734276468170,2024-12-15T15:27:48.170Z,35979,0.012268097,-0.078549504,0.026690422
1734276468181,2024-12-15T15:27:48.181Z,35990,0.0035778955,-0.07613465,0.023219347
1734276468183,2024-12-15T15:27:48.183Z,35992,0.0035778955,-0.07613465,0.023219347
1734276468192,2024-12-15T15:27:48.192Z,36001,0.0138703445,-0.073718145,0.017688245
1734276468195,2024-12-15T15:27:48.195Z,36004,0.0138703445,-0.073718145,0.017688245
1734276468205,2024-12-15T15:27:48.205Z,36014,0.019575825,-0.07129035,0.023251891
1734276468208,2024-12-15T15:27:48.208Z,36017,0.019575825,-0.07129035,0.023251891
1734276468218,2024-12-15T15:27:48.218Z,36027,0.01206474,-0.06935123,0.02720207
1734276468222,2024-12-15T15:27:48.222Z,36031,0.01206474,-0.06935123,0.02720207
1734276468232,2024-12-15T15:27:48.232Z,36041,0.016743187,-0.072298035,0.026498022
1734276468235,2024-12-15T15:27:48.235Z,36044,0.016743187,-0.072298035,0.026498022
1734276468246,2024-12-15T15:27:48.246Z,36055,0.009252543,-0.0776911,0.016889453
1734276468249,2024-12-15T15:27:48.249Z,36058,0.009252543,-0.0776911,0.016889453
1734276468261,2024-12-15T15:27:48.261Z,36070,0.0028339808,-0.09578735,0.019964933
1734276468264,2024-12-15T15:27:48.264Z,36073,0.0028339808,-0.09578735,0.019964933
1734276468273,2024-12-15T15:27:48.273Z,36082,0.013504516,-0.11046757,0.03021839
1734276468276,2024-12-15T15:27:48.276Z,36085,0.013504516,-0.11046757,0.03021839
1734276468286,2024-12-15T15:27:48.286Z,36095,0.015996756,-0.123691894,0.032212466
1734276468289,2024-12-15T15:27:48.289Z,36098,0.015996756,-0.123691894,0.032212466
1734276468298,2024-12-15T15:27:48.298Z,36107,0.014934872,-0.14569643,0.025809616
1734276468301,2024-12-15T15:27:48.301Z,36110,0.014934872,-0.14569643,0.025809616
1734276468309,2024-12-15T15:27:48.309Z,36118,0.006335482,-0.16915326,0.02114269
1734276468313,2024-12-15T15:27:48.313Z,36122,0.006335482,-0.16915326,0.02114269
1734276468322,2024-12-15T15:27:48.322Z,36131,0.017084703,-0.19162108,0.015848577
1734276468327,2024-12-15T15:27:48.327Z,36136,0.017084703,-0.19162108,0.015848577
1734276468337,2024-12-15T15:27:48.337Z,36146,0.01443745,-0.21553974,0.015784172
1734276468341,2024-12-15T15:27:48.341Z,36150,0.01443745,-0.21553974,0.015784172
1734276468352,2024-12-15T15:27:48.352Z,36161,0.008735264,-0.23505501,0.006419478
1734276468358,2024-12-15T15:27:48.358Z,36167,0.008735264,-0.23505501,0.006419478
1734276468367,2024-12-15T15:27:48.367Z,36176,0.00446852,-0.25261262,1.3220219E-4
1734276468370,2024-12-15T15:27:48.370Z,36179,0.00446852,-0.25261262,1.3220219E-4
1734276468382,2024-12-15T15:27:48.382Z,36191,-0.003234848,-0.27065322,-0.00883016
1734276468385,2024-12-15T15:27:48.385Z,36194,-0.003234848,-0.27065322,-0.00883016
1734276468394,2024-12-15T15:27:48.394Z,36203,-0.0069995075,-0.28624806,-0.014499573
1734276468397,2024-12-15T15:27:48.397Z,36206,-0.0069995075,-0.28624806,-0.014499573
1734276468409,2024-12-15T15:27:48.409Z,36218,-0.007878785,-0.3057406,-0.014454186
1734276468414,2024-12-15T15:27:48.414Z,36223,-0.007878785,-0.3057406,-0.014454186
1734276468425,2024-12-15T15:27:48.425Z,36234,-0.004427749,-0.3174117,-0.017550945
1734276468429,2024-12-15T15:27:48.429Z,36238,-0.004427749,-0.3174117,-0.017550945
1734276468437,2024-12-15T15:27:48.437Z,36246,-0.012728316,-0.32956678,-0.012189536
1734276468441,2024-12-15T15:27:48.441Z,36250,-0.012728316,-0.32956678,-0.012189536
1734276468452,2024-12-15T15:27:48.452Z,36261,-0.028290132,-0.33830944,-0.010203809
1734276468456,2024-12-15T15:27:48.456Z,36265,-0.028290132,-0.33830944,-0.010203809
1734276468468,2024-12-15T15:27:48.468Z,36277,-0.024204725,-0.33631945,-0.010161637
1734276468471,2024-12-15T15:27:48.471Z,36280,-0.024204725,-0.33631945,-0.010161637
1734276468482,2024-12-15T15:27:48.482Z,36291,-0.038070768,-0.33531624,-0.01506257
1734276468486,2024-12-15T15:27:48.486Z,36295,-0.038070768,-0.33531624,-0.01506257
1734276468496,2024-12-15T15:27:48.496Z,36305,-0.039041996,-0.33774677,-0.018477825
1734276468502,2024-12-15T15:27:48.502Z,36311,-0.039041996,-0.33774677,-0.018477825
1734276468520,2024-12-15T15:27:48.520Z,36329,-0.033453878,-0.33335727,-0.015993623
1734276468523,2024-12-15T15:27:48.523Z,36332,-0.033453878,-0.33335727,-0.015993623
1734276468534,2024-12-15T15:27:48.534Z,36343,-0.037854463,-0.3294777,-0.012584834
1734276468538,2024-12-15T15:27:48.538Z,36347,-0.037854463,-0.3294777,-0.012584834
1734276468549,2024-12-15T15:27:48.549Z,36358,-0.03309427,-0.32221037,-0.02350369
1734276468553,2024-12-15T15:27:48.553Z,36362,-0.03309427,-0.32221037,-0.02350369
1734276468565,2024-12-15T15:27:48.565Z,36374,-0.022231258,-0.31545234,-0.021815686
1734276468568,2024-12-15T15:27:48.568Z,36377,-0.022231258,-0.31545234,-0.021815686
1734276468583,2024-12-15T15:27:48.583Z,36392,-0.03262948,-0.30236658,-0.0119703105
1734276468586,2024-12-15T15:27:48.586Z,36395,-0.03262948,-0.30236658,-0.0119703105
1734276468595,2024-12-15T15:27:48.595Z,36404,-0.021289008,-0.28637525,-0.0111920545
1734276468598,2024-12-15T15:27:48.598Z,36407,-0.021289008,-0.28637525,-0.0111920545
1734276468606,2024-12-15T15:27:48.606Z,36415,-0.01523532,-0.27185988,-0.008230865
1734276468609,2024-12-15T15:27:48.609Z,36418,-0.01523532,-0.27185988,-0.008230865
1734276468619,2024-12-15T15:27:48.619Z,36428,-0.02481837,-0.26320773,3.2436824E-4
1734276468622,2024-12-15T15:27:48.622Z,36431,-0.02481837,-0.26320773,3.2436824E-4
1734276468633,2024-12-15T15:27:48.633Z,36442,-0.012875366,-0.25798243,0.005115122
1734276468637,2024-12-15T15:27:48.637Z,36446,-0.012875366,-0.25798243,0.005115122
1734276468647,2024-12-15T15:27:48.647Z,36456,-0.0053697755,-0.24982919,3.3876317E-4
1734276468650,2024-12-15T15:27:48.650Z,36459,-0.0053697755,-0.24982919,3.3876317E-4
1734276468659,2024-12-15T15:27:48.659Z,36468,0.0010305948,-0.24899499,0.003608406
1734276468662,2024-12-15T15:27:48.662Z,36471,0.0010305948,-0.24899499,0.003608406
1734276468671,2024-12-15T15:27:48.671Z,36480,-0.0014309089,-0.24327673,-1.3479596E-4
1734276468674,2024-12-15T15:27:48.674Z,36483,-0.0014309089,-0.24327673,-1.3479596E-4
1734276468684,2024-12-15T15:27:48.684Z,36493,-0.0024595405,-0.24293208,0.005271822
1734276468687,2024-12-15T15:27:48.687Z,36496,-0.0024595405,-0.24293208,0.005271822
1734276468698,2024-12-15T15:27:48.698Z,36507,-0.0064834263,-0.244052,0.0056866407
1734276468701,2024-12-15T15:27:48.701Z,36510,-0.0064834263,-0.244052,0.0056866407
1734276468712,2024-12-15T15:27:48.712Z,36521,0.020494396,-0.2358755,0.0070890198
1734276468715,2024-12-15T15:27:48.715Z,36524,0.020494396,-0.2358755,0.0070890198
1734276468726,2024-12-15T15:27:48.726Z,36535,0.015032005,-0.23940092,0.008993715
1734276468730,2024-12-15T15:27:48.730Z,36539,0.015032005,-0.23940092,0.008993715
1734276468741,2024-12-15T15:27:48.741Z,36550,0.019213049,-0.24145256,0.013363957
1734276468745,2024-12-15T15:27:48.745Z,36554,0.019213049,-0.24145256,0.013363957
1734276468754,2024-12-15T15:27:48.754Z,36563,0.030456768,-0.24006455,0.014282612
1734276468758,2024-12-15T15:27:48.758Z,36567,0.030456768,-0.24006455,0.014282612
1734276468769,2024-12-15T15:27:48.769Z,36578,0.014748631,-0.23476405,0.006403686
1734276468772,2024-12-15T15:27:48.772Z,36581,0.014748631,-0.23476405,0.006403686
1734276468782,2024-12-15T15:27:48.782Z,36591,0.028666876,-0.2245656,0.00399369
1734276468785,2024-12-15T15:27:48.785Z,36594,0.028666876,-0.2245656,0.00399369
1734276468796,2024-12-15T15:27:48.796Z,36605,0.029815735,-0.20557214,0.0152979195
1734276468800,2024-12-15T15:27:48.800Z,36609,0.029815735,-0.20557214,0.0152979195
1734276468811,2024-12-15T15:27:48.811Z,36620,0.04152057,-0.17733043,0.0125175705
1734276468814,2024-12-15T15:27:48.814Z,36623,0.04152057,-0.17733043,0.0125175705
1734276468824,2024-12-15T15:27:48.824Z,36633,0.050177008,-0.14761338,0.00929284
1734276468828,2024-12-15T15:27:48.828Z,36637,0.050177008,-0.14761338,0.00929284
1734276468839,2024-12-15T15:27:48.839Z,36648,0.04548178,-0.124227926,-0.0036560597
1734276468842,2024-12-15T15:27:48.842Z,36651,0.04548178,-0.124227926,-0.0036560597
1734276468851,2024-12-15T15:27:48.851Z,36660,0.048392847,-0.10179764,-0.012102991
1734276468854,2024-12-15T15:27:48.854Z,36663,0.048392847,-0.10179764,-0.012102991
1734276468863,2024-12-15T15:27:48.863Z,36672,0.042017996,-0.090107396,0.003445444
1734276468865,2024-12-15T15:27:48.865Z,36674,0.042017996,-0.090107396,0.003445444
1734276468873,2024-12-15T15:27:48.873Z,36682,0.023308417,-0.07748114,0.011058359
1734276468876,2024-12-15T15:27:48.876Z,36685,0.023308417,-0.07748114,0.011058359
1734276468888,2024-12-15T15:27:48.888Z,36697,0.038490817,-0.050720226,0.0024205442
1734276468892,2024-12-15T15:27:48.892Z,36701,0.038490817,-0.050720226,0.0024205442
1734276468901,2024-12-15T15:27:48.901Z,36710,0.041576456,-0.025437668,0.0035341703
1734276468904,2024-12-15T15:27:48.904Z,36713,0.041576456,-0.025437668,0.0035341703
1734276468913,2024-12-15T15:27:48.913Z,36722,0.032581806,-0.009448685,0.013397961
1734276468917,2024-12-15T15:27:48.917Z,36726,0.032581806,-0.009448685,0.013397961
1734276468928,2024-12-15T15:27:48.928Z,36737,0.024122965,0.012394027,-0.010395556
1734276468931,2024-12-15T15:27:48.931Z,36740,0.024122965,0.012394027,-0.010395556
1734276468943,2024-12-15T15:27:48.943Z,36752,0.04119843,0.03422711,-0.022266028
1734276468947,2024-12-15T15:27:48.947Z,36756,0.04119843,0.03422711,-0.022266028
1734276468958,2024-12-15T15:27:48.958Z,36767,0.045715846,0.05018585,-0.008715395
1734276468961,2024-12-15T15:27:48.961Z,36770,0.045715846,0.05018585,-0.008715395
1734276468971,2024-12-15T15:27:48.971Z,36780,0.03569593,0.06123601,-0.0013186942
1734276468975,2024-12-15T15:27:48.975Z,36784,0.03569593,0.06123601,-0.0013186942
1734276468985,2024-12-15T15:27:48.985Z,36794,0.03520205,0.09421573,-0.013281524
1734276468987,2024-12-15T15:27:48.987Z,36796,0.03520205,0.09421573,-0.013281524
1734276468999,2024-12-15T15:27:48.999Z,36808,0.035305023,0.12521373,-0.007937729
1734276469002,2024-12-15T15:27:49.002Z,36811,0.035305023,0.12521373,-0.007937729
1734276469012,2024-12-15T15:27:49.012Z,36821,0.04520351,0.15814608,-0.011083453
1734276469015,2024-12-15T15:27:49.015Z,36824,0.04520351,0.15814608,-0.011083453
1734276469025,2024-12-15T15:27:49.025Z,36834,0.032045104,0.18668921,-0.022519024
1734276469029,2024-12-15T15:27:49.029Z,36838,0.032045104,0.18668921,-0.022519024
1734276469042,2024-12-15T15:27:49.042Z,36851,0.02122345,0.21085586,-0.028806565
1734276469045,2024-12-15T15:27:49.045Z,36854,0.02122345,0.21085586,-0.028806565
1734276469056,2024-12-15T15:27:49.056Z,36865,0.04204994,0.22967182,-0.03137153
1734276469061,2024-12-15T15:27:49.061Z,36870,0.04204994,0.22967182,-0.03137153
1734276469076,2024-12-15T15:27:49.076Z,36885,0.042219847,0.24509662,-0.023420068
1734276469080,2024-12-15T15:27:49.080Z,36889,0.042219847,0.24509662,-0.023420068
1734276469090,2024-12-15T15:27:49.090Z,36899,0.036941867,0.2649338,-0.019644618
1734276469094,2024-12-15T15:27:49.094Z,36903,0.036941867,0.2649338,-0.019644618
1734276469103,2024-12-15T15:27:49.103Z,36912,0.057506967,0.2901569,-0.027351586
1734276469106,2024-12-15T15:27:49.106Z,36915,0.057506967,0.2901569,-0.027351586
1734276469115,2024-12-15T15:27:49.115Z,36924,0.0695193,0.31396526,-0.032221496
1734276469117,2024-12-15T15:27:49.117Z,36926,0.0695193,0.31396526,-0.032221496
1734276469126,2024-12-15T15:27:49.126Z,36935,0.04359545,0.3231828,-0.024057122
1734276469129,2024-12-15T15:27:49.129Z,36938,0.04359545,0.3231828,-0.024057122
1734276469139,2024-12-15T15:27:49.139Z,36948,0.035203464,0.33437,-0.04060155
1734276469141,2024-12-15T15:27:49.141Z,36950,0.035203464,0.33437,-0.04060155
1734276469150,2024-12-15T15:27:49.150Z,36959,0.023335708,0.33582044,-0.046491116
1734276469152,2024-12-15T15:27:49.152Z,36961,0.023335708,0.33582044,-0.046491116
1734276469162,2024-12-15T15:27:49.162Z,36971,0.013541063,0.32750216,-0.012619912
1734276469166,2024-12-15T15:27:49.166Z,36975,0.013541063,0.32750216,-0.012619912
1734276469176,2024-12-15T15:27:49.176Z,36985,0.004682988,0.33036172,-0.001189382
1734276469180,2024-12-15T15:27:49.180Z,36989,0.004682988,0.33036172,-0.001189382
1734276469191,2024-12-15T15:27:49.191Z,37000,0.028924145,0.34244907,-0.014692932
1734276469194,2024-12-15T15:27:49.194Z,37003,0.028924145,0.34244907,-0.014692932
1734276469202,2024-12-15T15:27:49.202Z,37011,0.026820494,0.33744183,-0.013543604
1734276469204,2024-12-15T15:27:49.204Z,37013,0.026820494,0.33744183,-0.013543604
1734276469212,2024-12-15T15:27:49.212Z,37021,0.026250094,0.34170592,-0.022072645
1734276469215,2024-12-15T15:27:49.215Z,37024,0.026250094,0.34170592,-0.022072645
1734276469225,2024-12-15T15:27:49.225Z,37034,0.02132781,0.34303966,-0.026554612
1734276469229,2024-12-15T15:27:49.229Z,37038,0.02132781,0.34303966,-0.026554612
1734276469236,2024-12-15T15:27:49.236Z,37045,0.038356837,0.3468261,-0.025930077
1734276469239,2024-12-15T15:27:49.239Z,37048,0.038356837,0.3468261,-0.025930077
1734276469248,2024-12-15T15:27:49.248Z,37057,0.031875618,0.34524855,-0.0023338206
1734276469251,2024-12-15T15:27:49.251Z,37060,0.031875618,0.34524855,-0.0023338206
1734276469262,2024-12-15T15:27:49.262Z,37071,0.01580967,0.34656557,-0.017002825
1734276469265,2024-12-15T15:27:49.265Z,37074,0.01580967,0.34656557,-0.017002825
1734276469274,2024-12-15T15:27:49.274Z,37083,0.04326813,0.3551896,-0.020550877
1734276469277,2024-12-15T15:27:49.277Z,37086,0.04326813,0.3551896,-0.020550877
1734276469286,2024-12-15T15:27:49.286Z,37095,0.042163644,0.35260814,-0.014899669
1734276469290,2024-12-15T15:27:49.290Z,37099,0.042163644,0.35260814,-0.014899669
1734276469300,2024-12-15T15:27:49.300Z,37109,0.026181577,0.35249478,-0.023934573
1734276469303,2024-12-15T15:27:49.303Z,37112,0.026181577,0.35249478,-0.023934573
1734276469314,2024-12-15T15:27:49.314Z,37123,0.022713333,0.3470386,-0.028449144
1734276469316,2024-12-15T15:27:49.316Z,37125,0.022713333,0.3470386,-0.028449144
1734276469324,2024-12-15T15:27:49.324Z,37133,0.03858705,0.34014645,-0.011368482
1734276469327,2024-12-15T15:27:49.327Z,37136,0.03858705,0.34014645,-0.011368482
1734276469339,2024-12-15T15:27:49.339Z,37148,0.039621532,0.33132458,0.0017854589
1734276469343,2024-12-15T15:27:49.343Z,37152,0.039621532,0.33132458,0.0017854589
1734276469352,2024-12-15T15:27:49.352Z,37161,0.03952498,0.32105044,-0.0037904393
1734276469354,2024-12-15T15:27:49.354Z,37163,0.03952498,0.32105044,-0.0037904393
1734276469364,2024-12-15T15:27:49.364Z,37173,0.046112046,0.31420663,-0.007103326
1734276469368,2024-12-15T15:27:49.368Z,37177,0.046112046,0.31420663,-0.007103326
1734276469378,2024-12-15T15:27:49.378Z,37187,0.028100358,0.2990783,-0.001352044
1734276469382,2024-12-15T15:27:49.382Z,37191,0.028100358,0.2990783,-0.001352044
1734276469391,2024-12-15T15:27:49.391Z,37200,0.025229376,0.28735957,0.003236799
1734276469394,2024-12-15T15:27:49.394Z,37203,0.025229376,0.28735957,0.003236799
1734276469403,2024-12-15T15:27:49.403Z,37212,0.022701481,0.27320957,-0.0094982665
1734276469407,2024-12-15T15:27:49.407Z,37216,0.022701481,0.27320957,-0.0094982665
1734276469416,2024-12-15T15:27:49.416Z,37225,0.02247842,0.25956437,-0.011542678
1734276469419,2024-12-15T15:27:49.419Z,37228,0.02247842,0.25956437,-0.011542678
1734276469428,2024-12-15T15:27:49.428Z,37237,0.02099295,0.24009858,-0.016513824
1734276469430,2024-12-15T15:27:49.430Z,37239,0.02099295,0.24009858,-0.016513824
1734276469439,2024-12-15T15:27:49.439Z,37248,0.023631874,0.21773905,-0.02442628
1734276469442,2024-12-15T15:27:49.442Z,37251,0.023631874,0.21773905,-0.02442628
1734276469451,2024-12-15T15:27:49.451Z,37260,0.025072187,0.20419808,-0.024019271
1734276469454,2024-12-15T15:27:49.454Z,37263,0.025072187,0.20419808,-0.024019271
1734276469464,2024-12-15T15:27:49.464Z,37273,0.020951498,0.1857957,-0.024663987
1734276469467,2024-12-15T15:27:49.467Z,37276,0.020951498,0.1857957,-0.024663987
1734276469477,2024-12-15T15:27:49.477Z,37286,0.006001108,0.16788632,-0.03226098
1734276469480,2024-12-15T15:27:49.480Z,37289,0.006001108,0.16788632,-0.03226098
1734276469490,2024-12-15T15:27:49.490Z,37299,8.089673E-4,0.14801793,-0.031687766
1734276469493,2024-12-15T15:27:49.493Z,37302,8.089673E-4,0.14801793,-0.031687766
1734276469502,2024-12-15T15:27:49.502Z,37311,-0.0039322963,0.13059142,-0.03458294
1734276469505,2024-12-15T15:27:49.505Z,37314,-0.0039322963,0.13059142,-0.03458294
1734276469515,2024-12-15T15:27:49.515Z,37324,-0.01354843,0.11413867,-0.03308204
1734276469518,2024-12-15T15:27:49.518Z,37327,-0.01354843,0.11413867,-0.03308204
1734276469527,2024-12-15T15:27:49.527Z,37336,-0.0084742755,0.09572569,-0.025713505
1734276469530,2024-12-15T15:27:49.530Z,37339,-0.0084742755,0.09572569,-0.025713505
1734276469538,2024-12-15T15:27:49.538Z,37347,-0.0028859961,0.08170072,-0.022779673
1734276469541,2024-12-15T15:27:49.541Z,37350,-0.0028859961,0.08170072,-0.022779673
1734276469551,2024-12-15T15:27:49.551Z,37360,-0.005109662,0.071575,-0.025818137
1734276469561,2024-12-15T15:27:49.561Z,37370,-0.005109662,0.071575,-0.025818137
1734276469570,2024-12-15T15:27:49.570Z,37379,-0.020953989,0.058993574,-0.03582084
1734276469573,2024-12-15T15:27:49.573Z,37382,-0.020953989,0.058993574,-0.03582084
1734276469583,2024-12-15T15:27:49.583Z,37392,-0.019587927,0.051279206,-0.04239309
1734276469585,2024-12-15T15:27:49.585Z,37394,-0.019587927,0.051279206,-0.04239309
1734276469593,2024-12-15T15:27:49.593Z,37402,-0.0035154806,0.044536732,-0.03960919
1734276469596,2024-12-15T15:27:49.596Z,37405,-0.0035154806,0.044536732,-0.03960919
1734276469608,2024-12-15T15:27:49.608Z,37417,-6.389661E-4,0.036326688,-0.03638494
1734276469612,2024-12-15T15:27:49.612Z,37421,-6.389661E-4,0.036326688,-0.03638494
1734276469621,2024-12-15T15:27:49.621Z,37430,-0.008466569,0.032499116,-0.039148092
1734276469625,2024-12-15T15:27:49.625Z,37434,-0.008466569,0.032499116,-0.039148092
1734276469634,2024-12-15T15:27:49.634Z,37443,-0.0011841733,0.034041077,-0.037578348
1734276469637,2024-12-15T15:27:49.637Z,37446,-0.0011841733,0.034041077,-0.037578348
1734276469647,2024-12-15T15:27:49.647Z,37456,0.009021124,0.037043795,-0.03606701
1734276469650,2024-12-15T15:27:49.650Z,37459,0.009021124,0.037043795,-0.03606701
1734276469662,2024-12-15T15:27:49.662Z,37471,0.01331413,0.04053421,-0.025861742
1734276469665,2024-12-15T15:27:49.665Z,37474,0.01331413,0.04053421,-0.025861742
1734276469676,2024-12-15T15:27:49.676Z,37485,0.015068941,0.040126156,-0.017629892
1734276469679,2024-12-15T15:27:49.679Z,37488,0.015068941,0.040126156,-0.017629892
1734276469688,2024-12-15T15:27:49.688Z,37497,0.01482717,0.042637773,-0.0140190115
1734276469690,2024-12-15T15:27:49.690Z,37499,0.01482717,0.042637773,-0.0140190115
1734276469700,2024-12-15T15:27:49.700Z,37509,0.01444021,0.04416476,-0.0029835417
1734276469703,2024-12-15T15:27:49.703Z,37512,0.01444021,0.04416476,-0.0029835417
1734276469715,2024-12-15T15:27:49.715Z,37524,0.023558034,0.055962365,-0.005260287
1734276469717,2024-12-15T15:27:49.717Z,37526,0.023558034,0.055962365,-0.005260287
1734276469726,2024-12-15T15:27:49.726Z,37535,0.032401703,0.06192433,-0.0075291675
1734276469728,2024-12-15T15:27:49.728Z,37537,0.032401703,0.06192433,-0.0075291675
1734276469738,2024-12-15T15:27:49.738Z,37547,0.038484555,0.068890184,-0.0024698367
1734276469741,2024-12-15T15:27:49.741Z,37550,0.038484555,0.068890184,-0.0024698367
1734276469751,2024-12-15T15:27:49.751Z,37560,0.04044055,0.07245441,-0.0056809746
1734276469755,2024-12-15T15:27:49.755Z,37564,0.04044055,0.07245441,-0.0056809746
1734276469766,2024-12-15T15:27:49.766Z,37575,0.03841935,0.07113544,-0.008863777
1734276469769,2024-12-15T15:27:49.769Z,37578,0.03841935,0.07113544,-0.008863777
1734276469779,2024-12-15T15:27:49.779Z,37588,0.041736715,0.071760744,-0.0047660437
1734276469782,2024-12-15T15:27:49.782Z,37591,0.041736715,0.071760744,-0.0047660437
1734276469793,2024-12-15T15:27:49.793Z,37602,0.029325955,0.073367275,-0.004996472
1734276469796,2024-12-15T15:27:49.796Z,37605,0.029325955,0.073367275,-0.004996472
1734276469805,2024-12-15T15:27:49.805Z,37614,0.03463475,0.0735465,-0.0093947975
1734276469809,2024-12-15T15:27:49.809Z,37618,0.03463475,0.0735465,-0.0093947975
1734276469817,2024-12-15T15:27:49.817Z,37626,0.030506104,0.068370685,-0.010680796
1734276469820,2024-12-15T15:27:49.820Z,37629,0.030506104,0.068370685,-0.010680796
1734276469830,2024-12-15T15:27:49.830Z,37639,0.017090466,0.06075376,-0.005458204
1734276469833,2024-12-15T15:27:49.833Z,37642,0.017090466,0.06075376,-0.005458204
1734276469841,2024-12-15T15:27:49.841Z,37650,0.018363694,0.05509054,-0.005399643
1734276469843,2024-12-15T15:27:49.843Z,37652,0.018363694,0.05509054,-0.005399643
1734276469851,2024-12-15T15:27:49.851Z,37660,0.014297486,0.046996124,-0.010877613
1734276469854,2024-12-15T15:27:49.854Z,37663,0.014297486,0.046996124,-0.010877613
1734276469862,2024-12-15T15:27:49.862Z,37671,0.01853296,0.04233329,-0.014566717
1734276469865,2024-12-15T15:27:49.865Z,37674,0.01853296,0.04233329,-0.014566717
1734276469875,2024-12-15T15:27:49.875Z,37684,0.017413193,0.032304525,-0.0068079233
1734276469879,2024-12-15T15:27:49.879Z,37688,0.017413193,0.032304525,-0.0068079233
1734276469887,2024-12-15T15:27:49.887Z,37696,0.0076161856,0.030084552,-0.010091152
1734276469890,2024-12-15T15:27:49.890Z,37699,0.0076161856,0.030084552,-0.010091152
1734276469899,2024-12-15T15:27:49.899Z,37708,-0.007466017,0.024446325,-0.020504091
1734276469901,2024-12-15T15:27:49.901Z,37710,-0.007466017,0.024446325,-0.020504091
1734276469910,2024-12-15T15:27:49.910Z,37719,-0.0067987214,0.019299004,-0.022350105
1734276469913,2024-12-15T15:27:49.913Z,37722,-0.0067987214,0.019299004,-0.022350105
1734276469922,2024-12-15T15:27:49.922Z,37731,-0.0025716126,0.019526368,-0.01316658
1734276469925,2024-12-15T15:27:49.925Z,37734,-0.0025716126,0.019526368,-0.01316658
1734276469932,2024-12-15T15:27:49.932Z,37741,-0.005045418,0.017796526,-0.016027031
1734276469935,2024-12-15T15:27:49.935Z,37744,-0.005045418,0.017796526,-0.016027031
1734276469942,2024-12-15T15:27:49.942Z,37751,-0.007864234,0.0121550895,-0.015810516
1734276469945,2024-12-15T15:27:49.945Z,37754,-0.007864234,0.0121550895,-0.015810516
1734276469953,2024-12-15T15:27:49.953Z,37762,-0.011964793,0.01138761,-0.013520988
1734276469956,2024-12-15T15:27:49.956Z,37765,-0.011964793,0.01138761,-0.013520988
1734276469966,2024-12-15T15:27:49.966Z,37775,-0.012451658,0.0115809385,-0.008777378
1734276469969,2024-12-15T15:27:49.969Z,37778,-0.012451658,0.0115809385,-0.008777378
1734276469979,2024-12-15T15:27:49.979Z,37788,-0.012280894,0.011265953,-0.0055890023
1734276469982,2024-12-15T15:27:49.982Z,37791,-0.012280894,0.011265953,-0.0055890023
1734276469990,2024-12-15T15:27:49.990Z,37799,-0.021642752,0.011907983,-9.875263E-4
1734276469993,2024-12-15T15:27:49.993Z,37802,-0.021642752,0.011907983,-9.875263E-4
1734276470002,2024-12-15T15:27:50.002Z,37811,-0.028659455,0.014485923,-0.008993414
1734276470005,2024-12-15T15:27:50.005Z,37814,-0.028659455,0.014485923,-0.008993414
1734276470015,2024-12-15T15:27:50.015Z,37824,-0.007183856,0.016083702,-0.005647187
1734276470018,2024-12-15T15:27:50.018Z,37827,-0.007183856,0.016083702,-0.005647187
1734276470025,2024-12-15T15:27:50.025Z,37834,-0.009527918,0.016701225,-0.0036954556
1734276470028,2024-12-15T15:27:50.028Z,37837,-0.009527918,0.016701225,-0.0036954556
1734276470036,2024-12-15T15:27:50.036Z,37845,-0.002445452,0.01730951,-0.0071088383
1734276470039,2024-12-15T15:27:50.039Z,37848,-0.002445452,0.01730951,-0.0071088383
1734276470048,2024-12-15T15:27:50.048Z,37857,-0.0035437066,0.016442643,-0.001766681
1734276470051,2024-12-15T15:27:50.051Z,37860,-0.0035437066,0.016442643,-0.001766681
1734276470060,2024-12-15T15:27:50.060Z,37869,-0.012255817,0.014096932,-0.010152157
1734276470064,2024-12-15T15:27:50.064Z,37873,-0.012255817,0.014096932,-0.010152157
1734276470074,2024-12-15T15:27:50.074Z,37883,-0.013402513,0.009783315,-0.01466611
1734276470078,2024-12-15T15:27:50.078Z,37887,-0.013402513,0.009783315,-0.01466611
1734276470089,2024-12-15T15:27:50.089Z,37898,-0.0133513,0.0035046132,-0.016741361
1734276470096,2024-12-15T15:27:50.096Z,37905,-0.0133513,0.0035046132,-0.016741361
1734276470106,2024-12-15T15:27:50.106Z,37915,-0.015602439,-0.002290281,-0.022171972
1734276470109,2024-12-15T15:27:50.109Z,37918,-0.015602439,-0.002290281,-0.022171972
1734276470117,2024-12-15T15:27:50.117Z,37926,-0.016233612,-0.010534651,-0.023182929
1734276470120,2024-12-15T15:27:50.120Z,37929,-0.016233612,-0.010534651,-0.023182929
1734276470127,2024-12-15T15:27:50.127Z,37936,-0.023539864,-0.016833968,-0.026123313
1734276470130,2024-12-15T15:27:50.130Z,37939,-0.023539864,-0.016833968,-0.026123313
1734276470139,2024-12-15T15:27:50.139Z,37948,-0.03473774,-0.029987112,-0.027427284
1734276470142,2024-12-15T15:27:50.142Z,37951,-0.03473774,-0.029987112,-0.027427284
1734276470151,2024-12-15T15:27:50.151Z,37960,-0.05154679,-0.036320854,-0.03075513
1734276470153,2024-12-15T15:27:50.153Z,37962,-0.05154679,-0.036320854,-0.03075513
1734276470163,2024-12-15T15:27:50.163Z,37972,-0.06079085,-0.04218382,-0.033694834
1734276470167,2024-12-15T15:27:50.167Z,37976,-0.06079085,-0.04218382,-0.033694834
1734276470174,2024-12-15T15:27:50.174Z,37983,-0.06389429,-0.049045037,-0.039210733
1734276470177,2024-12-15T15:27:50.177Z,37986,-0.06389429,-0.049045037,-0.039210733
1734276470185,2024-12-15T15:27:50.185Z,37994,-0.06726699,-0.04762065,-0.044764783
1734276470188,2024-12-15T15:27:50.188Z,37997,-0.06726699,-0.04762065,-0.044764783
1734276470200,2024-12-15T15:27:50.200Z,38009,-0.066687085,-0.04375904,-0.047855437
1734276470203,2024-12-15T15:27:50.203Z,38012,-0.066687085,-0.04375904,-0.047855437
1734276470211,2024-12-15T15:27:50.211Z,38020,-0.06415659,-0.03306675,-0.050017327
1734276470213,2024-12-15T15:27:50.213Z,38022,-0.06415659,-0.03306675,-0.050017327
1734276470223,2024-12-15T15:27:50.223Z,38032,-0.075890034,-0.01797624,-0.05216035
1734276470226,2024-12-15T15:27:50.226Z,38035,-0.075890034,-0.01797624,-0.05216035
1734276470237,2024-12-15T15:27:50.237Z,38046,-0.06527913,0.015675554,-0.058629923
1734276470239,2024-12-15T15:27:50.239Z,38048,-0.06527913,0.015675554,-0.058629923
1734276470248,2024-12-15T15:27:50.248Z,38057,-0.06601734,0.042985823,-0.05577519
1734276470251,2024-12-15T15:27:50.251Z,38060,-0.06601734,0.042985823,-0.05577519
1734276470259,2024-12-15T15:27:50.259Z,38068,-0.070237465,0.077627696,-0.057159837
1734276470263,2024-12-15T15:27:50.263Z,38072,-0.070237465,0.077627696,-0.057159837
1734276470271,2024-12-15T15:27:50.271Z,38080,-0.073008016,0.11276223,-0.05399185
1734276470274,2024-12-15T15:27:50.274Z,38083,-0.073008016,0.11276223,-0.05399185
1734276470284,2024-12-15T15:27:50.284Z,38093,-0.08176416,0.1498665,-0.05830362
1734276470286,2024-12-15T15:27:50.286Z,38095,-0.08176416,0.1498665,-0.05830362
1734276470295,2024-12-15T15:27:50.295Z,38104,-0.055853415,0.19088554,-0.055917945
1734276470298,2024-12-15T15:27:50.298Z,38107,-0.055853415,0.19088554,-0.055917945
1734276470306,2024-12-15T15:27:50.306Z,38115,-0.05200412,0.22117218,-0.039094895
1734276470309,2024-12-15T15:27:50.309Z,38118,-0.05200412,0.22117218,-0.039094895
1734276470318,2024-12-15T15:27:50.318Z,38127,-0.034090362,0.2587859,-0.027071442
1734276470321,2024-12-15T15:27:50.321Z,38130,-0.034090362,0.2587859,-0.027071442
1734276470329,2024-12-15T15:27:50.329Z,38138,-0.04554505,0.28760818,-0.029254766
1734276470331,2024-12-15T15:27:50.331Z,38140,-0.04554505,0.28760818,-0.029254766
1734276470341,2024-12-15T15:27:50.341Z,38150,-0.044337098,0.3164269,-0.019728363
1734276470345,2024-12-15T15:27:50.345Z,38154,-0.044337098,0.3164269,-0.019728363
1734276470353,2024-12-15T15:27:50.353Z,38162,-0.027882634,0.34572,-0.013189316
1734276470355,2024-12-15T15:27:50.355Z,38164,-0.027882634,0.34572,-0.013189316
1734276470364,2024-12-15T15:27:50.364Z,38173,-0.029897667,0.37402502,-0.015946476
1734276470367,2024-12-15T15:27:50.367Z,38176,-0.029897667,0.37402502,-0.015946476
1734276470375,2024-12-15T15:27:50.375Z,38184,-0.019181011,0.39841616,-0.0064995876
1734276470378,2024-12-15T15:27:50.378Z,38187,-0.019181011,0.39841616,-0.0064995876
1734276470386,2024-12-15T15:27:50.386Z,38195,-0.00890569,0.42035544,8.9782436E-4
1734276470389,2024-12-15T15:27:50.389Z,38198,-0.00890569,0.42035544,8.9782436E-4
1734276470397,2024-12-15T15:27:50.397Z,38206,2.716858E-5,0.4383723,-0.0079909265
1734276470399,2024-12-15T15:27:50.399Z,38208,2.716858E-5,0.4383723,-0.0079909265
1734276470406,2024-12-15T15:27:50.406Z,38215,-0.0046760347,0.44661495,-0.011629849
1734276470409,2024-12-15T15:27:50.409Z,38218,-0.0046760347,0.44661495,-0.011629849
1734276470417,2024-12-15T15:27:50.417Z,38226,0.0047934917,0.4465495,0.0011624095
1734276470420,2024-12-15T15:27:50.420Z,38229,0.0047934917,0.4465495,0.0011624095
1734276470427,2024-12-15T15:27:50.427Z,38236,0.020539666,0.4489238,9.432732E-4
1734276470430,2024-12-15T15:27:50.430Z,38239,0.020539666,0.4489238,9.432732E-4
1734276470439,2024-12-15T15:27:50.439Z,38248,0.04138425,0.4454539,-0.004923224
1734276470443,2024-12-15T15:27:50.443Z,38252,0.04138425,0.4454539,-0.004923224
1734276470452,2024-12-15T15:27:50.452Z,38261,0.03741363,0.43029115,0.007442385
1734276470455,2024-12-15T15:27:50.455Z,38264,0.03741363,0.43029115,0.007442385
1734276470466,2024-12-15T15:27:50.466Z,38275,0.029782446,0.42002654,0.00242132
1734276470469,2024-12-15T15:27:50.469Z,38278,0.029782446,0.42002654,0.00242132
1734276470477,2024-12-15T15:27:50.477Z,38286,0.028814716,0.40196133,-0.005602211
1734276470481,2024-12-15T15:27:50.481Z,38290,0.028814716,0.40196133,-0.005602211
1734276470488,2024-12-15T15:27:50.488Z,38297,0.025052309,0.38392377,-0.0052109957
1734276470490,2024-12-15T15:27:50.490Z,38299,0.025052309,0.38392377,-0.0052109957
1734276470500,2024-12-15T15:27:50.500Z,38309,0.04363403,0.36735907,0.013207703
1734276470502,2024-12-15T15:27:50.502Z,38311,0.04363403,0.36735907,0.013207703
1734276470509,2024-12-15T15:27:50.509Z,38318,0.029960195,0.3381004,0.014008969
1734276470512,2024-12-15T15:27:50.512Z,38321,0.029960195,0.3381004,0.014008969
1734276470521,2024-12-15T15:27:50.521Z,38330,0.011023357,0.3083458,0.0036594865
1734276470523,2024-12-15T15:27:50.523Z,38332,0.011023357,0.3083458,0.0036594865
1734276470532,2024-12-15T15:27:50.532Z,38341,0.025310058,0.2707774,0.015854716
1734276470535,2024-12-15T15:27:50.535Z,38344,0.025310058,0.2707774,0.015854716
1734276470548,2024-12-15T15:27:50.548Z,38357,0.024418248,0.23516467,0.03783557
1734276470552,2024-12-15T15:27:50.552Z,38361,0.024418248,0.23516467,0.03783557
1734276470560,2024-12-15T15:27:50.560Z,38369,0.015235842,0.2122461,0.027533082
1734276470563,2024-12-15T15:27:50.563Z,38372,0.015235842,0.2122461,0.027533082
1734276470571,2024-12-15T15:27:50.571Z,38380,0.033235505,0.17908555,0.018378258
1734276470575,2024-12-15T15:27:50.575Z,38384,0.033235505,0.17908555,0.018378258
1734276470584,2024-12-15T15:27:50.584Z,38393,0.0051647774,0.1566792,0.037754446
1734276470587,2024-12-15T15:27:50.587Z,38396,0.0051647774,0.1566792,0.037754446
1734276470595,2024-12-15T15:27:50.595Z,38404,-0.016230613,0.14547996,0.036819305
1734276470597,2024-12-15T15:27:50.597Z,38406,-0.016230613,0.14547996,0.036819305
1734276470607,2024-12-15T15:27:50.607Z,38416,-0.05167117,0.13326049,0.024017302
1734276470609,2024-12-15T15:27:50.609Z,38418,-0.05167117,0.13326049,0.024017302
1734276470617,2024-12-15T15:27:50.617Z,38426,-0.046320383,0.12049721,0.015721262
1734276470620,2024-12-15T15:27:50.620Z,38429,-0.046320383,0.12049721,0.015721262
1734276470627,2024-12-15T15:27:50.627Z,38436,-0.016430147,0.10621668,0.012595176
1734276470630,2024-12-15T15:27:50.630Z,38439,-0.016430147,0.10621668,0.012595176
1734276470638,2024-12-15T15:27:50.638Z,38447,0.012713054,0.08702231,0.014459431
1734276470640,2024-12-15T15:27:50.640Z,38449,0.012713054,0.08702231,0.014459431
1734276470652,2024-12-15T15:27:50.652Z,38461,0.019758936,0.06977407,0.024336664
1734276470654,2024-12-15T15:27:50.654Z,38463,0.019758936,0.06977407,0.024336664
1734276470662,2024-12-15T15:27:50.662Z,38471,0.03524413,0.051562488,0.016557068
1734276470664,2024-12-15T15:27:50.664Z,38473,0.03524413,0.051562488,0.016557068
1734276470673,2024-12-15T15:27:50.673Z,38482,0.01460871,0.03728322,0.015477091
1734276470676,2024-12-15T15:27:50.676Z,38485,0.01460871,0.03728322,0.015477091
1734276470685,2024-12-15T15:27:50.685Z,38494,-0.0052284445,0.03228624,0.021612495
1734276470688,2024-12-15T15:27:50.688Z,38497,-0.0052284445,0.03228624,0.021612495
1734276470695,2024-12-15T15:27:50.695Z,38504,-0.013307857,0.029232468,0.034403116
1734276470698,2024-12-15T15:27:50.698Z,38507,-0.013307857,0.029232468,0.034403116
1734276470705,2024-12-15T15:27:50.705Z,38514,-0.012032363,0.034463424,0.03304717
1734276470707,2024-12-15T15:27:50.707Z,38516,-0.012032363,0.034463424,0.03304717
1734276470715,2024-12-15T15:27:50.715Z,38524,-0.014545243,0.028927596,0.03673732
1734276470717,2024-12-15T15:27:50.717Z,38526,-0.014545243,0.028927596,0.03673732
1734276470724,2024-12-15T15:27:50.724Z,38533,-0.014471032,0.02482948,0.045915484
1734276470726,2024-12-15T15:27:50.726Z,38535,-0.014471032,0.02482948,0.045915484
1734276470735,2024-12-15T15:27:50.735Z,38544,0.0578107,0.02658101,0.04881373
1734276470738,2024-12-15T15:27:50.738Z,38547,0.0578107,0.02658101,0.04881373
1734276470748,2024-12-15T15:27:50.748Z,38557,0.06027107,0.014695491,0.050577547
1734276470750,2024-12-15T15:27:50.750Z,38559,0.06027107,0.014695491,0.050577547
1734276470759,2024-12-15T15:27:50.759Z,38568,0.055922482,-0.0020252808,0.05482775
1734276470762,2024-12-15T15:27:50.762Z,38571,0.055922482,-0.0020252808,0.05482775
1734276470772,2024-12-15T15:27:50.772Z,38581,0.055197194,-0.009916641,0.04584598
1734276470775,2024-12-15T15:27:50.775Z,38584,0.055197194,-0.009916641,0.04584598
1734276470784,2024-12-15T15:27:50.784Z,38593,0.07267936,-0.01727489,0.03300884
1734276470786,2024-12-15T15:27:50.786Z,38595,0.07267936,-0.01727489,0.03300884
1734276470793,2024-12-15T15:27:50.793Z,38602,0.053734772,-0.03289822,0.04720646
1734276470795,2024-12-15T15:27:50.795Z,38604,0.053734772,-0.03289822,0.04720646
1734276470803,2024-12-15T15:27:50.803Z,38612,0.02318811,-0.051935725,0.050819427
1734276470805,2024-12-15T15:27:50.805Z,38614,0.02318811,-0.051935725,0.050819427
1734276470814,2024-12-15T15:27:50.814Z,38623,0.030006468,-0.059266258,0.05518571
1734276470817,2024-12-15T15:27:50.817Z,38626,0.030006468,-0.059266258,0.05518571
1734276470826,2024-12-15T15:27:50.826Z,38635,0.077060975,-0.065140605,0.063302904
1734276470829,2024-12-15T15:27:50.829Z,38638,0.077060975,-0.065140605,0.063302904
1734276470837,2024-12-15T15:27:50.837Z,38646,0.086971365,-0.07442241,0.06588372
1734276470840,2024-12-15T15:27:50.840Z,38649,0.086971365,-0.07442241,0.06588372
1734276470849,2024-12-15T15:27:50.849Z,38658,0.08267467,-0.09344319,0.077780895
1734276470852,2024-12-15T15:27:50.852Z,38661,0.08267467,-0.09344319,0.077780895
1734276470861,2024-12-15T15:27:50.861Z,38670,0.074082874,-0.09193702,0.06913844
1734276470863,2024-12-15T15:27:50.863Z,38672,0.074082874,-0.09193702,0.06913844
1734276470871,2024-12-15T15:27:50.871Z,38680,0.077275366,-0.089435026,0.058052387
1734276470873,2024-12-15T15:27:50.873Z,38682,0.077275366,-0.089435026,0.058052387
1734276470880,2024-12-15T15:27:50.880Z,38689,0.082476765,-0.088383004,0.06316977
1734276470882,2024-12-15T15:27:50.882Z,38691,0.082476765,-0.088383004,0.06316977
1734276470889,2024-12-15T15:27:50.889Z,38698,0.07613639,-0.08684483,0.055314805
1734276470891,2024-12-15T15:27:50.891Z,38700,0.07613639,-0.08684483,0.055314805
1734276470899,2024-12-15T15:27:50.899Z,38708,0.06680143,-0.08897864,0.04674441
1734276470901,2024-12-15T15:27:50.901Z,38710,0.06680143,-0.08897864,0.04674441
1734276470908,2024-12-15T15:27:50.908Z,38717,0.073849835,-0.08968962,0.04371482
1734276470910,2024-12-15T15:27:50.910Z,38719,0.073849835,-0.08968962,0.04371482
1734276470919,2024-12-15T15:27:50.919Z,38728,0.08573074,-0.09090269,0.043264896
1734276470921,2024-12-15T15:27:50.921Z,38730,0.08573074,-0.09090269,0.043264896
1734276470930,2024-12-15T15:27:50.930Z,38739,0.055180293,-0.093639925,0.0386509
1734276470933,2024-12-15T15:27:50.933Z,38742,0.055180293,-0.093639925,0.0386509
1734276470942,2024-12-15T15:27:50.942Z,38751,0.05286386,-0.087643825,0.018459765
1734276470945,2024-12-15T15:27:50.945Z,38754,0.05286386,-0.087643825,0.018459765
1734276470953,2024-12-15T15:27:50.953Z,38762,0.05537482,-0.0894749,0.017240463
1734276470955,2024-12-15T15:27:50.955Z,38764,0.05537482,-0.0894749,0.017240463
1734276470964,2024-12-15T15:27:50.964Z,38773,0.047092278,-0.09326785,0.026054742
1734276470968,2024-12-15T15:27:50.968Z,38777,0.047092278,-0.09326785,0.026054742
1734276470977,2024-12-15T15:27:50.977Z,38786,0.044754293,-0.093167685,0.0276899
1734276470979,2024-12-15T15:27:50.979Z,38788,0.044754293,-0.093167685,0.0276899
1734276470989,2024-12-15T15:27:50.989Z,38798,0.038134843,-0.10089003,0.028351543
1734276470991,2024-12-15T15:27:50.991Z,38800,0.038134843,-0.10089003,0.028351543
1734276471000,2024-12-15T15:27:51Z,38809,0.032085683,-0.11056929,0.035691794
1734276471003,2024-12-15T15:27:51.003Z,38812,0.032085683,-0.11056929,0.035691794
1734276471011,2024-12-15T15:27:51.011Z,38820,0.0308831,-0.11048206,0.031763077
1734276471014,2024-12-15T15:27:51.014Z,38823,0.0308831,-0.11048206,0.031763077
1734276471023,2024-12-15T15:27:51.023Z,38832,0.030140292,-0.11186093,0.03176889
1734276471026,2024-12-15T15:27:51.026Z,38835,0.030140292,-0.11186093,0.03176889
1734276471036,2024-12-15T15:27:51.036Z,38845,0.028838204,-0.11372702,0.032771822
1734276471039,2024-12-15T15:27:51.039Z,38848,0.028838204,-0.11372702,0.032771822
1734276471050,2024-12-15T15:27:51.050Z,38859,0.0066885278,-0.118540786,0.022321492
1734276471053,2024-12-15T15:27:51.053Z,38862,0.0066885278,-0.118540786,0.022321492
1734276471060,2024-12-15T15:27:51.060Z,38869,0.021760419,-0.11702537,0.013821423
1734276471062,2024-12-15T15:27:51.062Z,38871,0.021760419,-0.11702537,0.013821423
1734276471070,2024-12-15T15:27:51.070Z,38879,0.019428246,-0.12627314,0.016006975
1734276471073,2024-12-15T15:27:51.073Z,38882,0.019428246,-0.12627314,0.016006975
1734276471083,2024-12-15T15:27:51.083Z,38892,0.020637803,-0.13797525,0.018916218
1734276471085,2024-12-15T15:27:51.085Z,38894,0.020637803,-0.13797525,0.018916218
1734276471092,2024-12-15T15:27:51.092Z,38901,0.02937462,-0.14285602,0.02141717
1734276471094,2024-12-15T15:27:51.094Z,38903,0.02937462,-0.14285602,0.02141717
1734276471102,2024-12-15T15:27:51.102Z,38911,0.033305313,-0.14432397,0.022960601
1734276471105,2024-12-15T15:27:51.105Z,38914,0.033305313,-0.14432397,0.022960601
1734276471114,2024-12-15T15:27:51.114Z,38923,0.017955003,-0.15069088,0.01816198
1734276471117,2024-12-15T15:27:51.117Z,38926,0.017955003,-0.15069088,0.01816198
1734276471125,2024-12-15T15:27:51.125Z,38934,0.009300644,-0.15366344,0.015368997
1734276471129,2024-12-15T15:27:51.129Z,38938,0.009300644,-0.15366344,0.015368997
1734276471136,2024-12-15T15:27:51.136Z,38945,0.004417696,-0.14982674,0.01857683
1734276471139,2024-12-15T15:27:51.139Z,38948,0.004417696,-0.14982674,0.01857683
1734276471146,2024-12-15T15:27:51.146Z,38955,0.0072430647,-0.14650796,0.01998365
1734276471149,2024-12-15T15:27:51.149Z,38958,0.0072430647,-0.14650796,0.01998365
1734276471156,2024-12-15T15:27:51.156Z,38965,6.2200247E-4,-0.14614406,0.029248742
1734276471158,2024-12-15T15:27:51.158Z,38967,6.2200247E-4,-0.14614406,0.029248742
1734276471166,2024-12-15T15:27:51.166Z,38975,0.005001304,-0.13994229,0.029737916
1734276471169,2024-12-15T15:27:51.169Z,38978,0.005001304,-0.13994229,0.029737916
1734276471177,2024-12-15T15:27:51.177Z,38986,0.02263081,-0.122517146,0.03308192
1734276471180,2024-12-15T15:27:51.180Z,38989,0.02263081,-0.122517146,0.03308192
1734276471188,2024-12-15T15:27:51.188Z,38997,0.016709175,-0.10561773,0.03860199
1734276471190,2024-12-15T15:27:51.190Z,38999,0.016709175,-0.10561773,0.03860199
1734276471198,2024-12-15T15:27:51.198Z,39007,6.7122193E-4,-0.096055456,0.02199006
1734276471200,2024-12-15T15:27:51.200Z,39009,6.7122193E-4,-0.096055456,0.02199006
1734276471207,2024-12-15T15:27:51.207Z,39016,0.002807888,-0.08895258,0.014763652
1734276471209,2024-12-15T15:27:51.209Z,39018,0.002807888,-0.08895258,0.014763652
1734276471217,2024-12-15T15:27:51.217Z,39026,0.029854326,-0.07795532,0.026248872
1734276471220,2024-12-15T15:27:51.220Z,39029,0.029854326,-0.07795532,0.026248872
1734276471228,2024-12-15T15:27:51.228Z,39037,0.010318341,-0.07720068,0.026410637
1734276471231,2024-12-15T15:27:51.231Z,39040,0.010318341,-0.07720068,0.026410637
1734276471240,2024-12-15T15:27:51.240Z,39049,0.0058098095,-0.069606416,0.0050753355
1734276471243,2024-12-15T15:27:51.243Z,39052,0.0058098095,-0.069606416,0.0050753355
1734276471252,2024-12-15T15:27:51.252Z,39061,0.016744403,-0.06786665,0.0073825116
1734276471254,2024-12-15T15:27:51.254Z,39063,0.016744403,-0.06786665,0.0073825116
1734276471262,2024-12-15T15:27:51.262Z,39071,0.022007886,-0.06903635,0.023921456
1734276471264,2024-12-15T15:27:51.264Z,39073,0.022007886,-0.06903635,0.023921456
1734276471274,2024-12-15T15:27:51.274Z,39083,0.010827208,-0.07017648,0.022293448
1734276471280,2024-12-15T15:27:51.280Z,39089,0.010827208,-0.07017648,0.022293448
1734276471287,2024-12-15T15:27:51.287Z,39096,0.006009927,-0.07223998,0.03395092
1734276471290,2024-12-15T15:27:51.290Z,39099,0.006009927,-0.07223998,0.03395092
1734276471298,2024-12-15T15:27:51.298Z,39107,0.012212204,-0.0781856,0.032249212
1734276471301,2024-12-15T15:27:51.301Z,39110,0.012212204,-0.0781856,0.032249212
1734276471308,2024-12-15T15:27:51.308Z,39117,0.0026188262,-0.09095297,0.017894652
1734276471311,2024-12-15T15:27:51.311Z,39120,0.0026188262,-0.09095297,0.017894652
1734276471319,2024-12-15T15:27:51.319Z,39128,-0.0037370718,-0.10517175,0.020742774
1734276471322,2024-12-15T15:27:51.322Z,39131,-0.0037370718,-0.10517175,0.020742774
1734276471330,2024-12-15T15:27:51.330Z,39139,0.009793933,-0.11401244,0.024744034
1734276471332,2024-12-15T15:27:51.332Z,39141,0.009793933,-0.11401244,0.024744034
1734276471340,2024-12-15T15:27:51.340Z,39149,4.858982E-4,-0.12916033,0.015921323
1734276471343,2024-12-15T15:27:51.343Z,39152,4.858982E-4,-0.12916033,0.015921323
1734276471352,2024-12-15T15:27:51.352Z,39161,-0.0034460214,-0.13795717,0.025520323
1734276471354,2024-12-15T15:27:51.354Z,39163,-0.0034460214,-0.13795717,0.025520323
1734276471361,2024-12-15T15:27:51.361Z,39170,9.209784E-4,-0.14576957,0.03536892
1734276471364,2024-12-15T15:27:51.364Z,39173,9.209784E-4,-0.14576957,0.03536892
1734276471372,2024-12-15T15:27:51.372Z,39181,-0.007900636,-0.16089557,0.040987372
1734276471375,2024-12-15T15:27:51.375Z,39184,-0.007900636,-0.16089557,0.040987372
1734276471385,2024-12-15T15:27:51.385Z,39194,-0.014175112,-0.17211464,0.036004424
1734276471388,2024-12-15T15:27:51.388Z,39197,-0.014175112,-0.17211464,0.036004424
1734276471395,2024-12-15T15:27:51.395Z,39204,-0.012047764,-0.17650159,0.043521225
1734276471399,2024-12-15T15:27:51.399Z,39208,-0.012047764,-0.17650159,0.043521225
1734276471406,2024-12-15T15:27:51.406Z,39215,0.001365054,-0.1838188,0.050354987
1734276471408,2024-12-15T15:27:51.408Z,39217,0.001365054,-0.1838188,0.050354987
1734276471417,2024-12-15T15:27:51.417Z,39226,-0.011508465,-0.18527916,0.047206726
1734276471419,2024-12-15T15:27:51.419Z,39228,-0.011508465,-0.18527916,0.047206726
1734276471426,2024-12-15T15:27:51.426Z,39235,-0.015428289,-0.18040395,0.03651771
1734276471430,2024-12-15T15:27:51.430Z,39239,-0.015428289,-0.18040395,0.03651771
1734276471439,2024-12-15T15:27:51.439Z,39248,-0.02701578,-0.18433411,0.017538367
1734276471442,2024-12-15T15:27:51.442Z,39251,-0.02701578,-0.18433411,0.017538367
1734276471451,2024-12-15T15:27:51.451Z,39260,-0.0077492935,-0.18242154,0.013406126
1734276471454,2024-12-15T15:27:51.454Z,39263,-0.0077492935,-0.18242154,0.013406126
1734276471461,2024-12-15T15:27:51.461Z,39270,0.012332475,-0.1883129,0.024665503
1734276471464,2024-12-15T15:27:51.464Z,39273,0.012332475,-0.1883129,0.024665503
1734276471472,2024-12-15T15:27:51.472Z,39281,0.0019594564,-0.18589367,0.004979849
1734276471479,2024-12-15T15:27:51.479Z,39288,0.0019594564,-0.18589367,0.004979849
1734276471489,2024-12-15T15:27:51.489Z,39298,-0.0031578096,-0.18640228,-0.0045279264
1734276471491,2024-12-15T15:27:51.491Z,39300,-0.0031578096,-0.18640228,-0.0045279264
1734276471500,2024-12-15T15:27:51.500Z,39309,-0.019942213,-0.19083133,0.0014901754
1734276471502,2024-12-15T15:27:51.502Z,39311,-0.019942213,-0.19083133,0.0014901754
1734276471509,2024-12-15T15:27:51.509Z,39318,-0.021944337,-0.20162845,-9.6201996E-4
1734276471512,2024-12-15T15:27:51.512Z,39321,-0.021944337,-0.20162845,-9.6201996E-4
1734276471520,2024-12-15T15:27:51.520Z,39329,-0.027770672,-0.21293029,0.00372234
1734276471522,2024-12-15T15:27:51.522Z,39331,-0.027770672,-0.21293029,0.00372234
1734276471529,2024-12-15T15:27:51.529Z,39338,-0.026261264,-0.22424039,0.0023206768
1734276471532,2024-12-15T15:27:51.532Z,39341,-0.026261264,-0.22424039,0.0023206768
1734276471539,2024-12-15T15:27:51.539Z,39348,-0.029231241,-0.23896885,0.013419808
1734276471541,2024-12-15T15:27:51.541Z,39350,-0.029231241,-0.23896885,0.013419808
1734276471548,2024-12-15T15:27:51.548Z,39357,-0.03617959,-0.24881741,0.0170123
1734276471552,2024-12-15T15:27:51.552Z,39361,-0.03617959,-0.24881741,0.0170123
1734276471558,2024-12-15T15:27:51.558Z,39367,-0.04207861,-0.250871,0.012538433
1734276471561,2024-12-15T15:27:51.561Z,39370,-0.04207861,-0.250871,0.012538433
1734276471568,2024-12-15T15:27:51.568Z,39377,-0.038523782,-0.25392914,0.0062991963
1734276471570,2024-12-15T15:27:51.570Z,39379,-0.038523782,-0.25392914,0.0062991963
1734276471577,2024-12-15T15:27:51.577Z,39386,-0.044104926,-0.26189354,0.013842435
1734276471580,2024-12-15T15:27:51.580Z,39389,-0.044104926,-0.26189354,0.013842435
1734276471588,2024-12-15T15:27:51.588Z,39397,-0.036286768,-0.2669546,0.028662682
1734276471591,2024-12-15T15:27:51.591Z,39400,-0.036286768,-0.2669546,0.028662682
1734276471599,2024-12-15T15:27:51.599Z,39408,-0.03895025,-0.26911458,0.025776206
1734276471601,2024-12-15T15:27:51.601Z,39410,-0.03895025,-0.26911458,0.025776206
1734276471608,2024-12-15T15:27:51.608Z,39417,-0.04668245,-0.27961352,0.01556441
1734276471610,2024-12-15T15:27:51.610Z,39419,-0.04668245,-0.27961352,0.01556441
1734276471618,2024-12-15T15:27:51.618Z,39427,-0.03697848,-0.2886951,0.035682555
1734276471620,2024-12-15T15:27:51.620Z,39429,-0.03697848,-0.2886951,0.035682555
1734276471629,2024-12-15T15:27:51.629Z,39438,-0.027016412,-0.28853106,0.045432385
1734276471632,2024-12-15T15:27:51.632Z,39441,-0.027016412,-0.28853106,0.045432385
1734276471640,2024-12-15T15:27:51.640Z,39449,-0.02664078,-0.28399396,0.03792056
1734276471642,2024-12-15T15:27:51.642Z,39451,-0.02664078,-0.28399396,0.03792056
1734276471651,2024-12-15T15:27:51.651Z,39460,-0.032899268,-0.27850986,0.042068183
1734276471653,2024-12-15T15:27:51.653Z,39462,-0.032899268,-0.27850986,0.042068183
1734276471660,2024-12-15T15:27:51.660Z,39469,-0.023307202,-0.2701316,0.03837967
1734276471662,2024-12-15T15:27:51.662Z,39471,-0.023307202,-0.2701316,0.03837967
1734276471674,2024-12-15T15:27:51.674Z,39483,-0.020898206,-0.265683,0.03410494
1734276471677,2024-12-15T15:27:51.677Z,39486,-0.020898206,-0.265683,0.03410494
1734276471685,2024-12-15T15:27:51.685Z,39494,-0.015980765,-0.2592939,0.029700963
1734276471688,2024-12-15T15:27:51.688Z,39497,-0.015980765,-0.2592939,0.029700963
1734276471695,2024-12-15T15:27:51.695Z,39504,-0.021275053,-0.25730684,0.026589245
1734276471698,2024-12-15T15:27:51.698Z,39507,-0.021275053,-0.25730684,0.026589245
1734276471706,2024-12-15T15:27:51.706Z,39515,-0.018663598,-0.25533253,0.027193991
1734276471709,2024-12-15T15:27:51.709Z,39518,-0.018663598,-0.25533253,0.027193991
1734276471717,2024-12-15T15:27:51.717Z,39526,-0.015268256,-0.24695785,0.03054076
1734276471719,2024-12-15T15:27:51.719Z,39528,-0.015268256,-0.24695785,0.03054076
1734276471726,2024-12-15T15:27:51.726Z,39535,-0.016794255,-0.23857792,0.021037756
1734276471728,2024-12-15T15:27:51.728Z,39537,-0.016794255,-0.23857792,0.021037756
1734276471737,2024-12-15T15:27:51.737Z,39546,-0.026095489,-0.23411055,0.014329758
1734276471739,2024-12-15T15:27:51.739Z,39548,-0.026095489,-0.23411055,0.014329758
1734276471746,2024-12-15T15:27:51.746Z,39555,-0.03186376,-0.23259076,0.017734883
1734276471748,2024-12-15T15:27:51.748Z,39557,-0.03186376,-0.23259076,0.017734883
1734276471756,2024-12-15T15:27:51.756Z,39565,-0.024405748,-0.23010162,0.01757899
1734276471759,2024-12-15T15:27:51.759Z,39568,-0.024405748,-0.23010162,0.01757899
1734276471767,2024-12-15T15:27:51.767Z,39576,-0.029226001,-0.22759719,-0.0013948969
1734276471770,2024-12-15T15:27:51.770Z,39579,-0.029226001,-0.22759719,-0.0013948969
1734276471776,2024-12-15T15:27:51.776Z,39585,-0.018666517,-0.22798851,-0.0077697947
1734276471778,2024-12-15T15:27:51.778Z,39587,-0.018666517,-0.22798851,-0.0077697947
1734276471786,2024-12-15T15:27:51.786Z,39595,-0.022113,-0.22442108,0.004747454
1734276471788,2024-12-15T15:27:51.788Z,39597,-0.022113,-0.22442108,0.004747454
1734276471795,2024-12-15T15:27:51.795Z,39604,-0.021982482,-0.21640301,-0.003921836
1734276471798,2024-12-15T15:27:51.798Z,39607,-0.021982482,-0.21640301,-0.003921836
1734276471805,2024-12-15T15:27:51.805Z,39614,-0.030063864,-0.2127179,-0.022402136
1734276471808,2024-12-15T15:27:51.808Z,39617,-0.030063864,-0.2127179,-0.022402136
1734276471815,2024-12-15T15:27:51.815Z,39624,-0.007539032,-0.20211937,-0.04972013
1734276471818,2024-12-15T15:27:51.818Z,39627,-0.007539032,-0.20211937,-0.04972013
1734276471827,2024-12-15T15:27:51.827Z,39636,0.0077254316,-0.20216516,-0.079514645
1734276471829,2024-12-15T15:27:51.829Z,39638,0.0077254316,-0.20216516,-0.079514645
1734276471837,2024-12-15T15:27:51.837Z,39646,0.030737486,-0.19916546,-0.0912489
1734276471839,2024-12-15T15:27:51.839Z,39648,0.030737486,-0.19916546,-0.0912489
1734276471848,2024-12-15T15:27:51.848Z,39657,0.025335437,-0.19994713,-0.08609462
1734276471851,2024-12-15T15:27:51.851Z,39660,0.025335437,-0.19994713,-0.08609462
1734276471858,2024-12-15T15:27:51.858Z,39667,0.015284836,-0.19967912,-0.07255882
1734276471861,2024-12-15T15:27:51.861Z,39670,0.015284836,-0.19967912,-0.07255882
1734276471868,2024-12-15T15:27:51.868Z,39677,-0.003862035,-0.20038378,-0.041971948
1734276471871,2024-12-15T15:27:51.871Z,39680,-0.003862035,-0.20038378,-0.041971948
1734276471880,2024-12-15T15:27:51.880Z,39689,-0.031727783,-0.19819853,0.009258268
1734276471883,2024-12-15T15:27:51.883Z,39692,-0.031727783,-0.19819853,0.009258268
1734276471891,2024-12-15T15:27:51.891Z,39700,-0.058249544,-0.19362652,0.051416133
1734276471893,2024-12-15T15:27:51.893Z,39702,-0.058249544,-0.19362652,0.051416133
1734276471900,2024-12-15T15:27:51.900Z,39709,-0.068094686,-0.18764812,0.08324945
1734276471903,2024-12-15T15:27:51.903Z,39712,-0.068094686,-0.18764812,0.08324945
1734276471911,2024-12-15T15:27:51.911Z,39720,-0.06849589,-0.18271483,0.10336705
1734276471914,2024-12-15T15:27:51.914Z,39723,-0.06849589,-0.18271483,0.10336705
1734276471922,2024-12-15T15:27:51.922Z,39731,-0.06882792,-0.18514876,0.1258461
1734276471925,2024-12-15T15:27:51.925Z,39734,-0.06882792,-0.18514876,0.1258461
1734276471933,2024-12-15T15:27:51.933Z,39742,-0.070578486,-0.1871191,0.1207545
1734276471936,2024-12-15T15:27:51.936Z,39745,-0.070578486,-0.1871191,0.1207545
1734276471948,2024-12-15T15:27:51.948Z,39757,-0.031576563,-0.18515538,0.12024354
1734276471953,2024-12-15T15:27:51.953Z,39762,-0.031576563,-0.18515538,0.12024354
1734276471964,2024-12-15T15:27:51.964Z,39773,-0.031013,-0.18119808,0.11502694
1734276471967,2024-12-15T15:27:51.967Z,39776,-0.031013,-0.18119808,0.11502694
1734276471974,2024-12-15T15:27:51.974Z,39783,-0.024621468,-0.15960859,0.0891101
1734276471977,2024-12-15T15:27:51.977Z,39786,-0.024621468,-0.15960859,0.0891101
1734276471986,2024-12-15T15:27:51.986Z,39795,0.009499546,-0.12577231,0.06769574
1734276471988,2024-12-15T15:27:51.988Z,39797,0.009499546,-0.12577231,0.06769574
1734276471996,2024-12-15T15:27:51.996Z,39805,0.019402573,-0.09922058,0.045281675
1734276471999,2024-12-15T15:27:51.999Z,39808,0.019402573,-0.09922058,0.045281675
1734276472007,2024-12-15T15:27:52.007Z,39816,0.022771671,-0.082423955,0.038179547
1734276472010,2024-12-15T15:27:52.010Z,39819,0.022771671,-0.082423955,0.038179547
1734276472019,2024-12-15T15:27:52.019Z,39828,0.032833647,-0.059277635,0.03423035
1734276472021,2024-12-15T15:27:52.021Z,39830,0.032833647,-0.059277635,0.03423035
1734276472027,2024-12-15T15:27:52.027Z,39836,0.05525798,-0.031699352,0.039662566
1734276472030,2024-12-15T15:27:52.030Z,39839,0.05525798,-0.031699352,0.039662566
1734276472037,2024-12-15T15:27:52.037Z,39846,0.041204263,-0.0099322,0.06847224
1734276472039,2024-12-15T15:27:52.039Z,39848,0.041204263,-0.0099322,0.06847224
1734276472046,2024-12-15T15:27:52.046Z,39855,0.026990179,0.014798087,0.09458956
1734276472048,2024-12-15T15:27:52.048Z,39857,0.026990179,0.014798087,0.09458956
1734276472058,2024-12-15T15:27:52.058Z,39867,0.03801016,0.051277068,0.08629262
1734276472060,2024-12-15T15:27:52.060Z,39869,0.03801016,0.051277068,0.08629262
1734276472068,2024-12-15T15:27:52.068Z,39877,0.04866186,0.07998255,0.07560631
1734276472071,2024-12-15T15:27:52.071Z,39880,0.04866186,0.07998255,0.07560631
1734276472077,2024-12-15T15:27:52.077Z,39886,0.040867005,0.10528728,0.057549357
1734276472080,2024-12-15T15:27:52.080Z,39889,0.040867005,0.10528728,0.057549357
1734276472087,2024-12-15T15:27:52.087Z,39896,0.04174203,0.13544418,0.057261728
1734276472090,2024-12-15T15:27:52.090Z,39899,0.04174203,0.13544418,0.057261728
1734276472101,2024-12-15T15:27:52.101Z,39910,0.0445343,0.16312419,0.04829788
1734276472104,2024-12-15T15:27:52.104Z,39913,0.0445343,0.16312419,0.04829788
1734276472111,2024-12-15T15:27:52.111Z,39920,0.056468792,0.19323388,0.040207535
1734276472113,2024-12-15T15:27:52.113Z,39922,0.056468792,0.19323388,0.040207535
1734276472123,2024-12-15T15:27:52.123Z,39932,0.042368483,0.21797992,0.05464646
1734276472125,2024-12-15T15:27:52.125Z,39934,0.042368483,0.21797992,0.05464646
1734276472136,2024-12-15T15:27:52.136Z,39945,0.051622868,0.25640497,0.058232844
1734276472138,2024-12-15T15:27:52.138Z,39947,0.051622868,0.25640497,0.058232844
1734276472148,2024-12-15T15:27:52.148Z,39957,0.042576246,0.2855998,0.08082225
1734276472150,2024-12-15T15:27:52.150Z,39959,0.042576246,0.2855998,0.08082225
1734276472156,2024-12-15T15:27:52.156Z,39965,0.025530145,0.30702645,0.06323492
1734276472159,2024-12-15T15:27:52.159Z,39968,0.025530145,0.30702645,0.06323492
1734276472166,2024-12-15T15:27:52.166Z,39975,0.005018608,0.33187908,0.036566645
1734276472168,2024-12-15T15:27:52.168Z,39977,0.005018608,0.33187908,0.036566645
1734276472175,2024-12-15T15:27:52.175Z,39984,-0.05427971,0.33326,0.041482445
1734276472177,2024-12-15T15:27:52.177Z,39986,-0.05427971,0.33326,0.041482445
1734276472186,2024-12-15T15:27:52.186Z,39995,-0.030872181,0.3453107,0.04722935
1734276472188,2024-12-15T15:27:52.188Z,39997,-0.030872181,0.3453107,0.04722935
1734276472195,2024-12-15T15:27:52.195Z,40004,0.010106426,0.36903572,0.05859178
1734276472197,2024-12-15T15:27:52.197Z,40006,0.010106426,0.36903572,0.05859178
1734276472205,2024-12-15T15:27:52.205Z,40014,0.024852693,0.3922757,0.054302838
1734276472208,2024-12-15T15:27:52.208Z,40017,0.024852693,0.3922757,0.054302838
1734276472219,2024-12-15T15:27:52.219Z,40028,0.02792467,0.40771684,0.06160095
1734276472221,2024-12-15T15:27:52.221Z,40030,0.02792467,0.40771684,0.06160095
1734276472228,2024-12-15T15:27:52.228Z,40037,-0.004451441,0.4255899,0.05810761
1734276472231,2024-12-15T15:27:52.231Z,40040,-0.004451441,0.4255899,0.05810761
1734276472239,2024-12-15T15:27:52.239Z,40048,0.003580752,0.45123824,0.0059527485
1734276472241,2024-12-15T15:27:52.241Z,40050,0.003580752,0.45123824,0.0059527485
1734276472249,2024-12-15T15:27:52.249Z,40058,0.012650682,0.46660513,-0.032839388
1734276472251,2024-12-15T15:27:52.251Z,40060,0.012650682,0.46660513,-0.032839388
1734276472259,2024-12-15T15:27:52.259Z,40068,0.004556487,0.46876705,-0.024769451
1734276472261,2024-12-15T15:27:52.261Z,40070,0.004556487,0.46876705,-0.024769451
1734276472269,2024-12-15T15:27:52.269Z,40078,0.03508917,0.46015692,-0.022524
1734276472271,2024-12-15T15:27:52.271Z,40080,0.03508917,0.46015692,-0.022524
1734276472277,2024-12-15T15:27:52.277Z,40086,0.057885196,0.45298773,-0.016486494
1734276472280,2024-12-15T15:27:52.280Z,40089,0.057885196,0.45298773,-0.016486494
1734276472287,2024-12-15T15:27:52.287Z,40096,0.034816474,0.44092244,-0.016609728
1734276472289,2024-12-15T15:27:52.289Z,40098,0.034816474,0.44092244,-0.016609728
1734276472296,2024-12-15T15:27:52.296Z,40105,0.025157236,0.4239496,-0.018679112
1734276472298,2024-12-15T15:27:52.298Z,40107,0.025157236,0.4239496,-0.018679112
1734276472306,2024-12-15T15:27:52.306Z,40115,0.041987896,0.4118413,-0.023041932
1734276472308,2024-12-15T15:27:52.308Z,40117,0.041987896,0.4118413,-0.023041932
1734276472315,2024-12-15T15:27:52.315Z,40124,0.048943967,0.39533898,-0.02811113
1734276472317,2024-12-15T15:27:52.317Z,40126,0.048943967,0.39533898,-0.02811113
1734276472328,2024-12-15T15:27:52.328Z,40137,0.019048907,0.37543026,-0.027507124
1734276472332,2024-12-15T15:27:52.332Z,40141,0.019048907,0.37543026,-0.027507124
1734276472344,2024-12-15T15:27:52.344Z,40153,0.022267982,0.35893655,-0.035676807
1734276472348,2024-12-15T15:27:52.348Z,40157,0.022267982,0.35893655,-0.035676807
1734276472356,2024-12-15T15:27:52.356Z,40165,0.011724002,0.33316344,-0.028630676
1734276472361,2024-12-15T15:27:52.361Z,40170,0.011724002,0.33316344,-0.028630676
1734276472369,2024-12-15T15:27:52.369Z,40178,0.01005556,0.30249432,-0.0036548364
1734276472371,2024-12-15T15:27:52.371Z,40180,0.01005556,0.30249432,-0.0036548364
1734276472380,2024-12-15T15:27:52.380Z,40189,0.006169614,0.2815688,-0.011652589
1734276472386,2024-12-15T15:27:52.386Z,40195,0.006169614,0.2815688,-0.011652589
1734276472394,2024-12-15T15:27:52.394Z,40203,0.0033700587,0.2533087,-0.009807438
1734276472397,2024-12-15T15:27:52.397Z,40206,0.0033700587,0.2533087,-0.009807438
1734276472404,2024-12-15T15:27:52.404Z,40213,-0.0071214926,0.22161952,-5.807573E-4
1734276472406,2024-12-15T15:27:52.406Z,40215,-0.0071214926,0.22161952,-5.807573E-4
1734276472413,2024-12-15T15:27:52.413Z,40222,0.004043104,0.20065854,0.0018362998
1734276472416,2024-12-15T15:27:52.416Z,40225,0.004043104,0.20065854,0.0018362998
1734276472423,2024-12-15T15:27:52.423Z,40232,0.0040417914,0.17725214,0.012956349
1734276472425,2024-12-15T15:27:52.425Z,40234,0.0040417914,0.17725214,0.012956349
1734276472432,2024-12-15T15:27:52.432Z,40241,-0.011510002,0.15140185,0.017995534
1734276472434,2024-12-15T15:27:52.434Z,40243,-0.011510002,0.15140185,0.017995534
1734276472441,2024-12-15T15:27:52.441Z,40250,-0.025881385,0.13335297,0.011051952
1734276472443,2024-12-15T15:27:52.443Z,40252,-0.025881385,0.13335297,0.011051952
1734276472449,2024-12-15T15:27:52.449Z,40258,-0.034640796,0.11723961,1.6659597E-4
1734276472452,2024-12-15T15:27:52.452Z,40261,-0.034640796,0.11723961,1.6659597E-4
1734276472460,2024-12-15T15:27:52.460Z,40269,-0.020828485,0.09867716,0.0068355496
1734276472463,2024-12-15T15:27:52.463Z,40272,-0.020828485,0.09867716,0.0068355496
1734276472471,2024-12-15T15:27:52.471Z,40280,-0.019201009,0.08499927,0.014238983
1734276472474,2024-12-15T15:27:52.474Z,40283,-0.019201009,0.08499927,0.014238983
1734276472482,2024-12-15T15:27:52.482Z,40291,-0.0025675828,0.073288016,0.0076938565
1734276472484,2024-12-15T15:27:52.484Z,40293,-0.0025675828,0.073288016,0.0076938565
1734276472492,2024-12-15T15:27:52.492Z,40301,-0.017188849,0.06011562,0.009656191
1734276472494,2024-12-15T15:27:52.494Z,40303,-0.017188849,0.06011562,0.009656191
1734276472504,2024-12-15T15:27:52.504Z,40313,-0.019734114,0.05720908,0.009397267
1734276472506,2024-12-15T15:27:52.506Z,40315,-0.019734114,0.05720908,0.009397267
1734276472513,2024-12-15T15:27:52.513Z,40322,-0.031156903,0.05430964,0.004060358
1734276472516,2024-12-15T15:27:52.516Z,40325,-0.031156903,0.05430964,0.004060358
1734276472523,2024-12-15T15:27:52.523Z,40332,-0.03145684,0.054834582,0.006494819
1734276472525,2024-12-15T15:27:52.525Z,40334,-0.03145684,0.054834582,0.006494819
1734276472532,2024-12-15T15:27:52.532Z,40341,-0.027469143,0.059271023,0.010916561
1734276472534,2024-12-15T15:27:52.534Z,40343,-0.027469143,0.059271023,0.010916561
1734276472541,2024-12-15T15:27:52.541Z,40350,-0.0153418295,0.06567002,0.016333073
1734276472543,2024-12-15T15:27:52.543Z,40352,-0.0153418295,0.06567002,0.016333073
1734276472553,2024-12-15T15:27:52.553Z,40362,-0.010645908,0.0710981,0.013922095
1734276472555,2024-12-15T15:27:52.555Z,40364,-0.010645908,0.0710981,0.013922095
1734276472561,2024-12-15T15:27:52.561Z,40370,-0.006273359,0.07068683,0.018497078
1734276472563,2024-12-15T15:27:52.563Z,40372,-0.006273359,0.07068683,0.018497078
1734276472571,2024-12-15T15:27:52.571Z,40380,-0.012853777,0.06931098,0.018353641
1734276472573,2024-12-15T15:27:52.573Z,40382,-0.012853777,0.06931098,0.018353641
1734276472579,2024-12-15T15:27:52.579Z,40388,-0.0050198967,0.071366206,0.012138932
1734276472581,2024-12-15T15:27:52.581Z,40390,-0.0050198967,0.071366206,0.012138932
1734276472588,2024-12-15T15:27:52.588Z,40397,-0.007177137,0.06708575,0.013544083
1734276472590,2024-12-15T15:27:52.590Z,40399,-0.007177137,0.06708575,0.013544083
1734276472596,2024-12-15T15:27:52.596Z,40405,-0.00504526,0.066227056,0.019026188
1734276472599,2024-12-15T15:27:52.599Z,40408,-0.00504526,0.066227056,0.019026188
1734276472607,2024-12-15T15:27:52.607Z,40416,-0.005010962,0.060491484,0.020242063
1734276472609,2024-12-15T15:27:52.609Z,40418,-0.005010962,0.060491484,0.020242063
1734276472616,2024-12-15T15:27:52.616Z,40425,-0.012328111,0.054753866,0.02094549
1734276472618,2024-12-15T15:27:52.618Z,40427,-0.012328111,0.054753866,0.02094549
1734276472625,2024-12-15T15:27:52.625Z,40434,-0.020989832,0.049981534,0.019835649
1734276472627,2024-12-15T15:27:52.627Z,40436,-0.020989832,0.049981534,0.019835649
1734276472636,2024-12-15T15:27:52.636Z,40445,-0.0057012322,0.050575715,0.027602166
1734276472638,2024-12-15T15:27:52.638Z,40447,-0.0057012322,0.050575715,0.027602166
1734276472645,2024-12-15T15:27:52.645Z,40454,-0.008919755,0.04579278,0.03529957
1734276472647,2024-12-15T15:27:52.647Z,40456,-0.008919755,0.04579278,0.03529957
1734276472654,2024-12-15T15:27:52.654Z,40463,-0.009626545,0.038561635,0.031710356
1734276472656,2024-12-15T15:27:52.656Z,40465,-0.009626545,0.038561635,0.031710356
1734276472663,2024-12-15T15:27:52.663Z,40472,-0.0034490179,0.03425444,0.040167123
1734276472665,2024-12-15T15:27:52.665Z,40474,-0.0034490179,0.03425444,0.040167123
1734276472672,2024-12-15T15:27:52.672Z,40481,-0.016583076,0.027491735,0.03433332
1734276472675,2024-12-15T15:27:52.675Z,40484,-0.016583076,0.027491735,0.03433332
1734276472684,2024-12-15T15:27:52.684Z,40493,-0.012897108,0.027551737,0.029033955
1734276472687,2024-12-15T15:27:52.687Z,40496,-0.012897108,0.027551737,0.029033955
1734276472694,2024-12-15T15:27:52.694Z,40503,-3.1360867E-4,0.032976504,0.030801503
1734276472696,2024-12-15T15:27:52.696Z,40505,-3.1360867E-4,0.032976504,0.030801503
1734276472703,2024-12-15T15:27:52.703Z,40512,0.0074717943,0.03741966,0.029348968
1734276472705,2024-12-15T15:27:52.705Z,40514,0.0074717943,0.03741966,0.029348968
1734276472715,2024-12-15T15:27:52.715Z,40524,0.009455945,0.039906573,0.02606222
1734276472719,2024-12-15T15:27:52.719Z,40528,0.009455945,0.039906573,0.02606222
1734276472726,2024-12-15T15:27:52.726Z,40535,0.0031958881,0.039948195,0.022393912
1734276472728,2024-12-15T15:27:52.728Z,40537,0.0031958881,0.039948195,0.022393912
1734276472735,2024-12-15T15:27:52.735Z,40544,0.010201185,0.04047411,0.022269545
1734276472737,2024-12-15T15:27:52.737Z,40546,0.010201185,0.04047411,0.022269545
1734276472744,2024-12-15T15:27:52.744Z,40553,0.020619726,0.042464186,0.022721915
1734276472746,2024-12-15T15:27:52.746Z,40555,0.020619726,0.042464186,0.022721915
1734276472754,2024-12-15T15:27:52.754Z,40563,0.016366692,0.04250114,0.026690213
1734276472756,2024-12-15T15:27:52.756Z,40565,0.016366692,0.04250114,0.026690213
1734276472763,2024-12-15T15:27:52.763Z,40572,0.010741494,0.039603744,0.026346266
1734276472765,2024-12-15T15:27:52.765Z,40574,0.010741494,0.039603744,0.026346266
1734276472773,2024-12-15T15:27:52.773Z,40582,-9.594703E-5,0.03767493,0.026618183
1734276472776,2024-12-15T15:27:52.776Z,40585,-9.594703E-5,0.03767493,0.026618183
1734276472784,2024-12-15T15:27:52.784Z,40593,4.6167136E-4,0.04110875,0.024603158
1734276472787,2024-12-15T15:27:52.787Z,40596,4.6167136E-4,0.04110875,0.024603158
1734276472794,2024-12-15T15:27:52.794Z,40603,0.0035677392,0.042095717,0.02415514
1734276472797,2024-12-15T15:27:52.797Z,40606,0.0035677392,0.042095717,0.02415514
1734276472807,2024-12-15T15:27:52.807Z,40616,0.006745901,0.040637,0.023256838
1734276472811,2024-12-15T15:27:52.811Z,40620,0.006745901,0.040637,0.023256838
1734276472819,2024-12-15T15:27:52.819Z,40628,0.0079784095,0.036247432,0.023272572
1734276472824,2024-12-15T15:27:52.824Z,40633,0.0079784095,0.036247432,0.023272572
1734276472832,2024-12-15T15:27:52.832Z,40641,0.016042432,0.030392634,0.021735758
1734276472835,2024-12-15T15:27:52.835Z,40644,0.016042432,0.030392634,0.021735758
1734276472846,2024-12-15T15:27:52.846Z,40655,0.00853958,0.025023198,0.01380834
1734276472849,2024-12-15T15:27:52.849Z,40658,0.00853958,0.025023198,0.01380834
1734276472856,2024-12-15T15:27:52.856Z,40665,-0.0013747758,0.019164024,0.0146265915
1734276472859,2024-12-15T15:27:52.859Z,40668,-0.0013747758,0.019164024,0.0146265915
1734276472868,2024-12-15T15:27:52.868Z,40677,-0.011625475,0.008414747,0.008130669
1734276472871,2024-12-15T15:27:52.871Z,40680,-0.011625475,0.008414747,0.008130669
1734276472879,2024-12-15T15:27:52.879Z,40688,-0.0072211684,0.004012441,0.006992191
1734276472881,2024-12-15T15:27:52.881Z,40690,-0.0072211684,0.004012441,0.006992191
1734276472889,2024-12-15T15:27:52.889Z,40698,-0.0074840533,-0.0018633634,0.009199351
1734276472892,2024-12-15T15:27:52.892Z,40701,-0.0074840533,-0.0018633634,0.009199351
1734276472902,2024-12-15T15:27:52.902Z,40711,-0.019777466,-0.0092108175,0.0030004384
1734276472905,2024-12-15T15:27:52.905Z,40714,-0.019777466,-0.0092108175,0.0030004384
1734276472911,2024-12-15T15:27:52.911Z,40720,-0.007942878,-0.013635686,-0.00727713
1734276472913,2024-12-15T15:27:52.913Z,40722,-0.007942878,-0.013635686,-0.00727713
1734276472922,2024-12-15T15:27:52.922Z,40731,-0.023346204,-0.026852816,-0.0025762622
1734276472924,2024-12-15T15:27:52.924Z,40733,-0.023346204,-0.026852816,-0.0025762622
1734276472935,2024-12-15T15:27:52.935Z,40744,-0.032731507,-0.037633017,-0.008381157
1734276472938,2024-12-15T15:27:52.938Z,40747,-0.032731507,-0.037633017,-0.008381157
1734276472945,2024-12-15T15:27:52.945Z,40754,-0.050192926,-0.04939474,-0.024942577
1734276472947,2024-12-15T15:27:52.947Z,40756,-0.050192926,-0.04939474,-0.024942577
1734276472954,2024-12-15T15:27:52.954Z,40763,-0.05810926,-0.06458473,-0.040838957
1734276472956,2024-12-15T15:27:52.956Z,40765,-0.05810926,-0.06458473,-0.040838957
1734276472962,2024-12-15T15:27:52.962Z,40771,-0.066236705,-0.07636921,-0.039504766
1734276472964,2024-12-15T15:27:52.964Z,40773,-0.066236705,-0.07636921,-0.039504766
1734276472971,2024-12-15T15:27:52.971Z,40780,-0.06869473,-0.07840373,-0.0443629
1734276472974,2024-12-15T15:27:52.974Z,40783,-0.06869473,-0.07840373,-0.0443629
1734276472981,2024-12-15T15:27:52.981Z,40790,-0.076733924,-0.077039346,-0.051903486
1734276472984,2024-12-15T15:27:52.984Z,40793,-0.076733924,-0.077039346,-0.051903486
1734276472992,2024-12-15T15:27:52.992Z,40801,-0.079186834,-0.06690487,-0.06537983
1734276472994,2024-12-15T15:27:52.994Z,40803,-0.079186834,-0.06690487,-0.06537983
1734276473001,2024-12-15T15:27:53.001Z,40810,-0.078070275,-0.051905286,-0.06854898
1734276473003,2024-12-15T15:27:53.003Z,40812,-0.078070275,-0.051905286,-0.06854898
1734276473010,2024-12-15T15:27:53.010Z,40819,-0.07783283,-0.03545642,-0.07536489
1734276473012,2024-12-15T15:27:53.012Z,40821,-0.07783283,-0.03545642,-0.07536489
1734276473019,2024-12-15T15:27:53.019Z,40828,-0.06433689,-0.012185723,-0.07211729
1734276473022,2024-12-15T15:27:53.022Z,40831,-0.06433689,-0.012185723,-0.07211729
1734276473031,2024-12-15T15:27:53.031Z,40840,-0.06406718,0.010102482,-0.06567925
1734276473034,2024-12-15T15:27:53.034Z,40843,-0.06406718,0.010102482,-0.06567925
1734276473042,2024-12-15T15:27:53.042Z,40851,-0.068213634,0.03775526,-0.065913945
1734276473044,2024-12-15T15:27:53.044Z,40853,-0.068213634,0.03775526,-0.065913945
1734276473053,2024-12-15T15:27:53.053Z,40862,-0.0737831,0.06930417,-0.060554117
1734276473055,2024-12-15T15:27:53.055Z,40864,-0.0737831,0.06930417,-0.060554117
1734276473061,2024-12-15T15:27:53.061Z,40870,-0.06900426,0.10328028,-0.049071636
1734276473063,2024-12-15T15:27:53.063Z,40872,-0.06900426,0.10328028,-0.049071636
1734276473071,2024-12-15T15:27:53.071Z,40880,-0.06655098,0.1362634,-0.042760517
1734276473073,2024-12-15T15:27:53.073Z,40882,-0.06655098,0.1362634,-0.042760517
1734276473079,2024-12-15T15:27:53.079Z,40888,-0.06352534,0.16972011,-0.04632336
1734276473081,2024-12-15T15:27:53.081Z,40890,-0.06352534,0.16972011,-0.04632336
1734276473088,2024-12-15T15:27:53.088Z,40897,-0.034589335,0.20023581,-0.036872596
1734276473091,2024-12-15T15:27:53.091Z,40900,-0.034589335,0.20023581,-0.036872596
1734276473097,2024-12-15T15:27:53.097Z,40906,-0.031659782,0.23026416,-0.024728565
1734276473099,2024-12-15T15:27:53.099Z,40908,-0.031659782,0.23026416,-0.024728565
1734276473108,2024-12-15T15:27:53.108Z,40917,-0.027329318,0.26321834,-0.018797366
1734276473110,2024-12-15T15:27:53.110Z,40919,-0.027329318,0.26321834,-0.018797366
1734276473119,2024-12-15T15:27:53.119Z,40928,-0.026969198,0.2942158,-0.023494093
1734276473122,2024-12-15T15:27:53.122Z,40931,-0.026969198,0.2942158,-0.023494093
1734276473129,2024-12-15T15:27:53.129Z,40938,-0.02960227,0.31837332,-0.018284827
1734276473131,2024-12-15T15:27:53.131Z,40940,-0.02960227,0.31837332,-0.018284827
1734276473137,2024-12-15T15:27:53.137Z,40946,-0.0029277762,0.35130844,-0.015798807
1734276473140,2024-12-15T15:27:53.140Z,40949,-0.0029277762,0.35130844,-0.015798807
1734276473146,2024-12-15T15:27:53.146Z,40955,0.0065187514,0.37545708,-0.010165572
1734276473148,2024-12-15T15:27:53.148Z,40957,0.0065187514,0.37545708,-0.010165572
1734276473156,2024-12-15T15:27:53.156Z,40965,0.0031843581,0.39862698,4.992774E-4
1734276473159,2024-12-15T15:27:53.159Z,40968,0.0031843581,0.39862698,4.992774E-4
1734276473166,2024-12-15T15:27:53.166Z,40975,0.0038501646,0.41835767,0.0039377213
1734276473169,2024-12-15T15:27:53.169Z,40978,0.0038501646,0.41835767,0.0039377213
1734276473177,2024-12-15T15:27:53.177Z,40986,0.008092305,0.4273178,0.010847062
1734276473179,2024-12-15T15:27:53.179Z,40988,0.008092305,0.4273178,0.010847062
1734276473187,2024-12-15T15:27:53.187Z,40996,-6.48934E-4,0.4323356,0.0047126105
1734276473189,2024-12-15T15:27:53.189Z,40998,-6.48934E-4,0.4323356,0.0047126105
1734276473197,2024-12-15T15:27:53.197Z,41006,0.01762106,0.4378047,3.5363372E-4
1734276473200,2024-12-15T15:27:53.200Z,41009,0.01762106,0.4378047,3.5363372E-4
1734276473209,2024-12-15T15:27:53.209Z,41018,0.02604803,0.4359389,0.016705481
1734276473212,2024-12-15T15:27:53.212Z,41021,0.02604803,0.4359389,0.016705481
1734276473221,2024-12-15T15:27:53.221Z,41030,0.055296242,0.44530573,0.021413207
1734276473223,2024-12-15T15:27:53.223Z,41032,0.055296242,0.44530573,0.021413207
1734276473230,2024-12-15T15:27:53.230Z,41039,0.055402618,0.443469,0.03579834
1734276473233,2024-12-15T15:27:53.233Z,41042,0.055402618,0.443469,0.03579834
1734276473241,2024-12-15T15:27:53.241Z,41050,0.036779176,0.43725193,0.029939322
1734276473244,2024-12-15T15:27:53.244Z,41053,0.036779176,0.43725193,0.029939322
1734276473256,2024-12-15T15:27:53.256Z,41065,0.037583932,0.44129482,0.024410576
1734276473259,2024-12-15T15:27:53.259Z,41068,0.037583932,0.44129482,0.024410576
1734276473265,2024-12-15T15:27:53.265Z,41074,0.036768887,0.43021226,0.033477273
1734276473269,2024-12-15T15:27:53.269Z,41078,0.036768887,0.43021226,0.033477273
1734276473276,2024-12-15T15:27:53.276Z,41085,0.0427029,0.41619965,0.03576463
1734276473278,2024-12-15T15:27:53.278Z,41087,0.0427029,0.41619965,0.03576463
1734276473285,2024-12-15T15:27:53.285Z,41094,0.05045259,0.40170527,0.04886052
1734276473287,2024-12-15T15:27:53.287Z,41096,0.05045259,0.40170527,0.04886052
1734276473295,2024-12-15T15:27:53.295Z,41104,0.0760352,0.39211908,0.058940854
1734276473297,2024-12-15T15:27:53.297Z,41106,0.0760352,0.39211908,0.058940854
1734276473304,2024-12-15T15:27:53.304Z,41113,0.08994936,0.37917623,0.046331342
1734276473306,2024-12-15T15:27:53.306Z,41115,0.08994936,0.37917623,0.046331342
1734276473313,2024-12-15T15:27:53.313Z,41122,0.053497482,0.3482463,0.035492357
1734276473315,2024-12-15T15:27:53.315Z,41124,0.053497482,0.3482463,0.035492357
1734276473323,2024-12-15T15:27:53.323Z,41132,0.029052876,0.309533,0.04210365
1734276473325,2024-12-15T15:27:53.325Z,41134,0.029052876,0.309533,0.04210365
1734276473332,2024-12-15T15:27:53.332Z,41141,0.034585517,0.2825124,0.055467933
1734276473334,2024-12-15T15:27:53.334Z,41143,0.034585517,0.2825124,0.055467933
1734276473341,2024-12-15T15:27:53.341Z,41150,0.074969016,0.25645128,0.067622595
1734276473343,2024-12-15T15:27:53.343Z,41152,0.074969016,0.25645128,0.067622595
1734276473350,2024-12-15T15:27:53.350Z,41159,0.08153964,0.224069,0.06487915
1734276473353,2024-12-15T15:27:53.353Z,41162,0.08153964,0.224069,0.06487915
1734276473360,2024-12-15T15:27:53.360Z,41169,0.08738036,0.1946606,0.07361737
1734276473362,2024-12-15T15:27:53.362Z,41171,0.08738036,0.1946606,0.07361737
1734276473368,2024-12-15T15:27:53.368Z,41177,0.081605,0.16824818,0.08306619
1734276473371,2024-12-15T15:27:53.371Z,41180,0.081605,0.16824818,0.08306619
1734276473377,2024-12-15T15:27:53.377Z,41186,0.07315622,0.14236277,0.0718807
1734276473379,2024-12-15T15:27:53.379Z,41188,0.07315622,0.14236277,0.0718807
1734276473386,2024-12-15T15:27:53.386Z,41195,0.06069558,0.11307216,0.06365639
1734276473389,2024-12-15T15:27:53.389Z,41198,0.06069558,0.11307216,0.06365639
1734276473397,2024-12-15T15:27:53.397Z,41206,0.04932714,0.083272345,0.064305365
1734276473399,2024-12-15T15:27:53.399Z,41208,0.04932714,0.083272345,0.064305365
1734276473407,2024-12-15T15:27:53.407Z,41216,0.037840065,0.06465038,0.07277449
1734276473409,2024-12-15T15:27:53.409Z,41218,0.037840065,0.06465038,0.07277449
1734276473415,2024-12-15T15:27:53.415Z,41224,0.0623979,0.04841487,0.06265383
1734276473418,2024-12-15T15:27:53.418Z,41227,0.0623979,0.04841487,0.06265383
1734276473426,2024-12-15T15:27:53.426Z,41235,0.062221896,0.026781242,0.06674596
1734276473429,2024-12-15T15:27:53.429Z,41238,0.062221896,0.026781242,0.06674596
1734276473436,2024-12-15T15:27:53.436Z,41245,0.044667292,0.0031621067,0.064535104
1734276473439,2024-12-15T15:27:53.439Z,41248,0.044667292,0.0031621067,0.064535104
1734276473445,2024-12-15T15:27:53.445Z,41254,0.034649383,-0.020485036,0.056391355
1734276473447,2024-12-15T15:27:53.447Z,41256,0.034649383,-0.020485036,0.056391355
1734276473455,2024-12-15T15:27:53.455Z,41264,0.050439034,-0.0538871,0.05406859
1734276473457,2024-12-15T15:27:53.457Z,41266,0.050439034,-0.0538871,0.05406859
1734276473464,2024-12-15T15:27:53.464Z,41273,0.049946595,-0.083837934,0.06719208
1734276473466,2024-12-15T15:27:53.466Z,41275,0.049946595,-0.083837934,0.06719208
1734276473475,2024-12-15T15:27:53.475Z,41284,0.028754545,-0.10543257,0.073961556
1734276473477,2024-12-15T15:27:53.477Z,41286,0.028754545,-0.10543257,0.073961556
1734276473485,2024-12-15T15:27:53.485Z,41294,0.013445882,-0.11381571,0.06599519
1734276473487,2024-12-15T15:27:53.487Z,41296,0.013445882,-0.11381571,0.06599519
1734276473493,2024-12-15T15:27:53.493Z,41302,-0.0026969586,-0.111940384,0.06683293
1734276473495,2024-12-15T15:27:53.495Z,41304,-0.0026969586,-0.111940384,0.06683293
1734276473502,2024-12-15T15:27:53.502Z,41311,0.012567565,-0.10763377,0.062011745
1734276473504,2024-12-15T15:27:53.504Z,41313,0.012567565,-0.10763377,0.062011745
1734276473512,2024-12-15T15:27:53.512Z,41321,-0.0057657803,-0.104315974,0.055135004
1734276473514,2024-12-15T15:27:53.514Z,41323,-0.0057657803,-0.104315974,0.055135004
1734276473522,2024-12-15T15:27:53.522Z,41331,0.008749644,-0.10639016,0.050153643
1734276473524,2024-12-15T15:27:53.524Z,41333,0.008749644,-0.10639016,0.050153643
1734276473531,2024-12-15T15:27:53.531Z,41340,0.04032098,-0.10602666,0.042818215
1734276473533,2024-12-15T15:27:53.533Z,41342,0.04032098,-0.10602666,0.042818215
1734276473541,2024-12-15T15:27:53.541Z,41350,0.038898844,-0.10562619,0.039923877
1734276473544,2024-12-15T15:27:53.544Z,41353,0.038898844,-0.10562619,0.039923877
1734276473550,2024-12-15T15:27:53.550Z,41359,0.024637222,-0.103542075,0.045265585
1734276473553,2024-12-15T15:27:53.553Z,41362,0.024637222,-0.103542075,0.045265585
1734276473560,2024-12-15T15:27:53.560Z,41369,0.026756201,-0.09556805,0.03589308
1734276473562,2024-12-15T15:27:53.562Z,41371,0.026756201,-0.09556805,0.03589308
1734276473570,2024-12-15T15:27:53.570Z,41379,0.023168368,-0.098288365,0.03670299
1734276473573,2024-12-15T15:27:53.573Z,41382,0.023168368,-0.098288365,0.03670299
1734276473579,2024-12-15T15:27:53.579Z,41388,0.0033878672,-0.09270032,0.05110675
1734276473581,2024-12-15T15:27:53.581Z,41390,0.0033878672,-0.09270032,0.05110675
1734276473589,2024-12-15T15:27:53.589Z,41398,-0.015353056,-0.09200752,0.057070367
1734276473592,2024-12-15T15:27:53.592Z,41401,-0.015353056,-0.09200752,0.057070367
1734276473598,2024-12-15T15:27:53.598Z,41407,-0.008648373,-0.07963771,0.050620586
1734276473600,2024-12-15T15:27:53.600Z,41409,-0.008648373,-0.07963771,0.050620586
1734276473611,2024-12-15T15:27:53.611Z,41420,0.011597167,-0.06872603,0.04786491
1734276473613,2024-12-15T15:27:53.613Z,41422,0.011597167,-0.06872603,0.04786491
1734276473620,2024-12-15T15:27:53.620Z,41429,-0.0030489347,-0.06951539,0.043073114
1734276473623,2024-12-15T15:27:53.623Z,41432,-0.0030489347,-0.06951539,0.043073114
1734276473629,2024-12-15T15:27:53.629Z,41438,0.010691231,-0.07267934,0.04192805
1734276473631,2024-12-15T15:27:53.631Z,41440,0.010691231,-0.07267934,0.04192805
1734276473637,2024-12-15T15:27:53.637Z,41446,-0.01066055,-0.07586547,0.046475857
1734276473640,2024-12-15T15:27:53.640Z,41449,-0.01066055,-0.07586547,0.046475857
1734276473647,2024-12-15T15:27:53.647Z,41456,-0.021482931,-0.077634215,0.041901674
1734276473650,2024-12-15T15:27:53.650Z,41459,-0.021482931,-0.077634215,0.041901674
1734276473657,2024-12-15T15:27:53.657Z,41466,-0.021916097,-0.08040675,0.031659424
1734276473659,2024-12-15T15:27:53.659Z,41468,-0.021916097,-0.08040675,0.031659424
1734276473666,2024-12-15T15:27:53.666Z,41475,-0.029602947,-0.07928606,0.03223285
1734276473668,2024-12-15T15:27:53.668Z,41477,-0.029602947,-0.07928606,0.03223285
1734276473677,2024-12-15T15:27:53.677Z,41486,-0.038062915,-0.08405499,0.037168145
1734276473680,2024-12-15T15:27:53.680Z,41489,-0.038062915,-0.08405499,0.037168145
1734276473689,2024-12-15T15:27:53.689Z,41498,-0.03078227,-0.08786535,0.034779668
1734276473692,2024-12-15T15:27:53.692Z,41501,-0.03078227,-0.08786535,0.034779668
1734276473703,2024-12-15T15:27:53.703Z,41512,-0.023125641,-0.089220695,0.03538808
1734276473706,2024-12-15T15:27:53.706Z,41515,-0.023125641,-0.089220695,0.03538808
1734276473712,2024-12-15T15:27:53.712Z,41521,-0.027201742,-0.10277849,0.046543688
1734276473714,2024-12-15T15:27:53.714Z,41523,-0.027201742,-0.10277849,0.046543688
1734276473721,2024-12-15T15:27:53.721Z,41530,-0.037919413,-0.10854741,0.039834883
1734276473723,2024-12-15T15:27:53.723Z,41532,-0.037919413,-0.10854741,0.039834883
1734276473731,2024-12-15T15:27:53.731Z,41540,-0.051774755,-0.11826158,0.030530063
1734276473733,2024-12-15T15:27:53.733Z,41542,-0.051774755,-0.11826158,0.030530063
1734276473739,2024-12-15T15:27:53.739Z,41548,-0.03655763,-0.12355867,0.032907546
1734276473742,2024-12-15T15:27:53.742Z,41551,-0.03655763,-0.12355867,0.032907546
1734276473748,2024-12-15T15:27:53.748Z,41557,-0.017468,-0.11957579,0.039233446
1734276473750,2024-12-15T15:27:53.750Z,41559,-0.017468,-0.11957579,0.039233446
1734276473756,2024-12-15T15:27:53.756Z,41565,-0.009293392,-0.12045316,0.03437212
1734276473758,2024-12-15T15:27:53.758Z,41567,-0.009293392,-0.12045316,0.03437212
1734276473764,2024-12-15T15:27:53.764Z,41573,-0.0057373233,-0.12618543,0.03107944
1734276473767,2024-12-15T15:27:53.767Z,41576,-0.0057373233,-0.12618543,0.03107944
1734276473775,2024-12-15T15:27:53.775Z,41584,-0.0028515947,-0.12847765,0.034753323
1734276473778,2024-12-15T15:27:53.778Z,41587,-0.0028515947,-0.12847765,0.034753323
1734276473786,2024-12-15T15:27:53.786Z,41595,-0.0058689727,-0.14102104,0.034216102
1734276473788,2024-12-15T15:27:53.788Z,41597,-0.0058689727,-0.14102104,0.034216102
1734276473794,2024-12-15T15:27:53.794Z,41603,0.009241463,-0.1457645,0.047061857
1734276473796,2024-12-15T15:27:53.796Z,41605,0.009241463,-0.1457645,0.047061857
1734276473803,2024-12-15T15:27:53.803Z,41612,0.013785107,-0.14850718,0.05245763
1734276473805,2024-12-15T15:27:53.805Z,41614,0.013785107,-0.14850718,0.05245763
1734276473811,2024-12-15T15:27:53.811Z,41620,0.011946322,-0.15075904,0.05675283
1734276473813,2024-12-15T15:27:53.813Z,41622,0.011946322,-0.15075904,0.05675283
1734276473823,2024-12-15T15:27:53.823Z,41632,0.025641644,-0.14574797,0.068682045
1734276473825,2024-12-15T15:27:53.825Z,41634,0.025641644,-0.14574797,0.068682045
1734276473833,2024-12-15T15:27:53.833Z,41642,0.03537703,-0.14414854,0.08345801
1734276473835,2024-12-15T15:27:53.835Z,41644,0.03537703,-0.14414854,0.08345801
1734276473843,2024-12-15T15:27:53.843Z,41652,0.010474029,-0.1420652,0.07081824
1734276473845,2024-12-15T15:27:53.845Z,41654,0.010474029,-0.1420652,0.07081824
1734276473851,2024-12-15T15:27:53.851Z,41660,0.003860868,-0.14294179,0.06851434
1734276473853,2024-12-15T15:27:53.853Z,41662,0.003860868,-0.14294179,0.06851434
1734276473860,2024-12-15T15:27:53.860Z,41669,0.027681751,-0.1414011,0.067562126
1734276473862,2024-12-15T15:27:53.862Z,41671,0.027681751,-0.1414011,0.067562126
1734276473871,2024-12-15T15:27:53.871Z,41680,0.046932284,-0.13238214,0.062949955
1734276473874,2024-12-15T15:27:53.874Z,41683,0.046932284,-0.13238214,0.062949955
1734276473881,2024-12-15T15:27:53.881Z,41690,0.041040972,-0.13261661,0.06485378
1734276473883,2024-12-15T15:27:53.883Z,41692,0.041040972,-0.13261661,0.06485378
1734276473892,2024-12-15T15:27:53.892Z,41701,0.026173256,-0.12605803,0.048569944
1734276473894,2024-12-15T15:27:53.894Z,41703,0.026173256,-0.12605803,0.048569944
1734276473900,2024-12-15T15:27:53.900Z,41709,0.03674864,-0.115603514,0.045116156
1734276473903,2024-12-15T15:27:53.903Z,41712,0.03674864,-0.115603514,0.045116156
1734276473909,2024-12-15T15:27:53.909Z,41718,0.037066672,-0.10222232,0.044687837
1734276473911,2024-12-15T15:27:53.911Z,41720,0.037066672,-0.10222232,0.044687837
1734276473917,2024-12-15T15:27:53.917Z,41726,0.030005703,-0.09237463,0.04383328
1734276473919,2024-12-15T15:27:53.919Z,41728,0.030005703,-0.09237463,0.04383328
1734276473927,2024-12-15T15:27:53.927Z,41736,0.01863386,-0.08546752,0.045933723
1734276473930,2024-12-15T15:27:53.930Z,41739,0.01863386,-0.08546752,0.045933723
1734276473938,2024-12-15T15:27:53.938Z,41747,0.018057302,-0.079056166,0.039816286
1734276473940,2024-12-15T15:27:53.940Z,41749,0.018057302,-0.079056166,0.039816286
1734276473946,2024-12-15T15:27:53.946Z,41755,0.02231091,-0.0736172,0.034408867
1734276473948,2024-12-15T15:27:53.948Z,41757,0.02231091,-0.0736172,0.034408867
1734276473956,2024-12-15T15:27:53.956Z,41765,0.024567544,-0.0735464,0.042736977
1734276473959,2024-12-15T15:27:53.959Z,41768,0.024567544,-0.0735464,0.042736977
1734276473969,2024-12-15T15:27:53.969Z,41778,0.016505849,-0.07298052,0.028518913
1734276473971,2024-12-15T15:27:53.971Z,41780,0.016505849,-0.07298052,0.028518913
1734276473978,2024-12-15T15:27:53.978Z,41787,0.030352537,-0.06899035,0.026463626
1734276473980,2024-12-15T15:27:53.980Z,41789,0.030352537,-0.06899035,0.026463626
1734276473986,2024-12-15T15:27:53.986Z,41795,0.023655202,-0.07226108,0.028259724
1734276473989,2024-12-15T15:27:53.989Z,41798,0.023655202,-0.07226108,0.028259724
1734276473995,2024-12-15T15:27:53.995Z,41804,0.021903649,-0.072122015,0.025100706
1734276473997,2024-12-15T15:27:53.997Z,41806,0.021903649,-0.072122015,0.025100706
1734276474004,2024-12-15T15:27:54.004Z,41813,0.029836705,-0.07490417,0.026235938
1734276474006,2024-12-15T15:27:54.006Z,41815,0.029836705,-0.07490417,0.026235938
1734276474012,2024-12-15T15:27:54.012Z,41821,0.016330456,-0.07574022,0.022966266
1734276474014,2024-12-15T15:27:54.014Z,41823,0.016330456,-0.07574022,0.022966266
1734276474020,2024-12-15T15:27:54.020Z,41829,0.00740125,-0.08441014,0.021182774
1734276474023,2024-12-15T15:27:54.023Z,41832,0.00740125,-0.08441014,0.021182774
1734276474031,2024-12-15T15:27:54.031Z,41840,0.0020335712,-0.090657234,0.009315193
1734276474035,2024-12-15T15:27:54.035Z,41844,0.0020335712,-0.090657234,0.009315193
1734276474043,2024-12-15T15:27:54.043Z,41852,0.012792487,-0.09349162,0.006960391
1734276474045,2024-12-15T15:27:54.045Z,41854,0.012792487,-0.09349162,0.006960391
1734276474052,2024-12-15T15:27:54.052Z,41861,0.024432406,-0.10266616,0.019402979
1734276474054,2024-12-15T15:27:54.054Z,41863,0.024432406,-0.10266616,0.019402979
1734276474062,2024-12-15T15:27:54.062Z,41871,0.015097313,-0.110868424,0.02352947
1734276474064,2024-12-15T15:27:54.064Z,41873,0.015097313,-0.110868424,0.02352947
1734276474071,2024-12-15T15:27:54.071Z,41880,0.00934615,-0.11322863,0.021723805
1734276474074,2024-12-15T15:27:54.074Z,41883,0.00934615,-0.11322863,0.021723805
1734276474082,2024-12-15T15:27:54.082Z,41891,0.001380638,-0.1195189,0.021333784
1734276474084,2024-12-15T15:27:54.084Z,41893,0.001380638,-0.1195189,0.021333784
1734276474097,2024-12-15T15:27:54.097Z,41906,0.004726324,-0.12728189,0.02968326
1734276474099,2024-12-15T15:27:54.099Z,41908,0.004726324,-0.12728189,0.02968326
1734276474107,2024-12-15T15:27:54.107Z,41916,0.0019921013,-0.13947189,0.036881298
1734276474110,2024-12-15T15:27:54.110Z,41919,0.0019921013,-0.13947189,0.036881298
1734276474118,2024-12-15T15:27:54.118Z,41927,-0.007886911,-0.15119249,0.042096555
1734276474121,2024-12-15T15:27:54.121Z,41930,-0.007886911,-0.15119249,0.042096555
1734276474128,2024-12-15T15:27:54.128Z,41937,-0.006802435,-0.16049403,0.048283216
1734276474130,2024-12-15T15:27:54.130Z,41939,-0.006802435,-0.16049403,0.048283216
1734276474137,2024-12-15T15:27:54.137Z,41946,-0.008003633,-0.17420547,0.05778736
1734276474139,2024-12-15T15:27:54.139Z,41948,-0.008003633,-0.17420547,0.05778736
1734276474145,2024-12-15T15:27:54.145Z,41954,-0.00519535,-0.17962441,0.05154186
1734276474147,2024-12-15T15:27:54.147Z,41956,-0.00519535,-0.17962441,0.05154186
1734276474153,2024-12-15T15:27:54.153Z,41962,-0.01162247,-0.19188073,0.056824714
1734276474156,2024-12-15T15:27:54.156Z,41965,-0.01162247,-0.19188073,0.056824714
1734276474162,2024-12-15T15:27:54.162Z,41971,-0.01504771,-0.20316195,0.057405267
1734276474164,2024-12-15T15:27:54.164Z,41973,-0.01504771,-0.20316195,0.057405267
1734276474172,2024-12-15T15:27:54.172Z,41981,0.0020017894,-0.22078547,0.057844486
1734276474175,2024-12-15T15:27:54.175Z,41984,0.0020017894,-0.22078547,0.057844486
1734276474182,2024-12-15T15:27:54.182Z,41991,-0.030857721,-0.24766824,0.070112705
1734276474185,2024-12-15T15:27:54.185Z,41994,-0.030857721,-0.24766824,0.070112705
1734276474192,2024-12-15T15:27:54.192Z,42001,-0.02310066,-0.26283783,0.060651243
1734276474194,2024-12-15T15:27:54.194Z,42003,-0.02310066,-0.26283783,0.060651243
1734276474201,2024-12-15T15:27:54.201Z,42010,-0.03389641,-0.28875238,0.053261608
1734276474203,2024-12-15T15:27:54.203Z,42012,-0.03389641,-0.28875238,0.053261608
1734276474210,2024-12-15T15:27:54.210Z,42019,-0.04025269,-0.30686975,0.053308096
1734276474212,2024-12-15T15:27:54.212Z,42021,-0.04025269,-0.30686975,0.053308096
1734276474218,2024-12-15T15:27:54.218Z,42027,-0.010501076,-0.3201108,0.058735546
1734276474220,2024-12-15T15:27:54.220Z,42029,-0.010501076,-0.3201108,0.058735546
1734276474226,2024-12-15T15:27:54.226Z,42035,-0.022842867,-0.33383614,0.059629556
1734276474228,2024-12-15T15:27:54.228Z,42037,-0.022842867,-0.33383614,0.059629556
1734276474235,2024-12-15T15:27:54.235Z,42044,-0.022981277,-0.3338945,0.047545373
1734276474237,2024-12-15T15:27:54.237Z,42046,-0.022981277,-0.3338945,0.047545373
1734276474245,2024-12-15T15:27:54.245Z,42054,-0.028033782,-0.3344413,0.057053294
1734276474247,2024-12-15T15:27:54.247Z,42056,-0.028033782,-0.3344413,0.057053294
1734276474255,2024-12-15T15:27:54.255Z,42064,-0.030548729,-0.32425675,0.059683766
1734276474257,2024-12-15T15:27:54.257Z,42066,-0.030548729,-0.32425675,0.059683766
1734276474263,2024-12-15T15:27:54.263Z,42072,-0.030486587,-0.31310827,0.06655475
1734276474266,2024-12-15T15:27:54.266Z,42075,-0.030486587,-0.31310827,0.06655475
1734276474273,2024-12-15T15:27:54.273Z,42082,-0.03911251,-0.30977967,0.070791155
1734276474275,2024-12-15T15:27:54.275Z,42084,-0.03911251,-0.30977967,0.070791155
1734276474281,2024-12-15T15:27:54.281Z,42090,-0.03591037,-0.2986492,0.07199919
1734276474283,2024-12-15T15:27:54.283Z,42092,-0.03591037,-0.2986492,0.07199919
1734276474291,2024-12-15T15:27:54.291Z,42100,-0.025400398,-0.28800425,0.07067123
1734276474293,2024-12-15T15:27:54.293Z,42102,-0.025400398,-0.28800425,0.07067123
1734276474300,2024-12-15T15:27:54.300Z,42109,-0.024819877,-0.27294496,0.07023248
1734276474302,2024-12-15T15:27:54.302Z,42111,-0.024819877,-0.27294496,0.07023248
1734276474309,2024-12-15T15:27:54.309Z,42118,-0.038557477,-0.25884065,0.071549945
1734276474311,2024-12-15T15:27:54.311Z,42120,-0.038557477,-0.25884065,0.071549945
1734276474317,2024-12-15T15:27:54.317Z,42126,-0.043040015,-0.24081889,0.06620437
1734276474319,2024-12-15T15:27:54.319Z,42128,-0.043040015,-0.24081889,0.06620437
1734276474325,2024-12-15T15:27:54.325Z,42134,-0.034715515,-0.22768715,0.061121877
1734276474327,2024-12-15T15:27:54.327Z,42136,-0.034715515,-0.22768715,0.061121877
1734276474333,2024-12-15T15:27:54.333Z,42142,-0.05068388,-0.222862,0.06647739
