Timestamp (ms),ISO DateTime,Elapsed Time (ms),Acceleration X,Acceleration Y,Acceleration Z
1732203105028,2024-11-21T15:31:45.028Z,66496,-0.45474455,-0.8107829,-1.112847
1732203105034,2024-11-21T15:31:45.034Z,66502,-0.45474455,-0.8107829,-1.112847
1732203105158,2024-11-21T15:31:45.158Z,66626,-0.49821895,-0.7988134,-1.109951
1732203105164,2024-11-21T15:31:45.164Z,66632,-0.49821895,-0.7988134,-1.109951
1732203105203,2024-11-21T15:31:45.203Z,66671,-0.49067622,-0.8251099,-1.127569
1732203105207,2024-11-21T15:31:45.207Z,66675,-0.49067622,-0.8251099,-1.127569
1732203105248,2024-11-21T15:31:45.248Z,66716,-0.4614516,-0.9259707,-1.0641125
1732203105252,2024-11-21T15:31:45.252Z,66720,-0.4614516,-0.9259707,-1.0641125
1732203105269,2024-11-21T15:31:45.269Z,66737,-0.5035435,-0.9024295,-1.0728161
1732203105275,2024-11-21T15:31:45.275Z,66743,-0.5035435,-0.9024295,-1.0728161
1732203105293,2024-11-21T15:31:45.293Z,66761,-0.48071,-0.90716577,-1.0893543
1732203105299,2024-11-21T15:31:45.299Z,66767,-0.48071,-0.90716577,-1.0893543
1732203105315,2024-11-21T15:31:45.315Z,66783,-0.50025207,-0.9002026,-1.087958
1732203105320,2024-11-21T15:31:45.320Z,66788,-0.50025207,-0.9002026,-1.087958
1732203105338,2024-11-21T15:31:45.338Z,66806,-0.48065975,-0.9106938,-1.1597644
1732203105342,2024-11-21T15:31:45.342Z,66810,-0.48065975,-0.9106938,-1.1597644
1732203105354,2024-11-21T15:31:45.354Z,66822,-0.47907054,-0.90408665,-1.1586655
1732203105357,2024-11-21T15:31:45.357Z,66825,-0.47907054,-0.90408665,-1.1586655
1732203105369,2024-11-21T15:31:45.369Z,66837,-0.46559468,-0.91373134,-1.1487796
1732203105372,2024-11-21T15:31:45.372Z,66840,-0.46559468,-0.91373134,-1.1487796
1732203105384,2024-11-21T15:31:45.384Z,66852,-0.51731795,-0.8591785,-1.0586656
1732203105388,2024-11-21T15:31:45.388Z,66856,-0.51731795,-0.8591785,-1.0586656
1732203105400,2024-11-21T15:31:45.400Z,66868,-0.49048325,-0.8728904,-1.0928216
1732203105404,2024-11-21T15:31:45.404Z,66872,-0.49048325,-0.8728904,-1.0928216
1732203105416,2024-11-21T15:31:45.416Z,66884,-0.46730673,-0.8895733,-1.1284231
1732203105420,2024-11-21T15:31:45.420Z,66888,-0.46730673,-0.8895733,-1.1284231
1732203105474,2024-11-21T15:31:45.474Z,66942,-0.4488542,-0.91284573,-1.1513305
1732203105477,2024-11-21T15:31:45.477Z,66945,-0.4488542,-0.91284573,-1.1513305
1732203105490,2024-11-21T15:31:45.490Z,66958,-0.51192504,-0.8778664,-1.1482213
1732203105494,2024-11-21T15:31:45.494Z,66962,-0.51192504,-0.8778664,-1.1482213
1732203105517,2024-11-21T15:31:45.517Z,66985,-0.4254302,-0.93218625,-1.1361747
1732203105521,2024-11-21T15:31:45.521Z,66989,-0.4254302,-0.93218625,-1.1361747
1732203105535,2024-11-21T15:31:45.535Z,67003,-0.46731406,-0.89872855,-1.1509718
1732203105538,2024-11-21T15:31:45.538Z,67006,-0.46731406,-0.89872855,-1.1509718
1732203105551,2024-11-21T15:31:45.551Z,67019,-0.45061174,-0.85224116,-1.1472794
1732203105556,2024-11-21T15:31:45.556Z,67024,-0.45061174,-0.85224116,-1.1472794
1732203105569,2024-11-21T15:31:45.569Z,67037,-0.40356144,-0.8211385,-1.1278023
1732203105572,2024-11-21T15:31:45.572Z,67040,-0.40356144,-0.8211385,-1.1278023
1732203105615,2024-11-21T15:31:45.615Z,67083,-0.40527636,-0.77313364,-1.1230749
1732203105625,2024-11-21T15:31:45.625Z,67093,-0.40527636,-0.77313364,-1.1230749
1732203105656,2024-11-21T15:31:45.656Z,67124,-0.33296382,-0.6063293,-1.1021342
1732203105664,2024-11-21T15:31:45.664Z,67132,-0.33296382,-0.6063293,-1.1021342
1732203105681,2024-11-21T15:31:45.681Z,67149,-0.36676493,-0.5932074,-1.0522038
1732203105685,2024-11-21T15:31:45.685Z,67153,-0.36676493,-0.5932074,-1.0522038
1732203105788,2024-11-21T15:31:45.788Z,67256,-0.355047,-0.60229474,-1.0502622
1732203105792,2024-11-21T15:31:45.792Z,67260,-0.355047,-0.60229474,-1.0502622
1732203105803,2024-11-21T15:31:45.803Z,67271,-0.32603765,-0.63057613,-1.085342
1732203105808,2024-11-21T15:31:45.808Z,67276,-0.32603765,-0.63057613,-1.085342
1732203105821,2024-11-21T15:31:45.821Z,67289,-0.33138037,-0.5891827,-1.0552269
1732203105825,2024-11-21T15:31:45.825Z,67293,-0.33138037,-0.5891827,-1.0552269
1732203105840,2024-11-21T15:31:45.840Z,67308,-0.3159698,-0.5823584,-1.0302635
1732203105845,2024-11-21T15:31:45.845Z,67313,-0.3159698,-0.5823584,-1.0302635
1732203105859,2024-11-21T15:31:45.859Z,67327,-0.34417412,-0.5649531,-1.023376
1732203105863,2024-11-21T15:31:45.863Z,67331,-0.34417412,-0.5649531,-1.023376
1732203105877,2024-11-21T15:31:45.877Z,67345,-0.30993178,-0.5780408,-1.035302
1732203105883,2024-11-21T15:31:45.883Z,67351,-0.30993178,-0.5780408,-1.035302
1732203105923,2024-11-21T15:31:45.923Z,67391,-0.33305883,-0.58812463,-1.0858684
1732203105925,2024-11-21T15:31:45.925Z,67393,-0.33305883,-0.58812463,-1.0858684
1732203105967,2024-11-21T15:31:45.967Z,67435,-0.38155952,-0.5787719,-1.0804313
1732203105970,2024-11-21T15:31:45.970Z,67438,-0.38155952,-0.5787719,-1.0804313
1732203106062,2024-11-21T15:31:46.062Z,67530,-0.37646222,-0.5857986,-1.0744662
1732203106073,2024-11-21T15:31:46.073Z,67541,-0.37646222,-0.5857986,-1.0744662
1732203106103,2024-11-21T15:31:46.103Z,67571,-0.34853762,-0.56356823,-1.0014787
1732203106108,2024-11-21T15:31:46.108Z,67576,-0.34853762,-0.56356823,-1.0014787
1732203106120,2024-11-21T15:31:46.120Z,67588,-0.3618801,-0.5512884,-1.0126952
1732203106124,2024-11-21T15:31:46.124Z,67592,-0.3618801,-0.5512884,-1.0126952
1732203106138,2024-11-21T15:31:46.138Z,67606,-0.35001168,-0.5519217,-1.0357307
1732203106141,2024-11-21T15:31:46.141Z,67609,-0.35001168,-0.5519217,-1.0357307
1732203106191,2024-11-21T15:31:46.191Z,67659,-0.2731983,-0.526979,-0.99463856
1732203106194,2024-11-21T15:31:46.194Z,67662,-0.2731983,-0.526979,-0.99463856
1732203106207,2024-11-21T15:31:46.207Z,67675,-0.20344178,-0.5006689,-1.042071
1732203106212,2024-11-21T15:31:46.212Z,67680,-0.20344178,-0.5006689,-1.042071
1732203106228,2024-11-21T15:31:46.228Z,67696,-0.20336817,-0.4339391,-0.9653907
1732203106233,2024-11-21T15:31:46.233Z,67701,-0.20336817,-0.4339391,-0.9653907
1732203106331,2024-11-21T15:31:46.331Z,67799,-0.20713425,-0.42360386,-0.9818457
1732203106336,2024-11-21T15:31:46.336Z,67804,-0.20713425,-0.42360386,-0.9818457
1732203106375,2024-11-21T15:31:46.375Z,67843,-0.21886216,-0.4284783,-0.9391377
1732203106380,2024-11-21T15:31:46.380Z,67848,-0.21886216,-0.4284783,-0.9391377
1732203106397,2024-11-21T15:31:46.397Z,67865,-0.24945886,-0.41318172,-0.9762037
1732203106402,2024-11-21T15:31:46.402Z,67870,-0.24945886,-0.41318172,-0.9762037
1732203106419,2024-11-21T15:31:46.419Z,67887,-0.22719519,-0.43542236,-0.97818834
1732203106424,2024-11-21T15:31:46.424Z,67892,-0.22719519,-0.43542236,-0.97818834
1732203106557,2024-11-21T15:31:46.557Z,68025,-0.20994493,-0.42509758,-1.0287412
1732203106566,2024-11-21T15:31:46.566Z,68034,-0.20994493,-0.42509758,-1.0287412
1732203106602,2024-11-21T15:31:46.602Z,68070,-0.20574576,-0.4268735,-1.0359126
1732203106611,2024-11-21T15:31:46.611Z,68079,-0.20574576,-0.4268735,-1.0359126
1732203106632,2024-11-21T15:31:46.632Z,68100,-0.28431103,-0.53946567,-1.0544003
1732203106639,2024-11-21T15:31:46.639Z,68107,-0.28431103,-0.53946567,-1.0544003
1732203106656,2024-11-21T15:31:46.656Z,68124,-0.3115579,-0.55160517,-1.0287848
1732203106662,2024-11-21T15:31:46.662Z,68130,-0.3115579,-0.55160517,-1.0287848
1732203106677,2024-11-21T15:31:46.677Z,68145,-0.3482708,-0.5568044,-1.0711471
1732203106682,2024-11-21T15:31:46.682Z,68150,-0.3482708,-0.5568044,-1.0711471
1732203106696,2024-11-21T15:31:46.696Z,68164,-0.3321725,-0.5158879,-1.0616647
1732203106701,2024-11-21T15:31:46.701Z,68169,-0.3321725,-0.5158879,-1.0616647
1732203106823,2024-11-21T15:31:46.823Z,68291,-0.3319963,-0.53782076,-1.0318102
1732203106826,2024-11-21T15:31:46.826Z,68294,-0.3319963,-0.53782076,-1.0318102
1732203106842,2024-11-21T15:31:46.842Z,68310,-0.37181634,-0.54785997,-0.9851886
1732203106847,2024-11-21T15:31:46.847Z,68315,-0.37181634,-0.54785997,-0.9851886
1732203106914,2024-11-21T15:31:46.914Z,68382,-0.34805018,-0.5713304,-0.93317723
1732203106919,2024-11-21T15:31:46.919Z,68387,-0.34805018,-0.5713304,-0.93317723
1732203106936,2024-11-21T15:31:46.936Z,68404,-0.34308836,-0.5708187,-1.0565484
1732203106941,2024-11-21T15:31:46.941Z,68409,-0.34308836,-0.5708187,-1.0565484
1732203106957,2024-11-21T15:31:46.957Z,68425,-0.36882755,-0.55547464,-1.0473047
1732203106963,2024-11-21T15:31:46.963Z,68431,-0.36882755,-0.55547464,-1.0473047
1732203106978,2024-11-21T15:31:46.978Z,68446,-0.360415,-0.58402663,-1.0688993
1732203106982,2024-11-21T15:31:46.982Z,68450,-0.360415,-0.58402663,-1.0688993
1732203106995,2024-11-21T15:31:46.995Z,68463,-0.4090464,-0.58725667,-1.1267691
1732203106999,2024-11-21T15:31:46.999Z,68467,-0.4090464,-0.58725667,-1.1267691
1732203107321,2024-11-21T15:31:47.321Z,68789,-0.3931599,-0.6404964,-1.0988219
1732203107326,2024-11-21T15:31:47.326Z,68794,-0.3931599,-0.6404964,-1.0988219
1732203107412,2024-11-21T15:31:47.412Z,68880,-0.36733025,-0.62497634,-1.0285282
1732203107420,2024-11-21T15:31:47.420Z,68888,-0.36733025,-0.62497634,-1.0285282
1732203107449,2024-11-21T15:31:47.449Z,68917,-0.41553313,-0.5697147,-1.1079026
1732203107456,2024-11-21T15:31:47.456Z,68924,-0.41553313,-0.5697147,-1.1079026
1732203107476,2024-11-21T15:31:47.476Z,68944,-0.37120065,-0.60128295,-0.9995261
1732203107481,2024-11-21T15:31:47.481Z,68949,-0.37120065,-0.60128295,-0.9995261
1732203107511,2024-11-21T15:31:47.511Z,68979,-0.40325248,-0.5689485,-0.96039575
1732203107517,2024-11-21T15:31:47.517Z,68985,-0.40325248,-0.5689485,-0.96039575
1732203107533,2024-11-21T15:31:47.533Z,69001,-0.4218704,-0.5687987,-0.93102586
1732203107539,2024-11-21T15:31:47.539Z,69007,-0.4218704,-0.5687987,-0.93102586
1732203107562,2024-11-21T15:31:47.562Z,69030,-0.45165408,-0.5794224,-1.0079166
1732203107572,2024-11-21T15:31:47.572Z,69040,-0.45165408,-0.5794224,-1.0079166
1732203107601,2024-11-21T15:31:47.601Z,69069,-0.40142095,-0.69491464,-1.0476167
1732203107609,2024-11-21T15:31:47.609Z,69077,-0.40142095,-0.69491464,-1.0476167
1732203107625,2024-11-21T15:31:47.625Z,69093,-0.46635452,-0.6665106,-0.91300863
1732203107629,2024-11-21T15:31:47.629Z,69097,-0.46635452,-0.6665106,-0.91300863
1732203107643,2024-11-21T15:31:47.643Z,69111,-0.5096752,-0.6541096,-0.9574657
1732203107648,2024-11-21T15:31:47.648Z,69116,-0.5096752,-0.6541096,-0.9574657
1732203107661,2024-11-21T15:31:47.661Z,69129,-0.47182563,-0.66839397,-0.9806312
1732203107664,2024-11-21T15:31:47.664Z,69132,-0.47182563,-0.66839397,-0.9806312
1732203107676,2024-11-21T15:31:47.676Z,69144,-0.4474086,-0.6289181,-1.0564684
1732203107679,2024-11-21T15:31:47.679Z,69147,-0.4474086,-0.6289181,-1.0564684
1732203107690,2024-11-21T15:31:47.690Z,69158,-0.46097955,-0.5891531,-1.0031976
1732203107695,2024-11-21T15:31:47.695Z,69163,-0.46097955,-0.5891531,-1.0031976
1732203107721,2024-11-21T15:31:47.721Z,69189,-0.477758,-0.56417185,-0.97503585
1732203107724,2024-11-21T15:31:47.724Z,69192,-0.477758,-0.56417185,-0.97503585
1732203107733,2024-11-21T15:31:47.733Z,69201,-0.428638,-0.5582878,-0.9734925
1732203107736,2024-11-21T15:31:47.736Z,69204,-0.428638,-0.5582878,-0.9734925
1732203107748,2024-11-21T15:31:47.748Z,69216,-0.42537025,-0.51271653,-1.0209727
1732203107751,2024-11-21T15:31:47.751Z,69219,-0.42537025,-0.51271653,-1.0209727
1732203107767,2024-11-21T15:31:47.767Z,69235,-0.4144056,-0.52163345,-1.0798227
1732203107770,2024-11-21T15:31:47.770Z,69238,-0.4144056,-0.52163345,-1.0798227
1732203107780,2024-11-21T15:31:47.780Z,69248,-0.31653693,-0.48266876,-1.0630978
1732203107783,2024-11-21T15:31:47.783Z,69251,-0.31653693,-0.48266876,-1.0630978
1732203107795,2024-11-21T15:31:47.795Z,69263,-0.28966564,-0.50140005,-0.991552
1732203107798,2024-11-21T15:31:47.798Z,69266,-0.28966564,-0.50140005,-0.991552
1732203107858,2024-11-21T15:31:47.858Z,69326,-0.33690804,-0.46749514,-0.9905902
1732203107861,2024-11-21T15:31:47.861Z,69329,-0.33690804,-0.46749514,-0.9905902
1732203107870,2024-11-21T15:31:47.870Z,69338,-0.26299757,-0.5102556,-1.0220253
1732203107874,2024-11-21T15:31:47.874Z,69342,-0.26299757,-0.5102556,-1.0220253
1732203107887,2024-11-21T15:31:47.887Z,69355,-0.2948978,-0.49966308,-1.0037339
1732203107890,2024-11-21T15:31:47.890Z,69358,-0.2948978,-0.49966308,-1.0037339
1732203107905,2024-11-21T15:31:47.905Z,69373,-0.27635208,-0.4894485,-1.021154
1732203107909,2024-11-21T15:31:47.909Z,69377,-0.27635208,-0.4894485,-1.021154
1732203107922,2024-11-21T15:31:47.922Z,69390,-0.24645703,-0.5390952,-1.1895063
1732203107927,2024-11-21T15:31:47.927Z,69395,-0.24645703,-0.5390952,-1.1895063
1732203107940,2024-11-21T15:31:47.940Z,69408,-0.19688435,-0.5415876,-1.147642
1732203107946,2024-11-21T15:31:47.946Z,69414,-0.19688435,-0.5415876,-1.147642
1732203107958,2024-11-21T15:31:47.958Z,69426,-0.20613888,-0.5301523,-1.0704169
1732203107963,2024-11-21T15:31:47.963Z,69431,-0.20613888,-0.5301523,-1.0704169
1732203107974,2024-11-21T15:31:47.974Z,69442,-0.13371423,-0.47100103,-1.1182237
1732203107977,2024-11-21T15:31:47.977Z,69445,-0.13371423,-0.47100103,-1.1182237
1732203107987,2024-11-21T15:31:47.987Z,69455,-0.10570778,-0.45108575,-1.0502075
1732203107990,2024-11-21T15:31:47.990Z,69458,-0.10570778,-0.45108575,-1.0502075
1732203108039,2024-11-21T15:31:48.039Z,69507,-0.12858486,-0.4026235,-1.0037892
1732203108042,2024-11-21T15:31:48.042Z,69510,-0.12858486,-0.4026235,-1.0037892
1732203108085,2024-11-21T15:31:48.085Z,69553,-0.14270514,-0.37197995,-1.0449679
1732203108090,2024-11-21T15:31:48.090Z,69558,-0.14270514,-0.37197995,-1.0449679
1732203108103,2024-11-21T15:31:48.103Z,69571,-0.14502883,-0.38135502,-1.1153685
1732203108107,2024-11-21T15:31:48.107Z,69575,-0.14502883,-0.38135502,-1.1153685
1732203108120,2024-11-21T15:31:48.120Z,69588,-0.120177776,-0.39739725,-1.166227
1732203108124,2024-11-21T15:31:48.124Z,69592,-0.120177776,-0.39739725,-1.166227
1732203108135,2024-11-21T15:31:48.135Z,69603,-0.1256985,-0.38982198,-1.0787383
1732203108138,2024-11-21T15:31:48.138Z,69606,-0.1256985,-0.38982198,-1.0787383
1732203108263,2024-11-21T15:31:48.263Z,69731,-0.1543229,-0.36385974,-1.0540471
1732203108267,2024-11-21T15:31:48.267Z,69735,-0.1543229,-0.36385974,-1.0540471
1732203108359,2024-11-21T15:31:48.359Z,69827,-0.0926258,-0.31829238,-1.0576293
1732203108367,2024-11-21T15:31:48.367Z,69835,-0.0926258,-0.31829238,-1.0576293
1732203108389,2024-11-21T15:31:48.389Z,69857,-0.13493736,-0.33508477,-1.0741532
1732203108394,2024-11-21T15:31:48.394Z,69862,-0.13493736,-0.33508477,-1.0741532
1732203108410,2024-11-21T15:31:48.410Z,69878,-0.11642922,-0.3309391,-1.080415
1732203108415,2024-11-21T15:31:48.415Z,69883,-0.11642922,-0.3309391,-1.080415
1732203108430,2024-11-21T15:31:48.430Z,69898,-0.10867296,-0.31115192,-1.0840156
1732203108434,2024-11-21T15:31:48.434Z,69902,-0.10867296,-0.31115192,-1.0840156
1732203108447,2024-11-21T15:31:48.447Z,69915,-0.08142235,-0.3185745,-1.0481378
1732203108454,2024-11-21T15:31:48.454Z,69922,-0.08142235,-0.3185745,-1.0481378
1732203108464,2024-11-21T15:31:48.464Z,69932,-0.03605058,-0.1545899,-1.0448047
1732203108468,2024-11-21T15:31:48.468Z,69936,-0.03605058,-0.1545899,-1.0448047
1732203108478,2024-11-21T15:31:48.478Z,69946,-0.36958757,-0.474339,-1.2682182
1732203108481,2024-11-21T15:31:48.481Z,69949,-0.36958757,-0.474339,-1.2682182
1732203108493,2024-11-21T15:31:48.493Z,69961,-0.3973544,-0.4844067,-1.2124223
1732203108497,2024-11-21T15:31:48.497Z,69965,-0.3973544,-0.4844067,-1.2124223
1732203108513,2024-11-21T15:31:48.513Z,69981,-0.37277734,-0.5187215,-1.2248191
1732203108523,2024-11-21T15:31:48.523Z,69991,-0.37277734,-0.5187215,-1.2248191
1732203108545,2024-11-21T15:31:48.545Z,70013,-0.40929726,-0.4812207,-1.1758592
1732203108552,2024-11-21T15:31:48.552Z,70020,-0.40929726,-0.4812207,-1.1758592
1732203108575,2024-11-21T15:31:48.575Z,70043,-0.33427,-0.48264566,-1.1308302
1732203108582,2024-11-21T15:31:48.582Z,70050,-0.33427,-0.48264566,-1.1308302
1732203108608,2024-11-21T15:31:48.608Z,70076,-0.3179534,-0.44499096,-1.1307483
1732203108613,2024-11-21T15:31:48.613Z,70081,-0.3179534,-0.44499096,-1.1307483
1732203108627,2024-11-21T15:31:48.627Z,70095,-0.2233164,-0.41291425,-1.1136765
1732203108632,2024-11-21T15:31:48.632Z,70100,-0.2233164,-0.41291425,-1.1136765
1732203108644,2024-11-21T15:31:48.644Z,70112,-0.20036854,-0.39406785,-1.0646323
1732203108648,2024-11-21T15:31:48.648Z,70116,-0.20036854,-0.39406785,-1.0646323
1732203108659,2024-11-21T15:31:48.659Z,70127,-0.20461184,-0.3509196,-1.0319518
1732203108663,2024-11-21T15:31:48.663Z,70131,-0.20461184,-0.3509196,-1.0319518
1732203108673,2024-11-21T15:31:48.673Z,70141,-0.18877019,-0.3436406,-1.0350119
1732203108676,2024-11-21T15:31:48.676Z,70144,-0.18877019,-0.3436406,-1.0350119
1732203108687,2024-11-21T15:31:48.687Z,70155,-0.1672596,-0.36012435,-1.0935069
1732203108690,2024-11-21T15:31:48.690Z,70158,-0.1672596,-0.36012435,-1.0935069
1732203108700,2024-11-21T15:31:48.700Z,70168,-0.12080714,-0.3684134,-1.0930159
1732203108704,2024-11-21T15:31:48.704Z,70172,-0.12080714,-0.3684134,-1.0930159
1732203108716,2024-11-21T15:31:48.716Z,70184,-0.22312953,-0.35561356,-1.1810076
1732203108719,2024-11-21T15:31:48.719Z,70187,-0.22312953,-0.35561356,-1.1810076
1732203108731,2024-11-21T15:31:48.731Z,70199,-0.22038996,-0.37860912,-1.1471446
1732203108734,2024-11-21T15:31:48.734Z,70202,-0.22038996,-0.37860912,-1.1471446
1732203108748,2024-11-21T15:31:48.748Z,70216,-0.16388878,-0.43575156,-1.0761379
1732203108755,2024-11-21T15:31:48.755Z,70223,-0.16388878,-0.43575156,-1.0761379
1732203108780,2024-11-21T15:31:48.780Z,70248,-0.22949573,-0.41421744,-1.0556356
1732203108787,2024-11-21T15:31:48.787Z,70255,-0.22949573,-0.41421744,-1.0556356
1732203108799,2024-11-21T15:31:48.799Z,70267,-0.24853335,-0.43377566,-1.1112689
1732203108802,2024-11-21T15:31:48.802Z,70270,-0.24853335,-0.43377566,-1.1112689
1732203108814,2024-11-21T15:31:48.814Z,70282,-0.2346707,-0.43816426,-1.1335373
1732203108817,2024-11-21T15:31:48.817Z,70285,-0.2346707,-0.43816426,-1.1335373
1732203108833,2024-11-21T15:31:48.833Z,70301,-0.21329947,-0.43751922,-1.1455665
1732203108840,2024-11-21T15:31:48.840Z,70308,-0.21329947,-0.43751922,-1.1455665
1732203108860,2024-11-21T15:31:48.860Z,70328,-0.20237306,-0.4333589,-1.0929908
1732203108863,2024-11-21T15:31:48.863Z,70331,-0.20237306,-0.4333589,-1.0929908
1732203108875,2024-11-21T15:31:48.875Z,70343,-0.20453319,-0.41666976,-1.048738
1732203108880,2024-11-21T15:31:48.880Z,70348,-0.20453319,-0.41666976,-1.048738
1732203108892,2024-11-21T15:31:48.892Z,70360,-0.19763045,-0.39976832,-1.0972246
1732203108896,2024-11-21T15:31:48.896Z,70364,-0.19763045,-0.39976832,-1.0972246
1732203108906,2024-11-21T15:31:48.906Z,70374,-0.21975115,-0.37867302,-1.152674
1732203108909,2024-11-21T15:31:48.909Z,70377,-0.21975115,-0.37867302,-1.152674
1732203108920,2024-11-21T15:31:48.920Z,70388,-0.16003169,-0.32362857,-1.0886406
1732203108924,2024-11-21T15:31:48.924Z,70392,-0.16003169,-0.32362857,-1.0886406
1732203109075,2024-11-21T15:31:49.075Z,70543,-0.14135559,-0.3403378,-1.0557173
1732203109082,2024-11-21T15:31:49.082Z,70550,-0.14135559,-0.3403378,-1.0557173
1732203109099,2024-11-21T15:31:49.099Z,70567,-0.17569733,-0.28752413,-1.0941061
1732203109104,2024-11-21T15:31:49.104Z,70572,-0.17569733,-0.28752413,-1.0941061
1732203109118,2024-11-21T15:31:49.118Z,70586,-0.14978334,-0.32035455,-1.0287904
1732203109123,2024-11-21T15:31:49.123Z,70591,-0.14978334,-0.32035455,-1.0287904
1732203109165,2024-11-21T15:31:49.165Z,70633,-0.15132588,-0.31230557,-1.0915148
1732203109170,2024-11-21T15:31:49.170Z,70638,-0.15132588,-0.31230557,-1.0915148
1732203109187,2024-11-21T15:31:49.187Z,70655,-0.14109495,-0.320279,-1.110006
1732203109192,2024-11-21T15:31:49.192Z,70660,-0.14109495,-0.320279,-1.110006
1732203109207,2024-11-21T15:31:49.207Z,70675,-0.14260763,-0.31977206,-1.1245232
1732203109211,2024-11-21T15:31:49.211Z,70679,-0.14260763,-0.31977206,-1.1245232
1732203109225,2024-11-21T15:31:49.225Z,70693,-0.16133201,-0.28859076,-1.0552847
1732203109229,2024-11-21T15:31:49.229Z,70697,-0.16133201,-0.28859076,-1.0552847
1732203109241,2024-11-21T15:31:49.241Z,70709,-0.16145173,-0.28603196,-1.0349469
1732203109244,2024-11-21T15:31:49.244Z,70712,-0.16145173,-0.28603196,-1.0349469
1732203109343,2024-11-21T15:31:49.343Z,70811,-0.20106456,-0.28940034,-1.0634733
1732203109346,2024-11-21T15:31:49.346Z,70814,-0.20106456,-0.28940034,-1.0634733
1732203109357,2024-11-21T15:31:49.357Z,70825,-0.2298879,-0.42109504,-1.0377296
1732203109360,2024-11-21T15:31:49.360Z,70828,-0.2298879,-0.42109504,-1.0377296
1732203109370,2024-11-21T15:31:49.370Z,70838,-0.2771489,-0.4325062,-1.0489348
1732203109373,2024-11-21T15:31:49.373Z,70841,-0.2771489,-0.4325062,-1.0489348
1732203109384,2024-11-21T15:31:49.384Z,70852,-0.3024516,-0.47069293,-1.0868433
1732203109388,2024-11-21T15:31:49.388Z,70856,-0.3024516,-0.47069293,-1.0868433
1732203109577,2024-11-21T15:31:49.577Z,71045,-0.27139044,-0.49478266,-1.0851789
1732203109585,2024-11-21T15:31:49.585Z,71053,-0.27139044,-0.49478266,-1.0851789
1732203109612,2024-11-21T15:31:49.612Z,71080,-0.27256858,-0.48064995,-1.0527259
1732203109620,2024-11-21T15:31:49.620Z,71088,-0.27256858,-0.48064995,-1.0527259
1732203109635,2024-11-21T15:31:49.635Z,71103,-0.3419027,-0.4735558,-1.0336233
1732203109640,2024-11-21T15:31:49.640Z,71108,-0.3419027,-0.4735558,-1.0336233
1732203109660,2024-11-21T15:31:49.660Z,71128,-0.3672323,-0.52956426,-1.0840435
1732203109664,2024-11-21T15:31:49.664Z,71132,-0.3672323,-0.52956426,-1.0840435
1732203109676,2024-11-21T15:31:49.676Z,71144,-0.37075347,-0.5374995,-1.0769422
1732203109679,2024-11-21T15:31:49.679Z,71147,-0.37075347,-0.5374995,-1.0769422
1732203109691,2024-11-21T15:31:49.691Z,71159,-0.32372406,-0.5129023,-1.0909815
1732203109694,2024-11-21T15:31:49.694Z,71162,-0.32372406,-0.5129023,-1.0909815
1732203109704,2024-11-21T15:31:49.704Z,71172,-0.35911122,-0.53735787,-0.9147653
1732203109708,2024-11-21T15:31:49.708Z,71176,-0.35911122,-0.53735787,-0.9147653
1732203109719,2024-11-21T15:31:49.719Z,71187,-0.363318,-0.56210524,-0.93957794
1732203109722,2024-11-21T15:31:49.722Z,71190,-0.363318,-0.56210524,-0.93957794
1732203109738,2024-11-21T15:31:49.738Z,71206,-0.4325408,-0.55405253,-1.0355
1732203109748,2024-11-21T15:31:49.748Z,71216,-0.4325408,-0.55405253,-1.0355
1732203109772,2024-11-21T15:31:49.772Z,71240,-0.37690693,-0.5658688,-1.0343769
1732203109780,2024-11-21T15:31:49.780Z,71248,-0.37690693,-0.5658688,-1.0343769
1732203109808,2024-11-21T15:31:49.808Z,71276,-0.38879663,-0.5487433,-1.0283715
1732203109816,2024-11-21T15:31:49.816Z,71284,-0.38879663,-0.5487433,-1.0283715
1732203109838,2024-11-21T15:31:49.838Z,71306,-0.23005973,-0.57831687,-0.9885401
1732203109843,2024-11-21T15:31:49.843Z,71311,-0.23005973,-0.57831687,-0.9885401
1732203109858,2024-11-21T15:31:49.858Z,71326,-0.34946764,-0.5941411,-1.0158266
1732203109863,2024-11-21T15:31:49.863Z,71331,-0.34946764,-0.5941411,-1.0158266
1732203109876,2024-11-21T15:31:49.876Z,71344,-0.39378473,-0.58608526,-1.0628531
1732203109880,2024-11-21T15:31:49.880Z,71348,-0.39378473,-0.58608526,-1.0628531
1732203109893,2024-11-21T15:31:49.893Z,71361,-0.36406076,-0.5647771,-1.0585043
1732203109897,2024-11-21T15:31:49.897Z,71365,-0.36406076,-0.5647771,-1.0585043
1732203109915,2024-11-21T15:31:49.915Z,71383,-0.3592292,-0.5479266,-1.0227385
1732203109925,2024-11-21T15:31:49.925Z,71393,-0.3592292,-0.5479266,-1.0227385
1732203109944,2024-11-21T15:31:49.944Z,71412,-0.3652542,-0.5567594,-0.9992226
1732203109947,2024-11-21T15:31:49.947Z,71415,-0.3652542,-0.5567594,-0.9992226
1732203109959,2024-11-21T15:31:49.959Z,71427,-0.3927026,-0.5459541,-1.0912616
1732203109964,2024-11-21T15:31:49.964Z,71432,-0.3927026,-0.5459541,-1.0912616
1732203109977,2024-11-21T15:31:49.977Z,71445,-0.39216447,-0.5745608,-1.1058944
1732203109981,2024-11-21T15:31:49.981Z,71449,-0.39216447,-0.5745608,-1.1058944
1732203109993,2024-11-21T15:31:49.993Z,71461,-0.3877173,-0.5951682,-1.0382903
1732203109997,2024-11-21T15:31:49.997Z,71465,-0.3877173,-0.5951682,-1.0382903
1732203110007,2024-11-21T15:31:50.007Z,71475,-0.39067683,-0.61111665,-0.95162666
1732203110010,2024-11-21T15:31:50.010Z,71478,-0.39067683,-0.61111665,-0.95162666
1732203110019,2024-11-21T15:31:50.019Z,71487,-0.4247499,-0.5956392,-0.96344614
1732203110022,2024-11-21T15:31:50.022Z,71490,-0.4247499,-0.5956392,-0.96344614
1732203110155,2024-11-21T15:31:50.155Z,71623,-0.40718204,-0.61321825,-1.0639753
1732203110160,2024-11-21T15:31:50.160Z,71628,-0.40718204,-0.61321825,-1.0639753
1732203110297,2024-11-21T15:31:50.297Z,71765,-0.44078162,-0.6085976,-0.9940605
1732203110305,2024-11-21T15:31:50.305Z,71773,-0.44078162,-0.6085976,-0.9940605
1732203110333,2024-11-21T15:31:50.333Z,71801,-0.43697342,-0.612192,-0.9971693
1732203110341,2024-11-21T15:31:50.341Z,71809,-0.43697342,-0.612192,-0.9971693
1732203110359,2024-11-21T15:31:50.359Z,71827,-0.46359473,-0.6104477,-0.99544644
1732203110363,2024-11-21T15:31:50.363Z,71831,-0.46359473,-0.6104477,-0.99544644
1732203110380,2024-11-21T15:31:50.380Z,71848,-0.44813153,-0.6304571,-0.9951495
1732203110385,2024-11-21T15:31:50.385Z,71853,-0.44813153,-0.6304571,-0.9951495
1732203110400,2024-11-21T15:31:50.400Z,71868,-0.4442262,-0.6207219,-1.0347443
1732203110404,2024-11-21T15:31:50.404Z,71872,-0.4442262,-0.6207219,-1.0347443
1732203110420,2024-11-21T15:31:50.420Z,71888,-0.45588833,-0.61036307,-1.0527898
1732203110425,2024-11-21T15:31:50.425Z,71893,-0.45588833,-0.61036307,-1.0527898
1732203110437,2024-11-21T15:31:50.437Z,71905,-0.45035505,-0.57087606,-0.9244151
1732203110440,2024-11-21T15:31:50.440Z,71908,-0.45035505,-0.57087606,-0.9244151
1732203110450,2024-11-21T15:31:50.450Z,71918,-0.47377318,-0.56349653,-0.96875393
1732203110453,2024-11-21T15:31:50.453Z,71921,-0.47377318,-0.56349653,-0.96875393
1732203110520,2024-11-21T15:31:50.520Z,71988,-0.4088675,-0.57476664,-0.9839269
1732203110526,2024-11-21T15:31:50.526Z,71994,-0.4088675,-0.57476664,-0.9839269
1732203110558,2024-11-21T15:31:50.558Z,72026,-0.4085058,-0.5811894,-0.9437673
1732203110562,2024-11-21T15:31:50.562Z,72030,-0.4085058,-0.5811894,-0.9437673
1732203110654,2024-11-21T15:31:50.654Z,72122,-0.44659933,-0.55218303,-0.96491516
1732203110662,2024-11-21T15:31:50.662Z,72130,-0.44659933,-0.55218303,-0.96491516
1732203110688,2024-11-21T15:31:50.688Z,72156,-0.37460187,-0.5042142,-0.89812934
1732203110696,2024-11-21T15:31:50.696Z,72164,-0.37460187,-0.5042142,-0.89812934
1732203110711,2024-11-21T15:31:50.711Z,72179,-0.39775965,-0.48244086,-0.8961102
1732203110715,2024-11-21T15:31:50.715Z,72183,-0.39775965,-0.48244086,-0.8961102
1732203110729,2024-11-21T15:31:50.729Z,72197,-0.3837633,-0.46340534,-0.85711
1732203110733,2024-11-21T15:31:50.733Z,72201,-0.3837633,-0.46340534,-0.85711
1732203110748,2024-11-21T15:31:50.748Z,72216,-0.33360848,-0.42020324,-0.82069796
1732203110752,2024-11-21T15:31:50.752Z,72220,-0.33360848,-0.42020324,-0.82069796
1732203110765,2024-11-21T15:31:50.765Z,72233,-0.3146958,-0.3742694,-0.91538095
1732203110770,2024-11-21T15:31:50.770Z,72238,-0.3146958,-0.3742694,-0.91538095
1732203110781,2024-11-21T15:31:50.781Z,72249,-0.2870724,-0.3713314,-0.9259998
1732203110785,2024-11-21T15:31:50.785Z,72253,-0.2870724,-0.3713314,-0.9259998
1732203110799,2024-11-21T15:31:50.799Z,72267,-0.09823026,-0.2320135,-0.8680613
1732203110805,2024-11-21T15:31:50.805Z,72273,-0.09823026,-0.2320135,-0.8680613
1732203110831,2024-11-21T15:31:50.831Z,72299,-0.08788162,-0.21493247,-0.8675275
1732203110838,2024-11-21T15:31:50.838Z,72306,-0.08788162,-0.21493247,-0.8675275
1732203110857,2024-11-21T15:31:50.857Z,72325,-0.06010575,-0.22072844,-0.939425
1732203110865,2024-11-21T15:31:50.865Z,72333,-0.06010575,-0.22072844,-0.939425
1732203110887,2024-11-21T15:31:50.887Z,72355,-0.017132033,-0.24469207,-0.8512178
1732203110894,2024-11-21T15:31:50.894Z,72362,-0.017132033,-0.24469207,-0.8512178
1732203110909,2024-11-21T15:31:50.909Z,72377,-0.1570802,-0.20082048,-0.8732622
1732203110913,2024-11-21T15:31:50.913Z,72381,-0.1570802,-0.20082048,-0.8732622
1732203110925,2024-11-21T15:31:50.925Z,72393,-0.075373836,-0.2522855,-0.9183456
1732203110929,2024-11-21T15:31:50.929Z,72397,-0.075373836,-0.2522855,-0.9183456
1732203110941,2024-11-21T15:31:50.941Z,72409,-0.09135645,-0.26392475,-0.90376484
1732203110945,2024-11-21T15:31:50.945Z,72413,-0.09135645,-0.26392475,-0.90376484
1732203110956,2024-11-21T15:31:50.956Z,72424,-0.10428626,-0.21494594,-0.88102454
1732203110960,2024-11-21T15:31:50.960Z,72428,-0.10428626,-0.21494594,-0.88102454
1732203110971,2024-11-21T15:31:50.971Z,72439,-0.1169096,-0.2527469,-0.9627939
1732203110974,2024-11-21T15:31:50.974Z,72442,-0.1169096,-0.2527469,-0.9627939
1732203110984,2024-11-21T15:31:50.984Z,72452,-0.08739827,-0.12068602,-0.86531425
1732203110987,2024-11-21T15:31:50.987Z,72455,-0.08739827,-0.12068602,-0.86531425
1732203110997,2024-11-21T15:31:50.997Z,72465,-0.032344446,-0.14118826,-0.86749125
1732203111001,2024-11-21T15:31:51.001Z,72469,-0.032344446,-0.14118826,-0.86749125
1732203111012,2024-11-21T15:31:51.012Z,72480,-0.04978028,-0.09630801,-0.9161288
1732203111015,2024-11-21T15:31:51.015Z,72483,-0.04978028,-0.09630801,-0.9161288
1732203111026,2024-11-21T15:31:51.026Z,72494,0.02136892,-0.052329045,-0.90523785
1732203111030,2024-11-21T15:31:51.030Z,72498,0.02136892,-0.052329045,-0.90523785
1732203111039,2024-11-21T15:31:51.039Z,72507,0.0316887,-0.025949677,-0.81722146
1732203111042,2024-11-21T15:31:51.042Z,72510,0.0316887,-0.025949677,-0.81722146
1732203111052,2024-11-21T15:31:51.052Z,72520,0.09441292,0.04189062,-0.89943576
1732203111055,2024-11-21T15:31:51.055Z,72523,0.09441292,0.04189062,-0.89943576
1732203111066,2024-11-21T15:31:51.066Z,72534,0.034444604,0.043389644,-1.0178826
1732203111070,2024-11-21T15:31:51.070Z,72538,0.034444604,0.043389644,-1.0178826
1732203111097,2024-11-21T15:31:51.097Z,72565,0.12475238,0.019059725,-0.92595327
1732203111100,2024-11-21T15:31:51.100Z,72568,0.12475238,0.019059725,-0.92595327
1732203111108,2024-11-21T15:31:51.108Z,72576,0.08946376,0.08120063,-0.7892678
1732203111111,2024-11-21T15:31:51.111Z,72579,0.08946376,0.08120063,-0.7892678
1732203111121,2024-11-21T15:31:51.121Z,72589,0.04049677,0.11287955,-0.7436101
1732203111124,2024-11-21T15:31:51.124Z,72592,0.04049677,0.11287955,-0.7436101
1732203111188,2024-11-21T15:31:51.188Z,72656,0.12624939,0.08488627,-0.74934363
1732203111191,2024-11-21T15:31:51.191Z,72659,0.12624939,0.08488627,-0.74934363
1732203111201,2024-11-21T15:31:51.201Z,72669,-0.034857713,0.13099101,-1.0319
1732203111204,2024-11-21T15:31:51.204Z,72672,-0.034857713,0.13099101,-1.0319
1732203111213,2024-11-21T15:31:51.213Z,72681,0.02068352,0.10830327,-0.78915435
1732203111217,2024-11-21T15:31:51.217Z,72685,0.02068352,0.10830327,-0.78915435
1732203111279,2024-11-21T15:31:51.279Z,72747,-0.09456037,-0.21248786,-1.0520365
1732203111283,2024-11-21T15:31:51.283Z,72751,-0.09456037,-0.21248786,-1.0520365
1732203111298,2024-11-21T15:31:51.298Z,72766,-0.16002743,-0.2352746,-1.0023066
1732203111302,2024-11-21T15:31:51.302Z,72770,-0.16002743,-0.2352746,-1.0023066
1732203111316,2024-11-21T15:31:51.316Z,72784,-0.26569423,-0.22613035,-0.98480874
1732203111321,2024-11-21T15:31:51.321Z,72789,-0.26569423,-0.22613035,-0.98480874
1732203111333,2024-11-21T15:31:51.333Z,72801,-0.22346567,-0.31772432,-0.9457753
1732203111336,2024-11-21T15:31:51.336Z,72804,-0.22346567,-0.31772432,-0.9457753
1732203111347,2024-11-21T15:31:51.347Z,72815,-0.28676313,-0.2896464,-1.0044523
1732203111350,2024-11-21T15:31:51.350Z,72818,-0.28676313,-0.2896464,-1.0044523
1732203111360,2024-11-21T15:31:51.360Z,72828,-0.24370831,-0.3323443,-1.0257083
1732203111364,2024-11-21T15:31:51.364Z,72832,-0.24370831,-0.3323443,-1.0257083
1732203111383,2024-11-21T15:31:51.383Z,72851,-0.15865016,-0.29853576,-1.0063579
1732203111389,2024-11-21T15:31:51.389Z,72857,-0.15865016,-0.29853576,-1.0063579
1732203111416,2024-11-21T15:31:51.416Z,72884,-0.06573474,-0.2895216,-0.9371713
1732203111420,2024-11-21T15:31:51.420Z,72888,-0.06573474,-0.2895216,-0.9371713
1732203111431,2024-11-21T15:31:51.431Z,72899,-0.06128906,-0.21240126,-0.89843625
1732203111433,2024-11-21T15:31:51.433Z,72901,-0.06128906,-0.21240126,-0.89843625
1732203111445,2024-11-21T15:31:51.445Z,72913,-0.0874767,-0.2317891,-0.9724083
1732203111451,2024-11-21T15:31:51.451Z,72919,-0.0874767,-0.2317891,-0.9724083
1732203111470,2024-11-21T15:31:51.470Z,72938,-0.012455438,-0.24728581,-0.977182
1732203111475,2024-11-21T15:31:51.475Z,72943,-0.012455438,-0.24728581,-0.977182
1732203111495,2024-11-21T15:31:51.495Z,72963,-0.04564715,-0.24123205,-0.82886153
1732203111502,2024-11-21T15:31:51.502Z,72970,-0.04564715,-0.24123205,-0.82886153
1732203111522,2024-11-21T15:31:51.522Z,72990,-0.035256185,-0.2297164,-0.75916314
1732203111526,2024-11-21T15:31:51.526Z,72994,-0.035256185,-0.2297164,-0.75916314
1732203111539,2024-11-21T15:31:51.539Z,73007,-0.041568633,-0.22668754,-0.77687895
1732203111543,2024-11-21T15:31:51.543Z,73011,-0.041568633,-0.22668754,-0.77687895
1732203111554,2024-11-21T15:31:51.554Z,73022,-0.099236384,-0.23034488,-0.93432087
1732203111557,2024-11-21T15:31:51.557Z,73025,-0.099236384,-0.23034488,-0.93432087
1732203111568,2024-11-21T15:31:51.568Z,73036,-0.07247902,-0.24496354,-0.98656005
1732203111571,2024-11-21T15:31:51.571Z,73039,-0.07247902,-0.24496354,-0.98656005
1732203111590,2024-11-21T15:31:51.590Z,73058,-0.060759254,-0.26094577,-0.96551996
1732203111593,2024-11-21T15:31:51.593Z,73061,-0.060759254,-0.26094577,-0.96551996
1732203111606,2024-11-21T15:31:51.606Z,73074,-0.08150171,-0.27037388,-0.9524195
1732203111613,2024-11-21T15:31:51.613Z,73081,-0.08150171,-0.27037388,-0.9524195
1732203111638,2024-11-21T15:31:51.638Z,73106,-0.11057722,-0.2463518,-0.8351907
1732203111647,2024-11-21T15:31:51.647Z,73115,-0.11057722,-0.2463518,-0.8351907
1732203111664,2024-11-21T15:31:51.664Z,73132,-0.11585825,-0.26434782,-0.9497527
1732203111669,2024-11-21T15:31:51.669Z,73137,-0.11585825,-0.26434782,-0.9497527
1732203111690,2024-11-21T15:31:51.690Z,73158,-0.07709964,-0.25771174,-0.939324
1732203111696,2024-11-21T15:31:51.696Z,73164,-0.07709964,-0.25771174,-0.939324
1732203111728,2024-11-21T15:31:51.728Z,73196,-0.096193746,-0.2306619,-0.90336484
1732203111732,2024-11-21T15:31:51.732Z,73200,-0.096193746,-0.2306619,-0.90336484
1732203111745,2024-11-21T15:31:51.745Z,73213,-0.030469896,-0.22799066,-0.83664113
1732203111750,2024-11-21T15:31:51.750Z,73218,-0.030469896,-0.22799066,-0.83664113
1732203111771,2024-11-21T15:31:51.771Z,73239,-0.020065315,-0.18277396,-0.9688796
1732203111775,2024-11-21T15:31:51.775Z,73243,-0.020065315,-0.18277396,-0.9688796
1732203111786,2024-11-21T15:31:51.786Z,73254,-0.019820202,-0.1824705,-0.978178
1732203111789,2024-11-21T15:31:51.789Z,73257,-0.019820202,-0.1824705,-0.978178
1732203111801,2024-11-21T15:31:51.801Z,73269,0.027226686,-0.17867357,-0.935934
1732203111804,2024-11-21T15:31:51.804Z,73272,0.027226686,-0.17867357,-0.935934
1732203111815,2024-11-21T15:31:51.815Z,73283,0.017376367,-0.12440239,-0.84575266
1732203111818,2024-11-21T15:31:51.818Z,73286,0.017376367,-0.12440239,-0.84575266
1732203111997,2024-11-21T15:31:51.997Z,73465,0.049735934,-0.12210486,-0.8688398
1732203112006,2024-11-21T15:31:52.006Z,73474,0.049735934,-0.12210486,-0.8688398
1732203112043,2024-11-21T15:31:52.043Z,73511,0.09548719,-0.09155853,-0.8585759
1732203112049,2024-11-21T15:31:52.049Z,73517,0.09548719,-0.09155853,-0.8585759
1732203112071,2024-11-21T15:31:52.071Z,73539,0.039569754,-0.095013544,-0.89191324
1732203112079,2024-11-21T15:31:52.079Z,73547,0.039569754,-0.095013544,-0.89191324
1732203112134,2024-11-21T15:31:52.134Z,73602,0.047442444,-0.13336119,-0.8912189
1732203112141,2024-11-21T15:31:52.141Z,73609,0.047442444,-0.13336119,-0.8912189
1732203112166,2024-11-21T15:31:52.166Z,73634,0.031587224,-0.12805045,-0.9052709
1732203112173,2024-11-21T15:31:52.173Z,73641,0.031587224,-0.12805045,-0.9052709
1732203112198,2024-11-21T15:31:52.198Z,73666,0.023708943,-0.1406042,-0.9018208
1732203112205,2024-11-21T15:31:52.205Z,73673,0.023708943,-0.1406042,-0.9018208
1732203112227,2024-11-21T15:31:52.227Z,73695,-0.014791766,-0.17754652,-0.9160799
1732203112232,2024-11-21T15:31:52.232Z,73700,-0.014791766,-0.17754652,-0.9160799
1732203112245,2024-11-21T15:31:52.245Z,73713,-0.086057566,-0.1887497,-0.97104585
1732203112249,2024-11-21T15:31:52.249Z,73717,-0.086057566,-0.1887497,-0.97104585
1732203112261,2024-11-21T15:31:52.261Z,73729,-0.09135426,-0.18707232,-0.97990316
1732203112265,2024-11-21T15:31:52.265Z,73733,-0.09135426,-0.18707232,-0.97990316
1732203112277,2024-11-21T15:31:52.277Z,73745,-0.026036033,-0.219145,-0.91850775
1732203112280,2024-11-21T15:31:52.280Z,73748,-0.026036033,-0.219145,-0.91850775
1732203112291,2024-11-21T15:31:52.291Z,73759,-0.12457262,-0.29341075,-0.83778185
1732203112293,2024-11-21T15:31:52.293Z,73761,-0.12457262,-0.29341075,-0.83778185
1732203112308,2024-11-21T15:31:52.308Z,73776,-0.15923029,-0.30850098,-0.8024126
1732203112311,2024-11-21T15:31:52.311Z,73779,-0.15923029,-0.30850098,-0.8024126
1732203112321,2024-11-21T15:31:52.321Z,73789,-0.14517339,-0.3198225,-0.7818942
1732203112324,2024-11-21T15:31:52.324Z,73792,-0.14517339,-0.3198225,-0.7818942
1732203112334,2024-11-21T15:31:52.334Z,73802,-0.2184381,-0.33393878,-0.9338205
1732203112336,2024-11-21T15:31:52.336Z,73804,-0.2184381,-0.33393878,-0.9338205
1732203112408,2024-11-21T15:31:52.408Z,73876,-0.19936019,-0.3517237,-0.808545
1732203112417,2024-11-21T15:31:52.417Z,73885,-0.19936019,-0.3517237,-0.808545
1732203112442,2024-11-21T15:31:52.442Z,73910,-0.15656717,-0.35527533,-0.7831969
1732203112449,2024-11-21T15:31:52.449Z,73917,-0.15656717,-0.35527533,-0.7831969
1732203112469,2024-11-21T15:31:52.469Z,73937,-0.19044666,-0.3680573,-0.8346081
1732203112474,2024-11-21T15:31:52.474Z,73942,-0.19044666,-0.3680573,-0.8346081
1732203112488,2024-11-21T15:31:52.488Z,73956,-0.24082103,-0.37568295,-0.91800416
1732203112492,2024-11-21T15:31:52.492Z,73960,-0.24082103,-0.37568295,-0.91800416
1732203112506,2024-11-21T15:31:52.506Z,73974,-0.1973112,-0.38387975,-0.87177324
1732203112510,2024-11-21T15:31:52.510Z,73978,-0.1973112,-0.38387975,-0.87177324
1732203112522,2024-11-21T15:31:52.522Z,73990,-0.18709444,-0.39157984,-0.81684405
1732203112526,2024-11-21T15:31:52.526Z,73994,-0.18709444,-0.39157984,-0.81684405
1732203112537,2024-11-21T15:31:52.537Z,74005,-0.1340761,-0.39353913,-0.8966468
1732203112541,2024-11-21T15:31:52.541Z,74009,-0.1340761,-0.39353913,-0.8966468
1732203112550,2024-11-21T15:31:52.550Z,74018,-0.21447502,-0.39252675,-0.9282929
1732203112553,2024-11-21T15:31:52.553Z,74021,-0.21447502,-0.39252675,-0.9282929
1732203112562,2024-11-21T15:31:52.562Z,74030,-0.22603656,-0.37639597,-0.76698935
1732203112564,2024-11-21T15:31:52.564Z,74032,-0.22603656,-0.37639597,-0.76698935
1732203112573,2024-11-21T15:31:52.573Z,74041,-0.24901319,-0.34897372,-0.81361127
1732203112575,2024-11-21T15:31:52.575Z,74043,-0.24901319,-0.34897372,-0.81361127
1732203112584,2024-11-21T15:31:52.584Z,74052,-0.20276669,-0.35652933,-0.8112358
1732203112588,2024-11-21T15:31:52.588Z,74056,-0.20276669,-0.35652933,-0.8112358
1732203112597,2024-11-21T15:31:52.597Z,74065,-0.17659183,-0.35259283,-0.9000306
1732203112599,2024-11-21T15:31:52.599Z,74067,-0.17659183,-0.35259283,-0.9000306
1732203112609,2024-11-21T15:31:52.609Z,74077,-0.1763069,-0.373867,-0.8959865
1732203112612,2024-11-21T15:31:52.612Z,74080,-0.1763069,-0.373867,-0.8959865
1732203112623,2024-11-21T15:31:52.623Z,74091,-0.15926705,-0.39296615,-0.8865324
1732203112629,2024-11-21T15:31:52.629Z,74097,-0.15926705,-0.39296615,-0.8865324
1732203112638,2024-11-21T15:31:52.638Z,74106,-0.2273057,-0.38194284,-0.7975413
1732203112641,2024-11-21T15:31:52.641Z,74109,-0.2273057,-0.38194284,-0.7975413
1732203112649,2024-11-21T15:31:52.649Z,74117,-0.22681138,-0.37528452,-0.8548931
1732203112651,2024-11-21T15:31:52.651Z,74119,-0.22681138,-0.37528452,-0.8548931
1732203112661,2024-11-21T15:31:52.661Z,74129,-0.19801249,-0.3919044,-0.9082675
1732203112666,2024-11-21T15:31:52.666Z,74134,-0.19801249,-0.3919044,-0.9082675
1732203112675,2024-11-21T15:31:52.675Z,74143,-0.2230778,-0.37520352,-0.91160387
1732203112678,2024-11-21T15:31:52.678Z,74146,-0.2230778,-0.37520352,-0.91160387
1732203112691,2024-11-21T15:31:52.691Z,74159,-0.17047544,-0.37832785,-0.8975763
1732203112696,2024-11-21T15:31:52.696Z,74164,-0.17047544,-0.37832785,-0.8975763
1732203112719,2024-11-21T15:31:52.719Z,74187,-0.14155582,-0.38608956,-0.8480784
1732203112726,2024-11-21T15:31:52.726Z,74194,-0.14155582,-0.38608956,-0.8480784
1732203112859,2024-11-21T15:31:52.859Z,74327,-0.17160837,-0.37433976,-0.80944514
1732203112869,2024-11-21T15:31:52.869Z,74337,-0.17160837,-0.37433976,-0.80944514
1732203112900,2024-11-21T15:31:52.900Z,74368,-0.24638851,-0.37602657,-0.8312756
1732203112908,2024-11-21T15:31:52.908Z,74376,-0.24638851,-0.37602657,-0.8312756
1732203112935,2024-11-21T15:31:52.935Z,74403,-0.24731898,-0.39160308,-0.88618636
1732203112942,2024-11-21T15:31:52.942Z,74410,-0.24731898,-0.39160308,-0.88618636
1732203112956,2024-11-21T15:31:52.956Z,74424,-0.27109554,-0.40493077,-0.96095836
1732203112960,2024-11-21T15:31:52.960Z,74428,-0.27109554,-0.40493077,-0.96095836
1732203112974,2024-11-21T15:31:52.974Z,74442,-0.21992527,-0.4307649,-0.92969143
1732203112978,2024-11-21T15:31:52.978Z,74446,-0.21992527,-0.4307649,-0.92969143
1732203112990,2024-11-21T15:31:52.990Z,74458,-0.26340118,-0.44607955,-0.872369
1732203112994,2024-11-21T15:31:52.994Z,74462,-0.26340118,-0.44607955,-0.872369
1732203113032,2024-11-21T15:31:53.032Z,74500,-0.33752036,-0.47088215,-0.82720083
1732203113037,2024-11-21T15:31:53.037Z,74505,-0.33752036,-0.47088215,-0.82720083
1732203113050,2024-11-21T15:31:53.050Z,74518,-0.35664496,-0.4528176,-0.86226106
1732203113054,2024-11-21T15:31:53.054Z,74522,-0.35664496,-0.4528176,-0.86226106
1732203113067,2024-11-21T15:31:53.067Z,74535,-0.35462937,-0.44226038,-0.83795816
1732203113070,2024-11-21T15:31:53.070Z,74538,-0.35462937,-0.44226038,-0.83795816
1732203113121,2024-11-21T15:31:53.121Z,74589,-0.30927506,-0.45518923,-0.82661074
1732203113125,2024-11-21T15:31:53.125Z,74593,-0.30927506,-0.45518923,-0.82661074
1732203113137,2024-11-21T15:31:53.137Z,74605,-0.3634521,-0.44101426,-0.7901879
1732203113140,2024-11-21T15:31:53.140Z,74608,-0.3634521,-0.44101426,-0.7901879
1732203113152,2024-11-21T15:31:53.152Z,74620,-0.38317716,-0.4379574,-0.79012394
1732203113156,2024-11-21T15:31:53.156Z,74624,-0.38317716,-0.4379574,-0.79012394
1732203113213,2024-11-21T15:31:53.213Z,74681,-0.36158475,-0.449643,-0.7754178
1732203113220,2024-11-21T15:31:53.220Z,74688,-0.36158475,-0.449643,-0.7754178
1732203113261,2024-11-21T15:31:53.261Z,74729,-0.28419673,-0.448532,-0.8159727
1732203113268,2024-11-21T15:31:53.268Z,74736,-0.28419673,-0.448532,-0.8159727
1732203113287,2024-11-21T15:31:53.287Z,74755,-0.259709,-0.45262608,-0.7672312
1732203113291,2024-11-21T15:31:53.291Z,74759,-0.259709,-0.45262608,-0.7672312
1732203113306,2024-11-21T15:31:53.306Z,74774,-0.24467206,-0.45135975,-0.7593255
1732203113310,2024-11-21T15:31:53.310Z,74778,-0.24467206,-0.45135975,-0.7593255
1732203113322,2024-11-21T15:31:53.322Z,74790,-0.27918968,-0.4102183,-0.8087625
1732203113326,2024-11-21T15:31:53.326Z,74794,-0.27918968,-0.4102183,-0.8087625
1732203113338,2024-11-21T15:31:53.338Z,74806,-0.22862811,-0.40792343,-0.8542921
1732203113342,2024-11-21T15:31:53.342Z,74810,-0.22862811,-0.40792343,-0.8542921
1732203113352,2024-11-21T15:31:53.352Z,74820,-0.21236514,-0.3969009,-0.80075264
1732203113355,2024-11-21T15:31:53.355Z,74823,-0.21236514,-0.3969009,-0.80075264
1732203113402,2024-11-21T15:31:53.402Z,74870,-0.21105307,-0.32996544,-0.812369
1732203113411,2024-11-21T15:31:53.411Z,74879,-0.21105307,-0.32996544,-0.812369
1732203113439,2024-11-21T15:31:53.439Z,74907,-0.22826587,-0.3084944,-0.80595565
1732203113445,2024-11-21T15:31:53.445Z,74913,-0.22826587,-0.3084944,-0.80595565
1732203113468,2024-11-21T15:31:53.468Z,74936,-0.18101145,-0.3080952,-0.82962495
1732203113472,2024-11-21T15:31:53.472Z,74940,-0.18101145,-0.3080952,-0.82962495
1732203113487,2024-11-21T15:31:53.487Z,74955,-0.12512538,-0.27829188,-0.82294935
1732203113491,2024-11-21T15:31:53.491Z,74959,-0.12512538,-0.27829188,-0.82294935
1732203113622,2024-11-21T15:31:53.622Z,75090,-0.12642115,-0.27381974,-0.80526173
1732203113629,2024-11-21T15:31:53.629Z,75097,-0.12642115,-0.27381974,-0.80526173
1732203113653,2024-11-21T15:31:53.653Z,75121,-0.12183063,-0.27421406,-0.80999553
1732203113659,2024-11-21T15:31:53.659Z,75127,-0.12183063,-0.27421406,-0.80999553
1732203113710,2024-11-21T15:31:53.710Z,75178,-0.059838608,-0.24197498,-0.82172257
1732203113716,2024-11-21T15:31:53.716Z,75184,-0.059838608,-0.24197498,-0.82172257
1732203113737,2024-11-21T15:31:53.737Z,75205,-0.061580658,-0.24347906,-0.78365535
1732203113742,2024-11-21T15:31:53.742Z,75210,-0.061580658,-0.24347906,-0.78365535
1732203113755,2024-11-21T15:31:53.755Z,75223,-0.07182954,-0.24484602,-0.79978776
1732203113759,2024-11-21T15:31:53.759Z,75227,-0.07182954,-0.24484602,-0.79978776
1732203113779,2024-11-21T15:31:53.779Z,75247,-0.003926085,-0.118907794,-0.85114866
1732203113786,2024-11-21T15:31:53.786Z,75254,-0.003926085,-0.118907794,-0.85114866
1732203113811,2024-11-21T15:31:53.811Z,75279,-0.012669335,-0.08315311,-0.85270417
1732203113818,2024-11-21T15:31:53.818Z,75286,-0.012669335,-0.08315311,-0.85270417
1732203113837,2024-11-21T15:31:53.837Z,75305,0.013944399,-0.09094387,-0.8272828
1732203113841,2024-11-21T15:31:53.841Z,75309,0.013944399,-0.09094387,-0.8272828
1732203113857,2024-11-21T15:31:53.857Z,75325,0.015522632,-0.014212802,-0.8327594
1732203113862,2024-11-21T15:31:53.862Z,75330,0.015522632,-0.014212802,-0.8327594
1732203113883,2024-11-21T15:31:53.883Z,75351,0.043370537,0.011455052,-0.8383371
1732203113887,2024-11-21T15:31:53.887Z,75355,0.043370537,0.011455052,-0.8383371
1732203113900,2024-11-21T15:31:53.900Z,75368,0.07885633,0.021070516,-0.8327641
1732203113903,2024-11-21T15:31:53.903Z,75371,0.07885633,0.021070516,-0.8327641
1732203113913,2024-11-21T15:31:53.913Z,75381,0.1773634,0.046571106,-0.74153405
1732203113917,2024-11-21T15:31:53.917Z,75385,0.1773634,0.046571106,-0.74153405
1732203113927,2024-11-21T15:31:53.927Z,75395,0.14051166,0.11617722,-0.7158557
1732203113930,2024-11-21T15:31:53.930Z,75398,0.14051166,0.11617722,-0.7158557
1732203113940,2024-11-21T15:31:53.940Z,75408,0.13598318,0.17409986,-0.6729099
1732203113943,2024-11-21T15:31:53.943Z,75411,0.13598318,0.17409986,-0.6729099
1732203113952,2024-11-21T15:31:53.952Z,75420,0.19568475,0.19243659,-0.650966
1732203113955,2024-11-21T15:31:53.955Z,75423,0.19568475,0.19243659,-0.650966
1732203113963,2024-11-21T15:31:53.963Z,75431,0.19996807,0.2169331,-0.6419562
1732203113966,2024-11-21T15:31:53.966Z,75434,0.19996807,0.2169331,-0.6419562
1732203113974,2024-11-21T15:31:53.974Z,75442,0.21433589,0.22450335,-0.6104511
1732203113977,2024-11-21T15:31:53.977Z,75445,0.21433589,0.22450335,-0.6104511
1732203113988,2024-11-21T15:31:53.988Z,75456,0.21164183,0.26190028,-0.6618769
1732203113993,2024-11-21T15:31:53.993Z,75461,0.21164183,0.26190028,-0.6618769
1732203114013,2024-11-21T15:31:54.013Z,75481,0.2276609,0.22966273,-0.6832884
1732203114020,2024-11-21T15:31:54.020Z,75488,0.2276609,0.22966273,-0.6832884
1732203114033,2024-11-21T15:31:54.033Z,75501,0.20754264,0.21764582,-0.7562124
1732203114036,2024-11-21T15:31:54.036Z,75504,0.20754264,0.21764582,-0.7562124
1732203114049,2024-11-21T15:31:54.049Z,75517,0.1663384,0.12831427,-0.7213819
1732203114055,2024-11-21T15:31:54.055Z,75523,0.1663384,0.12831427,-0.7213819
1732203114078,2024-11-21T15:31:54.078Z,75546,-0.13929315,-0.09279708,-0.9460192
1732203114083,2024-11-21T15:31:54.083Z,75551,-0.13929315,-0.09279708,-0.9460192
1732203114097,2024-11-21T15:31:54.097Z,75565,-0.15899666,-0.13218853,-0.94857085
1732203114101,2024-11-21T15:31:54.101Z,75569,-0.15899666,-0.13218853,-0.94857085
1732203114113,2024-11-21T15:31:54.113Z,75581,-0.14332223,-0.23239443,-1.0177804
1732203114116,2024-11-21T15:31:54.116Z,75584,-0.14332223,-0.23239443,-1.0177804
1732203114253,2024-11-21T15:31:54.253Z,75721,-0.264932,-0.2597447,-1.1170337
1732203114259,2024-11-21T15:31:54.259Z,75727,-0.264932,-0.2597447,-1.1170337
1732203114294,2024-11-21T15:31:54.294Z,75762,-0.17589802,-0.30748817,-1.1389588
1732203114301,2024-11-21T15:31:54.301Z,75769,-0.17589802,-0.30748817,-1.1389588
1732203114324,2024-11-21T15:31:54.324Z,75792,-0.2444035,-0.3023161,-1.0414321
1732203114335,2024-11-21T15:31:54.335Z,75803,-0.2444035,-0.3023161,-1.0414321
1732203114364,2024-11-21T15:31:54.364Z,75832,-0.17896336,-0.17969306,-0.78933644
1732203114371,2024-11-21T15:31:54.371Z,75839,-0.17896336,-0.17969306,-0.78933644
1732203114394,2024-11-21T15:31:54.394Z,75862,-0.16602173,-0.15454972,-0.7894584
1732203114400,2024-11-21T15:31:54.400Z,75868,-0.16602173,-0.15454972,-0.7894584
1732203114417,2024-11-21T15:31:54.417Z,75885,-0.15787126,-0.08668297,-0.8131686
1732203114422,2024-11-21T15:31:54.422Z,75890,-0.15787126,-0.08668297,-0.8131686
1732203114437,2024-11-21T15:31:54.437Z,75905,-0.046453968,-0.05265395,-0.8190502
1732203114441,2024-11-21T15:31:54.441Z,75909,-0.046453968,-0.05265395,-0.8190502
1732203114454,2024-11-21T15:31:54.454Z,75922,-0.059158508,-0.19391277,-0.8663698
1732203114458,2024-11-21T15:31:54.458Z,75926,-0.059158508,-0.19391277,-0.8663698
1732203114472,2024-11-21T15:31:54.472Z,75940,-0.06461435,-0.23718815,-0.93072474
1732203114477,2024-11-21T15:31:54.477Z,75945,-0.06461435,-0.23718815,-0.93072474
1732203114488,2024-11-21T15:31:54.488Z,75956,-0.02557892,-0.18690214,-0.8383635
1732203114492,2024-11-21T15:31:54.492Z,75960,-0.02557892,-0.18690214,-0.8383635
1732203114503,2024-11-21T15:31:54.503Z,75971,-0.0060022264,-0.19156283,-0.8493759
1732203114506,2024-11-21T15:31:54.506Z,75974,-0.0060022264,-0.19156283,-0.8493759
1732203114515,2024-11-21T15:31:54.515Z,75983,-0.009132776,-0.18890812,-0.78775597
1732203114518,2024-11-21T15:31:54.518Z,75986,-0.009132776,-0.18890812,-0.78775597
1732203114532,2024-11-21T15:31:54.532Z,76000,-0.07739732,-0.12616116,-0.8624144
1732203114539,2024-11-21T15:31:54.539Z,76007,-0.07739732,-0.12616116,-0.8624144
1732203114561,2024-11-21T15:31:54.561Z,76029,-0.11331343,-0.092050314,-0.893024
1732203114567,2024-11-21T15:31:54.567Z,76035,-0.11331343,-0.092050314,-0.893024
1732203114581,2024-11-21T15:31:54.581Z,76049,-0.13325782,-0.097108215,-0.85757244
1732203114584,2024-11-21T15:31:54.584Z,76052,-0.13325782,-0.097108215,-0.85757244
1732203114606,2024-11-21T15:31:54.606Z,76074,-0.09160098,-0.09839587,-0.79635596
1732203114609,2024-11-21T15:31:54.609Z,76077,-0.09160098,-0.09839587,-0.79635596
1732203114620,2024-11-21T15:31:54.620Z,76088,-0.06881005,-0.091738,-0.7880349
1732203114624,2024-11-21T15:31:54.624Z,76092,-0.06881005,-0.091738,-0.7880349
1732203114635,2024-11-21T15:31:54.635Z,76103,0.0023400232,-0.117000766,-0.8069463
1732203114638,2024-11-21T15:31:54.638Z,76106,0.0023400232,-0.117000766,-0.8069463
1732203114654,2024-11-21T15:31:54.654Z,76122,0.017445706,-0.02554007,-0.91465473
1732203114657,2024-11-21T15:31:54.657Z,76125,0.017445706,-0.02554007,-0.91465473
1732203114667,2024-11-21T15:31:54.667Z,76135,0.08848083,-0.02980448,-0.9027147
1732203114670,2024-11-21T15:31:54.670Z,76138,0.08848083,-0.02980448,-0.9027147
1732203114681,2024-11-21T15:31:54.681Z,76149,0.090372786,-0.01748402,-0.848476
1732203114684,2024-11-21T15:31:54.684Z,76152,0.090372786,-0.01748402,-0.848476
1732203114697,2024-11-21T15:31:54.697Z,76165,0.11260833,0.026956677,-0.74841434
1732203114700,2024-11-21T15:31:54.700Z,76168,0.11260833,0.026956677,-0.74841434
1732203114711,2024-11-21T15:31:54.711Z,76179,0.14088672,0.06325229,-0.730156
1732203114715,2024-11-21T15:31:54.715Z,76183,0.14088672,0.06325229,-0.730156
1732203114741,2024-11-21T15:31:54.741Z,76209,0.100709975,0.07222982,-0.7830366
1732203114743,2024-11-21T15:31:54.743Z,76211,0.100709975,0.07222982,-0.7830366
1732203114791,2024-11-21T15:31:54.791Z,76259,0.07823914,0.02410518,-0.835618
1732203114795,2024-11-21T15:31:54.795Z,76263,0.07823914,0.02410518,-0.835618
1732203114806,2024-11-21T15:31:54.806Z,76274,0.0571201,0.03171564,-0.8417161
1732203114809,2024-11-21T15:31:54.809Z,76277,0.0571201,0.03171564,-0.8417161
1732203114832,2024-11-21T15:31:54.832Z,76300,0.051037595,0.0228572,-0.82536817
1732203114837,2024-11-21T15:31:54.837Z,76305,0.051037595,0.0228572,-0.82536817
1732203114849,2024-11-21T15:31:54.849Z,76317,0.07636557,0.010922718,-0.80986965
1732203114854,2024-11-21T15:31:54.854Z,76322,0.07636557,0.010922718,-0.80986965
1732203114865,2024-11-21T15:31:54.865Z,76333,0.020628769,0.042319823,-0.83796525
1732203114869,2024-11-21T15:31:54.869Z,76337,0.020628769,0.042319823,-0.83796525
1732203115012,2024-11-21T15:31:55.012Z,76480,0.1023011,-0.010371809,-0.8179828
1732203115019,2024-11-21T15:31:55.019Z,76487,0.1023011,-0.010371809,-0.8179828
1732203115059,2024-11-21T15:31:55.059Z,76527,0.05140315,-0.019572562,-0.79709977
1732203115065,2024-11-21T15:31:55.065Z,76533,0.05140315,-0.019572562,-0.79709977
1732203115083,2024-11-21T15:31:55.083Z,76551,0.047051117,-0.026792621,-0.7627332
1732203115088,2024-11-21T15:31:55.088Z,76556,0.047051117,-0.026792621,-0.7627332
1732203115101,2024-11-21T15:31:55.101Z,76569,0.03293683,-0.057516772,-0.74554026
1732203115104,2024-11-21T15:31:55.104Z,76572,0.03293683,-0.057516772,-0.74554026
1732203115116,2024-11-21T15:31:55.116Z,76584,0.037144493,-0.10656531,-0.77540827
1732203115120,2024-11-21T15:31:55.120Z,76588,0.037144493,-0.10656531,-0.77540827
1732203115192,2024-11-21T15:31:55.192Z,76660,0.034995027,-0.101313494,-0.7904043
1732203115195,2024-11-21T15:31:55.195Z,76663,0.034995027,-0.101313494,-0.7904043
1732203115210,2024-11-21T15:31:55.210Z,76678,-0.08188656,-0.21491604,-0.6915535
1732203115218,2024-11-21T15:31:55.218Z,76686,-0.08188656,-0.21491604,-0.6915535
1732203115240,2024-11-21T15:31:55.240Z,76708,-0.08173583,-0.23005027,-0.6883887
1732203115247,2024-11-21T15:31:55.247Z,76715,-0.08173583,-0.23005027,-0.6883887
1732203115265,2024-11-21T15:31:55.265Z,76733,-0.1060553,-0.2369465,-0.78307575
1732203115269,2024-11-21T15:31:55.269Z,76737,-0.1060553,-0.2369465,-0.78307575
1732203115281,2024-11-21T15:31:55.281Z,76749,-0.051311493,-0.26595172,-0.7768394
1732203115285,2024-11-21T15:31:55.285Z,76753,-0.051311493,-0.26595172,-0.7768394
1732203115376,2024-11-21T15:31:55.376Z,76844,-0.0661564,-0.23742038,-0.74576026
1732203115383,2024-11-21T15:31:55.383Z,76851,-0.0661564,-0.23742038,-0.74576026
1732203115420,2024-11-21T15:31:55.420Z,76888,-0.026710786,-0.19557002,-0.73375744
1732203115428,2024-11-21T15:31:55.428Z,76896,-0.026710786,-0.19557002,-0.73375744
1732203115451,2024-11-21T15:31:55.451Z,76919,-0.07954858,-0.1972895,-0.7182596
1732203115459,2024-11-21T15:31:55.459Z,76927,-0.07954858,-0.1972895,-0.7182596
1732203115479,2024-11-21T15:31:55.479Z,76947,-0.091193944,-0.22567052,-0.94858843
1732203115487,2024-11-21T15:31:55.487Z,76955,-0.091193944,-0.22567052,-0.94858843
1732203115507,2024-11-21T15:31:55.507Z,76975,-0.1713089,-0.17984973,-0.9369018
1732203115515,2024-11-21T15:31:55.515Z,76983,-0.1713089,-0.17984973,-0.9369018
1732203115532,2024-11-21T15:31:55.532Z,77000,-0.10565706,-0.1997417,-0.8871377
1732203115536,2024-11-21T15:31:55.536Z,77004,-0.10565706,-0.1997417,-0.8871377
1732203115550,2024-11-21T15:31:55.550Z,77018,-0.037990645,-0.3013921,-0.81236917
1732203115554,2024-11-21T15:31:55.554Z,77022,-0.037990645,-0.3013921,-0.81236917
1732203115566,2024-11-21T15:31:55.566Z,77034,0.021404173,-0.28071895,-0.9266688
1732203115570,2024-11-21T15:31:55.570Z,77038,0.021404173,-0.28071895,-0.9266688
1732203115581,2024-11-21T15:31:55.581Z,77049,-0.030873427,-0.28325206,-0.8606721
1732203115584,2024-11-21T15:31:55.584Z,77052,-0.030873427,-0.28325206,-0.8606721
1732203115599,2024-11-21T15:31:55.599Z,77067,-0.009053471,-0.2578206,-0.82441145
1732203115606,2024-11-21T15:31:55.606Z,77074,-0.009053471,-0.2578206,-0.82441145
1732203115629,2024-11-21T15:31:55.629Z,77097,-0.07404242,-0.30778852,-0.7340589
1732203115635,2024-11-21T15:31:55.635Z,77103,-0.07404242,-0.30778852,-0.7340589
1732203115658,2024-11-21T15:31:55.658Z,77126,-0.119319156,-0.28688452,-0.7734027
1732203115666,2024-11-21T15:31:55.666Z,77134,-0.119319156,-0.28688452,-0.7734027
1732203115689,2024-11-21T15:31:55.689Z,77157,-0.13341112,-0.29272905,-0.80332756
1732203115694,2024-11-21T15:31:55.694Z,77162,-0.13341112,-0.29272905,-0.80332756
1732203115708,2024-11-21T15:31:55.708Z,77176,-0.23965308,-0.28978235,-0.8942538
1732203115712,2024-11-21T15:31:55.712Z,77180,-0.23965308,-0.28978235,-0.8942538
1732203115731,2024-11-21T15:31:55.731Z,77199,-0.19995506,-0.31659377,-0.7800546
1732203115734,2024-11-21T15:31:55.734Z,77202,-0.19995506,-0.31659377,-0.7800546
1732203115962,2024-11-21T15:31:55.962Z,77430,-0.2072714,-0.31063035,-0.77857125
1732203115969,2024-11-21T15:31:55.969Z,77437,-0.2072714,-0.31063035,-0.77857125
1732203115993,2024-11-21T15:31:55.993Z,77461,-0.23736037,-0.32052842,-0.85047704
1732203116001,2024-11-21T15:31:56.001Z,77469,-0.23736037,-0.32052842,-0.85047704
1732203116024,2024-11-21T15:31:56.024Z,77492,-0.13489863,-0.35561237,-0.7944726
1732203116031,2024-11-21T15:31:56.031Z,77499,-0.13489863,-0.35561237,-0.7944726
1732203116193,2024-11-21T15:31:56.193Z,77661,-0.1674787,-0.36869642,-0.79879093
1732203116200,2024-11-21T15:31:56.200Z,77668,-0.1674787,-0.36869642,-0.79879093
1732203116229,2024-11-21T15:31:56.229Z,77697,-0.24454406,-0.32374406,-0.7943048
1732203116240,2024-11-21T15:31:56.240Z,77708,-0.24454406,-0.32374406,-0.7943048
1732203116269,2024-11-21T15:31:56.269Z,77737,-0.25937152,-0.32246646,-0.75154054
1732203116276,2024-11-21T15:31:56.276Z,77744,-0.25937152,-0.32246646,-0.75154054
1732203116293,2024-11-21T15:31:56.293Z,77761,-0.2731235,-0.2692752,-0.69176453
1732203116297,2024-11-21T15:31:56.297Z,77765,-0.2731235,-0.2692752,-0.69176453
1732203116318,2024-11-21T15:31:56.318Z,77786,-0.19957006,-0.23577397,-0.6960783
1732203116322,2024-11-21T15:31:56.322Z,77790,-0.19957006,-0.23577397,-0.6960783
1732203116363,2024-11-21T15:31:56.363Z,77831,-0.2426168,-0.20961055,-0.7104222
1732203116369,2024-11-21T15:31:56.369Z,77837,-0.2426168,-0.20961055,-0.7104222
1732203116387,2024-11-21T15:31:56.387Z,77855,-0.2471255,-0.19747855,-0.7548887
1732203116394,2024-11-21T15:31:56.394Z,77862,-0.2471255,-0.19747855,-0.7548887
1732203116417,2024-11-21T15:31:56.417Z,77885,-0.09222171,-0.2291213,-0.7625813
1732203116424,2024-11-21T15:31:56.424Z,77892,-0.09222171,-0.2291213,-0.7625813
1732203116444,2024-11-21T15:31:56.444Z,77912,-0.08194632,-0.24199715,-0.78768784
1732203116450,2024-11-21T15:31:56.450Z,77918,-0.08194632,-0.24199715,-0.78768784
1732203116463,2024-11-21T15:31:56.463Z,77931,-0.095382504,-0.2711485,-0.7604495
1732203116467,2024-11-21T15:31:56.467Z,77935,-0.095382504,-0.2711485,-0.7604495
1732203116495,2024-11-21T15:31:56.495Z,77963,-0.047503028,-0.23523074,-0.7631291
1732203116499,2024-11-21T15:31:56.499Z,77967,-0.047503028,-0.23523074,-0.7631291
1732203116513,2024-11-21T15:31:56.513Z,77981,-0.026874406,-0.2441824,-0.7708905
1732203116517,2024-11-21T15:31:56.517Z,77985,-0.026874406,-0.2441824,-0.7708905
1732203116530,2024-11-21T15:31:56.530Z,77998,-0.04781242,-0.17179543,-0.8439869
1732203116534,2024-11-21T15:31:56.534Z,78002,-0.04781242,-0.17179543,-0.8439869
1732203116551,2024-11-21T15:31:56.551Z,78019,-0.09275254,-0.17965767,-0.73741215
1732203116554,2024-11-21T15:31:56.554Z,78022,-0.09275254,-0.17965767,-0.73741215
1732203116566,2024-11-21T15:31:56.566Z,78034,-0.034988705,-0.20384449,-0.76083827
1732203116569,2024-11-21T15:31:56.569Z,78037,-0.034988705,-0.20384449,-0.76083827
1732203116584,2024-11-21T15:31:56.584Z,78052,-0.05981804,-0.18743676,-0.7832844
1732203116592,2024-11-21T15:31:56.592Z,78060,-0.05981804,-0.18743676,-0.7832844
1732203116614,2024-11-21T15:31:56.614Z,78082,-0.012381384,-0.15786119,-0.8177579
1732203116620,2024-11-21T15:31:56.620Z,78088,-0.012381384,-0.15786119,-0.8177579
1732203116640,2024-11-21T15:31:56.640Z,78108,-0.0051503847,-0.13147594,-0.7153188
1732203116646,2024-11-21T15:31:56.646Z,78114,-0.0051503847,-0.13147594,-0.7153188
1732203116665,2024-11-21T15:31:56.665Z,78133,0.026394295,-0.13971506,-0.7622452
1732203116668,2024-11-21T15:31:56.668Z,78136,0.026394295,-0.13971506,-0.7622452
1732203116682,2024-11-21T15:31:56.682Z,78150,0.04220162,-0.13421842,-0.781345
1732203116685,2024-11-21T15:31:56.685Z,78153,0.04220162,-0.13421842,-0.781345
1732203116722,2024-11-21T15:31:56.722Z,78190,0.08723202,-0.10043987,-0.7345919
1732203116727,2024-11-21T15:31:56.727Z,78195,0.08723202,-0.10043987,-0.7345919
1732203116739,2024-11-21T15:31:56.739Z,78207,0.07419286,-0.097740665,-0.67508006
1732203116742,2024-11-21T15:31:56.742Z,78210,0.07419286,-0.097740665,-0.67508006
1732203116754,2024-11-21T15:31:56.754Z,78222,0.07080645,-0.07848304,-0.6259488
1732203116757,2024-11-21T15:31:56.757Z,78225,0.07080645,-0.07848304,-0.6259488
1732203116814,2024-11-21T15:31:56.814Z,78282,0.10602277,-0.031845465,-0.692098
1732203116820,2024-11-21T15:31:56.820Z,78288,0.10602277,-0.031845465,-0.692098
1732203116908,2024-11-21T15:31:56.908Z,78376,0.12380018,-0.030755902,-0.71487445
1732203116916,2024-11-21T15:31:56.916Z,78384,0.12380018,-0.030755902,-0.71487445
1732203116940,2024-11-21T15:31:56.940Z,78408,0.12427539,-0.0089870505,-0.69161105
1732203116949,2024-11-21T15:31:56.949Z,78417,0.12427539,-0.0089870505,-0.69161105
1732203116973,2024-11-21T15:31:56.973Z,78441,0.26427513,0.21028005,-0.64480036
1732203116980,2024-11-21T15:31:56.980Z,78448,0.26427513,0.21028005,-0.64480036
1732203117000,2024-11-21T15:31:57Z,78468,0.29193857,0.22634046,-0.57730967
1732203117005,2024-11-21T15:31:57.005Z,78473,0.29193857,0.22634046,-0.57730967
1732203117040,2024-11-21T15:31:57.040Z,78508,0.27026772,0.25780335,-0.4867041
1732203117045,2024-11-21T15:31:57.045Z,78513,0.27026772,0.25780335,-0.4867041
1732203117084,2024-11-21T15:31:57.084Z,78552,0.102082334,0.17266993,-0.6237265
1732203117091,2024-11-21T15:31:57.091Z,78559,0.102082334,0.17266993,-0.6237265
1732203117112,2024-11-21T15:31:57.112Z,78580,-0.099176966,-0.16205661,-0.8695764
1732203117118,2024-11-21T15:31:57.118Z,78586,-0.099176966,-0.16205661,-0.8695764
1732203117140,2024-11-21T15:31:57.140Z,78608,-0.13095212,-0.14796628,-0.8543627
1732203117147,2024-11-21T15:31:57.147Z,78615,-0.13095212,-0.14796628,-0.8543627
1732203117167,2024-11-21T15:31:57.167Z,78635,-0.041702833,-0.16428542,-0.82190686
1732203117174,2024-11-21T15:31:57.174Z,78642,-0.041702833,-0.16428542,-0.82190686
1732203117195,2024-11-21T15:31:57.195Z,78663,-0.07106372,-0.13794014,-0.8249285
1732203117201,2024-11-21T15:31:57.201Z,78669,-0.07106372,-0.13794014,-0.8249285
1732203117220,2024-11-21T15:31:57.220Z,78688,-0.00403967,-0.14356525,-0.79674315
1732203117225,2024-11-21T15:31:57.225Z,78693,-0.00403967,-0.14356525,-0.79674315
1732203117315,2024-11-21T15:31:57.315Z,78783,0.037460696,-0.19720495,-0.725746
1732203117322,2024-11-21T15:31:57.322Z,78790,0.037460696,-0.19720495,-0.725746
1732203117345,2024-11-21T15:31:57.345Z,78813,0.0644661,-0.17368364,-0.6931886
1732203117352,2024-11-21T15:31:57.352Z,78820,0.0644661,-0.17368364,-0.6931886
1732203117375,2024-11-21T15:31:57.375Z,78843,0.08606481,-0.1238208,-0.7582721
1732203117382,2024-11-21T15:31:57.382Z,78850,0.08606481,-0.1238208,-0.7582721
1732203117406,2024-11-21T15:31:57.406Z,78874,0.05433264,-0.11720552,-0.78150016
1732203117413,2024-11-21T15:31:57.413Z,78881,0.05433264,-0.11720552,-0.78150016
1732203117434,2024-11-21T15:31:57.434Z,78902,0.103023745,-0.12582979,-0.75457156
1732203117442,2024-11-21T15:31:57.442Z,78910,0.103023745,-0.12582979,-0.75457156
1732203117462,2024-11-21T15:31:57.462Z,78930,0.04961938,-0.07351543,-0.7873556
1732203117469,2024-11-21T15:31:57.469Z,78937,0.04961938,-0.07351543,-0.7873556
1732203117492,2024-11-21T15:31:57.492Z,78960,0.046458393,-0.09874397,-0.7806566
1732203117497,2024-11-21T15:31:57.497Z,78965,0.046458393,-0.09874397,-0.7806566
1732203117511,2024-11-21T15:31:57.511Z,78979,0.032161523,-0.08630025,-0.73387307
1732203117515,2024-11-21T15:31:57.515Z,78983,0.032161523,-0.08630025,-0.73387307
1732203117530,2024-11-21T15:31:57.530Z,78998,-0.004791006,-0.109172374,-0.81706995
1732203117533,2024-11-21T15:31:57.533Z,79001,-0.004791006,-0.109172374,-0.81706995
1732203117542,2024-11-21T15:31:57.542Z,79010,6.931817E-4,-0.11790196,-0.8329754
1732203117545,2024-11-21T15:31:57.545Z,79013,6.931817E-4,-0.11790196,-0.8329754
1732203117553,2024-11-21T15:31:57.553Z,79021,0.058234118,-0.13354027,-0.81869525
1732203117555,2024-11-21T15:31:57.555Z,79023,0.058234118,-0.13354027,-0.81869525
1732203117564,2024-11-21T15:31:57.564Z,79032,0.057728432,-0.14759645,-0.7869409
1732203117566,2024-11-21T15:31:57.566Z,79034,0.057728432,-0.14759645,-0.7869409
1732203117666,2024-11-21T15:31:57.666Z,79134,0.09676853,-0.1567195,-0.75536644
1732203117669,2024-11-21T15:31:57.669Z,79137,0.09676853,-0.1567195,-0.75536644
1732203117679,2024-11-21T15:31:57.679Z,79147,0.102841355,-0.15387909,-0.7387858
1732203117682,2024-11-21T15:31:57.682Z,79150,0.102841355,-0.15387909,-0.7387858
1732203117691,2024-11-21T15:31:57.691Z,79159,0.1448673,-0.1319382,-0.68348104
1732203117694,2024-11-21T15:31:57.694Z,79162,0.1448673,-0.1319382,-0.68348104
1732203117704,2024-11-21T15:31:57.704Z,79172,0.11050749,-0.10565444,-0.67477036
1732203117706,2024-11-21T15:31:57.706Z,79174,0.11050749,-0.10565444,-0.67477036
1732203117716,2024-11-21T15:31:57.716Z,79184,0.19163625,-0.014701569,-0.72836155
1732203117718,2024-11-21T15:31:57.718Z,79186,0.19163625,-0.014701569,-0.72836155
1732203117732,2024-11-21T15:31:57.732Z,79200,0.20730115,0.014516556,-0.7235852
1732203117739,2024-11-21T15:31:57.739Z,79207,0.20730115,0.014516556,-0.7235852
1732203117757,2024-11-21T15:31:57.757Z,79225,0.2245414,0.055138774,-0.6778868
1732203117762,2024-11-21T15:31:57.762Z,79230,0.2245414,0.055138774,-0.6778868
1732203117781,2024-11-21T15:31:57.781Z,79249,0.13132627,0.058099236,-0.7381336
1732203117787,2024-11-21T15:31:57.787Z,79255,0.13132627,0.058099236,-0.7381336
1732203117850,2024-11-21T15:31:57.850Z,79318,0.11728619,0.07663971,-0.71508604
1732203117856,2024-11-21T15:31:57.856Z,79324,0.11728619,0.07663971,-0.71508604
1732203117877,2024-11-21T15:31:57.877Z,79345,0.06750168,0.075365275,-0.76286
1732203117883,2024-11-21T15:31:57.883Z,79351,0.06750168,0.075365275,-0.76286
1732203117896,2024-11-21T15:31:57.896Z,79364,0.139431,0.067087166,-0.6685682
1732203117900,2024-11-21T15:31:57.900Z,79368,0.139431,0.067087166,-0.6685682
1732203117916,2024-11-21T15:31:57.916Z,79384,0.12775749,0.06431239,-0.6781989
1732203117923,2024-11-21T15:31:57.923Z,79391,0.12775749,0.06431239,-0.6781989
1732203117945,2024-11-21T15:31:57.945Z,79413,0.15539247,0.07109275,-0.6604184
1732203117952,2024-11-21T15:31:57.952Z,79420,0.15539247,0.07109275,-0.6604184
1732203117973,2024-11-21T15:31:57.973Z,79441,0.1158282,0.03495992,-0.67278796
1732203117979,2024-11-21T15:31:57.979Z,79447,0.1158282,0.03495992,-0.67278796
1732203117999,2024-11-21T15:31:57.999Z,79467,0.11473232,0.02292046,-0.7036538
1732203118002,2024-11-21T15:31:58.002Z,79470,0.11473232,0.02292046,-0.7036538
1732203118027,2024-11-21T15:31:58.027Z,79495,0.09281633,-0.007620817,-0.7177182
1732203118031,2024-11-21T15:31:58.031Z,79499,0.09281633,-0.007620817,-0.7177182
1732203118045,2024-11-21T15:31:58.045Z,79513,0.08408864,-0.10896169,-0.73403966
1732203118048,2024-11-21T15:31:58.048Z,79516,0.08408864,-0.10896169,-0.73403966
1732203118074,2024-11-21T15:31:58.074Z,79542,0.0533199,-0.09546414,-0.6833606
1732203118080,2024-11-21T15:31:58.080Z,79548,0.0533199,-0.09546414,-0.6833606
1732203118101,2024-11-21T15:31:58.101Z,79569,8.370597E-4,-0.09660865,-0.7013106
1732203118107,2024-11-21T15:31:58.107Z,79575,8.370597E-4,-0.09660865,-0.7013106
1732203118124,2024-11-21T15:31:58.124Z,79592,-0.04197051,-0.20067339,-0.76560044
1732203118128,2024-11-21T15:31:58.128Z,79596,-0.04197051,-0.20067339,-0.76560044
1732203118140,2024-11-21T15:31:58.140Z,79608,-0.07377362,-0.22643809,-0.755499
1732203118143,2024-11-21T15:31:58.143Z,79611,-0.07377362,-0.22643809,-0.755499
1732203118157,2024-11-21T15:31:58.157Z,79625,-0.12813519,-0.22028105,-0.7844237
1732203118164,2024-11-21T15:31:58.164Z,79632,-0.12813519,-0.22028105,-0.7844237
1732203118184,2024-11-21T15:31:58.184Z,79652,-0.08613167,-0.23361629,-0.6827343
1732203118190,2024-11-21T15:31:58.190Z,79658,-0.08613167,-0.23361629,-0.6827343
1732203118204,2024-11-21T15:31:58.204Z,79672,-0.0851147,-0.24062648,-0.68595475
1732203118207,2024-11-21T15:31:58.207Z,79675,-0.0851147,-0.24062648,-0.68595475
1732203118256,2024-11-21T15:31:58.256Z,79724,-0.05043986,-0.2188927,-0.7619949
1732203118262,2024-11-21T15:31:58.262Z,79730,-0.05043986,-0.2188927,-0.7619949
1732203118279,2024-11-21T15:31:58.279Z,79747,-0.11213411,-0.21583095,-0.7699927
1732203118283,2024-11-21T15:31:58.283Z,79751,-0.11213411,-0.21583095,-0.7699927
1732203118295,2024-11-21T15:31:58.295Z,79763,-0.021467093,-0.25309953,-0.6961219
1732203118299,2024-11-21T15:31:58.299Z,79767,-0.021467093,-0.25309953,-0.6961219
1732203118344,2024-11-21T15:31:58.344Z,79812,-0.031339582,-0.24869329,-0.68289685
1732203118351,2024-11-21T15:31:58.351Z,79819,-0.031339582,-0.24869329,-0.68289685
1732203118378,2024-11-21T15:31:58.378Z,79846,-0.008165599,-0.29750484,-0.7308027
1732203118385,2024-11-21T15:31:58.385Z,79853,-0.008165599,-0.29750484,-0.7308027
1732203118403,2024-11-21T15:31:58.403Z,79871,-0.1541914,-0.23010448,-0.7364973
1732203118407,2024-11-21T15:31:58.407Z,79875,-0.1541914,-0.23010448,-0.7364973
1732203118433,2024-11-21T15:31:58.433Z,79901,-0.24687874,-0.28172684,-0.7781868
1732203118436,2024-11-21T15:31:58.436Z,79904,-0.24687874,-0.28172684,-0.7781868
1732203118527,2024-11-21T15:31:58.527Z,79995,-0.25189722,-0.26919538,-0.7395272
1732203118534,2024-11-21T15:31:58.534Z,80002,-0.25189722,-0.26919538,-0.7395272
1732203118556,2024-11-21T15:31:58.556Z,80024,-0.23956624,-0.28767616,-0.6769422
1732203118564,2024-11-21T15:31:58.564Z,80032,-0.23956624,-0.28767616,-0.6769422
1732203118616,2024-11-21T15:31:58.616Z,80084,-0.26762348,-0.29550022,-0.7142805
1732203118622,2024-11-21T15:31:58.622Z,80090,-0.26762348,-0.29550022,-0.7142805
1732203118659,2024-11-21T15:31:58.659Z,80127,-0.24636309,-0.27828026,-0.77120703
1732203118665,2024-11-21T15:31:58.665Z,80133,-0.24636309,-0.27828026,-0.77120703
1732203118685,2024-11-21T15:31:58.685Z,80153,-0.20329693,-0.30522528,-0.81185126
1732203118688,2024-11-21T15:31:58.688Z,80156,-0.20329693,-0.30522528,-0.81185126
1732203118700,2024-11-21T15:31:58.700Z,80168,-0.18339995,-0.31006032,-0.7896384
1732203118704,2024-11-21T15:31:58.704Z,80172,-0.18339995,-0.31006032,-0.7896384
1732203118716,2024-11-21T15:31:58.716Z,80184,-0.14712295,-0.24544063,-0.7383828
1732203118719,2024-11-21T15:31:58.719Z,80187,-0.14712295,-0.24544063,-0.7383828
1732203118888,2024-11-21T15:31:58.888Z,80356,-0.14049372,-0.2475306,-0.7486355
1732203118895,2024-11-21T15:31:58.895Z,80363,-0.14049372,-0.2475306,-0.7486355
1732203118917,2024-11-21T15:31:58.917Z,80385,-0.16841899,-0.23503037,-0.83412284
1732203118925,2024-11-21T15:31:58.925Z,80393,-0.16841899,-0.23503037,-0.83412284
1732203118946,2024-11-21T15:31:58.946Z,80414,-0.22704177,-0.2832413,-0.7665313
1732203118951,2024-11-21T15:31:58.951Z,80419,-0.22704177,-0.2832413,-0.7665313
1732203118964,2024-11-21T15:31:58.964Z,80432,-0.3006928,-0.25913283,-0.78406066
1732203118968,2024-11-21T15:31:58.968Z,80436,-0.3006928,-0.25913283,-0.78406066
1732203118982,2024-11-21T15:31:58.982Z,80450,-0.24606434,-0.2610437,-0.7466347
1732203118986,2024-11-21T15:31:58.986Z,80454,-0.24606434,-0.2610437,-0.7466347
1732203118996,2024-11-21T15:31:58.996Z,80464,-0.272145,-0.24510129,-0.74036205
1732203119000,2024-11-21T15:31:59Z,80468,-0.272145,-0.24510129,-0.74036205
1732203119011,2024-11-21T15:31:59.011Z,80479,-0.22480331,-0.26183528,-0.72854334
1732203119014,2024-11-21T15:31:59.014Z,80482,-0.22480331,-0.26183528,-0.72854334
1732203119023,2024-11-21T15:31:59.023Z,80491,-0.27854577,-0.20858964,-0.7422825
1732203119026,2024-11-21T15:31:59.026Z,80494,-0.27854577,-0.20858964,-0.7422825
1732203119068,2024-11-21T15:31:59.068Z,80536,-0.2913813,-0.18919742,-0.7127279
1732203119077,2024-11-21T15:31:59.077Z,80545,-0.2913813,-0.18919742,-0.7127279
1732203119103,2024-11-21T15:31:59.103Z,80571,-0.26308343,-0.19319494,-0.68447524
1732203119109,2024-11-21T15:31:59.109Z,80577,-0.26308343,-0.19319494,-0.68447524
1732203119127,2024-11-21T15:31:59.127Z,80595,-0.2278622,-0.199731,-0.6980217
1732203119131,2024-11-21T15:31:59.131Z,80599,-0.2278622,-0.199731,-0.6980217
1732203119144,2024-11-21T15:31:59.144Z,80612,-0.2272665,-0.18414482,-0.7099552
1732203119147,2024-11-21T15:31:59.147Z,80615,-0.2272665,-0.18414482,-0.7099552
1732203119158,2024-11-21T15:31:59.158Z,80626,-0.2004379,-0.20373134,-0.6987929
1732203119161,2024-11-21T15:31:59.161Z,80629,-0.2004379,-0.20373134,-0.6987929
1732203119173,2024-11-21T15:31:59.173Z,80641,-0.21266937,-0.19346188,-0.7175785
1732203119175,2024-11-21T15:31:59.175Z,80643,-0.21266937,-0.19346188,-0.7175785
1732203119185,2024-11-21T15:31:59.185Z,80653,-0.15901533,-0.21374741,-0.7303426
1732203119187,2024-11-21T15:31:59.187Z,80655,-0.15901533,-0.21374741,-0.7303426
1732203119196,2024-11-21T15:31:59.196Z,80664,-0.1634492,-0.24128067,-0.7915806
1732203119198,2024-11-21T15:31:59.198Z,80666,-0.1634492,-0.24128067,-0.7915806
1732203119206,2024-11-21T15:31:59.206Z,80674,-0.1276524,-0.22578979,-0.77888584
1732203119208,2024-11-21T15:31:59.208Z,80676,-0.1276524,-0.22578979,-0.77888584
1732203119217,2024-11-21T15:31:59.217Z,80685,-0.17744008,-0.21713221,-0.7301759
1732203119219,2024-11-21T15:31:59.219Z,80687,-0.17744008,-0.21713221,-0.7301759
1732203119241,2024-11-21T15:31:59.241Z,80709,-0.124136075,-0.18275914,-0.79717654
1732203119243,2024-11-21T15:31:59.243Z,80711,-0.124136075,-0.18275914,-0.79717654
1732203119336,2024-11-21T15:31:59.336Z,80804,-0.10334301,-0.1826652,-0.83980733
1732203119341,2024-11-21T15:31:59.341Z,80809,-0.10334301,-0.1826652,-0.83980733
1732203119361,2024-11-21T15:31:59.361Z,80829,-0.071434036,-0.20566389,-0.8048777
1732203119365,2024-11-21T15:31:59.365Z,80833,-0.071434036,-0.20566389,-0.8048777
1732203119377,2024-11-21T15:31:59.377Z,80845,-0.098112054,-0.18774882,-0.7098826
1732203119381,2024-11-21T15:31:59.381Z,80849,-0.098112054,-0.18774882,-0.7098826
1732203119393,2024-11-21T15:31:59.393Z,80861,-0.114165366,-0.1992612,-0.66287684
1732203119397,2024-11-21T15:31:59.397Z,80865,-0.114165366,-0.1992612,-0.66287684
1732203119408,2024-11-21T15:31:59.408Z,80876,-0.122852355,-0.20314805,-0.69866914
1732203119412,2024-11-21T15:31:59.412Z,80880,-0.122852355,-0.20314805,-0.69866914
1732203119422,2024-11-21T15:31:59.422Z,80890,-0.10238035,-0.23205984,-0.83911407
1732203119425,2024-11-21T15:31:59.425Z,80893,-0.10238035,-0.23205984,-0.83911407
1732203119472,2024-11-21T15:31:59.472Z,80940,-0.07841005,-0.14834623,-0.68906265
1732203119478,2024-11-21T15:31:59.478Z,80946,-0.07841005,-0.14834623,-0.68906265
1732203119515,2024-11-21T15:31:59.515Z,80983,-0.07517404,-0.14527224,-0.6943143
1732203119521,2024-11-21T15:31:59.521Z,80989,-0.07517404,-0.14527224,-0.6943143
1732203119558,2024-11-21T15:31:59.558Z,81026,-0.10323832,-0.14293508,-0.75997007
1732203119565,2024-11-21T15:31:59.565Z,81033,-0.10323832,-0.14293508,-0.75997007
1732203119584,2024-11-21T15:31:59.584Z,81052,-0.09046683,-0.14366162,-0.7764738
1732203119589,2024-11-21T15:31:59.589Z,81057,-0.09046683,-0.14366162,-0.7764738
1732203119602,2024-11-21T15:31:59.602Z,81070,-0.11313672,-0.12918867,-0.75668436
1732203119606,2024-11-21T15:31:59.606Z,81074,-0.11313672,-0.12918867,-0.75668436
1732203119618,2024-11-21T15:31:59.618Z,81086,-0.07232945,-0.13986434,-0.7566968
1732203119622,2024-11-21T15:31:59.622Z,81090,-0.07232945,-0.13986434,-0.7566968
1732203119635,2024-11-21T15:31:59.635Z,81103,-0.056794755,-0.13780224,-0.74575615
1732203119639,2024-11-21T15:31:59.639Z,81107,-0.056794755,-0.13780224,-0.74575615
1732203119650,2024-11-21T15:31:59.650Z,81118,-0.041165102,-0.07428534,-0.7179082
1732203119654,2024-11-21T15:31:59.654Z,81122,-0.041165102,-0.07428534,-0.7179082
1732203119664,2024-11-21T15:31:59.664Z,81132,-0.05599042,-0.057737913,-0.6907564
1732203119667,2024-11-21T15:31:59.667Z,81135,-0.05599042,-0.057737913,-0.6907564
1732203119677,2024-11-21T15:31:59.677Z,81145,-0.032934155,-0.01557816,-0.61503416
1732203119680,2024-11-21T15:31:59.680Z,81148,-0.032934155,-0.01557816,-0.61503416
1732203119690,2024-11-21T15:31:59.690Z,81158,0.07406882,0.06412164,-0.63126266
1732203119693,2024-11-21T15:31:59.693Z,81161,0.07406882,0.06412164,-0.63126266
1732203119737,2024-11-21T15:31:59.737Z,81205,0.108677045,0.090169735,-0.66067326
1732203119740,2024-11-21T15:31:59.740Z,81208,0.108677045,0.090169735,-0.66067326
1732203119747,2024-11-21T15:31:59.747Z,81215,0.1218103,0.099946536,-0.6391601
1732203119750,2024-11-21T15:31:59.750Z,81218,0.1218103,0.099946536,-0.6391601
1732203119758,2024-11-21T15:31:59.758Z,81226,0.25370914,0.16393548,-0.57071054
1732203119760,2024-11-21T15:31:59.760Z,81228,0.25370914,0.16393548,-0.57071054
1732203119783,2024-11-21T15:31:59.783Z,81251,0.2471038,0.19832091,-0.5753814
1732203119786,2024-11-21T15:31:59.786Z,81254,0.2471038,0.19832091,-0.5753814
1732203119830,2024-11-21T15:31:59.830Z,81298,0.2783453,0.21609147,-0.55325353
1732203119835,2024-11-21T15:31:59.835Z,81303,0.2783453,0.21609147,-0.55325353
1732203119847,2024-11-21T15:31:59.847Z,81315,0.32528389,0.28620586,-0.48991445
1732203119850,2024-11-21T15:31:59.850Z,81318,0.32528389,0.28620586,-0.48991445
1732203119871,2024-11-21T15:31:59.871Z,81339,0.2804807,0.3736565,-0.4687548
1732203119875,2024-11-21T15:31:59.875Z,81343,0.2804807,0.3736565,-0.4687548
1732203119890,2024-11-21T15:31:59.890Z,81358,0.28537738,0.33212098,-0.5083104
1732203119899,2024-11-21T15:31:59.899Z,81367,0.28537738,0.33212098,-0.5083104
1732203119922,2024-11-21T15:31:59.922Z,81390,0.23707147,0.31844187,-0.5052902
1732203119928,2024-11-21T15:31:59.928Z,81396,0.23707147,0.31844187,-0.5052902
1732203119948,2024-11-21T15:31:59.948Z,81416,-0.08310838,0.026675291,-0.82592213
1732203119952,2024-11-21T15:31:59.952Z,81420,-0.08310838,0.026675291,-0.82592213
1732203119963,2024-11-21T15:31:59.963Z,81431,-0.09063998,-0.015938656,-0.80469686
1732203119966,2024-11-21T15:31:59.966Z,81434,-0.09063998,-0.015938656,-0.80469686
1732203119977,2024-11-21T15:31:59.977Z,81445,-0.13350852,-0.0122178625,-0.7832799
1732203119981,2024-11-21T15:31:59.981Z,81449,-0.13350852,-0.0122178625,-0.7832799
1732203119993,2024-11-21T15:31:59.993Z,81461,-0.22228546,-0.0433877,-0.7481159
1732203119996,2024-11-21T15:31:59.996Z,81464,-0.22228546,-0.0433877,-0.7481159
1732203120007,2024-11-21T15:32:00.007Z,81475,-0.17781094,-0.038020305,-0.71637625
1732203120010,2024-11-21T15:32:00.010Z,81478,-0.17781094,-0.038020305,-0.71637625
1732203120020,2024-11-21T15:32:00.020Z,81488,-0.22105601,-0.03771169,-0.72058874
1732203120023,2024-11-21T15:32:00.023Z,81491,-0.22105601,-0.03771169,-0.72058874
1732203120033,2024-11-21T15:32:00.033Z,81501,-0.16245727,-0.049770117,-0.71351504
1732203120036,2024-11-21T15:32:00.036Z,81504,-0.16245727,-0.049770117,-0.71351504
1732203120103,2024-11-21T15:32:00.103Z,81571,-0.05480108,0.026696151,-0.6497272
1732203120106,2024-11-21T15:32:00.106Z,81574,-0.05480108,0.026696151,-0.6497272
1732203120116,2024-11-21T15:32:00.116Z,81584,-0.07787738,0.05010076,-0.7214444
1732203120119,2024-11-21T15:32:00.119Z,81587,-0.07787738,0.05010076,-0.7214444
1732203120184,2024-11-21T15:32:00.184Z,81652,-0.07435502,0.061657384,-0.7627354
1732203120186,2024-11-21T15:32:00.186Z,81654,-0.07435502,0.061657384,-0.7627354
1732203120194,2024-11-21T15:32:00.194Z,81662,0.023341104,0.0405116,-0.69009876
1732203120196,2024-11-21T15:32:00.196Z,81664,0.023341104,0.0405116,-0.69009876
1732203120206,2024-11-21T15:32:00.206Z,81674,-0.010447662,0.07160038,-0.60825545
1732203120209,2024-11-21T15:32:00.209Z,81677,-0.010447662,0.07160038,-0.60825545
1732203120216,2024-11-21T15:32:00.216Z,81684,-0.034060817,0.032227356,-0.6011009
1732203120219,2024-11-21T15:32:00.219Z,81687,-0.034060817,0.032227356,-0.6011009
1732203120323,2024-11-21T15:32:00.323Z,81791,-0.12897217,0.0026001122,-0.56086606
1732203120327,2024-11-21T15:32:00.327Z,81795,-0.12897217,0.0026001122,-0.56086606
1732203120340,2024-11-21T15:32:00.340Z,81808,-0.18362541,-0.0066682273,-0.6203764
1732203120344,2024-11-21T15:32:00.344Z,81812,-0.18362541,-0.0066682273,-0.6203764
1732203120366,2024-11-21T15:32:00.366Z,81834,-0.16469735,-0.1148725,-0.7797443
1732203120369,2024-11-21T15:32:00.369Z,81837,-0.16469735,-0.1148725,-0.7797443
1732203120379,2024-11-21T15:32:00.379Z,81847,-0.14674129,-0.12940593,-0.77611065
1732203120382,2024-11-21T15:32:00.382Z,81850,-0.14674129,-0.12940593,-0.77611065
1732203120392,2024-11-21T15:32:00.392Z,81860,-0.11885005,-0.14647494,-0.6337003
1732203120395,2024-11-21T15:32:00.395Z,81863,-0.11885005,-0.14647494,-0.6337003
