Timestamp (ms),ISO DateTime,Elapsed Time (ms),Acceleration X,Acceleration Y,Acceleration Z
1734276541181,2024-12-15T15:29:01.181Z,54537,-0.0061431928,-0.01352424,-0.4130038
1734276541187,2024-12-15T15:29:01.187Z,54543,-0.0061431928,-0.01352424,-0.4130038
1734276541209,2024-12-15T15:29:01.209Z,54565,-0.003058319,-0.010022058,-0.40058193
1734276541216,2024-12-15T15:29:01.216Z,54572,-0.003058319,-0.010022058,-0.40058193
1734276541235,2024-12-15T15:29:01.235Z,54591,0.0013702689,-0.012116579,-0.38599384
1734276541241,2024-12-15T15:29:01.241Z,54597,0.0013702689,-0.012116579,-0.38599384
1734276541260,2024-12-15T15:29:01.260Z,54616,0.0051697977,-0.010522203,-0.37414464
1734276541264,2024-12-15T15:29:01.264Z,54620,0.0051697977,-0.010522203,-0.37414464
1734276541276,2024-12-15T15:29:01.276Z,54632,-7.450755E-4,-0.011093241,-0.36401868
1734276541280,2024-12-15T15:29:01.280Z,54636,-7.450755E-4,-0.011093241,-0.36401868
1734276541293,2024-12-15T15:29:01.293Z,54649,0.0011605116,-0.008436822,-0.3550978
1734276541298,2024-12-15T15:29:01.298Z,54654,0.0011605116,-0.008436822,-0.3550978
1734276541308,2024-12-15T15:29:01.308Z,54664,0.0016041254,-0.007436241,-0.3420537
1734276541312,2024-12-15T15:29:01.312Z,54668,0.0016041254,-0.007436241,-0.3420537
1734276541325,2024-12-15T15:29:01.325Z,54681,5.82216E-4,-0.008085369,-0.33321142
1734276541329,2024-12-15T15:29:01.329Z,54685,5.82216E-4,-0.008085369,-0.33321142
1734276541340,2024-12-15T15:29:01.340Z,54696,0.0034220559,-0.006471252,-0.32177153
1734276541345,2024-12-15T15:29:01.345Z,54701,0.0034220559,-0.006471252,-0.32177153
1734276541356,2024-12-15T15:29:01.356Z,54712,0.0028567247,-0.007970131,-0.3082808
1734276541360,2024-12-15T15:29:01.360Z,54716,0.0028567247,-0.007970131,-0.3082808
1734276541371,2024-12-15T15:29:01.371Z,54727,0.004281337,-0.0022955323,-0.30287418
1734276541375,2024-12-15T15:29:01.375Z,54731,0.004281337,-0.0022955323,-0.30287418
1734276541387,2024-12-15T15:29:01.387Z,54743,0.0018874201,0.0022410736,-0.29831082
1734276541391,2024-12-15T15:29:01.391Z,54747,0.0018874201,0.0022410736,-0.29831082
1734276541402,2024-12-15T15:29:01.402Z,54758,0.002996038,0.0047028023,-0.29148588
1734276541406,2024-12-15T15:29:01.406Z,54762,0.002996038,0.0047028023,-0.29148588
1734276541420,2024-12-15T15:29:01.420Z,54776,0.006489206,0.007543019,-0.2814609
1734276541424,2024-12-15T15:29:01.424Z,54780,0.006489206,0.007543019,-0.2814609
1734276541436,2024-12-15T15:29:01.436Z,54792,0.008464782,0.009306704,-0.27504614
1734276541441,2024-12-15T15:29:01.441Z,54797,0.008464782,0.009306704,-0.27504614
1734276541453,2024-12-15T15:29:01.453Z,54809,0.00941872,0.011954953,-0.2697755
1734276541456,2024-12-15T15:29:01.456Z,54812,0.00941872,0.011954953,-0.2697755
1734276541469,2024-12-15T15:29:01.469Z,54825,0.008028121,0.014499342,-0.261282
1734276541472,2024-12-15T15:29:01.472Z,54828,0.008028121,0.014499342,-0.261282
1734276541484,2024-12-15T15:29:01.484Z,54840,0.009560532,0.017458493,-0.25431976
1734276541488,2024-12-15T15:29:01.488Z,54844,0.009560532,0.017458493,-0.25431976
1734276541502,2024-12-15T15:29:01.502Z,54858,0.009166144,0.017880743,-0.2441862
1734276541506,2024-12-15T15:29:01.506Z,54862,0.009166144,0.017880743,-0.2441862
1734276541518,2024-12-15T15:29:01.518Z,54874,0.008817365,0.021620404,-0.23682748
1734276541522,2024-12-15T15:29:01.522Z,54878,0.008817365,0.021620404,-0.23682748
1734276541535,2024-12-15T15:29:01.535Z,54891,0.009929174,0.025289755,-0.226203
1734276541538,2024-12-15T15:29:01.538Z,54894,0.009929174,0.025289755,-0.226203
1734276541551,2024-12-15T15:29:01.551Z,54907,0.007184467,0.025452644,-0.21981505
1734276541554,2024-12-15T15:29:01.554Z,54910,0.007184467,0.025452644,-0.21981505
1734276541566,2024-12-15T15:29:01.566Z,54922,0.0059563494,0.02407756,-0.21122515
1734276541569,2024-12-15T15:29:01.569Z,54925,0.0059563494,0.02407756,-0.21122515
1734276541581,2024-12-15T15:29:01.581Z,54937,0.0067147664,0.024104305,-0.20624413
1734276541585,2024-12-15T15:29:01.585Z,54941,0.0067147664,0.024104305,-0.20624413
1734276541598,2024-12-15T15:29:01.598Z,54954,0.007930606,0.024081452,-0.20384052
1734276541606,2024-12-15T15:29:01.606Z,54962,0.007930606,0.024081452,-0.20384052
1734276541619,2024-12-15T15:29:01.619Z,54975,0.0023856747,0.025462953,-0.19431129
1734276541624,2024-12-15T15:29:01.624Z,54980,0.0023856747,0.025462953,-0.19431129
1734276541636,2024-12-15T15:29:01.636Z,54992,0.0017804233,0.02385467,-0.1899412
1734276541640,2024-12-15T15:29:01.640Z,54996,0.0017804233,0.02385467,-0.1899412
1734276541653,2024-12-15T15:29:01.653Z,55009,2.2736516E-4,0.025127351,-0.18578072
1734276541658,2024-12-15T15:29:01.658Z,55014,2.2736516E-4,0.025127351,-0.18578072
1734276541672,2024-12-15T15:29:01.672Z,55028,0.0010946871,0.02831338,-0.1798524
1734276541677,2024-12-15T15:29:01.677Z,55033,0.0010946871,0.02831338,-0.1798524
1734276541690,2024-12-15T15:29:01.690Z,55046,-9.5824857E-4,0.028041866,-0.17607713
1734276541694,2024-12-15T15:29:01.694Z,55050,-9.5824857E-4,0.028041866,-0.17607713
1734276541706,2024-12-15T15:29:01.706Z,55062,-0.0015247652,0.02772931,-0.16719952
1734276541711,2024-12-15T15:29:01.711Z,55067,-0.0015247652,0.02772931,-0.16719952
1734276541723,2024-12-15T15:29:01.723Z,55079,-0.0020597735,0.030800588,-0.16388103
1734276541727,2024-12-15T15:29:01.727Z,55083,-0.0020597735,0.030800588,-0.16388103
1734276541738,2024-12-15T15:29:01.738Z,55094,-1.7066974E-4,0.030425893,-0.15831867
1734276541742,2024-12-15T15:29:01.742Z,55098,-1.7066974E-4,0.030425893,-0.15831867
1734276541753,2024-12-15T15:29:01.753Z,55109,2.270795E-4,0.029051296,-0.1529316
1734276541756,2024-12-15T15:29:01.756Z,55112,2.270795E-4,0.029051296,-0.1529316
1734276541768,2024-12-15T15:29:01.768Z,55124,-0.0018295516,0.030096903,-0.1510743
1734276541772,2024-12-15T15:29:01.772Z,55128,-0.0018295516,0.030096903,-0.1510743
1734276541788,2024-12-15T15:29:01.788Z,55144,-3.677787E-5,0.031127146,-0.14494723
1734276541793,2024-12-15T15:29:01.793Z,55149,-3.677787E-5,0.031127146,-0.14494723
1734276541806,2024-12-15T15:29:01.806Z,55162,-2.570257E-4,0.029702466,-0.1403879
1734276541811,2024-12-15T15:29:01.811Z,55167,-2.570257E-4,0.029702466,-0.1403879
1734276541828,2024-12-15T15:29:01.828Z,55184,0.0038335354,0.029244334,-0.13690805
1734276541832,2024-12-15T15:29:01.832Z,55188,0.0038335354,0.029244334,-0.13690805
1734276541861,2024-12-15T15:29:01.861Z,55217,0.002024582,0.028773459,-0.13013908
1734276541870,2024-12-15T15:29:01.870Z,55226,0.002024582,0.028773459,-0.13013908
1734276541893,2024-12-15T15:29:01.893Z,55249,7.2855555E-4,0.029750118,-0.12788072
1734276541901,2024-12-15T15:29:01.901Z,55257,7.2855555E-4,0.029750118,-0.12788072
1734276541926,2024-12-15T15:29:01.926Z,55282,-4.446044E-5,0.02680322,-0.12327
1734276541929,2024-12-15T15:29:01.929Z,55285,-4.446044E-5,0.02680322,-0.12327
1734276541941,2024-12-15T15:29:01.941Z,55297,0.002100435,0.027263008,-0.11540824
1734276541946,2024-12-15T15:29:01.946Z,55302,0.002100435,0.027263008,-0.11540824
1734276541960,2024-12-15T15:29:01.960Z,55316,0.0017756947,0.027714528,-0.11208155
1734276541965,2024-12-15T15:29:01.965Z,55321,0.0017756947,0.027714528,-0.11208155
1734276541981,2024-12-15T15:29:01.981Z,55337,0.0014287938,0.026205633,-0.10744237
1734276541985,2024-12-15T15:29:01.985Z,55341,0.0014287938,0.026205633,-0.10744237
1734276541997,2024-12-15T15:29:01.997Z,55353,0.0030006086,0.025179962,-0.105871044
1734276542001,2024-12-15T15:29:02.001Z,55357,0.0030006086,0.025179962,-0.105871044
1734276542015,2024-12-15T15:29:02.015Z,55371,0.0029947434,0.028551346,-0.10582377
1734276542018,2024-12-15T15:29:02.018Z,55374,0.0029947434,0.028551346,-0.10582377
1734276542032,2024-12-15T15:29:02.032Z,55388,0.0020219442,0.028984973,-0.103417985
1734276542036,2024-12-15T15:29:02.036Z,55392,0.0020219442,0.028984973,-0.103417985
1734276542048,2024-12-15T15:29:02.048Z,55404,5.837598E-4,0.02843455,-0.10017147
1734276542052,2024-12-15T15:29:02.052Z,55408,5.837598E-4,0.02843455,-0.10017147
1734276542065,2024-12-15T15:29:02.065Z,55421,-0.0042009735,0.02689648,-0.09510025
1734276542070,2024-12-15T15:29:02.070Z,55426,-0.0042009735,0.02689648,-0.09510025
1734276542081,2024-12-15T15:29:02.081Z,55437,-0.0031108754,0.024384087,-0.086506814
1734276542085,2024-12-15T15:29:02.085Z,55441,-0.0031108754,0.024384087,-0.086506814
1734276542099,2024-12-15T15:29:02.099Z,55455,-0.0029899052,0.027732909,-0.087437145
1734276542103,2024-12-15T15:29:02.103Z,55459,-0.0029899052,0.027732909,-0.087437145
1734276542118,2024-12-15T15:29:02.118Z,55474,-0.0057601524,0.025216527,-0.09087437
1734276542123,2024-12-15T15:29:02.123Z,55479,-0.0057601524,0.025216527,-0.09087437
1734276542136,2024-12-15T15:29:02.136Z,55492,0.0021320528,0.023196984,-0.08859472
1734276542141,2024-12-15T15:29:02.141Z,55497,0.0021320528,0.023196984,-0.08859472
1734276542153,2024-12-15T15:29:02.153Z,55509,2.4113787E-4,0.022155559,-0.08786322
1734276542157,2024-12-15T15:29:02.157Z,55513,2.4113787E-4,0.022155559,-0.08786322
1734276542169,2024-12-15T15:29:02.169Z,55525,-0.009049872,0.017702099,-0.08375499
1734276542172,2024-12-15T15:29:02.172Z,55528,-0.009049872,0.017702099,-0.08375499
1734276542184,2024-12-15T15:29:02.184Z,55540,-0.0061448948,0.017649002,-0.07692053
1734276542188,2024-12-15T15:29:02.188Z,55544,-0.0061448948,0.017649002,-0.07692053
1734276542201,2024-12-15T15:29:02.201Z,55557,-0.012404736,0.015142636,-0.07840562
1734276542206,2024-12-15T15:29:02.206Z,55562,-0.012404736,0.015142636,-0.07840562
1734276542220,2024-12-15T15:29:02.220Z,55576,-0.012135931,0.0092074135,-0.0727798
1734276542223,2024-12-15T15:29:02.223Z,55579,-0.012135931,0.0092074135,-0.0727798
1734276542237,2024-12-15T15:29:02.237Z,55593,-0.01993823,0.006668762,-0.07404965
1734276542242,2024-12-15T15:29:02.242Z,55598,-0.01993823,0.006668762,-0.07404965
1734276542255,2024-12-15T15:29:02.255Z,55611,-0.011530978,0.004123011,-0.074427366
1734276542259,2024-12-15T15:29:02.259Z,55615,-0.011530978,0.004123011,-0.074427366
1734276542271,2024-12-15T15:29:02.271Z,55627,-0.01711037,0.0015619928,-0.0714654
1734276542275,2024-12-15T15:29:02.275Z,55631,-0.01711037,0.0015619928,-0.0714654
1734276542288,2024-12-15T15:29:02.288Z,55644,-0.01720602,-0.0024672719,-0.06480979
1734276542292,2024-12-15T15:29:02.292Z,55648,-0.01720602,-0.0024672719,-0.06480979
1734276542305,2024-12-15T15:29:02.305Z,55661,-0.017219136,-0.0016238423,-0.07131383
1734276542308,2024-12-15T15:29:02.308Z,55664,-0.017219136,-0.0016238423,-0.07131383
1734276542319,2024-12-15T15:29:02.319Z,55675,-0.01914264,-0.0037226425,-0.073776744
1734276542323,2024-12-15T15:29:02.323Z,55679,-0.01914264,-0.0037226425,-0.073776744
1734276542337,2024-12-15T15:29:02.337Z,55693,-0.02480303,-9.697542E-4,-0.07648754
1734276542342,2024-12-15T15:29:02.342Z,55698,-0.02480303,-9.697542E-4,-0.07648754
1734276542351,2024-12-15T15:29:02.351Z,55707,-0.021575695,0.0012726808,-0.07900864
1734276542354,2024-12-15T15:29:02.354Z,55710,-0.021575695,0.0012726808,-0.07900864
1734276542364,2024-12-15T15:29:02.364Z,55720,-0.02310935,0.0010463854,-0.08083331
1734276542367,2024-12-15T15:29:02.367Z,55723,-0.02310935,0.0010463854,-0.08083331
1734276542378,2024-12-15T15:29:02.378Z,55734,-0.017779568,0.00470747,-0.08390208
1734276542381,2024-12-15T15:29:02.381Z,55737,-0.017779568,0.00470747,-0.08390208
1734276542393,2024-12-15T15:29:02.393Z,55749,-0.019229058,0.007372641,-0.079027526
1734276542396,2024-12-15T15:29:02.396Z,55752,-0.019229058,0.007372641,-0.079027526
1734276542408,2024-12-15T15:29:02.408Z,55764,-0.020562822,0.008083521,-0.06957227
1734276542412,2024-12-15T15:29:02.412Z,55768,-0.020562822,0.008083521,-0.06957227
1734276542423,2024-12-15T15:29:02.423Z,55779,-0.017900448,0.017575385,-0.0714691
1734276542427,2024-12-15T15:29:02.427Z,55783,-0.017900448,0.017575385,-0.0714691
1734276542437,2024-12-15T15:29:02.437Z,55793,-0.02242322,0.027043909,-0.06991324
1734276542441,2024-12-15T15:29:02.441Z,55797,-0.02242322,0.027043909,-0.06991324
1734276542455,2024-12-15T15:29:02.455Z,55811,-0.023823356,0.037458166,-0.062939376
1734276542458,2024-12-15T15:29:02.458Z,55814,-0.023823356,0.037458166,-0.062939376
1734276542470,2024-12-15T15:29:02.470Z,55826,-0.018813068,0.047043484,-0.065455526
1734276542474,2024-12-15T15:29:02.474Z,55830,-0.018813068,0.047043484,-0.065455526
1734276542486,2024-12-15T15:29:02.486Z,55842,-0.004003713,0.06101584,-0.050866786
1734276542490,2024-12-15T15:29:02.490Z,55846,-0.004003713,0.06101584,-0.050866786
1734276542502,2024-12-15T15:29:02.502Z,55858,-0.007264866,0.07254913,-0.048075404
1734276542505,2024-12-15T15:29:02.505Z,55861,-0.007264866,0.07254913,-0.048075404
1734276542516,2024-12-15T15:29:02.516Z,55872,-0.010511457,0.08750184,-0.056608465
1734276542520,2024-12-15T15:29:02.520Z,55876,-0.010511457,0.08750184,-0.056608465
1734276542532,2024-12-15T15:29:02.532Z,55888,-0.0039927238,0.10001441,-0.044697043
1734276542535,2024-12-15T15:29:02.535Z,55891,-0.0039927238,0.10001441,-0.044697043
1734276542547,2024-12-15T15:29:02.547Z,55903,-0.0018419811,0.114482924,-0.04074582
1734276542550,2024-12-15T15:29:02.550Z,55906,-0.0018419811,0.114482924,-0.04074582
1734276542560,2024-12-15T15:29:02.560Z,55916,0.0022378888,0.13189504,-0.04191276
1734276542565,2024-12-15T15:29:02.565Z,55921,0.0022378888,0.13189504,-0.04191276
1734276542576,2024-12-15T15:29:02.576Z,55932,0.0072018495,0.14785737,-0.037328485
1734276542580,2024-12-15T15:29:02.580Z,55936,0.0072018495,0.14785737,-0.037328485
1734276542592,2024-12-15T15:29:02.592Z,55948,-0.0010305461,0.16235311,-0.032737702
1734276542595,2024-12-15T15:29:02.595Z,55951,-0.0010305461,0.16235311,-0.032737702
1734276542610,2024-12-15T15:29:02.610Z,55966,0.010792758,0.1861135,-0.032455027
1734276542614,2024-12-15T15:29:02.614Z,55970,0.010792758,0.1861135,-0.032455027
1734276542625,2024-12-15T15:29:02.625Z,55981,0.023209844,0.21375996,-0.043837305
1734276542627,2024-12-15T15:29:02.627Z,55983,0.023209844,0.21375996,-0.043837305
1734276542639,2024-12-15T15:29:02.639Z,55995,0.023919316,0.22918685,-0.034575045
1734276542642,2024-12-15T15:29:02.642Z,55998,0.023919316,0.22918685,-0.034575045
1734276542655,2024-12-15T15:29:02.655Z,56011,0.020756418,0.24606356,-0.02762181
1734276542658,2024-12-15T15:29:02.658Z,56014,0.020756418,0.24606356,-0.02762181
1734276542672,2024-12-15T15:29:02.672Z,56028,0.027403446,0.2624358,-0.025429755
1734276542678,2024-12-15T15:29:02.678Z,56034,0.027403446,0.2624358,-0.025429755
1734276542692,2024-12-15T15:29:02.692Z,56048,0.02963748,0.27830955,-0.027947813
1734276542695,2024-12-15T15:29:02.695Z,56051,0.02963748,0.27830955,-0.027947813
1734276542709,2024-12-15T15:29:02.709Z,56065,0.04213783,0.296124,-0.026916241
1734276542713,2024-12-15T15:29:02.713Z,56069,0.04213783,0.296124,-0.026916241
1734276542725,2024-12-15T15:29:02.725Z,56081,0.042409588,0.30855635,-0.021777453
1734276542732,2024-12-15T15:29:02.732Z,56088,0.042409588,0.30855635,-0.021777453
1734276542744,2024-12-15T15:29:02.744Z,56100,0.036855925,0.3185391,-0.01762238
1734276542749,2024-12-15T15:29:02.749Z,56105,0.036855925,0.3185391,-0.01762238
1734276542760,2024-12-15T15:29:02.760Z,56116,0.04120991,0.33094978,-0.0068184445
1734276542764,2024-12-15T15:29:02.764Z,56120,0.04120991,0.33094978,-0.0068184445
1734276542774,2024-12-15T15:29:02.774Z,56130,0.02821127,0.3457634,-0.004300148
1734276542777,2024-12-15T15:29:02.777Z,56133,0.02821127,0.3457634,-0.004300148
1734276542787,2024-12-15T15:29:02.787Z,56143,0.025280055,0.35467458,-0.011687218
1734276542790,2024-12-15T15:29:02.790Z,56146,0.025280055,0.35467458,-0.011687218
1734276542799,2024-12-15T15:29:02.799Z,56155,0.024197565,0.36059394,-0.007904501
1734276542802,2024-12-15T15:29:02.802Z,56158,0.024197565,0.36059394,-0.007904501
1734276542813,2024-12-15T15:29:02.813Z,56169,0.028315872,0.36303565,-0.008506567
1734276542817,2024-12-15T15:29:02.817Z,56173,0.028315872,0.36303565,-0.008506567
1734276542827,2024-12-15T15:29:02.827Z,56183,0.03169099,0.36591777,-0.0061798915
1734276542831,2024-12-15T15:29:02.831Z,56187,0.03169099,0.36591777,-0.0061798915
1734276542841,2024-12-15T15:29:02.841Z,56197,0.038633175,0.36486205,-0.0073644537
1734276542844,2024-12-15T15:29:02.844Z,56200,0.038633175,0.36486205,-0.0073644537
1734276542855,2024-12-15T15:29:02.855Z,56211,0.05195216,0.3633099,-0.0092083495
1734276542859,2024-12-15T15:29:02.859Z,56215,0.05195216,0.3633099,-0.0092083495
1734276542870,2024-12-15T15:29:02.870Z,56226,0.060298286,0.35687634,-0.014460419
1734276542873,2024-12-15T15:29:02.873Z,56229,0.060298286,0.35687634,-0.014460419
1734276542881,2024-12-15T15:29:02.881Z,56237,0.038810212,0.3470283,-0.0042201253
1734276542884,2024-12-15T15:29:02.884Z,56240,0.038810212,0.3470283,-0.0042201253
1734276542893,2024-12-15T15:29:02.893Z,56249,0.03308252,0.33861926,-0.014688161
1734276542896,2024-12-15T15:29:02.896Z,56252,0.03308252,0.33861926,-0.014688161
1734276542906,2024-12-15T15:29:02.906Z,56262,0.043607734,0.33261472,-0.04180717
1734276542908,2024-12-15T15:29:02.908Z,56264,0.043607734,0.33261472,-0.04180717
1734276542919,2024-12-15T15:29:02.919Z,56275,0.06675624,0.3163499,-0.022939678
1734276542922,2024-12-15T15:29:02.922Z,56278,0.06675624,0.3163499,-0.022939678
1734276542931,2024-12-15T15:29:02.931Z,56287,0.07549639,0.30304998,-0.0075122705
1734276542934,2024-12-15T15:29:02.934Z,56290,0.07549639,0.30304998,-0.0075122705
1734276542944,2024-12-15T15:29:02.944Z,56300,0.053820837,0.2834257,-0.018126424
1734276542949,2024-12-15T15:29:02.949Z,56305,0.053820837,0.2834257,-0.018126424
1734276542961,2024-12-15T15:29:02.961Z,56317,0.040849023,0.26380563,-0.025786908
1734276542965,2024-12-15T15:29:02.965Z,56321,0.040849023,0.26380563,-0.025786908
1734276542976,2024-12-15T15:29:02.976Z,56332,0.059480373,0.24418512,-0.03506368
1734276542980,2024-12-15T15:29:02.980Z,56336,0.059480373,0.24418512,-0.03506368
1734276542991,2024-12-15T15:29:02.991Z,56347,0.05061977,0.22700836,-0.043974962
1734276542994,2024-12-15T15:29:02.994Z,56350,0.05061977,0.22700836,-0.043974962
1734276543005,2024-12-15T15:29:03.005Z,56361,0.027532553,0.20591499,-0.04476848
1734276543008,2024-12-15T15:29:03.008Z,56364,0.027532553,0.20591499,-0.04476848
1734276543020,2024-12-15T15:29:03.020Z,56376,0.05711126,0.19262016,-0.037347343
1734276543024,2024-12-15T15:29:03.024Z,56380,0.05711126,0.19262016,-0.037347343
1734276543035,2024-12-15T15:29:03.035Z,56391,0.06661336,0.1754108,-0.011628213
1734276543040,2024-12-15T15:29:03.040Z,56396,0.06661336,0.1754108,-0.011628213
1734276543049,2024-12-15T15:29:03.049Z,56405,0.069720596,0.15576011,9.441082E-4
1734276543052,2024-12-15T15:29:03.052Z,56408,0.069720596,0.15576011,9.441082E-4
1734276543063,2024-12-15T15:29:03.063Z,56419,0.03746456,0.14834487,-0.014151007
1734276543067,2024-12-15T15:29:03.067Z,56423,0.03746456,0.14834487,-0.014151007
1734276543078,2024-12-15T15:29:03.078Z,56434,0.046424735,0.12437662,-0.016409252
1734276543081,2024-12-15T15:29:03.081Z,56437,0.046424735,0.12437662,-0.016409252
1734276543093,2024-12-15T15:29:03.093Z,56449,0.08725442,0.106335804,-0.0024538639
1734276543097,2024-12-15T15:29:03.097Z,56453,0.08725442,0.106335804,-0.0024538639
1734276543108,2024-12-15T15:29:03.108Z,56464,0.07935094,0.09618859,0.005680236
1734276543111,2024-12-15T15:29:03.111Z,56467,0.07935094,0.09618859,0.005680236
1734276543120,2024-12-15T15:29:03.120Z,56476,0.07020061,0.07584593,0.008912203
1734276543123,2024-12-15T15:29:03.123Z,56479,0.07020061,0.07584593,0.008912203
1734276543134,2024-12-15T15:29:03.134Z,56490,0.04775783,0.06432761,0.0050808163
1734276543138,2024-12-15T15:29:03.138Z,56494,0.04775783,0.06432761,0.0050808163
1734276543147,2024-12-15T15:29:03.147Z,56503,0.036570564,0.052814066,-0.003352226
1734276543150,2024-12-15T15:29:03.150Z,56506,0.036570564,0.052814066,-0.003352226
1734276543160,2024-12-15T15:29:03.160Z,56516,0.048899714,0.038359363,-0.0011827631
1734276543164,2024-12-15T15:29:03.164Z,56520,0.048899714,0.038359363,-0.0011827631
1734276543174,2024-12-15T15:29:03.174Z,56530,0.027209826,0.018020002,0.013951005
1734276543177,2024-12-15T15:29:03.177Z,56533,0.027209826,0.018020002,0.013951005
1734276543188,2024-12-15T15:29:03.188Z,56544,0.049157966,-0.0023520333,-0.0052730995
1734276543191,2024-12-15T15:29:03.191Z,56547,0.049157966,-0.0023520333,-0.0052730995
1734276543201,2024-12-15T15:29:03.201Z,56557,0.042831298,-0.024213612,-3.8739844E-4
1734276543204,2024-12-15T15:29:03.204Z,56560,0.042831298,-0.024213612,-3.8739844E-4
1734276543213,2024-12-15T15:29:03.213Z,56569,-0.013690922,-0.050498597,0.0060137804
1734276543216,2024-12-15T15:29:03.216Z,56572,-0.013690922,-0.050498597,0.0060137804
1734276543226,2024-12-15T15:29:03.226Z,56582,0.0100258505,-0.06267392,-0.015761886
1734276543229,2024-12-15T15:29:03.229Z,56585,0.0100258505,-0.06267392,-0.015761886
1734276543242,2024-12-15T15:29:03.242Z,56598,0.029720629,-0.081189975,-0.01579225
1734276543246,2024-12-15T15:29:03.246Z,56602,0.029720629,-0.081189975,-0.01579225
1734276543259,2024-12-15T15:29:03.259Z,56615,0.004353756,-0.10407548,-0.0020786212
1734276543263,2024-12-15T15:29:03.263Z,56619,0.004353756,-0.10407548,-0.0020786212
1734276543279,2024-12-15T15:29:03.279Z,56635,0.017103733,-0.121096745,0.0021211428
1734276543283,2024-12-15T15:29:03.283Z,56639,0.017103733,-0.121096745,0.0021211428
1734276543295,2024-12-15T15:29:03.295Z,56651,0.008876772,-0.1303025,-0.008489573
1734276543299,2024-12-15T15:29:03.299Z,56655,0.008876772,-0.1303025,-0.008489573
1734276543310,2024-12-15T15:29:03.310Z,56666,-0.008430356,-0.14784989,-0.00802335
1734276543314,2024-12-15T15:29:03.314Z,56670,-0.008430356,-0.14784989,-0.00802335
1734276543325,2024-12-15T15:29:03.325Z,56681,-0.0020958828,-0.16494262,0.005814137
1734276543327,2024-12-15T15:29:03.327Z,56683,-0.0020958828,-0.16494262,0.005814137
1734276543337,2024-12-15T15:29:03.337Z,56693,-0.008340524,-0.17568898,0.0103939995
1734276543340,2024-12-15T15:29:03.340Z,56696,-0.008340524,-0.17568898,0.0103939995
1734276543349,2024-12-15T15:29:03.349Z,56705,-0.018900482,-0.18300192,0.0026614026
1734276543352,2024-12-15T15:29:03.352Z,56708,-0.018900482,-0.18300192,0.0026614026
1734276543362,2024-12-15T15:29:03.362Z,56718,-0.00993806,-0.18003605,0.006706354
1734276543365,2024-12-15T15:29:03.365Z,56721,-0.00993806,-0.18003605,0.006706354
1734276543376,2024-12-15T15:29:03.376Z,56732,-0.0010905359,-0.1702042,-1.0091274E-4
1734276543379,2024-12-15T15:29:03.379Z,56735,-0.0010905359,-0.1702042,-1.0091274E-4
1734276543389,2024-12-15T15:29:03.389Z,56745,-0.002143753,-0.16913809,-0.0078012054
1734276543393,2024-12-15T15:29:03.393Z,56749,-0.002143753,-0.16913809,-0.0078012054
1734276543403,2024-12-15T15:29:03.403Z,56759,-0.010148455,-0.16511758,-0.00671786
1734276543407,2024-12-15T15:29:03.407Z,56763,-0.010148455,-0.16511758,-0.00671786
1734276543419,2024-12-15T15:29:03.419Z,56775,0.010598177,-0.1502058,-0.0072737946
1734276543423,2024-12-15T15:29:03.423Z,56779,0.010598177,-0.1502058,-0.0072737946
1734276543431,2024-12-15T15:29:03.431Z,56787,-0.0068123727,-0.14406452,-0.0030160225
1734276543435,2024-12-15T15:29:03.435Z,56791,-0.0068123727,-0.14406452,-0.0030160225
1734276543446,2024-12-15T15:29:03.446Z,56802,-0.0077609755,-0.13801561,1.9118293E-4
1734276543450,2024-12-15T15:29:03.450Z,56806,-0.0077609755,-0.13801561,1.9118293E-4
1734276543460,2024-12-15T15:29:03.460Z,56816,0.007908719,-0.1270941,-0.004401298
1734276543464,2024-12-15T15:29:03.464Z,56820,0.007908719,-0.1270941,-0.004401298
1734276543474,2024-12-15T15:29:03.474Z,56830,0.014100481,-0.11809062,-0.009234485
1734276543477,2024-12-15T15:29:03.477Z,56833,0.014100481,-0.11809062,-0.009234485
1734276543486,2024-12-15T15:29:03.486Z,56842,0.016952392,-0.10655189,-0.017239507
1734276543489,2024-12-15T15:29:03.489Z,56845,0.016952392,-0.10655189,-0.017239507
1734276543498,2024-12-15T15:29:03.498Z,56854,0.026124043,-0.090498626,-0.020997493
1734276543501,2024-12-15T15:29:03.501Z,56857,0.026124043,-0.090498626,-0.020997493
1734276543511,2024-12-15T15:29:03.511Z,56867,0.005031694,-0.08557371,-0.021802485
1734276543515,2024-12-15T15:29:03.515Z,56871,0.005031694,-0.08557371,-0.021802485
1734276543527,2024-12-15T15:29:03.527Z,56883,0.005997096,-0.082016975,-0.022369713
1734276543529,2024-12-15T15:29:03.529Z,56885,0.005997096,-0.082016975,-0.022369713
1734276543539,2024-12-15T15:29:03.539Z,56895,0.0037159324,-0.07788725,-0.04441532
1734276543542,2024-12-15T15:29:03.542Z,56898,0.0037159324,-0.07788725,-0.04441532
1734276543551,2024-12-15T15:29:03.551Z,56907,7.9176656E-4,-0.079076976,-0.017851975
1734276543554,2024-12-15T15:29:03.554Z,56910,7.9176656E-4,-0.079076976,-0.017851975
1734276543565,2024-12-15T15:29:03.565Z,56921,0.00553393,-0.06360895,-0.011184153
1734276543569,2024-12-15T15:29:03.569Z,56925,0.00553393,-0.06360895,-0.011184153
1734276543580,2024-12-15T15:29:03.580Z,56936,0.0055909897,-0.055385977,-0.023153812
1734276543583,2024-12-15T15:29:03.583Z,56939,0.0055909897,-0.055385977,-0.023153812
1734276543594,2024-12-15T15:29:03.594Z,56950,0.009453815,-0.050559767,-0.031651795
1734276543597,2024-12-15T15:29:03.597Z,56953,0.009453815,-0.050559767,-0.031651795
1734276543607,2024-12-15T15:29:03.607Z,56963,-0.010033485,-0.063321196,-0.008273331
1734276543611,2024-12-15T15:29:03.611Z,56967,-0.010033485,-0.063321196,-0.008273331
1734276543623,2024-12-15T15:29:03.623Z,56979,-0.00567156,-0.06237945,-0.01743567
1734276543627,2024-12-15T15:29:03.627Z,56983,-0.00567156,-0.06237945,-0.01743567
1734276543638,2024-12-15T15:29:03.638Z,56994,0.0076910057,-0.070161015,-0.03682536
1734276543641,2024-12-15T15:29:03.641Z,56997,0.0076910057,-0.070161015,-0.03682536
1734276543650,2024-12-15T15:29:03.650Z,57006,0.015786683,-0.07638419,-0.028395418
1734276543653,2024-12-15T15:29:03.653Z,57009,0.015786683,-0.07638419,-0.028395418
1734276543664,2024-12-15T15:29:03.664Z,57020,0.0142149655,-0.08836948,-0.026946573
1734276543668,2024-12-15T15:29:03.668Z,57024,0.0142149655,-0.08836948,-0.026946573
1734276543678,2024-12-15T15:29:03.678Z,57034,0.011728366,-0.094009854,-0.03288588
1734276543682,2024-12-15T15:29:03.682Z,57038,0.011728366,-0.094009854,-0.03288588
1734276543692,2024-12-15T15:29:03.692Z,57048,0.016043223,-0.09573376,-0.016704857
1734276543694,2024-12-15T15:29:03.694Z,57050,0.016043223,-0.09573376,-0.016704857
1734276543704,2024-12-15T15:29:03.704Z,57060,-0.020637715,-0.09844133,-0.017437575
1734276543707,2024-12-15T15:29:03.707Z,57063,-0.020637715,-0.09844133,-0.017437575
1734276543717,2024-12-15T15:29:03.717Z,57073,-0.0054345913,-0.103623666,-0.024394598
1734276543721,2024-12-15T15:29:03.721Z,57077,-0.0054345913,-0.103623666,-0.024394598
1734276543732,2024-12-15T15:29:03.732Z,57088,0.021058531,-0.094179936,-0.0116145015
1734276543736,2024-12-15T15:29:03.736Z,57092,0.021058531,-0.094179936,-0.0116145015
1734276543745,2024-12-15T15:29:03.745Z,57101,0.007773399,-0.09447362,-0.02827191
1734276543749,2024-12-15T15:29:03.749Z,57105,0.007773399,-0.09447362,-0.02827191
1734276543760,2024-12-15T15:29:03.760Z,57116,0.014811897,-0.102553844,-0.029271362
1734276543764,2024-12-15T15:29:03.764Z,57120,0.014811897,-0.102553844,-0.029271362
1734276543774,2024-12-15T15:29:03.774Z,57130,0.024137843,-0.09704855,-0.012155172
1734276543777,2024-12-15T15:29:03.777Z,57133,0.024137843,-0.09704855,-0.012155172
1734276543789,2024-12-15T15:29:03.789Z,57145,3.9380463E-4,-0.10477391,-0.009285955
1734276543792,2024-12-15T15:29:03.792Z,57148,3.9380463E-4,-0.10477391,-0.009285955
1734276543808,2024-12-15T15:29:03.808Z,57164,-0.015774358,-0.10476049,-0.012870907
1734276543814,2024-12-15T15:29:03.814Z,57170,-0.015774358,-0.10476049,-0.012870907
1734276543824,2024-12-15T15:29:03.824Z,57180,0.011157668,-0.09844911,-0.01657316
1734276543827,2024-12-15T15:29:03.827Z,57183,0.011157668,-0.09844911,-0.01657316
1734276543838,2024-12-15T15:29:03.838Z,57194,0.016289078,-0.09609834,-0.004797756
1734276543841,2024-12-15T15:29:03.841Z,57197,0.016289078,-0.09609834,-0.004797756
1734276543850,2024-12-15T15:29:03.850Z,57206,0.030693056,-0.09375837,-0.0048771193
1734276543853,2024-12-15T15:29:03.853Z,57209,0.030693056,-0.09375837,-0.0048771193
1734276543866,2024-12-15T15:29:03.866Z,57222,0.024511639,-0.09249454,-0.015447288
1734276543870,2024-12-15T15:29:03.870Z,57226,0.024511639,-0.09249454,-0.015447288
1734276543881,2024-12-15T15:29:03.881Z,57237,0.012943002,-0.09221019,-0.01256457
1734276543885,2024-12-15T15:29:03.885Z,57241,0.012943002,-0.09221019,-0.01256457
1734276543896,2024-12-15T15:29:03.896Z,57252,0.025803296,-0.08753996,-0.0071164365
1734276543899,2024-12-15T15:29:03.899Z,57255,0.025803296,-0.08753996,-0.0071164365
1734276543910,2024-12-15T15:29:03.910Z,57266,0.025509486,-0.08228791,0.006702393
1734276543913,2024-12-15T15:29:03.913Z,57269,0.025509486,-0.08228791,0.006702393
1734276543925,2024-12-15T15:29:03.925Z,57281,0.017013768,-0.07999325,4.965066E-4
1734276543928,2024-12-15T15:29:03.928Z,57284,0.017013768,-0.07999325,4.965066E-4
1734276543938,2024-12-15T15:29:03.938Z,57294,0.0028829328,-0.0753097,7.5364165E-4
1734276543942,2024-12-15T15:29:03.942Z,57298,0.0028829328,-0.0753097,7.5364165E-4
1734276543952,2024-12-15T15:29:03.952Z,57308,-0.0032196045,-0.07750974,0.0012392405
1734276543956,2024-12-15T15:29:03.956Z,57312,-0.0032196045,-0.07750974,0.0012392405
1734276543968,2024-12-15T15:29:03.968Z,57324,0.017601034,-0.071910895,-3.7276797E-4
1734276543972,2024-12-15T15:29:03.972Z,57328,0.017601034,-0.071910895,-3.7276797E-4
1734276543981,2024-12-15T15:29:03.981Z,57337,0.013442564,-0.07703867,0.017729787
1734276543985,2024-12-15T15:29:03.985Z,57341,0.013442564,-0.07703867,0.017729787
1734276543995,2024-12-15T15:29:03.995Z,57351,0.014087572,-0.07580333,0.01397279
1734276543999,2024-12-15T15:29:03.999Z,57355,0.014087572,-0.07580333,0.01397279
1734276544009,2024-12-15T15:29:04.009Z,57365,-0.0026642226,-0.0736278,0.008960306
1734276544012,2024-12-15T15:29:04.012Z,57368,-0.0026642226,-0.0736278,0.008960306
1734276544024,2024-12-15T15:29:04.024Z,57380,0.015758432,-0.07047737,0.015922485
1734276544027,2024-12-15T15:29:04.027Z,57383,0.015758432,-0.07047737,0.015922485
1734276544037,2024-12-15T15:29:04.037Z,57393,0.01993949,-0.07268003,0.013315976
1734276544040,2024-12-15T15:29:04.040Z,57396,0.01993949,-0.07268003,0.013315976
1734276544049,2024-12-15T15:29:04.049Z,57405,0.003665862,-0.07440199,0.002714486
1734276544053,2024-12-15T15:29:04.053Z,57409,0.003665862,-0.07440199,0.002714486
1734276544063,2024-12-15T15:29:04.063Z,57419,0.0064278063,-0.07807377,0.019655045
1734276544067,2024-12-15T15:29:04.067Z,57423,0.0064278063,-0.07807377,0.019655045
1734276544077,2024-12-15T15:29:04.077Z,57433,0.023234934,-0.08465151,0.024559407
1734276544080,2024-12-15T15:29:04.080Z,57436,0.023234934,-0.08465151,0.024559407
1734276544090,2024-12-15T15:29:04.090Z,57446,0.022732772,-0.08483929,0.023690877
1734276544093,2024-12-15T15:29:04.093Z,57449,0.022732772,-0.08483929,0.023690877
1734276544103,2024-12-15T15:29:04.103Z,57459,0.012343263,-0.09135227,0.016074449
1734276544107,2024-12-15T15:29:04.107Z,57463,0.012343263,-0.09135227,0.016074449
1734276544115,2024-12-15T15:29:04.115Z,57471,0.011175026,-0.10176098,0.019442292
1734276544118,2024-12-15T15:29:04.118Z,57474,0.011175026,-0.10176098,0.019442292
1734276544127,2024-12-15T15:29:04.127Z,57483,0.043189097,-0.111101426,0.043144878
1734276544129,2024-12-15T15:29:04.129Z,57485,0.043189097,-0.111101426,0.043144878
1734276544138,2024-12-15T15:29:04.138Z,57494,0.039931346,-0.1190489,0.038926005
1734276544142,2024-12-15T15:29:04.142Z,57498,0.039931346,-0.1190489,0.038926005
1734276544153,2024-12-15T15:29:04.153Z,57509,0.020936206,-0.11477253,0.02794379
1734276544157,2024-12-15T15:29:04.157Z,57513,0.020936206,-0.11477253,0.02794379
1734276544167,2024-12-15T15:29:04.167Z,57523,0.022437697,-0.11977593,0.035122752
1734276544171,2024-12-15T15:29:04.171Z,57527,0.022437697,-0.11977593,0.035122752
1734276544181,2024-12-15T15:29:04.181Z,57537,0.02257838,-0.12822227,0.04667568
1734276544184,2024-12-15T15:29:04.184Z,57540,0.02257838,-0.12822227,0.04667568
1734276544193,2024-12-15T15:29:04.193Z,57549,0.01637327,-0.1321964,0.05379873
1734276544196,2024-12-15T15:29:04.196Z,57552,0.01637327,-0.1321964,0.05379873
1734276544209,2024-12-15T15:29:04.209Z,57565,0.0065847035,-0.1391643,0.0427171
1734276544212,2024-12-15T15:29:04.212Z,57568,0.0065847035,-0.1391643,0.0427171
1734276544222,2024-12-15T15:29:04.222Z,57578,0.03951634,-0.15944618,0.047284156
1734276544225,2024-12-15T15:29:04.225Z,57581,0.03951634,-0.15944618,0.047284156
1734276544234,2024-12-15T15:29:04.234Z,57590,0.040784124,-0.18072155,0.072472274
1734276544237,2024-12-15T15:29:04.237Z,57593,0.040784124,-0.18072155,0.072472274
1734276544246,2024-12-15T15:29:04.246Z,57602,0.016788894,-0.19762875,0.053188767
1734276544249,2024-12-15T15:29:04.249Z,57605,0.016788894,-0.19762875,0.053188767
1734276544260,2024-12-15T15:29:04.260Z,57616,0.00620923,-0.21018508,0.03694436
1734276544263,2024-12-15T15:29:04.263Z,57619,0.00620923,-0.21018508,0.03694436
1734276544273,2024-12-15T15:29:04.273Z,57629,0.007102596,-0.22571544,0.033714116
1734276544277,2024-12-15T15:29:04.277Z,57633,0.007102596,-0.22571544,0.033714116
1734276544288,2024-12-15T15:29:04.288Z,57644,0.011073367,-0.24762107,0.03374386
1734276544292,2024-12-15T15:29:04.292Z,57648,0.011073367,-0.24762107,0.03374386
1734276544301,2024-12-15T15:29:04.301Z,57657,-0.0020264722,-0.263184,0.018100677
1734276544304,2024-12-15T15:29:04.304Z,57660,-0.0020264722,-0.263184,0.018100677
1734276544314,2024-12-15T15:29:04.314Z,57670,0.01563409,-0.28265262,0.004051656
1734276544317,2024-12-15T15:29:04.317Z,57673,0.01563409,-0.28265262,0.004051656
1734276544328,2024-12-15T15:29:04.328Z,57684,0.013245893,-0.30797544,0.009674816
1734276544331,2024-12-15T15:29:04.331Z,57687,0.013245893,-0.30797544,0.009674816
1734276544340,2024-12-15T15:29:04.340Z,57696,0.007430953,-0.32597345,6.3934905E-4
1734276544343,2024-12-15T15:29:04.343Z,57699,0.007430953,-0.32597345,6.3934905E-4
1734276544357,2024-12-15T15:29:04.357Z,57713,-0.014866744,-0.33959603,-0.012663782
1734276544361,2024-12-15T15:29:04.361Z,57717,-0.014866744,-0.33959603,-0.012663782
1734276544375,2024-12-15T15:29:04.375Z,57731,-0.0027593067,-0.35081413,-0.014034958
1734276544378,2024-12-15T15:29:04.378Z,57734,-0.0027593067,-0.35081413,-0.014034958
1734276544393,2024-12-15T15:29:04.393Z,57749,-0.017386105,-0.35716614,-0.023853688
1734276544399,2024-12-15T15:29:04.399Z,57755,-0.017386105,-0.35716614,-0.023853688
1734276544410,2024-12-15T15:29:04.410Z,57766,-0.041627843,-0.3669548,-0.039412796
1734276544413,2024-12-15T15:29:04.413Z,57769,-0.041627843,-0.3669548,-0.039412796
1734276544424,2024-12-15T15:29:04.424Z,57780,-0.03057693,-0.3694354,-0.04494768
1734276544427,2024-12-15T15:29:04.427Z,57783,-0.03057693,-0.3694354,-0.04494768
1734276544437,2024-12-15T15:29:04.437Z,57793,-0.042934258,-0.37777627,-0.041464444
1734276544441,2024-12-15T15:29:04.441Z,57797,-0.042934258,-0.37777627,-0.041464444
1734276544452,2024-12-15T15:29:04.452Z,57808,-0.05668816,-0.38613072,-0.04048437
1734276544457,2024-12-15T15:29:04.457Z,57813,-0.05668816,-0.38613072,-0.04048437
1734276544467,2024-12-15T15:29:04.467Z,57823,-0.061014008,-0.38475153,-0.030559659
1734276544470,2024-12-15T15:29:04.470Z,57826,-0.061014008,-0.38475153,-0.030559659
1734276544480,2024-12-15T15:29:04.480Z,57836,-0.06859677,-0.37510642,-0.020205438
1734276544484,2024-12-15T15:29:04.484Z,57840,-0.06859677,-0.37510642,-0.020205438
1734276544496,2024-12-15T15:29:04.496Z,57852,-0.07600827,-0.36452138,-0.016973525
1734276544501,2024-12-15T15:29:04.501Z,57857,-0.07600827,-0.36452138,-0.016973525
1734276544513,2024-12-15T15:29:04.513Z,57869,-0.07101957,-0.35788053,0.0058071613
1734276544517,2024-12-15T15:29:04.517Z,57873,-0.07101957,-0.35788053,0.0058071613
1734276544530,2024-12-15T15:29:04.530Z,57886,-0.06292865,-0.3410174,0.010916024
1734276544534,2024-12-15T15:29:04.534Z,57890,-0.06292865,-0.3410174,0.010916024
1734276544545,2024-12-15T15:29:04.545Z,57901,-0.07037203,-0.334424,0.00612849
1734276544549,2024-12-15T15:29:04.549Z,57905,-0.07037203,-0.334424,0.00612849
1734276544559,2024-12-15T15:29:04.559Z,57915,-0.08650073,-0.33566052,0.013486386
1734276544563,2024-12-15T15:29:04.563Z,57919,-0.08650073,-0.33566052,0.013486386
1734276544574,2024-12-15T15:29:04.574Z,57930,-0.0733181,-0.3251801,0.010515361
1734276544577,2024-12-15T15:29:04.577Z,57933,-0.0733181,-0.3251801,0.010515361
1734276544587,2024-12-15T15:29:04.587Z,57943,-0.042491417,-0.31471238,0.007124483
1734276544590,2024-12-15T15:29:04.590Z,57946,-0.042491417,-0.31471238,0.007124483
1734276544599,2024-12-15T15:29:04.599Z,57955,-0.04523909,-0.3086632,0.005859196
1734276544602,2024-12-15T15:29:04.602Z,57958,-0.04523909,-0.3086632,0.005859196
1734276544612,2024-12-15T15:29:04.612Z,57968,-0.034144074,-0.30411452,0.006163567
1734276544616,2024-12-15T15:29:04.616Z,57972,-0.034144074,-0.30411452,0.006163567
1734276544627,2024-12-15T15:29:04.627Z,57983,-0.03125199,-0.30203253,0.0079705715
1734276544630,2024-12-15T15:29:04.630Z,57986,-0.03125199,-0.30203253,0.0079705715
1734276544641,2024-12-15T15:29:04.641Z,57997,-0.039949436,-0.30779728,0.008349031
1734276544645,2024-12-15T15:29:04.645Z,58001,-0.039949436,-0.30779728,0.008349031
1734276544654,2024-12-15T15:29:04.654Z,58010,-0.03831881,-0.29649904,-7.759931E-4
1734276544658,2024-12-15T15:29:04.658Z,58014,-0.03831881,-0.29649904,-7.759931E-4
1734276544667,2024-12-15T15:29:04.667Z,58023,-0.008793187,-0.2813175,-0.010654717
1734276544670,2024-12-15T15:29:04.670Z,58026,-0.008793187,-0.2813175,-0.010654717
1734276544680,2024-12-15T15:29:04.680Z,58036,-0.0077234255,-0.28027657,-0.0015844107
1734276544684,2024-12-15T15:29:04.684Z,58040,-0.0077234255,-0.28027657,-0.0015844107
1734276544694,2024-12-15T15:29:04.694Z,58050,0.008880467,-0.27629155,-0.0028483279
1734276544696,2024-12-15T15:29:04.696Z,58052,0.008880467,-0.27629155,-0.0028483279
1734276544709,2024-12-15T15:29:04.709Z,58065,0.00926152,-0.26838025,0.0050494676
1734276544712,2024-12-15T15:29:04.712Z,58068,0.00926152,-0.26838025,0.0050494676
1734276544722,2024-12-15T15:29:04.722Z,58078,0.010593133,-0.258023,0.010309666
1734276544726,2024-12-15T15:29:04.726Z,58082,0.010593133,-0.258023,0.010309666
1734276544738,2024-12-15T15:29:04.738Z,58094,0.017334236,-0.24425495,0.01152104
1734276544742,2024-12-15T15:29:04.742Z,58098,0.017334236,-0.24425495,0.01152104
1734276544751,2024-12-15T15:29:04.751Z,58107,0.0226152,-0.23048612,0.0106410375
1734276544754,2024-12-15T15:29:04.754Z,58110,0.0226152,-0.23048612,0.0106410375
1734276544763,2024-12-15T15:29:04.763Z,58119,0.025400301,-0.20889072,0.018945811
1734276544766,2024-12-15T15:29:04.766Z,58122,0.025400301,-0.20889072,0.018945811
1734276544777,2024-12-15T15:29:04.777Z,58133,0.026622072,-0.18531816,0.022773981
1734276544780,2024-12-15T15:29:04.780Z,58136,0.026622072,-0.18531816,0.022773981
1734276544791,2024-12-15T15:29:04.791Z,58147,0.034707915,-0.16272305,0.026664497
1734276544794,2024-12-15T15:29:04.794Z,58150,0.034707915,-0.16272305,0.026664497
1734276544804,2024-12-15T15:29:04.804Z,58160,0.032671828,-0.14161825,0.032994237
1734276544808,2024-12-15T15:29:04.808Z,58164,0.032671828,-0.14161825,0.032994237
1734276544816,2024-12-15T15:29:04.816Z,58172,0.037196994,-0.11323679,0.038757324
1734276544819,2024-12-15T15:29:04.819Z,58175,0.037196994,-0.11323679,0.038757324
1734276544828,2024-12-15T15:29:04.828Z,58184,0.03558668,-0.087347314,0.041051563
1734276544830,2024-12-15T15:29:04.830Z,58186,0.03558668,-0.087347314,0.041051563
1734276544841,2024-12-15T15:29:04.841Z,58197,0.04834968,-0.058095105,0.045281585
1734276544845,2024-12-15T15:29:04.845Z,58201,0.04834968,-0.058095105,0.045281585
1734276544854,2024-12-15T15:29:04.854Z,58210,0.069905706,-0.035693217,0.06353029
1734276544858,2024-12-15T15:29:04.858Z,58214,0.069905706,-0.035693217,0.06353029
1734276544869,2024-12-15T15:29:04.869Z,58225,0.08099384,-0.0073995786,0.06836777
1734276544873,2024-12-15T15:29:04.873Z,58229,0.08099384,-0.0073995786,0.06836777
1734276544882,2024-12-15T15:29:04.882Z,58238,0.06891744,0.018483581,0.054468747
1734276544886,2024-12-15T15:29:04.886Z,58242,0.06891744,0.018483581,0.054468747
1734276544896,2024-12-15T15:29:04.896Z,58252,0.078099966,0.04732784,0.048212077
1734276544898,2024-12-15T15:29:04.898Z,58254,0.078099966,0.04732784,0.048212077
1734276544908,2024-12-15T15:29:04.908Z,58264,0.078706354,0.0723064,0.05884295
1734276544911,2024-12-15T15:29:04.911Z,58267,0.078706354,0.0723064,0.05884295
1734276544922,2024-12-15T15:29:04.922Z,58278,0.086964585,0.10169437,0.06272888
1734276544929,2024-12-15T15:29:04.929Z,58285,0.086964585,0.10169437,0.06272888
1734276544940,2024-12-15T15:29:04.940Z,58296,0.06391573,0.125215,0.05535936
1734276544943,2024-12-15T15:29:04.943Z,58299,0.06391573,0.125215,0.05535936
1734276544953,2024-12-15T15:29:04.953Z,58309,0.04934055,0.13891077,0.058110774
1734276544956,2024-12-15T15:29:04.956Z,58312,0.04934055,0.13891077,0.058110774
1734276544966,2024-12-15T15:29:04.966Z,58322,0.037990928,0.1525206,0.055284232
1734276544969,2024-12-15T15:29:04.969Z,58325,0.037990928,0.1525206,0.055284232
1734276544978,2024-12-15T15:29:04.978Z,58334,0.030297745,0.16167073,0.046209004
1734276544981,2024-12-15T15:29:04.981Z,58337,0.030297745,0.16167073,0.046209004
1734276544992,2024-12-15T15:29:04.992Z,58348,0.031889956,0.17570402,0.042442348
1734276544994,2024-12-15T15:29:04.994Z,58350,0.031889956,0.17570402,0.042442348
1734276545003,2024-12-15T15:29:05.003Z,58359,0.028343575,0.19030128,0.022852749
1734276545007,2024-12-15T15:29:05.007Z,58363,0.028343575,0.19030128,0.022852749
1734276545017,2024-12-15T15:29:05.017Z,58373,0.018931845,0.21237,-0.010256555
1734276545021,2024-12-15T15:29:05.021Z,58377,0.018931845,0.21237,-0.010256555
1734276545031,2024-12-15T15:29:05.031Z,58387,0.014795072,0.25219035,-0.02703738
1734276545035,2024-12-15T15:29:05.035Z,58391,0.014795072,0.25219035,-0.02703738
1734276545044,2024-12-15T15:29:05.044Z,58400,-0.012256835,0.27457625,-0.027958091
1734276545047,2024-12-15T15:29:05.047Z,58403,-0.012256835,0.27457625,-0.027958091
1734276545056,2024-12-15T15:29:05.056Z,58412,-0.024877764,0.30826908,-0.035279635
1734276545058,2024-12-15T15:29:05.058Z,58414,-0.024877764,0.30826908,-0.035279635
1734276545065,2024-12-15T15:29:05.065Z,58421,0.017204093,0.3351377,-0.035664197
1734276545068,2024-12-15T15:29:05.068Z,58424,0.017204093,0.3351377,-0.035664197
1734276545077,2024-12-15T15:29:05.077Z,58433,0.04062201,0.35326126,-0.025267515
1734276545079,2024-12-15T15:29:05.079Z,58435,0.04062201,0.35326126,-0.025267515
1734276545090,2024-12-15T15:29:05.090Z,58446,0.055957794,0.36756107,-0.0026299977
1734276545093,2024-12-15T15:29:05.093Z,58449,0.055957794,0.36756107,-0.0026299977
1734276545104,2024-12-15T15:29:05.104Z,58460,0.099423595,0.3863055,-0.021173505
1734276545107,2024-12-15T15:29:05.107Z,58463,0.099423595,0.3863055,-0.021173505
1734276545116,2024-12-15T15:29:05.116Z,58472,0.10873075,0.3968528,-0.037035763
1734276545119,2024-12-15T15:29:05.119Z,58475,0.10873075,0.3968528,-0.037035763
1734276545127,2024-12-15T15:29:05.127Z,58483,0.08391396,0.3967543,-4.4727567E-4
1734276545130,2024-12-15T15:29:05.130Z,58486,0.08391396,0.3967543,-4.4727567E-4
1734276545138,2024-12-15T15:29:05.138Z,58494,0.0780887,0.3976331,-7.3108095E-4
1734276545141,2024-12-15T15:29:05.141Z,58497,0.0780887,0.3976331,-7.3108095E-4
1734276545148,2024-12-15T15:29:05.148Z,58504,0.09580953,0.40384054,-0.0020553153
1734276545151,2024-12-15T15:29:05.151Z,58507,0.09580953,0.40384054,-0.0020553153
1734276545161,2024-12-15T15:29:05.161Z,58517,0.10678961,0.3987815,0.0077134958
1734276545164,2024-12-15T15:29:05.164Z,58520,0.10678961,0.3987815,0.0077134958
1734276545173,2024-12-15T15:29:05.173Z,58529,0.08765103,0.3961143,-2.2155157E-4
1734276545177,2024-12-15T15:29:05.177Z,58533,0.08765103,0.3961143,-2.2155157E-4
1734276545188,2024-12-15T15:29:05.188Z,58544,0.0794826,0.38703457,0.002889871
1734276545191,2024-12-15T15:29:05.191Z,58547,0.0794826,0.38703457,0.002889871
1734276545200,2024-12-15T15:29:05.200Z,58556,0.09077222,0.3807731,0.015668005
1734276545204,2024-12-15T15:29:05.204Z,58560,0.09077222,0.3807731,0.015668005
1734276545213,2024-12-15T15:29:05.213Z,58569,0.10820046,0.3715061,0.018957257
1734276545216,2024-12-15T15:29:05.216Z,58572,0.10820046,0.3715061,0.018957257
1734276545227,2024-12-15T15:29:05.227Z,58583,0.1179902,0.36121574,0.038496256
1734276545231,2024-12-15T15:29:05.231Z,58587,0.1179902,0.36121574,0.038496256
1734276545240,2024-12-15T15:29:05.240Z,58596,0.097873114,0.35180956,0.027875662
1734276545243,2024-12-15T15:29:05.243Z,58599,0.097873114,0.35180956,0.027875662
1734276545253,2024-12-15T15:29:05.253Z,58609,0.07759553,0.34182882,0.01889196
1734276545257,2024-12-15T15:29:05.257Z,58613,0.07759553,0.34182882,0.01889196
1734276545266,2024-12-15T15:29:05.266Z,58622,0.103476524,0.33226258,0.021882353
1734276545269,2024-12-15T15:29:05.269Z,58625,0.103476524,0.33226258,0.021882353
1734276545278,2024-12-15T15:29:05.278Z,58634,0.1152942,0.31923926,0.033488005
1734276545280,2024-12-15T15:29:05.280Z,58636,0.1152942,0.31923926,0.033488005
1734276545289,2024-12-15T15:29:05.289Z,58645,0.10522193,0.29885706,0.03020528
1734276545291,2024-12-15T15:29:05.291Z,58647,0.10522193,0.29885706,0.03020528
1734276545299,2024-12-15T15:29:05.299Z,58655,0.10403536,0.2857616,0.01489955
1734276545301,2024-12-15T15:29:05.301Z,58657,0.10403536,0.2857616,0.01489955
1734276545310,2024-12-15T15:29:05.310Z,58666,0.10721811,0.26875275,0.011455146
1734276545312,2024-12-15T15:29:05.312Z,58668,0.10721811,0.26875275,0.011455146
1734276545321,2024-12-15T15:29:05.321Z,58677,0.100596376,0.24832642,0.017316338
1734276545324,2024-12-15T15:29:05.324Z,58680,0.100596376,0.24832642,0.017316338
1734276545332,2024-12-15T15:29:05.332Z,58688,0.09495847,0.22594583,0.023983805
1734276545334,2024-12-15T15:29:05.334Z,58690,0.09495847,0.22594583,0.023983805
1734276545343,2024-12-15T15:29:05.343Z,58699,0.07134178,0.2147741,0.003165635
1734276545346,2024-12-15T15:29:05.346Z,58702,0.07134178,0.2147741,0.003165635
1734276545356,2024-12-15T15:29:05.356Z,58712,0.056575317,0.19137412,-0.013274222
1734276545359,2024-12-15T15:29:05.359Z,58715,0.056575317,0.19137412,-0.013274222
1734276545367,2024-12-15T15:29:05.367Z,58723,0.06027664,0.1606666,-0.010695723
1734276545370,2024-12-15T15:29:05.370Z,58726,0.06027664,0.1606666,-0.010695723
1734276545378,2024-12-15T15:29:05.378Z,58734,0.03399948,0.13098888,-0.018546907
1734276545381,2024-12-15T15:29:05.381Z,58737,0.03399948,0.13098888,-0.018546907
1734276545393,2024-12-15T15:29:05.393Z,58749,0.03134598,0.11507206,-0.027161207
1734276545396,2024-12-15T15:29:05.396Z,58752,0.03134598,0.11507206,-0.027161207
1734276545405,2024-12-15T15:29:05.405Z,58761,0.032571297,0.097848415,-0.0089131845
1734276545409,2024-12-15T15:29:05.409Z,58765,0.032571297,0.097848415,-0.0089131845
1734276545417,2024-12-15T15:29:05.417Z,58773,0.011798214,0.09397873,0.0038076309
1734276545419,2024-12-15T15:29:05.419Z,58775,0.011798214,0.09397873,0.0038076309
1734276545429,2024-12-15T15:29:05.429Z,58785,0.0058223424,0.09609786,0.0050879396
1734276545432,2024-12-15T15:29:05.432Z,58788,0.0058223424,0.09609786,0.0050879396
1734276545443,2024-12-15T15:29:05.443Z,58799,-0.0068047144,0.09637822,0.010632156
1734276545446,2024-12-15T15:29:05.446Z,58802,-0.0068047144,0.09637822,0.010632156
1734276545459,2024-12-15T15:29:05.459Z,58815,-0.0015450717,0.09624412,0.0034697072
1734276545463,2024-12-15T15:29:05.463Z,58819,-0.0015450717,0.09624412,0.0034697072
1734276545478,2024-12-15T15:29:05.478Z,58834,-0.013021614,0.09615912,0.00330937
1734276545481,2024-12-15T15:29:05.481Z,58837,-0.013021614,0.09615912,0.00330937
1734276545492,2024-12-15T15:29:05.492Z,58848,-0.011351871,0.09365266,-0.0015166085
1734276545495,2024-12-15T15:29:05.495Z,58851,-0.011351871,0.09365266,-0.0015166085
1734276545504,2024-12-15T15:29:05.504Z,58860,-0.0018712406,0.086761005,0.0016897003
1734276545506,2024-12-15T15:29:05.506Z,58862,-0.0018712406,0.086761005,0.0016897003
1734276545514,2024-12-15T15:29:05.514Z,58870,-0.018424042,0.085159436,3.3602124E-4
1734276545517,2024-12-15T15:29:05.517Z,58873,-0.018424042,0.085159436,3.3602124E-4
1734276545525,2024-12-15T15:29:05.525Z,58881,-0.020152839,0.08009837,-0.008030741
1734276545528,2024-12-15T15:29:05.528Z,58884,-0.020152839,0.08009837,-0.008030741
1734276545537,2024-12-15T15:29:05.537Z,58893,-0.024609871,0.07644147,-0.020217355
1734276545541,2024-12-15T15:29:05.541Z,58897,-0.024609871,0.07644147,-0.020217355
1734276545551,2024-12-15T15:29:05.551Z,58907,-0.031293537,0.07320526,-0.021468282
1734276545555,2024-12-15T15:29:05.555Z,58911,-0.031293537,0.07320526,-0.021468282
1734276545564,2024-12-15T15:29:05.564Z,58920,-0.011722215,0.07047192,-0.017163575
1734276545567,2024-12-15T15:29:05.567Z,58923,-0.011722215,0.07047192,-0.017163575
1734276545576,2024-12-15T15:29:05.576Z,58932,-0.015193594,0.06725311,-0.026132498
1734276545578,2024-12-15T15:29:05.578Z,58934,-0.015193594,0.06725311,-0.026132498
1734276545588,2024-12-15T15:29:05.588Z,58944,-0.008554273,0.063561104,-0.036120113
1734276545591,2024-12-15T15:29:05.591Z,58947,-0.008554273,0.063561104,-0.036120113
1734276545599,2024-12-15T15:29:05.599Z,58955,-0.018592183,0.05400866,-0.039301217
1734276545603,2024-12-15T15:29:05.603Z,58959,-0.018592183,0.05400866,-0.039301217
1734276545612,2024-12-15T15:29:05.612Z,58968,-0.015444177,0.04834495,-0.042539444
1734276545615,2024-12-15T15:29:05.615Z,58971,-0.015444177,0.04834495,-0.042539444
1734276545625,2024-12-15T15:29:05.625Z,58981,-0.0022096625,0.047108058,-0.037271913
1734276545627,2024-12-15T15:29:05.627Z,58983,-0.0022096625,0.047108058,-0.037271913
1734276545635,2024-12-15T15:29:05.635Z,58991,-0.014844791,0.04440097,-0.034385353
1734276545638,2024-12-15T15:29:05.638Z,58994,-0.014844791,0.04440097,-0.034385353
1734276545647,2024-12-15T15:29:05.647Z,59003,-0.013205049,0.048986007,-0.03482223
1734276545650,2024-12-15T15:29:05.650Z,59006,-0.013205049,0.048986007,-0.03482223
1734276545660,2024-12-15T15:29:05.660Z,59016,-0.0038158786,0.055538267,-0.026947469
1734276545663,2024-12-15T15:29:05.663Z,59019,-0.0038158786,0.055538267,-0.026947469
1734276545673,2024-12-15T15:29:05.673Z,59029,0.013185356,0.058720406,-0.017638056
1734276545676,2024-12-15T15:29:05.676Z,59032,0.013185356,0.058720406,-0.017638056
1734276545684,2024-12-15T15:29:05.684Z,59040,0.01879971,0.059983265,-0.008281351
1734276545687,2024-12-15T15:29:05.687Z,59043,0.01879971,0.059983265,-0.008281351
1734276545695,2024-12-15T15:29:05.695Z,59051,0.0092458995,0.061257698,-0.009328782
1734276545697,2024-12-15T15:29:05.697Z,59053,0.0092458995,0.061257698,-0.009328782
1734276545707,2024-12-15T15:29:05.707Z,59063,0.023700703,0.059092864,-0.0045187185
1734276545711,2024-12-15T15:29:05.711Z,59067,0.023700703,0.059092864,-0.0045187185
1734276545723,2024-12-15T15:29:05.723Z,59079,0.030340472,0.059852954,0.0013863451
1734276545726,2024-12-15T15:29:05.726Z,59082,0.030340472,0.059852954,0.0013863451
1734276545735,2024-12-15T15:29:05.735Z,59091,0.019432452,0.06060011,-0.0043210075
1734276545739,2024-12-15T15:29:05.739Z,59095,0.019432452,0.06060011,-0.0043210075
1734276545747,2024-12-15T15:29:05.747Z,59103,0.037287474,0.0623247,-0.008336157
1734276545749,2024-12-15T15:29:05.749Z,59105,0.037287474,0.0623247,-0.008336157
1734276545758,2024-12-15T15:29:05.758Z,59114,0.048779078,0.058185834,-0.005853802
1734276545761,2024-12-15T15:29:05.761Z,59117,0.048779078,0.058185834,-0.005853802
1734276545768,2024-12-15T15:29:05.768Z,59124,0.045025814,0.054554705,-0.0027971878
1734276545771,2024-12-15T15:29:05.771Z,59127,0.045025814,0.054554705,-0.0027971878
1734276545779,2024-12-15T15:29:05.779Z,59135,0.039240036,0.05484382,-0.0089687705
1734276545782,2024-12-15T15:29:05.782Z,59138,0.039240036,0.05484382,-0.0089687705
1734276545791,2024-12-15T15:29:05.791Z,59147,0.052555326,0.051311493,-0.009061071
1734276545794,2024-12-15T15:29:05.794Z,59150,0.052555326,0.051311493,-0.009061071
1734276545802,2024-12-15T15:29:05.802Z,59158,0.045801595,0.050228056,0.001076909
1734276545805,2024-12-15T15:29:05.805Z,59161,0.045801595,0.050228056,0.001076909
1734276545814,2024-12-15T15:29:05.814Z,59170,0.03618495,0.04717788,0.0057075294
1734276545816,2024-12-15T15:29:05.816Z,59172,0.03618495,0.04717788,0.0057075294
1734276545826,2024-12-15T15:29:05.826Z,59182,0.034888007,0.044124693,-0.0034431221
1734276545830,2024-12-15T15:29:05.830Z,59186,0.034888007,0.044124693,-0.0034431221
1734276545839,2024-12-15T15:29:05.839Z,59195,0.04026268,0.040128686,-0.0014120612
1734276545842,2024-12-15T15:29:05.842Z,59198,0.04026268,0.040128686,-0.0014120612
1734276545849,2024-12-15T15:29:05.849Z,59205,0.03136725,0.027365215,0.0039724414
1734276545852,2024-12-15T15:29:05.852Z,59208,0.03136725,0.027365215,0.0039724414
1734276545863,2024-12-15T15:29:05.863Z,59219,0.03653153,0.019020583,0.013578024
1734276545865,2024-12-15T15:29:05.865Z,59221,0.03653153,0.019020583,0.013578024
1734276545875,2024-12-15T15:29:05.875Z,59231,0.031059595,0.016517524,0.0112460535
1734276545878,2024-12-15T15:29:05.878Z,59234,0.031059595,0.016517524,0.0112460535
1734276545887,2024-12-15T15:29:05.887Z,59243,0.02161204,0.015494965,0.0063433954
1734276545889,2024-12-15T15:29:05.889Z,59245,0.02161204,0.015494965,0.0063433954
1734276545897,2024-12-15T15:29:05.897Z,59253,0.002914903,0.01642047,0.012549818
1734276545900,2024-12-15T15:29:05.900Z,59256,0.002914903,0.01642047,0.012549818
1734276545909,2024-12-15T15:29:05.909Z,59265,0.02048263,0.021224022,0.008911729
1734276545912,2024-12-15T15:29:05.912Z,59268,0.02048263,0.021224022,0.008911729
1734276545920,2024-12-15T15:29:05.920Z,59276,0.021428436,0.019681867,0.004252849
1734276545923,2024-12-15T15:29:05.923Z,59279,0.021428436,0.019681867,0.004252849
1734276545931,2024-12-15T15:29:05.931Z,59287,0.016067414,0.013732544,0.0044796155
1734276545934,2024-12-15T15:29:05.934Z,59290,0.016067414,0.013732544,0.0044796155
1734276545945,2024-12-15T15:29:05.945Z,59301,0.022967188,0.00972448,0.009532692
1734276545952,2024-12-15T15:29:05.952Z,59308,0.022967188,0.00972448,0.009532692
1734276545964,2024-12-15T15:29:05.964Z,59320,0.018198658,0.0037533727,0.0110723395
1734276545967,2024-12-15T15:29:05.967Z,59323,0.018198658,0.0037533727,0.0110723395
1734276545975,2024-12-15T15:29:05.975Z,59331,0.0135689005,1.9313396E-4,0.0023624296
1734276545979,2024-12-15T15:29:05.979Z,59335,0.0135689005,1.9313396E-4,0.0023624296
1734276545986,2024-12-15T15:29:05.986Z,59342,0.014399433,-0.008270626,0.0034190412
1734276545989,2024-12-15T15:29:05.989Z,59345,0.014399433,-0.008270626,0.0034190412
1734276545997,2024-12-15T15:29:05.997Z,59353,-0.0022018098,-0.01041523,0.010786744
1734276546000,2024-12-15T15:29:06Z,59356,-0.0022018098,-0.01041523,0.010786744
1734276546011,2024-12-15T15:29:06.011Z,59367,0.014579451,-0.0038085124,0.009886592
1734276546014,2024-12-15T15:29:06.014Z,59370,0.014579451,-0.0038085124,0.009886592
1734276546023,2024-12-15T15:29:06.023Z,59379,0.020187289,-0.0060102977,0.005737217
1734276546026,2024-12-15T15:29:06.026Z,59382,0.020187289,-0.0060102977,0.005737217
1734276546034,2024-12-15T15:29:06.034Z,59390,0.011711287,-0.008723996,0.009602309
1734276546036,2024-12-15T15:29:06.036Z,59392,0.011711287,-0.008723996,0.009602309
1734276546045,2024-12-15T15:29:06.045Z,59401,0.013619044,-0.016349966,0.013072758
1734276546048,2024-12-15T15:29:06.048Z,59404,0.013619044,-0.016349966,0.013072758
1734276546057,2024-12-15T15:29:06.057Z,59413,0.01327131,-0.023039345,0.004467785
1734276546060,2024-12-15T15:29:06.060Z,59416,0.01327131,-0.023039345,0.004467785
1734276546068,2024-12-15T15:29:06.068Z,59424,0.006800788,-0.031243648,-0.0024771697
1734276546071,2024-12-15T15:29:06.071Z,59427,0.006800788,-0.031243648,-0.0024771697
1734276546080,2024-12-15T15:29:06.080Z,59436,0.010812281,-0.042914346,0.0039115553
1734276546082,2024-12-15T15:29:06.082Z,59438,0.010812281,-0.042914346,0.0039115553
1734276546092,2024-12-15T15:29:06.092Z,59448,0.019354848,-0.049241964,0.0030474942
1734276546094,2024-12-15T15:29:06.094Z,59450,0.019354848,-0.049241964,0.0030474942
1734276546101,2024-12-15T15:29:06.101Z,59457,0.010408739,-0.054610718,-0.006089807
1734276546104,2024-12-15T15:29:06.104Z,59460,0.010408739,-0.054610718,-0.006089807
1734276546113,2024-12-15T15:29:06.113Z,59469,0.006014188,-0.059525132,-0.010727942
1734276546116,2024-12-15T15:29:06.116Z,59472,0.006014188,-0.059525132,-0.010727942
1734276546126,2024-12-15T15:29:06.126Z,59482,0.010551255,-0.06202829,-0.014301003
1734276546128,2024-12-15T15:29:06.128Z,59484,0.010551255,-0.06202829,-0.014301003
1734276546137,2024-12-15T15:29:06.137Z,59493,0.006479226,-0.058220264,-0.01732009
1734276546141,2024-12-15T15:29:06.141Z,59497,0.006479226,-0.058220264,-0.01732009
1734276546150,2024-12-15T15:29:06.150Z,59506,5.5884616E-4,-0.053948753,-0.019753752
1734276546153,2024-12-15T15:29:06.153Z,59509,5.5884616E-4,-0.053948753,-0.019753752
1734276546162,2024-12-15T15:29:06.162Z,59518,0.0016764898,-0.047271337,-0.021754442
1734276546164,2024-12-15T15:29:06.164Z,59520,0.0016764898,-0.047271337,-0.021754442
1734276546173,2024-12-15T15:29:06.173Z,59529,-0.0038642352,-0.038670164,-0.02727055
1734276546176,2024-12-15T15:29:06.176Z,59532,-0.0038642352,-0.038670164,-0.02727055
1734276546186,2024-12-15T15:29:06.186Z,59542,-0.0058102715,-0.028141446,-0.024662789
1734276546189,2024-12-15T15:29:06.189Z,59545,-0.0058102715,-0.028141446,-0.024662789
1734276546198,2024-12-15T15:29:06.198Z,59554,-0.008054579,-0.018120458,-0.024363367
1734276546200,2024-12-15T15:29:06.200Z,59556,-0.008054579,-0.018120458,-0.024363367
1734276546208,2024-12-15T15:29:06.208Z,59564,-0.009191465,-0.0017657267,-0.029199092
1734276546211,2024-12-15T15:29:06.211Z,59567,-0.009191465,-0.0017657267,-0.029199092
1734276546218,2024-12-15T15:29:06.218Z,59574,-0.017979255,0.015541935,-0.01809904
1734276546221,2024-12-15T15:29:06.221Z,59577,-0.017979255,0.015541935,-0.01809904
1734276546229,2024-12-15T15:29:06.229Z,59585,-0.021658767,0.038193166,-0.012253698
1734276546231,2024-12-15T15:29:06.231Z,59587,-0.021658767,0.038193166,-0.012253698
1734276546239,2024-12-15T15:29:06.239Z,59595,-0.017761748,0.07252151,-0.013465223
1734276546242,2024-12-15T15:29:06.242Z,59598,-0.017761748,0.07252151,-0.013465223
1734276546251,2024-12-15T15:29:06.251Z,59607,-0.019466136,0.10680143,-0.007973608
1734276546254,2024-12-15T15:29:06.254Z,59610,-0.019466136,0.10680143,-0.007973608
1734276546265,2024-12-15T15:29:06.265Z,59621,-0.0047417986,0.14296658,-0.0049446207
1734276546268,2024-12-15T15:29:06.268Z,59624,-0.0047417986,0.14296658,-0.0049446207
1734276546278,2024-12-15T15:29:06.278Z,59634,-0.004465664,0.17468369,-0.0071523474
1734276546280,2024-12-15T15:29:06.280Z,59636,-0.004465664,0.17468369,-0.0071523474
1734276546290,2024-12-15T15:29:06.290Z,59646,0.010581609,0.20342651,-0.012526068
1734276546293,2024-12-15T15:29:06.293Z,59649,0.010581609,0.20342651,-0.012526068
1734276546301,2024-12-15T15:29:06.301Z,59657,0.025565378,0.23264444,-0.01848659
1734276546304,2024-12-15T15:29:06.304Z,59660,0.025565378,0.23264444,-0.01848659
1734276546312,2024-12-15T15:29:06.312Z,59668,0.053508975,0.2569975,-0.021535482
1734276546315,2024-12-15T15:29:06.315Z,59671,0.053508975,0.2569975,-0.021535482
1734276546325,2024-12-15T15:29:06.325Z,59681,0.06643759,0.27896202,-0.01686412
1734276546328,2024-12-15T15:29:06.328Z,59684,0.06643759,0.27896202,-0.01686412
1734276546335,2024-12-15T15:29:06.335Z,59691,0.056978237,0.299043,-0.007014244
1734276546338,2024-12-15T15:29:06.338Z,59694,0.056978237,0.299043,-0.007014244
1734276546345,2024-12-15T15:29:06.345Z,59701,0.037539452,0.32452574,-0.008657754
1734276546348,2024-12-15T15:29:06.348Z,59704,0.037539452,0.32452574,-0.008657754
1734276546359,2024-12-15T15:29:06.359Z,59715,0.04306035,0.34558746,-0.009129375
1734276546361,2024-12-15T15:29:06.361Z,59717,0.04306035,0.34558746,-0.009129375
1734276546371,2024-12-15T15:29:06.371Z,59727,0.027324395,0.36218804,0.0028336616
1734276546374,2024-12-15T15:29:06.374Z,59730,0.027324395,0.36218804,0.0028336616
1734276546382,2024-12-15T15:29:06.382Z,59738,0.026596095,0.36843628,0.010623781
1734276546385,2024-12-15T15:29:06.385Z,59741,0.026596095,0.36843628,0.010623781
1734276546393,2024-12-15T15:29:06.393Z,59749,0.03259634,0.37458006,0.029820556
1734276546395,2024-12-15T15:29:06.395Z,59751,0.03259634,0.37458006,0.029820556
1734276546402,2024-12-15T15:29:06.402Z,59758,0.045207057,0.377712,0.030639436
1734276546406,2024-12-15T15:29:06.406Z,59762,0.045207057,0.377712,0.030639436
1734276546415,2024-12-15T15:29:06.415Z,59771,0.055949565,0.37347952,0.043771658
1734276546418,2024-12-15T15:29:06.418Z,59774,0.055949565,0.37347952,0.043771658
1734276546427,2024-12-15T15:29:06.427Z,59783,0.065172404,0.37363538,0.056473546
1734276546429,2024-12-15T15:29:06.429Z,59785,0.065172404,0.37363538,0.056473546
1734276546440,2024-12-15T15:29:06.440Z,59796,0.06646104,0.37233597,0.04775113
1734276546443,2024-12-15T15:29:06.443Z,59799,0.06646104,0.37233597,0.04775113
1734276546451,2024-12-15T15:29:06.451Z,59807,0.07236968,0.372056,0.057657536
1734276546455,2024-12-15T15:29:06.455Z,59811,0.07236968,0.372056,0.057657536
1734276546465,2024-12-15T15:29:06.465Z,59821,0.061449725,0.3727949,0.06120422
1734276546468,2024-12-15T15:29:06.468Z,59824,0.061449725,0.3727949,0.06120422
1734276546480,2024-12-15T15:29:06.480Z,59836,0.062592484,0.37844187,0.043720365
1734276546483,2024-12-15T15:29:06.483Z,59839,0.062592484,0.37844187,0.043720365
1734276546496,2024-12-15T15:29:06.496Z,59852,0.07145496,0.38311645,0.043416113
1734276546499,2024-12-15T15:29:06.499Z,59855,0.07145496,0.38311645,0.043416113
1734276546507,2024-12-15T15:29:06.507Z,59863,0.05346147,0.38239866,0.049094077
1734276546509,2024-12-15T15:29:06.509Z,59865,0.05346147,0.38239866,0.049094077
1734276546516,2024-12-15T15:29:06.516Z,59872,0.06927233,0.3752886,0.033816274
1734276546519,2024-12-15T15:29:06.519Z,59875,0.06927233,0.3752886,0.033816274
1734276546527,2024-12-15T15:29:06.527Z,59883,0.07612572,0.35941735,0.031739563
1734276546530,2024-12-15T15:29:06.530Z,59886,0.07612572,0.35941735,0.031739563
1734276546540,2024-12-15T15:29:06.540Z,59896,0.077283576,0.33240893,0.064076215
1734276546543,2024-12-15T15:29:06.543Z,59899,0.077283576,0.33240893,0.064076215
1734276546552,2024-12-15T15:29:06.552Z,59908,0.08785959,0.31137908,0.06569672
1734276546554,2024-12-15T15:29:06.554Z,59910,0.08785959,0.31137908,0.06569672
1734276546562,2024-12-15T15:29:06.562Z,59918,0.08767426,0.2797789,0.06095206
1734276546570,2024-12-15T15:29:06.570Z,59926,0.08767426,0.2797789,0.06095206
1734276546578,2024-12-15T15:29:06.578Z,59934,0.060679752,0.2532241,0.06688258
1734276546580,2024-12-15T15:29:06.580Z,59936,0.060679752,0.2532241,0.06688258
1734276546589,2024-12-15T15:29:06.589Z,59945,0.05679178,0.22875746,0.057143115
1734276546592,2024-12-15T15:29:06.592Z,59948,0.05679178,0.22875746,0.057143115
1734276546601,2024-12-15T15:29:06.601Z,59957,0.030912885,0.19310036,0.05044066
1734276546604,2024-12-15T15:29:06.604Z,59960,0.030912885,0.19310036,0.05044066
1734276546612,2024-12-15T15:29:06.612Z,59968,0.009875335,0.15846229,0.05023667
1734276546615,2024-12-15T15:29:06.615Z,59971,0.009875335,0.15846229,0.05023667
1734276546623,2024-12-15T15:29:06.623Z,59979,0.027656374,0.13502611,0.05747026
1734276546625,2024-12-15T15:29:06.625Z,59981,0.027656374,0.13502611,0.05747026
1734276546633,2024-12-15T15:29:06.633Z,59989,0.013342119,0.111107655,0.07012701
1734276546636,2024-12-15T15:29:06.636Z,59992,0.013342119,0.111107655,0.07012701
1734276546647,2024-12-15T15:29:06.647Z,60003,0.015725879,0.09500975,0.055549264
1734276546650,2024-12-15T15:29:06.650Z,60006,0.015725879,0.09500975,0.055549264
1734276546658,2024-12-15T15:29:06.658Z,60014,0.061006106,0.08088443,0.035569455
1734276546660,2024-12-15T15:29:06.660Z,60016,0.061006106,0.08088443,0.035569455
1734276546669,2024-12-15T15:29:06.669Z,60025,0.04399302,0.069736436,0.032458182
1734276546671,2024-12-15T15:29:06.671Z,60027,0.04399302,0.069736436,0.032458182
1734276546680,2024-12-15T15:29:06.680Z,60036,0.031193638,0.05081378,0.028948128
1734276546683,2024-12-15T15:29:06.683Z,60039,0.031193638,0.05081378,0.028948128
1734276546690,2024-12-15T15:29:06.690Z,60046,0.028550956,0.033362385,0.0119721
1734276546693,2024-12-15T15:29:06.693Z,60049,0.028550956,0.033362385,0.0119721
1734276546699,2024-12-15T15:29:06.699Z,60055,0.050314255,0.019778531,0.028181404
1734276546702,2024-12-15T15:29:06.702Z,60058,0.050314255,0.019778531,0.028181404
1734276546712,2024-12-15T15:29:06.712Z,60068,0.034101248,0.010046662,0.046644237
1734276546715,2024-12-15T15:29:06.715Z,60071,0.034101248,0.010046662,0.046644237
1734276546725,2024-12-15T15:29:06.725Z,60081,0.025862398,0.010504795,0.023369428
1734276546728,2024-12-15T15:29:06.728Z,60084,0.025862398,0.010504795,0.023369428
1734276546737,2024-12-15T15:29:06.737Z,60093,0.029453075,0.005032472,0.012309877
1734276546740,2024-12-15T15:29:06.740Z,60096,0.029453075,0.005032472,0.012309877
1734276546749,2024-12-15T15:29:06.749Z,60105,0.021422165,0.0038981747,0.030408327
1734276546752,2024-12-15T15:29:06.752Z,60108,0.021422165,0.0038981747,0.030408327
1734276546761,2024-12-15T15:29:06.761Z,60117,0.028215768,0.0031763047,0.039068814
1734276546763,2024-12-15T15:29:06.763Z,60119,0.028215768,0.0031763047,0.039068814
1734276546771,2024-12-15T15:29:06.771Z,60127,0.025780758,0.003874835,0.040244903
1734276546775,2024-12-15T15:29:06.775Z,60131,0.025780758,0.003874835,0.040244903
1734276546782,2024-12-15T15:29:06.782Z,60138,0.02254817,-1.9245323E-4,0.044900447
1734276546784,2024-12-15T15:29:06.784Z,60140,0.02254817,-1.9245323E-4,0.044900447
1734276546791,2024-12-15T15:29:06.791Z,60147,0.014210784,-4.524936E-4,0.0376426
1734276546794,2024-12-15T15:29:06.794Z,60150,0.014210784,-4.524936E-4,0.0376426
1734276546802,2024-12-15T15:29:06.802Z,60158,0.011067155,-0.0042512813,0.029303903
1734276546804,2024-12-15T15:29:06.804Z,60160,0.011067155,-0.0042512813,0.029303903
1734276546813,2024-12-15T15:29:06.813Z,60169,0.024614004,-0.016379626,0.040505443
1734276546816,2024-12-15T15:29:06.816Z,60172,0.024614004,-0.016379626,0.040505443
1734276546826,2024-12-15T15:29:06.826Z,60182,0.010986804,-0.023673303,0.034596745
1734276546829,2024-12-15T15:29:06.829Z,60185,0.010986804,-0.023673303,0.034596745
1734276546836,2024-12-15T15:29:06.836Z,60192,0.017446872,-0.032928172,0.030495407
1734276546839,2024-12-15T15:29:06.839Z,60195,0.017446872,-0.032928172,0.030495407
1734276546847,2024-12-15T15:29:06.847Z,60203,0.009080189,-0.045228355,0.03594142
1734276546849,2024-12-15T15:29:06.849Z,60205,0.009080189,-0.045228355,0.03594142
1734276546857,2024-12-15T15:29:06.857Z,60213,0.031482805,-0.049697373,0.02989816
1734276546859,2024-12-15T15:29:06.859Z,60215,0.031482805,-0.049697373,0.02989816
1734276546866,2024-12-15T15:29:06.866Z,60222,0.048761927,-0.053591464,0.032389876
1734276546868,2024-12-15T15:29:06.868Z,60224,0.048761927,-0.053591464,0.032389876
1734276546875,2024-12-15T15:29:06.875Z,60231,0.024249569,-0.063227646,0.03448644
1734276546879,2024-12-15T15:29:06.879Z,60235,0.024249569,-0.063227646,0.03448644
1734276546886,2024-12-15T15:29:06.886Z,60242,0.028380968,-0.06985362,0.01719305
1734276546888,2024-12-15T15:29:06.888Z,60244,0.028380968,-0.06985362,0.01719305
1734276546897,2024-12-15T15:29:06.897Z,60253,0.018724075,-0.077883944,0.013787234
1734276546900,2024-12-15T15:29:06.900Z,60256,0.018724075,-0.077883944,0.013787234
1734276546912,2024-12-15T15:29:06.912Z,60268,0.02272847,-0.08488889,0.011910706
1734276546915,2024-12-15T15:29:06.915Z,60271,0.02272847,-0.08488889,0.011910706
1734276546922,2024-12-15T15:29:06.922Z,60278,0.03458846,-0.09382051,0.010658653
1734276546925,2024-12-15T15:29:06.925Z,60281,0.03458846,-0.09382051,0.010658653
1734276546933,2024-12-15T15:29:06.933Z,60289,0.024462007,-0.09684287,0.026067287
1734276546937,2024-12-15T15:29:06.937Z,60293,0.024462007,-0.09684287,0.026067287
1734276546948,2024-12-15T15:29:06.948Z,60304,0.03928499,-0.08908912,0.01808193
1734276546952,2024-12-15T15:29:06.952Z,60308,0.03928499,-0.08908912,0.01808193
1734276546967,2024-12-15T15:29:06.967Z,60323,0.0565458,-0.079372026,0.0016926208
1734276546970,2024-12-15T15:29:06.970Z,60326,0.0565458,-0.079372026,0.0016926208
1734276546978,2024-12-15T15:29:06.978Z,60334,0.051097304,-0.08247598,0.013869943
1734276546981,2024-12-15T15:29:06.981Z,60337,0.051097304,-0.08247598,0.013869943
1734276546989,2024-12-15T15:29:06.989Z,60345,0.0382599,-0.086048864,0.016725957
1734276546991,2024-12-15T15:29:06.991Z,60347,0.0382599,-0.086048864,0.016725957
1734276546999,2024-12-15T15:29:06.999Z,60355,0.0574583,-0.084213994,0.005551726
1734276547001,2024-12-15T15:29:07.001Z,60357,0.0574583,-0.084213994,0.005551726
1734276547008,2024-12-15T15:29:07.008Z,60364,0.033147004,-0.092128694,0.02801889
1734276547010,2024-12-15T15:29:07.010Z,60366,0.033147004,-0.092128694,0.02801889
1734276547018,2024-12-15T15:29:07.018Z,60374,0.03175381,-0.09512966,0.035094324
1734276547021,2024-12-15T15:29:07.021Z,60377,0.03175381,-0.09512966,0.035094324
1734276547028,2024-12-15T15:29:07.028Z,60384,0.035144717,-0.09274086,0.030487444
1734276547031,2024-12-15T15:29:07.031Z,60387,0.035144717,-0.09274086,0.030487444
1734276547040,2024-12-15T15:29:07.040Z,60396,0.013701449,-0.09118899,0.037272185
1734276547043,2024-12-15T15:29:07.043Z,60399,0.013701449,-0.09118899,0.037272185
1734276547052,2024-12-15T15:29:07.052Z,60408,-0.004786411,-0.08866123,0.027380161
1734276547055,2024-12-15T15:29:07.055Z,60411,-0.004786411,-0.08866123,0.027380161
1734276547063,2024-12-15T15:29:07.063Z,60419,0.0055565643,-0.090070635,0.024574783
1734276547066,2024-12-15T15:29:07.066Z,60422,0.0055565643,-0.090070635,0.024574783
1734276547077,2024-12-15T15:29:07.077Z,60433,0.008827102,-0.09927708,0.014478744
1734276547080,2024-12-15T15:29:07.080Z,60436,0.008827102,-0.09927708,0.014478744
1734276547088,2024-12-15T15:29:07.088Z,60444,0.00782742,-0.11135603,0.016545203
1734276547091,2024-12-15T15:29:07.091Z,60447,0.00782742,-0.11135603,0.016545203
1734276547100,2024-12-15T15:29:07.100Z,60456,5.526831E-4,-0.11942681,0.027997818
1734276547102,2024-12-15T15:29:07.102Z,60458,5.526831E-4,-0.11942681,0.027997818
1734276547112,2024-12-15T15:29:07.112Z,60468,-0.01778121,-0.124959715,0.019294973
1734276547115,2024-12-15T15:29:07.115Z,60471,-0.01778121,-0.124959715,0.019294973
1734276547122,2024-12-15T15:29:07.122Z,60478,-0.018189212,-0.12799647,0.02210936
1734276547124,2024-12-15T15:29:07.124Z,60480,-0.018189212,-0.12799647,0.02210936
1734276547131,2024-12-15T15:29:07.131Z,60487,-0.026937544,-0.13148358,0.030950421
1734276547134,2024-12-15T15:29:07.134Z,60490,-0.026937544,-0.13148358,0.030950421
1734276547141,2024-12-15T15:29:07.141Z,60497,-0.016664198,-0.12859191,0.04729888
1734276547143,2024-12-15T15:29:07.143Z,60499,-0.016664198,-0.12859191,0.04729888
1734276547150,2024-12-15T15:29:07.150Z,60506,-0.012986484,-0.12750041,0.047505252
1734276547153,2024-12-15T15:29:07.153Z,60509,-0.012986484,-0.12750041,0.047505252
1734276547161,2024-12-15T15:29:07.161Z,60517,-0.030804746,-0.13275927,0.032076806
1734276547164,2024-12-15T15:29:07.164Z,60520,-0.030804746,-0.13275927,0.032076806
1734276547174,2024-12-15T15:29:07.174Z,60530,-0.018505633,-0.13846694,0.03659844
1734276547177,2024-12-15T15:29:07.177Z,60533,-0.018505633,-0.13846694,0.03659844
1734276547186,2024-12-15T15:29:07.186Z,60542,-0.013684674,-0.15145262,0.04339373
1734276547189,2024-12-15T15:29:07.189Z,60545,-0.013684674,-0.15145262,0.04339373
1734276547199,2024-12-15T15:29:07.199Z,60555,-0.026205901,-0.16259652,0.05705645
1734276547201,2024-12-15T15:29:07.201Z,60557,-0.026205901,-0.16259652,0.05705645
1734276547209,2024-12-15T15:29:07.209Z,60565,0.0043305624,-0.16545211,0.06808501
1734276547212,2024-12-15T15:29:07.212Z,60568,0.0043305624,-0.16545211,0.06808501
1734276547219,2024-12-15T15:29:07.219Z,60575,0.015774187,-0.1692578,0.07201695
1734276547222,2024-12-15T15:29:07.222Z,60578,0.015774187,-0.1692578,0.07201695
1734276547231,2024-12-15T15:29:07.231Z,60587,-0.0011106662,-0.17547698,0.0804005
1734276547234,2024-12-15T15:29:07.234Z,60590,-0.0011106662,-0.17547698,0.0804005
1734276547243,2024-12-15T15:29:07.243Z,60599,-0.009578535,-0.17439336,0.052424394
1734276547246,2024-12-15T15:29:07.246Z,60602,-0.009578535,-0.17439336,0.052424394
1734276547253,2024-12-15T15:29:07.253Z,60609,-0.0018370822,-0.17921528,0.04513553
1734276547256,2024-12-15T15:29:07.256Z,60612,-0.0018370822,-0.17921528,0.04513553
1734276547264,2024-12-15T15:29:07.264Z,60620,0.010892644,-0.19352081,0.06352159
1734276547266,2024-12-15T15:29:07.266Z,60622,0.010892644,-0.19352081,0.06352159
1734276547275,2024-12-15T15:29:07.275Z,60631,0.004053917,-0.19856447,0.059511364
1734276547277,2024-12-15T15:29:07.277Z,60633,0.004053917,-0.19856447,0.059511364
1734276547284,2024-12-15T15:29:07.284Z,60640,-0.0033592035,-0.20050602,0.0608336
1734276547286,2024-12-15T15:29:07.286Z,60642,-0.0033592035,-0.20050602,0.0608336
1734276547294,2024-12-15T15:29:07.294Z,60650,-0.010159469,-0.19857624,0.07823514
1734276547296,2024-12-15T15:29:07.296Z,60652,-0.010159469,-0.19857624,0.07823514
1734276547304,2024-12-15T15:29:07.304Z,60660,-0.004561963,-0.18741551,0.07650306
1734276547306,2024-12-15T15:29:07.306Z,60662,-0.004561963,-0.18741551,0.07650306
1734276547316,2024-12-15T15:29:07.316Z,60672,-0.021308968,-0.17706932,0.07274615
1734276547318,2024-12-15T15:29:07.318Z,60674,-0.021308968,-0.17706932,0.07274615
1734276547326,2024-12-15T15:29:07.326Z,60682,-0.034040857,-0.1693495,0.06226739
1734276547328,2024-12-15T15:29:07.328Z,60684,-0.034040857,-0.1693495,0.06226739
1734276547335,2024-12-15T15:29:07.335Z,60691,-0.025887998,-0.16908315,0.054410722
1734276547337,2024-12-15T15:29:07.337Z,60693,-0.025887998,-0.16908315,0.054410722
1734276547345,2024-12-15T15:29:07.345Z,60701,-0.012339981,-0.16836545,0.054430604
1734276547347,2024-12-15T15:29:07.347Z,60703,-0.012339981,-0.16836545,0.054430604
1734276547355,2024-12-15T15:29:07.355Z,60711,-0.008668394,-0.1725364,0.047259297
1734276547358,2024-12-15T15:29:07.358Z,60714,-0.008668394,-0.1725364,0.047259297
1734276547366,2024-12-15T15:29:07.366Z,60722,-0.011447077,-0.17719428,0.045924366
1734276547369,2024-12-15T15:29:07.369Z,60725,-0.011447077,-0.17719428,0.045924366
1734276547377,2024-12-15T15:29:07.377Z,60733,-0.013820577,-0.1808613,0.05295863
1734276547380,2024-12-15T15:29:07.380Z,60736,-0.013820577,-0.1808613,0.05295863
1734276547386,2024-12-15T15:29:07.386Z,60742,-0.03116388,-0.18066311,0.053208888
1734276547388,2024-12-15T15:29:07.388Z,60744,-0.03116388,-0.18066311,0.053208888
1734276547398,2024-12-15T15:29:07.398Z,60754,-0.031630963,-0.18248096,0.059311565
1734276547400,2024-12-15T15:29:07.400Z,60756,-0.031630963,-0.18248096,0.059311565
1734276547409,2024-12-15T15:29:07.409Z,60765,-0.03147247,-0.18920593,0.06962948
1734276547412,2024-12-15T15:29:07.412Z,60768,-0.03147247,-0.18920593,0.06962948
1734276547421,2024-12-15T15:29:07.421Z,60777,-0.03178753,-0.19935071,0.06815102
1734276547425,2024-12-15T15:29:07.425Z,60781,-0.03178753,-0.19935071,0.06815102
1734276547433,2024-12-15T15:29:07.433Z,60789,-0.031142972,-0.21145155,0.064881355
1734276547436,2024-12-15T15:29:07.436Z,60792,-0.031142972,-0.21145155,0.064881355
1734276547445,2024-12-15T15:29:07.445Z,60801,-0.025440415,-0.23145403,0.06389144
1734276547452,2024-12-15T15:29:07.452Z,60808,-0.025440415,-0.23145403,0.06389144
1734276547461,2024-12-15T15:29:07.461Z,60817,-0.022212327,-0.24852392,0.05423054
1734276547464,2024-12-15T15:29:07.464Z,60820,-0.022212327,-0.24852392,0.05423054
1734276547473,2024-12-15T15:29:07.473Z,60829,-0.016543368,-0.27389818,0.0632
1734276547477,2024-12-15T15:29:07.477Z,60833,-0.016543368,-0.27389818,0.0632
1734276547485,2024-12-15T15:29:07.485Z,60841,-0.017711507,-0.29340607,0.06760358
1734276547487,2024-12-15T15:29:07.487Z,60843,-0.017711507,-0.29340607,0.06760358
1734276547495,2024-12-15T15:29:07.495Z,60851,-0.026183898,-0.30509585,0.0585643
1734276547497,2024-12-15T15:29:07.497Z,60853,-0.026183898,-0.30509585,0.0585643
1734276547505,2024-12-15T15:29:07.505Z,60861,-0.025711032,-0.3163262,0.06695098
1734276547507,2024-12-15T15:29:07.507Z,60863,-0.025711032,-0.3163262,0.06695098
1734276547516,2024-12-15T15:29:07.516Z,60872,-0.026602015,-0.32415667,0.07083061
1734276547519,2024-12-15T15:29:07.519Z,60875,-0.026602015,-0.32415667,0.07083061
1734276547529,2024-12-15T15:29:07.529Z,60885,-0.041983224,-0.33055744,0.05564901
1734276547531,2024-12-15T15:29:07.531Z,60887,-0.041983224,-0.33055744,0.05564901
1734276547539,2024-12-15T15:29:07.539Z,60895,-0.034190036,-0.33653057,0.04464209
1734276547541,2024-12-15T15:29:07.541Z,60897,-0.034190036,-0.33653057,0.04464209
1734276547549,2024-12-15T15:29:07.549Z,60905,-0.013590174,-0.34838954,0.04927456
1734276547552,2024-12-15T15:29:07.552Z,60908,-0.013590174,-0.34838954,0.04927456
1734276547563,2024-12-15T15:29:07.563Z,60919,-0.026660217,-0.3558612,0.043217
1734276547565,2024-12-15T15:29:07.565Z,60921,-0.026660217,-0.3558612,0.043217
1734276547572,2024-12-15T15:29:07.572Z,60928,-0.017756825,-0.34526694,0.017133774
1734276547575,2024-12-15T15:29:07.575Z,60931,-0.017756825,-0.34526694,0.017133774
1734276547582,2024-12-15T15:29:07.582Z,60938,-0.007479103,-0.34149644,0.009804964
1734276547584,2024-12-15T15:29:07.584Z,60940,-0.007479103,-0.34149644,0.009804964
1734276547591,2024-12-15T15:29:07.591Z,60947,-0.01439023,-0.33575755,0.0021389725
1734276547594,2024-12-15T15:29:07.594Z,60950,-0.01439023,-0.33575755,0.0021389725
1734276547601,2024-12-15T15:29:07.601Z,60957,-0.025632698,-0.32955256,-0.0077984612
1734276547603,2024-12-15T15:29:07.603Z,60959,-0.025632698,-0.32955256,-0.0077984612
1734276547610,2024-12-15T15:29:07.610Z,60966,-0.023109484,-0.3209368,-0.019988837
1734276547613,2024-12-15T15:29:07.613Z,60969,-0.023109484,-0.3209368,-0.019988837
1734276547620,2024-12-15T15:29:07.620Z,60976,-0.01771372,-0.31232017,-0.01876077
1734276547622,2024-12-15T15:29:07.622Z,60978,-0.01771372,-0.31232017,-0.01876077
1734276547631,2024-12-15T15:29:07.631Z,60987,-0.012934481,-0.3139406,-0.012910366
1734276547633,2024-12-15T15:29:07.633Z,60989,-0.012934481,-0.3139406,-0.012910366
1734276547640,2024-12-15T15:29:07.640Z,60996,-0.013657396,-0.30772775,-0.00789037
1734276547643,2024-12-15T15:29:07.643Z,60999,-0.013657396,-0.30772775,-0.00789037
1734276547652,2024-12-15T15:29:07.652Z,61008,-0.007669052,-0.30002895,-0.0066762595
1734276547654,2024-12-15T15:29:07.654Z,61010,-0.007669052,-0.30002895,-0.0066762595
1734276547662,2024-12-15T15:29:07.662Z,61018,-0.016061092,-0.29618794,-0.0064557195
1734276547665,2024-12-15T15:29:07.665Z,61021,-0.016061092,-0.29618794,-0.0064557195
1734276547672,2024-12-15T15:29:07.672Z,61028,-0.029836498,-0.29380402,-0.0014987271
1734276547674,2024-12-15T15:29:07.674Z,61030,-0.029836498,-0.29380402,-0.0014987271
1734276547682,2024-12-15T15:29:07.682Z,61038,-0.036683686,-0.2899673,0.006662994
1734276547686,2024-12-15T15:29:07.686Z,61042,-0.036683686,-0.2899673,0.006662994
1734276547693,2024-12-15T15:29:07.693Z,61049,-0.017259525,-0.28707254,0.001878917
1734276547696,2024-12-15T15:29:07.696Z,61052,-0.017259525,-0.28707254,0.001878917
1734276547703,2024-12-15T15:29:07.703Z,61059,-0.025176411,-0.28660837,0.020794032
1734276547705,2024-12-15T15:29:07.705Z,61061,-0.025176411,-0.28660837,0.020794032
1734276547712,2024-12-15T15:29:07.712Z,61068,-0.0316208,-0.27830788,0.028994322
1734276547715,2024-12-15T15:29:07.715Z,61071,-0.0316208,-0.27830788,0.028994322
1734276547725,2024-12-15T15:29:07.725Z,61081,-0.025346426,-0.26414153,0.017464425
1734276547728,2024-12-15T15:29:07.728Z,61084,-0.025346426,-0.26414153,0.017464425
1734276547736,2024-12-15T15:29:07.736Z,61092,-0.020395981,-0.25732544,0.022417603
1734276547738,2024-12-15T15:29:07.738Z,61094,-0.020395981,-0.25732544,0.022417603
1734276547747,2024-12-15T15:29:07.747Z,61103,-0.018769149,-0.2529627,0.031118004
1734276547750,2024-12-15T15:29:07.750Z,61106,-0.018769149,-0.2529627,0.031118004
1734276547758,2024-12-15T15:29:07.758Z,61114,-0.016073223,-0.24763566,0.036237925
1734276547760,2024-12-15T15:29:07.760Z,61116,-0.016073223,-0.24763566,0.036237925
1734276547768,2024-12-15T15:29:07.768Z,61124,-0.01181482,-0.24281558,0.031524092
1734276547770,2024-12-15T15:29:07.770Z,61126,-0.01181482,-0.24281558,0.031524092
1734276547778,2024-12-15T15:29:07.778Z,61134,0.001725758,-0.23507495,0.031829473
1734276547781,2024-12-15T15:29:07.781Z,61137,0.001725758,-0.23507495,0.031829473
1734276547790,2024-12-15T15:29:07.790Z,61146,-0.001915391,-0.23220342,0.046912134
1734276547793,2024-12-15T15:29:07.793Z,61149,-0.001915391,-0.23220342,0.046912134
1734276547802,2024-12-15T15:29:07.802Z,61158,0.018622402,-0.22167198,0.050249163
1734276547804,2024-12-15T15:29:07.804Z,61160,0.018622402,-0.22167198,0.050249163
1734276547812,2024-12-15T15:29:07.812Z,61168,0.012583441,-0.20992805,0.05200538
1734276547814,2024-12-15T15:29:07.814Z,61170,0.012583441,-0.20992805,0.05200538
1734276547821,2024-12-15T15:29:07.821Z,61177,0.017051244,-0.20448646,0.05585709
1734276547823,2024-12-15T15:29:07.823Z,61179,0.017051244,-0.20448646,0.05585709
1734276547830,2024-12-15T15:29:07.830Z,61186,0.01598322,-0.19705762,0.064172655
1734276547833,2024-12-15T15:29:07.833Z,61189,0.01598322,-0.19705762,0.064172655
1734276547842,2024-12-15T15:29:07.842Z,61198,0.01878962,-0.19157489,0.06563559
1734276547845,2024-12-15T15:29:07.845Z,61201,0.01878962,-0.19157489,0.06563559
1734276547853,2024-12-15T15:29:07.853Z,61209,0.019153655,-0.18951128,0.06760385
1734276547856,2024-12-15T15:29:07.856Z,61212,0.019153655,-0.18951128,0.06760385
1734276547866,2024-12-15T15:29:07.866Z,61222,0.0156094255,-0.18207942,0.07938072
1734276547868,2024-12-15T15:29:07.868Z,61224,0.0156094255,-0.18207942,0.07938072
1734276547877,2024-12-15T15:29:07.877Z,61233,0.014510258,-0.17611697,0.08193159
1734276547880,2024-12-15T15:29:07.880Z,61236,0.014510258,-0.17611697,0.08193159
1734276547891,2024-12-15T15:29:07.891Z,61247,0.02990428,-0.1662469,0.082134396
1734276547894,2024-12-15T15:29:07.894Z,61250,0.02990428,-0.1662469,0.082134396
1734276547902,2024-12-15T15:29:07.902Z,61258,0.03188164,-0.15629536,0.08259826
1734276547904,2024-12-15T15:29:07.904Z,61260,0.03188164,-0.15629536,0.08259826
1734276547911,2024-12-15T15:29:07.911Z,61267,0.034614183,-0.13945128,0.078516744
1734276547914,2024-12-15T15:29:07.914Z,61270,0.034614183,-0.13945128,0.078516744
1734276547922,2024-12-15T15:29:07.922Z,61278,0.03763445,-0.12353261,0.07769998
1734276547924,2024-12-15T15:29:07.924Z,61280,0.03763445,-0.12353261,0.07769998
1734276547932,2024-12-15T15:29:07.932Z,61288,0.023983913,-0.10710309,0.072816364
1734276547935,2024-12-15T15:29:07.935Z,61291,0.023983913,-0.10710309,0.072816364
1734276547945,2024-12-15T15:29:07.945Z,61301,0.009969848,-0.09313258,0.07164085
1734276547948,2024-12-15T15:29:07.948Z,61304,0.009969848,-0.09313258,0.07164085
1734276547955,2024-12-15T15:29:07.955Z,61311,0.001103713,-0.080682635,0.06503463
1734276547957,2024-12-15T15:29:07.957Z,61313,0.001103713,-0.080682635,0.06503463
1734276547967,2024-12-15T15:29:07.967Z,61323,0.01838095,-0.06828744,0.062277462
1734276547969,2024-12-15T15:29:07.969Z,61325,0.01838095,-0.06828744,0.062277462
1734276547977,2024-12-15T15:29:07.977Z,61333,0.026039802,-0.06421928,0.0584318
1734276547980,2024-12-15T15:29:07.980Z,61336,0.026039802,-0.06421928,0.0584318
1734276547987,2024-12-15T15:29:07.987Z,61343,0.04002474,-0.05184499,0.052613225
1734276547990,2024-12-15T15:29:07.990Z,61346,0.04002474,-0.05184499,0.052613225
1734276547997,2024-12-15T15:29:07.997Z,61353,0.05575958,-0.028684575,0.05507287
1734276547999,2024-12-15T15:29:07.999Z,61355,0.05575958,-0.028684575,0.05507287
1734276548006,2024-12-15T15:29:08.006Z,61362,0.0677789,-0.0015550882,0.04432869
1734276548008,2024-12-15T15:29:08.008Z,61364,0.0677789,-0.0015550882,0.04432869
1734276548016,2024-12-15T15:29:08.016Z,61372,0.05755269,0.02905392,0.03884712
1734276548018,2024-12-15T15:29:08.018Z,61374,0.05755269,0.02905392,0.03884712
1734276548026,2024-12-15T15:29:08.026Z,61382,0.046776626,0.056748904,0.03570625
1734276548029,2024-12-15T15:29:08.029Z,61385,0.046776626,0.056748904,0.03570625
1734276548038,2024-12-15T15:29:08.038Z,61394,0.07598804,0.08397019,0.034386992
1734276548041,2024-12-15T15:29:08.041Z,61397,0.07598804,0.08397019,0.034386992
1734276548048,2024-12-15T15:29:08.048Z,61404,0.065064766,0.10731042,0.05243322
1734276548050,2024-12-15T15:29:08.050Z,61406,0.065064766,0.10731042,0.05243322
1734276548057,2024-12-15T15:29:08.057Z,61413,0.061551213,0.12771143,0.05071354
1734276548060,2024-12-15T15:29:08.060Z,61416,0.061551213,0.12771143,0.05071354
1734276548068,2024-12-15T15:29:08.068Z,61424,0.0629912,0.15103659,0.03262332
1734276548070,2024-12-15T15:29:08.070Z,61426,0.0629912,0.15103659,0.03262332
1734276548077,2024-12-15T15:29:08.077Z,61433,0.055507097,0.16755714,0.012872634
1734276548079,2024-12-15T15:29:08.079Z,61435,0.055507097,0.16755714,0.012872634
1734276548090,2024-12-15T15:29:08.090Z,61446,0.059502754,0.19340095,0.0013308532
1734276548092,2024-12-15T15:29:08.092Z,61448,0.059502754,0.19340095,0.0013308532
1734276548100,2024-12-15T15:29:08.100Z,61456,0.05402756,0.22025318,-9.5355336E-4
1734276548102,2024-12-15T15:29:08.102Z,61458,0.05402756,0.22025318,-9.5355336E-4
1734276548109,2024-12-15T15:29:08.109Z,61465,0.06154685,0.24567398,0.0034819818
1734276548112,2024-12-15T15:29:08.112Z,61468,0.06154685,0.24567398,0.0034819818
1734276548119,2024-12-15T15:29:08.119Z,61475,0.061143186,0.2735518,0.011241732
1734276548122,2024-12-15T15:29:08.122Z,61478,0.061143186,0.2735518,0.011241732
1734276548131,2024-12-15T15:29:08.131Z,61487,0.05452158,0.29700887,0.021714985
1734276548135,2024-12-15T15:29:08.135Z,61491,0.05452158,0.29700887,0.021714985
1734276548143,2024-12-15T15:29:08.143Z,61499,0.03202827,0.31407213,0.033883274
1734276548146,2024-12-15T15:29:08.146Z,61502,0.03202827,0.31407213,0.033883274
1734276548154,2024-12-15T15:29:08.154Z,61510,0.061097287,0.34083846,-0.0018611237
1734276548156,2024-12-15T15:29:08.156Z,61512,0.061097287,0.34083846,-0.0018611237
1734276548163,2024-12-15T15:29:08.163Z,61519,0.045622077,0.34661233,-0.020276157
1734276548166,2024-12-15T15:29:08.166Z,61522,0.045622077,0.34661233,-0.020276157
1734276548173,2024-12-15T15:29:08.173Z,61529,0.018965237,0.3464945,-0.022557525
1734276548175,2024-12-15T15:29:08.175Z,61531,0.018965237,0.3464945,-0.022557525
1734276548182,2024-12-15T15:29:08.182Z,61538,0.035256624,0.33894476,-0.012453974
1734276548184,2024-12-15T15:29:08.184Z,61540,0.035256624,0.33894476,-0.012453974
1734276548192,2024-12-15T15:29:08.192Z,61548,0.06807353,0.33031875,-0.009773551
1734276548194,2024-12-15T15:29:08.194Z,61550,0.06807353,0.33031875,-0.009773551
1734276548202,2024-12-15T15:29:08.202Z,61558,0.07221973,0.32653618,-0.017314998
1734276548204,2024-12-15T15:29:08.204Z,61560,0.07221973,0.32653618,-0.017314998
1734276548213,2024-12-15T15:29:08.213Z,61569,0.06527476,0.32076192,-0.00971484
1734276548216,2024-12-15T15:29:08.216Z,61572,0.06527476,0.32076192,-0.00971484
1734276548223,2024-12-15T15:29:08.223Z,61579,0.06679216,0.3295923,-1.6635741E-4
1734276548226,2024-12-15T15:29:08.226Z,61582,0.06679216,0.3295923,-1.6635741E-4
1734276548233,2024-12-15T15:29:08.233Z,61589,0.07879856,0.34617725,-0.005761444
1734276548236,2024-12-15T15:29:08.236Z,61592,0.07879856,0.34617725,-0.005761444
1734276548246,2024-12-15T15:29:08.246Z,61602,0.072948895,0.3602669,-0.008485319
1734276548248,2024-12-15T15:29:08.248Z,61604,0.072948895,0.3602669,-0.008485319
1734276548255,2024-12-15T15:29:08.255Z,61611,0.047739707,0.36649483,0.0033429875
1734276548257,2024-12-15T15:29:08.257Z,61613,0.047739707,0.36649483,0.0033429875
1734276548265,2024-12-15T15:29:08.265Z,61621,0.033809662,0.3691885,-0.0034877376
1734276548268,2024-12-15T15:29:08.268Z,61624,0.033809662,0.3691885,-0.0034877376
1734276548275,2024-12-15T15:29:08.275Z,61631,0.050768897,0.36588636,-0.002586394
1734276548278,2024-12-15T15:29:08.278Z,61634,0.050768897,0.36588636,-0.002586394
1734276548286,2024-12-15T15:29:08.286Z,61642,0.0667414,0.3551467,0.02791983
1734276548289,2024-12-15T15:29:08.289Z,61645,0.0667414,0.3551467,0.02791983
1734276548297,2024-12-15T15:29:08.297Z,61653,0.069925606,0.3418714,0.04289272
1734276548299,2024-12-15T15:29:08.299Z,61655,0.069925606,0.3418714,0.04289272
1734276548305,2024-12-15T15:29:08.305Z,61661,0.07050181,0.33730516,0.032489385
1734276548308,2024-12-15T15:29:08.308Z,61664,0.07050181,0.33730516,0.032489385
1734276548315,2024-12-15T15:29:08.315Z,61671,0.06398758,0.321932,0.03672689
1734276548317,2024-12-15T15:29:08.317Z,61673,0.06398758,0.321932,0.03672689
1734276548325,2024-12-15T15:29:08.325Z,61681,0.06591634,0.30797783,0.05016866
1734276548328,2024-12-15T15:29:08.328Z,61684,0.06591634,0.30797783,0.05016866
1734276548337,2024-12-15T15:29:08.337Z,61693,0.08203892,0.2993784,0.04583427
1734276548340,2024-12-15T15:29:08.340Z,61696,0.08203892,0.2993784,0.04583427
1734276548348,2024-12-15T15:29:08.348Z,61704,0.07322888,0.28100997,0.03740701
1734276548352,2024-12-15T15:29:08.352Z,61708,0.07322888,0.28100997,0.03740701
1734276548362,2024-12-15T15:29:08.362Z,61718,0.06926011,0.26459303,0.036648512
1734276548368,2024-12-15T15:29:08.368Z,61724,0.06926011,0.26459303,0.036648512
1734276548375,2024-12-15T15:29:08.375Z,61731,0.066222996,0.23989037,0.042390075
1734276548378,2024-12-15T15:29:08.378Z,61734,0.066222996,0.23989037,0.042390075
1734276548385,2024-12-15T15:29:08.385Z,61741,0.05043652,0.21424115,0.025207317
1734276548387,2024-12-15T15:29:08.387Z,61743,0.05043652,0.21424115,0.025207317
1734276548394,2024-12-15T15:29:08.394Z,61750,0.052024245,0.18622543,0.015253815
1734276548396,2024-12-15T15:29:08.396Z,61752,0.052024245,0.18622543,0.015253815
1734276548404,2024-12-15T15:29:08.404Z,61760,0.027370417,0.15882234,0.006534609
1734276548406,2024-12-15T15:29:08.406Z,61762,0.027370417,0.15882234,0.006534609
1734276548416,2024-12-15T15:29:08.416Z,61772,0.015042896,0.13887684,-0.014172463
1734276548418,2024-12-15T15:29:08.418Z,61774,0.015042896,0.13887684,-0.014172463
1734276548424,2024-12-15T15:29:08.424Z,61780,0.018366264,0.1254375,-0.005869714
1734276548426,2024-12-15T15:29:08.426Z,61782,0.018366264,0.1254375,-0.005869714
1734276548433,2024-12-15T15:29:08.433Z,61789,0.022166377,0.12535386,0.015757442
1734276548436,2024-12-15T15:29:08.436Z,61792,0.022166377,0.12535386,0.015757442
1734276548445,2024-12-15T15:29:08.445Z,61801,0.028023655,0.13077591,0.015685016
1734276548448,2024-12-15T15:29:08.448Z,61804,0.028023655,0.13077591,0.015685016
1734276548455,2024-12-15T15:29:08.455Z,61811,0.040865105,0.1333734,0.012688997
1734276548457,2024-12-15T15:29:08.457Z,61813,0.040865105,0.1333734,0.012688997
1734276548464,2024-12-15T15:29:08.464Z,61820,0.044604085,0.13165513,0.016776616
1734276548466,2024-12-15T15:29:08.466Z,61822,0.044604085,0.13165513,0.016776616
1734276548472,2024-12-15T15:29:08.472Z,61828,0.03989924,0.12997225,0.028009055
1734276548474,2024-12-15T15:29:08.474Z,61830,0.03989924,0.12997225,0.028009055
1734276548481,2024-12-15T15:29:08.481Z,61837,0.03514108,0.13318385,0.022006717
1734276548484,2024-12-15T15:29:08.484Z,61840,0.03514108,0.13318385,0.022006717
1734276548490,2024-12-15T15:29:08.490Z,61846,0.033376727,0.14221749,0.004510756
1734276548493,2024-12-15T15:29:08.493Z,61849,0.033376727,0.14221749,0.004510756
1734276548501,2024-12-15T15:29:08.501Z,61857,0.028824199,0.1428849,0.0069931746
1734276548503,2024-12-15T15:29:08.503Z,61859,0.028824199,0.1428849,0.0069931746
1734276548510,2024-12-15T15:29:08.510Z,61866,0.026029931,0.13906306,0.008945404
1734276548512,2024-12-15T15:29:08.512Z,61868,0.026029931,0.13906306,0.008945404
1734276548521,2024-12-15T15:29:08.521Z,61877,0.03325162,0.13174167,0.017187983
1734276548524,2024-12-15T15:29:08.524Z,61880,0.03325162,0.13174167,0.017187983
1734276548532,2024-12-15T15:29:08.532Z,61888,0.031829346,0.12046249,0.024285583
1734276548535,2024-12-15T15:29:08.535Z,61891,0.031829346,0.12046249,0.024285583
1734276548541,2024-12-15T15:29:08.541Z,61897,0.031471815,0.10914442,0.022930589
1734276548544,2024-12-15T15:29:08.544Z,61900,0.031471815,0.10914442,0.022930589
1734276548551,2024-12-15T15:29:08.551Z,61907,0.03519764,0.093859024,0.032231357
1734276548553,2024-12-15T15:29:08.553Z,61909,0.03519764,0.093859024,0.032231357
1734276548559,2024-12-15T15:29:08.559Z,61915,0.030235287,0.08293149,0.032511946
1734276548561,2024-12-15T15:29:08.561Z,61917,0.030235287,0.08293149,0.032511946
1734276548569,2024-12-15T15:29:08.569Z,61925,0.014203163,0.07049117,0.028134078
1734276548571,2024-12-15T15:29:08.571Z,61927,0.014203163,0.07049117,0.028134078
1734276548579,2024-12-15T15:29:08.579Z,61935,0.006711162,0.061403472,0.0327532
1734276548582,2024-12-15T15:29:08.582Z,61938,0.006711162,0.061403472,0.0327532
1734276548588,2024-12-15T15:29:08.588Z,61944,0.015118664,0.055165127,0.02890649
1734276548590,2024-12-15T15:29:08.590Z,61946,0.015118664,0.055165127,0.02890649
1734276548599,2024-12-15T15:29:08.599Z,61955,0.0143798,0.040582735,0.031605277
1734276548602,2024-12-15T15:29:08.602Z,61958,0.0143798,0.040582735,0.031605277
1734276548612,2024-12-15T15:29:08.612Z,61968,0.015182362,0.023039637,0.033989847
1734276548614,2024-12-15T15:29:08.614Z,61970,0.015182362,0.023039637,0.033989847
1734276548621,2024-12-15T15:29:08.621Z,61977,0.0072045727,0.010369913,0.02618125
1734276548623,2024-12-15T15:29:08.623Z,61979,0.0072045727,0.010369913,0.02618125
1734276548631,2024-12-15T15:29:08.631Z,61987,-0.0047947257,-3.2072296E-4,0.021723777
1734276548633,2024-12-15T15:29:08.633Z,61989,-0.0047947257,-3.2072296E-4,0.021723777
1734276548640,2024-12-15T15:29:08.640Z,61996,-0.0062257014,-0.0046192664,0.028354824
1734276548642,2024-12-15T15:29:08.642Z,61998,-0.0062257014,-0.0046192664,0.028354824
1734276548649,2024-12-15T15:29:08.649Z,62005,-0.01078127,-5.6296703E-4,0.020148192
1734276548651,2024-12-15T15:29:08.651Z,62007,-0.01078127,-5.6296703E-4,0.020148192
1734276548658,2024-12-15T15:29:08.658Z,62014,-0.0053183557,0.006978982,0.021462172
1734276548661,2024-12-15T15:29:08.661Z,62017,-0.0053183557,0.006978982,0.021462172
1734276548669,2024-12-15T15:29:08.669Z,62025,-0.010867894,0.020458195,0.02935067
1734276548671,2024-12-15T15:29:08.671Z,62027,-0.010867894,0.020458195,0.02935067
1734276548678,2024-12-15T15:29:08.678Z,62034,-0.0028534424,0.033007916,0.029051926
1734276548680,2024-12-15T15:29:08.680Z,62036,-0.0028534424,0.033007916,0.029051926
1734276548688,2024-12-15T15:29:08.688Z,62044,-2.9927984E-5,0.04806235,0.03281817
1734276548691,2024-12-15T15:29:08.691Z,62047,-2.9927984E-5,0.04806235,0.03281817
1734276548699,2024-12-15T15:29:08.699Z,62055,-0.011102723,0.051456682,0.0379543
1734276548701,2024-12-15T15:29:08.701Z,62057,-0.011102723,0.051456682,0.0379543
1734276548709,2024-12-15T15:29:08.709Z,62065,-0.01359613,0.057351258,0.03414735
1734276548712,2024-12-15T15:29:08.712Z,62068,-0.01359613,0.057351258,0.03414735
1734276548719,2024-12-15T15:29:08.719Z,62075,-0.006936266,0.06425886,0.04144588
1734276548721,2024-12-15T15:29:08.721Z,62077,-0.006936266,0.06425886,0.04144588
1734276548728,2024-12-15T15:29:08.728Z,62084,-0.020030621,0.065362915,0.038917273
1734276548730,2024-12-15T15:29:08.730Z,62086,-0.020030621,0.065362915,0.038917273
1734276548737,2024-12-15T15:29:08.737Z,62093,-0.025929645,0.06649847,0.04027
1734276548740,2024-12-15T15:29:08.740Z,62096,-0.025929645,0.06649847,0.04027
1734276548747,2024-12-15T15:29:08.747Z,62103,-0.024607927,0.06081775,0.03241518
1734276548749,2024-12-15T15:29:08.749Z,62105,-0.024607927,0.06081775,0.03241518
1734276548756,2024-12-15T15:29:08.756Z,62112,-0.023735153,0.049182158,0.03331077
1734276548758,2024-12-15T15:29:08.758Z,62114,-0.023735153,0.049182158,0.03331077
1734276548768,2024-12-15T15:29:08.768Z,62124,-0.025548458,0.033202022,0.026990235
1734276548775,2024-12-15T15:29:08.775Z,62131,-0.025548458,0.033202022,0.026990235
1734276548785,2024-12-15T15:29:08.785Z,62141,-0.034442756,0.019808777,0.010901332
1734276548787,2024-12-15T15:29:08.787Z,62143,-0.034442756,0.019808777,0.010901332
1734276548795,2024-12-15T15:29:08.795Z,62151,-0.045889616,0.004976068,0.0060181017
1734276548797,2024-12-15T15:29:08.797Z,62153,-0.045889616,0.004976068,0.0060181017
1734276548804,2024-12-15T15:29:08.804Z,62160,-0.052060932,-0.0073908265,-0.006268919
1734276548806,2024-12-15T15:29:08.806Z,62162,-0.052060932,-0.0073908265,-0.006268919
1734276548813,2024-12-15T15:29:08.813Z,62169,-0.068491325,-0.019267496,-0.029843118
1734276548815,2024-12-15T15:29:08.815Z,62171,-0.068491325,-0.019267496,-0.029843118
1734276548823,2024-12-15T15:29:08.823Z,62179,-0.07756777,-0.034574967,-0.033322066
1734276548825,2024-12-15T15:29:08.825Z,62181,-0.07756777,-0.034574967,-0.033322066
1734276548833,2024-12-15T15:29:08.833Z,62189,-0.079237945,-0.046491798,-0.04350626
1734276548835,2024-12-15T15:29:08.835Z,62191,-0.079237945,-0.046491798,-0.04350626
1734276548842,2024-12-15T15:29:08.842Z,62198,-0.07841326,-0.06233841,-0.04812556
1734276548844,2024-12-15T15:29:08.844Z,62200,-0.07841326,-0.06233841,-0.04812556
1734276548852,2024-12-15T15:29:08.852Z,62208,-0.087775886,-0.06844508,-0.03790426
1734276548854,2024-12-15T15:29:08.854Z,62210,-0.087775886,-0.06844508,-0.03790426
1734276548863,2024-12-15T15:29:08.863Z,62219,-0.09261967,-0.066774465,-0.034404725
1734276548865,2024-12-15T15:29:08.865Z,62221,-0.09261967,-0.066774465,-0.034404725
1734276548874,2024-12-15T15:29:08.874Z,62230,-0.08417862,-0.06513564,-0.034150004
1734276548876,2024-12-15T15:29:08.876Z,62232,-0.08417862,-0.06513564,-0.034150004
1734276548884,2024-12-15T15:29:08.884Z,62240,-0.0863443,-0.05816415,-0.02496281
1734276548886,2024-12-15T15:29:08.886Z,62242,-0.0863443,-0.05816415,-0.02496281
1734276548892,2024-12-15T15:29:08.892Z,62248,-0.09415351,-0.046364013,-0.023477014
1734276548895,2024-12-15T15:29:08.895Z,62251,-0.09415351,-0.046364013,-0.023477014
1734276548903,2024-12-15T15:29:08.903Z,62259,-0.08467142,-0.025685456,-0.023884773
1734276548905,2024-12-15T15:29:08.905Z,62261,-0.08467142,-0.025685456,-0.023884773
1734276548912,2024-12-15T15:29:08.912Z,62268,-0.06338993,-0.0032216222,-0.017225001
1734276548914,2024-12-15T15:29:08.914Z,62270,-0.06338993,-0.0032216222,-0.017225001
1734276548922,2024-12-15T15:29:08.922Z,62278,-0.05764176,0.020673698,-0.014252066
1734276548924,2024-12-15T15:29:08.924Z,62280,-0.05764176,0.020673698,-0.014252066
1734276548932,2024-12-15T15:29:08.932Z,62288,-0.052209966,0.046958975,-0.017894892
1734276548935,2024-12-15T15:29:08.935Z,62291,-0.052209966,0.046958975,-0.017894892
1734276548942,2024-12-15T15:29:08.942Z,62298,-0.037491668,0.07322646,-0.015428064
1734276548944,2024-12-15T15:29:08.944Z,62300,-0.037491668,0.07322646,-0.015428064
1734276548952,2024-12-15T15:29:08.952Z,62308,-0.029590972,0.106310524,-0.011767119
1734276548954,2024-12-15T15:29:08.954Z,62310,-0.029590972,0.106310524,-0.011767119
1734276548961,2024-12-15T15:29:08.961Z,62317,-0.0085057225,0.14035363,-0.0010353599
1734276548963,2024-12-15T15:29:08.963Z,62319,-0.0085057225,0.14035363,-0.0010353599
1734276548971,2024-12-15T15:29:08.971Z,62327,-1.14557806E-4,0.17291416,0.003562597
1734276548973,2024-12-15T15:29:08.973Z,62329,-1.14557806E-4,0.17291416,0.003562597
1734276548980,2024-12-15T15:29:08.980Z,62336,0.016576031,0.20887832,0.014658868
1734276548982,2024-12-15T15:29:08.982Z,62338,0.016576031,0.20887832,0.014658868
1734276548989,2024-12-15T15:29:08.989Z,62345,0.010322115,0.24531174,0.021542283
1734276548991,2024-12-15T15:29:08.991Z,62347,0.010322115,0.24531174,0.021542283
1734276548999,2024-12-15T15:29:08.999Z,62355,0.028980767,0.28270373,0.025629876
1734276549001,2024-12-15T15:29:09.001Z,62357,0.028980767,0.28270373,0.025629876
1734276549008,2024-12-15T15:29:09.008Z,62364,0.023741096,0.3171404,0.027441822
1734276549010,2024-12-15T15:29:09.010Z,62366,0.023741096,0.3171404,0.027441822
1734276549017,2024-12-15T15:29:09.017Z,62373,0.051861804,0.35103527,0.047454707
1734276549019,2024-12-15T15:29:09.019Z,62375,0.051861804,0.35103527,0.047454707
1734276549027,2024-12-15T15:29:09.027Z,62383,0.07067707,0.38687265,0.065127105
1734276549030,2024-12-15T15:29:09.030Z,62386,0.07067707,0.38687265,0.065127105
1734276549037,2024-12-15T15:29:09.037Z,62393,0.08020708,0.42220208,0.0643833
1734276549039,2024-12-15T15:29:09.039Z,62395,0.08020708,0.42220208,0.0643833
1734276549047,2024-12-15T15:29:09.047Z,62403,0.074600555,0.44627675,0.06136259
1734276549049,2024-12-15T15:29:09.049Z,62405,0.074600555,0.44627675,0.06136259
1734276549057,2024-12-15T15:29:09.057Z,62413,0.09768641,0.47034675,0.048785035
1734276549060,2024-12-15T15:29:09.060Z,62416,0.09768641,0.47034675,0.048785035
1734276549068,2024-12-15T15:29:09.068Z,62424,0.123906836,0.48858842,0.05253398
1734276549070,2024-12-15T15:29:09.070Z,62426,0.123906836,0.48858842,0.05253398
1734276549076,2024-12-15T15:29:09.076Z,62432,0.13209215,0.5020236,0.06030833
1734276549078,2024-12-15T15:29:09.078Z,62434,0.13209215,0.5020236,0.06030833
1734276549086,2024-12-15T15:29:09.086Z,62442,0.14182587,0.5057646,0.06518245
1734276549088,2024-12-15T15:29:09.088Z,62444,0.14182587,0.5057646,0.06518245
1734276549097,2024-12-15T15:29:09.097Z,62453,0.116626315,0.4958786,0.06368804
1734276549100,2024-12-15T15:29:09.100Z,62456,0.116626315,0.4958786,0.06368804
1734276549109,2024-12-15T15:29:09.109Z,62465,0.113335796,0.4899037,0.053330574
1734276549112,2024-12-15T15:29:09.112Z,62468,0.113335796,0.4899037,0.053330574
1734276549121,2024-12-15T15:29:09.121Z,62477,0.12996635,0.48199862,0.0608817
1734276549124,2024-12-15T15:29:09.124Z,62480,0.12996635,0.48199862,0.0608817
1734276549131,2024-12-15T15:29:09.131Z,62487,0.10996103,0.46386236,0.060805716
1734276549133,2024-12-15T15:29:09.133Z,62489,0.10996103,0.46386236,0.060805716
1734276549140,2024-12-15T15:29:09.140Z,62496,0.09057485,0.4384168,0.053423677
1734276549142,2024-12-15T15:29:09.142Z,62498,0.09057485,0.4384168,0.053423677
1734276549150,2024-12-15T15:29:09.150Z,62506,0.07680785,0.40808132,0.04460571
1734276549152,2024-12-15T15:29:09.152Z,62508,0.07680785,0.40808132,0.04460571
1734276549159,2024-12-15T15:29:09.159Z,62515,0.041759033,0.37726012,0.031945255
1734276549162,2024-12-15T15:29:09.162Z,62518,0.041759033,0.37726012,0.031945255
1734276549170,2024-12-15T15:29:09.170Z,62526,0.031806506,0.34352404,0.013919709
1734276549172,2024-12-15T15:29:09.172Z,62528,0.031806506,0.34352404,0.013919709
1734276549181,2024-12-15T15:29:09.181Z,62537,0.04624097,0.3083704,0.010683707
1734276549183,2024-12-15T15:29:09.183Z,62539,0.04624097,0.3083704,0.010683707
1734276549189,2024-12-15T15:29:09.189Z,62545,0.053065963,0.2747869,0.013434942
1734276549191,2024-12-15T15:29:09.191Z,62547,0.053065963,0.2747869,0.013434942
1734276549199,2024-12-15T15:29:09.199Z,62555,0.013214348,0.23790729,7.485643E-5
1734276549201,2024-12-15T15:29:09.201Z,62557,0.013214348,0.23790729,7.485643E-5
1734276549209,2024-12-15T15:29:09.209Z,62565,0.045902636,0.22701915,0.006196916
1734276549211,2024-12-15T15:29:09.211Z,62567,0.045902636,0.22701915,0.006196916
1734276549221,2024-12-15T15:29:09.221Z,62577,0.022823893,0.21280275,0.016159447
1734276549224,2024-12-15T15:29:09.224Z,62580,0.022823893,0.21280275,0.016159447
1734276549238,2024-12-15T15:29:09.238Z,62594,-0.01901837,0.19712146,0.007085262
1734276549242,2024-12-15T15:29:09.242Z,62598,-0.01901837,0.19712146,0.007085262
1734276549250,2024-12-15T15:29:09.250Z,62606,-0.029406007,0.18915142,-0.0018564345
1734276549252,2024-12-15T15:29:09.252Z,62608,-0.029406007,0.18915142,-0.0018564345
1734276549258,2024-12-15T15:29:09.258Z,62614,-0.0048864787,0.17810583,0.004776917
1734276549260,2024-12-15T15:29:09.260Z,62616,-0.0048864787,0.17810583,0.004776917
1734276549267,2024-12-15T15:29:09.267Z,62623,0.0074989777,0.15422924,0.018386181
1734276549270,2024-12-15T15:29:09.270Z,62626,0.0074989777,0.15422924,0.018386181
1734276549276,2024-12-15T15:29:09.276Z,62632,0.026543144,0.12976803,0.024916347
1734276549279,2024-12-15T15:29:09.279Z,62635,0.026543144,0.12976803,0.024916347
1734276549287,2024-12-15T15:29:09.287Z,62643,0.08168712,0.10966119,0.021565434
1734276549289,2024-12-15T15:29:09.289Z,62645,0.08168712,0.10966119,0.021565434
1734276549296,2024-12-15T15:29:09.296Z,62652,0.07969442,0.09009155,0.02647388
1734276549298,2024-12-15T15:29:09.298Z,62654,0.07969442,0.09009155,0.02647388
1734276549306,2024-12-15T15:29:09.306Z,62662,0.049813062,0.073024474,0.010336544
1734276549308,2024-12-15T15:29:09.308Z,62664,0.049813062,0.073024474,0.010336544
1734276549316,2024-12-15T15:29:09.316Z,62672,0.05772159,0.059393458,0.017516192
1734276549318,2024-12-15T15:29:09.318Z,62674,0.05772159,0.059393458,0.017516192
1734276549324,2024-12-15T15:29:09.324Z,62680,0.029359572,0.043806788,0.028372137
1734276549326,2024-12-15T15:29:09.326Z,62682,0.029359572,0.043806788,0.028372137
1734276549333,2024-12-15T15:29:09.333Z,62689,0.027645774,0.03008572,0.026772624
1734276549335,2024-12-15T15:29:09.335Z,62691,0.027645774,0.03008572,0.026772624
1734276549342,2024-12-15T15:29:09.342Z,62698,0.004383793,0.0069602137,0.058200564
1734276549344,2024-12-15T15:29:09.344Z,62700,0.004383793,0.0069602137,0.058200564
1734276549361,2024-12-15T15:29:09.361Z,62717,-0.002636957,-0.009491669,0.054252982
1734276549366,2024-12-15T15:29:09.366Z,62722,-0.002636957,-0.009491669,0.054252982
1734276549382,2024-12-15T15:29:09.382Z,62738,0.049339917,-0.030471794,0.0594627
1734276549388,2024-12-15T15:29:09.388Z,62744,0.049339917,-0.030471794,0.0594627
1734276549403,2024-12-15T15:29:09.403Z,62759,0.008578427,-0.055895556,0.08302763
1734276549406,2024-12-15T15:29:09.406Z,62762,0.008578427,-0.055895556,0.08302763
1734276549414,2024-12-15T15:29:09.414Z,62770,0.013330413,-0.08185029,0.078385584
1734276549417,2024-12-15T15:29:09.417Z,62773,0.013330413,-0.08185029,0.078385584
1734276549426,2024-12-15T15:29:09.426Z,62782,0.031130962,-0.100473225,0.10412475
1734276549429,2024-12-15T15:29:09.429Z,62785,0.031130962,-0.100473225,0.10412475
1734276549439,2024-12-15T15:29:09.439Z,62795,0.024799358,-0.1146431,0.11407861
1734276549441,2024-12-15T15:29:09.441Z,62797,0.024799358,-0.1146431,0.11407861
1734276549450,2024-12-15T15:29:09.450Z,62806,0.026606342,-0.121405214,0.10019533
1734276549452,2024-12-15T15:29:09.452Z,62808,0.026606342,-0.121405214,0.10019533
1734276549460,2024-12-15T15:29:09.460Z,62816,5.3590786E-4,-0.122726716,0.098544255
1734276549463,2024-12-15T15:29:09.463Z,62819,5.3590786E-4,-0.122726716,0.098544255
1734276549470,2024-12-15T15:29:09.470Z,62826,0.01072009,-0.12693375,0.08953017
1734276549472,2024-12-15T15:29:09.472Z,62828,0.01072009,-0.12693375,0.08953017
1734276549480,2024-12-15T15:29:09.480Z,62836,-0.0038538782,-0.12572691,0.08387699
1734276549482,2024-12-15T15:29:09.482Z,62838,-0.0038538782,-0.12572691,0.08387699
1734276549490,2024-12-15T15:29:09.490Z,62846,0.0022727035,-0.12449312,0.07234111
1734276549493,2024-12-15T15:29:09.493Z,62849,0.0022727035,-0.12449312,0.07234111
1734276549501,2024-12-15T15:29:09.501Z,62857,0.024098651,-0.12762149,0.074601255
1734276549504,2024-12-15T15:29:09.504Z,62860,0.024098651,-0.12762149,0.074601255
1734276549512,2024-12-15T15:29:09.512Z,62868,0.027790697,-0.13214953,0.080381244
1734276549515,2024-12-15T15:29:09.515Z,62871,0.027790697,-0.13214953,0.080381244
1734276549523,2024-12-15T15:29:09.523Z,62879,0.033958487,-0.13106337,0.082088895
1734276549525,2024-12-15T15:29:09.525Z,62881,0.033958487,-0.13106337,0.082088895
1734276549532,2024-12-15T15:29:09.532Z,62888,0.03552758,-0.12892996,0.073205136
1734276549534,2024-12-15T15:29:09.534Z,62890,0.03552758,-0.12892996,0.073205136
1734276549540,2024-12-15T15:29:09.540Z,62896,0.022003962,-0.12826623,0.06801098
1734276549541,2024-12-15T15:29:09.541Z,62897,0.022003962,-0.12826623,0.06801098
1734276549548,2024-12-15T15:29:09.548Z,62904,0.026590345,-0.12568441,0.061369203
1734276549551,2024-12-15T15:29:09.551Z,62907,0.026590345,-0.12568441,0.061369203
1734276549557,2024-12-15T15:29:09.557Z,62913,0.01964072,-0.1290411,0.05974739
1734276549560,2024-12-15T15:29:09.560Z,62916,0.01964072,-0.1290411,0.05974739
1734276549569,2024-12-15T15:29:09.569Z,62925,0.018179428,-0.13003789,0.051118348
1734276549571,2024-12-15T15:29:09.571Z,62927,0.018179428,-0.13003789,0.051118348
1734276549577,2024-12-15T15:29:09.577Z,62933,0.019191023,-0.13160932,0.036719855
1734276549580,2024-12-15T15:29:09.580Z,62936,0.019191023,-0.13160932,0.036719855
1734276549587,2024-12-15T15:29:09.587Z,62943,0.021568825,-0.12688337,0.030224117
1734276549589,2024-12-15T15:29:09.589Z,62945,0.021568825,-0.12688337,0.030224117
1734276549596,2024-12-15T15:29:09.596Z,62952,0.010294862,-0.12758619,0.03148934
1734276549599,2024-12-15T15:29:09.599Z,62955,0.010294862,-0.12758619,0.03148934
1734276549608,2024-12-15T15:29:09.608Z,62964,0.017462395,-0.124870926,0.031961646
1734276549610,2024-12-15T15:29:09.610Z,62966,0.017462395,-0.124870926,0.031961646
1734276549617,2024-12-15T15:29:09.617Z,62973,-0.0011851093,-0.12169657,0.033508774
1734276549619,2024-12-15T15:29:09.619Z,62975,-0.0011851093,-0.12169657,0.033508774
1734276549625,2024-12-15T15:29:09.625Z,62981,0.009951991,-0.116109006,0.013326675
1734276549627,2024-12-15T15:29:09.627Z,62983,0.009951991,-0.116109006,0.013326675
1734276549634,2024-12-15T15:29:09.634Z,62990,0.011181372,-0.11688271,-0.005431175
1734276549637,2024-12-15T15:29:09.637Z,62993,0.011181372,-0.11688271,-0.005431175
1734276549643,2024-12-15T15:29:09.643Z,62999,0.0024630416,-0.12741385,0.0069003697
1734276549646,2024-12-15T15:29:09.646Z,63002,0.0024630416,-0.12741385,0.0069003697
1734276549658,2024-12-15T15:29:09.658Z,63014,0.008722901,-0.13061787,-9.352556E-4
1734276549662,2024-12-15T15:29:09.662Z,63018,0.008722901,-0.13061787,-9.352556E-4
1734276549676,2024-12-15T15:29:09.676Z,63032,0.016043235,-0.13911907,0.0021183772
1734276549679,2024-12-15T15:29:09.679Z,63035,0.016043235,-0.13911907,0.0021183772
1734276549687,2024-12-15T15:29:09.687Z,63043,0.0054901442,-0.14119804,0.017720163
1734276549689,2024-12-15T15:29:09.689Z,63045,0.0054901442,-0.14119804,0.017720163
1734276549698,2024-12-15T15:29:09.698Z,63054,-0.0046113892,-0.14179319,0.015583545
1734276549700,2024-12-15T15:29:09.700Z,63056,-0.0046113892,-0.14179319,0.015583545
1734276549708,2024-12-15T15:29:09.708Z,63064,-0.017020732,-0.1419094,0.031236444
1734276549710,2024-12-15T15:29:09.710Z,63066,-0.017020732,-0.1419094,0.031236444
1734276549717,2024-12-15T15:29:09.717Z,63073,-0.018776588,-0.14017111,0.03236827
1734276549720,2024-12-15T15:29:09.720Z,63076,-0.018776588,-0.14017111,0.03236827
1734276549727,2024-12-15T15:29:09.727Z,63083,0.004993099,-0.14285417,0.036864813
1734276549729,2024-12-15T15:29:09.729Z,63085,0.004993099,-0.14285417,0.036864813
1734276549737,2024-12-15T15:29:09.737Z,63093,0.0043784445,-0.14749697,0.049143914
1734276549739,2024-12-15T15:29:09.739Z,63095,0.0043784445,-0.14749697,0.049143914
1734276549746,2024-12-15T15:29:09.746Z,63102,0.0018958442,-0.16338618,0.055021554
1734276549748,2024-12-15T15:29:09.748Z,63104,0.0018958442,-0.16338618,0.055021554
1734276549756,2024-12-15T15:29:09.756Z,63112,0.012722323,-0.17391762,0.06459764
1734276549758,2024-12-15T15:29:09.758Z,63114,0.012722323,-0.17391762,0.06459764
1734276549764,2024-12-15T15:29:09.764Z,63120,0.025501389,-0.17026742,0.063100904
1734276549766,2024-12-15T15:29:09.766Z,63122,0.025501389,-0.17026742,0.063100904
1734276549774,2024-12-15T15:29:09.774Z,63130,-0.0055364096,-0.16564582,0.061725646
1734276549777,2024-12-15T15:29:09.777Z,63133,-0.0055364096,-0.16564582,0.061725646
1734276549785,2024-12-15T15:29:09.785Z,63141,0.0046948646,-0.15521134,0.04551822
1734276549787,2024-12-15T15:29:09.787Z,63143,0.0046948646,-0.15521134,0.04551822
1734276549795,2024-12-15T15:29:09.795Z,63151,0.0112081515,-0.13995074,0.049007177
1734276549797,2024-12-15T15:29:09.797Z,63153,0.0112081515,-0.13995074,0.049007177
1734276549805,2024-12-15T15:29:09.805Z,63161,0.022241622,-0.13861358,0.05830056
1734276549806,2024-12-15T15:29:09.806Z,63162,0.022241622,-0.13861358,0.05830056
1734276549813,2024-12-15T15:29:09.813Z,63169,0.017760545,-0.13341327,0.06040388
1734276549816,2024-12-15T15:29:09.816Z,63172,0.017760545,-0.13341327,0.06040388
1734276549822,2024-12-15T15:29:09.822Z,63178,0.030786207,-0.12823327,0.050724294
1734276549824,2024-12-15T15:29:09.824Z,63180,0.030786207,-0.12823327,0.050724294
1734276549831,2024-12-15T15:29:09.831Z,63187,0.034652703,-0.12983678,0.057445433
1734276549833,2024-12-15T15:29:09.833Z,63189,0.034652703,-0.12983678,0.057445433
1734276549839,2024-12-15T15:29:09.839Z,63195,0.033853937,-0.13335307,0.0633322
1734276549841,2024-12-15T15:29:09.841Z,63197,0.033853937,-0.13335307,0.0633322
1734276549848,2024-12-15T15:29:09.848Z,63204,0.02509639,-0.13783483,0.05821404
1734276549850,2024-12-15T15:29:09.850Z,63206,0.02509639,-0.13783483,0.05821404
1734276549857,2024-12-15T15:29:09.857Z,63213,0.016710937,-0.14425969,0.06152919
1734276549858,2024-12-15T15:29:09.858Z,63214,0.016710937,-0.14425969,0.06152919
1734276549867,2024-12-15T15:29:09.867Z,63223,0.0010520258,-0.15118995,0.06631008
1734276549869,2024-12-15T15:29:09.869Z,63225,0.0010520258,-0.15118995,0.06631008
1734276549876,2024-12-15T15:29:09.876Z,63232,-0.009059402,-0.15523148,0.06814405
1734276549879,2024-12-15T15:29:09.879Z,63235,-0.009059402,-0.15523148,0.06814405
1734276549886,2024-12-15T15:29:09.886Z,63242,-0.013747666,-0.15846467,0.0640142
1734276549888,2024-12-15T15:29:09.888Z,63244,-0.013747666,-0.15846467,0.0640142
1734276549894,2024-12-15T15:29:09.894Z,63250,-0.025359506,-0.16802411,0.07732832
1734276549896,2024-12-15T15:29:09.896Z,63252,-0.025359506,-0.16802411,0.07732832
1734276549903,2024-12-15T15:29:09.903Z,63259,-0.028750716,-0.17414129,0.08599043
1734276549906,2024-12-15T15:29:09.906Z,63262,-0.028750716,-0.17414129,0.08599043
1734276549913,2024-12-15T15:29:09.913Z,63269,-0.0405795,-0.17533948,0.07334509
1734276549916,2024-12-15T15:29:09.916Z,63272,-0.0405795,-0.17533948,0.07334509
1734276549924,2024-12-15T15:29:09.924Z,63280,-0.04863278,-0.18871075,0.063303106
1734276549927,2024-12-15T15:29:09.927Z,63283,-0.04863278,-0.18871075,0.063303106
1734276549935,2024-12-15T15:29:09.935Z,63291,-0.056783803,-0.2001039,0.05928981
1734276549937,2024-12-15T15:29:09.937Z,63293,-0.056783803,-0.2001039,0.05928981
1734276549944,2024-12-15T15:29:09.944Z,63300,-0.065848276,-0.21492387,0.05693206
1734276549946,2024-12-15T15:29:09.946Z,63302,-0.065848276,-0.21492387,0.05693206
1734276549953,2024-12-15T15:29:09.953Z,63309,-0.08207286,-0.22440581,0.04853457
1734276549955,2024-12-15T15:29:09.955Z,63311,-0.08207286,-0.22440581,0.04853457
1734276549963,2024-12-15T15:29:09.963Z,63319,-0.072667174,-0.22564067,0.041622132
1734276549966,2024-12-15T15:29:09.966Z,63322,-0.072667174,-0.22564067,0.041622132
1734276549973,2024-12-15T15:29:09.973Z,63329,-0.06451928,-0.23424982,0.04758
1734276549975,2024-12-15T15:29:09.975Z,63331,-0.06451928,-0.23424982,0.04758
1734276549982,2024-12-15T15:29:09.982Z,63338,-0.08248318,-0.2414511,0.055140134
1734276549985,2024-12-15T15:29:09.985Z,63341,-0.08248318,-0.2414511,0.055140134
1734276549991,2024-12-15T15:29:09.991Z,63347,-0.09367858,-0.24581061,0.062426683
1734276549993,2024-12-15T15:29:09.993Z,63349,-0.09367858,-0.24581061,0.062426683
1734276550000,2024-12-15T15:29:10Z,63356,-0.06698152,-0.24974924,0.058428615
1734276550002,2024-12-15T15:29:10.002Z,63358,-0.06698152,-0.24974924,0.058428615
1734276550008,2024-12-15T15:29:10.008Z,63364,-0.060713306,-0.25615796,0.0580236
1734276550009,2024-12-15T15:29:10.009Z,63365,-0.060713306,-0.25615796,0.0580236
1734276550016,2024-12-15T15:29:10.016Z,63372,-0.064144544,-0.26942897,0.054490477
1734276550019,2024-12-15T15:29:10.019Z,63375,-0.064144544,-0.26942897,0.054490477
1734276550026,2024-12-15T15:29:10.026Z,63382,-0.055293057,-0.2910313,0.055271357
1734276550029,2024-12-15T15:29:10.029Z,63385,-0.055293057,-0.2910313,0.055271357
1734276550037,2024-12-15T15:29:10.037Z,63393,-0.049421046,-0.3062911,0.06215241
1734276550039,2024-12-15T15:29:10.039Z,63395,-0.049421046,-0.3062911,0.06215241
1734276550045,2024-12-15T15:29:10.045Z,63401,-0.060710788,-0.32203755,0.063610375
1734276550047,2024-12-15T15:29:10.047Z,63403,-0.060710788,-0.32203755,0.063610375
1734276550053,2024-12-15T15:29:10.053Z,63409,-0.051962797,-0.32461384,0.05407932
1734276550055,2024-12-15T15:29:10.055Z,63411,-0.051962797,-0.32461384,0.05407932
1734276550061,2024-12-15T15:29:10.061Z,63417,-0.06421534,-0.33110726,0.053609554
1734276550064,2024-12-15T15:29:10.064Z,63420,-0.06421534,-0.33110726,0.053609554
1734276550072,2024-12-15T15:29:10.072Z,63428,-0.07589063,-0.33518982,0.051903486
1734276550075,2024-12-15T15:29:10.075Z,63431,-0.07589063,-0.33518982,0.051903486
1734276550084,2024-12-15T15:29:10.084Z,63440,-0.072339915,-0.3412537,0.046895325
1734276550087,2024-12-15T15:29:10.087Z,63443,-0.072339915,-0.3412537,0.046895325
1734276550102,2024-12-15T15:29:10.102Z,63458,-0.07468518,-0.34097558,0.04688418
1734276550106,2024-12-15T15:29:10.106Z,63462,-0.07468518,-0.34097558,0.04688418
1734276550123,2024-12-15T15:29:10.123Z,63479,-0.061990894,-0.3387379,0.042570084
1734276550127,2024-12-15T15:29:10.127Z,63483,-0.061990894,-0.3387379,0.042570084
1734276550141,2024-12-15T15:29:10.141Z,63497,-0.060173653,-0.33794487,0.04989022
1734276550148,2024-12-15T15:29:10.148Z,63504,-0.060173653,-0.33794487,0.04989022
1734276550164,2024-12-15T15:29:10.164Z,63520,-0.059886005,-0.33078393,0.054386135
1734276550168,2024-12-15T15:29:10.168Z,63524,-0.059886005,-0.33078393,0.054386135
1734276550176,2024-12-15T15:29:10.176Z,63532,-0.060563724,-0.31921193,0.051987436
1734276550179,2024-12-15T15:29:10.179Z,63535,-0.060563724,-0.31921193,0.051987436
1734276550189,2024-12-15T15:29:10.189Z,63545,-0.04365552,-0.30761865,0.056335837
1734276550191,2024-12-15T15:29:10.191Z,63547,-0.04365552,-0.30761865,0.056335837
1734276550200,2024-12-15T15:29:10.200Z,63556,-0.04047331,-0.29501748,0.052887496
1734276550203,2024-12-15T15:29:10.203Z,63559,-0.04047331,-0.29501748,0.052887496
1734276550211,2024-12-15T15:29:10.211Z,63567,-0.065107256,-0.27703774,0.04041025
1734276550213,2024-12-15T15:29:10.213Z,63569,-0.065107256,-0.27703774,0.04041025
1734276550221,2024-12-15T15:29:10.221Z,63577,-0.046141706,-0.25762302,0.028939871
1734276550223,2024-12-15T15:29:10.223Z,63579,-0.046141706,-0.25762302,0.028939871
1734276550229,2024-12-15T15:29:10.229Z,63585,-0.029184002,-0.24797301,0.018618735
1734276550232,2024-12-15T15:29:10.232Z,63588,-0.029184002,-0.24797301,0.018618735
1734276550240,2024-12-15T15:29:10.240Z,63596,-0.03096873,-0.25391594,0.012780218
1734276550243,2024-12-15T15:29:10.243Z,63599,-0.03096873,-0.25391594,0.012780218
1734276550251,2024-12-15T15:29:10.251Z,63607,-0.02470076,-0.26030102,-0.003775983
1734276550253,2024-12-15T15:29:10.253Z,63609,-0.02470076,-0.26030102,-0.003775983
1734276550259,2024-12-15T15:29:10.259Z,63615,-0.024789743,-0.2603332,-0.005281718
1734276550261,2024-12-15T15:29:10.261Z,63617,-0.024789743,-0.2603332,-0.005281718
1734276550268,2024-12-15T15:29:10.268Z,63624,-0.027324334,-0.2632841,0.0018029483
1734276550270,2024-12-15T15:29:10.270Z,63626,-0.027324334,-0.2632841,0.0018029483
1734276550276,2024-12-15T15:29:10.276Z,63632,-0.03278962,-0.25888976,0.007514331
1734276550278,2024-12-15T15:29:10.278Z,63634,-0.03278962,-0.25888976,0.007514331
1734276550284,2024-12-15T15:29:10.284Z,63640,-0.045081392,-0.2530127,0.014820065
1734276550287,2024-12-15T15:29:10.287Z,63643,-0.045081392,-0.2530127,0.014820065
1734276550294,2024-12-15T15:29:10.294Z,63650,-0.027961768,-0.25055233,0.018270375
1734276550296,2024-12-15T15:29:10.296Z,63652,-0.027961768,-0.25055233,0.018270375
1734276550304,2024-12-15T15:29:10.304Z,63660,-0.005646348,-0.24950875,0.022925198
1734276550306,2024-12-15T15:29:10.306Z,63662,-0.005646348,-0.24950875,0.022925198
1734276550311,2024-12-15T15:29:10.311Z,63667,-0.0012236923,-0.25327167,0.030211365
1734276550314,2024-12-15T15:29:10.314Z,63670,-0.0012236923,-0.25327167,0.030211365
1734276550322,2024-12-15T15:29:10.322Z,63678,0.012258148,-0.25369138,0.032055825
1734276550325,2024-12-15T15:29:10.325Z,63681,0.012258148,-0.25369138,0.032055825
1734276550335,2024-12-15T15:29:10.335Z,63691,0.012960155,-0.24482131,0.028588234
1734276550337,2024-12-15T15:29:10.337Z,63693,0.012960155,-0.24482131,0.028588234
1734276550344,2024-12-15T15:29:10.344Z,63700,0.015235034,-0.2423236,0.042281594
1734276550346,2024-12-15T15:29:10.346Z,63702,0.015235034,-0.2423236,0.042281594
1734276550353,2024-12-15T15:29:10.353Z,63709,0.0069053415,-0.23203917,0.043252733
1734276550355,2024-12-15T15:29:10.355Z,63711,0.0069053415,-0.23203917,0.043252733
