Timestamp (ms),ISO DateTime,Elapsed Time (ms),Acceleration X,Acceleration Y,Acceleration Z
1734432634379,2024-12-17T10:50:34.379Z,23415,-0.043866087,0.0749915,-0.25616568
1734432634385,2024-12-17T10:50:34.385Z,23421,-0.043866087,0.0749915,-0.25616568
1734432634403,2024-12-17T10:50:34.403Z,23439,-0.058843814,0.0999405,-0.23217805
1734432634412,2024-12-17T10:50:34.412Z,23448,-0.058843814,0.0999405,-0.23217805
1734432634427,2024-12-17T10:50:34.427Z,23463,0.020890389,0.1039828,-0.23882498
1734432634431,2024-12-17T10:50:34.431Z,23467,0.020890389,0.1039828,-0.23882498
1734432634449,2024-12-17T10:50:34.449Z,23485,0.047526807,0.11578021,-0.25520918
1734432634452,2024-12-17T10:50:34.452Z,23488,0.047526807,0.11578021,-0.25520918
1734432634464,2024-12-17T10:50:34.464Z,23500,0.07201176,0.12717934,-0.26573133
1734432634467,2024-12-17T10:50:34.467Z,23503,0.07201176,0.12717934,-0.26573133
1734432634478,2024-12-17T10:50:34.478Z,23514,0.11396124,0.1469531,-0.28546748
1734432634482,2024-12-17T10:50:34.482Z,23518,0.11396124,0.1469531,-0.28546748
1734432634493,2024-12-17T10:50:34.493Z,23529,0.1329074,0.15860951,-0.3052895
1734432634497,2024-12-17T10:50:34.497Z,23533,0.1329074,0.15860951,-0.3052895
1734432634508,2024-12-17T10:50:34.508Z,23544,0.11121156,0.16210946,-0.29998106
1734432634513,2024-12-17T10:50:34.513Z,23549,0.11121156,0.16210946,-0.29998106
1734432634523,2024-12-17T10:50:34.523Z,23559,0.110373385,0.17786665,-0.27664238
1734432634527,2024-12-17T10:50:34.527Z,23563,0.110373385,0.17786665,-0.27664238
1734432634539,2024-12-17T10:50:34.539Z,23575,0.12691948,0.19961679,-0.27176097
1734432634543,2024-12-17T10:50:34.543Z,23579,0.12691948,0.19961679,-0.27176097
1734432634554,2024-12-17T10:50:34.554Z,23590,0.14906448,0.21665119,-0.2697163
1734432634558,2024-12-17T10:50:34.558Z,23594,0.14906448,0.21665119,-0.2697163
1734432634569,2024-12-17T10:50:34.569Z,23605,0.16754828,0.21433921,-0.26653877
1734432634572,2024-12-17T10:50:34.572Z,23608,0.16754828,0.21433921,-0.26653877
1734432634585,2024-12-17T10:50:34.585Z,23621,0.19616705,0.21259546,-0.28333095
1734432634590,2024-12-17T10:50:34.590Z,23626,0.19616705,0.21259546,-0.28333095
1734432634602,2024-12-17T10:50:34.602Z,23638,0.20703684,0.24266353,-0.2977115
1734432634605,2024-12-17T10:50:34.605Z,23641,0.20703684,0.24266353,-0.2977115
1734432634616,2024-12-17T10:50:34.616Z,23652,0.21526963,0.26803762,-0.29331738
1734432634621,2024-12-17T10:50:34.621Z,23657,0.21526963,0.26803762,-0.29331738
1734432634635,2024-12-17T10:50:34.635Z,23671,0.2204157,0.2672577,-0.2910338
1734432634639,2024-12-17T10:50:34.639Z,23675,0.2204157,0.2672577,-0.2910338
1734432634652,2024-12-17T10:50:34.652Z,23688,0.22151828,0.26077455,-0.30220616
1734432634655,2024-12-17T10:50:34.655Z,23691,0.22151828,0.26077455,-0.30220616
1734432634668,2024-12-17T10:50:34.668Z,23704,0.22822784,0.2807877,-0.299702
1734432634673,2024-12-17T10:50:34.673Z,23709,0.22822784,0.2807877,-0.299702
1734432634685,2024-12-17T10:50:34.685Z,23721,0.22836743,0.2858544,-0.2877244
1734432634689,2024-12-17T10:50:34.689Z,23725,0.22836743,0.2858544,-0.2877244
1734432634701,2024-12-17T10:50:34.701Z,23737,0.24070427,0.2885863,-0.275973
1734432634704,2024-12-17T10:50:34.704Z,23740,0.24070427,0.2885863,-0.275973
1734432634716,2024-12-17T10:50:34.716Z,23752,0.24810423,0.3021612,-0.27623343
1734432634720,2024-12-17T10:50:34.720Z,23756,0.24810423,0.3021612,-0.27623343
1734432634732,2024-12-17T10:50:34.732Z,23768,0.23445982,0.31918314,-0.27598202
1734432634735,2024-12-17T10:50:34.735Z,23771,0.23445982,0.31918314,-0.27598202
1734432634746,2024-12-17T10:50:34.746Z,23782,0.21886906,0.3215239,-0.26651573
1734432634749,2024-12-17T10:50:34.749Z,23785,0.21886906,0.3215239,-0.26651573
1734432634763,2024-12-17T10:50:34.763Z,23799,0.2156684,0.3056693,-0.26934117
1734432634768,2024-12-17T10:50:34.768Z,23804,0.2156684,0.3056693,-0.26934117
1734432634780,2024-12-17T10:50:34.780Z,23816,0.21625412,0.29351294,-0.2893049
1734432634785,2024-12-17T10:50:34.785Z,23821,0.21625412,0.29351294,-0.2893049
1734432634798,2024-12-17T10:50:34.798Z,23834,0.22886106,0.29240024,-0.29030606
1734432634802,2024-12-17T10:50:34.802Z,23838,0.22886106,0.29240024,-0.29030606
1734432634815,2024-12-17T10:50:34.815Z,23851,0.25590342,0.29263315,-0.29320124
1734432634818,2024-12-17T10:50:34.818Z,23854,0.25590342,0.29263315,-0.29320124
1734432634830,2024-12-17T10:50:34.830Z,23866,0.26743695,0.2909249,-0.29150766
1734432634834,2024-12-17T10:50:34.834Z,23870,0.26743695,0.2909249,-0.29150766
1734432634847,2024-12-17T10:50:34.847Z,23883,0.25837946,0.30297118,-0.26967618
1734432634851,2024-12-17T10:50:34.851Z,23887,0.25837946,0.30297118,-0.26967618
1734432634863,2024-12-17T10:50:34.863Z,23899,0.23143205,0.30782938,-0.25570342
1734432634869,2024-12-17T10:50:34.869Z,23905,0.23143205,0.30782938,-0.25570342
1734432634881,2024-12-17T10:50:34.881Z,23917,0.22065434,0.26950818,-0.2762293
1734432634886,2024-12-17T10:50:34.886Z,23922,0.22065434,0.26950818,-0.2762293
1734432634899,2024-12-17T10:50:34.899Z,23935,0.23235911,0.22163348,-0.26360285
1734432634903,2024-12-17T10:50:34.903Z,23939,0.23235911,0.22163348,-0.26360285
1734432634916,2024-12-17T10:50:34.916Z,23952,0.21163097,0.20411839,-0.24661525
1734432634921,2024-12-17T10:50:34.921Z,23957,0.21163097,0.20411839,-0.24661525
1734432634935,2024-12-17T10:50:34.935Z,23971,0.18545754,0.21395664,-0.26728433
1734432634939,2024-12-17T10:50:34.939Z,23975,0.18545754,0.21395664,-0.26728433
1734432634954,2024-12-17T10:50:34.954Z,23990,0.18917231,0.21369544,-0.27095425
1734432634958,2024-12-17T10:50:34.958Z,23994,0.18917231,0.21369544,-0.27095425
1734432634973,2024-12-17T10:50:34.973Z,24009,0.19293934,0.1745664,-0.26978412
1734432634978,2024-12-17T10:50:34.978Z,24014,0.19293934,0.1745664,-0.26978412
1734432634990,2024-12-17T10:50:34.990Z,24026,0.17210779,0.12093502,-0.2757612
1734432634994,2024-12-17T10:50:34.994Z,24030,0.17210779,0.12093502,-0.2757612
1734432635005,2024-12-17T10:50:35.005Z,24041,0.15682872,0.10355802,-0.2866735
1734432635009,2024-12-17T10:50:35.009Z,24045,0.15682872,0.10355802,-0.2866735
1734432635022,2024-12-17T10:50:35.022Z,24058,0.14722511,0.08595463,-0.2645343
1734432635026,2024-12-17T10:50:35.026Z,24062,0.14722511,0.08595463,-0.2645343
1734432635040,2024-12-17T10:50:35.040Z,24076,0.13161509,0.042297892,-0.24720901
1734432635048,2024-12-17T10:50:35.048Z,24084,0.13161509,0.042297892,-0.24720901
1734432635063,2024-12-17T10:50:35.063Z,24099,0.10883967,0.0050943214,-0.23680314
1734432635068,2024-12-17T10:50:35.068Z,24104,0.10883967,0.0050943214,-0.23680314
1734432635082,2024-12-17T10:50:35.082Z,24118,0.112921685,-0.019978862,-0.2400328
1734432635086,2024-12-17T10:50:35.086Z,24122,0.112921685,-0.019978862,-0.2400328
1734432635099,2024-12-17T10:50:35.099Z,24135,0.022331504,-0.05178042,-0.25665584
1734432635102,2024-12-17T10:50:35.102Z,24138,0.022331504,-0.05178042,-0.25665584
1734432635113,2024-12-17T10:50:35.113Z,24149,0.03911935,-0.10619898,-0.26481712
1734432635117,2024-12-17T10:50:35.117Z,24153,0.03911935,-0.10619898,-0.26481712
1734432635130,2024-12-17T10:50:35.130Z,24166,0.05346108,-0.12439208,-0.21710463
1734432635133,2024-12-17T10:50:35.133Z,24169,0.05346108,-0.12439208,-0.21710463
1734432635144,2024-12-17T10:50:35.144Z,24180,-0.0029719875,-0.13627109,-0.20107089
1734432635147,2024-12-17T10:50:35.147Z,24183,-0.0029719875,-0.13627109,-0.20107089
1734432635168,2024-12-17T10:50:35.168Z,24204,-0.025875356,-0.1158654,-0.22743002
1734432635172,2024-12-17T10:50:35.172Z,24208,-0.025875356,-0.1158654,-0.22743002
1734432635186,2024-12-17T10:50:35.186Z,24222,-0.045625784,-0.11332023,-0.21836814
1734432635190,2024-12-17T10:50:35.190Z,24226,-0.045625784,-0.11332023,-0.21836814
1734432635202,2024-12-17T10:50:35.202Z,24238,-0.079862304,-0.17353903,-0.17580953
1734432635206,2024-12-17T10:50:35.206Z,24242,-0.079862304,-0.17353903,-0.17580953
1734432635219,2024-12-17T10:50:35.219Z,24255,-0.047835372,-0.2020935,-0.17788793
1734432635222,2024-12-17T10:50:35.222Z,24258,-0.047835372,-0.2020935,-0.17788793
1734432635233,2024-12-17T10:50:35.233Z,24269,-0.054338302,-0.18475433,-0.19009022
1734432635236,2024-12-17T10:50:35.236Z,24272,-0.054338302,-0.18475433,-0.19009022
1734432635247,2024-12-17T10:50:35.247Z,24283,-0.114094496,-0.18932311,-0.19565447
1734432635251,2024-12-17T10:50:35.251Z,24287,-0.114094496,-0.18932311,-0.19565447
1734432635264,2024-12-17T10:50:35.264Z,24300,-0.12701795,-0.24670675,-0.22811605
1734432635269,2024-12-17T10:50:35.269Z,24305,-0.12701795,-0.24670675,-0.22811605
1734432635280,2024-12-17T10:50:35.280Z,24316,-0.11102366,-0.2940483,-0.23302712
1734432635284,2024-12-17T10:50:35.284Z,24320,-0.11102366,-0.2940483,-0.23302712
1734432635298,2024-12-17T10:50:35.298Z,24334,-0.12323221,-0.28983465,-0.20108649
1734432635302,2024-12-17T10:50:35.302Z,24338,-0.12323221,-0.28983465,-0.20108649
1734432635315,2024-12-17T10:50:35.315Z,24351,-0.11005133,-0.27412906,-0.17250289
1734432635319,2024-12-17T10:50:35.319Z,24355,-0.11005133,-0.27412906,-0.17250289
1734432635331,2024-12-17T10:50:35.331Z,24367,-0.11072433,-0.27805534,-0.17201656
1734432635335,2024-12-17T10:50:35.335Z,24371,-0.11072433,-0.27805534,-0.17201656
1734432635347,2024-12-17T10:50:35.347Z,24383,-0.11409715,-0.29862458,-0.15511191
1734432635351,2024-12-17T10:50:35.351Z,24387,-0.11409715,-0.29862458,-0.15511191
1734432635362,2024-12-17T10:50:35.362Z,24398,-0.1324542,-0.3130362,-0.13552497
1734432635366,2024-12-17T10:50:35.366Z,24402,-0.1324542,-0.3130362,-0.13552497
1734432635377,2024-12-17T10:50:35.377Z,24413,-0.11790167,-0.30127177,-0.15330046
1734432635381,2024-12-17T10:50:35.381Z,24417,-0.11790167,-0.30127177,-0.15330046
1734432635392,2024-12-17T10:50:35.392Z,24428,0.018658165,-0.31149444,-0.23941779
1734432635396,2024-12-17T10:50:35.396Z,24432,0.018658165,-0.31149444,-0.23941779
1734432635411,2024-12-17T10:50:35.411Z,24447,0.026762936,-0.35245335,-0.20428197
1734432635416,2024-12-17T10:50:35.416Z,24452,0.026762936,-0.35245335,-0.20428197
1734432635429,2024-12-17T10:50:35.429Z,24465,-0.07626618,-0.34327936,-0.15375479
1734432635432,2024-12-17T10:50:35.432Z,24468,-0.07626618,-0.34327936,-0.15375479
1734432635443,2024-12-17T10:50:35.443Z,24479,-0.023256548,-0.2990342,-0.18079075
1734432635446,2024-12-17T10:50:35.446Z,24482,-0.023256548,-0.2990342,-0.18079075
1734432635457,2024-12-17T10:50:35.457Z,24493,0.04945253,-0.3249263,-0.17670749
1734432635460,2024-12-17T10:50:35.460Z,24496,0.04945253,-0.3249263,-0.17670749
1734432635471,2024-12-17T10:50:35.471Z,24507,0.027644753,-0.33914334,-0.15438552
1734432635476,2024-12-17T10:50:35.476Z,24512,0.027644753,-0.33914334,-0.15438552
1734432635488,2024-12-17T10:50:35.488Z,24524,0.017327962,-0.30711412,-0.13558315
1734432635492,2024-12-17T10:50:35.492Z,24528,0.017327962,-0.30711412,-0.13558315
1734432635503,2024-12-17T10:50:35.503Z,24539,0.031055328,-0.30347073,-0.10310217
1734432635506,2024-12-17T10:50:35.506Z,24542,0.031055328,-0.30347073,-0.10310217
1734432635517,2024-12-17T10:50:35.517Z,24553,0.042185914,-0.30537376,-0.102536485
1734432635520,2024-12-17T10:50:35.520Z,24556,0.042185914,-0.30537376,-0.102536485
1734432635532,2024-12-17T10:50:35.532Z,24568,0.07333629,-0.2816718,-0.1155511
1734432635536,2024-12-17T10:50:35.536Z,24572,0.07333629,-0.2816718,-0.1155511
1734432635546,2024-12-17T10:50:35.546Z,24582,0.09790955,-0.28256178,-0.12106073
1734432635549,2024-12-17T10:50:35.549Z,24585,0.09790955,-0.28256178,-0.12106073
1734432635560,2024-12-17T10:50:35.560Z,24596,0.108847156,-0.27816123,-0.11944216
1734432635563,2024-12-17T10:50:35.563Z,24599,0.108847156,-0.27816123,-0.11944216
1734432635578,2024-12-17T10:50:35.578Z,24614,0.12818213,-0.27630496,-0.13220859
1734432635581,2024-12-17T10:50:35.581Z,24617,0.12818213,-0.27630496,-0.13220859
1734432635593,2024-12-17T10:50:35.593Z,24629,0.12611549,-0.30873126,-0.13448893
1734432635596,2024-12-17T10:50:35.596Z,24632,0.12611549,-0.30873126,-0.13448893
1734432635609,2024-12-17T10:50:35.609Z,24645,0.09507371,-0.29107302,-0.10593873
1734432635612,2024-12-17T10:50:35.612Z,24648,0.09507371,-0.29107302,-0.10593873
1734432635627,2024-12-17T10:50:35.627Z,24663,0.09526271,-0.24727643,-0.08993923
1734432635631,2024-12-17T10:50:35.631Z,24667,0.09526271,-0.24727643,-0.08993923
1734432635641,2024-12-17T10:50:35.641Z,24677,0.11317242,-0.2314267,-0.09227371
1734432635644,2024-12-17T10:50:35.644Z,24680,0.11317242,-0.2314267,-0.09227371
1734432635655,2024-12-17T10:50:35.655Z,24691,0.11153129,-0.22640513,-0.110588804
1734432635659,2024-12-17T10:50:35.659Z,24695,0.11153129,-0.22640513,-0.110588804
1734432635674,2024-12-17T10:50:35.674Z,24710,0.09417848,-0.23955117,-0.15627785
1734432635681,2024-12-17T10:50:35.681Z,24717,0.09417848,-0.23955117,-0.15627785
1734432635693,2024-12-17T10:50:35.693Z,24729,0.09981733,-0.25371248,-0.16948104
1734432635697,2024-12-17T10:50:35.697Z,24733,0.09981733,-0.25371248,-0.16948104
1734432635709,2024-12-17T10:50:35.709Z,24745,0.084169365,-0.2562273,-0.19362009
1734432635713,2024-12-17T10:50:35.713Z,24749,0.084169365,-0.2562273,-0.19362009
1734432635726,2024-12-17T10:50:35.726Z,24762,0.07463951,-0.2656047,-0.20205319
1734432635730,2024-12-17T10:50:35.730Z,24766,0.07463951,-0.2656047,-0.20205319
1734432635741,2024-12-17T10:50:35.741Z,24777,0.08462458,-0.2457121,-0.17546707
1734432635745,2024-12-17T10:50:35.745Z,24781,0.08462458,-0.2457121,-0.17546707
1734432635755,2024-12-17T10:50:35.755Z,24791,0.039956048,-0.2170853,-0.17885955
1734432635759,2024-12-17T10:50:35.759Z,24795,0.039956048,-0.2170853,-0.17885955
1734432635770,2024-12-17T10:50:35.770Z,24806,0.037125554,-0.21963766,-0.19971924
1734432635774,2024-12-17T10:50:35.774Z,24810,0.037125554,-0.21963766,-0.19971924
1734432635785,2024-12-17T10:50:35.785Z,24821,0.0482124,-0.25921106,-0.20341855
1734432635789,2024-12-17T10:50:35.789Z,24825,0.0482124,-0.25921106,-0.20341855
1734432635801,2024-12-17T10:50:35.801Z,24837,0.007832696,-0.29430816,-0.21336314
1734432635805,2024-12-17T10:50:35.805Z,24841,0.007832696,-0.29430816,-0.21336314
1734432635816,2024-12-17T10:50:35.816Z,24852,0.0039476007,-0.27564126,-0.22177373
1734432635821,2024-12-17T10:50:35.821Z,24857,0.0039476007,-0.27564126,-0.22177373
1734432635833,2024-12-17T10:50:35.833Z,24869,-0.0019453919,-0.2778975,-0.21040823
1734432635839,2024-12-17T10:50:35.839Z,24875,-0.0019453919,-0.2778975,-0.21040823
1734432635849,2024-12-17T10:50:35.849Z,24885,-0.032744836,-0.28551072,-0.19996005
1734432635853,2024-12-17T10:50:35.853Z,24889,-0.032744836,-0.28551072,-0.19996005
1734432635865,2024-12-17T10:50:35.865Z,24901,-0.021190934,-0.29554027,-0.2027478
1734432635869,2024-12-17T10:50:35.869Z,24905,-0.021190934,-0.29554027,-0.2027478
1734432635882,2024-12-17T10:50:35.882Z,24918,0.011163673,-0.30115187,-0.2071423
1734432635885,2024-12-17T10:50:35.885Z,24921,0.011163673,-0.30115187,-0.2071423
1734432635896,2024-12-17T10:50:35.896Z,24932,-0.0075127264,-0.31165996,-0.2075117
1734432635899,2024-12-17T10:50:35.899Z,24935,-0.0075127264,-0.31165996,-0.2075117
1734432635911,2024-12-17T10:50:35.911Z,24947,-0.020987734,-0.30751964,-0.21296836
1734432635915,2024-12-17T10:50:35.915Z,24951,-0.020987734,-0.30751964,-0.21296836
1734432635927,2024-12-17T10:50:35.927Z,24963,-0.018271483,-0.30285564,-0.21584052
1734432635930,2024-12-17T10:50:35.930Z,24966,-0.018271483,-0.30285564,-0.21584052
1734432635944,2024-12-17T10:50:35.944Z,24980,-0.0022336585,-0.31469274,-0.23382963
1734432635947,2024-12-17T10:50:35.947Z,24983,-0.0022336585,-0.31469274,-0.23382963
1734432635958,2024-12-17T10:50:35.958Z,24994,0.007738584,-0.29814884,-0.23469546
1734432635961,2024-12-17T10:50:35.961Z,24997,0.007738584,-0.29814884,-0.23469546
1734432635969,2024-12-17T10:50:35.969Z,25005,-0.0034910229,-0.2863951,-0.23782717
1734432635972,2024-12-17T10:50:35.972Z,25008,-0.0034910229,-0.2863951,-0.23782717
1734432635982,2024-12-17T10:50:35.982Z,25018,-0.005192226,-0.29408097,-0.22275163
1734432635985,2024-12-17T10:50:35.985Z,25021,-0.005192226,-0.29408097,-0.22275163
1734432635997,2024-12-17T10:50:35.997Z,25033,0.007701022,-0.2790281,-0.16678712
1734432635999,2024-12-17T10:50:35.999Z,25035,0.007701022,-0.2790281,-0.16678712
1734432636010,2024-12-17T10:50:36.010Z,25046,0.02416173,-0.25310022,-0.15193559
1734432636013,2024-12-17T10:50:36.013Z,25049,0.02416173,-0.25310022,-0.15193559
1734432636024,2024-12-17T10:50:36.024Z,25060,0.0279037,-0.24915662,-0.19423702
1734432636027,2024-12-17T10:50:36.027Z,25063,0.0279037,-0.24915662,-0.19423702
1734432636038,2024-12-17T10:50:36.038Z,25074,0.050586425,-0.28378215,-0.21655993
1734432636042,2024-12-17T10:50:36.042Z,25078,0.050586425,-0.28378215,-0.21655993
1734432636052,2024-12-17T10:50:36.052Z,25088,0.063350834,-0.2944866,-0.22778374
1734432636056,2024-12-17T10:50:36.056Z,25092,0.063350834,-0.2944866,-0.22778374
1734432636066,2024-12-17T10:50:36.066Z,25102,0.046803467,-0.2910452,-0.24195401
1734432636069,2024-12-17T10:50:36.069Z,25105,0.046803467,-0.2910452,-0.24195401
1734432636080,2024-12-17T10:50:36.080Z,25116,0.0449809,-0.26714298,-0.21760589
1734432636083,2024-12-17T10:50:36.083Z,25119,0.0449809,-0.26714298,-0.21760589
1734432636094,2024-12-17T10:50:36.094Z,25130,0.053174637,-0.25307027,-0.19369514
1734432636097,2024-12-17T10:50:36.097Z,25133,0.053174637,-0.25307027,-0.19369514
1734432636108,2024-12-17T10:50:36.108Z,25144,0.045607865,-0.25814804,-0.19228381
1734432636112,2024-12-17T10:50:36.112Z,25148,0.045607865,-0.25814804,-0.19228381
1734432636122,2024-12-17T10:50:36.122Z,25158,0.05925878,-0.26531276,-0.17407185
1734432636125,2024-12-17T10:50:36.125Z,25161,0.05925878,-0.26531276,-0.17407185
1734432636135,2024-12-17T10:50:36.135Z,25171,0.06498936,-0.24920933,-0.15760636
1734432636139,2024-12-17T10:50:36.139Z,25175,0.06498936,-0.24920933,-0.15760636
1734432636149,2024-12-17T10:50:36.149Z,25185,0.06824157,-0.23323989,-0.17490304
1734432636151,2024-12-17T10:50:36.151Z,25187,0.06824157,-0.23323989,-0.17490304
1734432636161,2024-12-17T10:50:36.161Z,25197,0.092212304,-0.22904345,-0.18876942
1734432636163,2024-12-17T10:50:36.163Z,25199,0.092212304,-0.22904345,-0.18876942
1734432636172,2024-12-17T10:50:36.172Z,25208,0.09234648,-0.22780812,-0.1821419
1734432636175,2024-12-17T10:50:36.175Z,25211,0.09234648,-0.22780812,-0.1821419
1734432636184,2024-12-17T10:50:36.184Z,25220,0.062462986,-0.22908664,-0.18042032
1734432636187,2024-12-17T10:50:36.187Z,25223,0.062462986,-0.22908664,-0.18042032
1734432636197,2024-12-17T10:50:36.197Z,25233,0.071536526,-0.22508626,-0.18015136
1734432636200,2024-12-17T10:50:36.200Z,25236,0.071536526,-0.22508626,-0.18015136
1734432636214,2024-12-17T10:50:36.214Z,25250,0.09124454,-0.20995879,-0.17454664
1734432636219,2024-12-17T10:50:36.219Z,25255,0.09124454,-0.20995879,-0.17454664
1734432636234,2024-12-17T10:50:36.234Z,25270,0.08262851,-0.1895816,-0.1753017
1734432636237,2024-12-17T10:50:36.237Z,25273,0.08262851,-0.1895816,-0.1753017
1734432636248,2024-12-17T10:50:36.248Z,25284,0.057813913,-0.1722364,-0.18094932
1734432636250,2024-12-17T10:50:36.250Z,25286,0.057813913,-0.1722364,-0.18094932
1734432636260,2024-12-17T10:50:36.260Z,25296,0.054803256,-0.17301117,-0.20114139
1734432636263,2024-12-17T10:50:36.263Z,25299,0.054803256,-0.17301117,-0.20114139
1734432636273,2024-12-17T10:50:36.273Z,25309,0.06287534,-0.16117106,-0.20080385
1734432636277,2024-12-17T10:50:36.277Z,25313,0.06287534,-0.16117106,-0.20080385
1734432636286,2024-12-17T10:50:36.286Z,25322,0.06288655,-0.13472202,-0.20232752
1734432636291,2024-12-17T10:50:36.291Z,25327,0.06288655,-0.13472202,-0.20232752
1734432636303,2024-12-17T10:50:36.303Z,25339,0.047078833,-0.12537049,-0.20652361
1734432636307,2024-12-17T10:50:36.307Z,25343,0.047078833,-0.12537049,-0.20652361
1734432636317,2024-12-17T10:50:36.317Z,25353,0.05153401,-0.12383534,-0.19779761
1734432636320,2024-12-17T10:50:36.320Z,25356,0.05153401,-0.12383534,-0.19779761
1734432636330,2024-12-17T10:50:36.330Z,25366,0.06005507,-0.11156005,-0.19232894
1734432636333,2024-12-17T10:50:36.333Z,25369,0.06005507,-0.11156005,-0.19232894
1734432636344,2024-12-17T10:50:36.344Z,25380,0.04964841,-0.08904662,-0.17994887
1734432636347,2024-12-17T10:50:36.347Z,25383,0.04964841,-0.08904662,-0.17994887
1734432636358,2024-12-17T10:50:36.358Z,25394,0.028499635,-0.07773856,-0.17233339
1734432636361,2024-12-17T10:50:36.361Z,25397,0.028499635,-0.07773856,-0.17233339
1734432636371,2024-12-17T10:50:36.371Z,25407,0.039028075,-0.07469013,-0.16508698
1734432636374,2024-12-17T10:50:36.374Z,25410,0.039028075,-0.07469013,-0.16508698
1734432636385,2024-12-17T10:50:36.385Z,25421,0.040242843,-0.06970035,-0.1500769
1734432636389,2024-12-17T10:50:36.389Z,25425,0.040242843,-0.06970035,-0.1500769
1734432636400,2024-12-17T10:50:36.400Z,25436,0.011774243,-0.055016726,-0.14105979
1734432636403,2024-12-17T10:50:36.403Z,25439,0.011774243,-0.055016726,-0.14105979
1734432636412,2024-12-17T10:50:36.412Z,25448,0.008814168,-0.04528826,-0.13655376
1734432636415,2024-12-17T10:50:36.415Z,25451,0.008814168,-0.04528826,-0.13655376
1734432636426,2024-12-17T10:50:36.426Z,25462,0.004971571,-0.03862465,-0.12458469
1734432636429,2024-12-17T10:50:36.429Z,25465,0.004971571,-0.03862465,-0.12458469
1734432636441,2024-12-17T10:50:36.441Z,25477,-0.003550587,-0.031637598,-0.13102181
1734432636444,2024-12-17T10:50:36.444Z,25480,-0.003550587,-0.031637598,-0.13102181
1734432636453,2024-12-17T10:50:36.453Z,25489,-0.012366141,-0.021395372,-0.13192531
1734432636457,2024-12-17T10:50:36.457Z,25493,-0.012366141,-0.021395372,-0.13192531
1734432636468,2024-12-17T10:50:36.468Z,25504,-0.008811057,-0.005924525,-0.13895586
1734432636472,2024-12-17T10:50:36.472Z,25508,-0.008811057,-0.005924525,-0.13895586
1734432636482,2024-12-17T10:50:36.482Z,25518,-0.023100732,-0.0022927122,-0.16271457
1734432636486,2024-12-17T10:50:36.486Z,25522,-0.023100732,-0.0022927122,-0.16271457
1734432636497,2024-12-17T10:50:36.497Z,25533,-0.03236409,0.004152964,-0.17101775
1734432636501,2024-12-17T10:50:36.501Z,25537,-0.03236409,0.004152964,-0.17101775
1734432636512,2024-12-17T10:50:36.512Z,25548,-0.030778002,0.0041893343,-0.18031342
1734432636516,2024-12-17T10:50:36.516Z,25552,-0.030778002,0.0041893343,-0.18031342
1734432636526,2024-12-17T10:50:36.526Z,25562,-0.014823153,0.0056400755,-0.19681366
1734432636529,2024-12-17T10:50:36.529Z,25565,-0.014823153,0.0056400755,-0.19681366
1734432636540,2024-12-17T10:50:36.540Z,25576,0.004642679,0.025627788,-0.20245153
1734432636544,2024-12-17T10:50:36.544Z,25580,0.004642679,0.025627788,-0.20245153
1734432636554,2024-12-17T10:50:36.554Z,25590,0.016284518,0.025687497,-0.20528297
1734432636558,2024-12-17T10:50:36.558Z,25594,0.016284518,0.025687497,-0.20528297
1734432636568,2024-12-17T10:50:36.568Z,25604,0.024523223,0.027334388,-0.20520027
1734432636571,2024-12-17T10:50:36.571Z,25607,0.024523223,0.027334388,-0.20520027
1734432636582,2024-12-17T10:50:36.582Z,25618,0.027787976,0.052054852,-0.19840245
1734432636585,2024-12-17T10:50:36.585Z,25621,0.027787976,0.052054852,-0.19840245
1734432636597,2024-12-17T10:50:36.597Z,25633,0.018228209,0.057445005,-0.20325708
1734432636600,2024-12-17T10:50:36.600Z,25636,0.018228209,0.057445005,-0.20325708
1734432636611,2024-12-17T10:50:36.611Z,25647,0.029509528,0.051290195,-0.21451421
1734432636617,2024-12-17T10:50:36.617Z,25653,0.029509528,0.051290195,-0.21451421
1734432636628,2024-12-17T10:50:36.628Z,25664,0.048857592,0.056520663,-0.20790666
1734432636630,2024-12-17T10:50:36.630Z,25666,0.048857592,0.056520663,-0.20790666
1734432636640,2024-12-17T10:50:36.640Z,25676,0.06265882,0.07118639,-0.20876712
1734432636643,2024-12-17T10:50:36.643Z,25679,0.06265882,0.07118639,-0.20876712
1734432636654,2024-12-17T10:50:36.654Z,25690,0.06164287,0.08649746,-0.21074907
1734432636657,2024-12-17T10:50:36.657Z,25693,0.06164287,0.08649746,-0.21074907
1734432636668,2024-12-17T10:50:36.668Z,25704,0.06767067,0.09465339,-0.20026341
1734432636671,2024-12-17T10:50:36.671Z,25707,0.06767067,0.09465339,-0.20026341
1734432636682,2024-12-17T10:50:36.682Z,25718,0.07011925,0.103880346,-0.19109495
1734432636685,2024-12-17T10:50:36.685Z,25721,0.07011925,0.103880346,-0.19109495
1734432636697,2024-12-17T10:50:36.697Z,25733,0.0846773,0.109245114,-0.19261038
1734432636700,2024-12-17T10:50:36.700Z,25736,0.0846773,0.109245114,-0.19261038
1734432636712,2024-12-17T10:50:36.712Z,25748,0.10745801,0.11949366,-0.1946712
1734432636715,2024-12-17T10:50:36.715Z,25751,0.10745801,0.11949366,-0.1946712
1734432636724,2024-12-17T10:50:36.724Z,25760,0.11152002,0.13561748,-0.18902507
1734432636727,2024-12-17T10:50:36.727Z,25763,0.11152002,0.13561748,-0.18902507
1734432636738,2024-12-17T10:50:36.738Z,25774,0.10862271,0.14589861,-0.17953466
1734432636741,2024-12-17T10:50:36.741Z,25777,0.10862271,0.14589861,-0.17953466
1734432636751,2024-12-17T10:50:36.751Z,25787,0.105179675,0.15079911,-0.17939831
1734432636754,2024-12-17T10:50:36.754Z,25790,0.105179675,0.15079911,-0.17939831
1734432636763,2024-12-17T10:50:36.763Z,25799,0.11193059,0.15077578,-0.189204
1734432636766,2024-12-17T10:50:36.766Z,25802,0.11193059,0.15077578,-0.189204
1734432636775,2024-12-17T10:50:36.775Z,25811,0.12264319,0.16090442,-0.18655661
1734432636778,2024-12-17T10:50:36.778Z,25814,0.12264319,0.16090442,-0.18655661
1734432636791,2024-12-17T10:50:36.791Z,25827,0.14018986,0.16804327,-0.19677846
1734432636798,2024-12-17T10:50:36.798Z,25834,0.14018986,0.16804327,-0.19677846
1734432636812,2024-12-17T10:50:36.812Z,25848,0.1430647,0.16831712,-0.20417182
1734432636816,2024-12-17T10:50:36.816Z,25852,0.1430647,0.16831712,-0.20417182
1734432636827,2024-12-17T10:50:36.827Z,25863,0.1434846,0.17685674,-0.19800289
1734432636830,2024-12-17T10:50:36.830Z,25866,0.1434846,0.17685674,-0.19800289
1734432636841,2024-12-17T10:50:36.841Z,25877,0.14933792,0.19169796,-0.19775118
1734432636844,2024-12-17T10:50:36.844Z,25880,0.14933792,0.19169796,-0.19775118
1734432636854,2024-12-17T10:50:36.854Z,25890,0.13628112,0.19722134,-0.21161878
1734432636858,2024-12-17T10:50:36.858Z,25894,0.13628112,0.19722134,-0.21161878
1734432636868,2024-12-17T10:50:36.868Z,25904,0.11705474,0.18999262,-0.2171404
1734432636871,2024-12-17T10:50:36.871Z,25907,0.11705474,0.18999262,-0.2171404
1734432636881,2024-12-17T10:50:36.881Z,25917,0.13609977,0.18947963,-0.22426319
1734432636884,2024-12-17T10:50:36.884Z,25920,0.13609977,0.18947963,-0.22426319
1734432636894,2024-12-17T10:50:36.894Z,25930,0.15326206,0.20350266,-0.2189293
1734432636898,2024-12-17T10:50:36.898Z,25934,0.15326206,0.20350266,-0.2189293
1734432636909,2024-12-17T10:50:36.909Z,25945,0.15156364,0.21501242,-0.209183
1734432636912,2024-12-17T10:50:36.912Z,25948,0.15156364,0.21501242,-0.209183
1734432636922,2024-12-17T10:50:36.922Z,25958,0.13641374,0.22693698,-0.23013258
1734432636925,2024-12-17T10:50:36.925Z,25961,0.13641374,0.22693698,-0.23013258
1734432636940,2024-12-17T10:50:36.940Z,25976,0.13687587,0.2281657,-0.2660612
1734432636944,2024-12-17T10:50:36.944Z,25980,0.13687587,0.2281657,-0.2660612
1734432636955,2024-12-17T10:50:36.955Z,25991,0.14064132,0.22653204,-0.26673
1734432636959,2024-12-17T10:50:36.959Z,25995,0.14064132,0.22653204,-0.26673
1734432636970,2024-12-17T10:50:36.970Z,26006,0.12931319,0.22880384,-0.25315872
1734432636973,2024-12-17T10:50:36.973Z,26009,0.12931319,0.22880384,-0.25315872
1734432636982,2024-12-17T10:50:36.982Z,26018,0.12205339,0.23590429,-0.2429425
1734432636985,2024-12-17T10:50:36.985Z,26021,0.12205339,0.23590429,-0.2429425
1734432636996,2024-12-17T10:50:36.996Z,26032,0.1349993,0.24489436,-0.22923829
1734432636999,2024-12-17T10:50:36.999Z,26035,0.1349993,0.24489436,-0.22923829
1734432637012,2024-12-17T10:50:37.012Z,26048,0.15551366,0.25189131,-0.20994447
1734432637015,2024-12-17T10:50:37.015Z,26051,0.15551366,0.25189131,-0.20994447
1734432637028,2024-12-17T10:50:37.028Z,26064,0.1465827,0.25539634,-0.23288596
1734432637031,2024-12-17T10:50:37.031Z,26067,0.1465827,0.25539634,-0.23288596
1734432637041,2024-12-17T10:50:37.041Z,26077,0.123156525,0.25204372,-0.26980472
1734432637045,2024-12-17T10:50:37.045Z,26081,0.123156525,0.25204372,-0.26980472
1734432637056,2024-12-17T10:50:37.056Z,26092,0.11609393,0.2419139,-0.2716325
1734432637059,2024-12-17T10:50:37.059Z,26095,0.11609393,0.2419139,-0.2716325
1734432637069,2024-12-17T10:50:37.069Z,26105,0.124426335,0.23181006,-0.25897604
1734432637072,2024-12-17T10:50:37.072Z,26108,0.124426335,0.23181006,-0.25897604
1734432637083,2024-12-17T10:50:37.083Z,26119,0.11314166,0.2290276,-0.2395563
1734432637086,2024-12-17T10:50:37.086Z,26122,0.11314166,0.2290276,-0.2395563
1734432637097,2024-12-17T10:50:37.097Z,26133,0.095532335,0.23061721,-0.21964009
1734432637103,2024-12-17T10:50:37.103Z,26139,0.095532335,0.23061721,-0.21964009
1734432637114,2024-12-17T10:50:37.114Z,26150,0.08538801,0.22631177,-0.20448121
1734432637117,2024-12-17T10:50:37.117Z,26153,0.08538801,0.22631177,-0.20448121
1734432637127,2024-12-17T10:50:37.127Z,26163,0.0875437,0.20784064,-0.20430063
1734432637130,2024-12-17T10:50:37.130Z,26166,0.0875437,0.20784064,-0.20430063
1734432637139,2024-12-17T10:50:37.139Z,26175,0.09173248,0.1840044,-0.2332365
1734432637142,2024-12-17T10:50:37.142Z,26178,0.09173248,0.1840044,-0.2332365
1734432637151,2024-12-17T10:50:37.151Z,26187,0.075717315,0.16713095,-0.24929102
1734432637155,2024-12-17T10:50:37.155Z,26191,0.075717315,0.16713095,-0.24929102
1734432637167,2024-12-17T10:50:37.167Z,26203,0.053666808,0.15431467,-0.22943541
1734432637170,2024-12-17T10:50:37.170Z,26206,0.053666808,0.15431467,-0.22943541
1734432637181,2024-12-17T10:50:37.181Z,26217,0.046732996,0.14311197,-0.23254262
1734432637183,2024-12-17T10:50:37.183Z,26219,0.046732996,0.14311197,-0.23254262
1734432637192,2024-12-17T10:50:37.192Z,26228,0.051415768,0.11312136,-0.23447134
1734432637195,2024-12-17T10:50:37.195Z,26231,0.051415768,0.11312136,-0.23447134
1734432637203,2024-12-17T10:50:37.203Z,26239,0.024705369,0.08133716,-0.22238304
1734432637206,2024-12-17T10:50:37.206Z,26242,0.024705369,0.08133716,-0.22238304
1734432637217,2024-12-17T10:50:37.217Z,26253,-0.006728667,0.064801164,-0.2123238
1734432637221,2024-12-17T10:50:37.221Z,26257,-0.006728667,0.064801164,-0.2123238
1734432637234,2024-12-17T10:50:37.234Z,26270,-0.022937672,0.05469508,-0.19376498
1734432637237,2024-12-17T10:50:37.237Z,26273,-0.022937672,0.05469508,-0.19376498
1734432637247,2024-12-17T10:50:37.247Z,26283,-0.027780075,0.039771397,-0.1955148
1734432637250,2024-12-17T10:50:37.250Z,26286,-0.027780075,0.039771397,-0.1955148
1734432637261,2024-12-17T10:50:37.261Z,26297,-0.036321536,0.015117547,-0.20048246
1734432637264,2024-12-17T10:50:37.264Z,26300,-0.036321536,0.015117547,-0.20048246
1734432637275,2024-12-17T10:50:37.275Z,26311,-0.054389868,-0.005132443,-0.18772094
1734432637278,2024-12-17T10:50:37.278Z,26314,-0.054389868,-0.005132443,-0.18772094
1734432637287,2024-12-17T10:50:37.287Z,26323,-0.064828776,-0.021027971,-0.18610157
1734432637290,2024-12-17T10:50:37.290Z,26326,-0.064828776,-0.021027971,-0.18610157
1734432637299,2024-12-17T10:50:37.299Z,26335,-0.057861954,-0.025284503,-0.18304947
1734432637302,2024-12-17T10:50:37.302Z,26338,-0.057861954,-0.025284503,-0.18304947
1734432637311,2024-12-17T10:50:37.311Z,26347,-0.031064129,-0.037806604,-0.1967775
1734432637314,2024-12-17T10:50:37.314Z,26350,-0.031064129,-0.037806604,-0.1967775
1734432637324,2024-12-17T10:50:37.324Z,26360,-0.040357996,-0.052838672,-0.20138067
1734432637327,2024-12-17T10:50:37.327Z,26363,-0.040357996,-0.052838672,-0.20138067
1734432637337,2024-12-17T10:50:37.337Z,26373,-0.07066768,-0.050370134,-0.19405633
1734432637341,2024-12-17T10:50:37.341Z,26377,-0.07066768,-0.050370134,-0.19405633
1734432637352,2024-12-17T10:50:37.352Z,26388,-0.07478821,-0.046411082,-0.20743628
1734432637355,2024-12-17T10:50:37.355Z,26391,-0.07478821,-0.046411082,-0.20743628
1734432637366,2024-12-17T10:50:37.366Z,26402,-0.059925016,-0.053684045,-0.21944912
1734432637372,2024-12-17T10:50:37.372Z,26408,-0.059925016,-0.053684045,-0.21944912
1734432637391,2024-12-17T10:50:37.391Z,26427,-0.04353051,-0.044886045,-0.17582536
1734432637394,2024-12-17T10:50:37.394Z,26430,-0.04353051,-0.044886045,-0.17582536
1734432637405,2024-12-17T10:50:37.405Z,26441,-0.025998496,-0.013476491,-0.12881728
1734432637409,2024-12-17T10:50:37.409Z,26445,-0.025998496,-0.013476491,-0.12881728
1734432637420,2024-12-17T10:50:37.420Z,26456,-0.04712877,0.0024204957,-0.14408574
1734432637422,2024-12-17T10:50:37.422Z,26458,-0.04712877,0.0024204957,-0.14408574
1734432637433,2024-12-17T10:50:37.433Z,26469,-0.05623738,0.0026252994,-0.13906598
1734432637436,2024-12-17T10:50:37.436Z,26472,-0.05623738,0.0026252994,-0.13906598
1734432637446,2024-12-17T10:50:37.446Z,26482,-0.045739926,-0.014764926,-0.14911509
1734432637449,2024-12-17T10:50:37.449Z,26485,-0.045739926,-0.014764926,-0.14911509
1734432637458,2024-12-17T10:50:37.458Z,26494,-0.047931306,-0.013648814,-0.1705378
1734432637462,2024-12-17T10:50:37.462Z,26498,-0.047931306,-0.013648814,-0.1705378
1734432637474,2024-12-17T10:50:37.474Z,26510,-0.04952977,0.009373707,-0.16221799
1734432637477,2024-12-17T10:50:37.477Z,26513,-0.04952977,0.009373707,-0.16221799
1734432637486,2024-12-17T10:50:37.486Z,26522,-0.051960085,0.030817218,-0.15511073
1734432637489,2024-12-17T10:50:37.489Z,26525,-0.051960085,0.030817218,-0.15511073
1734432637498,2024-12-17T10:50:37.498Z,26534,-0.027111642,0.03480379,-0.17054832
1734432637501,2024-12-17T10:50:37.501Z,26537,-0.027111642,0.03480379,-0.17054832
1734432637510,2024-12-17T10:50:37.510Z,26546,-0.007661564,0.036422577,-0.17601986
1734432637513,2024-12-17T10:50:37.513Z,26549,-0.007661564,0.036422577,-0.17601986
1734432637528,2024-12-17T10:50:37.528Z,26564,-0.01596078,0.04881694,-0.1817276
1734432637531,2024-12-17T10:50:37.531Z,26567,-0.01596078,0.04881694,-0.1817276
1734432637542,2024-12-17T10:50:37.542Z,26578,-0.0013880653,0.058861174,-0.17456236
1734432637546,2024-12-17T10:50:37.546Z,26582,-0.0013880653,0.058861174,-0.17456236
1734432637556,2024-12-17T10:50:37.556Z,26592,0.013552101,0.06706606,-0.15696503
1734432637560,2024-12-17T10:50:37.560Z,26596,0.013552101,0.06706606,-0.15696503
1734432637572,2024-12-17T10:50:37.572Z,26608,0.01036753,0.07876817,-0.15384509
1734432637576,2024-12-17T10:50:37.576Z,26612,0.01036753,0.07876817,-0.15384509
1734432637588,2024-12-17T10:50:37.588Z,26624,0.0139345275,0.084197804,-0.17111808
1734432637593,2024-12-17T10:50:37.593Z,26629,0.0139345275,0.084197804,-0.17111808
1734432637603,2024-12-17T10:50:37.603Z,26639,0.035841983,0.09267931,-0.18785298
1734432637608,2024-12-17T10:50:37.608Z,26644,0.035841983,0.09267931,-0.18785298
1734432637618,2024-12-17T10:50:37.618Z,26654,0.047788866,0.09345865,-0.18159348
1734432637621,2024-12-17T10:50:37.621Z,26657,0.047788866,0.09345865,-0.18159348
1734432637631,2024-12-17T10:50:37.631Z,26667,0.04247243,0.09286943,-0.16651289
1734432637634,2024-12-17T10:50:37.634Z,26670,0.04247243,0.09286943,-0.16651289
1734432637644,2024-12-17T10:50:37.644Z,26680,0.045783665,0.105018586,-0.16864757
1734432637647,2024-12-17T10:50:37.647Z,26683,0.045783665,0.105018586,-0.16864757
1734432637656,2024-12-17T10:50:37.656Z,26692,0.06065982,0.115266256,-0.1786796
1734432637659,2024-12-17T10:50:37.659Z,26695,0.06065982,0.115266256,-0.1786796
1734432637667,2024-12-17T10:50:37.667Z,26703,0.087638885,0.12071349,-0.18420929
1734432637670,2024-12-17T10:50:37.670Z,26706,0.087638885,0.12071349,-0.18420929
1734432637679,2024-12-17T10:50:37.679Z,26715,0.094639994,0.13201426,-0.182352
1734432637682,2024-12-17T10:50:37.682Z,26718,0.094639994,0.13201426,-0.182352
1734432637692,2024-12-17T10:50:37.692Z,26728,0.075294286,0.13551274,-0.1828557
1734432637696,2024-12-17T10:50:37.696Z,26732,0.075294286,0.13551274,-0.1828557
1734432637705,2024-12-17T10:50:37.705Z,26741,0.083753474,0.131211,-0.19116634
1734432637708,2024-12-17T10:50:37.708Z,26744,0.083753474,0.131211,-0.19116634
1734432637718,2024-12-17T10:50:37.718Z,26754,0.11851156,0.12982793,-0.208418
1734432637721,2024-12-17T10:50:37.721Z,26757,0.11851156,0.12982793,-0.208418
1734432637734,2024-12-17T10:50:37.734Z,26770,0.15020743,0.13876267,-0.21346469
1734432637737,2024-12-17T10:50:37.737Z,26773,0.15020743,0.13876267,-0.21346469
1734432637750,2024-12-17T10:50:37.750Z,26786,0.16224317,0.14927422,-0.21540254
1734432637753,2024-12-17T10:50:37.753Z,26789,0.16224317,0.14927422,-0.21540254
1734432637763,2024-12-17T10:50:37.763Z,26799,0.14392698,0.15108712,-0.1922401
1734432637766,2024-12-17T10:50:37.766Z,26802,0.14392698,0.15108712,-0.1922401
1734432637777,2024-12-17T10:50:37.777Z,26813,0.09828669,0.15818259,-0.13223869
1734432637780,2024-12-17T10:50:37.780Z,26816,0.09828669,0.15818259,-0.13223869
1734432637790,2024-12-17T10:50:37.790Z,26826,0.10307356,0.17920046,-0.114842646
1734432637794,2024-12-17T10:50:37.794Z,26830,0.10307356,0.17920046,-0.114842646
1734432637803,2024-12-17T10:50:37.803Z,26839,0.1504473,0.20145136,-0.14887941
1734432637806,2024-12-17T10:50:37.806Z,26842,0.1504473,0.20145136,-0.14887941
1734432637815,2024-12-17T10:50:37.815Z,26851,0.20720504,0.20449969,-0.20869489
1734432637817,2024-12-17T10:50:37.817Z,26853,0.20720504,0.20449969,-0.20869489
1734432637826,2024-12-17T10:50:37.826Z,26862,0.28708604,0.19766381,-0.2642314
1734432637829,2024-12-17T10:50:37.829Z,26865,0.28708604,0.19766381,-0.2642314
1734432637845,2024-12-17T10:50:37.845Z,26881,0.2584128,0.19726324,-0.24209413
1734432637848,2024-12-17T10:50:37.848Z,26884,0.2584128,0.19726324,-0.24209413
1734432637859,2024-12-17T10:50:37.859Z,26895,0.15100832,0.21011867,-0.18963255
1734432637862,2024-12-17T10:50:37.862Z,26898,0.15100832,0.21011867,-0.18963255
1734432637872,2024-12-17T10:50:37.872Z,26908,0.14808111,0.24727954,-0.17128293
1734432637876,2024-12-17T10:50:37.876Z,26912,0.14808111,0.24727954,-0.17128293
1734432637886,2024-12-17T10:50:37.886Z,26922,0.19872577,0.27319494,-0.18106946
1734432637889,2024-12-17T10:50:37.889Z,26925,0.19872577,0.27319494,-0.18106946
1734432637899,2024-12-17T10:50:37.899Z,26935,0.21566956,0.2679173,-0.19798492
1734432637902,2024-12-17T10:50:37.902Z,26938,0.21566956,0.2679173,-0.19798492
1734432637914,2024-12-17T10:50:37.914Z,26950,0.18838966,0.2537813,-0.19523908
1734432637918,2024-12-17T10:50:37.918Z,26954,0.18838966,0.2537813,-0.19523908
1734432637934,2024-12-17T10:50:37.934Z,26970,0.17341432,0.2527275,-0.20635381
1734432637940,2024-12-17T10:50:37.940Z,26976,0.17341432,0.2527275,-0.20635381
1734432637953,2024-12-17T10:50:37.953Z,26989,0.2124549,0.261487,-0.21859585
1734432637956,2024-12-17T10:50:37.956Z,26992,0.2124549,0.261487,-0.21859585
1734432637966,2024-12-17T10:50:37.966Z,27002,0.24255444,0.2630662,-0.23644581
1734432637968,2024-12-17T10:50:37.968Z,27004,0.24255444,0.2630662,-0.23644581
1734432637977,2024-12-17T10:50:37.977Z,27013,0.23488031,0.26820177,-0.23018366
1734432637981,2024-12-17T10:50:37.981Z,27017,0.23488031,0.26820177,-0.23018366
1734432637991,2024-12-17T10:50:37.991Z,27027,0.22198458,0.28089735,-0.21781018
1734432637993,2024-12-17T10:50:37.993Z,27029,0.22198458,0.28089735,-0.21781018
1734432638005,2024-12-17T10:50:38.005Z,27041,0.21846592,0.27285916,-0.21445096
1734432638009,2024-12-17T10:50:38.009Z,27045,0.21846592,0.27285916,-0.21445096
1734432638019,2024-12-17T10:50:38.019Z,27055,0.22927865,0.25039312,-0.2152372
1734432638021,2024-12-17T10:50:38.021Z,27057,0.22927865,0.25039312,-0.2152372
1734432638031,2024-12-17T10:50:38.031Z,27067,0.22376505,0.24373244,-0.2040094
1734432638033,2024-12-17T10:50:38.033Z,27069,0.22376505,0.24373244,-0.2040094
1734432638045,2024-12-17T10:50:38.045Z,27081,0.20102493,0.24794112,-0.19888487
1734432638048,2024-12-17T10:50:38.048Z,27084,0.20102493,0.24794112,-0.19888487
1734432638059,2024-12-17T10:50:38.059Z,27095,0.18151551,0.2351689,-0.19512387
1734432638063,2024-12-17T10:50:38.063Z,27099,0.18151551,0.2351689,-0.19512387
1734432638073,2024-12-17T10:50:38.073Z,27109,0.18818836,0.21125306,-0.18937694
1734432638076,2024-12-17T10:50:38.076Z,27112,0.18818836,0.21125306,-0.18937694
1734432638087,2024-12-17T10:50:38.087Z,27123,0.19039163,0.20396721,-0.18849695
1734432638090,2024-12-17T10:50:38.090Z,27126,0.19039163,0.20396721,-0.18849695
1734432638099,2024-12-17T10:50:38.099Z,27135,0.17405224,0.18646865,-0.20107539
1734432638102,2024-12-17T10:50:38.102Z,27138,0.17405224,0.18646865,-0.20107539
1734432638111,2024-12-17T10:50:38.111Z,27147,0.1760439,0.14858283,-0.20133692
1734432638115,2024-12-17T10:50:38.115Z,27151,0.1760439,0.14858283,-0.20133692
1734432638125,2024-12-17T10:50:38.125Z,27161,0.16473721,0.12389777,-0.19142333
1734432638127,2024-12-17T10:50:38.127Z,27163,0.16473721,0.12389777,-0.19142333
1734432638135,2024-12-17T10:50:38.135Z,27171,0.14370513,0.1182008,-0.17133702
1734432638138,2024-12-17T10:50:38.138Z,27174,0.14370513,0.1182008,-0.17133702
1734432638147,2024-12-17T10:50:38.147Z,27183,0.12221594,0.111467324,-0.15869558
1734432638150,2024-12-17T10:50:38.150Z,27186,0.12221594,0.111467324,-0.15869558
1734432638161,2024-12-17T10:50:38.161Z,27197,0.09944867,0.08657133,-0.14654045
1734432638164,2024-12-17T10:50:38.164Z,27200,0.09944867,0.08657133,-0.14654045
1734432638175,2024-12-17T10:50:38.175Z,27211,0.08917968,0.049779743,-0.15649696
1734432638179,2024-12-17T10:50:38.179Z,27215,0.08917968,0.049779743,-0.15649696
1734432638191,2024-12-17T10:50:38.191Z,27227,0.08314412,0.021550385,-0.1828513
1734432638195,2024-12-17T10:50:38.195Z,27231,0.08314412,0.021550385,-0.1828513
1734432638203,2024-12-17T10:50:38.203Z,27239,0.06904257,0.009238143,-0.1978206
1734432638206,2024-12-17T10:50:38.206Z,27242,0.06904257,0.009238143,-0.1978206
1734432638216,2024-12-17T10:50:38.216Z,27252,0.05400462,-0.017303772,-0.19197477
1734432638218,2024-12-17T10:50:38.218Z,27254,0.05400462,-0.017303772,-0.19197477
1734432638229,2024-12-17T10:50:38.229Z,27265,0.049288325,-0.03752945,-0.18758549
1734432638232,2024-12-17T10:50:38.232Z,27268,0.049288325,-0.03752945,-0.18758549
1734432638240,2024-12-17T10:50:38.240Z,27276,0.043038096,-0.036703717,-0.1557371
1734432638243,2024-12-17T10:50:38.243Z,27279,0.043038096,-0.036703717,-0.1557371
1734432638255,2024-12-17T10:50:38.255Z,27291,0.0013046997,-0.051990572,-0.13971688
1734432638259,2024-12-17T10:50:38.259Z,27295,0.0013046997,-0.051990572,-0.13971688
1734432638271,2024-12-17T10:50:38.271Z,27307,-0.03000374,-0.073643945,-0.1508179
1734432638275,2024-12-17T10:50:38.275Z,27311,-0.03000374,-0.073643945,-0.1508179
1734432638284,2024-12-17T10:50:38.284Z,27320,-0.042601038,-0.10899962,-0.1681142
1734432638286,2024-12-17T10:50:38.286Z,27322,-0.042601038,-0.10899962,-0.1681142
1734432638294,2024-12-17T10:50:38.294Z,27330,-0.05053531,-0.11177575,-0.18060198
1734432638298,2024-12-17T10:50:38.298Z,27334,-0.05053531,-0.11177575,-0.18060198
1734432638307,2024-12-17T10:50:38.307Z,27343,-0.039230775,-0.11509267,-0.18319891
1734432638310,2024-12-17T10:50:38.310Z,27346,-0.039230775,-0.11509267,-0.18319891
1734432638319,2024-12-17T10:50:38.319Z,27355,-0.0174556,-0.11500408,-0.19182932
1734432638322,2024-12-17T10:50:38.322Z,27358,-0.0174556,-0.11500408,-0.19182932
1734432638332,2024-12-17T10:50:38.332Z,27368,-0.002903987,-0.11046679,-0.17956178
1734432638335,2024-12-17T10:50:38.335Z,27371,-0.002903987,-0.11046679,-0.17956178
1734432638344,2024-12-17T10:50:38.344Z,27380,-0.034083694,-0.1424893,-0.15992215
1734432638347,2024-12-17T10:50:38.347Z,27383,-0.034083694,-0.1424893,-0.15992215
1734432638355,2024-12-17T10:50:38.355Z,27391,-0.054320507,-0.15942265,-0.17038903
1734432638358,2024-12-17T10:50:38.358Z,27394,-0.054320507,-0.15942265,-0.17038903
1734432638366,2024-12-17T10:50:38.366Z,27402,-0.036556046,-0.15778588,-0.16772833
1734432638369,2024-12-17T10:50:38.369Z,27405,-0.036556046,-0.15778588,-0.16772833
1734432638379,2024-12-17T10:50:38.379Z,27415,-0.03342224,-0.16154489,-0.1490017
1734432638382,2024-12-17T10:50:38.382Z,27418,-0.03342224,-0.16154489,-0.1490017
1734432638390,2024-12-17T10:50:38.390Z,27426,-0.047858033,-0.1716996,-0.14752775
1734432638393,2024-12-17T10:50:38.393Z,27429,-0.047858033,-0.1716996,-0.14752775
1734432638401,2024-12-17T10:50:38.401Z,27437,-0.035555124,-0.17555381,-0.13325094
1734432638404,2024-12-17T10:50:38.404Z,27440,-0.035555124,-0.17555381,-0.13325094
1734432638412,2024-12-17T10:50:38.412Z,27448,0.0029731058,-0.18775606,-0.1369857
1734432638415,2024-12-17T10:50:38.415Z,27451,0.0029731058,-0.18775606,-0.1369857
1734432638422,2024-12-17T10:50:38.422Z,27458,0.008206419,-0.19266075,-0.15465851
1734432638425,2024-12-17T10:50:38.425Z,27461,0.008206419,-0.19266075,-0.15465851
1734432638436,2024-12-17T10:50:38.436Z,27472,0.030249242,-0.19259977,-0.16123073
1734432638439,2024-12-17T10:50:38.439Z,27475,0.030249242,-0.19259977,-0.16123073
1734432638453,2024-12-17T10:50:38.453Z,27489,0.037264083,-0.17580597,-0.1283468
1734432638456,2024-12-17T10:50:38.456Z,27492,0.037264083,-0.17580597,-0.1283468
1734432638464,2024-12-17T10:50:38.464Z,27500,0.004119875,-0.18922548,-0.11053944
1734432638467,2024-12-17T10:50:38.467Z,27503,0.004119875,-0.18922548,-0.11053944
1734432638476,2024-12-17T10:50:38.476Z,27512,2.9132984E-4,-0.2183074,-0.121654086
1734432638479,2024-12-17T10:50:38.479Z,27515,2.9132984E-4,-0.2183074,-0.121654086
1734432638488,2024-12-17T10:50:38.488Z,27524,0.015101501,-0.2323529,-0.12425337
1734432638491,2024-12-17T10:50:38.491Z,27527,0.015101501,-0.2323529,-0.12425337
1734432638501,2024-12-17T10:50:38.501Z,27537,0.028627928,-0.20898378,-0.097534925
1734432638504,2024-12-17T10:50:38.504Z,27540,0.028627928,-0.20898378,-0.097534925
1734432638514,2024-12-17T10:50:38.514Z,27550,0.051973045,-0.18907493,-0.08457288
1734432638517,2024-12-17T10:50:38.517Z,27553,0.051973045,-0.18907493,-0.08457288
1734432638527,2024-12-17T10:50:38.527Z,27563,0.0310025,-0.18629433,-0.102328606
1734432638529,2024-12-17T10:50:38.529Z,27565,0.0310025,-0.18629433,-0.102328606
1734432638537,2024-12-17T10:50:38.537Z,27573,0.021293845,-0.21677683,-0.10368182
1734432638539,2024-12-17T10:50:38.539Z,27575,0.021293845,-0.21677683,-0.10368182
1734432638547,2024-12-17T10:50:38.547Z,27583,0.027708426,-0.23218787,-0.125802
1734432638550,2024-12-17T10:50:38.550Z,27586,0.027708426,-0.23218787,-0.125802
1734432638558,2024-12-17T10:50:38.558Z,27594,0.032841355,-0.21412537,-0.12277467
1734432638561,2024-12-17T10:50:38.561Z,27597,0.032841355,-0.21412537,-0.12277467
1734432638571,2024-12-17T10:50:38.571Z,27607,0.031567216,-0.20297748,-0.09909207
1734432638574,2024-12-17T10:50:38.574Z,27610,0.031567216,-0.20297748,-0.09909207
1734432638582,2024-12-17T10:50:38.582Z,27618,0.0018760543,-0.19548765,-0.0898684
1734432638585,2024-12-17T10:50:38.585Z,27621,0.0018760543,-0.19548765,-0.0898684
1734432638594,2024-12-17T10:50:38.594Z,27630,-0.023439325,-0.20289549,-0.09504336
1734432638596,2024-12-17T10:50:38.596Z,27632,-0.023439325,-0.20289549,-0.09504336
1734432638605,2024-12-17T10:50:38.605Z,27641,-0.010220832,-0.23602283,-0.11341683
1734432638608,2024-12-17T10:50:38.608Z,27644,-0.010220832,-0.23602283,-0.11341683
1734432638617,2024-12-17T10:50:38.617Z,27653,-0.011613176,-0.26672053,-0.13713719
1734432638620,2024-12-17T10:50:38.620Z,27656,-0.011613176,-0.26672053,-0.13713719
1734432638630,2024-12-17T10:50:38.630Z,27666,0.016256,-0.25831288,-0.13288295
1734432638632,2024-12-17T10:50:38.632Z,27668,0.016256,-0.25831288,-0.13288295
1734432638640,2024-12-17T10:50:38.640Z,27676,0.0126293665,-0.22143285,-0.100032814
1734432638643,2024-12-17T10:50:38.643Z,27679,0.0126293665,-0.22143285,-0.100032814
1734432638651,2024-12-17T10:50:38.651Z,27687,-0.020960018,-0.2244199,-0.102836855
1734432638654,2024-12-17T10:50:38.654Z,27690,-0.020960018,-0.2244199,-0.102836855
1734432638663,2024-12-17T10:50:38.663Z,27699,-0.050261557,-0.25758508,-0.10489596
1734432638666,2024-12-17T10:50:38.666Z,27702,-0.050261557,-0.25758508,-0.10489596
1734432638673,2024-12-17T10:50:38.673Z,27709,-0.04354607,-0.27993116,-0.121927895
1734432638676,2024-12-17T10:50:38.676Z,27712,-0.04354607,-0.27993116,-0.121927895
1734432638684,2024-12-17T10:50:38.684Z,27720,-0.030969508,-0.2793138,-0.12618569
1734432638687,2024-12-17T10:50:38.687Z,27723,-0.030969508,-0.2793138,-0.12618569
1734432638697,2024-12-17T10:50:38.697Z,27733,-0.048316263,-0.26594487,-0.10989631
1734432638700,2024-12-17T10:50:38.700Z,27736,-0.048316263,-0.26594487,-0.10989631
1734432638707,2024-12-17T10:50:38.707Z,27743,-0.060757067,-0.27548334,-0.11631511
1734432638710,2024-12-17T10:50:38.710Z,27746,-0.060757067,-0.27548334,-0.11631511
1734432638719,2024-12-17T10:50:38.719Z,27755,-0.053780466,-0.2893388,-0.12597024
1734432638721,2024-12-17T10:50:38.721Z,27757,-0.053780466,-0.2893388,-0.12597024
1734432638732,2024-12-17T10:50:38.732Z,27768,-0.03919698,-0.29575995,-0.13837297
1734432638735,2024-12-17T10:50:38.735Z,27771,-0.03919698,-0.29575995,-0.13837297
1734432638745,2024-12-17T10:50:38.745Z,27781,-0.03848041,-0.3040119,-0.13146627
1734432638748,2024-12-17T10:50:38.748Z,27784,-0.03848041,-0.3040119,-0.13146627
1734432638755,2024-12-17T10:50:38.755Z,27791,-0.043368835,-0.31457272,-0.110137925
1734432638758,2024-12-17T10:50:38.758Z,27794,-0.043368835,-0.31457272,-0.110137925
1734432638766,2024-12-17T10:50:38.766Z,27802,-0.048978373,-0.31381944,-0.106332935
1734432638769,2024-12-17T10:50:38.769Z,27805,-0.048978373,-0.31381944,-0.106332935
1734432638780,2024-12-17T10:50:38.780Z,27816,-0.050340667,-0.32471633,-0.11704263
1734432638783,2024-12-17T10:50:38.783Z,27819,-0.050340667,-0.32471633,-0.11704263
1734432638793,2024-12-17T10:50:38.793Z,27829,-0.04361042,-0.33310154,-0.11842092
1734432638797,2024-12-17T10:50:38.797Z,27833,-0.04361042,-0.33310154,-0.11842092
1734432638804,2024-12-17T10:50:38.804Z,27840,-0.056977924,-0.34049478,-0.12759551
1734432638806,2024-12-17T10:50:38.806Z,27842,-0.056977924,-0.34049478,-0.12759551
1734432638815,2024-12-17T10:50:38.815Z,27851,-0.07526786,-0.32938626,-0.1267605
1734432638817,2024-12-17T10:50:38.817Z,27853,-0.07526786,-0.32938626,-0.1267605
1734432638825,2024-12-17T10:50:38.825Z,27861,-0.06286848,-0.34467518,-0.10219222
1734432638829,2024-12-17T10:50:38.829Z,27865,-0.06286848,-0.34467518,-0.10219222
1734432638839,2024-12-17T10:50:38.839Z,27875,-0.045959804,-0.35568964,-0.099437825
1734432638842,2024-12-17T10:50:38.842Z,27878,-0.045959804,-0.35568964,-0.099437825
1734432638851,2024-12-17T10:50:38.851Z,27887,-0.045532256,-0.33610317,-0.10893431
1734432638854,2024-12-17T10:50:38.854Z,27890,-0.045532256,-0.33610317,-0.10893431
1734432638862,2024-12-17T10:50:38.862Z,27898,-0.0348979,-0.3341525,-0.12214986
1734432638864,2024-12-17T10:50:38.864Z,27900,-0.0348979,-0.3341525,-0.12214986
1734432638871,2024-12-17T10:50:38.871Z,27907,-0.0144921215,-0.3493587,-0.13465337
1734432638874,2024-12-17T10:50:38.874Z,27910,-0.0144921215,-0.3493587,-0.13465337
1734432638883,2024-12-17T10:50:38.883Z,27919,-0.02476554,-0.33583283,-0.13270146
1734432638885,2024-12-17T10:50:38.885Z,27921,-0.02476554,-0.33583283,-0.13270146
1734432638896,2024-12-17T10:50:38.896Z,27932,-0.03399554,-0.31940672,-0.10828132
1734432638900,2024-12-17T10:50:38.900Z,27936,-0.03399554,-0.31940672,-0.10828132
1734432638908,2024-12-17T10:50:38.908Z,27944,-0.043432433,-0.31137025,-0.10482174
1734432638910,2024-12-17T10:50:38.910Z,27946,-0.043432433,-0.31137025,-0.10482174
1734432638918,2024-12-17T10:50:38.918Z,27954,-0.038835388,-0.30689415,-0.115637064
1734432638921,2024-12-17T10:50:38.921Z,27957,-0.038835388,-0.30689415,-0.115637064
1734432638930,2024-12-17T10:50:38.930Z,27966,-0.022220204,-0.2932639,-0.11144394
1734432638932,2024-12-17T10:50:38.932Z,27968,-0.022220204,-0.2932639,-0.11144394
1734432638941,2024-12-17T10:50:38.941Z,27977,-0.01030855,-0.27581114,-0.11274244
1734432638944,2024-12-17T10:50:38.944Z,27980,-0.01030855,-0.27581114,-0.11274244
1734432638954,2024-12-17T10:50:38.954Z,27990,-0.0050225286,-0.2667285,-0.12772293
1734432638956,2024-12-17T10:50:38.956Z,27992,-0.0050225286,-0.2667285,-0.12772293
1734432638969,2024-12-17T10:50:38.969Z,28005,-2.4807893E-4,-0.25281197,-0.123422265
1734432638971,2024-12-17T10:50:38.971Z,28007,-2.4807893E-4,-0.25281197,-0.123422265
1734432638980,2024-12-17T10:50:38.980Z,28016,-0.0027633423,-0.24721828,-0.13234228
1734432638982,2024-12-17T10:50:38.982Z,28018,-0.0027633423,-0.24721828,-0.13234228
1734432638990,2024-12-17T10:50:38.990Z,28026,0.018405685,-0.2411971,-0.13923632
1734432638993,2024-12-17T10:50:38.993Z,28029,0.018405685,-0.2411971,-0.13923632
1734432639002,2024-12-17T10:50:39.002Z,28038,0.029920837,-0.23030038,-0.12988447
1734432639005,2024-12-17T10:50:39.005Z,28041,0.029920837,-0.23030038,-0.12988447
1734432639015,2024-12-17T10:50:39.015Z,28051,0.023191731,-0.21455501,-0.11781563
1734432639017,2024-12-17T10:50:39.017Z,28053,0.023191731,-0.21455501,-0.11781563
1734432639025,2024-12-17T10:50:39.025Z,28061,0.023523614,-0.20908074,-0.11088748
1734432639028,2024-12-17T10:50:39.028Z,28064,0.023523614,-0.20908074,-0.11088748
1734432639037,2024-12-17T10:50:39.037Z,28073,0.030425308,-0.20997581,-0.106685266
1734432639040,2024-12-17T10:50:39.040Z,28076,0.030425308,-0.20997581,-0.106685266
1734432639050,2024-12-17T10:50:39.050Z,28086,0.030178737,-0.18650916,-0.09369975
1734432639053,2024-12-17T10:50:39.053Z,28089,0.030178737,-0.18650916,-0.09369975
1734432639062,2024-12-17T10:50:39.062Z,28098,0.03198538,-0.183091,-0.099757046
1734432639065,2024-12-17T10:50:39.065Z,28101,0.03198538,-0.183091,-0.099757046
1734432639073,2024-12-17T10:50:39.073Z,28109,0.034471955,-0.17874606,-0.10334376
1734432639076,2024-12-17T10:50:39.076Z,28112,0.034471955,-0.17874606,-0.10334376
1734432639085,2024-12-17T10:50:39.085Z,28121,0.032725047,-0.17685576,-0.10726413
1734432639087,2024-12-17T10:50:39.087Z,28123,0.032725047,-0.17685576,-0.10726413
1734432639098,2024-12-17T10:50:39.098Z,28134,0.029714331,-0.17256461,-0.10621719
1734432639100,2024-12-17T10:50:39.100Z,28136,0.029714331,-0.17256461,-0.10621719
1734432639109,2024-12-17T10:50:39.109Z,28145,0.017667454,-0.16689312,-0.10474777
1734432639112,2024-12-17T10:50:39.112Z,28148,0.017667454,-0.16689312,-0.10474777
1734432639119,2024-12-17T10:50:39.119Z,28155,0.01645334,-0.17135261,-0.09219093
1734432639122,2024-12-17T10:50:39.122Z,28158,0.01645334,-0.17135261,-0.09219093
1734432639129,2024-12-17T10:50:39.129Z,28165,0.020913316,-0.15599486,-0.085006475
1734432639132,2024-12-17T10:50:39.132Z,28168,0.020913316,-0.15599486,-0.085006475
1734432639139,2024-12-17T10:50:39.139Z,28175,0.0039359313,-0.14525278,-0.08346934
1734432639141,2024-12-17T10:50:39.141Z,28177,0.0039359313,-0.14525278,-0.08346934
1734432639150,2024-12-17T10:50:39.150Z,28186,0.007265839,-0.13563353,-0.08367159
1734432639154,2024-12-17T10:50:39.154Z,28190,0.007265839,-0.13563353,-0.08367159
1734432639165,2024-12-17T10:50:39.165Z,28201,0.012818975,-0.12845752,-0.08443868
1734432639167,2024-12-17T10:50:39.167Z,28203,0.012818975,-0.12845752,-0.08443868
1734432639175,2024-12-17T10:50:39.175Z,28211,0.011602333,-0.12032722,-0.09301281
1734432639178,2024-12-17T10:50:39.178Z,28214,0.011602333,-0.12032722,-0.09301281
1734432639186,2024-12-17T10:50:39.186Z,28222,0.022570489,-0.118034415,-0.09856302
1734432639188,2024-12-17T10:50:39.188Z,28224,0.022570489,-0.118034415,-0.09856302
1734432639199,2024-12-17T10:50:39.199Z,28235,0.026704222,-0.12010433,-0.101984575
1734432639202,2024-12-17T10:50:39.202Z,28238,0.026704222,-0.12010433,-0.101984575
1734432639210,2024-12-17T10:50:39.210Z,28246,0.027393976,-0.10650696,-0.104246594
1734432639213,2024-12-17T10:50:39.213Z,28249,0.027393976,-0.10650696,-0.104246594
1734432639221,2024-12-17T10:50:39.221Z,28257,0.02962355,-0.10201859,-0.104914516
1734432639225,2024-12-17T10:50:39.225Z,28261,0.02962355,-0.10201859,-0.104914516
1734432639235,2024-12-17T10:50:39.235Z,28271,0.029886533,-0.09556134,-0.09911788
1734432639238,2024-12-17T10:50:39.238Z,28274,0.029886533,-0.09556134,-0.09911788
1734432639247,2024-12-17T10:50:39.247Z,28283,0.023746798,-0.080859624,-0.093399316
1734432639250,2024-12-17T10:50:39.250Z,28286,0.023746798,-0.080859624,-0.093399316
1734432639260,2024-12-17T10:50:39.260Z,28296,0.02445994,-0.07592897,-0.09303782
1734432639263,2024-12-17T10:50:39.263Z,28299,0.02445994,-0.07592897,-0.09303782
1734432639271,2024-12-17T10:50:39.271Z,28307,0.023274709,-0.07003683,-0.09167292
1734432639274,2024-12-17T10:50:39.274Z,28310,0.023274709,-0.07003683,-0.09167292
1734432639282,2024-12-17T10:50:39.282Z,28318,0.02556008,-0.06757792,-0.09321396
1734432639284,2024-12-17T10:50:39.284Z,28320,0.02556008,-0.06757792,-0.09321396
1734432639294,2024-12-17T10:50:39.294Z,28330,0.032902744,-0.06373537,-0.1056141
1734432639297,2024-12-17T10:50:39.297Z,28333,0.032902744,-0.06373537,-0.1056141
1734432639304,2024-12-17T10:50:39.304Z,28340,0.035971005,-0.050176613,-0.104867265
1734432639306,2024-12-17T10:50:39.306Z,28342,0.035971005,-0.050176613,-0.104867265
1734432639314,2024-12-17T10:50:39.314Z,28350,0.0313867,-0.049854334,-0.10947743
1734432639316,2024-12-17T10:50:39.316Z,28352,0.0313867,-0.049854334,-0.10947743
1734432639323,2024-12-17T10:50:39.323Z,28359,0.038654555,-0.037867386,-0.11313916
1734432639326,2024-12-17T10:50:39.326Z,28362,0.038654555,-0.037867386,-0.11313916
1734432639335,2024-12-17T10:50:39.335Z,28371,0.04065854,-0.016650364,-0.11194849
1734432639338,2024-12-17T10:50:39.338Z,28374,0.04065854,-0.016650364,-0.11194849
1734432639345,2024-12-17T10:50:39.345Z,28381,0.042302974,-0.006221131,-0.10927656
1734432639348,2024-12-17T10:50:39.348Z,28384,0.042302974,-0.006221131,-0.10927656
1734432639357,2024-12-17T10:50:39.357Z,28393,0.046078373,0.0017012515,-0.112458825
1734432639360,2024-12-17T10:50:39.360Z,28396,0.046078373,0.0017012515,-0.112458825
1734432639372,2024-12-17T10:50:39.372Z,28408,0.045533594,0.014950572,-0.12155185
1734432639375,2024-12-17T10:50:39.375Z,28411,0.045533594,0.014950572,-0.12155185
1734432639383,2024-12-17T10:50:39.383Z,28419,0.04699277,0.026699943,-0.13215226
1734432639386,2024-12-17T10:50:39.386Z,28422,0.04699277,0.026699943,-0.13215226
1734432639396,2024-12-17T10:50:39.396Z,28432,0.053735245,0.04967705,-0.1277284
1734432639398,2024-12-17T10:50:39.398Z,28434,0.053735245,0.04967705,-0.1277284
1734432639406,2024-12-17T10:50:39.406Z,28442,0.051075377,0.06535037,-0.12580955
1734432639409,2024-12-17T10:50:39.409Z,28445,0.051075377,0.06535037,-0.12580955
1734432639418,2024-12-17T10:50:39.418Z,28454,0.045446165,0.074679926,-0.13024238
1734432639425,2024-12-17T10:50:39.425Z,28461,0.045446165,0.074679926,-0.13024238
1734432639437,2024-12-17T10:50:39.437Z,28473,0.05251814,0.077653855,-0.12733817
1734432639440,2024-12-17T10:50:39.440Z,28476,0.05251814,0.077653855,-0.12733817
1734432639448,2024-12-17T10:50:39.448Z,28484,0.057312284,0.090337776,-0.13268164
1734432639452,2024-12-17T10:50:39.452Z,28488,0.057312284,0.090337776,-0.13268164
1734432639460,2024-12-17T10:50:39.460Z,28496,0.060294654,0.09906566,-0.14822765
1734432639462,2024-12-17T10:50:39.462Z,28498,0.060294654,0.09906566,-0.14822765
1734432639471,2024-12-17T10:50:39.471Z,28507,0.070186906,0.1087421,-0.15542679
1734432639473,2024-12-17T10:50:39.473Z,28509,0.070186906,0.1087421,-0.15542679
1734432639484,2024-12-17T10:50:39.484Z,28520,0.07569711,0.117913485,-0.15237668
1734432639487,2024-12-17T10:50:39.487Z,28523,0.07569711,0.117913485,-0.15237668
1734432639496,2024-12-17T10:50:39.496Z,28532,0.07830388,0.1324314,-0.1522733
1734432639498,2024-12-17T10:50:39.498Z,28534,0.07830388,0.1324314,-0.1522733
1734432639508,2024-12-17T10:50:39.508Z,28544,0.09198863,0.15236285,-0.14681134
1734432639510,2024-12-17T10:50:39.510Z,28546,0.09198863,0.15236285,-0.14681134
1734432639520,2024-12-17T10:50:39.520Z,28556,0.102034464,0.164074,-0.14423466
1734432639523,2024-12-17T10:50:39.523Z,28559,0.102034464,0.164074,-0.14423466
1734432639533,2024-12-17T10:50:39.533Z,28569,0.10312775,0.17485859,-0.14557528
1734432639536,2024-12-17T10:50:39.536Z,28572,0.10312775,0.17485859,-0.14557528
1734432639546,2024-12-17T10:50:39.546Z,28582,0.10591555,0.18570715,-0.1446068
1734432639549,2024-12-17T10:50:39.549Z,28585,0.10591555,0.18570715,-0.1446068
1734432639557,2024-12-17T10:50:39.557Z,28593,0.11671683,0.19031951,-0.15092003
1734432639560,2024-12-17T10:50:39.560Z,28596,0.11671683,0.19031951,-0.15092003
1734432639569,2024-12-17T10:50:39.569Z,28605,0.13559458,0.20235874,-0.16103214
1734432639572,2024-12-17T10:50:39.572Z,28608,0.13559458,0.20235874,-0.16103214
1734432639581,2024-12-17T10:50:39.581Z,28617,0.14632185,0.21945158,-0.16310945
1734432639584,2024-12-17T10:50:39.584Z,28620,0.14632185,0.21945158,-0.16310945
1734432639592,2024-12-17T10:50:39.592Z,28628,0.14838445,0.2303829,-0.17373574
1734432639595,2024-12-17T10:50:39.595Z,28631,0.14838445,0.2303829,-0.17373574
1734432639603,2024-12-17T10:50:39.603Z,28639,0.15309078,0.23851281,-0.17059451
1734432639606,2024-12-17T10:50:39.606Z,28642,0.15309078,0.23851281,-0.17059451
1734432639615,2024-12-17T10:50:39.615Z,28651,0.14284512,0.23798971,-0.15514822
1734432639618,2024-12-17T10:50:39.618Z,28654,0.14284512,0.23798971,-0.15514822
1734432639626,2024-12-17T10:50:39.626Z,28662,0.1359597,0.2423712,-0.1494667
1734432639628,2024-12-17T10:50:39.628Z,28664,0.1359597,0.2423712,-0.1494667
1734432639636,2024-12-17T10:50:39.636Z,28672,0.14082494,0.25356057,-0.14971901
1734432639639,2024-12-17T10:50:39.639Z,28675,0.14082494,0.25356057,-0.14971901
1734432639646,2024-12-17T10:50:39.646Z,28682,0.15391186,0.2603827,-0.14510262
1734432639649,2024-12-17T10:50:39.649Z,28685,0.15391186,0.2603827,-0.14510262
1734432639658,2024-12-17T10:50:39.658Z,28694,0.15821558,0.25842607,-0.13162905
1734432639661,2024-12-17T10:50:39.661Z,28697,0.15821558,0.25842607,-0.13162905
1734432639670,2024-12-17T10:50:39.670Z,28706,0.15237236,0.26231247,-0.134132
1734432639672,2024-12-17T10:50:39.672Z,28708,0.15237236,0.26231247,-0.134132
1734432639680,2024-12-17T10:50:39.680Z,28716,0.1631926,0.28034884,-0.14485791
1734432639683,2024-12-17T10:50:39.683Z,28719,0.1631926,0.28034884,-0.14485791
1734432639691,2024-12-17T10:50:39.691Z,28727,0.18314627,0.29454455,-0.14527255
1734432639693,2024-12-17T10:50:39.693Z,28729,0.18314627,0.29454455,-0.14527255
1734432639702,2024-12-17T10:50:39.702Z,28738,0.17319193,0.28636575,-0.14987487
1734432639705,2024-12-17T10:50:39.705Z,28741,0.17319193,0.28636575,-0.14987487
1734432639713,2024-12-17T10:50:39.713Z,28749,0.14755447,0.27722952,-0.1520443
1734432639717,2024-12-17T10:50:39.717Z,28753,0.14755447,0.27722952,-0.1520443
1734432639724,2024-12-17T10:50:39.724Z,28760,0.15346767,0.28230184,-0.15482879
1734432639726,2024-12-17T10:50:39.726Z,28762,0.15346767,0.28230184,-0.15482879
1734432639733,2024-12-17T10:50:39.733Z,28769,0.1622719,0.27615055,-0.15032518
1734432639736,2024-12-17T10:50:39.736Z,28772,0.1622719,0.27615055,-0.15032518
1734432639743,2024-12-17T10:50:39.743Z,28779,0.1613984,0.2807199,-0.13597931
1734432639745,2024-12-17T10:50:39.745Z,28781,0.1613984,0.2807199,-0.13597931
1734432639755,2024-12-17T10:50:39.755Z,28791,0.14404699,0.2920908,-0.12691903
1734432639757,2024-12-17T10:50:39.757Z,28793,0.14404699,0.2920908,-0.12691903
1734432639765,2024-12-17T10:50:39.765Z,28801,0.14583097,0.28392443,-0.12354126
1734432639768,2024-12-17T10:50:39.768Z,28804,0.14583097,0.28392443,-0.12354126
1734432639775,2024-12-17T10:50:39.775Z,28811,0.16528668,0.26010242,-0.12304554
1734432639777,2024-12-17T10:50:39.777Z,28813,0.16528668,0.26010242,-0.12304554
1734432639785,2024-12-17T10:50:39.785Z,28821,0.13718052,0.25519338,-0.12994915
1734432639787,2024-12-17T10:50:39.787Z,28823,0.13718052,0.25519338,-0.12994915
1734432639794,2024-12-17T10:50:39.794Z,28830,0.099947,0.25264812,-0.13596459
1734432639796,2024-12-17T10:50:39.796Z,28832,0.099947,0.25264812,-0.13596459
1734432639806,2024-12-17T10:50:39.806Z,28842,0.098889284,0.23835507,-0.14642747
1734432639809,2024-12-17T10:50:39.809Z,28845,0.098889284,0.23835507,-0.14642747
1734432639818,2024-12-17T10:50:39.818Z,28854,0.12708835,0.22503592,-0.1540536
1734432639820,2024-12-17T10:50:39.820Z,28856,0.12708835,0.22503592,-0.1540536
1734432639827,2024-12-17T10:50:39.827Z,28863,0.12062475,0.21217735,-0.14179331
1734432639830,2024-12-17T10:50:39.830Z,28866,0.12062475,0.21217735,-0.14179331
1734432639837,2024-12-17T10:50:39.837Z,28873,0.09382664,0.19925205,-0.13341321
1734432639839,2024-12-17T10:50:39.839Z,28875,0.09382664,0.19925205,-0.13341321
1734432639848,2024-12-17T10:50:39.848Z,28884,0.07408246,0.18965414,-0.13333854
1734432639851,2024-12-17T10:50:39.851Z,28887,0.07408246,0.18965414,-0.13333854
1734432639859,2024-12-17T10:50:39.859Z,28895,0.075444825,0.17609811,-0.1347563
1734432639862,2024-12-17T10:50:39.862Z,28898,0.075444825,0.17609811,-0.1347563
1734432639870,2024-12-17T10:50:39.870Z,28906,0.08421256,0.15664575,-0.13275993
1734432639873,2024-12-17T10:50:39.873Z,28909,0.08421256,0.15664575,-0.13275993
1734432639882,2024-12-17T10:50:39.882Z,28918,0.07017269,0.13958164,-0.13462216
1734432639885,2024-12-17T10:50:39.885Z,28921,0.07017269,0.13958164,-0.13462216
1734432639894,2024-12-17T10:50:39.894Z,28930,0.052316863,0.12688984,-0.14320672
1734432639897,2024-12-17T10:50:39.897Z,28933,0.052316863,0.12688984,-0.14320672
1734432639906,2024-12-17T10:50:39.906Z,28942,0.050988972,0.11422721,-0.14298034
1734432639909,2024-12-17T10:50:39.909Z,28945,0.050988972,0.11422721,-0.14298034
1734432639919,2024-12-17T10:50:39.919Z,28955,0.06028296,0.09722136,-0.13734388
1734432639922,2024-12-17T10:50:39.922Z,28958,0.06028296,0.09722136,-0.13734388
1734432639936,2024-12-17T10:50:39.936Z,28972,0.03682975,0.080722995,-0.12480921
1734432639939,2024-12-17T10:50:39.939Z,28975,0.03682975,0.080722995,-0.12480921
1734432639950,2024-12-17T10:50:39.950Z,28986,0.018642897,0.07597254,-0.11819626
1734432639953,2024-12-17T10:50:39.953Z,28989,0.018642897,0.07597254,-0.11819626
1734432639960,2024-12-17T10:50:39.960Z,28996,0.016388793,0.060049005,-0.12192453
1734432639962,2024-12-17T10:50:39.962Z,28998,0.016388793,0.060049005,-0.12192453
1734432639971,2024-12-17T10:50:39.971Z,29007,0.017363846,0.035882752,-0.11453539
1734432639973,2024-12-17T10:50:39.973Z,29009,0.017363846,0.035882752,-0.11453539
1734432639981,2024-12-17T10:50:39.981Z,29017,0.0040508294,0.021510513,-0.11119664
1734432639984,2024-12-17T10:50:39.984Z,29020,0.0040508294,0.021510513,-0.11119664
1734432639991,2024-12-17T10:50:39.991Z,29027,-0.0054367064,0.012523561,-0.10553096
1734432639994,2024-12-17T10:50:39.994Z,29030,-0.0054367064,0.012523561,-0.10553096
1734432640003,2024-12-17T10:50:40.003Z,29039,0.0010447078,0.0045564445,-0.10973337
1734432640006,2024-12-17T10:50:40.006Z,29042,0.0010447078,0.0045564445,-0.10973337
1734432640015,2024-12-17T10:50:40.015Z,29051,-0.004288162,-0.016058417,-0.11827762
1734432640018,2024-12-17T10:50:40.018Z,29054,-0.004288162,-0.016058417,-0.11827762
1734432640026,2024-12-17T10:50:40.026Z,29062,-0.016545556,-0.042012278,-0.119526304
1734432640030,2024-12-17T10:50:40.030Z,29066,-0.016545556,-0.042012278,-0.119526304
1734432640038,2024-12-17T10:50:40.038Z,29074,-0.034210116,-0.06112719,-0.11157184
1734432640040,2024-12-17T10:50:40.040Z,29076,-0.034210116,-0.06112719,-0.11157184
1734432640051,2024-12-17T10:50:40.051Z,29087,-0.042168334,-0.06412592,-0.098875076
1734432640053,2024-12-17T10:50:40.053Z,29089,-0.042168334,-0.06412592,-0.098875076
1734432640061,2024-12-17T10:50:40.061Z,29097,-0.035127018,-0.052942336,-0.08787101
1734432640063,2024-12-17T10:50:40.063Z,29099,-0.035127018,-0.052942336,-0.08787101
1734432640072,2024-12-17T10:50:40.072Z,29108,-0.04634148,-0.054398526,-0.07995945
1734432640075,2024-12-17T10:50:40.075Z,29111,-0.04634148,-0.054398526,-0.07995945
1734432640084,2024-12-17T10:50:40.084Z,29120,-0.05564692,-0.05926898,-0.07751349
1734432640087,2024-12-17T10:50:40.087Z,29123,-0.05564692,-0.05926898,-0.07751349
1734432640094,2024-12-17T10:50:40.094Z,29130,-0.059194002,-0.061206546,-0.08167548
1734432640097,2024-12-17T10:50:40.097Z,29133,-0.059194002,-0.061206546,-0.08167548
1734432640104,2024-12-17T10:50:40.104Z,29140,-0.058503643,-0.056783523,-0.074950874
1734432640106,2024-12-17T10:50:40.106Z,29142,-0.058503643,-0.056783523,-0.074950874
1734432640114,2024-12-17T10:50:40.114Z,29150,-0.054473355,-0.038790267,-0.05958284
1734432640117,2024-12-17T10:50:40.117Z,29153,-0.054473355,-0.038790267,-0.05958284
1734432640124,2024-12-17T10:50:40.124Z,29160,-0.060534902,-0.010715726,-0.058068465
1734432640126,2024-12-17T10:50:40.126Z,29162,-0.060534902,-0.010715726,-0.058068465
1734432640135,2024-12-17T10:50:40.135Z,29171,-0.052445788,0.0032884316,-0.058203798
1734432640137,2024-12-17T10:50:40.137Z,29173,-0.052445788,0.0032884316,-0.058203798
1734432640144,2024-12-17T10:50:40.144Z,29180,-0.031284492,0.003633272,-0.063913055
1734432640146,2024-12-17T10:50:40.146Z,29182,-0.031284492,0.003633272,-0.063913055
1734432640154,2024-12-17T10:50:40.154Z,29190,-0.013913133,0.017573927,-0.07318703
1734432640156,2024-12-17T10:50:40.156Z,29192,-0.013913133,0.017573927,-0.07318703
1734432640166,2024-12-17T10:50:40.166Z,29202,-0.0034843856,0.050077613,-0.069965936
1734432640169,2024-12-17T10:50:40.169Z,29205,-0.0034843856,0.050077613,-0.069965936
1734432640180,2024-12-17T10:50:40.180Z,29216,0.0074043437,0.07719456,-0.0678597
1734432640183,2024-12-17T10:50:40.183Z,29219,0.0074043437,0.07719456,-0.0678597
1734432640190,2024-12-17T10:50:40.190Z,29226,0.02301056,0.08923596,-0.07797662
1734432640193,2024-12-17T10:50:40.193Z,29229,0.02301056,0.08923596,-0.07797662
1734432640200,2024-12-17T10:50:40.200Z,29236,0.04200175,0.09640569,-0.08465586
1734432640202,2024-12-17T10:50:40.202Z,29238,0.04200175,0.09640569,-0.08465586
1734432640211,2024-12-17T10:50:40.211Z,29247,0.057001892,0.106049456,-0.078134604
1734432640215,2024-12-17T10:50:40.215Z,29251,0.057001892,0.106049456,-0.078134604
1734432640223,2024-12-17T10:50:40.223Z,29259,0.072414294,0.12989159,-0.07935411
1734432640226,2024-12-17T10:50:40.226Z,29262,0.072414294,0.12989159,-0.07935411
1734432640234,2024-12-17T10:50:40.234Z,29270,0.08088535,0.14744397,-0.0907175
1734432640237,2024-12-17T10:50:40.237Z,29273,0.08088535,0.14744397,-0.0907175
1734432640245,2024-12-17T10:50:40.245Z,29281,0.09163214,0.15190326,-0.08874751
1734432640248,2024-12-17T10:50:40.248Z,29284,0.09163214,0.15190326,-0.08874751
1734432640256,2024-12-17T10:50:40.256Z,29292,0.10123378,0.16572128,-0.07985265
1734432640258,2024-12-17T10:50:40.258Z,29294,0.10123378,0.16572128,-0.07985265
1734432640268,2024-12-17T10:50:40.268Z,29304,0.106804445,0.18546286,-0.07379007
1734432640270,2024-12-17T10:50:40.270Z,29306,0.106804445,0.18546286,-0.07379007
1734432640277,2024-12-17T10:50:40.277Z,29313,0.095823206,0.18568332,-0.073391795
1734432640279,2024-12-17T10:50:40.279Z,29315,0.095823206,0.18568332,-0.073391795
1734432640287,2024-12-17T10:50:40.287Z,29323,0.09131648,0.18488853,-0.08607988
1734432640290,2024-12-17T10:50:40.290Z,29326,0.09131648,0.18488853,-0.08607988
1734432640299,2024-12-17T10:50:40.299Z,29335,0.09574592,0.18109976,-0.08167894
1734432640301,2024-12-17T10:50:40.301Z,29337,0.09574592,0.18109976,-0.08167894
1734432640309,2024-12-17T10:50:40.309Z,29345,0.100381136,0.19382174,-0.07436345
1734432640311,2024-12-17T10:50:40.311Z,29347,0.100381136,0.19382174,-0.07436345
1734432640318,2024-12-17T10:50:40.318Z,29354,0.10079417,0.21330133,-0.08318419
1734432640320,2024-12-17T10:50:40.320Z,29356,0.10079417,0.21330133,-0.08318419
1734432640327,2024-12-17T10:50:40.327Z,29363,0.10761904,0.21713844,-0.090968415
1734432640330,2024-12-17T10:50:40.330Z,29366,0.10761904,0.21713844,-0.090968415
1734432640337,2024-12-17T10:50:40.337Z,29373,0.122354425,0.20630485,-0.114272036
1734432640339,2024-12-17T10:50:40.339Z,29375,0.122354425,0.20630485,-0.114272036
1734432640347,2024-12-17T10:50:40.347Z,29383,0.14480199,0.20186579,-0.14241803
1734432640351,2024-12-17T10:50:40.351Z,29387,0.14480199,0.20186579,-0.14241803
1734432640359,2024-12-17T10:50:40.359Z,29395,0.14805418,0.20727004,-0.14215297
1734432640362,2024-12-17T10:50:40.362Z,29398,0.14805418,0.20727004,-0.14215297
1734432640371,2024-12-17T10:50:40.371Z,29407,0.108465455,0.2300898,-0.13258034
1734432640374,2024-12-17T10:50:40.374Z,29410,0.108465455,0.2300898,-0.13258034
1734432640382,2024-12-17T10:50:40.382Z,29418,0.10008178,0.21675286,-0.11169058
1734432640386,2024-12-17T10:50:40.386Z,29422,0.10008178,0.21675286,-0.11169058
1734432640402,2024-12-17T10:50:40.402Z,29438,0.10375026,0.21117142,-0.11320553
1734432640405,2024-12-17T10:50:40.405Z,29441,0.10375026,0.21117142,-0.11320553
1734432640411,2024-12-17T10:50:40.411Z,29447,0.1477283,0.22613192,-0.12667239
1734432640414,2024-12-17T10:50:40.414Z,29450,0.1477283,0.22613192,-0.12667239
1734432640421,2024-12-17T10:50:40.421Z,29457,0.1858921,0.2435056,-0.14940464
1734432640423,2024-12-17T10:50:40.423Z,29459,0.1858921,0.2435056,-0.14940464
1734432640430,2024-12-17T10:50:40.430Z,29466,0.17724872,0.2320931,-0.15964682
1734432640432,2024-12-17T10:50:40.432Z,29468,0.17724872,0.2320931,-0.15964682
1734432640439,2024-12-17T10:50:40.439Z,29475,0.12034517,0.22017656,-0.13754824
1734432640441,2024-12-17T10:50:40.441Z,29477,0.12034517,0.22017656,-0.13754824
1734432640448,2024-12-17T10:50:40.448Z,29484,0.11346803,0.22475809,-0.11893189
1734432640451,2024-12-17T10:50:40.451Z,29487,0.11346803,0.22475809,-0.11893189
1734432640458,2024-12-17T10:50:40.458Z,29494,0.11719388,0.2306799,-0.12762149
1734432640461,2024-12-17T10:50:40.461Z,29497,0.11719388,0.2306799,-0.12762149
1734432640470,2024-12-17T10:50:40.470Z,29506,0.11608029,0.22230794,-0.15215285
1734432640472,2024-12-17T10:50:40.472Z,29508,0.11608029,0.22230794,-0.15215285
1734432640479,2024-12-17T10:50:40.479Z,29515,0.12606078,0.18264346,-0.15921088
1734432640482,2024-12-17T10:50:40.482Z,29518,0.12606078,0.18264346,-0.15921088
1734432640488,2024-12-17T10:50:40.488Z,29524,0.14221364,0.16589653,-0.16786706
1734432640490,2024-12-17T10:50:40.490Z,29526,0.14221364,0.16589653,-0.16786706
1734432640497,2024-12-17T10:50:40.497Z,29533,0.14819445,0.17995436,-0.15862289
1734432640500,2024-12-17T10:50:40.500Z,29536,0.14819445,0.17995436,-0.15862289
1734432640508,2024-12-17T10:50:40.508Z,29544,0.15652503,0.1692505,-0.15085287
1734432640511,2024-12-17T10:50:40.511Z,29547,0.15652503,0.1692505,-0.15085287
1734432640522,2024-12-17T10:50:40.522Z,29558,0.16479449,0.12647994,-0.14882235
1734432640525,2024-12-17T10:50:40.525Z,29561,0.16479449,0.12647994,-0.14882235
1734432640536,2024-12-17T10:50:40.536Z,29572,0.13304749,0.105309255,-0.12623082
1734432640538,2024-12-17T10:50:40.538Z,29574,0.13304749,0.105309255,-0.12623082
1734432640545,2024-12-17T10:50:40.545Z,29581,0.08768248,0.11641801,-0.11259909
1734432640548,2024-12-17T10:50:40.548Z,29584,0.08768248,0.11641801,-0.11259909
1734432640555,2024-12-17T10:50:40.555Z,29591,0.089833766,0.09875768,-0.12687244
1734432640557,2024-12-17T10:50:40.557Z,29593,0.089833766,0.09875768,-0.12687244
1734432640564,2024-12-17T10:50:40.564Z,29600,0.108156115,0.06600601,-0.14328642
1734432640566,2024-12-17T10:50:40.566Z,29602,0.108156115,0.06600601,-0.14328642
1734432640574,2024-12-17T10:50:40.574Z,29610,0.07633741,0.05128757,-0.12932579
1734432640577,2024-12-17T10:50:40.577Z,29613,0.07633741,0.05128757,-0.12932579
1734432640585,2024-12-17T10:50:40.585Z,29621,0.04230358,0.03748102,-0.12358903
1734432640587,2024-12-17T10:50:40.587Z,29623,0.04230358,0.03748102,-0.12358903
1734432640594,2024-12-17T10:50:40.594Z,29630,0.039130267,0.011416201,-0.13012002
1734432640596,2024-12-17T10:50:40.596Z,29632,0.039130267,0.011416201,-0.13012002
1734432640603,2024-12-17T10:50:40.603Z,29639,0.046149947,-0.019014847,-0.12781295
1734432640606,2024-12-17T10:50:40.606Z,29642,0.046149947,-0.019014847,-0.12781295
1734432640613,2024-12-17T10:50:40.613Z,29649,0.053062826,-0.017683038,-0.08990098
1734432640616,2024-12-17T10:50:40.616Z,29652,0.053062826,-0.017683038,-0.08990098
1734432640624,2024-12-17T10:50:40.624Z,29660,0.022953792,-0.023539878,-0.06516821
1734432640626,2024-12-17T10:50:40.626Z,29662,0.022953792,-0.023539878,-0.06516821
1734432640634,2024-12-17T10:50:40.634Z,29670,0.025699751,-0.0653634,-0.090487696
1734432640637,2024-12-17T10:50:40.637Z,29673,0.025699751,-0.0653634,-0.090487696
1734432640648,2024-12-17T10:50:40.648Z,29684,0.019193854,-0.09239875,-0.08120188
1734432640650,2024-12-17T10:50:40.650Z,29686,0.019193854,-0.09239875,-0.08120188
1734432640659,2024-12-17T10:50:40.659Z,29695,-0.020317115,-0.09886242,-0.06815183
1734432640661,2024-12-17T10:50:40.661Z,29697,-0.020317115,-0.09886242,-0.06815183
1734432640670,2024-12-17T10:50:40.670Z,29706,-0.03957948,-0.11211748,-0.08702043
1734432640672,2024-12-17T10:50:40.672Z,29708,-0.03957948,-0.11211748,-0.08702043
1734432640679,2024-12-17T10:50:40.679Z,29715,-0.028073981,-0.13845001,-0.100759804
1734432640682,2024-12-17T10:50:40.682Z,29718,-0.028073981,-0.13845001,-0.100759804
1734432640690,2024-12-17T10:50:40.690Z,29726,-0.028562432,-0.15255414,-0.07672321
1734432640692,2024-12-17T10:50:40.692Z,29728,-0.028562432,-0.15255414,-0.07672321
1734432640699,2024-12-17T10:50:40.699Z,29735,-0.038904022,-0.14714776,-0.055823274
1734432640702,2024-12-17T10:50:40.702Z,29738,-0.038904022,-0.14714776,-0.055823274
1734432640709,2024-12-17T10:50:40.709Z,29745,-0.0475323,-0.15684131,-0.07073089
1734432640713,2024-12-17T10:50:40.713Z,29749,-0.0475323,-0.15684131,-0.07073089
1734432640721,2024-12-17T10:50:40.721Z,29757,-0.032969773,-0.17628054,-0.06489731
1734432640724,2024-12-17T10:50:40.724Z,29760,-0.032969773,-0.17628054,-0.06489731
1734432640732,2024-12-17T10:50:40.732Z,29768,-0.025926994,-0.16011535,-0.025835315
1734432640734,2024-12-17T10:50:40.734Z,29770,-0.025926994,-0.16011535,-0.025835315
1734432640741,2024-12-17T10:50:40.741Z,29777,-0.028923415,-0.14199343,-0.008127161
1734432640744,2024-12-17T10:50:40.744Z,29780,-0.028923415,-0.14199343,-0.008127161
1734432640753,2024-12-17T10:50:40.753Z,29789,-0.021929286,-0.14239827,-0.0038029326
1734432640756,2024-12-17T10:50:40.756Z,29792,-0.021929286,-0.14239827,-0.0038029326
1734432640766,2024-12-17T10:50:40.766Z,29802,0.004883318,-0.1589262,0.011961056
1734432640768,2024-12-17T10:50:40.768Z,29804,0.004883318,-0.1589262,0.011961056
1734432640775,2024-12-17T10:50:40.775Z,29811,0.023323137,-0.14082947,-0.013522866
1734432640777,2024-12-17T10:50:40.777Z,29813,0.023323137,-0.14082947,-0.013522866
1734432640785,2024-12-17T10:50:40.785Z,29821,-3.7593534E-4,-0.12562576,-0.04480348
1734432640787,2024-12-17T10:50:40.787Z,29823,-3.7593534E-4,-0.12562576,-0.04480348
1734432640794,2024-12-17T10:50:40.794Z,29830,0.011223966,-0.14942822,-0.0639941
1734432640796,2024-12-17T10:50:40.796Z,29832,0.011223966,-0.14942822,-0.0639941
1734432640805,2024-12-17T10:50:40.805Z,29841,0.03088952,-0.1663819,-0.07063952
1734432640807,2024-12-17T10:50:40.807Z,29843,0.03088952,-0.1663819,-0.07063952
1734432640816,2024-12-17T10:50:40.816Z,29852,0.043246593,-0.16335584,-0.047053915
1734432640821,2024-12-17T10:50:40.821Z,29857,0.043246593,-0.16335584,-0.047053915
1734432640832,2024-12-17T10:50:40.832Z,29868,0.046578057,-0.18721196,-0.007013663
1734432640835,2024-12-17T10:50:40.835Z,29871,0.046578057,-0.18721196,-0.007013663
1734432640849,2024-12-17T10:50:40.849Z,29885,-0.01189748,-0.15132385,-0.0011724062
1734432640851,2024-12-17T10:50:40.851Z,29887,-0.01189748,-0.15132385,-0.0011724062
1734432640859,2024-12-17T10:50:40.859Z,29895,0.03635742,-0.14244816,0.031221744
1734432640861,2024-12-17T10:50:40.861Z,29897,0.03635742,-0.14244816,0.031221744
1734432640869,2024-12-17T10:50:40.869Z,29905,0.06678134,-0.1448708,0.03241818
1734432640872,2024-12-17T10:50:40.872Z,29908,0.06678134,-0.1448708,0.03241818
1734432640881,2024-12-17T10:50:40.881Z,29917,0.025918948,-0.17323309,-0.010919241
1734432640884,2024-12-17T10:50:40.884Z,29920,0.025918948,-0.17323309,-0.010919241
1734432640892,2024-12-17T10:50:40.892Z,29928,0.024317374,-0.21912925,-0.038618512
1734432640894,2024-12-17T10:50:40.894Z,29930,0.024317374,-0.21912925,-0.038618512
1734432640903,2024-12-17T10:50:40.903Z,29939,0.020669442,-0.23183125,-0.04826663
1734432640906,2024-12-17T10:50:40.906Z,29942,0.020669442,-0.23183125,-0.04826663
1734432640913,2024-12-17T10:50:40.913Z,29949,0.07548155,-0.23375335,-0.07339883
1734432640916,2024-12-17T10:50:40.916Z,29952,0.07548155,-0.23375335,-0.07339883
1734432640925,2024-12-17T10:50:40.925Z,29961,0.14790092,-0.25456876,-0.1080184
1734432640928,2024-12-17T10:50:40.928Z,29964,0.14790092,-0.25456876,-0.1080184
1734432640936,2024-12-17T10:50:40.936Z,29972,0.11692116,-0.29776764,-0.08741302
1734432640938,2024-12-17T10:50:40.938Z,29974,0.11692116,-0.29776764,-0.08741302
1734432640945,2024-12-17T10:50:40.945Z,29981,0.051150136,-0.29759958,-0.008183189
1734432640951,2024-12-17T10:50:40.951Z,29987,0.051150136,-0.29759958,-0.008183189
1734432640958,2024-12-17T10:50:40.958Z,29994,0.03605482,-0.2761096,0.0336272
1734432640960,2024-12-17T10:50:40.960Z,29996,0.03605482,-0.2761096,0.0336272
1734432640968,2024-12-17T10:50:40.968Z,30004,0.066067286,-0.2811134,0.030130807
1734432640971,2024-12-17T10:50:40.971Z,30007,0.066067286,-0.2811134,0.030130807
1734432640979,2024-12-17T10:50:40.979Z,30015,0.07086334,-0.28921208,0.041661553
1734432640981,2024-12-17T10:50:40.981Z,30017,0.07086334,-0.28921208,0.041661553
1734432640989,2024-12-17T10:50:40.989Z,30025,0.039736133,-0.28768858,-0.013666513
1734432640991,2024-12-17T10:50:40.991Z,30027,0.039736133,-0.28768858,-0.013666513
1734432640999,2024-12-17T10:50:40.999Z,30035,0.03154017,-0.31350058,-0.06311429
1734432641002,2024-12-17T10:50:41.002Z,30038,0.03154017,-0.31350058,-0.06311429
1734432641009,2024-12-17T10:50:41.009Z,30045,0.080373295,-0.31487176,-0.042237222
1734432641012,2024-12-17T10:50:41.012Z,30048,0.080373295,-0.31487176,-0.042237222
1734432641020,2024-12-17T10:50:41.020Z,30056,0.09506511,-0.29520556,-0.013297834
1734432641023,2024-12-17T10:50:41.023Z,30059,0.09506511,-0.29520556,-0.013297834
1734432641029,2024-12-17T10:50:41.029Z,30065,0.0695283,-0.30235288,-0.0028339322
1734432641032,2024-12-17T10:50:41.032Z,30068,0.0695283,-0.30235288,-0.0028339322
1734432641039,2024-12-17T10:50:41.039Z,30075,0.057707027,-0.30266678,-0.013812482
1734432641041,2024-12-17T10:50:41.041Z,30077,0.057707027,-0.30266678,-0.013812482
1734432641049,2024-12-17T10:50:41.049Z,30085,0.055818595,-0.2956603,-0.018359153
1734432641052,2024-12-17T10:50:41.052Z,30088,0.055818595,-0.2956603,-0.018359153
1734432641059,2024-12-17T10:50:41.059Z,30095,0.056923013,-0.30038613,-0.0220154
1734432641061,2024-12-17T10:50:41.061Z,30097,0.056923013,-0.30038613,-0.0220154
1734432641069,2024-12-17T10:50:41.069Z,30105,0.053819913,-0.3075536,-0.01870539
1734432641071,2024-12-17T10:50:41.071Z,30107,0.053819913,-0.3075536,-0.01870539
1734432641077,2024-12-17T10:50:41.077Z,30113,0.03301177,-0.300154,-0.019842168
1734432641080,2024-12-17T10:50:41.080Z,30116,0.03301177,-0.300154,-0.019842168
1734432641087,2024-12-17T10:50:41.087Z,30123,0.023339488,-0.29524884,-0.010103564
1734432641089,2024-12-17T10:50:41.089Z,30125,0.023339488,-0.29524884,-0.010103564
1734432641098,2024-12-17T10:50:41.098Z,30134,0.02705491,-0.31336948,-0.030754395
1734432641101,2024-12-17T10:50:41.101Z,30137,0.02705491,-0.31336948,-0.030754395
1734432641116,2024-12-17T10:50:41.116Z,30152,0.014597708,-0.31792477,-0.04604289
1734432641121,2024-12-17T10:50:41.121Z,30157,0.014597708,-0.31792477,-0.04604289
1734432641138,2024-12-17T10:50:41.138Z,30174,-0.004173313,-0.30257624,-0.03882051
1734432641143,2024-12-17T10:50:41.143Z,30179,-0.004173313,-0.30257624,-0.03882051
1734432641160,2024-12-17T10:50:41.160Z,30196,-0.004449788,-0.2863532,-0.03647556
1734432641164,2024-12-17T10:50:41.164Z,30200,-0.004449788,-0.2863532,-0.03647556
1734432641175,2024-12-17T10:50:41.175Z,30211,8.98812E-4,-0.27847904,-0.047733225
1734432641178,2024-12-17T10:50:41.178Z,30214,8.98812E-4,-0.27847904,-0.047733225
1734432641188,2024-12-17T10:50:41.188Z,30224,-0.007094099,-0.26628456,-0.047240607
1734432641191,2024-12-17T10:50:41.191Z,30227,-0.007094099,-0.26628456,-0.047240607
1734432641201,2024-12-17T10:50:41.201Z,30237,-0.004849841,-0.26187038,-0.046603367
1734432641204,2024-12-17T10:50:41.204Z,30240,-0.004849841,-0.26187038,-0.046603367
1734432641212,2024-12-17T10:50:41.212Z,30248,0.0042242464,-0.24472144,-0.05896265
1734432641215,2024-12-17T10:50:41.215Z,30251,0.0042242464,-0.24472144,-0.05896265
1734432641224,2024-12-17T10:50:41.224Z,30260,0.0033240484,-0.22797237,-0.046234395
1734432641226,2024-12-17T10:50:41.226Z,30262,0.0033240484,-0.22797237,-0.046234395
1734432641234,2024-12-17T10:50:41.234Z,30270,-0.0115330685,-0.23062024,-0.050288666
1734432641237,2024-12-17T10:50:41.237Z,30273,-0.0115330685,-0.23062024,-0.050288666
1734432641245,2024-12-17T10:50:41.245Z,30281,-0.00641903,-0.21951668,-0.054519404
1734432641247,2024-12-17T10:50:41.247Z,30283,-0.00641903,-0.21951668,-0.054519404
1734432641255,2024-12-17T10:50:41.255Z,30291,0.0154836355,-0.20680436,-0.0359641
1734432641257,2024-12-17T10:50:41.257Z,30293,0.0154836355,-0.20680436,-0.0359641
1734432641265,2024-12-17T10:50:41.265Z,30301,0.013348221,-0.20181206,-0.006368242
1734432641267,2024-12-17T10:50:41.267Z,30303,0.013348221,-0.20181206,-0.006368242
1734432641274,2024-12-17T10:50:41.274Z,30310,-0.0014195978,-0.18160252,-0.011978572
1734432641277,2024-12-17T10:50:41.277Z,30313,-0.0014195978,-0.18160252,-0.011978572
1734432641286,2024-12-17T10:50:41.286Z,30322,0.0057359375,-0.18475218,-0.028022682
1734432641289,2024-12-17T10:50:41.289Z,30325,0.0057359375,-0.18475218,-0.028022682
1734432641298,2024-12-17T10:50:41.298Z,30334,0.024371408,-0.19562526,-0.038541883
1734432641303,2024-12-17T10:50:41.303Z,30339,0.024371408,-0.19562526,-0.038541883
1734432641313,2024-12-17T10:50:41.313Z,30349,0.009599783,-0.19717567,-0.029536903
1734432641316,2024-12-17T10:50:41.316Z,30352,0.009599783,-0.19717567,-0.029536903
1734432641324,2024-12-17T10:50:41.324Z,30360,0.0045298957,-0.1870132,-0.022342212
1734432641327,2024-12-17T10:50:41.327Z,30363,0.0045298957,-0.1870132,-0.022342212
1734432641335,2024-12-17T10:50:41.335Z,30371,0.019784039,-0.18462284,-0.022441296
1734432641338,2024-12-17T10:50:41.338Z,30374,0.019784039,-0.18462284,-0.022441296
1734432641344,2024-12-17T10:50:41.344Z,30380,0.018807672,-0.19248785,-0.017257908
1734432641346,2024-12-17T10:50:41.346Z,30382,0.018807672,-0.19248785,-0.017257908
1734432641354,2024-12-17T10:50:41.354Z,30390,0.013973524,-0.1964997,-0.016136471
1734432641356,2024-12-17T10:50:41.356Z,30392,0.013973524,-0.1964997,-0.016136471
1734432641363,2024-12-17T10:50:41.363Z,30399,0.010269505,-0.20253344,-0.023436237
1734432641366,2024-12-17T10:50:41.366Z,30402,0.010269505,-0.20253344,-0.023436237
1734432641374,2024-12-17T10:50:41.374Z,30410,0.008670217,-0.1881612,-0.022734778
1734432641376,2024-12-17T10:50:41.376Z,30412,0.008670217,-0.1881612,-0.022734778
1734432641384,2024-12-17T10:50:41.384Z,30420,0.014489994,-0.19236648,-0.031286728
1734432641386,2024-12-17T10:50:41.386Z,30422,0.014489994,-0.19236648,-0.031286728
1734432641392,2024-12-17T10:50:41.392Z,30428,0.024174616,-0.1941077,-0.03583628
1734432641394,2024-12-17T10:50:41.394Z,30430,0.024174616,-0.1941077,-0.03583628
1734432641402,2024-12-17T10:50:41.402Z,30438,0.023572044,-0.18069461,-0.041761827
1734432641404,2024-12-17T10:50:41.404Z,30440,0.023572044,-0.18069461,-0.041761827
1734432641413,2024-12-17T10:50:41.413Z,30449,0.023881778,-0.16773227,-0.044602495
1734432641417,2024-12-17T10:50:41.417Z,30453,0.023881778,-0.16773227,-0.044602495
1734432641426,2024-12-17T10:50:41.426Z,30462,0.0308916,-0.17373382,-0.04518626
1734432641428,2024-12-17T10:50:41.428Z,30464,0.0308916,-0.17373382,-0.04518626
1734432641438,2024-12-17T10:50:41.438Z,30474,0.026766194,-0.18266408,-0.0416965
1734432641440,2024-12-17T10:50:41.440Z,30476,0.026766194,-0.18266408,-0.0416965
1734432641448,2024-12-17T10:50:41.448Z,30484,0.026261648,-0.17358094,-0.036740065
1734432641450,2024-12-17T10:50:41.450Z,30486,0.026261648,-0.17358094,-0.036740065
1734432641458,2024-12-17T10:50:41.458Z,30494,0.028457137,-0.15579346,-0.027015014
1734432641461,2024-12-17T10:50:41.461Z,30497,0.028457137,-0.15579346,-0.027015014
1734432641471,2024-12-17T10:50:41.471Z,30507,0.024532158,-0.15662901,-0.019802079
1734432641473,2024-12-17T10:50:41.473Z,30509,0.024532158,-0.15662901,-0.019802079
1734432641480,2024-12-17T10:50:41.480Z,30516,0.022316795,-0.15801947,-0.019470986
1734432641482,2024-12-17T10:50:41.482Z,30518,0.022316795,-0.15801947,-0.019470986
1734432641489,2024-12-17T10:50:41.489Z,30525,0.017030323,-0.14536005,-0.020787891
1734432641491,2024-12-17T10:50:41.491Z,30527,0.017030323,-0.14536005,-0.020787891
1734432641498,2024-12-17T10:50:41.498Z,30534,0.025575165,-0.13518405,-0.024079118
1734432641500,2024-12-17T10:50:41.500Z,30536,0.025575165,-0.13518405,-0.024079118
1734432641508,2024-12-17T10:50:41.508Z,30544,0.023025123,-0.1348077,-0.034213193
1734432641510,2024-12-17T10:50:41.510Z,30546,0.023025123,-0.1348077,-0.034213193
1734432641519,2024-12-17T10:50:41.519Z,30555,0.027838545,-0.13344185,-0.0446817
1734432641522,2024-12-17T10:50:41.522Z,30558,0.027838545,-0.13344185,-0.0446817
1734432641530,2024-12-17T10:50:41.530Z,30566,0.043256793,-0.11886909,-0.038548775
1734432641533,2024-12-17T10:50:41.533Z,30569,0.043256793,-0.11886909,-0.038548775
1734432641540,2024-12-17T10:50:41.540Z,30576,0.0314772,-0.11022192,-0.032602515
1734432641542,2024-12-17T10:50:41.542Z,30578,0.0314772,-0.11022192,-0.032602515
1734432641548,2024-12-17T10:50:41.548Z,30584,0.028724775,-0.097601116,-0.03401933
1734432641551,2024-12-17T10:50:41.551Z,30587,0.028724775,-0.097601116,-0.03401933
1734432641558,2024-12-17T10:50:41.558Z,30594,0.04070879,-0.08453938,-0.027789652
1734432641561,2024-12-17T10:50:41.561Z,30597,0.04070879,-0.08453938,-0.027789652
1734432641570,2024-12-17T10:50:41.570Z,30606,0.033305433,-0.07299841,-0.026586954
1734432641573,2024-12-17T10:50:41.573Z,30609,0.033305433,-0.07299841,-0.026586954
1734432641583,2024-12-17T10:50:41.583Z,30619,0.027034719,-0.058101717,-0.023108136
1734432641585,2024-12-17T10:50:41.585Z,30621,0.027034719,-0.058101717,-0.023108136
1734432641592,2024-12-17T10:50:41.592Z,30628,0.03060377,-0.052509975,-0.03237966
1734432641594,2024-12-17T10:50:41.594Z,30630,0.03060377,-0.052509975,-0.03237966
1734432641602,2024-12-17T10:50:41.602Z,30638,0.039147954,-0.04010836,-0.03239358
1734432641605,2024-12-17T10:50:41.605Z,30641,0.039147954,-0.04010836,-0.03239358
1734432641611,2024-12-17T10:50:41.611Z,30647,0.043442145,-0.028715694,-0.04069086
1734432641613,2024-12-17T10:50:41.613Z,30649,0.043442145,-0.028715694,-0.04069086
1734432641621,2024-12-17T10:50:41.621Z,30657,0.048318487,-0.025143493,-0.04595403
1734432641623,2024-12-17T10:50:41.623Z,30659,0.048318487,-0.025143493,-0.04595403
1734432641631,2024-12-17T10:50:41.631Z,30667,0.051810447,-0.016714646,-0.048311595
1734432641633,2024-12-17T10:50:41.633Z,30669,0.051810447,-0.016714646,-0.048311595
1734432641641,2024-12-17T10:50:41.641Z,30677,0.0515634,0.013139139,-0.04638321
1734432641643,2024-12-17T10:50:41.643Z,30679,0.0515634,0.013139139,-0.04638321
1734432641650,2024-12-17T10:50:41.650Z,30686,0.05095716,0.029781919,-0.048800386
1734432641652,2024-12-17T10:50:41.652Z,30688,0.05095716,0.029781919,-0.048800386
1734432641659,2024-12-17T10:50:41.659Z,30695,0.0499425,0.045413613,-0.037610713
1734432641662,2024-12-17T10:50:41.662Z,30698,0.0499425,0.045413613,-0.037610713
1734432641670,2024-12-17T10:50:41.670Z,30706,0.05291169,0.06833228,-0.03089888
1734432641672,2024-12-17T10:50:41.672Z,30708,0.05291169,0.06833228,-0.03089888
1734432641679,2024-12-17T10:50:41.679Z,30715,0.05550339,0.08874914,-0.04535806
1734432641682,2024-12-17T10:50:41.682Z,30718,0.05550339,0.08874914,-0.04535806
1734432641690,2024-12-17T10:50:41.690Z,30726,0.06888941,0.09547032,-0.05544839
1734432641693,2024-12-17T10:50:41.693Z,30729,0.06888941,0.09547032,-0.05544839
1734432641701,2024-12-17T10:50:41.701Z,30737,0.07053844,0.10071654,-0.06704698
1734432641703,2024-12-17T10:50:41.703Z,30739,0.07053844,0.10071654,-0.06704698
1734432641709,2024-12-17T10:50:41.709Z,30745,0.072689846,0.1191514,-0.07658964
1734432641711,2024-12-17T10:50:41.711Z,30747,0.072689846,0.1191514,-0.07658964
1734432641718,2024-12-17T10:50:41.718Z,30754,0.08501121,0.1390938,-0.07129337
1734432641721,2024-12-17T10:50:41.721Z,30757,0.08501121,0.1390938,-0.07129337
1734432641730,2024-12-17T10:50:41.730Z,30766,0.09862354,0.16056487,-0.058004893
1734432641733,2024-12-17T10:50:41.733Z,30769,0.09862354,0.16056487,-0.058004893
1734432641742,2024-12-17T10:50:41.742Z,30778,0.09789165,0.17964362,-0.05393399
1734432641745,2024-12-17T10:50:41.745Z,30781,0.09789165,0.17964362,-0.05393399
1734432641753,2024-12-17T10:50:41.753Z,30789,0.10236828,0.1821951,-0.060843967
1734432641756,2024-12-17T10:50:41.756Z,30792,0.10236828,0.1821951,-0.060843967
1734432641768,2024-12-17T10:50:41.768Z,30804,0.110584706,0.18672748,-0.06830311
1734432641772,2024-12-17T10:50:41.772Z,30808,0.110584706,0.18672748,-0.06830311
1734432641782,2024-12-17T10:50:41.782Z,30818,0.107917525,0.20057973,-0.077160485
1734432641785,2024-12-17T10:50:41.785Z,30821,0.107917525,0.20057973,-0.077160485
1734432641792,2024-12-17T10:50:41.792Z,30828,0.11297408,0.21156134,-0.08086685
1734432641794,2024-12-17T10:50:41.794Z,30830,0.11297408,0.21156134,-0.08086685
1734432641803,2024-12-17T10:50:41.803Z,30839,0.118875995,0.22406,-0.08296067
1734432641806,2024-12-17T10:50:41.806Z,30842,0.118875995,0.22406,-0.08296067
1734432641813,2024-12-17T10:50:41.813Z,30849,0.12120719,0.22831887,-0.083908506
1734432641816,2024-12-17T10:50:41.816Z,30852,0.12120719,0.22831887,-0.083908506
1734432641823,2024-12-17T10:50:41.823Z,30859,0.12586027,0.23750843,-0.07494862
1734432641825,2024-12-17T10:50:41.825Z,30861,0.12586027,0.23750843,-0.07494862
1734432641832,2024-12-17T10:50:41.832Z,30868,0.13420732,0.25848913,-0.072684355
1734432641835,2024-12-17T10:50:41.835Z,30871,0.13420732,0.25848913,-0.072684355
1734432641842,2024-12-17T10:50:41.842Z,30878,0.1398323,0.26443225,-0.08096058
1734432641844,2024-12-17T10:50:41.844Z,30880,0.1398323,0.26443225,-0.08096058
1734432641851,2024-12-17T10:50:41.851Z,30887,0.14171413,0.2607138,-0.095427394
1734432641854,2024-12-17T10:50:41.854Z,30890,0.14171413,0.2607138,-0.095427394
1734432641860,2024-12-17T10:50:41.860Z,30896,0.1398528,0.25708908,-0.09076552
1734432641862,2024-12-17T10:50:41.862Z,30898,0.1398528,0.25708908,-0.09076552
1734432641871,2024-12-17T10:50:41.871Z,30907,0.14253312,0.26233926,-0.0865913
1734432641873,2024-12-17T10:50:41.873Z,30909,0.14253312,0.26233926,-0.0865913
1734432641880,2024-12-17T10:50:41.880Z,30916,0.14353766,0.26422587,-0.083857
1734432641883,2024-12-17T10:50:41.883Z,30919,0.14353766,0.26422587,-0.083857
1734432641891,2024-12-17T10:50:41.891Z,30927,0.13957469,0.27539498,-0.07486511
1734432641893,2024-12-17T10:50:41.893Z,30929,0.13957469,0.27539498,-0.07486511
1734432641900,2024-12-17T10:50:41.900Z,30936,0.13116826,0.28068864,-0.06947562
1734432641902,2024-12-17T10:50:41.902Z,30938,0.13116826,0.28068864,-0.06947562
1734432641909,2024-12-17T10:50:41.909Z,30945,0.12664692,0.28594762,-0.049723577
1734432641911,2024-12-17T10:50:41.911Z,30947,0.12664692,0.28594762,-0.049723577
1734432641918,2024-12-17T10:50:41.918Z,30954,0.12755649,0.27895862,-0.04332957
1734432641921,2024-12-17T10:50:41.921Z,30957,0.12755649,0.27895862,-0.04332957
1734432641928,2024-12-17T10:50:41.928Z,30964,0.12920712,0.27189025,-0.061431825
1734432641932,2024-12-17T10:50:41.932Z,30968,0.12920712,0.27189025,-0.061431825
1734432641938,2024-12-17T10:50:41.938Z,30974,0.13002436,0.2789203,-0.07239056
1734432641940,2024-12-17T10:50:41.940Z,30976,0.13002436,0.2789203,-0.07239056
1734432641947,2024-12-17T10:50:41.947Z,30983,0.12750825,0.28493294,-0.0800714
1734432641950,2024-12-17T10:50:41.950Z,30986,0.12750825,0.28493294,-0.0800714
1734432641957,2024-12-17T10:50:41.957Z,30993,0.11869558,0.28017664,-0.08346016
1734432641959,2024-12-17T10:50:41.959Z,30995,0.11869558,0.28017664,-0.08346016
1734432641966,2024-12-17T10:50:41.966Z,31002,0.11429801,0.27540004,-0.079151936
1734432641968,2024-12-17T10:50:41.968Z,31004,0.11429801,0.27540004,-0.079151936
1734432641977,2024-12-17T10:50:41.977Z,31013,0.11886727,0.27836657,-0.07502992
1734432641980,2024-12-17T10:50:41.980Z,31016,0.11886727,0.27836657,-0.07502992
1734432641989,2024-12-17T10:50:41.989Z,31025,0.12011637,0.28373232,-0.07788155
1734432641991,2024-12-17T10:50:41.991Z,31027,0.12011637,0.28373232,-0.07788155
1734432641998,2024-12-17T10:50:41.998Z,31034,0.11072507,0.28320348,-0.06810573
1734432642000,2024-12-17T10:50:42Z,31036,0.11072507,0.28320348,-0.06810573
1734432642009,2024-12-17T10:50:42.009Z,31045,0.09842159,0.28363234,-0.047218785
1734432642012,2024-12-17T10:50:42.012Z,31048,0.09842159,0.28363234,-0.047218785
1734432642021,2024-12-17T10:50:42.021Z,31057,0.08254268,0.28200704,-0.066974305
1734432642023,2024-12-17T10:50:42.023Z,31059,0.08254268,0.28200704,-0.066974305
1734432642032,2024-12-17T10:50:42.032Z,31068,0.0757689,0.27051246,-0.08933551
1734432642035,2024-12-17T10:50:42.035Z,31071,0.0757689,0.27051246,-0.08933551
1734432642042,2024-12-17T10:50:42.042Z,31078,0.081343815,0.26140627,-0.08789132
1734432642045,2024-12-17T10:50:42.045Z,31081,0.081343815,0.26140627,-0.08789132
1734432642052,2024-12-17T10:50:42.052Z,31088,0.07227919,0.24935496,-0.083129525
1734432642055,2024-12-17T10:50:42.055Z,31091,0.07227919,0.24935496,-0.083129525
1734432642062,2024-12-17T10:50:42.062Z,31098,0.08863104,0.24996528,-0.077118725
1734432642065,2024-12-17T10:50:42.065Z,31101,0.08863104,0.24996528,-0.077118725
1734432642073,2024-12-17T10:50:42.073Z,31109,0.0951492,0.23983908,-0.06680858
1734432642075,2024-12-17T10:50:42.075Z,31111,0.0951492,0.23983908,-0.06680858
1734432642081,2024-12-17T10:50:42.081Z,31117,0.07091738,0.21605301,-0.07734954
1734432642084,2024-12-17T10:50:42.084Z,31120,0.07091738,0.21605301,-0.07734954
1734432642091,2024-12-17T10:50:42.091Z,31127,0.05682507,0.21183577,-0.080497235
1734432642093,2024-12-17T10:50:42.093Z,31129,0.05682507,0.21183577,-0.080497235
1734432642100,2024-12-17T10:50:42.100Z,31136,0.042376325,0.19357644,-0.07565166
1734432642102,2024-12-17T10:50:42.102Z,31138,0.042376325,0.19357644,-0.07565166
1734432642108,2024-12-17T10:50:42.108Z,31144,0.018509716,0.15829219,-0.06716018
1734432642110,2024-12-17T10:50:42.110Z,31146,0.018509716,0.15829219,-0.06716018
1734432642117,2024-12-17T10:50:42.117Z,31153,0.009258931,0.1327865,-0.056189965
1734432642119,2024-12-17T10:50:42.119Z,31155,0.009258931,0.1327865,-0.056189965
1734432642127,2024-12-17T10:50:42.127Z,31163,0.009821557,0.117528625,-0.06761574
1734432642130,2024-12-17T10:50:42.130Z,31166,0.009821557,0.117528625,-0.06761574
1734432642137,2024-12-17T10:50:42.137Z,31173,0.0045704725,0.10031753,-0.0647716
1734432642140,2024-12-17T10:50:42.140Z,31176,0.0045704725,0.10031753,-0.0647716
1734432642148,2024-12-17T10:50:42.148Z,31184,3.9489867E-4,0.07234325,-0.04575003
1734432642150,2024-12-17T10:50:42.150Z,31186,3.9489867E-4,0.07234325,-0.04575003
1734432642156,2024-12-17T10:50:42.156Z,31192,-0.01580939,0.04919976,-0.023326883
1734432642158,2024-12-17T10:50:42.158Z,31194,-0.01580939,0.04919976,-0.023326883
1734432642166,2024-12-17T10:50:42.166Z,31202,-0.035618823,0.035247434,-0.023370303
1734432642168,2024-12-17T10:50:42.168Z,31204,-0.035618823,0.035247434,-0.023370303
1734432642180,2024-12-17T10:50:42.180Z,31216,-0.040949382,0.014850602,-0.029808765
1734432642183,2024-12-17T10:50:42.183Z,31219,-0.040949382,0.014850602,-0.029808765
1734432642191,2024-12-17T10:50:42.191Z,31227,-0.041071113,-0.003201492,-0.028447248
1734432642193,2024-12-17T10:50:42.193Z,31229,-0.041071113,-0.003201492,-0.028447248
1734432642201,2024-12-17T10:50:42.201Z,31237,-0.040434018,-0.011086336,-0.02566989
1734432642203,2024-12-17T10:50:42.203Z,31239,-0.040434018,-0.011086336,-0.02566989
1734432642211,2024-12-17T10:50:42.211Z,31247,-0.030279,-0.020997142,-0.04192058
1734432642214,2024-12-17T10:50:42.214Z,31250,-0.030279,-0.020997142,-0.04192058
1734432642222,2024-12-17T10:50:42.222Z,31258,-0.024413796,-0.021177927,-0.036675014
1734432642224,2024-12-17T10:50:42.224Z,31260,-0.024413796,-0.021177927,-0.036675014
1734432642233,2024-12-17T10:50:42.233Z,31269,-0.033135578,-0.023324573,-0.02985669
1734432642235,2024-12-17T10:50:42.235Z,31271,-0.033135578,-0.023324573,-0.02985669
1734432642243,2024-12-17T10:50:42.243Z,31279,-0.03161805,-0.022539005,-0.022013018
1734432642245,2024-12-17T10:50:42.245Z,31281,-0.03161805,-0.022539005,-0.022013018
1734432642254,2024-12-17T10:50:42.254Z,31290,-0.02289549,-0.020752078,-0.0034593807
1734432642256,2024-12-17T10:50:42.256Z,31292,-0.02289549,-0.020752078,-0.0034593807
1734432642263,2024-12-17T10:50:42.263Z,31299,-0.022017514,-0.02041784,0.0010166398
1734432642266,2024-12-17T10:50:42.266Z,31302,-0.022017514,-0.02041784,0.0010166398
1734432642273,2024-12-17T10:50:42.273Z,31309,-0.030486526,-0.0132336635,-0.0037931958
1734432642276,2024-12-17T10:50:42.276Z,31312,-0.030486526,-0.0132336635,-0.0037931958
1734432642282,2024-12-17T10:50:42.282Z,31318,-0.024119573,-0.01328219,7.2300027E-4
1734432642284,2024-12-17T10:50:42.284Z,31320,-0.024119573,-0.01328219,7.2300027E-4
1734432642291,2024-12-17T10:50:42.291Z,31327,-0.021885501,-0.01960407,-0.0024915107
1734432642293,2024-12-17T10:50:42.293Z,31329,-0.021885501,-0.01960407,-0.0024915107
1734432642300,2024-12-17T10:50:42.300Z,31336,-0.026195325,-0.010733035,-0.004252679
1734432642302,2024-12-17T10:50:42.302Z,31338,-0.026195325,-0.010733035,-0.004252679
1734432642311,2024-12-17T10:50:42.311Z,31347,-0.017074438,-0.012534258,0.0017785878
1734432642314,2024-12-17T10:50:42.314Z,31350,-0.017074438,-0.012534258,0.0017785878
1734432642322,2024-12-17T10:50:42.322Z,31358,-0.0067572817,-0.012799452,0.009176428
1734432642325,2024-12-17T10:50:42.325Z,31361,-0.0067572817,-0.012799452,0.009176428
1734432642334,2024-12-17T10:50:42.334Z,31370,-0.018101253,-0.0022881415,0.019804595
1734432642336,2024-12-17T10:50:42.336Z,31372,-0.018101253,-0.0022881415,0.019804595
1734432642345,2024-12-17T10:50:42.345Z,31381,-0.021697983,0.005289984,0.027777601
1734432642347,2024-12-17T10:50:42.347Z,31383,-0.021697983,0.005289984,0.027777601
1734432642354,2024-12-17T10:50:42.354Z,31390,-0.013181466,0.010437694,0.025816461
1734432642357,2024-12-17T10:50:42.357Z,31393,-0.013181466,0.010437694,0.025816461
1734432642363,2024-12-17T10:50:42.363Z,31399,-0.0038166568,0.017572468,0.016963527
1734432642365,2024-12-17T10:50:42.365Z,31401,-0.0038166568,0.017572468,0.016963527
1734432642372,2024-12-17T10:50:42.372Z,31408,-0.0028661333,0.02083046,0.012445739
1734432642374,2024-12-17T10:50:42.374Z,31410,-0.0028661333,0.02083046,0.012445739
1734432642380,2024-12-17T10:50:42.380Z,31416,-0.0053933826,0.026054801,0.0034823313
1734432642382,2024-12-17T10:50:42.382Z,31418,-0.0053933826,0.026054801,0.0034823313
1734432642391,2024-12-17T10:50:42.391Z,31427,-0.0031122915,0.03470849,7.5359683E-4
1734432642394,2024-12-17T10:50:42.394Z,31430,-0.0031122915,0.03470849,7.5359683E-4
1734432642404,2024-12-17T10:50:42.404Z,31440,0.0044117887,0.045838196,-7.478349E-5
1734432642406,2024-12-17T10:50:42.406Z,31442,0.0044117887,0.045838196,-7.478349E-5
1734432642412,2024-12-17T10:50:42.412Z,31448,0.01390866,0.052566376,0.006898789
1734432642415,2024-12-17T10:50:42.415Z,31451,0.01390866,0.052566376,0.006898789
1734432642423,2024-12-17T10:50:42.423Z,31459,0.015635438,0.063664675,0.021102414
1734432642425,2024-12-17T10:50:42.425Z,31461,0.015635438,0.063664675,0.021102414
1734432642433,2024-12-17T10:50:42.433Z,31469,0.013022588,0.08110391,0.0134363035
1734432642437,2024-12-17T10:50:42.437Z,31473,0.013022588,0.08110391,0.0134363035
1734432642444,2024-12-17T10:50:42.444Z,31480,0.011927748,0.08484853,0.0022985227
1734432642446,2024-12-17T10:50:42.446Z,31482,0.011927748,0.08484853,0.0022985227
1734432642455,2024-12-17T10:50:42.455Z,31491,0.009417906,0.08808815,-0.0034697133
1734432642458,2024-12-17T10:50:42.458Z,31494,0.009417906,0.08808815,-0.0034697133
1734432642464,2024-12-17T10:50:42.464Z,31500,0.015310364,0.089346044,-0.005289498
1734432642468,2024-12-17T10:50:42.468Z,31504,0.015310364,0.089346044,-0.005289498
1734432642476,2024-12-17T10:50:42.476Z,31512,0.025719225,0.10034155,-0.007984323
1734432642478,2024-12-17T10:50:42.478Z,31514,0.025719225,0.10034155,-0.007984323
1734432642485,2024-12-17T10:50:42.485Z,31521,0.030346928,0.11767577,-0.019315584
1734432642487,2024-12-17T10:50:42.487Z,31523,0.030346928,0.11767577,-0.019315584
1734432642493,2024-12-17T10:50:42.493Z,31529,0.030518204,0.11943303,-0.02452893
1734432642495,2024-12-17T10:50:42.495Z,31531,0.030518204,0.11943303,-0.02452893
1734432642502,2024-12-17T10:50:42.502Z,31538,0.03399547,0.11733958,-0.018821334
1734432642504,2024-12-17T10:50:42.504Z,31540,0.03399547,0.11733958,-0.018821334
1734432642512,2024-12-17T10:50:42.512Z,31548,0.032458052,0.12848437,-0.010076061
1734432642514,2024-12-17T10:50:42.514Z,31550,0.032458052,0.12848437,-0.010076061
1734432642521,2024-12-17T10:50:42.521Z,31557,0.030792078,0.13528991,-0.0016909676
1734432642523,2024-12-17T10:50:42.523Z,31559,0.030792078,0.13528991,-0.0016909676
1734432642529,2024-12-17T10:50:42.529Z,31565,0.034396883,0.14360264,-5.3976127E-4
1734432642531,2024-12-17T10:50:42.531Z,31567,0.034396883,0.14360264,-5.3976127E-4
1734432642538,2024-12-17T10:50:42.538Z,31574,0.02377359,0.15096068,0.008430769
1734432642540,2024-12-17T10:50:42.540Z,31576,0.02377359,0.15096068,0.008430769
1734432642546,2024-12-17T10:50:42.546Z,31582,0.023408206,0.14953163,0.0018067531
1734432642550,2024-12-17T10:50:42.550Z,31586,0.023408206,0.14953163,0.0018067531
1734432642558,2024-12-17T10:50:42.558Z,31594,0.041064356,0.14615947,-0.013642195
1734432642560,2024-12-17T10:50:42.560Z,31596,0.041064356,0.14615947,-0.013642195
1734432642569,2024-12-17T10:50:42.569Z,31605,0.051349856,0.14962722,-0.022846466
1734432642572,2024-12-17T10:50:42.572Z,31608,0.051349856,0.14962722,-0.022846466
1734432642580,2024-12-17T10:50:42.580Z,31616,0.06489554,0.15654747,-0.042945337
1734432642582,2024-12-17T10:50:42.582Z,31618,0.06489554,0.15654747,-0.042945337
1734432642590,2024-12-17T10:50:42.590Z,31626,0.06998123,0.15033305,-0.042564224
1734432642592,2024-12-17T10:50:42.592Z,31628,0.06998123,0.15033305,-0.042564224
1734432642600,2024-12-17T10:50:42.600Z,31636,0.066151515,0.14904103,-0.04219121
1734432642603,2024-12-17T10:50:42.603Z,31639,0.066151515,0.14904103,-0.04219121
1734432642610,2024-12-17T10:50:42.610Z,31646,0.06273263,0.16484027,-0.033742763
1734432642612,2024-12-17T10:50:42.612Z,31648,0.06273263,0.16484027,-0.033742763
1734432642621,2024-12-17T10:50:42.621Z,31657,0.051876187,0.17137532,-0.027958225
1734432642624,2024-12-17T10:50:42.624Z,31660,0.051876187,0.17137532,-0.027958225
1734432642633,2024-12-17T10:50:42.633Z,31669,0.050169125,0.18572533,-0.01814074
1734432642639,2024-12-17T10:50:42.639Z,31675,0.050169125,0.18572533,-0.01814074
1734432642649,2024-12-17T10:50:42.649Z,31685,0.057968,0.20351127,-0.009426123
1734432642652,2024-12-17T10:50:42.652Z,31688,0.057968,0.20351127,-0.009426123
1734432642659,2024-12-17T10:50:42.659Z,31695,0.06325028,0.20274943,-0.029655617
1734432642662,2024-12-17T10:50:42.662Z,31698,0.06325028,0.20274943,-0.029655617
1734432642668,2024-12-17T10:50:42.668Z,31704,0.08475496,0.20780933,-0.06648836
1734432642670,2024-12-17T10:50:42.670Z,31706,0.08475496,0.20780933,-0.06648836
1734432642679,2024-12-17T10:50:42.679Z,31715,0.13349575,0.20070907,-0.06705225
1734432642682,2024-12-17T10:50:42.682Z,31718,0.13349575,0.20070907,-0.06705225
1734432642690,2024-12-17T10:50:42.690Z,31726,0.13491383,0.19654317,-0.07964122
1734432642692,2024-12-17T10:50:42.692Z,31728,0.13491383,0.19654317,-0.07964122
1734432642699,2024-12-17T10:50:42.699Z,31735,0.14991213,0.2153751,-0.08959643
1734432642701,2024-12-17T10:50:42.701Z,31737,0.14991213,0.2153751,-0.08959643
1734432642707,2024-12-17T10:50:42.707Z,31743,0.18176626,0.23088597,-0.07979515
1734432642709,2024-12-17T10:50:42.709Z,31745,0.18176626,0.23088597,-0.07979515
1734432642716,2024-12-17T10:50:42.716Z,31752,0.15251948,0.24642138,-0.05333553
1734432642718,2024-12-17T10:50:42.718Z,31754,0.15251948,0.24642138,-0.05333553
1734432642726,2024-12-17T10:50:42.726Z,31762,0.1276883,0.26681587,-0.047026467
1734432642728,2024-12-17T10:50:42.728Z,31764,0.1276883,0.26681587,-0.047026467
1734432642737,2024-12-17T10:50:42.737Z,31773,0.138151,0.2739599,-0.054581285
1734432642739,2024-12-17T10:50:42.739Z,31775,0.138151,0.2739599,-0.054581285
1734432642745,2024-12-17T10:50:42.745Z,31781,0.13038957,0.269733,-0.06489556
1734432642747,2024-12-17T10:50:42.747Z,31783,0.13038957,0.269733,-0.06489556
1734432642754,2024-12-17T10:50:42.754Z,31790,0.12704895,0.26385975,-0.08711005
1734432642757,2024-12-17T10:50:42.757Z,31793,0.12704895,0.26385975,-0.08711005
1734432642764,2024-12-17T10:50:42.764Z,31800,0.14366421,0.27052295,-0.09001935
1734432642767,2024-12-17T10:50:42.767Z,31803,0.14366421,0.27052295,-0.09001935
1734432642775,2024-12-17T10:50:42.775Z,31811,0.15816069,0.28049082,-0.09253594
1734432642777,2024-12-17T10:50:42.777Z,31813,0.15816069,0.28049082,-0.09253594
1734432642784,2024-12-17T10:50:42.784Z,31820,0.16160688,0.29918745,-0.09995086
1734432642786,2024-12-17T10:50:42.786Z,31822,0.16160688,0.29918745,-0.09995086
1734432642793,2024-12-17T10:50:42.793Z,31829,0.16355264,0.30423763,-0.10234357
1734432642795,2024-12-17T10:50:42.795Z,31831,0.16355264,0.30423763,-0.10234357
1734432642803,2024-12-17T10:50:42.803Z,31839,0.16114068,0.29221547,-0.09618199
1734432642806,2024-12-17T10:50:42.806Z,31842,0.16114068,0.29221547,-0.09618199
1734432642814,2024-12-17T10:50:42.814Z,31850,0.16072978,0.2919141,-0.09084449
1734432642816,2024-12-17T10:50:42.816Z,31852,0.16072978,0.2919141,-0.09084449
1734432642823,2024-12-17T10:50:42.823Z,31859,0.14179434,0.3023339,-0.08558738
1734432642826,2024-12-17T10:50:42.826Z,31862,0.14179434,0.3023339,-0.08558738
1734432642832,2024-12-17T10:50:42.832Z,31868,0.11411008,0.2956602,-0.08073751
1734432642834,2024-12-17T10:50:42.834Z,31870,0.11411008,0.2956602,-0.08073751
1734432642842,2024-12-17T10:50:42.842Z,31878,0.12961626,0.28794765,-0.09583618
1734432642844,2024-12-17T10:50:42.844Z,31880,0.12961626,0.28794765,-0.09583618
1734432642851,2024-12-17T10:50:42.851Z,31887,0.12816335,0.28703052,-0.093336016
1734432642853,2024-12-17T10:50:42.853Z,31889,0.12816335,0.28703052,-0.093336016
1734432642859,2024-12-17T10:50:42.859Z,31895,0.12148346,0.27925467,-0.09504173
1734432642861,2024-12-17T10:50:42.861Z,31897,0.12148346,0.27925467,-0.09504173
1734432642867,2024-12-17T10:50:42.867Z,31903,0.119349666,0.26657978,-0.08769516
1734432642869,2024-12-17T10:50:42.869Z,31905,0.119349666,0.26657978,-0.08769516
1734432642877,2024-12-17T10:50:42.877Z,31913,0.11436679,0.25633937,-0.08409737
1734432642879,2024-12-17T10:50:42.879Z,31915,0.11436679,0.25633937,-0.08409737
1734432642887,2024-12-17T10:50:42.887Z,31923,0.1005224,0.25296003,-0.079977155
1734432642890,2024-12-17T10:50:42.890Z,31926,0.1005224,0.25296003,-0.079977155
1734432642898,2024-12-17T10:50:42.898Z,31934,0.09620252,0.2399155,-0.08055285
1734432642900,2024-12-17T10:50:42.900Z,31936,0.09620252,0.2399155,-0.08055285
1734432642908,2024-12-17T10:50:42.908Z,31944,0.09453686,0.22013353,-0.07665009
1734432642910,2024-12-17T10:50:42.910Z,31946,0.09453686,0.22013353,-0.07665009
1734432642922,2024-12-17T10:50:42.922Z,31958,0.08956441,0.20099284,-0.077878945
1734432642924,2024-12-17T10:50:42.924Z,31960,0.08956441,0.20099284,-0.077878945
1734432642934,2024-12-17T10:50:42.934Z,31970,0.081624165,0.17718028,-0.08367702
1734432642936,2024-12-17T10:50:42.936Z,31972,0.081624165,0.17718028,-0.08367702
1734432642944,2024-12-17T10:50:42.944Z,31980,0.078941345,0.14384925,-0.09394729
1734432642946,2024-12-17T10:50:42.946Z,31982,0.078941345,0.14384925,-0.09394729
1734432642954,2024-12-17T10:50:42.954Z,31990,0.08113255,0.11658435,-0.09700158
1734432642956,2024-12-17T10:50:42.956Z,31992,0.08113255,0.11658435,-0.09700158
1734432642962,2024-12-17T10:50:42.962Z,31998,0.06313025,0.099827014,-0.07576354
1734432642964,2024-12-17T10:50:42.964Z,32000,0.06313025,0.099827014,-0.07576354
1734432642971,2024-12-17T10:50:42.971Z,32007,0.0314891,0.096430734,-0.056147195
1734432642973,2024-12-17T10:50:42.973Z,32009,0.0314891,0.096430734,-0.056147195
1734432642980,2024-12-17T10:50:42.980Z,32016,0.018028583,0.07754795,-0.03772506
1734432642982,2024-12-17T10:50:42.982Z,32018,0.018028583,0.07754795,-0.03772506
1734432642989,2024-12-17T10:50:42.989Z,32025,0.0047944095,0.050924156,-0.030490374
1734432642991,2024-12-17T10:50:42.991Z,32027,0.0047944095,0.050924156,-0.030490374
1734432642997,2024-12-17T10:50:42.997Z,32033,-0.025520572,0.026702764,-0.033676397
1734432642999,2024-12-17T10:50:42.999Z,32035,-0.025520572,0.026702764,-0.033676397
1734432643006,2024-12-17T10:50:43.006Z,32042,-0.044433236,0.0028676407,-0.034236435
1734432643009,2024-12-17T10:50:43.009Z,32045,-0.044433236,0.0028676407,-0.034236435
1734432643017,2024-12-17T10:50:43.017Z,32053,-0.037263185,-0.007415041,-0.02348042
1734432643019,2024-12-17T10:50:43.019Z,32055,-0.037263185,-0.007415041,-0.02348042
1734432643026,2024-12-17T10:50:43.026Z,32062,-0.042145774,-0.01731972,-0.025908511
1734432643028,2024-12-17T10:50:43.028Z,32064,-0.042145774,-0.01731972,-0.025908511
1734432643035,2024-12-17T10:50:43.035Z,32071,-0.04404366,-0.03705391,-0.04334599
1734432643039,2024-12-17T10:50:43.039Z,32075,-0.04404366,-0.03705391,-0.04334599
1734432643057,2024-12-17T10:50:43.057Z,32093,-0.029944273,-0.054855395,-0.05046746
1734432643059,2024-12-17T10:50:43.059Z,32095,-0.029944273,-0.054855395,-0.05046746
1734432643066,2024-12-17T10:50:43.066Z,32102,-0.023550455,-0.057433918,-0.042114824
1734432643069,2024-12-17T10:50:43.069Z,32105,-0.023550455,-0.057433918,-0.042114824
1734432643076,2024-12-17T10:50:43.076Z,32112,-0.021413753,-0.07162411,-0.034583762
1734432643078,2024-12-17T10:50:43.078Z,32114,-0.021413753,-0.07162411,-0.034583762
1734432643085,2024-12-17T10:50:43.085Z,32121,-0.029438367,-0.08036658,-0.0033314028
1734432643088,2024-12-17T10:50:43.088Z,32124,-0.029438367,-0.08036658,-0.0033314028
1734432643095,2024-12-17T10:50:43.095Z,32131,-0.04785261,-0.08276432,-0.013326857
1734432643097,2024-12-17T10:50:43.097Z,32133,-0.04785261,-0.08276432,-0.013326857
1734432643104,2024-12-17T10:50:43.104Z,32140,-0.043832704,-0.089074336,-0.043805186
1734432643107,2024-12-17T10:50:43.107Z,32143,-0.043832704,-0.089074336,-0.043805186
1734432643114,2024-12-17T10:50:43.114Z,32150,-0.02578686,-0.0846163,-0.045907803
1734432643116,2024-12-17T10:50:43.116Z,32152,-0.02578686,-0.0846163,-0.045907803
1734432643123,2024-12-17T10:50:43.123Z,32159,-0.026607,-0.093869135,-0.022882648
1734432643126,2024-12-17T10:50:43.126Z,32162,-0.026607,-0.093869135,-0.022882648
1734432643132,2024-12-17T10:50:43.132Z,32168,-0.045496736,-0.0964003,-0.0137741
1734432643134,2024-12-17T10:50:43.134Z,32170,-0.045496736,-0.0964003,-0.0137741
1734432643142,2024-12-17T10:50:43.142Z,32178,-0.016987327,-0.12003382,-0.032616083
1734432643144,2024-12-17T10:50:43.144Z,32180,-0.016987327,-0.12003382,-0.032616083
1734432643152,2024-12-17T10:50:43.152Z,32188,0.04364046,-0.11982144,-0.050252058
1734432643155,2024-12-17T10:50:43.155Z,32191,0.04364046,-0.11982144,-0.050252058
1734432643162,2024-12-17T10:50:43.162Z,32198,0.046617284,-0.11373626,-0.03163493
1734432643164,2024-12-17T10:50:43.164Z,32200,0.046617284,-0.11373626,-0.03163493
1734432643171,2024-12-17T10:50:43.171Z,32207,0.0607992,-0.10714597,0.0066832886
1734432643173,2024-12-17T10:50:43.173Z,32209,0.0607992,-0.10714597,0.0066832886
1734432643180,2024-12-17T10:50:43.180Z,32216,0.05675165,-0.11186366,0.033870425
1734432643182,2024-12-17T10:50:43.182Z,32218,0.05675165,-0.11186366,0.033870425
1734432643190,2024-12-17T10:50:43.190Z,32226,0.066428445,-0.13867183,0.03586906
1734432643192,2024-12-17T10:50:43.192Z,32228,0.066428445,-0.13867183,0.03586906
1734432643198,2024-12-17T10:50:43.198Z,32234,0.124079525,-0.15526308,0.031014198
1734432643200,2024-12-17T10:50:43.200Z,32236,0.124079525,-0.15526308,0.031014198
1734432643207,2024-12-17T10:50:43.207Z,32243,0.125575,-0.13138059,0.024189074
1734432643209,2024-12-17T10:50:43.209Z,32245,0.125575,-0.13138059,0.024189074
1734432643216,2024-12-17T10:50:43.216Z,32252,0.09599293,-0.11882815,0.022666436
1734432643219,2024-12-17T10:50:43.219Z,32255,0.09599293,-0.11882815,0.022666436
1734432643227,2024-12-17T10:50:43.227Z,32263,0.09640266,-0.12689339,0.05228546
1734432643229,2024-12-17T10:50:43.229Z,32265,0.09640266,-0.12689339,0.05228546
1734432643235,2024-12-17T10:50:43.235Z,32271,0.107525304,-0.1311966,0.037614968
1734432643237,2024-12-17T10:50:43.237Z,32273,0.107525304,-0.1311966,0.037614968
1734432643243,2024-12-17T10:50:43.243Z,32279,0.13512386,-0.13949747,0.020945625
1734432643245,2024-12-17T10:50:43.245Z,32281,0.13512386,-0.13949747,0.020945625
1734432643251,2024-12-17T10:50:43.251Z,32287,0.13216239,-0.13468945,0.06455948
1734432643253,2024-12-17T10:50:43.253Z,32289,0.13216239,-0.13468945,0.06455948
1734432643260,2024-12-17T10:50:43.260Z,32296,0.08242363,-0.12747571,0.08559815
1734432643263,2024-12-17T10:50:43.263Z,32299,0.08242363,-0.12747571,0.08559815
1734432643272,2024-12-17T10:50:43.272Z,32308,0.07163862,-0.15598884,0.0574003
1734432643274,2024-12-17T10:50:43.274Z,32310,0.07163862,-0.15598884,0.0574003
1734432643280,2024-12-17T10:50:43.280Z,32316,0.08446099,-0.17330204,0.030779917
1734432643282,2024-12-17T10:50:43.282Z,32318,0.08446099,-0.17330204,0.030779917
1734432643288,2024-12-17T10:50:43.288Z,32324,0.073391855,-0.19255067,0.017595874
1734432643291,2024-12-17T10:50:43.291Z,32327,0.073391855,-0.19255067,0.017595874
1734432643298,2024-12-17T10:50:43.298Z,32334,0.091882475,-0.1960972,0.017827408
1734432643300,2024-12-17T10:50:43.300Z,32336,0.091882475,-0.1960972,0.017827408
1734432643308,2024-12-17T10:50:43.308Z,32344,0.10365306,-0.2195017,0.00361629
1734432643311,2024-12-17T10:50:43.311Z,32347,0.10365306,-0.2195017,0.00361629
1734432643319,2024-12-17T10:50:43.319Z,32355,0.06397566,-0.2398646,0.0027709217
1734432643322,2024-12-17T10:50:43.322Z,32358,0.06397566,-0.2398646,0.0027709217
1734432643329,2024-12-17T10:50:43.329Z,32365,0.05752218,-0.26210028,0.003761408
1734432643330,2024-12-17T10:50:43.330Z,32366,0.05752218,-0.26210028,0.003761408
1734432643337,2024-12-17T10:50:43.337Z,32373,0.045619365,-0.30134538,0.030810166
1734432643339,2024-12-17T10:50:43.339Z,32375,0.045619365,-0.30134538,0.030810166
1734432643345,2024-12-17T10:50:43.345Z,32381,0.006526027,-0.3196156,0.038078535
1734432643347,2024-12-17T10:50:43.347Z,32383,0.006526027,-0.3196156,0.038078535
1734432643354,2024-12-17T10:50:43.354Z,32390,0.0043425723,-0.32867268,0.042566493
1734432643357,2024-12-17T10:50:43.357Z,32393,0.0043425723,-0.32867268,0.042566493
1734432643365,2024-12-17T10:50:43.365Z,32401,0.04607789,-0.33771536,0.060924247
1734432643368,2024-12-17T10:50:43.368Z,32404,0.04607789,-0.33771536,0.060924247
1734432643375,2024-12-17T10:50:43.375Z,32411,0.026797654,-0.3345546,0.079909496
1734432643377,2024-12-17T10:50:43.377Z,32413,0.026797654,-0.3345546,0.079909496
1734432643383,2024-12-17T10:50:43.383Z,32419,0.013871827,-0.3396997,0.049191937
1734432643385,2024-12-17T10:50:43.385Z,32421,0.013871827,-0.3396997,0.049191937
1734432643392,2024-12-17T10:50:43.392Z,32428,0.022990746,-0.3692767,0.03718297
1734432643394,2024-12-17T10:50:43.394Z,32430,0.022990746,-0.3692767,0.03718297
1734432643402,2024-12-17T10:50:43.402Z,32438,0.01806617,-0.37301356,0.04523642
1734432643404,2024-12-17T10:50:43.404Z,32440,0.01806617,-0.37301356,0.04523642
1734432643411,2024-12-17T10:50:43.411Z,32447,0.042920083,-0.34843642,0.04653661
1734432643412,2024-12-17T10:50:43.412Z,32448,0.042920083,-0.34843642,0.04653661
1734432643419,2024-12-17T10:50:43.419Z,32455,0.048053063,-0.34921303,0.063063405
1734432643421,2024-12-17T10:50:43.421Z,32457,0.048053063,-0.34921303,0.063063405
1734432643428,2024-12-17T10:50:43.428Z,32464,0.015444834,-0.36902863,0.093503766
1734432643430,2024-12-17T10:50:43.430Z,32466,0.015444834,-0.36902863,0.093503766
1734432643439,2024-12-17T10:50:43.439Z,32475,0.024010874,-0.35622245,0.09784649
1734432643441,2024-12-17T10:50:43.441Z,32477,0.024010874,-0.35622245,0.09784649
1734432643447,2024-12-17T10:50:43.447Z,32483,0.035061143,-0.3395614,0.081596926
1734432643450,2024-12-17T10:50:43.450Z,32486,0.035061143,-0.3395614,0.081596926
1734432643460,2024-12-17T10:50:43.460Z,32496,0.024201455,-0.32734513,0.08238792
1734432643462,2024-12-17T10:50:43.462Z,32498,0.024201455,-0.32734513,0.08238792
1734432643469,2024-12-17T10:50:43.469Z,32505,0.026082275,-0.3351902,0.07583239
1734432643472,2024-12-17T10:50:43.472Z,32508,0.026082275,-0.3351902,0.07583239
