Timestamp (ms),ISO DateTime,Elapsed Time (ms),Acceleration X,Acceleration Y,Acceleration Z
1732439694206,2024-11-24T09:14:54.206Z,56493,-0.020493085,-0.0551272,-0.19233604
1732439694212,2024-11-24T09:14:54.212Z,56499,-0.020493085,-0.0551272,-0.19233604
1732439694235,2024-11-24T09:14:54.235Z,56522,-0.025955318,-0.05314928,-0.19885838
1732439694243,2024-11-24T09:14:54.243Z,56530,-0.025955318,-0.05314928,-0.19885838
1732439694262,2024-11-24T09:14:54.262Z,56549,-0.016919108,-0.055587668,-0.20199753
1732439694268,2024-11-24T09:14:54.268Z,56555,-0.016919108,-0.055587668,-0.20199753
1732439694283,2024-11-24T09:14:54.283Z,56570,-0.0033099353,-0.048297204,-0.19161011
1732439694288,2024-11-24T09:14:54.288Z,56575,-0.0033099353,-0.048297204,-0.19161011
1732439694299,2024-11-24T09:14:54.299Z,56586,-0.0011907982,-0.043512616,-0.18045321
1732439694303,2024-11-24T09:14:54.303Z,56590,-0.0011907982,-0.043512616,-0.18045321
1732439694316,2024-11-24T09:14:54.316Z,56603,-0.0031102737,-0.039273586,-0.17431578
1732439694321,2024-11-24T09:14:54.321Z,56608,-0.0031102737,-0.039273586,-0.17431578
1732439694338,2024-11-24T09:14:54.338Z,56625,-0.008989178,-0.041896842,-0.17308433
1732439694343,2024-11-24T09:14:54.343Z,56630,-0.008989178,-0.041896842,-0.17308433
1732439694355,2024-11-24T09:14:54.355Z,56642,1.7903304E-4,-0.03772064,-0.16703738
1732439694358,2024-11-24T09:14:54.358Z,56645,1.7903304E-4,-0.03772064,-0.16703738
1732439694370,2024-11-24T09:14:54.370Z,56657,-0.0042100116,-0.038016953,-0.15913302
1732439694374,2024-11-24T09:14:54.374Z,56661,-0.0042100116,-0.038016953,-0.15913302
1732439694387,2024-11-24T09:14:54.387Z,56674,-0.0030992604,-0.03937093,-0.15377323
1732439694391,2024-11-24T09:14:54.391Z,56678,-0.0030992604,-0.03937093,-0.15377323
1732439694403,2024-11-24T09:14:54.403Z,56690,-0.0028785446,-0.031069575,-0.14325923
1732439694406,2024-11-24T09:14:54.406Z,56693,-0.0028785446,-0.031069575,-0.14325923
1732439694418,2024-11-24T09:14:54.418Z,56705,0.007441699,-0.03889432,-0.14695388
1732439694421,2024-11-24T09:14:54.421Z,56708,0.007441699,-0.03889432,-0.14695388
1732439694433,2024-11-24T09:14:54.433Z,56720,0.010338745,-0.03497592,-0.14372459
1732439694437,2024-11-24T09:14:54.437Z,56724,0.010338745,-0.03497592,-0.14372459
1732439694449,2024-11-24T09:14:54.449Z,56736,-9.399721E-4,-0.033080656,-0.13674755
1732439694452,2024-11-24T09:14:54.452Z,56739,-9.399721E-4,-0.033080656,-0.13674755
1732439694466,2024-11-24T09:14:54.466Z,56753,0.0061208685,-0.036035337,-0.1345943
1732439694470,2024-11-24T09:14:54.470Z,56757,0.0061208685,-0.036035337,-0.1345943
1732439694482,2024-11-24T09:14:54.482Z,56769,0.011151359,-0.031247636,-0.12384837
1732439694485,2024-11-24T09:14:54.485Z,56772,0.011151359,-0.031247636,-0.12384837
1732439694494,2024-11-24T09:14:54.494Z,56781,0.0069461367,-0.023147874,-0.11482655
1732439694497,2024-11-24T09:14:54.497Z,56784,0.0069461367,-0.023147874,-0.11482655
1732439694508,2024-11-24T09:14:54.508Z,56795,0.005097847,-0.029144557,-0.10603896
1732439694512,2024-11-24T09:14:54.512Z,56799,0.005097847,-0.029144557,-0.10603896
1732439694524,2024-11-24T09:14:54.524Z,56811,0.016086413,-0.018506823,-0.08788766
1732439694528,2024-11-24T09:14:54.528Z,56815,0.016086413,-0.018506823,-0.08788766
1732439694539,2024-11-24T09:14:54.539Z,56826,0.0032635482,-0.02451148,-0.096643925
1732439694542,2024-11-24T09:14:54.542Z,56829,0.0032635482,-0.02451148,-0.096643925
1732439694554,2024-11-24T09:14:54.554Z,56841,0.020830277,-0.01704626,-0.09438015
1732439694558,2024-11-24T09:14:54.558Z,56845,0.020830277,-0.01704626,-0.09438015
1732439694570,2024-11-24T09:14:54.570Z,56857,0.0045191254,-0.025527427,-0.10126451
1732439694573,2024-11-24T09:14:54.573Z,56860,0.0045191254,-0.025527427,-0.10126451
1732439694588,2024-11-24T09:14:54.588Z,56875,0.008859692,-0.028532188,-0.10816796
1732439694592,2024-11-24T09:14:54.592Z,56879,0.008859692,-0.028532188,-0.10816796
1732439694609,2024-11-24T09:14:54.609Z,56896,0.008343416,-0.028087279,-0.07599524
1732439694612,2024-11-24T09:14:54.612Z,56899,0.008343416,-0.028087279,-0.07599524
1732439694624,2024-11-24T09:14:54.624Z,56911,0.008041851,-0.02317802,-0.06598565
1732439694629,2024-11-24T09:14:54.629Z,56916,0.008041851,-0.02317802,-0.06598565
1732439694645,2024-11-24T09:14:54.645Z,56932,-0.0017382057,-0.017937925,-0.06322204
1732439694649,2024-11-24T09:14:54.649Z,56936,-0.0017382057,-0.017937925,-0.06322204
1732439694664,2024-11-24T09:14:54.664Z,56951,0.0035018658,-0.014045973,-0.0651915
1732439694669,2024-11-24T09:14:54.669Z,56956,0.0035018658,-0.014045973,-0.0651915
1732439694682,2024-11-24T09:14:54.682Z,56969,0.009749034,-0.013407153,-0.07516604
1732439694686,2024-11-24T09:14:54.686Z,56973,0.009749034,-0.013407153,-0.07516604
1732439694700,2024-11-24T09:14:54.700Z,56987,0.018397942,-0.009304564,-0.08352356
1732439694704,2024-11-24T09:14:54.704Z,56991,0.018397942,-0.009304564,-0.08352356
1732439694718,2024-11-24T09:14:54.718Z,57005,0.01035225,-0.0072515677,-0.09018995
1732439694722,2024-11-24T09:14:54.722Z,57009,0.01035225,-0.0072515677,-0.09018995
1732439694743,2024-11-24T09:14:54.743Z,57030,0.0049171117,0.0018865084,-0.08277598
1732439694755,2024-11-24T09:14:54.755Z,57042,0.0049171117,0.0018865084,-0.08277598
1732439694786,2024-11-24T09:14:54.786Z,57073,0.015501553,0.003232125,-0.07972306
1732439694792,2024-11-24T09:14:54.792Z,57079,0.015501553,0.003232125,-0.07972306
1732439694809,2024-11-24T09:14:54.809Z,57096,1.07483036E-4,0.001357967,-0.076905474
1732439694814,2024-11-24T09:14:54.814Z,57101,1.07483036E-4,0.001357967,-0.076905474
1732439694831,2024-11-24T09:14:54.831Z,57118,0.0032824993,0.0030867397,-0.06348197
1732439694838,2024-11-24T09:14:54.838Z,57125,0.0032824993,0.0030867397,-0.06348197
1732439694860,2024-11-24T09:14:54.860Z,57147,0.0064228224,0.0023513525,-0.062860385
1732439694864,2024-11-24T09:14:54.864Z,57151,0.0064228224,0.0023513525,-0.062860385
1732439694877,2024-11-24T09:14:54.877Z,57164,-0.004521958,4.9800554E-4,-0.061161168
1732439694882,2024-11-24T09:14:54.882Z,57169,-0.004521958,4.9800554E-4,-0.061161168
1732439694894,2024-11-24T09:14:54.894Z,57181,-0.016227908,0.004595927,-0.048329026
1732439694898,2024-11-24T09:14:54.898Z,57185,-0.016227908,0.004595927,-0.048329026
1732439694912,2024-11-24T09:14:54.912Z,57199,-0.013463424,-0.004163369,-0.055311717
1732439694918,2024-11-24T09:14:54.918Z,57205,-0.013463424,-0.004163369,-0.055311717
1732439694931,2024-11-24T09:14:54.931Z,57218,-0.003751671,-0.0065190005,-0.058070295
1732439694936,2024-11-24T09:14:54.936Z,57223,-0.003751671,-0.0065190005,-0.058070295
1732439694949,2024-11-24T09:14:54.949Z,57236,0.005514845,-0.006941639,-0.052909918
1732439694953,2024-11-24T09:14:54.953Z,57240,0.005514845,-0.006941639,-0.052909918
1732439694966,2024-11-24T09:14:54.966Z,57253,0.0050038933,-0.0097697,-0.05736632
1732439694969,2024-11-24T09:14:54.969Z,57256,0.0050038933,-0.0097697,-0.05736632
1732439694982,2024-11-24T09:14:54.982Z,57269,0.005351943,-0.016188826,-0.059057407
1732439694987,2024-11-24T09:14:54.987Z,57274,0.005351943,-0.016188826,-0.059057407
1732439694998,2024-11-24T09:14:54.998Z,57285,0.0037788395,-0.0116212,-0.046650484
1732439695001,2024-11-24T09:14:55.001Z,57288,0.0037788395,-0.0116212,-0.046650484
1732439695012,2024-11-24T09:14:55.012Z,57299,-0.014755566,-0.015371947,-0.051322397
1732439695015,2024-11-24T09:14:55.015Z,57302,-0.014755566,-0.015371947,-0.051322397
1732439695028,2024-11-24T09:14:55.028Z,57315,0.006811242,-0.013159561,-0.03546984
1732439695032,2024-11-24T09:14:55.032Z,57319,0.006811242,-0.013159561,-0.03546984
1732439695044,2024-11-24T09:14:55.044Z,57331,0.0036344875,-0.011222775,-0.038308937
1732439695048,2024-11-24T09:14:55.048Z,57335,0.0036344875,-0.011222775,-0.038308937
1732439695060,2024-11-24T09:14:55.060Z,57347,0.0014658878,-0.008311179,-0.044550005
1732439695064,2024-11-24T09:14:55.064Z,57351,0.0014658878,-0.008311179,-0.044550005
1732439695075,2024-11-24T09:14:55.075Z,57362,-0.0014745184,-0.0072804503,-0.050331347
1732439695078,2024-11-24T09:14:55.078Z,57365,-0.0014745184,-0.0072804503,-0.050331347
1732439695091,2024-11-24T09:14:55.091Z,57378,0.006975907,-0.0028274774,-0.048991002
1732439695096,2024-11-24T09:14:55.096Z,57383,0.006975907,-0.0028274774,-0.048991002
1732439695108,2024-11-24T09:14:55.108Z,57395,0.007001313,-0.003219969,-0.04708016
1732439695112,2024-11-24T09:14:55.112Z,57399,0.007001313,-0.003219969,-0.04708016
1732439695124,2024-11-24T09:14:55.124Z,57411,0.0034096506,0.0010013597,-0.034703672
1732439695128,2024-11-24T09:14:55.128Z,57415,0.0034096506,0.0010013597,-0.034703672
1732439695140,2024-11-24T09:14:55.140Z,57427,-0.003570158,0.0039708186,-0.027937457
1732439695144,2024-11-24T09:14:55.144Z,57431,-0.003570158,0.0039708186,-0.027937457
1732439695154,2024-11-24T09:14:55.154Z,57441,-0.0016430974,0.002041424,-0.039224405
1732439695157,2024-11-24T09:14:55.157Z,57444,-0.0016430974,0.002041424,-0.039224405
1732439695171,2024-11-24T09:14:55.171Z,57458,0.010680218,5.9748994E-4,-0.03626214
1732439695175,2024-11-24T09:14:55.175Z,57462,0.010680218,5.9748994E-4,-0.03626214
1732439695186,2024-11-24T09:14:55.186Z,57473,0.009480898,0.010624702,-0.037732698
1732439695190,2024-11-24T09:14:55.190Z,57477,0.009480898,0.010624702,-0.037732698
1732439695202,2024-11-24T09:14:55.202Z,57489,0.016930426,0.013989473,-0.027142724
1732439695205,2024-11-24T09:14:55.205Z,57492,0.016930426,0.013989473,-0.027142724
1732439695217,2024-11-24T09:14:55.217Z,57504,0.0041910848,0.0051478078,-0.033615008
1732439695221,2024-11-24T09:14:55.221Z,57508,0.0041910848,0.0051478078,-0.033615008
1732439695233,2024-11-24T09:14:55.233Z,57520,0.016994756,0.0017539598,-0.033285826
1732439695237,2024-11-24T09:14:55.237Z,57524,0.016994756,0.0017539598,-0.033285826
1732439695249,2024-11-24T09:14:55.249Z,57536,-1.5396744E-4,-0.0046286993,-0.02616011
1732439695253,2024-11-24T09:14:55.253Z,57540,-1.5396744E-4,-0.0046286993,-0.02616011
1732439695265,2024-11-24T09:14:55.265Z,57552,0.007685657,0.00542263,-0.023293296
1732439695271,2024-11-24T09:14:55.271Z,57558,0.007685657,0.00542263,-0.023293296
1732439695287,2024-11-24T09:14:55.287Z,57574,0.0026377714,-0.0025235782,-0.025618367
1732439695290,2024-11-24T09:14:55.290Z,57577,0.0026377714,-0.0025235782,-0.025618367
1732439695299,2024-11-24T09:14:55.299Z,57586,0.007860447,0.0017272166,-0.027489364
1732439695303,2024-11-24T09:14:55.303Z,57590,0.007860447,0.0017272166,-0.027489364
1732439695313,2024-11-24T09:14:55.313Z,57600,-0.0024276434,-0.0015528515,-0.03068665
1732439695315,2024-11-24T09:14:55.315Z,57602,-0.0024276434,-0.0015528515,-0.03068665
1732439695327,2024-11-24T09:14:55.327Z,57614,5.0083786E-4,-0.0026476663,-0.02095845
1732439695329,2024-11-24T09:14:55.329Z,57616,5.0083786E-4,-0.0026476663,-0.02095845
1732439695344,2024-11-24T09:14:55.344Z,57631,-0.015368129,-0.0023025342,-0.027769534
1732439695352,2024-11-24T09:14:55.352Z,57639,-0.015368129,-0.0023025342,-0.027769534
1732439695381,2024-11-24T09:14:55.381Z,57668,0.001426235,-0.0025814406,-0.025107743
1732439695391,2024-11-24T09:14:55.391Z,57678,0.001426235,-0.0025814406,-0.025107743
1732439695413,2024-11-24T09:14:55.413Z,57700,0.00507334,-0.0037030957,-0.027051797
1732439695416,2024-11-24T09:14:55.416Z,57703,0.00507334,-0.0037030957,-0.027051797
1732439695429,2024-11-24T09:14:55.429Z,57716,-0.003989709,-0.0048266957,-0.021199638
1732439695433,2024-11-24T09:14:55.433Z,57720,-0.003989709,-0.0048266957,-0.021199638
1732439695446,2024-11-24T09:14:55.446Z,57733,-0.0020778675,0.007084788,-0.032435942
1732439695449,2024-11-24T09:14:55.449Z,57736,-0.0020778675,0.007084788,-0.032435942
1732439695460,2024-11-24T09:14:55.460Z,57747,-0.009742774,0.009451699,-0.024845855
1732439695463,2024-11-24T09:14:55.463Z,57750,-0.009742774,0.009451699,-0.024845855
1732439695477,2024-11-24T09:14:55.477Z,57764,-0.028031472,0.010331792,-0.024105217
1732439695481,2024-11-24T09:14:55.481Z,57768,-0.028031472,0.010331792,-0.024105217
1732439695490,2024-11-24T09:14:55.490Z,57777,-0.02310794,0.0076264576,-0.02390688
1732439695494,2024-11-24T09:14:55.494Z,57781,-0.02310794,0.0076264576,-0.02390688
1732439695506,2024-11-24T09:14:55.506Z,57793,-0.030911183,0.00501312,-0.031141818
1732439695513,2024-11-24T09:14:55.513Z,57800,-0.030911183,0.00501312,-0.031141818
1732439695534,2024-11-24T09:14:55.534Z,57821,-0.028232118,-5.5100553E-4,-0.03342291
1732439695539,2024-11-24T09:14:55.539Z,57826,-0.028232118,-5.5100553E-4,-0.03342291
1732439695563,2024-11-24T09:14:55.563Z,57850,-0.0135931885,-0.0073406463,-0.029913044
1732439695568,2024-11-24T09:14:55.568Z,57855,-0.0135931885,-0.0073406463,-0.029913044
1732439695581,2024-11-24T09:14:55.581Z,57868,-0.021916961,0.0047208904,-0.030699437
1732439695584,2024-11-24T09:14:55.584Z,57871,-0.021916961,0.0047208904,-0.030699437
1732439695595,2024-11-24T09:14:55.595Z,57882,-0.033439696,0.009945329,-0.029869817
1732439695600,2024-11-24T09:14:55.600Z,57887,-0.033439696,0.009945329,-0.029869817
1732439695614,2024-11-24T09:14:55.614Z,57901,-0.019484479,0.008715438,-0.027133023
1732439695617,2024-11-24T09:14:55.617Z,57904,-0.019484479,0.008715438,-0.027133023
1732439695628,2024-11-24T09:14:55.628Z,57915,-0.01803443,0.017808294,-0.0124488985
1732439695632,2024-11-24T09:14:55.632Z,57919,-0.01803443,0.017808294,-0.0124488985
1732439695645,2024-11-24T09:14:55.645Z,57932,-0.014143014,0.017113166,-0.018854897
1732439695649,2024-11-24T09:14:55.649Z,57936,-0.014143014,0.017113166,-0.018854897
1732439695662,2024-11-24T09:14:55.662Z,57949,0.0040495284,0.033809725,-0.029369308
1732439695666,2024-11-24T09:14:55.666Z,57953,0.0040495284,0.033809725,-0.029369308
1732439695676,2024-11-24T09:14:55.676Z,57963,-0.0016096442,0.04199623,-0.039964035
1732439695679,2024-11-24T09:14:55.679Z,57966,-0.0016096442,0.04199623,-0.039964035
1732439695692,2024-11-24T09:14:55.692Z,57979,0.0033988806,0.053596716,-0.045747
1732439695695,2024-11-24T09:14:55.695Z,57982,0.0033988806,0.053596716,-0.045747
1732439695706,2024-11-24T09:14:55.706Z,57993,0.019030163,0.06574237,-0.03574764
1732439695710,2024-11-24T09:14:55.710Z,57997,0.019030163,0.06574237,-0.03574764
1732439695720,2024-11-24T09:14:55.720Z,58007,0.0101357885,0.09066025,-0.040151477
1732439695723,2024-11-24T09:14:55.723Z,58010,0.0101357885,0.09066025,-0.040151477
1732439695735,2024-11-24T09:14:55.735Z,58022,0.015677182,0.08539653,-0.057014134
1732439695738,2024-11-24T09:14:55.738Z,58025,0.015677182,0.08539653,-0.057014134
1732439695748,2024-11-24T09:14:55.748Z,58035,0.059064142,0.08214398,-0.049384236
1732439695752,2024-11-24T09:14:55.752Z,58039,0.059064142,0.08214398,-0.049384236
1732439695763,2024-11-24T09:14:55.763Z,58050,0.037714206,0.09966023,-0.05227646
1732439695765,2024-11-24T09:14:55.765Z,58052,0.037714206,0.09966023,-0.05227646
1732439695776,2024-11-24T09:14:55.776Z,58063,0.055665225,0.11315083,-0.04719327
1732439695782,2024-11-24T09:14:55.782Z,58069,0.055665225,0.11315083,-0.04719327
1732439695802,2024-11-24T09:14:55.802Z,58089,0.0630569,0.12374548,-0.04118791
1732439695808,2024-11-24T09:14:55.808Z,58095,0.0630569,0.12374548,-0.04118791
1732439695830,2024-11-24T09:14:55.830Z,58117,0.052697897,0.14050914,-0.059560396
1732439695836,2024-11-24T09:14:55.836Z,58123,0.052697897,0.14050914,-0.059560396
1732439695856,2024-11-24T09:14:55.856Z,58143,0.040949833,0.13996737,-0.06939629
1732439695859,2024-11-24T09:14:55.859Z,58146,0.040949833,0.13996737,-0.06939629
1732439695872,2024-11-24T09:14:55.872Z,58159,0.064549446,0.14628935,-0.06900863
1732439695876,2024-11-24T09:14:55.876Z,58163,0.064549446,0.14628935,-0.06900863
1732439695889,2024-11-24T09:14:55.889Z,58176,0.06425782,0.14110702,-0.07919544
1732439695893,2024-11-24T09:14:55.893Z,58180,0.06425782,0.14110702,-0.07919544
1732439695905,2024-11-24T09:14:55.905Z,58192,0.032779366,0.14040975,-0.077327855
1732439695908,2024-11-24T09:14:55.908Z,58195,0.032779366,0.14040975,-0.077327855
1732439695918,2024-11-24T09:14:55.918Z,58205,0.017383674,0.14106558,-0.070235044
1732439695921,2024-11-24T09:14:55.921Z,58208,0.017383674,0.14106558,-0.070235044
1732439695931,2024-11-24T09:14:55.931Z,58218,0.0023562636,0.11582135,-0.047632296
1732439695935,2024-11-24T09:14:55.935Z,58222,0.0023562636,0.11582135,-0.047632296
1732439695950,2024-11-24T09:14:55.950Z,58237,0.006389892,0.12272749,-0.05999028
1732439695955,2024-11-24T09:14:55.955Z,58242,0.006389892,0.12272749,-0.05999028
1732439695965,2024-11-24T09:14:55.965Z,58252,-0.015625264,0.109144226,-0.07402686
1732439695968,2024-11-24T09:14:55.968Z,58255,-0.015625264,0.109144226,-0.07402686
1732439695978,2024-11-24T09:14:55.978Z,58265,-0.005066764,0.0877859,-0.06279962
1732439695981,2024-11-24T09:14:55.981Z,58268,-0.005066764,0.0877859,-0.06279962
1732439695997,2024-11-24T09:14:55.997Z,58284,-0.026742361,0.084561944,-0.06347056
1732439696005,2024-11-24T09:14:56.005Z,58292,-0.026742361,0.084561944,-0.06347056
1732439696027,2024-11-24T09:14:56.027Z,58314,-0.012778125,0.07980089,-0.052162703
1732439696034,2024-11-24T09:14:56.034Z,58321,-0.012778125,0.07980089,-0.052162703
1732439696046,2024-11-24T09:14:56.046Z,58333,-0.027135935,0.06618057,-0.050526522
1732439696050,2024-11-24T09:14:56.050Z,58337,-0.027135935,0.06618057,-0.050526522
1732439696061,2024-11-24T09:14:56.061Z,58348,-0.011738492,0.06713019,-0.056505457
1732439696065,2024-11-24T09:14:56.065Z,58352,-0.011738492,0.06713019,-0.056505457
1732439696075,2024-11-24T09:14:56.075Z,58362,9.968802E-4,0.060254585,-0.052606504
1732439696078,2024-11-24T09:14:56.078Z,58365,9.968802E-4,0.060254585,-0.052606504
1732439696090,2024-11-24T09:14:56.090Z,58377,0.01580327,0.05509365,-0.034118485
1732439696093,2024-11-24T09:14:56.093Z,58380,0.01580327,0.05509365,-0.034118485
1732439696102,2024-11-24T09:14:56.102Z,58389,0.0056916536,0.06351083,0.0023322676
1732439696105,2024-11-24T09:14:56.105Z,58392,0.0056916536,0.06351083,0.0023322676
1732439696115,2024-11-24T09:14:56.115Z,58402,0.018600723,0.055360693,0.0038153683
1732439696119,2024-11-24T09:14:56.119Z,58406,0.018600723,0.055360693,0.0038153683
1732439696131,2024-11-24T09:14:56.131Z,58418,0.008851894,0.019188821,-0.034251884
1732439696135,2024-11-24T09:14:56.135Z,58422,0.008851894,0.019188821,-0.034251884
1732439696146,2024-11-24T09:14:56.146Z,58433,0.007889853,0.03846361,-0.019774714
1732439696149,2024-11-24T09:14:56.149Z,58436,0.007889853,0.03846361,-0.019774714
1732439696160,2024-11-24T09:14:56.160Z,58447,-8.374244E-5,0.04891093,5.5015465E-4
1732439696163,2024-11-24T09:14:56.163Z,58450,-8.374244E-5,0.04891093,5.5015465E-4
1732439696172,2024-11-24T09:14:56.172Z,58459,-0.0076916013,0.047028996,-0.004073974
1732439696175,2024-11-24T09:14:56.175Z,58462,-0.0076916013,0.047028996,-0.004073974
1732439696185,2024-11-24T09:14:56.185Z,58472,-0.019930055,0.056977145,-0.008357323
1732439696188,2024-11-24T09:14:56.188Z,58475,-0.019930055,0.056977145,-0.008357323
1732439696199,2024-11-24T09:14:56.199Z,58486,-0.019341731,0.05964183,-0.019978328
1732439696203,2024-11-24T09:14:56.203Z,58490,-0.019341731,0.05964183,-0.019978328
1732439696214,2024-11-24T09:14:56.214Z,58501,-0.037232254,0.053011384,-0.011013182
1732439696217,2024-11-24T09:14:56.217Z,58504,-0.037232254,0.053011384,-0.011013182
1732439696227,2024-11-24T09:14:56.227Z,58514,-0.02677601,0.019494472,-0.042622287
1732439696230,2024-11-24T09:14:56.230Z,58517,-0.02677601,0.019494472,-0.042622287
1732439696241,2024-11-24T09:14:56.241Z,58528,-0.015384157,0.012908467,-0.032882687
1732439696244,2024-11-24T09:14:56.244Z,58531,-0.015384157,0.012908467,-0.032882687
1732439696253,2024-11-24T09:14:56.253Z,58540,8.0361863E-4,5.0782756E-4,-0.037658766
1732439696256,2024-11-24T09:14:56.256Z,58543,8.0361863E-4,5.0782756E-4,-0.037658766
1732439696267,2024-11-24T09:14:56.267Z,58554,-0.016339228,-0.0259948,-0.030422974
1732439696271,2024-11-24T09:14:56.271Z,58558,-0.016339228,-0.0259948,-0.030422974
1732439696286,2024-11-24T09:14:56.286Z,58573,0.015907502,-0.028448068,-0.049372736
1732439696293,2024-11-24T09:14:56.293Z,58580,0.015907502,-0.028448068,-0.049372736
1732439696320,2024-11-24T09:14:56.320Z,58607,0.006681471,-0.03236482,-0.043894045
1732439696327,2024-11-24T09:14:56.327Z,58614,0.006681471,-0.03236482,-0.043894045
1732439696340,2024-11-24T09:14:56.340Z,58627,-0.013667029,-0.03635071,-0.031162957
1732439696344,2024-11-24T09:14:56.344Z,58631,-0.013667029,-0.03635071,-0.031162957
1732439696358,2024-11-24T09:14:56.358Z,58645,-0.0018598564,-0.03496454,-0.008321462
1732439696362,2024-11-24T09:14:56.362Z,58649,-0.0018598564,-0.03496454,-0.008321462
1732439696375,2024-11-24T09:14:56.375Z,58662,0.027902003,-0.04471022,-0.0325422
1732439696379,2024-11-24T09:14:56.379Z,58666,0.027902003,-0.04471022,-0.0325422
1732439696390,2024-11-24T09:14:56.390Z,58677,0.033946436,-0.053095404,-0.015632667
1732439696394,2024-11-24T09:14:56.394Z,58681,0.033946436,-0.053095404,-0.015632667
1732439696404,2024-11-24T09:14:56.404Z,58691,-0.005486777,-0.054215405,-0.008479757
1732439696408,2024-11-24T09:14:56.408Z,58695,-0.005486777,-0.054215405,-0.008479757
1732439696417,2024-11-24T09:14:56.417Z,58704,-0.026218124,-0.06321325,-0.0015002405
1732439696420,2024-11-24T09:14:56.420Z,58707,-0.026218124,-0.06321325,-0.0015002405
1732439696430,2024-11-24T09:14:56.430Z,58717,0.021597957,-0.055486433,-0.019459073
1732439696433,2024-11-24T09:14:56.433Z,58720,0.021597957,-0.055486433,-0.019459073
1732439696444,2024-11-24T09:14:56.444Z,58731,-0.012556078,-0.059313327,-0.004897954
1732439696448,2024-11-24T09:14:56.448Z,58735,-0.012556078,-0.059313327,-0.004897954
1732439696459,2024-11-24T09:14:56.459Z,58746,0.006882792,-0.056853544,-0.0042363536
1732439696462,2024-11-24T09:14:56.462Z,58749,0.006882792,-0.056853544,-0.0042363536
1732439696474,2024-11-24T09:14:56.474Z,58761,-0.015154938,-0.037751757,-0.011663818
1732439696477,2024-11-24T09:14:56.477Z,58764,-0.015154938,-0.037751757,-0.011663818
1732439696487,2024-11-24T09:14:56.487Z,58774,-0.04224209,-0.042856388,-0.04741677
1732439696492,2024-11-24T09:14:56.492Z,58779,-0.04224209,-0.042856388,-0.04741677
1732439696503,2024-11-24T09:14:56.503Z,58790,-0.020976283,-0.043483634,-0.051634744
1732439696507,2024-11-24T09:14:56.507Z,58794,-0.020976283,-0.043483634,-0.051634744
1732439696524,2024-11-24T09:14:56.524Z,58811,-0.012332992,-0.022849517,-0.04255358
1732439696533,2024-11-24T09:14:56.533Z,58820,-0.012332992,-0.022849517,-0.04255358
1732439696543,2024-11-24T09:14:56.543Z,58830,-0.021253403,-0.019580536,-0.043741826
1732439696546,2024-11-24T09:14:56.546Z,58833,-0.021253403,-0.019580536,-0.043741826
1732439696558,2024-11-24T09:14:56.558Z,58845,-0.005835021,-0.013223647,-0.04738115
1732439696562,2024-11-24T09:14:56.562Z,58849,-0.005835021,-0.013223647,-0.04738115
1732439696572,2024-11-24T09:14:56.572Z,58859,-0.005670174,-0.006977621,-0.038401835
1732439696576,2024-11-24T09:14:56.576Z,58863,-0.005670174,-0.006977621,-0.038401835
1732439696588,2024-11-24T09:14:56.588Z,58875,-0.01572977,-0.008218502,-0.02281344
1732439696591,2024-11-24T09:14:56.591Z,58878,-0.01572977,-0.008218502,-0.02281344
1732439696601,2024-11-24T09:14:56.601Z,58888,0.0045457776,-0.009584346,-0.002391613
1732439696605,2024-11-24T09:14:56.605Z,58892,0.0045457776,-0.009584346,-0.002391613
1732439696616,2024-11-24T09:14:56.616Z,58903,-0.0063654343,0.0048987563,0.030384416
1732439696619,2024-11-24T09:14:56.619Z,58906,-0.0063654343,0.0048987563,0.030384416
1732439696630,2024-11-24T09:14:56.630Z,58917,-0.0069833584,0.013472018,0.025415447
1732439696634,2024-11-24T09:14:56.634Z,58921,-0.0069833584,0.013472018,0.025415447
1732439696644,2024-11-24T09:14:56.644Z,58931,-0.008855517,0.014634128,0.02365806
1732439696647,2024-11-24T09:14:56.647Z,58934,-0.008855517,0.014634128,0.02365806
1732439696658,2024-11-24T09:14:56.658Z,58945,0.0067743366,0.03439214,0.029082706
1732439696661,2024-11-24T09:14:56.661Z,58948,0.0067743366,0.03439214,0.029082706
1732439696673,2024-11-24T09:14:56.673Z,58960,-0.010046752,0.033513214,0.03493454
1732439696677,2024-11-24T09:14:56.677Z,58964,-0.010046752,0.033513214,0.03493454
1732439696687,2024-11-24T09:14:56.687Z,58974,-0.008935089,0.031176353,0.04076865
1732439696691,2024-11-24T09:14:56.691Z,58978,-0.008935089,0.031176353,0.04076865
1732439696701,2024-11-24T09:14:56.701Z,58988,-0.024313448,0.0034700902,0.05147995
1732439696705,2024-11-24T09:14:56.705Z,58992,-0.024313448,0.0034700902,0.05147995
1732439696716,2024-11-24T09:14:56.716Z,59003,0.023876963,0.0030356846,0.03478845
1732439696720,2024-11-24T09:14:56.720Z,59007,0.023876963,0.0030356846,0.03478845
1732439696730,2024-11-24T09:14:56.730Z,59017,0.005688864,0.0143894525,0.033951074
1732439696733,2024-11-24T09:14:56.733Z,59020,0.005688864,0.0143894525,0.033951074
1732439696744,2024-11-24T09:14:56.744Z,59031,0.019104987,0.0021076498,0.043375228
1732439696747,2024-11-24T09:14:56.747Z,59034,0.019104987,0.0021076498,0.043375228
1732439696757,2024-11-24T09:14:56.757Z,59044,0.013540966,-0.008259248,0.023598203
1732439696760,2024-11-24T09:14:56.760Z,59047,0.013540966,-0.008259248,0.023598203
1732439696769,2024-11-24T09:14:56.769Z,59056,0.009820227,-0.018524718,0.027533745
1732439696773,2024-11-24T09:14:56.773Z,59060,0.009820227,-0.018524718,0.027533745
1732439696783,2024-11-24T09:14:56.783Z,59070,0.013978167,-0.031454675,0.04483222
1732439696787,2024-11-24T09:14:56.787Z,59074,0.013978167,-0.031454675,0.04483222
1732439696798,2024-11-24T09:14:56.798Z,59085,0.001431693,-0.030881498,0.036845215
1732439696800,2024-11-24T09:14:56.800Z,59087,0.001431693,-0.030881498,0.036845215
1732439696812,2024-11-24T09:14:56.812Z,59099,0.008418389,-0.030305305,0.027890524
1732439696815,2024-11-24T09:14:56.815Z,59102,0.008418389,-0.030305305,0.027890524
1732439696826,2024-11-24T09:14:56.826Z,59113,0.01552843,-0.03504049,0.028102985
1732439696828,2024-11-24T09:14:56.828Z,59115,0.01552843,-0.03504049,0.028102985
1732439696838,2024-11-24T09:14:56.838Z,59125,-0.015618032,-0.027127735,0.02290879
1732439696842,2024-11-24T09:14:56.842Z,59129,-0.015618032,-0.027127735,0.02290879
1732439696851,2024-11-24T09:14:56.851Z,59138,0.006810446,-0.03824996,0.031364307
1732439696854,2024-11-24T09:14:56.854Z,59141,0.006810446,-0.03824996,0.031364307
1732439696864,2024-11-24T09:14:56.864Z,59151,0.002993686,-0.043351088,0.031242918
1732439696867,2024-11-24T09:14:56.867Z,59154,0.002993686,-0.043351088,0.031242918
1732439696879,2024-11-24T09:14:56.879Z,59166,0.002526447,-0.04180621,0.041586407
1732439696882,2024-11-24T09:14:56.882Z,59169,0.002526447,-0.04180621,0.041586407
1732439696895,2024-11-24T09:14:56.895Z,59182,0.013651756,-0.040694084,0.025204955
1732439696899,2024-11-24T09:14:56.899Z,59186,0.013651756,-0.040694084,0.025204955
1732439696909,2024-11-24T09:14:56.909Z,59196,4.0483614E-4,-0.034760807,0.010489795
1732439696914,2024-11-24T09:14:56.914Z,59201,4.0483614E-4,-0.034760807,0.010489795
1732439696923,2024-11-24T09:14:56.923Z,59210,0.0018874505,-0.0289628,0.018013632
1732439696926,2024-11-24T09:14:56.926Z,59213,0.0018874505,-0.0289628,0.018013632
1732439696935,2024-11-24T09:14:56.935Z,59222,-0.0051501906,-0.024109555,0.03256833
1732439696938,2024-11-24T09:14:56.938Z,59225,-0.0051501906,-0.024109555,0.03256833
1732439696947,2024-11-24T09:14:56.947Z,59234,0.0071848193,-0.0145706255,0.024160417
1732439696950,2024-11-24T09:14:56.950Z,59237,0.0071848193,-0.0145706255,0.024160417
1732439696960,2024-11-24T09:14:56.960Z,59247,0.0049807425,-0.017621286,0.008647607
1732439696964,2024-11-24T09:14:56.964Z,59251,0.0049807425,-0.017621286,0.008647607
1732439696976,2024-11-24T09:14:56.976Z,59263,0.021603184,-0.015338299,0.021755116
1732439696980,2024-11-24T09:14:56.980Z,59267,0.021603184,-0.015338299,0.021755116
1732439696990,2024-11-24T09:14:56.990Z,59277,0.01578359,-0.009998718,0.01802783
1732439696993,2024-11-24T09:14:56.993Z,59280,0.01578359,-0.009998718,0.01802783
1732439697004,2024-11-24T09:14:57.004Z,59291,0.023720596,-0.008418248,0.027067589
1732439697007,2024-11-24T09:14:57.007Z,59294,0.023720596,-0.008418248,0.027067589
1732439697018,2024-11-24T09:14:57.018Z,59305,0.03620909,-0.008815408,0.007762434
1732439697020,2024-11-24T09:14:57.020Z,59307,0.03620909,-0.008815408,0.007762434
1732439697030,2024-11-24T09:14:57.030Z,59317,0.02219868,-0.014460054,-0.008094146
1732439697033,2024-11-24T09:14:57.033Z,59320,0.02219868,-0.014460054,-0.008094146
1732439697043,2024-11-24T09:14:57.043Z,59330,0.040422436,-0.012792159,-0.010476108
1732439697046,2024-11-24T09:14:57.046Z,59333,0.040422436,-0.012792159,-0.010476108
1732439697063,2024-11-24T09:14:57.063Z,59350,0.040764,-0.019864887,-0.004987714
1732439697066,2024-11-24T09:14:57.066Z,59353,0.040764,-0.019864887,-0.004987714
1732439697078,2024-11-24T09:14:57.078Z,59365,0.028818473,-0.025591126,-0.010865584
1732439697082,2024-11-24T09:14:57.082Z,59369,0.028818473,-0.025591126,-0.010865584
1732439697092,2024-11-24T09:14:57.092Z,59379,0.016473373,-0.028618835,0.005025616
1732439697095,2024-11-24T09:14:57.095Z,59382,0.016473373,-0.028618835,0.005025616
1732439697105,2024-11-24T09:14:57.105Z,59392,0.031976964,-0.027279831,0.008628474
1732439697108,2024-11-24T09:14:57.108Z,59395,0.031976964,-0.027279831,0.008628474
1732439697117,2024-11-24T09:14:57.117Z,59404,0.004409868,-0.025327098,0.024990791
1732439697120,2024-11-24T09:14:57.120Z,59407,0.004409868,-0.025327098,0.024990791
1732439697132,2024-11-24T09:14:57.132Z,59419,0.028875824,-0.021264283,1.4154405E-4
1732439697140,2024-11-24T09:14:57.140Z,59427,0.028875824,-0.021264283,1.4154405E-4
1732439697160,2024-11-24T09:14:57.160Z,59447,0.016207347,-0.024571192,-0.010218814
1732439697169,2024-11-24T09:14:57.169Z,59456,0.016207347,-0.024571192,-0.010218814
1732439697193,2024-11-24T09:14:57.193Z,59480,0.016373726,-0.021005409,0.011329772
1732439697200,2024-11-24T09:14:57.200Z,59487,0.016373726,-0.021005409,0.011329772
1732439697214,2024-11-24T09:14:57.214Z,59501,-0.0013956202,-0.025398282,0.01436514
1732439697218,2024-11-24T09:14:57.218Z,59505,-0.0013956202,-0.025398282,0.01436514
1732439697235,2024-11-24T09:14:57.235Z,59522,0.006178846,-0.019063372,0.02954427
1732439697239,2024-11-24T09:14:57.239Z,59526,0.006178846,-0.019063372,0.02954427
1732439697248,2024-11-24T09:14:57.248Z,59535,-0.017209915,-0.014730305,0.027077362
1732439697251,2024-11-24T09:14:57.251Z,59538,-0.017209915,-0.014730305,0.027077362
1732439697264,2024-11-24T09:14:57.264Z,59551,-0.00909502,-0.011902634,0.039044544
1732439697267,2024-11-24T09:14:57.267Z,59554,-0.00909502,-0.011902634,0.039044544
1732439697277,2024-11-24T09:14:57.277Z,59564,0.0040177163,-0.010605642,0.04204111
1732439697280,2024-11-24T09:14:57.280Z,59567,0.0040177163,-0.010605642,0.04204111
1732439697289,2024-11-24T09:14:57.289Z,59576,-0.0035566285,-0.0148455445,-0.003580126
1732439697292,2024-11-24T09:14:57.292Z,59579,-0.0035566285,-0.0148455445,-0.003580126
1732439697302,2024-11-24T09:14:57.302Z,59589,0.0074038394,-0.020345194,0.0030706695
1732439697305,2024-11-24T09:14:57.305Z,59592,0.0074038394,-0.020345194,0.0030706695
1732439697315,2024-11-24T09:14:57.315Z,59602,-0.013785806,-0.016554186,0.0039351042
1732439697318,2024-11-24T09:14:57.318Z,59605,-0.013785806,-0.016554186,0.0039351042
1732439697332,2024-11-24T09:14:57.332Z,59619,-0.004927803,-0.018565366,0.0011805629
1732439697338,2024-11-24T09:14:57.338Z,59625,-0.004927803,-0.018565366,0.0011805629
1732439697360,2024-11-24T09:14:57.360Z,59647,-0.006002779,-0.0277615,0.015578355
1732439697367,2024-11-24T09:14:57.367Z,59654,-0.006002779,-0.0277615,0.015578355
1732439697390,2024-11-24T09:14:57.390Z,59677,-0.008708728,-0.018372718,0.0041376958
1732439697399,2024-11-24T09:14:57.399Z,59686,-0.008708728,-0.018372718,0.0041376958
1732439697414,2024-11-24T09:14:57.414Z,59701,-0.009915231,-0.03762592,-0.0031663126
1732439697418,2024-11-24T09:14:57.418Z,59705,-0.009915231,-0.03762592,-0.0031663126
1732439697431,2024-11-24T09:14:57.431Z,59718,-0.021782832,-0.03263293,-0.0054606535
1732439697435,2024-11-24T09:14:57.435Z,59722,-0.021782832,-0.03263293,-0.0054606535
1732439697449,2024-11-24T09:14:57.449Z,59736,-0.026772946,-0.04428418,-0.005440475
1732439697453,2024-11-24T09:14:57.453Z,59740,-0.026772946,-0.04428418,-0.005440475
1732439697465,2024-11-24T09:14:57.465Z,59752,-0.026705906,-0.06671164,5.193028E-5
1732439697468,2024-11-24T09:14:57.468Z,59755,-0.026705906,-0.06671164,5.193028E-5
1732439697485,2024-11-24T09:14:57.485Z,59772,-0.018828647,-0.07599335,0.0031456475
1732439697493,2024-11-24T09:14:57.493Z,59780,-0.018828647,-0.07599335,0.0031456475
1732439697513,2024-11-24T09:14:57.513Z,59800,-0.013135456,-0.08668671,0.012203689
1732439697517,2024-11-24T09:14:57.517Z,59804,-0.013135456,-0.08668671,0.012203689
1732439697531,2024-11-24T09:14:57.531Z,59818,-0.023166794,-0.09826026,0.010337335
1732439697534,2024-11-24T09:14:57.534Z,59821,-0.023166794,-0.09826026,0.010337335
1732439697545,2024-11-24T09:14:57.545Z,59832,-0.023207359,-0.09918178,0.016875736
1732439697548,2024-11-24T09:14:57.548Z,59835,-0.023207359,-0.09918178,0.016875736
1732439697560,2024-11-24T09:14:57.560Z,59847,-0.0247155,-0.09622058,0.0169945
1732439697563,2024-11-24T09:14:57.563Z,59850,-0.0247155,-0.09622058,0.0169945
1732439697574,2024-11-24T09:14:57.574Z,59861,-0.02541354,-0.12042875,0.050742205
1732439697577,2024-11-24T09:14:57.577Z,59864,-0.02541354,-0.12042875,0.050742205
1732439697587,2024-11-24T09:14:57.587Z,59874,-0.029117255,-0.12162383,0.061508182
1732439697591,2024-11-24T09:14:57.591Z,59878,-0.029117255,-0.12162383,0.061508182
1732439697603,2024-11-24T09:14:57.603Z,59890,-0.011088446,-0.12573624,0.063949466
1732439697607,2024-11-24T09:14:57.607Z,59894,-0.011088446,-0.12573624,0.063949466
1732439697618,2024-11-24T09:14:57.618Z,59905,-0.007910956,-0.1357367,0.048253685
1732439697621,2024-11-24T09:14:57.621Z,59908,-0.007910956,-0.1357367,0.048253685
1732439697633,2024-11-24T09:14:57.633Z,59920,0.0059480714,-0.13721089,0.044450983
1732439697636,2024-11-24T09:14:57.636Z,59923,0.0059480714,-0.13721089,0.044450983
1732439697645,2024-11-24T09:14:57.645Z,59932,9.783303E-4,-0.13373175,0.048754778
1732439697648,2024-11-24T09:14:57.648Z,59935,9.783303E-4,-0.13373175,0.048754778
1732439697662,2024-11-24T09:14:57.662Z,59949,0.015787844,-0.12165952,0.057242047
1732439697669,2024-11-24T09:14:57.669Z,59956,0.015787844,-0.12165952,0.057242047
1732439697682,2024-11-24T09:14:57.682Z,59969,0.00356594,-0.120906524,0.065173015
1732439697685,2024-11-24T09:14:57.685Z,59972,0.00356594,-0.120906524,0.065173015
1732439697694,2024-11-24T09:14:57.694Z,59981,0.019443976,-0.11912543,0.067850314
1732439697697,2024-11-24T09:14:57.697Z,59984,0.019443976,-0.11912543,0.067850314
1732439697707,2024-11-24T09:14:57.707Z,59994,0.02371659,-0.11496401,0.06291285
1732439697711,2024-11-24T09:14:57.711Z,59998,0.02371659,-0.11496401,0.06291285
1732439697720,2024-11-24T09:14:57.720Z,60007,-0.0040065995,-0.13257013,0.05115444
1732439697724,2024-11-24T09:14:57.724Z,60011,-0.0040065995,-0.13257013,0.05115444
1732439697737,2024-11-24T09:14:57.737Z,60024,0.016384361,-0.13037233,0.03716883
1732439697747,2024-11-24T09:14:57.747Z,60034,0.016384361,-0.13037233,0.03716883
1732439697774,2024-11-24T09:14:57.774Z,60061,0.004322199,-0.13939284,0.042821206
1732439697780,2024-11-24T09:14:57.780Z,60067,0.004322199,-0.13939284,0.042821206
1732439697804,2024-11-24T09:14:57.804Z,60091,-0.0033458075,-0.134871,0.026360452
1732439697812,2024-11-24T09:14:57.812Z,60099,-0.0033458075,-0.134871,0.026360452
1732439697834,2024-11-24T09:14:57.834Z,60121,9.719301E-5,-0.13743134,0.035422236
1732439697839,2024-11-24T09:14:57.839Z,60126,9.719301E-5,-0.13743134,0.035422236
1732439697855,2024-11-24T09:14:57.855Z,60142,0.015752513,-0.13067904,0.032403108
1732439697859,2024-11-24T09:14:57.859Z,60146,0.015752513,-0.13067904,0.032403108
1732439697873,2024-11-24T09:14:57.873Z,60160,-0.023704283,-0.12999073,0.015701348
1732439697876,2024-11-24T09:14:57.876Z,60163,-0.023704283,-0.12999073,0.015701348
1732439697886,2024-11-24T09:14:57.886Z,60173,-0.02008119,-0.12576629,0.008191953
1732439697890,2024-11-24T09:14:57.890Z,60177,-0.02008119,-0.12576629,0.008191953
1732439697900,2024-11-24T09:14:57.900Z,60187,-0.022642525,-0.12599093,0.010309741
1732439697903,2024-11-24T09:14:57.903Z,60190,-0.022642525,-0.12599093,0.010309741
1732439697912,2024-11-24T09:14:57.912Z,60199,-0.017410781,-0.10508744,0.018527513
1732439697915,2024-11-24T09:14:57.915Z,60202,-0.017410781,-0.10508744,0.018527513
1732439697924,2024-11-24T09:14:57.924Z,60211,-0.013022381,-0.10298096,0.015427353
1732439697926,2024-11-24T09:14:57.926Z,60213,-0.013022381,-0.10298096,0.015427353
1732439697936,2024-11-24T09:14:57.936Z,60223,-0.007648083,-0.09210399,0.021547686
1732439697939,2024-11-24T09:14:57.939Z,60226,-0.007648083,-0.09210399,0.021547686
1732439697949,2024-11-24T09:14:57.949Z,60236,0.013132532,-0.08766327,-0.0010195937
1732439697952,2024-11-24T09:14:57.952Z,60239,0.013132532,-0.08766327,-0.0010195937
1732439697965,2024-11-24T09:14:57.965Z,60252,0.024885265,-0.08793693,0.01372175
1732439697968,2024-11-24T09:14:57.968Z,60255,0.024885265,-0.08793693,0.01372175
1732439697979,2024-11-24T09:14:57.979Z,60266,0.013319473,-0.072166264,0.032654982
1732439697981,2024-11-24T09:14:57.981Z,60268,0.013319473,-0.072166264,0.032654982
1732439697992,2024-11-24T09:14:57.992Z,60279,-0.0021997737,-0.055540502,0.050474383
1732439697996,2024-11-24T09:14:57.996Z,60283,-0.0021997737,-0.055540502,0.050474383
1732439698005,2024-11-24T09:14:58.005Z,60292,-0.004091418,-0.044914052,0.043551564
1732439698009,2024-11-24T09:14:58.009Z,60296,-0.004091418,-0.044914052,0.043551564
1732439698017,2024-11-24T09:14:58.017Z,60304,-0.0049477206,-0.046568528,0.01832018
1732439698019,2024-11-24T09:14:58.019Z,60306,-0.0049477206,-0.046568528,0.01832018
1732439698028,2024-11-24T09:14:58.028Z,60315,0.014516385,-0.043140933,0.015265436
1732439698031,2024-11-24T09:14:58.031Z,60318,0.014516385,-0.043140933,0.015265436
1732439698039,2024-11-24T09:14:58.039Z,60326,-0.003354797,-0.046307806,0.0014601258
1732439698042,2024-11-24T09:14:58.042Z,60329,-0.003354797,-0.046307806,0.0014601258
1732439698050,2024-11-24T09:14:58.050Z,60337,-0.013161585,-0.04850152,0.0070979404
1732439698052,2024-11-24T09:14:58.052Z,60339,-0.013161585,-0.04850152,0.0070979404
1732439698066,2024-11-24T09:14:58.066Z,60353,-0.010871723,-0.05608334,0.02533675
1732439698073,2024-11-24T09:14:58.073Z,60360,-0.010871723,-0.05608334,0.02533675
1732439698095,2024-11-24T09:14:58.095Z,60382,-0.03462215,-0.06006612,0.010865633
1732439698102,2024-11-24T09:14:58.102Z,60389,-0.03462215,-0.06006612,0.010865633
1732439698128,2024-11-24T09:14:58.128Z,60415,-0.032095853,-0.06275609,0.0017183184
1732439698134,2024-11-24T09:14:58.134Z,60421,-0.032095853,-0.06275609,0.0017183184
1732439698149,2024-11-24T09:14:58.149Z,60436,-0.04630923,-0.070289284,-0.00830882
1732439698153,2024-11-24T09:14:58.153Z,60440,-0.04630923,-0.070289284,-0.00830882
1732439698166,2024-11-24T09:14:58.166Z,60453,-0.047546208,-0.079858854,0.0023033607
1732439698169,2024-11-24T09:14:58.169Z,60456,-0.047546208,-0.079858854,0.0023033607
1732439698179,2024-11-24T09:14:58.179Z,60466,-0.06371356,-0.08973523,0.006783028
1732439698182,2024-11-24T09:14:58.182Z,60469,-0.06371356,-0.08973523,0.006783028
1732439698191,2024-11-24T09:14:58.191Z,60478,-0.060195222,-0.08546042,0.019094832
1732439698194,2024-11-24T09:14:58.194Z,60481,-0.060195222,-0.08546042,0.019094832
1732439698204,2024-11-24T09:14:58.204Z,60491,-0.04870531,-0.0776771,0.015103518
1732439698209,2024-11-24T09:14:58.209Z,60496,-0.04870531,-0.0776771,0.015103518
1732439698220,2024-11-24T09:14:58.220Z,60507,-0.03770584,-0.06902565,0.010483449
1732439698223,2024-11-24T09:14:58.223Z,60510,-0.03770584,-0.06902565,0.010483449
1732439698232,2024-11-24T09:14:58.232Z,60519,-0.033676587,-0.0656743,0.0021593855
1732439698235,2024-11-24T09:14:58.235Z,60522,-0.033676587,-0.0656743,0.0021593855
1732439698244,2024-11-24T09:14:58.244Z,60531,-0.028322887,-0.04653449,-5.9695507E-4
1732439698248,2024-11-24T09:14:58.248Z,60535,-0.028322887,-0.04653449,-5.9695507E-4
1732439698263,2024-11-24T09:14:58.263Z,60550,-0.023611423,-0.043454073,-0.0019182841
1732439698268,2024-11-24T09:14:58.268Z,60555,-0.023611423,-0.043454073,-0.0019182841
1732439698277,2024-11-24T09:14:58.277Z,60564,-0.012145802,-0.031069575,0.0065921308
1732439698281,2024-11-24T09:14:58.281Z,60568,-0.012145802,-0.031069575,0.0065921308
1732439698289,2024-11-24T09:14:58.289Z,60576,-0.00424854,-1.4499635E-4,-0.004743719
1732439698292,2024-11-24T09:14:58.292Z,60579,-0.00424854,-1.4499635E-4,-0.004743719
1732439698302,2024-11-24T09:14:58.302Z,60589,-0.0041231574,0.0011241835,-0.008373879
1732439698304,2024-11-24T09:14:58.304Z,60591,-0.0041231574,0.0011241835,-0.008373879
1732439698312,2024-11-24T09:14:58.312Z,60599,-0.0069314586,0.0029385341,-0.006424646
1732439698315,2024-11-24T09:14:58.315Z,60602,-0.0069314586,0.0029385341,-0.006424646
1732439698324,2024-11-24T09:14:58.324Z,60611,-0.003888936,0.048847917,-0.0069961464
1732439698327,2024-11-24T09:14:58.327Z,60614,-0.003888936,0.048847917,-0.0069961464
1732439698335,2024-11-24T09:14:58.335Z,60622,0.011661958,0.053936403,-0.004182624
1732439698338,2024-11-24T09:14:58.338Z,60625,0.011661958,0.053936403,-0.004182624
1732439698348,2024-11-24T09:14:58.348Z,60635,0.010343097,0.0453398,-0.004225316
1732439698354,2024-11-24T09:14:58.354Z,60641,0.010343097,0.0453398,-0.004225316
1732439698374,2024-11-24T09:14:58.374Z,60661,-0.0076143504,0.021611555,-0.039548337
1732439698380,2024-11-24T09:14:58.380Z,60667,-0.0076143504,0.021611555,-0.039548337
1732439698400,2024-11-24T09:14:58.400Z,60687,-0.013296571,0.009830188,-0.042713176
1732439698406,2024-11-24T09:14:58.406Z,60693,-0.013296571,0.009830188,-0.042713176
1732439698425,2024-11-24T09:14:58.425Z,60712,0.008153571,0.012609041,-0.025795685
1732439698430,2024-11-24T09:14:58.430Z,60717,0.008153571,0.012609041,-0.025795685
1732439698443,2024-11-24T09:14:58.443Z,60730,-0.01139714,0.0043115746,-0.034631103
1732439698447,2024-11-24T09:14:58.447Z,60734,-0.01139714,0.0043115746,-0.034631103
1732439698459,2024-11-24T09:14:58.459Z,60746,-0.008416207,-0.005245153,-0.054777715
1732439698463,2024-11-24T09:14:58.463Z,60750,-0.008416207,-0.005245153,-0.054777715
1732439698475,2024-11-24T09:14:58.475Z,60762,-0.006814087,-0.0060054353,-0.06507405
1732439698478,2024-11-24T09:14:58.478Z,60765,-0.006814087,-0.0060054353,-0.06507405
1732439698488,2024-11-24T09:14:58.488Z,60775,-0.010735795,0.006887861,-0.035385393
1732439698491,2024-11-24T09:14:58.491Z,60778,-0.010735795,0.006887861,-0.035385393
1732439698499,2024-11-24T09:14:58.499Z,60786,-0.020359198,0.007664968,-0.029429408
1732439698502,2024-11-24T09:14:58.502Z,60789,-0.020359198,0.007664968,-0.029429408
1732439698510,2024-11-24T09:14:58.510Z,60797,-0.019581215,0.009376138,-0.031360503
1732439698513,2024-11-24T09:14:58.513Z,60800,-0.019581215,0.009376138,-0.031360503
1732439698521,2024-11-24T09:14:58.521Z,60808,-0.016930936,0.023825593,-0.029826542
1732439698523,2024-11-24T09:14:58.523Z,60810,-0.016930936,0.023825593,-0.029826542
1732439698532,2024-11-24T09:14:58.532Z,60819,-0.016841663,0.028698968,-0.027468797
1732439698534,2024-11-24T09:14:58.534Z,60821,-0.016841663,0.028698968,-0.027468797
1732439698545,2024-11-24T09:14:58.545Z,60832,-0.012995492,0.034959387,-0.038403388
1732439698548,2024-11-24T09:14:58.548Z,60835,-0.012995492,0.034959387,-0.038403388
1732439698559,2024-11-24T09:14:58.559Z,60846,0.007984134,0.052558012,-0.048009895
1732439698564,2024-11-24T09:14:58.564Z,60851,0.007984134,0.052558012,-0.048009895
1732439698572,2024-11-24T09:14:58.572Z,60859,-0.007076242,0.061141,-0.046505667
1732439698575,2024-11-24T09:14:58.575Z,60862,-0.007076242,0.061141,-0.046505667
1732439698584,2024-11-24T09:14:58.584Z,60871,0.004429305,0.062427685,-0.04941746
1732439698586,2024-11-24T09:14:58.586Z,60873,0.004429305,0.062427685,-0.04941746
1732439698597,2024-11-24T09:14:58.597Z,60884,-6.0332485E-4,0.07094328,-0.04400144
1732439698604,2024-11-24T09:14:58.604Z,60891,-6.0332485E-4,0.07094328,-0.04400144
1732439698626,2024-11-24T09:14:58.626Z,60913,-0.0010219883,0.07964063,-0.04152746
1732439698632,2024-11-24T09:14:58.632Z,60919,-0.0010219883,0.07964063,-0.04152746
1732439698654,2024-11-24T09:14:58.654Z,60941,-0.010962431,0.09081206,-0.031730764
1732439698660,2024-11-24T09:14:58.660Z,60947,-0.010962431,0.09081206,-0.031730764
1732439698682,2024-11-24T09:14:58.682Z,60969,-0.002960719,0.096071504,-0.039594054
1732439698689,2024-11-24T09:14:58.689Z,60976,-0.002960719,0.096071504,-0.039594054
1732439698711,2024-11-24T09:14:58.711Z,60998,-0.0043727555,0.10579384,-0.027309103
1732439698722,2024-11-24T09:14:58.722Z,61009,-0.0043727555,0.10579384,-0.027309103
1732439698741,2024-11-24T09:14:58.741Z,61028,-0.008196523,0.10085755,-0.027736483
1732439698746,2024-11-24T09:14:58.746Z,61033,-0.008196523,0.10085755,-0.027736483
1732439698758,2024-11-24T09:14:58.758Z,61045,0.0034793045,0.09932454,-0.027835773
1732439698762,2024-11-24T09:14:58.762Z,61049,0.0034793045,0.09932454,-0.027835773
1732439698775,2024-11-24T09:14:58.775Z,61062,-0.014945673,0.10252739,-0.017369475
1732439698780,2024-11-24T09:14:58.780Z,61067,-0.014945673,0.10252739,-0.017369475
1732439698794,2024-11-24T09:14:58.794Z,61081,-0.0021180187,0.09460997,-0.017871054
1732439698797,2024-11-24T09:14:58.797Z,61084,-0.0021180187,0.09460997,-0.017871054
1732439698807,2024-11-24T09:14:58.807Z,61094,-0.0044339974,0.1066645,-0.022507546
1732439698810,2024-11-24T09:14:58.810Z,61097,-0.0044339974,0.1066645,-0.022507546
1732439698823,2024-11-24T09:14:58.823Z,61110,-0.010965908,0.111656815,-0.023288202
1732439698828,2024-11-24T09:14:58.828Z,61115,-0.010965908,0.111656815,-0.023288202
1732439698850,2024-11-24T09:14:58.850Z,61137,-0.009438936,0.124151975,-0.018912068
1732439698856,2024-11-24T09:14:58.856Z,61143,-0.009438936,0.124151975,-0.018912068
1732439698875,2024-11-24T09:14:58.875Z,61162,-0.013451243,0.12541795,-0.018074788
1732439698880,2024-11-24T09:14:58.880Z,61167,-0.013451243,0.12541795,-0.018074788
1732439698891,2024-11-24T09:14:58.891Z,61178,-0.017932175,0.14649445,-0.029420204
1732439698894,2024-11-24T09:14:58.894Z,61181,-0.017932175,0.14649445,-0.029420204
1732439698904,2024-11-24T09:14:58.904Z,61191,-0.013671254,0.15617973,-0.04844812
1732439698908,2024-11-24T09:14:58.908Z,61195,-0.013671254,0.15617973,-0.04844812
1732439698919,2024-11-24T09:14:58.919Z,61206,-0.010908811,0.1595443,-0.052242104
1732439698923,2024-11-24T09:14:58.923Z,61210,-0.010908811,0.1595443,-0.052242104
1732439698932,2024-11-24T09:14:58.932Z,61219,0.0040902877,0.16637674,-0.071895055
1732439698935,2024-11-24T09:14:58.935Z,61222,0.0040902877,0.16637674,-0.071895055
1732439698943,2024-11-24T09:14:58.943Z,61230,0.03358366,0.1620105,-0.07405437
1732439698946,2024-11-24T09:14:58.946Z,61233,0.03358366,0.1620105,-0.07405437
1732439698955,2024-11-24T09:14:58.955Z,61242,0.0661766,0.18130937,-0.069611825
1732439698959,2024-11-24T09:14:58.959Z,61246,0.0661766,0.18130937,-0.069611825
1732439698968,2024-11-24T09:14:58.968Z,61255,0.045180254,0.1753528,-0.062194716
1732439698971,2024-11-24T09:14:58.971Z,61258,0.045180254,0.1753528,-0.062194716
1732439698979,2024-11-24T09:14:58.979Z,61266,0.06162344,0.1792023,-0.065439895
1732439698982,2024-11-24T09:14:58.982Z,61269,0.06162344,0.1792023,-0.065439895
1732439698989,2024-11-24T09:14:58.989Z,61276,0.058510114,0.17280394,-0.062100213
1732439698992,2024-11-24T09:14:58.992Z,61279,0.058510114,0.17280394,-0.062100213
1732439699000,2024-11-24T09:14:59Z,61287,0.07058314,0.16031101,-0.06283347
1732439699002,2024-11-24T09:14:59.002Z,61289,0.07058314,0.16031101,-0.06283347
1732439699010,2024-11-24T09:14:59.010Z,61297,0.069512464,0.16185841,-0.033809602
1732439699014,2024-11-24T09:14:59.014Z,61301,0.069512464,0.16185841,-0.033809602
1732439699022,2024-11-24T09:14:59.022Z,61309,0.054062515,0.14421126,-0.045881618
1732439699025,2024-11-24T09:14:59.025Z,61312,0.054062515,0.14421126,-0.045881618
1732439699035,2024-11-24T09:14:59.035Z,61322,0.055619616,0.13724113,-0.021123577
1732439699037,2024-11-24T09:14:59.037Z,61324,0.055619616,0.13724113,-0.021123577
1732439699046,2024-11-24T09:14:59.046Z,61333,0.06103701,0.12050091,-0.013003502
1732439699049,2024-11-24T09:14:59.049Z,61336,0.06103701,0.12050091,-0.013003502
1732439699059,2024-11-24T09:14:59.059Z,61346,0.05835307,0.10276827,-0.013097675
1732439699063,2024-11-24T09:14:59.063Z,61350,0.05835307,0.10276827,-0.013097675
1732439699071,2024-11-24T09:14:59.071Z,61358,0.03484033,0.06632362,-0.022233501
1732439699073,2024-11-24T09:14:59.073Z,61360,0.03484033,0.06632362,-0.022233501
1732439699083,2024-11-24T09:14:59.083Z,61370,0.024834404,0.044190723,0.0058717807
1732439699085,2024-11-24T09:14:59.085Z,61372,0.024834404,0.044190723,0.0058717807
1732439699101,2024-11-24T09:14:59.101Z,61388,0.006315048,0.018125419,0.005733263
1732439699107,2024-11-24T09:14:59.107Z,61394,0.006315048,0.018125419,0.005733263
1732439699124,2024-11-24T09:14:59.124Z,61411,0.01732823,-0.010735467,0.018796828
1732439699130,2024-11-24T09:14:59.130Z,61417,0.01732823,-0.010735467,0.018796828
1732439699145,2024-11-24T09:14:59.145Z,61432,0.009927229,-0.020393915,0.0148897795
1732439699149,2024-11-24T09:14:59.149Z,61436,0.009927229,-0.020393915,0.0148897795
1732439699161,2024-11-24T09:14:59.161Z,61448,0.009116366,-0.023277504,0.0069411527
1732439699164,2024-11-24T09:14:59.164Z,61451,0.009116366,-0.023277504,0.0069411527
1732439699176,2024-11-24T09:14:59.176Z,61463,0.0013729797,-0.024510508,-0.003643714
1732439699182,2024-11-24T09:14:59.182Z,61469,0.0013729797,-0.024510508,-0.003643714
1732439699200,2024-11-24T09:14:59.200Z,61487,0.01214004,-0.026626814,-0.005695276
1732439699203,2024-11-24T09:14:59.203Z,61490,0.01214004,-0.026626814,-0.005695276
1732439699216,2024-11-24T09:14:59.216Z,61503,0.0018121504,-0.016999971,-0.017943734
1732439699220,2024-11-24T09:14:59.220Z,61507,0.0018121504,-0.016999971,-0.017943734
1732439699232,2024-11-24T09:14:59.232Z,61519,0.012215382,-0.021507986,-0.037706073
1732439699236,2024-11-24T09:14:59.236Z,61523,0.012215382,-0.021507986,-0.037706073
1732439699250,2024-11-24T09:14:59.250Z,61537,0.018115232,-0.012241056,-0.038830306
1732439699253,2024-11-24T09:14:59.253Z,61540,0.018115232,-0.012241056,-0.038830306
1732439699264,2024-11-24T09:14:59.264Z,61551,0.009434341,-0.01954718,-0.02803575
1732439699267,2024-11-24T09:14:59.267Z,61554,0.009434341,-0.01954718,-0.02803575
1732439699277,2024-11-24T09:14:59.277Z,61564,0.022394799,0.0068193986,-0.03699969
1732439699280,2024-11-24T09:14:59.280Z,61567,0.022394799,0.0068193986,-0.03699969
1732439699289,2024-11-24T09:14:59.289Z,61576,0.020086698,0.010049579,-0.0368845
1732439699292,2024-11-24T09:14:59.292Z,61579,0.020086698,0.010049579,-0.0368845
1732439699301,2024-11-24T09:14:59.301Z,61588,0.027936509,0.0094085215,-0.032238822
1732439699304,2024-11-24T09:14:59.304Z,61591,0.027936509,0.0094085215,-0.032238822
1732439699312,2024-11-24T09:14:59.312Z,61599,0.020799147,0.017910112,-0.035849713
1732439699314,2024-11-24T09:14:59.314Z,61601,0.020799147,0.017910112,-0.035849713
1732439699323,2024-11-24T09:14:59.323Z,61610,0.017013002,0.021151766,-0.021405341
1732439699327,2024-11-24T09:14:59.327Z,61614,0.017013002,0.021151766,-0.021405341
1732439699336,2024-11-24T09:14:59.336Z,61623,0.0064223604,0.021411808,-0.012565548
1732439699338,2024-11-24T09:14:59.338Z,61625,0.0064223604,0.021411808,-0.012565548
1732439699350,2024-11-24T09:14:59.350Z,61637,0.0069983224,0.01894191,-0.030014692
1732439699353,2024-11-24T09:14:59.353Z,61640,0.0069983224,0.01894191,-0.030014692
1732439699362,2024-11-24T09:14:59.362Z,61649,0.0019477867,0.018183962,-0.018210279
1732439699365,2024-11-24T09:14:59.365Z,61652,0.0019477867,0.018183962,-0.018210279
1732439699375,2024-11-24T09:14:59.375Z,61662,0.0051308866,0.020328565,0.0021776801
1732439699378,2024-11-24T09:14:59.378Z,61665,0.0051308866,0.020328565,0.0021776801
1732439699390,2024-11-24T09:14:59.390Z,61677,-0.0063367947,0.01805005,0.015570526
1732439699395,2024-11-24T09:14:59.395Z,61682,-0.0063367947,0.01805005,0.015570526
1732439699403,2024-11-24T09:14:59.403Z,61690,-0.011448062,0.011415228,0.005246879
1732439699406,2024-11-24T09:14:59.406Z,61693,-0.011448062,0.011415228,0.005246879
1732439699415,2024-11-24T09:14:59.415Z,61702,-0.019178124,0.010470272,0.0045016212
1732439699418,2024-11-24T09:14:59.418Z,61705,-0.019178124,0.010470272,0.0045016212
1732439699426,2024-11-24T09:14:59.426Z,61713,-0.021460516,0.006561984,-0.009061749
1732439699429,2024-11-24T09:14:59.429Z,61716,-0.021460516,0.006561984,-0.009061749
1732439699437,2024-11-24T09:14:59.437Z,61724,-0.020642858,-3.7109727E-4,3.8209843E-4
1732439699439,2024-11-24T09:14:59.439Z,61726,-0.020642858,-3.7109727E-4,3.8209843E-4
1732439699447,2024-11-24T09:14:59.447Z,61734,-0.0170736,-9.432056E-4,4.873326E-4
1732439699450,2024-11-24T09:14:59.450Z,61737,-0.0170736,-9.432056E-4,4.873326E-4
1732439699457,2024-11-24T09:14:59.457Z,61744,-0.015954837,0.0023924883,0.0064566163
1732439699460,2024-11-24T09:14:59.460Z,61747,-0.015954837,0.0023924883,0.0064566163
1732439699468,2024-11-24T09:14:59.468Z,61755,-0.009478492,-0.015390423,-0.0044761784
1732439699471,2024-11-24T09:14:59.471Z,61758,-0.009478492,-0.015390423,-0.0044761784
1732439699480,2024-11-24T09:14:59.480Z,61767,-0.024799637,-0.018352492,-0.001940493
1732439699483,2024-11-24T09:14:59.483Z,61770,-0.024799637,-0.018352492,-0.001940493
1732439699492,2024-11-24T09:14:59.492Z,61779,-0.0181729,-0.019839311,-0.0022868286
1732439699495,2024-11-24T09:14:59.495Z,61782,-0.0181729,-0.019839311,-0.0022868286
1732439699503,2024-11-24T09:14:59.503Z,61790,-0.027671387,-0.025716186,-0.018710557
1732439699505,2024-11-24T09:14:59.505Z,61792,-0.027671387,-0.025716186,-0.018710557
1732439699515,2024-11-24T09:14:59.515Z,61802,-0.022794584,-0.017930923,-0.004699192
1732439699518,2024-11-24T09:14:59.518Z,61805,-0.022794584,-0.017930923,-0.004699192
1732439699527,2024-11-24T09:14:59.527Z,61814,-0.012528132,-0.014562554,0.004318832
1732439699529,2024-11-24T09:14:59.529Z,61816,-0.012528132,-0.014562554,0.004318832
1732439699538,2024-11-24T09:14:59.538Z,61825,-0.019316569,-0.0031089121,-0.0073762755
1732439699541,2024-11-24T09:14:59.541Z,61828,-0.019316569,-0.0031089121,-0.0073762755
1732439699551,2024-11-24T09:14:59.551Z,61838,-0.008727581,0.002153356,-0.01694217
1732439699553,2024-11-24T09:14:59.553Z,61840,-0.008727581,0.002153356,-0.01694217
1732439699563,2024-11-24T09:14:59.563Z,61850,-0.006129256,0.008411441,-0.0065567447
1732439699566,2024-11-24T09:14:59.566Z,61853,-0.006129256,0.008411441,-0.0065567447
1732439699574,2024-11-24T09:14:59.574Z,61861,-0.014756976,0.0077693146,-0.0087311305
1732439699576,2024-11-24T09:14:59.576Z,61863,-0.014756976,0.0077693146,-0.0087311305
1732439699586,2024-11-24T09:14:59.586Z,61873,-0.011302555,0.010620131,-0.015491622
1732439699588,2024-11-24T09:14:59.588Z,61875,-0.011302555,0.010620131,-0.015491622
1732439699597,2024-11-24T09:14:59.597Z,61884,-0.0049897437,0.013496038,-0.010449619
1732439699599,2024-11-24T09:14:59.599Z,61886,-0.0049897437,0.013496038,-0.010449619
1732439699607,2024-11-24T09:14:59.607Z,61894,-0.014343284,0.014433311,0.0034267786
1732439699610,2024-11-24T09:14:59.610Z,61897,-0.014343284,0.014433311,0.0034267786
1732439699618,2024-11-24T09:14:59.618Z,61905,-0.007043482,0.016863532,0.007235449
1732439699621,2024-11-24T09:14:59.621Z,61908,-0.007043482,0.016863532,0.007235449
1732439699628,2024-11-24T09:14:59.628Z,61915,-0.014276609,0.01633499,-0.0036614859
1732439699631,2024-11-24T09:14:59.631Z,61918,-0.014276609,0.01633499,-0.0036614859
1732439699638,2024-11-24T09:14:59.638Z,61925,-0.020038147,0.014819288,-0.011685553
1732439699641,2024-11-24T09:14:59.641Z,61928,-0.020038147,0.014819288,-0.011685553
1732439699649,2024-11-24T09:14:59.649Z,61936,-0.013452556,0.014209544,-0.011704236
1732439699652,2024-11-24T09:14:59.652Z,61939,-0.013452556,0.014209544,-0.011704236
1732439699661,2024-11-24T09:14:59.661Z,61948,-0.011861073,0.013642007,-0.009622577
1732439699664,2024-11-24T09:14:59.664Z,61951,-0.011861073,0.013642007,-0.009622577
1732439699672,2024-11-24T09:14:59.672Z,61959,-0.00758458,0.016518692,-0.009595359
1732439699674,2024-11-24T09:14:59.674Z,61961,-0.00758458,0.016518692,-0.009595359
1732439699683,2024-11-24T09:14:59.683Z,61970,-0.020831713,0.0028184333,-0.021605926
1732439699686,2024-11-24T09:14:59.686Z,61973,-0.020831713,0.0028184333,-0.021605926
1732439699695,2024-11-24T09:14:59.695Z,61982,-0.010498121,0.0018531524,-0.010260412
1732439699698,2024-11-24T09:14:59.698Z,61985,-0.010498121,0.0018531524,-0.010260412
1732439699708,2024-11-24T09:14:59.708Z,61995,-0.012816616,0.0057684425,-0.009133566
1732439699711,2024-11-24T09:14:59.711Z,61998,-0.012816616,0.0057684425,-0.009133566
1732439699719,2024-11-24T09:14:59.719Z,62006,-0.010903158,0.008736248,-0.009986501
1732439699722,2024-11-24T09:14:59.722Z,62009,-0.010903158,0.008736248,-0.009986501
1732439699732,2024-11-24T09:14:59.732Z,62019,-0.006515791,0.017524816,-0.009539332
1732439699734,2024-11-24T09:14:59.734Z,62021,-0.006515791,0.017524816,-0.009539332
1732439699741,2024-11-24T09:14:59.741Z,62028,-0.0042409,0.015579765,-0.009202563
1732439699744,2024-11-24T09:14:59.744Z,62031,-0.0042409,0.015579765,-0.009202563
1732439699752,2024-11-24T09:14:59.752Z,62039,-2.5582226E-4,0.024303857,0.009957315
1732439699755,2024-11-24T09:14:59.755Z,62042,-2.5582226E-4,0.024303857,0.009957315
1732439699764,2024-11-24T09:14:59.764Z,62051,-0.0023567984,0.03005888,0.0052583297
1732439699767,2024-11-24T09:14:59.767Z,62054,-0.0023567984,0.03005888,0.0052583297
1732439699776,2024-11-24T09:14:59.776Z,62063,-0.00351418,0.035784144,0.005243925
1732439699780,2024-11-24T09:14:59.780Z,62067,-0.00351418,0.035784144,0.005243925
1732439699788,2024-11-24T09:14:59.788Z,62075,0.00864052,0.019315245,-0.001229126
1732439699790,2024-11-24T09:14:59.790Z,62077,0.00864052,0.019315245,-0.001229126
1732439699800,2024-11-24T09:14:59.800Z,62087,0.0140851885,0.015351525,0.00444619
1732439699802,2024-11-24T09:14:59.802Z,62089,0.0140851885,0.015351525,0.00444619
1732439699810,2024-11-24T09:14:59.810Z,62097,9.3318906E-4,0.014814036,0.0067392546
1732439699813,2024-11-24T09:14:59.813Z,62100,9.3318906E-4,0.014814036,0.0067392546
1732439699823,2024-11-24T09:14:59.823Z,62110,0.0016801852,0.0034920683,-0.004008563
1732439699827,2024-11-24T09:14:59.827Z,62114,0.0016801852,0.0034920683,-0.004008563
1732439699843,2024-11-24T09:14:59.843Z,62130,-0.0014898714,0.0068623824,-0.005348527
1732439699849,2024-11-24T09:14:59.849Z,62136,-0.0014898714,0.0068623824,-0.005348527
1732439699867,2024-11-24T09:14:59.867Z,62154,-0.0071739033,0.0053772153,-0.013906642
1732439699873,2024-11-24T09:14:59.873Z,62160,-0.0071739033,0.0053772153,-0.013906642
1732439699889,2024-11-24T09:14:59.889Z,62176,-0.0022700534,0.008761046,-0.004924345
1732439699891,2024-11-24T09:14:59.891Z,62178,-0.0022700534,0.008761046,-0.004924345
1732439699906,2024-11-24T09:14:59.906Z,62193,-0.0042503937,0.009238922,-0.02046701
1732439699919,2024-11-24T09:14:59.919Z,62206,-0.0042503937,0.009238922,-0.02046701
1732439699941,2024-11-24T09:14:59.941Z,62228,0.0103195505,0.009743054,-0.012463122
1732439699948,2024-11-24T09:14:59.948Z,62235,0.0103195505,0.009743054,-0.012463122
1732439699966,2024-11-24T09:14:59.966Z,62253,0.012242563,0.020988002,-0.009788493
1732439699970,2024-11-24T09:14:59.970Z,62257,0.012242563,0.020988002,-0.009788493
1732439699981,2024-11-24T09:14:59.981Z,62268,-0.0033210095,0.030773748,-0.016083714
1732439699984,2024-11-24T09:14:59.984Z,62271,-0.0033210095,0.030773748,-0.016083714
1732439699997,2024-11-24T09:14:59.997Z,62284,0.007953696,0.0385629,-0.013526646
1732439700001,2024-11-24T09:15:00.001Z,62288,0.007953696,0.0385629,-0.013526646
1732439700013,2024-11-24T09:15:00.013Z,62300,0.0036159619,0.07729968,-0.01377024
1732439700016,2024-11-24T09:15:00.016Z,62303,0.0036159619,0.07729968,-0.01377024
1732439700027,2024-11-24T09:15:00.027Z,62314,0.01002376,0.077610776,-0.02380099
1732439700030,2024-11-24T09:15:00.030Z,62317,0.01002376,0.077610776,-0.02380099
1732439700040,2024-11-24T09:15:00.040Z,62327,0.01503322,0.09933854,-0.0175174
1732439700043,2024-11-24T09:15:00.043Z,62330,0.01503322,0.09933854,-0.0175174
1732439700053,2024-11-24T09:15:00.053Z,62340,0.026538694,0.1405207,-0.044718474
1732439700056,2024-11-24T09:15:00.056Z,62343,0.026538694,0.1405207,-0.044718474
1732439700065,2024-11-24T09:15:00.065Z,62352,0.032364417,0.14912179,-0.04323875
1732439700067,2024-11-24T09:15:00.067Z,62354,0.032364417,0.14912179,-0.04323875
1732439700074,2024-11-24T09:15:00.074Z,62361,0.031415462,0.14360249,-0.039072298
1732439700077,2024-11-24T09:15:00.077Z,62364,0.031415462,0.14360249,-0.039072298
1732439700085,2024-11-24T09:15:00.085Z,62372,0.048854336,0.15808822,-0.040600084
1732439700088,2024-11-24T09:15:00.088Z,62375,0.048854336,0.15808822,-0.040600084
1732439700096,2024-11-24T09:15:00.096Z,62383,0.053333566,0.15855092,0.0076755066
1732439700099,2024-11-24T09:15:00.099Z,62386,0.053333566,0.15855092,0.0076755066
1732439700107,2024-11-24T09:15:00.107Z,62394,0.056150157,0.1751232,0.024539039
1732439700110,2024-11-24T09:15:00.110Z,62397,0.056150157,0.1751232,0.024539039
1732439700119,2024-11-24T09:15:00.119Z,62406,0.036001347,0.15320706,-0.032358047
1732439700122,2024-11-24T09:15:00.122Z,62409,0.036001347,0.15320706,-0.032358047
1732439700129,2024-11-24T09:15:00.129Z,62416,0.034574978,0.14798972,-0.058021303
1732439700132,2024-11-24T09:15:00.132Z,62419,0.034574978,0.14798972,-0.058021303
1732439700140,2024-11-24T09:15:00.140Z,62427,0.035995062,0.14564177,-0.04935527
1732439700143,2024-11-24T09:15:00.143Z,62430,0.035995062,0.14564177,-0.04935527
1732439700151,2024-11-24T09:15:00.151Z,62438,0.0370047,0.13108185,-0.07210598
1732439700153,2024-11-24T09:15:00.153Z,62440,0.0370047,0.13108185,-0.07210598
1732439700160,2024-11-24T09:15:00.160Z,62447,0.04388603,0.1316591,-0.04986323
1732439700163,2024-11-24T09:15:00.163Z,62450,0.04388603,0.1316591,-0.04986323
1732439700172,2024-11-24T09:15:00.172Z,62459,0.037493844,0.12789066,-0.037686236
1732439700175,2024-11-24T09:15:00.175Z,62462,0.037493844,0.12789066,-0.037686236
1732439700185,2024-11-24T09:15:00.185Z,62472,0.016592406,0.11492531,-0.02886768
1732439700188,2024-11-24T09:15:00.188Z,62475,0.016592406,0.11492531,-0.02886768
1732439700195,2024-11-24T09:15:00.195Z,62482,-0.01270449,0.11420091,-0.060201466
1732439700199,2024-11-24T09:15:00.199Z,62486,-0.01270449,0.11420091,-0.060201466
1732439700207,2024-11-24T09:15:00.207Z,62494,-0.0146111045,0.10469106,-0.07195452
1732439700209,2024-11-24T09:15:00.209Z,62496,-0.0146111045,0.10469106,-0.07195452
1732439700218,2024-11-24T09:15:00.218Z,62505,0.011384826,0.12183067,-0.037029013
1732439700220,2024-11-24T09:15:00.220Z,62507,0.011384826,0.12183067,-0.037029013
1732439700230,2024-11-24T09:15:00.230Z,62517,0.025857864,0.1157912,-0.015472938
1732439700234,2024-11-24T09:15:00.234Z,62521,0.025857864,0.1157912,-0.015472938
1732439700241,2024-11-24T09:15:00.241Z,62528,0.009636763,0.12047961,-0.025184277
1732439700243,2024-11-24T09:15:00.243Z,62530,0.009636763,0.12047961,-0.025184277
1732439700251,2024-11-24T09:15:00.251Z,62538,0.028434806,0.116223276,-0.04230735
1732439700253,2024-11-24T09:15:00.253Z,62540,0.028434806,0.116223276,-0.04230735
1732439700262,2024-11-24T09:15:00.262Z,62549,0.019113941,0.11904093,-0.047029287
1732439700265,2024-11-24T09:15:00.265Z,62552,0.019113941,0.11904093,-0.047029287
1732439700275,2024-11-24T09:15:00.275Z,62562,-0.009102593,0.12185839,-0.041892882
1732439700277,2024-11-24T09:15:00.277Z,62564,-0.009102593,0.12185839,-0.041892882
1732439700285,2024-11-24T09:15:00.285Z,62572,0.0038944792,0.117108226,-0.039924014
1732439700288,2024-11-24T09:15:00.288Z,62575,0.0038944792,0.117108226,-0.039924014
1732439700295,2024-11-24T09:15:00.295Z,62582,0.012522844,0.113005444,-0.043491002
1732439700298,2024-11-24T09:15:00.298Z,62585,0.012522844,0.113005444,-0.043491002
1732439700305,2024-11-24T09:15:00.305Z,62592,0.016039794,0.11575123,-0.039031986
1732439700307,2024-11-24T09:15:00.307Z,62594,0.016039794,0.11575123,-0.039031986
1732439700315,2024-11-24T09:15:00.315Z,62602,9.246434E-4,0.09684472,-0.034239743
1732439700318,2024-11-24T09:15:00.318Z,62605,9.246434E-4,0.09684472,-0.034239743
1732439700326,2024-11-24T09:15:00.326Z,62613,0.015592468,0.09037658,-0.034437396
1732439700328,2024-11-24T09:15:00.328Z,62615,0.015592468,0.09037658,-0.034437396
1732439700336,2024-11-24T09:15:00.336Z,62623,0.009682007,0.07853064,-0.019567285
1732439700338,2024-11-24T09:15:00.338Z,62625,0.009682007,0.07853064,-0.019567285
1732439700345,2024-11-24T09:15:00.345Z,62632,0.011691996,0.07272203,-0.008676295
1732439700349,2024-11-24T09:15:00.349Z,62636,0.011691996,0.07272203,-0.008676295
1732439700357,2024-11-24T09:15:00.357Z,62644,-0.023111042,0.051470492,-0.03082157
1732439700360,2024-11-24T09:15:00.360Z,62647,-0.023111042,0.051470492,-0.03082157
1732439700367,2024-11-24T09:15:00.367Z,62654,-0.028034486,0.04576847,-0.011224866
1732439700369,2024-11-24T09:15:00.369Z,62656,-0.028034486,0.04576847,-0.011224866
1732439700376,2024-11-24T09:15:00.376Z,62663,0.021133777,0.040941093,0.019867027
1732439700379,2024-11-24T09:15:00.379Z,62666,0.021133777,0.040941093,0.019867027
1732439700388,2024-11-24T09:15:00.388Z,62675,-0.018753614,0.010124167,1.7699084E-4
1732439700394,2024-11-24T09:15:00.394Z,62681,-0.018753614,0.010124167,1.7699084E-4
1732439700404,2024-11-24T09:15:00.404Z,62691,0.0016934352,3.0146792E-4,-0.017672924
1732439700407,2024-11-24T09:15:00.407Z,62694,0.0016934352,3.0146792E-4,-0.017672924
1732439700417,2024-11-24T09:15:00.417Z,62704,-0.0074065076,-0.04357787,-0.015674386
1732439700420,2024-11-24T09:15:00.420Z,62707,-0.0074065076,-0.04357787,-0.015674386
1732439700427,2024-11-24T09:15:00.427Z,62714,-0.033441324,-0.05289517,0.007238731
1732439700431,2024-11-24T09:15:00.431Z,62718,-0.033441324,-0.05289517,0.007238731
1732439700438,2024-11-24T09:15:00.438Z,62725,-0.031053772,-0.049905095,0.01937515
1732439700440,2024-11-24T09:15:00.440Z,62727,-0.031053772,-0.049905095,0.01937515
1732439700448,2024-11-24T09:15:00.448Z,62735,-0.033701234,-0.058864724,0.03341035
1732439700450,2024-11-24T09:15:00.450Z,62737,-0.033701234,-0.058864724,0.03341035
1732439700458,2024-11-24T09:15:00.458Z,62745,-0.0456627,-0.055254206,0.029635804
1732439700462,2024-11-24T09:15:00.462Z,62749,-0.0456627,-0.055254206,0.029635804
1732439700471,2024-11-24T09:15:00.471Z,62758,-0.051401276,-0.056507047,0.018055666
1732439700473,2024-11-24T09:15:00.473Z,62760,-0.051401276,-0.056507047,0.018055666
1732439700480,2024-11-24T09:15:00.480Z,62767,-0.049573325,-0.05023253,0.017399171
1732439700483,2024-11-24T09:15:00.483Z,62770,-0.049573325,-0.05023253,0.017399171
1732439700491,2024-11-24T09:15:00.491Z,62778,-0.045560166,-0.051585246,0.01595169
1732439700494,2024-11-24T09:15:00.494Z,62781,-0.045560166,-0.051585246,0.01595169
1732439700504,2024-11-24T09:15:00.504Z,62791,-0.059509367,-0.052535355,-0.006005654
1732439700506,2024-11-24T09:15:00.506Z,62793,-0.059509367,-0.052535355,-0.006005654
1732439700514,2024-11-24T09:15:00.514Z,62801,-0.04326913,-0.046719357,0.039095987
1732439700517,2024-11-24T09:15:00.517Z,62804,-0.04326913,-0.046719357,0.039095987
1732439700528,2024-11-24T09:15:00.528Z,62815,-0.056060817,-0.053737823,0.026875865
1732439700533,2024-11-24T09:15:00.533Z,62820,-0.056060817,-0.053737823,0.026875865
1732439700551,2024-11-24T09:15:00.551Z,62838,-0.021185756,-0.053903632,0.015104977
1732439700556,2024-11-24T09:15:00.556Z,62843,-0.021185756,-0.053903632,0.015104977
1732439700571,2024-11-24T09:15:00.571Z,62858,-0.01878996,-0.056289215,0.031225512
1732439700574,2024-11-24T09:15:00.574Z,62861,-0.01878996,-0.056289215,0.031225512
1732439700585,2024-11-24T09:15:00.585Z,62872,-0.013182767,-0.051179722,0.018611511
1732439700588,2024-11-24T09:15:00.588Z,62875,-0.013182767,-0.051179722,0.018611511
1732439700597,2024-11-24T09:15:00.597Z,62884,-0.007234039,-0.05341428,0.021954644
1732439700600,2024-11-24T09:15:00.600Z,62887,-0.007234039,-0.05341428,0.021954644
1732439700609,2024-11-24T09:15:00.609Z,62896,-0.025929779,-0.0465342,0.007164555
1732439700612,2024-11-24T09:15:00.612Z,62899,-0.025929779,-0.0465342,0.007164555
1732439700620,2024-11-24T09:15:00.620Z,62907,-0.009696107,-0.04811029,-0.009212617
1732439700623,2024-11-24T09:15:00.623Z,62910,-0.009696107,-0.04811029,-0.009212617
1732439700631,2024-11-24T09:15:00.631Z,62918,0.0021000158,-0.053597104,0.019801604
1732439700633,2024-11-24T09:15:00.633Z,62920,0.0021000158,-0.053597104,0.019801604
1732439700640,2024-11-24T09:15:00.640Z,62927,0.001073785,-0.03918665,0.0010958601
1732439700642,2024-11-24T09:15:00.642Z,62929,0.001073785,-0.03918665,0.0010958601
1732439700650,2024-11-24T09:15:00.650Z,62937,-0.01856663,-0.02999985,0.027233906
1732439700652,2024-11-24T09:15:00.652Z,62939,-0.01856663,-0.02999985,0.027233906
1732439700659,2024-11-24T09:15:00.659Z,62946,-0.009264826,-0.026160413,0.035970155
1732439700662,2024-11-24T09:15:00.662Z,62949,-0.009264826,-0.026160413,0.035970155
1732439700670,2024-11-24T09:15:00.670Z,62957,-0.020265901,-0.007095874,0.018018907
1732439700672,2024-11-24T09:15:00.672Z,62959,-0.020265901,-0.007095874,0.018018907
1732439700681,2024-11-24T09:15:00.681Z,62968,-0.012296159,-0.00749634,0.023287473
1732439700683,2024-11-24T09:15:00.683Z,62970,-0.012296159,-0.00749634,0.023287473
1732439700690,2024-11-24T09:15:00.690Z,62977,-0.024205199,-0.016212944,0.024677532
1732439700692,2024-11-24T09:15:00.692Z,62979,-0.024205199,-0.016212944,0.024677532
1732439700700,2024-11-24T09:15:00.700Z,62987,0.012009035,-0.014026718,0.064393304
1732439700703,2024-11-24T09:15:00.703Z,62990,0.012009035,-0.014026718,0.064393304
1732439700714,2024-11-24T09:15:00.714Z,63001,0.0049472344,-0.017789524,0.035269387
1732439700720,2024-11-24T09:15:00.720Z,63007,0.0049472344,-0.017789524,0.035269387
1732439700738,2024-11-24T09:15:00.738Z,63025,-0.014290138,-0.02501503,0.01089454
1732439700745,2024-11-24T09:15:00.745Z,63032,-0.014290138,-0.02501503,0.01089454
1732439700764,2024-11-24T09:15:00.764Z,63051,-3.66867E-5,-0.030287411,0.0013703175
1732439700770,2024-11-24T09:15:00.770Z,63057,-3.66867E-5,-0.030287411,0.0013703175
1732439700784,2024-11-24T09:15:00.784Z,63071,-0.019191375,-0.036549482,0.0077756844
1732439700788,2024-11-24T09:15:00.788Z,63075,-0.019191375,-0.036549482,0.0077756844
1732439700801,2024-11-24T09:15:00.801Z,63088,0.012917937,-0.04376828,-0.008696766
1732439700805,2024-11-24T09:15:00.805Z,63092,0.012917937,-0.04376828,-0.008696766
1732439700816,2024-11-24T09:15:00.816Z,63103,0.03653035,-0.03567445,-0.01110953
1732439700819,2024-11-24T09:15:00.819Z,63106,0.03653035,-0.03567445,-0.01110953
1732439700828,2024-11-24T09:15:00.828Z,63115,0.0090177925,-0.029901242,-0.0050988924
1732439700831,2024-11-24T09:15:00.831Z,63118,0.0090177925,-0.029901242,-0.0050988924
1732439700839,2024-11-24T09:15:00.839Z,63126,-6.378599E-4,-0.030389424,-3.7318812E-4
1732439700841,2024-11-24T09:15:00.841Z,63128,-6.378599E-4,-0.030389424,-3.7318812E-4
1732439700851,2024-11-24T09:15:00.851Z,63138,0.034927137,-0.043768667,0.00937271
1732439700853,2024-11-24T09:15:00.853Z,63140,0.034927137,-0.043768667,0.00937271
1732439700861,2024-11-24T09:15:00.861Z,63148,0.016086547,-0.05095051,0.015560972
1732439700864,2024-11-24T09:15:00.864Z,63151,0.016086547,-0.05095051,0.015560972
1732439700871,2024-11-24T09:15:00.871Z,63158,-0.0037756911,-0.054828845,0.040055506
1732439700874,2024-11-24T09:15:00.874Z,63161,-0.0037756911,-0.054828845,0.040055506
1732439700882,2024-11-24T09:15:00.882Z,63169,-0.013626726,-0.056938928,0.04972684
1732439700884,2024-11-24T09:15:00.884Z,63171,-0.013626726,-0.056938928,0.04972684
1732439700891,2024-11-24T09:15:00.891Z,63178,-0.01697138,-0.052742783,0.035419147
1732439700893,2024-11-24T09:15:00.893Z,63180,-0.01697138,-0.052742783,0.035419147
1732439700901,2024-11-24T09:15:00.901Z,63188,-0.013157653,-0.049785968,0.05653051
1732439700903,2024-11-24T09:15:00.903Z,63190,-0.013157653,-0.049785968,0.05653051
1732439700915,2024-11-24T09:15:00.915Z,63202,-0.016392598,-0.048104554,0.04008733
1732439700923,2024-11-24T09:15:00.923Z,63210,-0.016392598,-0.048104554,0.04008733
1732439700948,2024-11-24T09:15:00.948Z,63235,-0.029981107,-0.047483046,0.04528364
1732439700950,2024-11-24T09:15:00.950Z,63237,-0.029981107,-0.047483046,0.04528364
1732439700958,2024-11-24T09:15:00.958Z,63245,-0.019897064,-0.040212903,0.024404848
1732439700960,2024-11-24T09:15:00.960Z,63247,-0.019897064,-0.040212903,0.024404848
1732439700968,2024-11-24T09:15:00.968Z,63255,-0.0033677856,-0.034562033,0.024882846
1732439700970,2024-11-24T09:15:00.970Z,63257,-0.0033677856,-0.034562033,0.024882846
1732439700977,2024-11-24T09:15:00.977Z,63264,-0.0066637537,-0.029338954,0.035665136
1732439700980,2024-11-24T09:15:00.980Z,63267,-0.0066637537,-0.029338954,0.035665136
1732439700992,2024-11-24T09:15:00.992Z,63279,-0.020767346,-0.036871664,0.03570112
1732439700995,2024-11-24T09:15:00.995Z,63282,-0.020767346,-0.036871664,0.03570112
1732439701003,2024-11-24T09:15:01.003Z,63290,-0.010397616,-0.032123547,0.05117724
1732439701005,2024-11-24T09:15:01.005Z,63292,-0.010397616,-0.032123547,0.05117724
1732439701011,2024-11-24T09:15:01.011Z,63298,5.0191977E-4,-0.03567474,0.04081146
1732439701014,2024-11-24T09:15:01.014Z,63301,5.0191977E-4,-0.03567474,0.04081146
1732439701084,2024-11-24T09:15:01.084Z,63371,-0.005620286,-0.0329696,0.0393976
1732439701087,2024-11-24T09:15:01.087Z,63374,-0.005620286,-0.0329696,0.0393976
1732439701096,2024-11-24T09:15:01.096Z,63383,-0.0017215033,-0.037969787,0.04276271
1732439701100,2024-11-24T09:15:01.100Z,63387,-0.0017215033,-0.037969787,0.04276271
1732439701109,2024-11-24T09:15:01.109Z,63396,-0.014944871,-0.04834884,0.060747486
1732439701113,2024-11-24T09:15:01.113Z,63400,-0.014944871,-0.04834884,0.060747486
1732439701127,2024-11-24T09:15:01.127Z,63414,0.012448364,-0.058232903,0.061853122
1732439701130,2024-11-24T09:15:01.130Z,63417,0.012448364,-0.058232903,0.061853122
1732439701140,2024-11-24T09:15:01.140Z,63427,0.007809417,-0.06692821,0.059959855
1732439701143,2024-11-24T09:15:01.143Z,63430,0.007809417,-0.06692821,0.059959855
1732439701154,2024-11-24T09:15:01.154Z,63441,0.005731574,-0.06928015,0.060065854
1732439701157,2024-11-24T09:15:01.157Z,63444,0.005731574,-0.06928015,0.060065854
1732439701172,2024-11-24T09:15:01.172Z,63459,0.01374633,-0.11905406,0.07244184
1732439701175,2024-11-24T09:15:01.175Z,63462,0.01374633,-0.11905406,0.07244184
1732439701184,2024-11-24T09:15:01.184Z,63471,5.799732E-4,-0.13453005,0.07236438
1732439701187,2024-11-24T09:15:01.187Z,63474,5.799732E-4,-0.13453005,0.07236438
1732439701195,2024-11-24T09:15:01.195Z,63482,-0.0022233746,-0.13921769,0.063197814
1732439701197,2024-11-24T09:15:01.197Z,63484,-0.0022233746,-0.13921769,0.063197814
1732439701217,2024-11-24T09:15:01.217Z,63504,0.0015491075,-0.15014075,0.0706996
1732439701219,2024-11-24T09:15:01.219Z,63506,0.0015491075,-0.15014075,0.0706996
1732439701227,2024-11-24T09:15:01.227Z,63514,-0.019095002,-0.1576792,0.06691948
1732439701230,2024-11-24T09:15:01.230Z,63517,-0.019095002,-0.1576792,0.06691948
1732439701239,2024-11-24T09:15:01.239Z,63526,-0.01675927,-0.17160283,0.05523607
1732439701242,2024-11-24T09:15:01.242Z,63529,-0.01675927,-0.17160283,0.05523607
1732439701265,2024-11-24T09:15:01.265Z,63552,-0.014746187,-0.18287627,0.06413842
1732439701268,2024-11-24T09:15:01.268Z,63555,-0.014746187,-0.18287627,0.06413842
1732439701281,2024-11-24T09:15:01.281Z,63568,-0.0024505877,-0.17825302,0.07206323
1732439701288,2024-11-24T09:15:01.288Z,63575,-0.0024505877,-0.17825302,0.07206323
1732439701309,2024-11-24T09:15:01.309Z,63596,-0.01708491,-0.18240744,0.08294182
1732439701315,2024-11-24T09:15:01.315Z,63602,-0.01708491,-0.18240744,0.08294182
1732439701332,2024-11-24T09:15:01.332Z,63619,-0.028449764,-0.1853802,0.074306056
1732439701339,2024-11-24T09:15:01.339Z,63626,-0.028449764,-0.1853802,0.074306056
1732439701357,2024-11-24T09:15:01.357Z,63644,-0.036203284,-0.18857694,0.0451385
1732439701362,2024-11-24T09:15:01.362Z,63649,-0.036203284,-0.18857694,0.0451385
1732439701373,2024-11-24T09:15:01.373Z,63660,-0.021862442,-0.19222216,0.063015185
1732439701377,2024-11-24T09:15:01.377Z,63664,-0.021862442,-0.19222216,0.063015185
1732439701388,2024-11-24T09:15:01.388Z,63675,-0.015505097,-0.17486355,0.07306848
1732439701392,2024-11-24T09:15:01.392Z,63679,-0.015505097,-0.17486355,0.07306848
1732439701403,2024-11-24T09:15:01.403Z,63690,-0.020948349,-0.16542594,0.07572456
1732439701406,2024-11-24T09:15:01.406Z,63693,-0.020948349,-0.16542594,0.07572456
1732439701415,2024-11-24T09:15:01.415Z,63702,-0.028561197,-0.15510087,0.06646042
1732439701417,2024-11-24T09:15:01.417Z,63704,-0.028561197,-0.15510087,0.06646042
1732439701426,2024-11-24T09:15:01.426Z,63713,-0.015460138,-0.13211656,0.05750046
1732439701428,2024-11-24T09:15:01.428Z,63715,-0.015460138,-0.13211656,0.05750046
1732439701436,2024-11-24T09:15:01.436Z,63723,-0.0055350848,-0.11997236,0.045011103
1732439701439,2024-11-24T09:15:01.439Z,63726,-0.0055350848,-0.11997236,0.045011103
1732439701447,2024-11-24T09:15:01.447Z,63734,0.0057561654,-0.11029661,0.04462012
1732439701449,2024-11-24T09:15:01.449Z,63736,0.0057561654,-0.11029661,0.04462012
1732439701457,2024-11-24T09:15:01.457Z,63744,0.01851582,-0.08578386,0.03121124
1732439701459,2024-11-24T09:15:01.459Z,63746,0.01851582,-0.08578386,0.03121124
1732439701466,2024-11-24T09:15:01.466Z,63753,0.026230682,-0.07811345,0.033066653
1732439701468,2024-11-24T09:15:01.468Z,63755,0.026230682,-0.07811345,0.033066653
1732439701475,2024-11-24T09:15:01.475Z,63762,0.013533788,-0.07241279,0.027085701
1732439701478,2024-11-24T09:15:01.478Z,63765,0.013533788,-0.07241279,0.027085701
1732439701487,2024-11-24T09:15:01.487Z,63774,0.024479894,-0.06397412,0.014590926
1732439701489,2024-11-24T09:15:01.489Z,63776,0.024479894,-0.06397412,0.014590926
1732439701496,2024-11-24T09:15:01.496Z,63783,0.009421553,-0.06513273,0.012469612
1732439701499,2024-11-24T09:15:01.499Z,63786,0.009421553,-0.06513273,0.012469612
1732439701505,2024-11-24T09:15:01.505Z,63792,0.0133518195,-0.06629075,0.015709639
1732439701507,2024-11-24T09:15:01.507Z,63794,0.0133518195,-0.06629075,0.015709639
1732439701540,2024-11-24T09:15:01.540Z,63827,0.0063652764,-0.060141586,0.020079587
1732439701548,2024-11-24T09:15:01.548Z,63835,0.0063652764,-0.060141586,0.020079587
1732439701576,2024-11-24T09:15:01.576Z,63863,-0.0014287696,-0.05600836,0.026019162
1732439701583,2024-11-24T09:15:01.583Z,63870,-0.0014287696,-0.05600836,0.026019162
1732439701601,2024-11-24T09:15:01.601Z,63888,-0.0018656123,-0.053802494,0.017397106
1732439701608,2024-11-24T09:15:01.608Z,63895,-0.0018656123,-0.053802494,0.017397106
1732439701634,2024-11-24T09:15:01.634Z,63921,0.0070930296,-0.061438773,0.026422715
1732439701640,2024-11-24T09:15:01.640Z,63927,0.0070930296,-0.061438773,0.026422715
1732439701660,2024-11-24T09:15:01.660Z,63947,-0.0068651172,-0.05466576,0.025084611
1732439701667,2024-11-24T09:15:01.667Z,63954,-0.0068651172,-0.05466576,0.025084611
1732439701679,2024-11-24T09:15:01.679Z,63966,-0.019297667,-0.06005552,0.026336262
1732439701683,2024-11-24T09:15:01.683Z,63970,-0.019297667,-0.06005552,0.026336262
1732439701694,2024-11-24T09:15:01.694Z,63981,-0.022808904,-0.05329175,0.04406058
1732439701697,2024-11-24T09:15:01.697Z,63984,-0.022808904,-0.05329175,0.04406058
1732439701707,2024-11-24T09:15:01.707Z,63994,-0.026428957,-0.060667694,0.045434058
1732439701710,2024-11-24T09:15:01.710Z,63997,-0.026428957,-0.060667694,0.045434058
1732439701720,2024-11-24T09:15:01.720Z,64007,-0.018259851,-0.05926052,0.04241058
1732439701722,2024-11-24T09:15:01.722Z,64009,-0.018259851,-0.05926052,0.04241058
1732439701730,2024-11-24T09:15:01.730Z,64017,-0.008997389,-0.05493154,0.043513127
1732439701733,2024-11-24T09:15:01.733Z,64020,-0.008997389,-0.05493154,0.043513127
1732439701742,2024-11-24T09:15:01.742Z,64029,-0.0047604153,-0.04412226,0.049647365
1732439701744,2024-11-24T09:15:01.744Z,64031,-0.0047604153,-0.04412226,0.049647365
1732439701752,2024-11-24T09:15:01.752Z,64039,-0.022936434,-0.03865791,0.047081046
1732439701754,2024-11-24T09:15:01.754Z,64041,-0.022936434,-0.03865791,0.047081046
1732439701762,2024-11-24T09:15:01.762Z,64049,-0.007201351,-0.027047604,0.029799083
1732439701764,2024-11-24T09:15:01.764Z,64051,-0.007201351,-0.027047604,0.029799083
1732439701773,2024-11-24T09:15:01.773Z,64060,-0.010266289,-0.024402952,0.04123264
1732439701775,2024-11-24T09:15:01.775Z,64062,-0.010266289,-0.024402952,0.04123264
1732439701783,2024-11-24T09:15:01.783Z,64070,-0.012611473,-0.01837836,0.047236886
1732439701787,2024-11-24T09:15:01.787Z,64074,-0.012611473,-0.01837836,0.047236886
1732439701794,2024-11-24T09:15:01.794Z,64081,-0.0015064218,-0.017453533,0.03604124
1732439701796,2024-11-24T09:15:01.796Z,64083,-0.0015064218,-0.017453533,0.03604124
1732439701803,2024-11-24T09:15:01.803Z,64090,-0.0038780384,-0.016299203,0.039280612
1732439701805,2024-11-24T09:15:01.805Z,64092,-0.0038780384,-0.016299203,0.039280612
1732439701812,2024-11-24T09:15:01.812Z,64099,-2.9365162E-4,-0.018534929,0.037752
1732439701814,2024-11-24T09:15:01.814Z,64101,-2.9365162E-4,-0.018534929,0.037752
1732439701822,2024-11-24T09:15:01.822Z,64109,0.00796426,-0.012519281,0.030089658
1732439701824,2024-11-24T09:15:01.824Z,64111,0.00796426,-0.012519281,0.030089658
1732439701831,2024-11-24T09:15:01.831Z,64118,0.009172392,-0.010623049,0.028812164
1732439701834,2024-11-24T09:15:01.834Z,64121,0.009172392,-0.010623049,0.028812164
1732439701845,2024-11-24T09:15:01.845Z,64132,0.002597219,-0.0032903764,0.023854597
1732439701848,2024-11-24T09:15:01.848Z,64135,0.002597219,-0.0032903764,0.023854597
1732439701855,2024-11-24T09:15:01.855Z,64142,-0.005170418,-0.0050872224,0.003369536
1732439701858,2024-11-24T09:15:01.858Z,64145,-0.005170418,-0.0050872224,0.003369536
1732439701867,2024-11-24T09:15:01.867Z,64154,-0.009738453,-0.006045793,0.006985595
1732439701869,2024-11-24T09:15:01.869Z,64156,-0.009738453,-0.006045793,0.006985595
1732439701891,2024-11-24T09:15:01.891Z,64178,-0.0014200659,-0.0036798536,0.02552242
1732439701893,2024-11-24T09:15:01.893Z,64180,-0.0014200659,-0.0036798536,0.02552242
1732439701902,2024-11-24T09:15:01.902Z,64189,0.009352914,0.002224347,0.014514659
1732439701904,2024-11-24T09:15:01.904Z,64191,0.009352914,0.002224347,0.014514659
1732439701911,2024-11-24T09:15:01.911Z,64198,-0.00546627,0.007291245,0.011483058
1732439701914,2024-11-24T09:15:01.914Z,64201,-0.00546627,0.007291245,0.011483058
1732439701936,2024-11-24T09:15:01.936Z,64223,-0.014861833,0.0016120754,-0.013491394
1732439701938,2024-11-24T09:15:01.938Z,64225,-0.014861833,0.0016120754,-0.013491394
1732439701945,2024-11-24T09:15:01.945Z,64232,0.011766317,0.011296975,-7.010831E-4
1732439701947,2024-11-24T09:15:01.947Z,64234,0.011766317,0.011296975,-7.010831E-4
1732439701955,2024-11-24T09:15:01.955Z,64242,-0.0077896877,0.012981597,-0.019568307
1732439701957,2024-11-24T09:15:01.957Z,64244,-0.0077896877,0.012981597,-0.019568307
1732439701966,2024-11-24T09:15:01.966Z,64253,0.010604918,0.015666705,-0.016892731
1732439701972,2024-11-24T09:15:01.972Z,64259,0.010604918,0.015666705,-0.016892731
1732439701988,2024-11-24T09:15:01.988Z,64275,0.018176874,0.02080187,4.5779362E-4
1732439701991,2024-11-24T09:15:01.991Z,64278,0.018176874,0.02080187,4.5779362E-4
1732439702000,2024-11-24T09:15:02Z,64287,0.011694742,0.024140092,6.7348906E-4
1732439702003,2024-11-24T09:15:02.003Z,64290,0.011694742,0.024140092,6.7348906E-4
1732439702012,2024-11-24T09:15:02.012Z,64299,-0.0014539263,0.03359928,0.0040993313
1732439702015,2024-11-24T09:15:02.015Z,64302,-0.0014539263,0.03359928,0.0040993313
1732439702078,2024-11-24T09:15:02.078Z,64365,-0.006369628,0.020604845,-0.002222791
1732439702084,2024-11-24T09:15:02.084Z,64371,-0.006369628,0.020604845,-0.002222791
1732439702120,2024-11-24T09:15:02.120Z,64407,0.015648324,0.033698376,0.0158594
1732439702125,2024-11-24T09:15:02.125Z,64412,0.015648324,0.033698376,0.0158594
1732439702144,2024-11-24T09:15:02.144Z,64431,0.0050561153,0.03192341,0.020161882
1732439702150,2024-11-24T09:15:02.150Z,64437,0.0050561153,0.03192341,0.020161882
1732439702169,2024-11-24T09:15:02.169Z,64456,0.0051416084,0.036983695,0.008335539
1732439702175,2024-11-24T09:15:02.175Z,64462,0.0051416084,0.036983695,0.008335539
1732439702190,2024-11-24T09:15:02.190Z,64477,0.004558742,0.043448333,-0.018169448
1732439702194,2024-11-24T09:15:02.194Z,64481,0.004558742,0.043448333,-0.018169448
1732439702208,2024-11-24T09:15:02.208Z,64495,0.0024942823,0.049063224,-0.021489484
1732439702215,2024-11-24T09:15:02.215Z,64502,0.0024942823,0.049063224,-0.021489484
1732439702235,2024-11-24T09:15:02.235Z,64522,0.0018334476,0.056163277,-0.019865934
1732439702240,2024-11-24T09:15:02.240Z,64527,0.0018334476,0.056163277,-0.019865934
1732439702260,2024-11-24T09:15:02.260Z,64547,-0.011936148,0.091645174,-0.037916448
1732439702267,2024-11-24T09:15:02.267Z,64554,-0.011936148,0.091645174,-0.037916448
1732439702285,2024-11-24T09:15:02.285Z,64572,9.175686E-4,0.10973325,-0.032005586
1732439702289,2024-11-24T09:15:02.289Z,64576,9.175686E-4,0.10973325,-0.032005586
1732439702303,2024-11-24T09:15:02.303Z,64590,-9.3396707E-4,0.11047068,-0.04755874
1732439702308,2024-11-24T09:15:02.308Z,64595,-9.3396707E-4,0.11047068,-0.04755874
1732439702319,2024-11-24T09:15:02.319Z,64606,-0.0065774345,0.10534028,-0.059168182
1732439702323,2024-11-24T09:15:02.323Z,64610,-0.0065774345,0.10534028,-0.059168182
1732439702333,2024-11-24T09:15:02.333Z,64620,0.016416885,0.10856764,-0.06917742
1732439702336,2024-11-24T09:15:02.336Z,64623,0.016416885,0.10856764,-0.06917742
1732439702345,2024-11-24T09:15:02.345Z,64632,0.022760767,0.107715264,-0.06526116
1732439702348,2024-11-24T09:15:02.348Z,64635,0.022760767,0.107715264,-0.06526116
1732439702361,2024-11-24T09:15:02.361Z,64648,0.036249414,0.115655154,-0.061923966
1732439702363,2024-11-24T09:15:02.363Z,64650,0.036249414,0.115655154,-0.061923966
1732439702371,2024-11-24T09:15:02.371Z,64658,0.038501374,0.1403514,-0.063692175
1732439702374,2024-11-24T09:15:02.374Z,64661,0.038501374,0.1403514,-0.063692175
1732439702381,2024-11-24T09:15:02.381Z,64668,0.042336646,0.14624919,-0.074599996
1732439702383,2024-11-24T09:15:02.383Z,64670,0.042336646,0.14624919,-0.074599996
1732439702391,2024-11-24T09:15:02.391Z,64678,0.044709686,0.15214483,-0.07818808
1732439702393,2024-11-24T09:15:02.393Z,64680,0.044709686,0.15214483,-0.07818808
1732439702401,2024-11-24T09:15:02.401Z,64688,0.04553279,0.15087195,-0.09416677
1732439702403,2024-11-24T09:15:02.403Z,64690,0.04553279,0.15087195,-0.09416677
1732439702410,2024-11-24T09:15:02.410Z,64697,0.053785156,0.16811933,-0.086020105
1732439702412,2024-11-24T09:15:02.412Z,64699,0.053785156,0.16811933,-0.086020105
1732439702419,2024-11-24T09:15:02.419Z,64706,0.059736773,0.18123119,-0.061876483
1732439702421,2024-11-24T09:15:02.421Z,64708,0.059736773,0.18123119,-0.061876483
1732439702429,2024-11-24T09:15:02.429Z,64716,0.060792238,0.21593675,-0.08988294
1732439702432,2024-11-24T09:15:02.432Z,64719,0.060792238,0.21593675,-0.08988294
1732439702440,2024-11-24T09:15:02.440Z,64727,0.082782045,0.22203632,-0.09445764
1732439702443,2024-11-24T09:15:02.443Z,64730,0.082782045,0.22203632,-0.09445764
1732439702449,2024-11-24T09:15:02.449Z,64736,0.07014375,0.22523947,-0.10276769
1732439702452,2024-11-24T09:15:02.452Z,64739,0.07014375,0.22523947,-0.10276769
1732439702460,2024-11-24T09:15:02.460Z,64747,0.07280695,0.20978019,-0.08172816
1732439702462,2024-11-24T09:15:02.462Z,64749,0.07280695,0.20978019,-0.08172816
1732439702472,2024-11-24T09:15:02.472Z,64759,0.079393536,0.19691122,-0.07848542
1732439702475,2024-11-24T09:15:02.475Z,64762,0.079393536,0.19691122,-0.07848542
1732439702482,2024-11-24T09:15:02.482Z,64769,0.07699483,0.19661382,-0.06441402
1732439702485,2024-11-24T09:15:02.485Z,64772,0.07699483,0.19661382,-0.06441402
1732439702492,2024-11-24T09:15:02.492Z,64779,0.06342132,0.1566155,-0.06100043
1732439702494,2024-11-24T09:15:02.494Z,64781,0.06342132,0.1566155,-0.06100043
1732439702501,2024-11-24T09:15:02.501Z,64788,0.05448724,0.13647327,-0.066613056
1732439702503,2024-11-24T09:15:02.503Z,64790,0.05448724,0.13647327,-0.066613056
1732439702522,2024-11-24T09:15:02.522Z,64809,0.057720263,0.12413408,-0.054703236
1732439702525,2024-11-24T09:15:02.525Z,64812,0.057720263,0.12413408,-0.054703236
1732439702533,2024-11-24T09:15:02.533Z,64820,0.019546244,0.09743929,-0.059588514
1732439702535,2024-11-24T09:15:02.535Z,64822,0.019546244,0.09743929,-0.059588514
1732439702544,2024-11-24T09:15:02.544Z,64831,0.019548103,0.07530416,-0.06604277
1732439702546,2024-11-24T09:15:02.546Z,64833,0.019548103,0.07530416,-0.06604277
1732439702571,2024-11-24T09:15:02.571Z,64858,0.019728206,0.050210357,-0.04370199
1732439702579,2024-11-24T09:15:02.579Z,64866,0.019728206,0.050210357,-0.04370199
1732439702596,2024-11-24T09:15:02.596Z,64883,0.014127796,0.012530952,-0.013668932
1732439702602,2024-11-24T09:15:02.602Z,64889,0.014127796,0.012530952,-0.013668932
1732439702615,2024-11-24T09:15:02.615Z,64902,0.023860067,-0.004922874,-0.019652778
1732439702619,2024-11-24T09:15:02.619Z,64906,0.023860067,-0.004922874,-0.019652778
1732439702629,2024-11-24T09:15:02.629Z,64916,-0.007570285,-0.025357245,-0.015400112
1732439702632,2024-11-24T09:15:02.632Z,64919,-0.007570285,-0.025357245,-0.015400112
1732439702643,2024-11-24T09:15:02.643Z,64930,-0.0018391852,-0.048270166,-0.015185802
1732439702646,2024-11-24T09:15:02.646Z,64933,-0.0018391852,-0.048270166,-0.015185802
1732439702656,2024-11-24T09:15:02.656Z,64943,0.010092538,-0.05513226,0.0135972
1732439702659,2024-11-24T09:15:02.659Z,64946,0.010092538,-0.05513226,0.0135972
1732439702668,2024-11-24T09:15:02.668Z,64955,0.007211927,-0.06063317,0.026839226
1732439702671,2024-11-24T09:15:02.671Z,64958,0.007211927,-0.06063317,0.026839226
1732439702679,2024-11-24T09:15:02.679Z,64966,-0.0022195333,-0.050621033,0.02949951
1732439702682,2024-11-24T09:15:02.682Z,64969,-0.0022195333,-0.050621033,0.02949951
1732439702689,2024-11-24T09:15:02.689Z,64976,-0.009106446,-0.048569497,0.04165883
1732439702692,2024-11-24T09:15:02.692Z,64979,-0.009106446,-0.048569497,0.04165883
1732439702699,2024-11-24T09:15:02.699Z,64986,-0.005066995,-0.036473434,0.034776464
1732439702701,2024-11-24T09:15:02.701Z,64988,-0.005066995,-0.036473434,0.034776464
1732439702710,2024-11-24T09:15:02.710Z,64997,7.570613E-4,-0.030785028,0.020556124
1732439702712,2024-11-24T09:15:02.712Z,64999,7.570613E-4,-0.030785028,0.020556124
1732439702719,2024-11-24T09:15:02.719Z,65006,0.005315621,0.003078182,-0.023548717
1732439702721,2024-11-24T09:15:02.721Z,65008,0.005315621,0.003078182,-0.023548717
1732439702732,2024-11-24T09:15:02.732Z,65019,0.014460054,0.0075118025,-0.030861659
1732439702738,2024-11-24T09:15:02.738Z,65025,0.014460054,0.0075118025,-0.030861659
1732439702754,2024-11-24T09:15:02.754Z,65041,0.029971538,0.016444199,-0.018123072
1732439702760,2024-11-24T09:15:02.760Z,65047,0.029971538,0.016444199,-0.018123072
1732439702778,2024-11-24T09:15:02.778Z,65065,0.017482003,0.030149417,-0.0012672592
1732439702784,2024-11-24T09:15:02.784Z,65071,0.017482003,0.030149417,-0.0012672592
1732439702795,2024-11-24T09:15:02.795Z,65082,0.009761629,0.038305193,-0.007737782
1732439702797,2024-11-24T09:15:02.797Z,65084,0.009761629,0.038305193,-0.007737782
1732439702808,2024-11-24T09:15:02.808Z,65095,-0.016640348,0.041587595,0.0028607845
1732439702810,2024-11-24T09:15:02.810Z,65097,-0.016640348,0.041587595,0.0028607845
1732439702819,2024-11-24T09:15:02.819Z,65106,-0.018432952,0.039240424,-0.017367506
1732439702822,2024-11-24T09:15:02.822Z,65109,-0.018432952,0.039240424,-0.017367506
1732439702834,2024-11-24T09:15:02.834Z,65121,-0.045466565,0.03130404,-0.028132573
1732439702841,2024-11-24T09:15:02.841Z,65128,-0.045466565,0.03130404,-0.028132573
1732439702860,2024-11-24T09:15:02.860Z,65147,-0.03122116,0.020977013,-0.016375896
1732439702865,2024-11-24T09:15:02.865Z,65152,-0.03122116,0.020977013,-0.016375896
1732439702879,2024-11-24T09:15:02.879Z,65166,-0.030014364,0.024842707,0.010724101
1732439702882,2024-11-24T09:15:02.882Z,65169,-0.030014364,0.024842707,0.010724101
1732439702893,2024-11-24T09:15:02.893Z,65180,-0.031452294,0.022932276,-0.0076888176
1732439702896,2024-11-24T09:15:02.896Z,65183,-0.031452294,0.022932276,-0.0076888176
1732439702912,2024-11-24T09:15:02.912Z,65199,-0.056490153,0.018529775,-0.008942413
1732439702915,2024-11-24T09:15:02.915Z,65202,-0.056490153,0.018529775,-0.008942413
1732439702924,2024-11-24T09:15:02.924Z,65211,-0.026441786,0.007909449,-0.0062406654
1732439702927,2024-11-24T09:15:02.927Z,65214,-0.026441786,0.007909449,-0.0062406654
1732439702935,2024-11-24T09:15:02.935Z,65222,-0.03526196,0.006589602,-0.008513527
1732439702937,2024-11-24T09:15:02.937Z,65224,-0.03526196,0.006589602,-0.008513527
1732439702944,2024-11-24T09:15:02.944Z,65231,-0.032151006,9.244368E-4,-0.00786875
1732439702946,2024-11-24T09:15:02.946Z,65233,-0.032151006,9.244368E-4,-0.00786875
1732439702954,2024-11-24T09:15:02.954Z,65241,-0.019389967,-0.019875487,0.0083229095
1732439702956,2024-11-24T09:15:02.956Z,65243,-0.019389967,-0.019875487,0.0083229095
1732439702963,2024-11-24T09:15:02.963Z,65250,-0.019336857,-0.024517996,0.0017856383
1732439702964,2024-11-24T09:15:02.964Z,65251,-0.019336857,-0.024517996,0.0017856383
1732439702972,2024-11-24T09:15:02.972Z,65259,-0.015947822,-0.0198786,0.0010535453
1732439702974,2024-11-24T09:15:02.974Z,65261,-0.015947822,-0.0198786,0.0010535453
1732439702981,2024-11-24T09:15:02.981Z,65268,-0.028157856,-0.024311053,0.003366716
1732439702984,2024-11-24T09:15:02.984Z,65271,-0.028157856,-0.024311053,0.003366716
1732439702994,2024-11-24T09:15:02.994Z,65281,-0.016383188,-0.019293461,-0.002714743
1732439702996,2024-11-24T09:15:02.996Z,65283,-0.016383188,-0.019293461,-0.002714743
1732439703003,2024-11-24T09:15:03.003Z,65290,-0.003683865,-0.011361937,-0.008925833
1732439703005,2024-11-24T09:15:03.005Z,65292,-0.003683865,-0.011361937,-0.008925833
1732439703019,2024-11-24T09:15:03.019Z,65306,-0.00864768,0.0019080974,-0.014395506
1732439703021,2024-11-24T09:15:03.021Z,65308,-0.00864768,0.0019080974,-0.014395506
1732439703029,2024-11-24T09:15:03.029Z,65316,-0.0012491225,0.007230951,-0.009670009
1732439703031,2024-11-24T09:15:03.031Z,65318,-0.0012491225,0.007230951,-0.009670009
1732439703038,2024-11-24T09:15:03.038Z,65325,7.080363E-4,0.013499831,-0.013463569
1732439703040,2024-11-24T09:15:03.040Z,65327,7.080363E-4,0.013499831,-0.013463569
1732439703063,2024-11-24T09:15:03.063Z,65350,0.0060045966,0.015297843,-0.036726948
1732439703066,2024-11-24T09:15:03.066Z,65353,0.0060045966,0.015297843,-0.036726948
1732439703077,2024-11-24T09:15:03.077Z,65364,0.0057885363,0.025029227,-0.02681636
1732439703082,2024-11-24T09:15:03.082Z,65369,0.0057885363,0.025029227,-0.02681636
1732439703098,2024-11-24T09:15:03.098Z,65385,0.0059492867,0.0279346,-0.022325583
1732439703103,2024-11-24T09:15:03.103Z,65390,0.0059492867,0.0279346,-0.022325583
1732439703119,2024-11-24T09:15:03.119Z,65406,0.0017799371,0.026005594,-0.024135996
1732439703125,2024-11-24T09:15:03.125Z,65412,0.0017799371,0.026005594,-0.024135996
1732439703142,2024-11-24T09:15:03.142Z,65429,0.0031029435,0.03132475,-0.016107796
1732439703146,2024-11-24T09:15:03.146Z,65433,0.0031029435,0.03132475,-0.016107796
1732439703156,2024-11-24T09:15:03.156Z,65443,-0.003822759,0.026835507,-0.027270714
1732439703159,2024-11-24T09:15:03.159Z,65446,-0.003822759,0.026835507,-0.027270714
1732439703202,2024-11-24T09:15:03.202Z,65489,0.01140526,0.023570122,-0.029508846
1732439703207,2024-11-24T09:15:03.207Z,65494,0.01140526,0.023570122,-0.029508846
1732439703222,2024-11-24T09:15:03.222Z,65509,0.009959588,0.023340425,-0.016756814
1732439703225,2024-11-24T09:15:03.225Z,65512,0.009959588,0.023340425,-0.016756814
1732439703236,2024-11-24T09:15:03.236Z,65523,-2.791374E-4,0.026983809,-0.018300403
1732439703240,2024-11-24T09:15:03.240Z,65527,-2.791374E-4,0.026983809,-0.018300403
1732439703252,2024-11-24T09:15:03.252Z,65539,-0.0037250738,0.02503448,-0.047052078
1732439703255,2024-11-24T09:15:03.255Z,65542,-0.0037250738,0.02503448,-0.047052078
1732439703267,2024-11-24T09:15:03.267Z,65554,1.316491E-4,0.025278473,-0.029936712
1732439703273,2024-11-24T09:15:03.273Z,65560,1.316491E-4,0.025278473,-0.029936712
1732439703282,2024-11-24T09:15:03.282Z,65569,-0.01107175,0.023530932,-0.017795298
1732439703286,2024-11-24T09:15:03.286Z,65573,-0.01107175,0.023530932,-0.017795298
1732439703297,2024-11-24T09:15:03.297Z,65584,0.004787967,0.026458478,-0.019703116
1732439703300,2024-11-24T09:15:03.300Z,65587,0.004787967,0.026458478,-0.019703116
1732439703313,2024-11-24T09:15:03.313Z,65600,-0.0040333006,0.029603565,-0.018121382
1732439703316,2024-11-24T09:15:03.316Z,65603,-0.0040333006,0.029603565,-0.018121382
1732439703334,2024-11-24T09:15:03.334Z,65621,0.0018448986,0.030804478,-0.021821294
1732439703339,2024-11-24T09:15:03.339Z,65626,0.0018448986,0.030804478,-0.021821294
1732439703356,2024-11-24T09:15:03.356Z,65643,0.01845623,0.04725344,-0.028333632
1732439703358,2024-11-24T09:15:03.358Z,65645,0.01845623,0.04725344,-0.028333632
1732439703368,2024-11-24T09:15:03.368Z,65655,0.016234716,0.044719554,-0.03537388
1732439703371,2024-11-24T09:15:03.371Z,65658,0.016234716,0.044719554,-0.03537388
1732439703380,2024-11-24T09:15:03.380Z,65667,0.03321571,0.05252884,-0.03297687
1732439703383,2024-11-24T09:15:03.383Z,65670,0.03321571,0.05252884,-0.03297687
1732439703397,2024-11-24T09:15:03.397Z,65684,0.0071020005,0.077020675,-0.018838657
1732439703404,2024-11-24T09:15:03.404Z,65691,0.0071020005,0.077020675,-0.018838657
1732439703424,2024-11-24T09:15:03.424Z,65711,0.010550988,0.08782743,-0.043194808
1732439703430,2024-11-24T09:15:03.430Z,65717,0.010550988,0.08782743,-0.043194808
1732439703450,2024-11-24T09:15:03.450Z,65737,0.033438165,0.09867269,-0.047415275
1732439703456,2024-11-24T09:15:03.456Z,65743,0.033438165,0.09867269,-0.047415275
1732439703475,2024-11-24T09:15:03.475Z,65762,0.02227161,0.11561246,-0.033828154
1732439703479,2024-11-24T09:15:03.479Z,65766,0.02227161,0.11561246,-0.033828154
1732439703491,2024-11-24T09:15:03.491Z,65778,0.024378762,0.12546064,-0.047212064
1732439703499,2024-11-24T09:15:03.499Z,65786,0.024378762,0.12546064,-0.047212064
1732439703509,2024-11-24T09:15:03.509Z,65796,0.005005279,0.12699248,-0.060639236
1732439703513,2024-11-24T09:15:03.513Z,65800,0.005005279,0.12699248,-0.060639236
1732439703523,2024-11-24T09:15:03.523Z,65810,0.03598103,0.13445945,-0.06158942
1732439703526,2024-11-24T09:15:03.526Z,65813,0.03598103,0.13445945,-0.06158942
1732439703535,2024-11-24T09:15:03.535Z,65822,0.01711674,0.1471882,-0.042375084
1732439703538,2024-11-24T09:15:03.538Z,65825,0.01711674,0.1471882,-0.042375084
1732439703547,2024-11-24T09:15:03.547Z,65834,0.003215301,0.16377021,-0.018423896
1732439703551,2024-11-24T09:15:03.551Z,65838,0.003215301,0.16377021,-0.018423896
1732439703564,2024-11-24T09:15:03.564Z,65851,-2.149296E-4,0.15300411,-0.045275204
1732439703567,2024-11-24T09:15:03.567Z,65854,-2.149296E-4,0.15300411,-0.045275204
1732439703576,2024-11-24T09:15:03.576Z,65863,0.0113587035,0.16873042,-0.01087898
1732439703579,2024-11-24T09:15:03.579Z,65866,0.0113587035,0.16873042,-0.01087898
1732439703655,2024-11-24T09:15:03.655Z,65942,-0.016189216,0.14421885,-0.024984445
1732439703662,2024-11-24T09:15:03.662Z,65949,-0.016189216,0.14421885,-0.024984445
1732439703682,2024-11-24T09:15:03.682Z,65969,-0.0077007064,0.1257339,-0.05969208
1732439703687,2024-11-24T09:15:03.687Z,65974,-0.0077007064,0.1257339,-0.05969208
1732439703703,2024-11-24T09:15:03.703Z,65990,0.02391963,0.116720885,-0.07040822
1732439703707,2024-11-24T09:15:03.707Z,65994,0.02391963,0.116720885,-0.07040822
1732439703718,2024-11-24T09:15:03.718Z,66005,-0.0069584753,0.11014684,0.017492166
1732439703722,2024-11-24T09:15:03.722Z,66009,-0.0069584753,0.11014684,0.017492166
1732439703732,2024-11-24T09:15:03.732Z,66019,0.033948302,0.08649611,0.008073432
1732439703735,2024-11-24T09:15:03.735Z,66022,0.033948302,0.08649611,0.008073432
1732439703749,2024-11-24T09:15:03.749Z,66036,0.03223205,0.10284734,-0.017136432
1732439703756,2024-11-24T09:15:03.756Z,66043,0.03223205,0.10284734,-0.017136432
1732439703779,2024-11-24T09:15:03.779Z,66066,-0.0326277,0.0985026,-0.026668655
1732439703786,2024-11-24T09:15:03.786Z,66073,-0.0326277,0.0985026,-0.026668655
1732439703806,2024-11-24T09:15:03.806Z,66093,-0.021081457,0.082909316,0.0013802855
1732439703812,2024-11-24T09:15:03.812Z,66099,-0.021081457,0.082909316,0.0013802855
1732439703831,2024-11-24T09:15:03.831Z,66118,0.0015089806,0.091856204,-0.010950628
1732439703837,2024-11-24T09:15:03.837Z,66124,0.0015089806,0.091856204,-0.010950628
1732439703855,2024-11-24T09:15:03.855Z,66142,1.255468E-4,0.079783194,0.012276746
1732439703860,2024-11-24T09:15:03.860Z,66147,1.255468E-4,0.079783194,0.012276746
1732439703878,2024-11-24T09:15:03.878Z,66165,-0.010054794,0.0874822,0.0013978387
1732439703883,2024-11-24T09:15:03.883Z,66170,-0.010054794,0.0874822,0.0013978387
1732439703902,2024-11-24T09:15:03.902Z,66189,-0.040084828,0.07573516,-0.042160872
1732439703908,2024-11-24T09:15:03.908Z,66195,-0.040084828,0.07573516,-0.042160872
1732439703930,2024-11-24T09:15:03.930Z,66217,-0.039077085,0.048329975,-0.017606966
1732439703936,2024-11-24T09:15:03.936Z,66223,-0.039077085,0.048329975,-0.017606966
1732439703953,2024-11-24T09:15:03.953Z,66240,-0.0037754967,0.026228974,-0.012804388
1732439703959,2024-11-24T09:15:03.959Z,66246,-0.0037754967,0.026228974,-0.012804388
1732439703978,2024-11-24T09:15:03.978Z,66265,-0.0027493022,0.0029114021,0.03399284
1732439703983,2024-11-24T09:15:03.983Z,66270,-0.0027493022,0.0029114021,0.03399284
1732439703996,2024-11-24T09:15:03.996Z,66283,0.0215759,-0.0049685803,0.040265925
1732439704000,2024-11-24T09:15:04Z,66287,0.0215759,-0.0049685803,0.040265925
1732439704015,2024-11-24T09:15:04.015Z,66302,0.028314875,-0.0060475436,0.022507498
1732439704019,2024-11-24T09:15:04.019Z,66306,0.028314875,-0.0060475436,0.022507498
1732439704030,2024-11-24T09:15:04.030Z,66317,-0.00462797,-0.024912823,-0.0030906054
1732439704033,2024-11-24T09:15:04.033Z,66320,-0.00462797,-0.024912823,-0.0030906054
1732439704043,2024-11-24T09:15:04.043Z,66330,0.017091334,-0.028100895,-0.011889992
1732439704046,2024-11-24T09:15:04.046Z,66333,0.017091334,-0.028100895,-0.011889992
1732439704055,2024-11-24T09:15:04.055Z,66342,0.010517183,-0.021548344,-0.0014645992
1732439704058,2024-11-24T09:15:04.058Z,66345,0.010517183,-0.021548344,-0.0014645992
1732439704069,2024-11-24T09:15:04.069Z,66356,0.065233,-0.02136688,0.027301397
1732439704074,2024-11-24T09:15:04.074Z,66361,0.065233,-0.02136688,0.027301397
1732439704095,2024-11-24T09:15:04.095Z,66382,0.051167298,-0.02883774,0.029141761
1732439704101,2024-11-24T09:15:04.101Z,66388,0.051167298,-0.02883774,0.029141761
1732439704118,2024-11-24T09:15:04.118Z,66405,0.06925665,-0.038651686,0.029555818
1732439704124,2024-11-24T09:15:04.124Z,66411,0.06925665,-0.038651686,0.029555818
1732439704144,2024-11-24T09:15:04.144Z,66431,0.05058804,-0.04382332,0.013400832
1732439704149,2024-11-24T09:15:04.149Z,66436,0.05058804,-0.04382332,0.013400832
1732439704167,2024-11-24T09:15:04.167Z,66454,0.060607675,-0.033733092,0.01747342
1732439704172,2024-11-24T09:15:04.172Z,66459,0.060607675,-0.033733092,0.01747342
1732439704191,2024-11-24T09:15:04.191Z,66478,0.044816986,-0.027602596,0.024342488
1732439704196,2024-11-24T09:15:04.196Z,66483,0.044816986,-0.027602596,0.024342488
1732439704212,2024-11-24T09:15:04.212Z,66499,0.022585612,0.0023632166,0.03894929
1732439704216,2024-11-24T09:15:04.216Z,66503,0.022585612,0.0023632166,0.03894929
1732439704229,2024-11-24T09:15:04.229Z,66516,-0.018216697,-0.008425834,0.012057963
1732439704233,2024-11-24T09:15:04.233Z,66520,-0.018216697,-0.008425834,0.012057963
1732439704245,2024-11-24T09:15:04.245Z,66532,-0.008203599,-0.014305917,0.012126036
1732439704248,2024-11-24T09:15:04.248Z,66535,-0.008203599,-0.014305917,0.012126036
1732439704258,2024-11-24T09:15:04.258Z,66545,0.023295714,-0.036274757,0.013252748
1732439704261,2024-11-24T09:15:04.261Z,66548,0.023295714,-0.036274757,0.013252748
1732439704270,2024-11-24T09:15:04.270Z,66557,-0.008755163,-0.032973394,0.019805834
1732439704273,2024-11-24T09:15:04.273Z,66560,-0.008755163,-0.032973394,0.019805834
1732439704281,2024-11-24T09:15:04.281Z,66568,-0.036991123,-0.02584183,0.057800006
1732439704283,2024-11-24T09:15:04.283Z,66570,-0.036991123,-0.02584183,0.057800006
1732439704291,2024-11-24T09:15:04.291Z,66578,-0.043457646,-0.038536254,0.027615579
1732439704293,2024-11-24T09:15:04.293Z,66580,-0.043457646,-0.038536254,0.027615579
1732439704299,2024-11-24T09:15:04.299Z,66586,-0.051828183,-0.040836845,0.012563602
1732439704301,2024-11-24T09:15:04.301Z,66588,-0.051828183,-0.040836845,0.012563602
1732439704308,2024-11-24T09:15:04.308Z,66595,-0.044583067,-0.05390091,0.020880762
1732439704310,2024-11-24T09:15:04.310Z,66597,-0.044583067,-0.05390091,0.020880762
1732439704316,2024-11-24T09:15:04.316Z,66603,-0.021055674,-0.039688252,0.037868723
1732439704318,2024-11-24T09:15:04.318Z,66605,-0.021055674,-0.039688252,0.037868723
1732439704325,2024-11-24T09:15:04.325Z,66612,-0.034388226,-0.05054411,0.04218173
1732439704328,2024-11-24T09:15:04.328Z,66615,-0.034388226,-0.05054411,0.04218173
1732439704337,2024-11-24T09:15:04.337Z,66624,-0.015067366,-0.049126823,-0.0033005632
1732439704340,2024-11-24T09:15:04.340Z,66627,-0.015067366,-0.049126823,-0.0033005632
1732439704351,2024-11-24T09:15:04.351Z,66638,-0.027558312,-0.0564134,-0.007043093
1732439704354,2024-11-24T09:15:04.354Z,66641,-0.027558312,-0.0564134,-0.007043093
1732439704362,2024-11-24T09:15:04.362Z,66649,-0.007895311,-0.052092683,6.5861015E-5
1732439704364,2024-11-24T09:15:04.364Z,66651,-0.007895311,-0.052092683,6.5861015E-5
1732439704373,2024-11-24T09:15:04.373Z,66660,-0.015896974,-0.05752494,0.0027037053
1732439704375,2024-11-24T09:15:04.375Z,66662,-0.015896974,-0.05752494,0.0027037053
1732439704384,2024-11-24T09:15:04.384Z,66671,0.0017849939,-0.056459885,8.180964E-4
1732439704386,2024-11-24T09:15:04.386Z,66673,0.0017849939,-0.056459885,8.180964E-4
1732439704394,2024-11-24T09:15:04.394Z,66681,-0.0049499087,-0.033404686,0.034649506
1732439704396,2024-11-24T09:15:04.396Z,66683,-0.0049499087,-0.033404686,0.034649506
1732439704402,2024-11-24T09:15:04.402Z,66689,0.0040991004,-0.03777179,0.016816804
1732439704404,2024-11-24T09:15:04.404Z,66691,0.0040991004,-0.03777179,0.016816804
1732439704413,2024-11-24T09:15:04.413Z,66700,-0.042906675,-0.034826837,0.018051973
1732439704415,2024-11-24T09:15:04.415Z,66702,-0.042906675,-0.034826837,0.018051973
1732439704422,2024-11-24T09:15:04.422Z,66709,0.008073201,-0.037380856,0.013253405
1732439704424,2024-11-24T09:15:04.424Z,66711,0.008073201,-0.037380856,0.013253405
1732439704431,2024-11-24T09:15:04.431Z,66718,-0.004471632,-0.04584763,0.015554796
1732439704432,2024-11-24T09:15:04.432Z,66719,-0.004471632,-0.04584763,0.015554796
1732439704439,2024-11-24T09:15:04.439Z,66726,1.7492433E-5,-0.03436452,0.03909864
1732439704442,2024-11-24T09:15:04.442Z,66729,1.7492433E-5,-0.03436452,0.03909864
1732439704454,2024-11-24T09:15:04.454Z,66741,0.013840939,-0.04571187,0.018639494
1732439704459,2024-11-24T09:15:04.459Z,66746,0.013840939,-0.04571187,0.018639494
1732439704472,2024-11-24T09:15:04.472Z,66759,0.0065413676,-0.088633806,0.029522534
1732439704477,2024-11-24T09:15:04.477Z,66764,0.0065413676,-0.088633806,0.029522534
1732439704494,2024-11-24T09:15:04.494Z,66781,0.0022228153,-0.10429885,0.036792506
1732439704499,2024-11-24T09:15:04.499Z,66786,0.0022228153,-0.10429885,0.036792506
1732439704512,2024-11-24T09:15:04.512Z,66799,0.002274709,-0.10248207,0.04934799
1732439704515,2024-11-24T09:15:04.515Z,66802,0.002274709,-0.10248207,0.04934799
1732439704528,2024-11-24T09:15:04.528Z,66815,0.020160995,-0.11165399,0.030003691
1732439704535,2024-11-24T09:15:04.535Z,66822,0.020160995,-0.11165399,0.030003691
1732439704553,2024-11-24T09:15:04.553Z,66840,0.006415371,-0.09666102,0.028546264
1732439704557,2024-11-24T09:15:04.557Z,66844,0.006415371,-0.09666102,0.028546264
1732439704567,2024-11-24T09:15:04.567Z,66854,0.016089464,-0.09967395,0.033616517
1732439704570,2024-11-24T09:15:04.570Z,66857,0.016089464,-0.09967395,0.033616517
1732439704581,2024-11-24T09:15:04.581Z,66868,0.008487853,-0.08364198,0.028088447
1732439704583,2024-11-24T09:15:04.583Z,66870,0.008487853,-0.08364198,0.028088447
1732439704593,2024-11-24T09:15:04.593Z,66880,0.0047903615,-0.072503425,0.022527482
1732439704596,2024-11-24T09:15:04.596Z,66883,0.0047903615,-0.072503425,0.022527482
1732439704605,2024-11-24T09:15:04.605Z,66892,0.0010423496,-0.06534181,0.030884512
1732439704608,2024-11-24T09:15:04.608Z,66895,0.0010423496,-0.06534181,0.030884512
1732439704615,2024-11-24T09:15:04.615Z,66902,0.0042156274,-0.054268017,0.055370733
1732439704618,2024-11-24T09:15:04.618Z,66905,0.0042156274,-0.054268017,0.055370733
1732439704626,2024-11-24T09:15:04.626Z,66913,-0.0027175145,-0.052283872,0.0761162
1732439704628,2024-11-24T09:15:04.628Z,66915,-0.0027175145,-0.052283872,0.0761162
1732439704635,2024-11-24T09:15:04.635Z,66922,-5.9277343E-4,-0.05476602,0.060149048
1732439704638,2024-11-24T09:15:04.638Z,66925,-5.9277343E-4,-0.05476602,0.060149048
1732439704645,2024-11-24T09:15:04.645Z,66932,0.017146157,-0.05322095,0.026464386
1732439704647,2024-11-24T09:15:04.647Z,66934,0.017146157,-0.05322095,0.026464386
1732439704654,2024-11-24T09:15:04.654Z,66941,0.014692999,-0.0529649,0.007966289
1732439704656,2024-11-24T09:15:04.656Z,66943,0.014692999,-0.0529649,0.007966289
1732439704663,2024-11-24T09:15:04.663Z,66950,-0.013057633,-0.051062245,0.030855192
1732439704665,2024-11-24T09:15:04.665Z,66952,-0.013057633,-0.051062245,0.030855192
1732439704672,2024-11-24T09:15:04.672Z,66959,0.0019960823,-0.03677539,0.044777323
1732439704674,2024-11-24T09:15:04.674Z,66961,0.0019960823,-0.03677539,0.044777323
1732439704682,2024-11-24T09:15:04.682Z,66969,-0.022093125,-0.045387357,0.028979843
1732439704684,2024-11-24T09:15:04.684Z,66971,-0.022093125,-0.045387357,0.028979843
1732439704693,2024-11-24T09:15:04.693Z,66980,-0.025356017,-0.051522616,0.036174424
1732439704695,2024-11-24T09:15:04.695Z,66982,-0.025356017,-0.051522616,0.036174424
1732439704702,2024-11-24T09:15:04.702Z,66989,0.015799752,-0.072868876,0.10355435
1732439704704,2024-11-24T09:15:04.704Z,66991,0.015799752,-0.072868876,0.10355435
1732439704711,2024-11-24T09:15:04.711Z,66998,0.014267735,-0.07859395,0.08996367
1732439704713,2024-11-24T09:15:04.713Z,67000,0.014267735,-0.07859395,0.08996367
1732439704720,2024-11-24T09:15:04.720Z,67007,-0.024581403,-0.08044,0.08550238
1732439704722,2024-11-24T09:15:04.722Z,67009,-0.024581403,-0.08044,0.08550238
1732439704729,2024-11-24T09:15:04.729Z,67016,-0.0159645,-0.09788128,0.07373543
1732439704731,2024-11-24T09:15:04.731Z,67018,-0.0159645,-0.09788128,0.07373543
1732439704740,2024-11-24T09:15:04.740Z,67027,0.0044059535,-0.10541351,0.08096808
1732439704745,2024-11-24T09:15:04.745Z,67032,0.0044059535,-0.10541351,0.08096808
1732439704761,2024-11-24T09:15:04.761Z,67048,-0.018926775,-0.11098794,0.09369861
1732439704765,2024-11-24T09:15:04.765Z,67052,-0.018926775,-0.11098794,0.09369861
1732439704781,2024-11-24T09:15:04.781Z,67068,-0.013738683,-0.12992217,0.084397666
1732439704786,2024-11-24T09:15:04.786Z,67073,-0.013738683,-0.12992217,0.084397666
1732439704804,2024-11-24T09:15:04.804Z,67091,-0.028315958,-0.13931455,0.08350207
1732439704809,2024-11-24T09:15:04.809Z,67096,-0.028315958,-0.13931455,0.08350207
1732439704826,2024-11-24T09:15:04.826Z,67113,-0.0041606585,-0.16248703,0.07456525
1732439704829,2024-11-24T09:15:04.829Z,67116,-0.0041606585,-0.16248703,0.07456525
1732439704839,2024-11-24T09:15:04.839Z,67126,-0.00858825,-0.17839023,0.068016194
1732439704843,2024-11-24T09:15:04.843Z,67130,-0.00858825,-0.17839023,0.068016194
1732439704852,2024-11-24T09:15:04.852Z,67139,-0.017249495,-0.19662088,0.09547024
1732439704854,2024-11-24T09:15:04.854Z,67141,-0.017249495,-0.19662088,0.09547024
1732439704864,2024-11-24T09:15:04.864Z,67151,-0.007380463,-0.19898507,0.09224128
1732439704867,2024-11-24T09:15:04.867Z,67154,-0.007380463,-0.19898507,0.09224128
1732439704879,2024-11-24T09:15:04.879Z,67166,-0.0109990565,-0.20139438,0.08311028
1732439704882,2024-11-24T09:15:04.882Z,67169,-0.0109990565,-0.20139438,0.08311028
1732439704889,2024-11-24T09:15:04.889Z,67176,-0.0030430695,-0.19359958,0.07316337
1732439704891,2024-11-24T09:15:04.891Z,67178,-0.0030430695,-0.19359958,0.07316337
1732439704898,2024-11-24T09:15:04.898Z,67185,-0.003279041,-0.18966845,0.062263627
1732439704899,2024-11-24T09:15:04.899Z,67186,-0.003279041,-0.18966845,0.062263627
1732439704906,2024-11-24T09:15:04.906Z,67193,0.0024853903,-0.18175821,0.04771126
1732439704908,2024-11-24T09:15:04.908Z,67195,0.0024853903,-0.18175821,0.04771126
1732439704914,2024-11-24T09:15:04.914Z,67201,-0.004477771,-0.16927356,0.0353555
1732439704916,2024-11-24T09:15:04.916Z,67203,-0.004477771,-0.16927356,0.0353555
1732439704923,2024-11-24T09:15:04.923Z,67210,0.019396842,-0.15687068,0.04581554
1732439704925,2024-11-24T09:15:04.925Z,67212,0.019396842,-0.15687068,0.04581554
1732439704932,2024-11-24T09:15:04.932Z,67219,0.004482232,-0.14737678,0.049080703
1732439704934,2024-11-24T09:15:04.934Z,67221,0.004482232,-0.14737678,0.049080703
1732439704952,2024-11-24T09:15:04.952Z,67239,0.015942682,-0.12472418,0.083180614
1732439704955,2024-11-24T09:15:04.955Z,67242,0.015942682,-0.12472418,0.083180614
1732439704963,2024-11-24T09:15:04.963Z,67250,0.010689037,-0.11262326,0.079168536
1732439704965,2024-11-24T09:15:04.965Z,67252,0.010689037,-0.11262326,0.079168536
1732439704972,2024-11-24T09:15:04.972Z,67259,-0.013084042,-0.113238834,0.05558118
1732439704974,2024-11-24T09:15:04.974Z,67261,-0.013084042,-0.113238834,0.05558118
1732439704997,2024-11-24T09:15:04.997Z,67284,-0.007713579,-0.08892934,0.05167639
1732439705000,2024-11-24T09:15:05Z,67287,-0.007713579,-0.08892934,0.05167639
1732439705010,2024-11-24T09:15:05.010Z,67297,-0.0061903885,-0.0872559,0.05320724
1732439705015,2024-11-24T09:15:05.015Z,67302,-0.0061903885,-0.0872559,0.05320724
1732439705029,2024-11-24T09:15:05.029Z,67316,-0.0020856839,-0.08410585,0.047487006
1732439705034,2024-11-24T09:15:05.034Z,67321,-0.0020856839,-0.08410585,0.047487006
1732439705051,2024-11-24T09:15:05.051Z,67338,-0.013806866,-0.0731722,0.0512017
1732439705056,2024-11-24T09:15:05.056Z,67343,-0.013806866,-0.0731722,0.0512017
1732439705069,2024-11-24T09:15:05.069Z,67356,-0.011261601,-0.07710032,0.050344024
1732439705075,2024-11-24T09:15:05.075Z,67362,-0.011261601,-0.07710032,0.050344024
1732439705093,2024-11-24T09:15:05.093Z,67380,-0.0029106727,-0.077963784,0.028819311
1732439705098,2024-11-24T09:15:05.098Z,67385,-0.0029106727,-0.077963784,0.028819311
1732439705113,2024-11-24T09:15:05.113Z,67400,0.010219501,-0.07006814,0.05189904
1732439705118,2024-11-24T09:15:05.118Z,67405,0.010219501,-0.07006814,0.05189904
1732439705135,2024-11-24T09:15:05.135Z,67422,0.00495967,-0.0716845,0.052800138
1732439705141,2024-11-24T09:15:05.141Z,67428,0.00495967,-0.0716845,0.052800138
1732439705156,2024-11-24T09:15:05.156Z,67443,0.0039516124,-0.06839062,0.055684578
1732439705161,2024-11-24T09:15:05.161Z,67448,0.0039516124,-0.06839062,0.055684578
1732439705177,2024-11-24T09:15:05.177Z,67464,-0.0023659153,-0.05882096,0.07109914
1732439705182,2024-11-24T09:15:05.182Z,67469,-0.0023659153,-0.05882096,0.07109914
1732439705197,2024-11-24T09:15:05.197Z,67484,-0.009483123,-0.049248673,0.048299074
1732439705203,2024-11-24T09:15:05.203Z,67490,-0.009483123,-0.049248673,0.048299074
1732439705215,2024-11-24T09:15:05.215Z,67502,-0.023062138,-0.041332904,0.041572765
1732439705218,2024-11-24T09:15:05.218Z,67505,-0.023062138,-0.041332904,0.041572765
1732439705229,2024-11-24T09:15:05.229Z,67516,-0.025700213,-0.043268036,0.04152684
1732439705232,2024-11-24T09:15:05.232Z,67519,-0.025700213,-0.043268036,0.04152684
1732439705241,2024-11-24T09:15:05.241Z,67528,-0.018568054,-0.021663873,0.023999205
1732439705243,2024-11-24T09:15:05.243Z,67530,-0.018568054,-0.021663873,0.023999205
1732439705251,2024-11-24T09:15:05.251Z,67538,0.00488705,-0.021549802,0.022665914
1732439705253,2024-11-24T09:15:05.253Z,67540,0.00488705,-0.021549802,0.022665914
1732439705261,2024-11-24T09:15:05.261Z,67548,0.0019555544,-0.027689634,0.019623058
1732439705263,2024-11-24T09:15:05.263Z,67550,0.0019555544,-0.027689634,0.019623058
1732439705271,2024-11-24T09:15:05.271Z,67558,-0.017870143,-0.010371274,0.01636713
1732439705273,2024-11-24T09:15:05.273Z,67560,-0.017870143,-0.010371274,0.01636713
1732439705281,2024-11-24T09:15:05.281Z,67568,-0.017856905,-0.0098662665,0.014147452
1732439705283,2024-11-24T09:15:05.283Z,67570,-0.017856905,-0.0098662665,0.014147452
1732439705290,2024-11-24T09:15:05.290Z,67577,-0.019755082,-0.0039828774,0.010997574
1732439705292,2024-11-24T09:15:05.292Z,67579,-0.019755082,-0.0039828774,0.010997574
1732439705298,2024-11-24T09:15:05.298Z,67585,-0.024432175,0.017426595,0.015352351
1732439705300,2024-11-24T09:15:05.300Z,67587,-0.024432175,0.017426595,0.015352351
1732439705306,2024-11-24T09:15:05.306Z,67593,-0.024733752,0.014815106,0.020237857
1732439705308,2024-11-24T09:15:05.308Z,67595,-0.024733752,0.014815106,0.020237857
1732439705316,2024-11-24T09:15:05.316Z,67603,-0.02587414,0.02143116,0.012357073
1732439705318,2024-11-24T09:15:05.318Z,67605,-0.02587414,0.02143116,0.012357073
1732439705326,2024-11-24T09:15:05.326Z,67613,-0.00432993,0.026690219,-0.021935219
1732439705328,2024-11-24T09:15:05.328Z,67615,-0.00432993,0.026690219,-0.021935219
1732439705335,2024-11-24T09:15:05.335Z,67622,0.0052689174,0.029069774,-0.032926593
1732439705337,2024-11-24T09:15:05.337Z,67624,0.0052689174,0.029069774,-0.032926593
1732439705345,2024-11-24T09:15:05.345Z,67632,0.0054364754,0.029601524,-0.022185218
1732439705347,2024-11-24T09:15:05.347Z,67634,0.0054364754,0.029601524,-0.022185218
1732439705358,2024-11-24T09:15:05.358Z,67645,0.005289522,0.030895794,-0.02167722
1732439705361,2024-11-24T09:15:05.361Z,67648,0.005289522,0.030895794,-0.02167722
1732439705370,2024-11-24T09:15:05.370Z,67657,0.009198114,0.026221193,-0.0141020855
1732439705376,2024-11-24T09:15:05.376Z,67663,0.009198114,0.026221193,-0.0141020855
1732439705389,2024-11-24T09:15:05.389Z,67676,0.013689804,0.026463728,-0.007552282
1732439705391,2024-11-24T09:15:05.391Z,67678,0.013689804,0.026463728,-0.007552282
1732439705402,2024-11-24T09:15:05.402Z,67689,0.006905001,0.014706286,8.260707E-4
1732439705405,2024-11-24T09:15:05.405Z,67692,0.006905001,0.014706286,8.260707E-4
1732439705415,2024-11-24T09:15:05.415Z,67702,0.011831704,0.017805861,0.004533591
1732439705418,2024-11-24T09:15:05.418Z,67705,0.011831704,0.017805861,0.004533591
1732439705427,2024-11-24T09:15:05.427Z,67714,0.0011509997,0.019363478,0.01486621
1732439705430,2024-11-24T09:15:05.430Z,67717,0.0011509997,0.019363478,0.01486621
1732439705451,2024-11-24T09:15:05.451Z,67738,0.0027397356,0.012539217,0.0044847727
1732439705463,2024-11-24T09:15:05.463Z,67750,0.0027397356,0.012539217,0.0044847727
1732439705474,2024-11-24T09:15:05.474Z,67761,-0.0063648387,0.012383816,-5.078519E-4
1732439705476,2024-11-24T09:15:05.476Z,67763,-0.0063648387,0.012383816,-5.078519E-4
1732439705484,2024-11-24T09:15:05.484Z,67771,-0.0016277444,0.011757249,0.0019526369
1732439705486,2024-11-24T09:15:05.486Z,67773,-0.0016277444,0.011757249,0.0019526369
1732439705495,2024-11-24T09:15:05.495Z,67782,0.0045043924,0.014040042,0.002859715
1732439705497,2024-11-24T09:15:05.497Z,67784,0.0045043924,0.014040042,0.002859715
1732439705506,2024-11-24T09:15:05.506Z,67793,-0.0045804526,0.010837188,-0.015842237
1732439705508,2024-11-24T09:15:05.508Z,67795,-0.0045804526,0.010837188,-0.015842237
1732439705515,2024-11-24T09:15:05.515Z,67802,-0.0030528489,0.015629556,-0.015294902
1732439705517,2024-11-24T09:15:05.517Z,67804,-0.0030528489,0.015629556,-0.015294902
1732439705523,2024-11-24T09:15:05.523Z,67810,-0.011722215,0.019951925,-0.0014785057
1732439705525,2024-11-24T09:15:05.525Z,67812,-0.011722215,0.019951925,-0.0014785057
1732439705537,2024-11-24T09:15:05.537Z,67824,-0.016749946,0.025122974,-0.013453346
1732439705539,2024-11-24T09:15:05.539Z,67826,-0.016749946,0.025122974,-0.013453346
1732439705547,2024-11-24T09:15:05.547Z,67834,-0.013857033,0.029435134,-0.020010613
1732439705549,2024-11-24T09:15:05.549Z,67836,-0.013857033,0.029435134,-0.020010613
